time,ax,ay,az,atotal
0.002441883087158203,1.18,-0.26,0.54,1.32
0.012125015258789062,-0.05,0.18,0.51,0.54
0.022693157196044922,0.34,0.18,-0.02,0.38
0.032835960388183594,0.39,-0.1,-0.02,0.4
0.0733189582824707,0.34,-0.06,0.11,0.36
0.0737600326538086,0.08,-0.12,0.16,0.21
0.07416391372680664,-0.05,-0.12,0.08,0.15
0.07457113265991211,-0.12,-0.03,-0.11,0.16
0.08184409141540527,-0.15,-0.02,-0.24,0.28
0.0924980640411377,-0.06,-0.07,-0.23,0.24
0.10247421264648438,-0.04,-0.01,-0.16,0.16
0.11187887191772461,-0.09,0.07,-0.12,0.16
0.12268400192260742,-0.08,0.05,-0.05,0.1
0.13263607025146484,0.04,0.03,0.03,0.05
0.17324209213256836,0.07,0.01,0.04,0.08
0.17367315292358398,0.06,0.02,0.01,0.06
0.17409610748291016,0.07,0.01,-0.01,0.07
0.1745140552520752,0.11,0.02,0.0,0.11
0.181671142578125,0.11,0.01,0.01,0.11
0.1923511028289795,0.07,0.03,0.04,0.08
0.20231294631958008,0.03,-0.02,0.07,0.07
0.21169519424438477,-0.03,-0.03,0.05,0.06
0.22249603271484375,-0.09,-0.01,0.01,0.09
0.23234891891479492,-0.14,-0.01,0.01,0.14
0.2731499671936035,-0.06,-0.01,0.03,0.06
0.2735600471496582,-0.02,-0.07,0.01,0.07
0.27396297454833984,-0.02,-0.1,0.0,0.1
0.27436304092407227,0.03,-0.03,0.03,0.05
0.28148794174194336,0.08,0.0,0.04,0.08
0.2920260429382324,0.09,0.01,-0.03,0.09
0.302095890045166,0.06,0.04,-0.05,0.08
0.3113431930541992,-0.02,0.04,-0.05,0.06
0.3221712112426758,-0.02,0.07,-0.04,0.08
0.3322460651397705,0.02,0.06,-0.03,0.06
0.3736839294433594,-0.02,0.02,0.0,0.02
0.37411022186279297,-0.04,0.0,0.02,0.04
0.3745121955871582,-0.06,-0.04,0.02,0.07
0.37491416931152344,-0.1,-0.07,0.05,0.13
0.3812429904937744,-0.14,-0.07,0.03,0.15
0.39188599586486816,-0.19,0.01,0.03,0.19
0.40183210372924805,-0.27,0.03,0.04,0.27
0.4113950729370117,-0.43,0.05,0.08,0.44
0.4221680164337158,-0.6,0.1,0.08,0.61
0.43225812911987305,-0.89,0.04,0.05,0.89
0.4744901657104492,-1.08,-0.05,0.28,1.11
0.47492218017578125,-0.6,-0.57,0.48,0.95
0.47534704208374023,-0.3,-0.53,0.56,0.82
0.4757561683654785,-0.4,-0.3,0.56,0.75
0.4812588691711426,0.42,0.26,0.34,0.59
0.4918861389160156,1.16,0.61,-0.47,1.39
0.5017151832580566,0.16,-0.32,-0.39,0.52
0.5113039016723633,0.0,-0.15,0.13,0.19
0.5220420360565186,0.32,0.08,-0.03,0.33
0.5320119857788086,0.52,0.08,-0.21,0.56
0.5743241310119629,0.49,0.05,-0.35,0.6
0.574760913848877,0.36,0.1,-0.19,0.41
0.575186014175415,0.16,0.05,0.0,0.16
0.5756130218505859,0.07,0.04,-0.02,0.08
0.5810561180114746,0.1,0.11,-0.04,0.15
0.5917348861694336,0.31,0.05,-0.16,0.35
0.6016149520874023,0.36,0.1,-0.1,0.38
0.6111280918121338,0.26,0.11,-0.06,0.28
0.6218080520629883,0.14,0.04,-0.07,0.16
0.6319270133972168,0.14,0.02,-0.09,0.16
0.6745200157165527,0.24,0.06,-0.07,0.25
0.6749570369720459,0.25,0.09,-0.11,0.28
0.6753830909729004,0.32,0.14,-0.16,0.38
0.6757988929748535,0.34,0.13,-0.13,0.38
0.6809580326080322,0.32,0.09,-0.16,0.36
0.6916499137878418,0.28,0.07,-0.19,0.34
0.7017879486083984,0.21,0.05,-0.13,0.25
0.7109730243682861,0.17,0.05,-0.05,0.18
0.7217321395874023,0.12,0.08,-0.04,0.14
0.7317409515380859,0.13,0.07,-0.07,0.16
0.7744960784912109,0.13,0.07,-0.17,0.22
0.7748980522155762,0.09,0.06,-0.27,0.29
0.7753050327301025,0.12,0.09,-0.27,0.3
0.7757201194763184,0.15,0.11,-0.26,0.31
0.7808151245117188,0.15,0.14,-0.29,0.35
0.7915120124816895,0.24,0.13,-0.25,0.37
0.8017392158508301,0.36,0.08,-0.18,0.41
0.8107089996337891,0.39,0.08,-0.18,0.43
0.8215560913085938,0.28,0.09,-0.2,0.35
0.831618070602417,0.11,0.07,-0.27,0.29
0.8748970031738281,0.04,0.08,-0.31,0.32
0.8753352165222168,0.16,0.17,-0.3,0.38
0.8757519721984863,0.31,0.16,-0.16,0.38
0.8761701583862305,0.34,0.06,0.05,0.34
0.8806180953979492,0.24,0.0,0.12,0.26
0.8912100791931152,0.16,0.03,0.09,0.18
0.9016580581665039,0.18,0.06,0.15,0.24
0.910722017288208,0.24,0.08,0.23,0.34
0.9214649200439453,0.33,0.11,0.29,0.45
0.9315030574798584,0.4,0.03,0.39,0.55
0.9753031730651855,0.45,0.0,0.52,0.68
0.9757142066955566,0.46,0.0,0.57,0.73
0.9761130809783936,0.41,0.14,0.45,0.62
0.9765501022338867,0.34,0.36,0.3,0.57
0.980471134185791,0.33,0.6,0.21,0.71
0.9910831451416016,0.51,0.79,0.18,0.95
1.001288890838623,1.01,0.85,0.07,1.32
1.0105719566345215,1.67,0.93,-0.31,1.93
1.0212039947509766,2.17,1.08,-0.42,2.46
1.0311899185180664,2.01,0.9,-0.21,2.21
1.074869155883789,1.82,0.49,-0.26,1.9
1.0753002166748047,1.51,0.51,-0.27,1.61
1.07572603225708,1.11,0.57,-0.01,1.24
1.0761451721191406,0.72,0.41,0.32,0.88
1.080399990081787,0.13,0.1,0.14,0.21
1.0909430980682373,-0.7,0.08,-0.45,0.83
1.1012670993804932,-0.75,0.27,-0.75,1.09
1.110435962677002,0.8,-0.09,-0.54,0.96
1.1210551261901855,1.94,0.21,-0.72,2.07
1.1311321258544922,2.6,0.64,-0.87,2.81
1.1747798919677734,2.68,0.76,-0.86,2.91
1.175218105316162,2.63,0.47,-0.52,2.72
1.175644874572754,2.58,0.04,-0.13,2.58
1.1760711669921875,2.09,-0.23,-0.14,2.1
1.1802020072937012,1.66,-0.38,-0.39,1.74
1.1908879280090332,1.33,-0.66,-0.44,1.54
1.2011229991912842,0.98,-0.8,-0.32,1.3
1.2103140354156494,0.77,-0.86,-0.2,1.17
1.2209670543670654,0.71,-0.86,-0.05,1.11
1.2309598922729492,0.72,-0.96,0.14,1.2
1.2755820751190186,0.63,-1.01,0.17,1.2
1.2760100364685059,0.42,-0.96,0.08,1.05
1.2764320373535156,0.26,-0.93,0.04,0.96
1.2768580913543701,-0.09,-1.2,0.41,1.27
1.2800641059875488,-0.7,-1.59,0.77,1.9
1.2906930446624756,-1.29,-1.65,0.87,2.26
1.3005671501159668,-1.66,-1.0,0.34,1.96
1.3101520538330078,-1.65,-0.27,-0.07,1.67
1.3206992149353027,-1.65,-0.09,0.12,1.65
1.3307991027832031,-1.56,-0.01,0.34,1.59
1.3753571510314941,-1.24,0.17,0.69,1.42
1.3757939338684082,-1.03,0.33,0.91,1.41
1.3762211799621582,-1.19,0.41,0.95,1.57
1.3766510486602783,-1.44,0.39,1.01,1.8
1.3799171447753906,-1.44,0.14,1.26,1.91
1.3905420303344727,-1.43,-0.07,1.46,2.04
1.400475025177002,-1.42,-0.2,1.64,2.17
1.409938097000122,-1.42,-0.28,1.73,2.25
1.4207470417022705,-1.41,-0.25,1.71,2.23
1.4307610988616943,-0.32,0.21,1.21,1.26
1.476487159729004,-0.81,0.59,1.85,2.1
1.4769129753112793,-3.61,1.02,1.9,4.2
1.4773311614990234,-3.63,0.06,1.79,4.04
1.4777488708496094,-3.42,-0.69,1.91,3.97
1.4796969890594482,-3.5,-0.49,1.71,3.92
1.4902629852294922,-3.2,-0.98,1.09,3.51
1.5002961158752441,-1.1,-1.11,0.99,1.84
1.5097999572753906,-0.05,-1.14,1.06,1.55
1.520482063293457,0.5,-1.57,-0.28,1.67
1.5305030345916748,0.47,-1.45,-1.62,2.22
1.5766949653625488,-0.61,-1.29,-2.2,2.62
1.5771288871765137,-1.61,-1.39,-3.04,3.71
1.5775651931762695,-2.33,-1.88,-3.87,4.89
1.5779860019683838,-2.53,-1.23,-3.9,4.8
1.581657886505127,-1.85,0.13,-2.75,3.31
1.5901498794555664,-0.57,1.19,-1.2,1.78
1.600071907043457,0.16,1.51,0.16,1.52
1.6097478866577148,0.33,1.61,1.18,2.02
1.6203420162200928,-0.09,1.15,1.7,2.05
1.6303811073303223,-0.51,0.5,1.47,1.63
1.6776618957519531,0.08,0.19,1.04,1.06
1.6780881881713867,0.76,0.15,0.31,0.83
1.6785058975219727,1.07,0.4,-0.19,1.15
1.6789259910583496,1.16,0.55,-0.23,1.3
1.6796660423278809,1.37,0.52,-0.11,1.46
1.69002103805542,1.59,0.41,-0.28,1.66
1.7001290321350098,1.51,0.48,-0.35,1.62
1.709549903869629,1.24,0.52,-0.05,1.34
1.7200632095336914,0.96,0.54,0.09,1.1
1.7301721572875977,0.76,0.55,-0.11,0.94
1.7773609161376953,0.4,0.4,-0.49,0.74
1.7777900695800781,-0.21,0.25,-0.68,0.75
1.778191089630127,-0.6,0.13,-0.68,0.91
1.7786180973052979,-0.78,0.07,-0.53,0.94
1.7793779373168945,-1.02,0.05,-0.27,1.05
1.7898950576782227,-0.97,0.06,0.03,0.97
1.799917221069336,-0.63,0.0,0.1,0.63
1.8093628883361816,-0.34,-0.09,0.08,0.36
1.8199090957641602,-0.16,-0.17,0.11,0.25
1.8300418853759766,-0.01,-0.15,0.14,0.2
1.8781042098999023,0.03,0.05,0.2,0.2
1.8785390853881836,0.05,0.2,0.17,0.26
1.8792550563812256,-0.06,0.25,0.01,0.25
1.8796629905700684,-0.08,0.25,0.16,0.3
1.8800439834594727,0.05,0.25,0.17,0.3
1.8897490501403809,-0.1,0.3,0.15,0.35
1.8997690677642822,-0.05,0.45,0.33,0.56
1.909271001815796,0.29,0.52,0.57,0.82
1.919705867767334,0.66,0.53,0.86,1.2
1.9299860000610352,0.89,0.62,1.03,1.49
1.9781160354614258,1.36,0.75,1.22,1.97
1.978614091873169,1.93,0.88,1.4,2.54
1.9793620109558105,2.19,0.96,1.37,2.75
1.9797821044921875,2.52,1.31,0.9,2.97
1.980207920074463,2.26,1.59,0.81,2.87
1.9896399974822998,1.56,1.57,1.13,2.48
1.999495029449463,1.49,1.46,1.37,2.49
2.0090930461883545,1.49,1.58,1.78,2.8
2.0196850299835205,1.55,1.89,1.76,3.01
2.029798984527588,1.56,2.38,1.79,3.36
2.0779409408569336,1.67,3.38,2.03,4.28
2.0783848762512207,2.21,5.2,2.22,6.07
2.079153060913086,3.77,5.71,3.13,7.52
2.079577922821045,3.55,4.63,3.96,7.05
2.0799970626831055,3.68,4.56,3.77,6.96
2.089478015899658,3.4,5.2,4.14,7.46
2.0994482040405273,3.32,6.61,4.18,8.49
2.108975887298584,4.29,7.87,4.3,9.94
2.119699001312256,4.76,8.2,4.8,10.62
2.1298160552978516,3.99,7.88,4.97,10.13
2.179378032684326,3.54,7.78,5.57,10.2
2.179810047149658,3.76,7.48,4.11,9.32
2.1802279949188232,4.01,7.16,1.14,8.28
2.1806459426879883,3.62,7.64,-0.88,8.49
2.181065082550049,2.95,8.53,-0.91,9.07
2.1892120838165283,1.05,9.03,-0.84,9.12
2.1992380619049072,-0.45,8.77,0.42,8.79
2.2087011337280273,0.44,7.63,2.03,7.9
2.2197089195251465,2.83,5.72,2.0,6.68
2.229418992996216,3.76,3.19,2.34,5.45
2.279118061065674,0.82,0.82,0.11,1.16
2.2795519828796387,-0.87,2.55,-4.53,5.27
2.2799720764160156,1.92,5.82,-3.17,6.89
2.2803869247436523,5.72,4.52,0.04,7.29
2.2807979583740234,8.26,1.8,2.47,8.8
2.2891130447387695,8.97,0.32,3.67,9.69
2.2991108894348145,8.27,-0.23,4.08,9.22
2.308600902557373,6.93,-0.33,4.08,8.04
2.319498062133789,5.21,-0.3,3.71,6.4
2.329246997833252,3.78,-0.15,3.11,4.89
2.379335880279541,2.73,-0.18,2.72,3.85
2.379767894744873,2.01,-0.38,2.49,3.22
2.38018798828125,1.55,-0.49,2.2,2.73
2.3806118965148926,1.05,-0.58,1.82,2.17
2.381031036376953,0.78,-0.67,1.27,1.63
2.389070987701416,0.89,-0.64,0.94,1.44
2.399045944213867,1.27,-0.65,1.06,1.77
2.408466100692749,1.66,-0.86,1.2,2.22
2.419485092163086,1.51,-1.18,1.29,2.31
2.429270029067993,0.64,-1.31,1.08,1.81
2.479236125946045,-0.19,-1.48,0.66,1.63
2.479671001434326,-0.89,-1.34,-0.33,1.64
2.480100154876709,-1.4,-0.82,-1.99,2.56
2.4805221557617188,-1.97,-0.44,-3.39,3.94
2.4809470176696777,-2.71,-0.24,-3.95,4.79
2.4888291358947754,-3.55,-0.21,-3.76,5.17
2.4988698959350586,-4.39,-0.41,-3.05,5.36
2.508298873901367,-5.22,-0.13,-3.54,6.3
2.5190210342407227,-5.81,0.6,-5.25,7.85
2.5289130210876465,-6.17,1.5,-6.95,9.41
2.580000877380371,-6.72,2.33,-8.34,10.96
2.580432891845703,-7.66,2.53,-9.12,12.17
2.5808560848236084,-8.9,2.28,-9.8,13.43
2.581279993057251,-10.18,1.35,-10.82,14.91
2.5817041397094727,-10.83,-0.78,-11.29,15.66
2.588714122772217,-10.32,-3.26,-10.35,14.97
2.598708152770996,-9.08,-4.44,-9.1,13.6
2.6081840991973877,-8.06,-4.75,-8.02,12.32
2.619204044342041,-7.86,-5.14,-6.92,11.66
2.6289801597595215,-8.13,-5.17,-6.5,11.62
2.680011034011841,-8.53,-4.32,-6.86,11.76
2.6804451942443848,-7.21,0.34,-6.19,9.5
2.6808738708496094,-1.21,-1.68,-5.56,5.93
2.681303024291992,0.29,2.63,1.98,3.3
2.681727886199951,7.77,8.02,17.9,21.09
2.6886649131774902,12.12,5.94,12.27,18.24
2.698621988296509,5.99,7.92,-9.81,13.95
2.7081050872802734,-1.3,15.32,-10.78,18.77
2.718630075454712,-3.39,8.57,-12.83,15.79
2.7288131713867188,-3.45,2.59,-0.34,4.32
2.7767581939697266,-8.62,-5.41,5.87,11.74
2.777216911315918,-9.05,-6.8,-4.73,12.26
2.77797794342041,-8.52,-4.66,-7.42,12.22
2.778398036956787,-7.54,-2.44,-4.99,9.36
2.7788140773773193,-4.82,0.13,-3.79,6.13
2.7884678840637207,-2.59,1.26,-2.4,3.74
2.798417091369629,-0.09,1.24,-1.32,1.81
2.8079640865325928,1.83,1.08,-0.69,2.23
2.8185391426086426,1.65,0.81,0.22,1.85
2.82857608795166,0.27,0.42,0.14,0.51
2.8783910274505615,-0.5,0.1,-0.93,1.06
2.8788199424743652,-0.91,-0.18,-1.7,1.93
2.8792450428009033,-1.09,-0.26,-1.51,1.88
2.879672050476074,-0.92,-0.15,-1.06,1.41
2.880094051361084,-0.63,-0.02,-1.21,1.36
2.8882851600646973,-0.48,0.06,-1.28,1.36
2.8984010219573975,-0.21,0.1,-0.98,1.0
2.9077281951904297,0.27,0.2,-0.7,0.77
2.918354034423828,0.5,0.21,-0.45,0.7
2.928462028503418,0.39,0.16,0.15,0.44
2.978332996368408,0.11,0.05,0.76,0.76
2.978793144226074,0.11,-0.05,0.99,0.99
2.979259967803955,0.32,-0.01,1.06,1.1
2.9797210693359375,0.57,0.11,0.74,0.94
2.980154037475586,0.79,0.16,0.35,0.87
2.988107204437256,1.11,0.26,0.22,1.16
2.99826717376709,1.3,0.31,0.34,1.37
3.00753116607666,1.2,0.22,0.88,1.5
3.0182549953460693,1.06,0.12,1.36,1.72
3.0282580852508545,1.15,0.14,1.57,1.95
3.0781688690185547,1.44,0.21,1.7,2.23
3.0786030292510986,1.36,0.24,1.33,1.91
3.0790250301361084,0.81,0.15,0.98,1.28
3.0794501304626465,0.29,0.04,0.74,0.79
3.0798721313476562,0.11,-0.08,0.43,0.45
3.0879340171813965,0.21,-0.07,0.22,0.31
3.098008155822754,0.52,0.1,0.09,0.53
3.1073920726776123,0.69,0.4,-0.26,0.83
3.1182961463928223,0.71,0.65,-0.33,1.01
3.1282200813293457,0.42,0.84,-0.03,0.93
3.178114891052246,0.19,0.88,0.08,0.9
3.1785621643066406,0.03,0.63,0.72,0.95
3.1789870262145996,-0.4,0.37,1.13,1.25
3.179408073425293,-0.44,0.46,1.48,1.61
3.1798338890075684,-0.11,0.7,1.42,1.58
3.1878719329833984,0.22,0.83,1.38,1.62
3.1978280544281006,0.59,0.91,1.24,1.64
3.207284927368164,0.96,1.01,1.16,1.81
3.217928886413574,1.19,1.12,1.17,2.0
3.2280030250549316,1.36,1.22,1.24,2.2
3.277994155883789,1.62,1.44,1.38,2.56
3.2784252166748047,1.94,1.82,1.63,3.11
3.2788429260253906,2.27,2.34,1.8,3.72
3.2792601585388184,2.4,2.9,2.13,4.32
3.279682159423828,2.42,3.66,2.64,5.12
3.287508010864258,2.57,4.9,3.14,6.36
3.2977020740509033,3.05,6.85,3.35,8.21
3.307147979736328,4.37,8.08,4.71,10.32
3.3176510334014893,5.06,8.42,6.28,11.65
3.3278989791870117,5.61,9.14,6.92,12.76
3.3781681060791016,5.97,10.39,7.17,13.96
3.3786110877990723,5.22,11.06,7.77,14.48
3.379042148590088,3.67,10.46,7.44,13.35
3.379469871520996,2.2,8.9,3.42,9.78
3.3798952102661133,2.18,7.29,-2.69,8.07
3.387403964996338,2.05,8.66,-7.47,11.61
3.3975648880004883,-0.64,13.0,-5.45,14.11
3.4070050716400146,-2.72,14.25,0.66,14.52
3.417612075805664,-1.68,10.22,2.83,10.73
3.4277071952819824,2.7,4.9,0.49,5.61
3.478018045425415,2.85,1.7,0.12,3.32
3.4784560203552246,-1.4,0.2,-0.67,1.56
3.478879928588867,-4.48,1.12,-5.47,7.15
3.4792981147766113,-1.24,4.18,-3.4,5.52
3.479722023010254,3.46,3.95,1.42,5.43
3.487307071685791,6.95,1.44,4.16,8.22
3.4975051879882812,8.32,-0.76,6.54,10.6
3.5068280696868896,6.87,-1.69,5.72,9.09
3.51741099357605,5.46,-1.5,3.99,6.92
3.527550220489502,3.85,-1.34,3.21,5.18
3.5781240463256836,1.97,-1.28,2.5,3.43
3.578558921813965,0.47,-1.51,1.99,2.54
3.5789880752563477,-0.89,-1.93,1.66,2.69
3.5794150829315186,-1.58,-2.27,1.37,3.08
3.579835891723633,-1.64,-2.75,1.44,3.51
3.5874929428100586,-1.25,-3.06,1.55,3.65
3.5972208976745605,-0.39,-3.27,1.6,3.66
3.6067261695861816,0.12,-3.59,1.46,3.87
3.6173930168151855,0.0,-3.8,0.86,3.89
3.627431869506836,0.12,-4.25,0.98,4.36
3.677626132965088,0.22,-4.49,1.48,4.73
3.6780591011047363,0.4,-4.55,1.55,4.82
3.6784839630126953,0.37,-4.71,1.24,4.88
3.678907871246338,-0.93,-4.53,0.37,4.63
3.679333209991455,-2.34,-3.98,-2.15,5.09
3.687501907348633,-3.59,-3.38,-3.88,6.27
3.6971499919891357,-4.13,-3.35,-2.27,5.78
3.706584930419922,-3.51,-3.33,-0.79,4.9
3.717228889465332,-3.31,-2.54,-2.03,4.63
3.7272791862487793,-4.17,-1.48,-4.04,5.99
3.7774081230163574,-5.92,-0.65,-6.08,8.51
3.7778379917144775,-7.86,-0.34,-7.59,10.93
3.7782580852508545,-8.45,-0.96,-7.64,11.43
3.7786850929260254,-7.98,-1.56,-7.16,10.83
3.779102087020874,-8.13,-1.74,-7.34,11.09
3.7873449325561523,-8.92,-1.85,-7.5,11.79
3.796943187713623,-9.48,-2.01,-7.74,12.4
3.8064041137695312,-9.12,-2.03,-8.1,12.36
3.8170042037963867,-7.82,-2.32,-7.16,10.85
3.8272008895874023,-7.27,-2.73,-6.06,9.85
3.877817153930664,-7.16,-3.07,-5.58,9.58
3.87825608253479,-6.79,-3.37,-5.1,9.13
3.8786799907684326,-7.28,-1.79,-4.94,8.97
3.8791000843048096,-6.83,4.05,-4.93,9.34
3.8795220851898193,3.69,1.33,-0.79,4.0
3.8870949745178223,12.39,6.84,11.64,18.32
3.8968639373779297,18.57,12.09,20.4,30.11
3.9067931175231934,9.01,14.15,-1.64,16.85
3.9168670177459717,0.21,20.05,-13.39,24.11
3.927028179168701,-2.67,8.29,-20.11,21.91
3.93619704246521,-9.05,-0.17,-0.63,9.07
3.9736971855163574,-12.96,-8.5,14.12,20.96
3.9741392135620117,-10.61,-8.86,-2.01,13.96
3.9745700359344482,-11.53,-5.3,-7.78,14.88
3.9761409759521484,-9.18,-2.11,-4.8,10.57
3.98698091506958,-4.59,-0.02,-3.55,5.8
3.996742010116577,-1.12,1.16,-1.98,2.55
4.006233215332031,1.55,1.48,-1.27,2.49
4.016737937927246,3.53,1.65,-2.54,4.65
4.026865005493164,3.69,1.67,-2.57,4.79
4.03599214553833,1.13,1.21,-1.24,2.06
4.07452917098999,-1.29,0.48,-0.66,1.52
4.0749900341033936,-1.6,-0.25,-0.97,1.88
4.0754170417785645,-0.89,-0.39,-1.07,1.44
4.0761590003967285,-0.52,-0.24,-0.89,1.05
4.086474895477295,-0.29,-0.03,-0.49,0.57
4.096607208251953,-0.08,0.07,-0.48,0.49
4.1061601638793945,-0.09,-0.07,-0.5,0.51
4.116656064987183,-0.24,-0.09,-0.18,0.31
4.126687049865723,-0.22,-0.05,0.01,0.22
4.136015892028809,-0.06,0.03,0.09,0.11
4.175436019897461,0.03,0.06,0.08,0.1
4.176192045211792,0.07,-0.01,-0.04,0.08
4.176626205444336,0.19,0.0,-0.03,0.19
4.177051067352295,0.31,0.01,-0.12,0.33
4.186341047286987,0.44,0.04,-0.22,0.49
4.196413993835449,0.68,0.11,-0.24,0.72
4.205992221832275,0.98,0.18,0.05,0.99
4.216372966766357,1.4,0.19,0.55,1.51
4.227041006088257,1.63,0.18,0.97,1.9
4.235776901245117,1.42,0.15,1.22,1.87
4.276066064834595,0.99,0.11,1.08,1.46
4.276494026184082,0.44,0.05,0.97,1.06
4.2769269943237305,-0.12,-0.01,0.85,0.85
4.277354001998901,-0.28,-0.05,0.65,0.7
4.286178112030029,-0.03,-0.03,0.48,0.48
4.296277046203613,0.3,-0.01,0.44,0.53
4.305865049362183,0.51,-0.02,0.5,0.71
4.316341876983643,0.4,-0.04,0.45,0.6
4.326354026794434,0.16,-0.01,0.28,0.32
4.3356640338897705,-0.12,0.03,0.03,0.12
4.375086069107056,-0.31,0.2,0.01,0.36
4.37582802772522,-0.24,0.35,-0.03,0.42
4.376251220703125,-0.31,0.42,0.06,0.52
4.376657009124756,-0.24,0.42,0.59,0.76
4.386076927185059,0.4,0.48,1.05,1.22
4.396153926849365,1.12,0.75,1.59,2.08
4.405661106109619,1.53,1.14,1.83,2.64
4.416123867034912,1.9,1.76,1.97,3.25
4.426222085952759,1.72,1.78,2.42,3.46
4.4355480670928955,1.3,2.19,2.32,3.44
4.475854873657227,1.78,2.3,1.91,3.47
4.476288080215454,1.97,2.4,1.86,3.61
4.476707935333252,2.34,2.51,1.74,3.84
4.4771339893341064,2.78,2.74,1.78,4.29
4.485903024673462,2.8,2.95,1.84,4.46
4.496023178100586,2.53,3.44,1.95,4.69
4.505463123321533,2.56,4.27,2.19,5.43
4.516005039215088,3.08,5.25,2.59,6.61
4.5260491371154785,3.97,5.62,3.7,7.81
4.53539514541626,4.23,5.49,4.77,8.41
4.575713157653809,4.2,5.89,5.31,8.97
4.576148986816406,4.21,6.83,5.85,9.92
4.576577186584473,4.55,8.11,6.86,11.55
4.577000141143799,5.19,8.83,7.75,12.84
4.585736989974976,5.5,8.31,7.21,12.3
4.595762014389038,5.77,7.5,4.46,10.46
4.605187892913818,6.22,7.39,0.75,9.68
4.615869045257568,5.97,9.18,-3.51,11.49
4.626319885253906,3.06,13.2,-6.35,14.96
4.6352620124816895,0.11,15.0,-2.26,15.16
4.675725936889648,-0.92,12.22,2.22,12.45
4.676160097122192,0.08,7.36,2.3,7.71
4.676578044891357,2.05,3.66,0.74,4.25
4.676997184753418,0.16,1.65,0.69,1.79
4.685543060302734,-5.28,1.34,-4.78,7.24
4.695630073547363,-3.74,4.74,-5.53,8.18
4.705015182495117,1.53,5.71,-0.15,5.91
4.715723037719727,5.62,3.16,2.71,6.99
4.725811958312988,8.27,0.25,4.67,9.5
4.735106945037842,7.63,-1.56,4.16,8.82
4.776050090789795,5.91,-2.17,2.12,6.64
4.776482105255127,4.58,-2.62,1.57,5.5
4.7769060134887695,3.17,-2.76,1.83,4.58
4.77732515335083,2.06,-2.44,1.63,3.58
4.785463094711304,1.0,-2.18,1.37,2.76
4.795525074005127,0.23,-2.11,1.03,2.35
4.804873943328857,0.05,-2.31,0.56,2.37
4.815648078918457,0.76,-2.61,0.33,2.73
4.825615882873535,1.91,-2.83,0.26,3.42
4.834924221038818,2.81,-2.95,0.27,4.08
4.876274108886719,3.19,-3.09,0.28,4.45
4.876710891723633,3.08,-3.44,0.04,4.61
4.87714409828186,2.58,-3.97,-0.26,4.74
4.877573013305664,1.81,-4.47,-0.48,4.84
4.885315895080566,1.08,-4.92,-0.52,5.06
4.895381927490234,0.42,-5.36,-0.76,5.42
4.904825210571289,-0.39,-5.55,-1.28,5.7
4.915482044219971,-1.49,-5.64,-2.05,6.18
4.925544023513794,-2.94,-5.6,-3.06,7.02
4.934807062149048,-4.35,-5.52,-3.61,7.9
4.975795030593872,-5.46,-5.2,-4.15,8.6
4.9762279987335205,-6.28,-4.54,-4.89,9.16
4.976653099060059,-7.09,-3.67,-6.01,9.99
4.977078914642334,-7.68,-2.58,-6.89,10.63
4.985084056854248,-7.89,-1.37,-7.51,10.97
4.9952921867370605,-8.03,-0.21,-8.25,11.51
5.004792213439941,-8.65,0.73,-8.89,12.42
5.01529598236084,-9.74,1.21,-9.13,13.4
5.025374889373779,-10.71,0.97,-9.45,14.31
5.034665107727051,-10.9,0.39,-10.03,14.81
5.0761399269104,-10.08,-0.82,-10.11,14.3
5.076580047607422,-8.52,-1.91,-8.67,12.3
5.077009201049805,-7.39,-1.6,-7.5,10.64
5.077439069747925,-6.75,-1.62,-6.55,9.54
5.085021018981934,-6.58,-2.54,-4.87,8.57
5.095130920410156,-7.02,-1.51,-4.52,8.48
5.104895114898682,-6.56,6.22,-2.95,9.5
5.115135192871094,4.82,4.65,3.49,7.55
5.125217914581299,15.03,5.33,13.28,20.75
5.1345601081848145,17.87,6.73,19.06,26.97
5.177163124084473,9.22,4.01,0.35,10.06
5.1776041984558105,3.39,5.54,-8.78,10.92
5.1780290603637695,0.64,10.23,-7.43,12.65
5.178458213806152,-4.08,7.09,-9.79,12.75
5.18485689163208,-6.01,2.48,-3.9,7.58
5.194961071014404,-9.11,-1.77,2.4,9.58
5.204677104949951,-8.09,-4.38,-2.74,9.59
5.2149879932403564,-5.14,-3.03,-5.25,7.94
5.225151062011719,-4.2,-1.48,-4.26,6.16
5.234288215637207,-3.37,0.42,-3.36,4.77
5.276784896850586,-2.73,1.39,-2.37,3.87
5.2772181034088135,-1.66,1.01,-1.21,2.28
5.277643203735352,-1.08,0.36,-0.87,1.43
5.278064012527466,-0.63,0.28,-0.78,1.04
5.284694194793701,0.1,0.37,-0.19,0.42
5.294785022735596,0.77,0.52,-0.28,0.97
5.304593086242676,0.89,0.52,-0.49,1.14
5.314919948577881,0.36,0.22,-0.42,0.59
5.324925899505615,-0.1,-0.04,-0.22,0.24
5.334233999252319,0.07,-0.11,-0.15,0.19
5.377418041229248,0.51,-0.09,-0.52,0.73
5.37785005569458,0.8,-0.01,-0.79,1.12
5.378271102905273,0.68,-0.02,-0.63,0.92
5.378692150115967,0.3,-0.11,-0.4,0.51
5.384428024291992,-0.11,-0.13,0.11,0.2
5.394656181335449,-0.21,-0.15,0.55,0.6
5.404086112976074,0.04,-0.08,0.73,0.73
5.414697170257568,0.61,0.05,0.53,0.8
5.4247519969940186,1.05,0.12,0.37,1.11
5.434053897857666,1.24,0.13,0.39,1.3
5.477211952209473,1.4,0.15,0.57,1.51
5.477650165557861,1.43,0.21,0.84,1.67
5.478071212768555,1.11,0.14,0.91,1.44
5.478496074676514,0.65,0.03,0.83,1.05
5.484413146972656,0.37,-0.07,0.84,0.92
5.494499206542969,0.3,-0.13,0.87,0.92
5.503921985626221,0.36,-0.14,0.73,0.82
5.514606952667236,0.36,-0.15,0.53,0.65
5.524623870849609,0.29,-0.08,0.32,0.43
5.533935070037842,0.16,0.04,0.25,0.29
5.577522039413452,-0.08,0.12,0.13,0.19
5.577946186065674,-0.12,0.25,0.12,0.3
5.578365087509155,0.1,0.21,0.46,0.51
5.578782081604004,0.29,0.14,0.89,0.94
5.584338188171387,0.66,0.16,1.17,1.35
5.594135046005249,0.92,0.19,1.36,1.65
5.603641033172607,0.78,0.23,1.31,1.54
5.614365100860596,0.5,0.3,1.34,1.46
5.624330043792725,0.35,0.53,1.42,1.55
5.633714199066162,0.54,0.9,1.28,1.65
5.676392078399658,0.79,1.32,0.92,1.79
5.6768200397491455,0.99,1.71,1.11,2.26
5.6772379875183105,1.11,1.77,1.16,2.38
5.6776580810546875,1.17,1.75,1.34,2.49
5.6841230392456055,1.21,1.68,1.48,2.54
5.694109916687012,1.35,1.79,1.56,2.73
5.703619003295898,1.57,2.04,1.65,3.05
5.714229106903076,1.86,2.53,1.77,3.6
5.724340915679932,2.26,3.25,1.94,4.4
5.7336790561676025,3.0,4.31,2.12,5.66
5.77702522277832,3.97,5.08,2.86,7.05
5.777450084686279,4.28,5.66,3.71,8.0
5.7778730392456055,4.54,6.45,4.45,9.05
5.778286933898926,4.55,6.93,5.63,10.02
5.783930063247681,4.67,7.45,6.93,11.19
5.793974876403809,4.87,7.9,7.49,11.92
5.803504943847656,5.27,7.75,6.4,11.34
5.81412410736084,5.47,6.64,4.91,9.9
5.824259996414185,4.07,5.59,2.42,7.32
5.835475921630859,2.46,5.64,-0.96,6.22
5.876622200012207,0.56,7.2,-4.61,8.56
5.8770530223846436,-3.22,10.89,-4.06,12.06
5.877482891082764,-5.4,10.72,-0.18,12.0
5.877910137176514,-3.03,8.72,1.26,9.31
5.8838629722595215,2.47,5.86,1.1,6.45
5.893828868865967,4.24,2.61,1.79,5.29
5.903324127197266,1.72,0.48,1.58,2.38
5.913973093032837,-2.75,0.1,-1.56,3.16
5.924026966094971,-3.08,2.66,-4.56,6.11
5.93333101272583,1.46,5.27,-1.05,5.56
5.97711706161499,5.59,4.24,2.24,7.36
5.977548122406006,8.38,1.79,4.39,9.62
5.977970123291016,9.38,-0.09,5.72,10.98
5.978404998779297,8.28,-0.7,4.92,9.65
5.98368501663208,6.94,-0.46,3.88,7.96
5.993742942810059,5.63,-0.12,3.42,6.58
6.003072023391724,4.26,0.13,3.15,5.29
6.0137939453125,2.98,0.2,2.66,3.99
6.023925065994263,1.92,0.32,2.07,2.84
6.033194065093994,1.11,0.36,1.55,1.94
6.077467918395996,0.74,0.0,1.21,1.41
6.0779030323028564,0.98,-0.52,1.09,1.55
6.078336000442505,1.45,-0.97,0.97,1.99
6.07875919342041,1.76,-1.36,0.8,2.36
6.083487033843994,1.9,-1.73,0.7,2.66
6.093563079833984,1.55,-2.11,0.48,2.66
6.1030988693237305,0.86,-2.48,0.06,2.62
6.113698959350586,0.0,-2.81,-0.17,2.81
6.123625993728638,-0.69,-3.1,-0.48,3.21
6.133057117462158,-1.18,-2.9,-1.18,3.34
6.177967071533203,-1.79,-2.43,-2.69,4.04
6.178408145904541,-2.48,-1.88,-4.31,5.31
6.178828001022339,-3.1,-1.64,-4.58,5.76
6.179250001907349,-3.6,-1.7,-3.83,5.52
6.1833250522613525,-4.03,-1.32,-4.02,5.84
6.19335412979126,-4.61,-0.32,-5.05,6.84
6.202877998352051,-5.06,0.81,-5.95,7.85
6.21353816986084,-5.48,1.72,-6.8,8.9
6.223464012145996,-6.52,2.35,-8.33,10.83
6.232853889465332,-7.94,2.44,-9.64,12.72
6.276478052139282,-9.5,1.95,-10.24,14.1
6.276917934417725,-10.6,0.72,-11.0,15.29
6.277348041534424,-10.39,-1.78,-11.17,15.35
6.277776002883911,-8.84,-4.35,-9.59,13.74
6.283237934112549,-7.31,-5.07,-8.89,12.57
6.293217182159424,-7.07,-4.03,-8.49,11.76
6.302769184112549,-7.7,-4.01,-7.42,11.42
6.313382148742676,-7.54,0.63,-6.34,9.87
6.323339939117432,-2.29,-1.21,-5.8,6.35
6.33272910118103,-0.86,0.74,-1.84,2.16
6.3768792152404785,5.66,8.25,11.52,15.25
6.3773109912872314,12.92,5.6,16.91,22.0
6.377738952636719,7.4,4.7,0.92,8.81
6.378159046173096,-0.3,11.0,-8.67,14.0
6.383123874664307,-4.67,10.2,-7.46,13.47
6.393073081970215,-6.46,1.32,-6.09,8.97
6.402482986450195,-5.74,-2.45,-0.5,6.26
6.4132399559021,-8.0,-3.47,-0.68,8.74
6.42325496673584,-8.7,-3.76,-6.65,11.57
6.4325220584869385,-7.38,-2.01,-8.33,11.3
6.476885080337524,-5.85,-0.1,-5.15,7.79
6.477315902709961,-3.78,0.64,-3.05,4.89
6.477735996246338,-1.32,0.61,-2.39,2.79
6.478155136108398,0.37,0.37,-1.23,1.33
6.48286509513855,0.99,0.7,-1.06,1.61
6.493037223815918,0.25,0.65,-1.5,1.65
6.502479076385498,-0.71,0.39,-2.1,2.25
6.513158082962036,-1.14,0.34,-1.6,1.99
6.523268222808838,-1.2,0.17,-0.96,1.54
6.532466888427734,-1.17,0.06,-1.01,1.54
6.578027009963989,-1.16,-0.06,-1.08,1.58
6.578458070755005,-1.02,-0.08,-1.25,1.61
6.578881025314331,-0.73,-0.03,-1.22,1.42
6.579305171966553,-0.59,0.01,-1.03,1.18
6.582723140716553,-0.59,-0.03,-0.69,0.9
6.592616081237793,-0.61,-0.08,-0.27,0.67
6.60228705406189,-0.43,-0.02,0.0,0.43
6.612982988357544,-0.05,0.05,0.19,0.2
6.659815073013306,0.25,0.07,0.5,0.56
6.660250186920166,0.43,0.09,0.6,0.74
6.6606690883636475,0.68,0.1,0.61,0.91
6.66108512878418,0.91,0.19,0.45,1.03
6.662046909332275,0.95,0.22,0.15,0.98
6.672295093536377,0.86,0.16,0.08,0.87
6.682632923126221,0.94,0.03,0.45,1.04
6.692541122436523,1.21,-0.06,1.15,1.67
6.7021520137786865,1.45,0.01,1.72,2.24
6.712705135345459,1.38,0.15,1.55,2.08
6.761512994766235,1.07,0.19,1.3,1.69
6.762253046035767,0.66,0.08,1.36,1.51
6.7626729011535645,0.49,0.04,1.23,1.32
6.7630839347839355,0.83,0.07,0.96,1.27
6.763494968414307,1.1,0.13,0.87,1.4
6.771900177001953,1.01,0.21,0.94,1.39
6.782581090927124,0.83,0.18,0.9,1.23
6.792484998703003,0.81,0.22,0.96,1.27
6.802060127258301,1.15,0.36,1.09,1.62
6.812542915344238,1.36,0.49,1.33,1.96
6.861248016357422,1.47,0.6,1.61,2.26
6.861999034881592,1.56,0.66,1.93,2.56
6.862418174743652,1.63,1.02,1.87,2.68
6.862835884094238,1.46,1.58,1.72,2.75
6.863251209259033,1.53,2.32,1.35,3.08
6.871939182281494,1.56,2.72,1.26,3.37
6.882440090179443,1.49,2.66,1.28,3.3
6.892541885375977,1.53,2.38,1.65,3.27
6.90193510055542,1.73,2.27,1.93,3.44
6.912604093551636,1.88,2.44,2.15,3.75
6.960875988006592,2.11,3.17,2.17,4.38
6.962539196014404,2.64,4.67,2.31,5.84
6.962959051132202,4.05,6.06,3.18,7.95
6.963374137878418,4.91,6.41,4.73,9.35
6.9637908935546875,5.14,7.18,5.46,10.38
6.971732139587402,5.71,8.16,6.24,11.75
6.9823479652404785,5.13,8.65,7.33,12.44
6.992432117462158,4.1,8.68,8.77,13.0
7.001805067062378,4.14,8.35,8.01,12.28
7.012485980987549,4.76,7.49,5.04,10.2
7.060153961181641,5.65,7.45,0.93,9.39
7.061990022659302,6.16,9.02,-3.18,11.37
7.062419891357422,3.12,12.46,-5.54,13.98
7.062849998474121,-1.54,13.2,-1.42,13.36
7.063275098800659,-2.18,10.53,1.96,10.93
7.071512222290039,0.43,6.47,1.51,6.65
7.082126140594482,2.31,2.84,1.64,4.01
7.092206001281738,0.14,0.61,2.14,2.22
7.101608991622925,-5.21,-0.42,-2.16,5.65
7.112257957458496,-4.69,2.45,-4.85,7.17
7.1222569942474365,0.6,4.65,-0.25,4.69
7.1614298820495605,4.83,3.55,2.34,6.43
7.161930084228516,8.25,1.24,3.92,9.21
7.16238808631897,8.84,-0.82,4.32,9.87
7.162879943847656,7.22,-1.54,2.97,7.95
7.171357154846191,5.79,-1.47,2.01,6.3
7.181973934173584,4.69,-1.4,1.87,5.23
7.192107200622559,3.87,-1.53,2.0,4.61
7.2014570236206055,2.97,-1.61,1.97,3.91
7.21218204498291,1.93,-1.66,1.5,2.95
7.2221620082855225,0.96,-1.82,1.03,2.3
7.261642932891846,0.49,-1.84,0.7,2.02
7.26207709312439,0.85,-1.91,0.65,2.18
7.262502193450928,1.76,-2.01,1.12,2.89
7.2629241943359375,2.77,-2.13,1.45,3.78
7.271254062652588,3.31,-2.31,1.35,4.25
7.2818450927734375,3.05,-2.4,1.23,4.07
7.291887044906616,2.19,-2.4,0.86,3.36
7.30134391784668,0.81,-2.81,0.59,2.98
7.312032222747803,-0.84,-2.95,-0.32,3.08
7.322023868560791,-1.7,-2.65,-2.8,4.21
7.361044883728027,-2.22,-2.45,-5.09,6.06
7.361669063568115,-3.09,-2.94,-4.11,5.92
7.362092971801758,-3.51,-3.55,-2.86,5.75
7.362498044967651,-4.33,-3.55,-3.35,6.52
7.37106990814209,-5.81,-2.91,-4.72,8.03
7.381726026535034,-6.78,-1.94,-5.75,9.09
7.391680002212524,-6.64,-1.19,-6.16,9.13
7.401271104812622,-6.52,-0.47,-6.92,9.51
7.41188907623291,-7.63,0.44,-8.21,11.21
7.421878099441528,-9.24,1.43,-9.29,13.18
7.461503982543945,-10.08,1.81,-9.88,14.23
7.461944103240967,-9.9,1.26,-9.93,14.07
7.462374210357666,-8.68,-0.08,-9.36,12.76
7.462804079055786,-7.31,-0.97,-8.11,10.96
7.470938205718994,-5.1,1.09,-7.15,8.84
7.481658935546875,-2.22,-0.62,-5.7,6.14
7.491617202758789,-5.46,-2.65,-5.57,8.23
7.501085042953491,-8.41,-3.23,-5.91,10.77
7.511673927307129,-9.18,-1.54,-5.97,11.05
7.521701097488403,-0.58,7.35,2.77,7.87
7.561991214752197,12.79,12.48,17.66,25.12
7.562779903411865,3.72,15.05,-1.16,15.54
7.563216209411621,-5.27,6.72,-13.14,15.67
7.563636064529419,-4.36,-2.47,-2.32,5.52
7.570861101150513,-9.22,-5.87,3.95,11.62
7.581482887268066,-10.29,-4.83,-2.56,11.65
7.591238021850586,-9.17,-3.03,-5.23,10.98
7.600826025009155,-7.72,-1.19,-4.67,9.1
7.611541032791138,-4.7,1.01,-2.9,5.61
7.621546030044556,-1.5,1.08,-2.05,2.76
7.662402153015137,0.93,0.42,-2.26,2.47
7.662837982177734,2.18,0.34,-2.58,3.39
7.663258075714111,1.83,0.58,-2.19,2.91
7.66367506980896,0.1,0.88,-2.04,2.22
7.6706531047821045,-1.49,0.79,-1.57,2.3
7.681239128112793,-2.0,0.39,-1.09,2.31
7.691110134124756,-2.27,-0.07,-0.96,2.46
7.700712203979492,-2.34,-0.26,-0.64,2.43
7.711400985717773,-1.97,-0.01,-0.52,2.03
7.721329212188721,-1.2,0.32,-1.13,1.67
7.761329174041748,0.64,0.39,-2.18,2.3
7.761768102645874,2.11,0.36,-2.15,3.03
7.762193202972412,1.72,0.13,-1.5,2.28
7.7626190185546875,0.16,-0.43,-0.73,0.86
7.77048921585083,-1.17,-0.49,0.09,1.27
7.781130075454712,-1.4,-0.13,0.54,1.5
7.791018962860107,-0.92,0.02,0.95,1.32
7.800702095031738,-0.61,-0.08,1.08,1.24
7.811333179473877,-0.24,-0.09,0.81,0.84
7.8213300704956055,0.33,0.12,0.51,0.61
7.86194109916687,0.69,0.38,0.57,0.97
7.86258602142334,0.68,0.43,0.67,1.04
7.863016128540039,0.6,0.21,0.71,0.95
7.863431930541992,0.49,0.03,1.07,1.17
7.870325088500977,0.57,-0.14,1.41,1.52
7.880934000015259,0.72,-0.29,1.62,1.79
7.891067981719971,0.93,-0.39,1.59,1.88
7.900485992431641,1.32,-0.31,1.26,1.85
7.911064147949219,1.86,-0.07,0.88,2.05
7.921195030212402,2.36,0.22,0.63,2.45
7.962261199951172,2.24,0.43,0.68,2.38
7.962686061859131,1.78,0.49,1.02,2.1
7.9631030559539795,1.54,0.5,1.18,2.0
7.963517189025879,1.6,0.34,1.69,2.35
7.970272064208984,1.82,0.43,2.04,2.76
7.980885028839111,1.94,0.8,1.58,2.62
7.991001129150391,1.6,1.12,1.24,2.31
8.000310897827148,1.14,1.47,0.96,2.09
8.010971069335938,1.08,2.06,0.93,2.5
8.020971059799194,1.37,2.38,0.99,2.91
8.062096118927002,1.36,2.87,1.26,3.41
8.062521934509277,1.66,2.88,1.36,3.59
8.062939167022705,1.74,2.82,1.63,3.69
8.063354015350342,1.79,2.63,1.91,3.71
8.070005893707275,1.89,2.72,2.06,3.9
8.080619096755981,2.09,3.21,2.29,4.46
8.091050148010254,2.33,4.57,2.43,5.67
8.10020899772644,3.32,6.53,2.65,7.79
8.110766887664795,4.71,7.05,4.44,9.57
8.120725154876709,4.43,6.92,5.98,10.16
8.162505149841309,4.41,7.69,7.24,11.44
8.162934064865112,5.59,9.22,7.85,13.33
8.163357019424438,6.61,9.74,7.62,14.02
8.163772106170654,6.0,8.77,7.01,12.73
8.169960975646973,5.5,7.46,4.7,10.39
8.18059492111206,5.68,6.97,0.12,8.99
8.190818071365356,5.15,8.36,-4.7,10.88
8.200016021728516,2.03,11.7,-6.41,13.49
8.210623025894165,-1.02,13.17,-2.04,13.36
8.220545053482056,-2.0,10.89,1.91,11.23
8.262486934661865,0.2,6.34,1.12,6.44
8.262911081314087,2.14,2.88,0.3,3.6
8.263336181640625,-0.26,0.35,1.05,1.13
8.263759136199951,-3.57,-0.03,-4.18,5.49
8.269716024398804,-0.29,3.59,-4.6,5.84
8.280455112457275,4.72,4.25,0.11,6.35
8.29066514968872,8.3,1.78,2.71,8.91
8.299949169158936,10.5,-0.67,4.58,11.47
8.310561180114746,9.99,-2.37,4.8,11.33
8.320437908172607,8.06,-3.26,3.98,9.56
8.362854957580566,6.31,-3.61,3.18,7.93
8.363294124603271,5.06,-3.58,2.77,6.78
8.363716125488281,4.36,-3.44,2.92,6.27
8.364142894744873,3.7,-3.6,3.14,6.04
8.3695969581604,3.1,-3.66,2.94,5.62
8.380245208740234,2.56,-3.51,2.59,5.05
8.390069961547852,1.96,-3.32,2.02,4.35
8.399761199951172,1.33,-2.84,1.26,3.37
8.410387992858887,0.58,-2.38,0.53,2.5
8.420420169830322,0.1,-1.68,-0.24,1.69
8.462807178497314,0.2,-0.94,-0.37,1.02
8.463242053985596,0.37,-0.87,-0.56,1.09
8.463672161102295,0.11,-1.27,-0.58,1.4
8.464098930358887,-0.4,-1.24,-0.61,1.43
8.469454050064087,-1.29,-0.16,-1.45,1.94
8.480125904083252,-2.36,1.49,-3.48,4.46
8.490025043487549,-3.15,3.31,-5.81,7.39
8.4995698928833,-3.7,4.57,-6.88,9.05
8.510231018066406,-4.29,5.33,-6.02,9.11
8.520204067230225,-5.33,5.26,-4.48,8.72
8.563669204711914,-7.33,4.91,-4.22,9.77
8.564104080200195,-9.8,5.54,-5.89,12.7
8.564526081085205,-11.66,7.01,-9.32,16.49
8.564950942993164,-11.58,6.32,-12.06,17.87
8.569946050643921,-8.59,1.32,-10.38,13.53
8.579854965209961,-3.46,-3.28,-6.54,8.09
8.589794158935547,-1.86,-4.02,-5.63,7.16
8.59947395324707,-6.52,-4.04,-5.81,9.62
8.610081195831299,-11.44,-5.19,-4.97,13.5
8.62006402015686,-12.55,-5.66,-5.25,14.73
8.663734912872314,-10.06,-4.15,-6.55,12.7
8.66417407989502,-7.86,-1.83,-7.3,10.88
8.664597988128662,-4.45,3.04,-7.7,9.39
8.6650230884552,1.83,6.42,-2.08,6.99
8.669175148010254,-0.63,2.16,2.71,3.52
8.679715156555176,-1.02,0.51,2.84,3.06
8.689657211303711,2.01,0.71,6.07,6.43
8.699320077896118,1.06,-1.09,4.88,5.11
8.709810018539429,-0.55,1.17,-2.92,3.19
8.719860076904297,-4.84,15.27,-9.2,18.47
8.763652086257935,-2.25,16.12,-17.47,23.87
8.764098167419434,3.86,7.56,-3.71,9.26
8.764534950256348,-4.54,-4.31,7.08,9.45
8.764961004257202,-10.23,-7.25,-1.03,12.58
8.769018173217773,-10.51,-5.49,-6.38,13.46
8.779592037200928,-9.61,-3.87,-4.7,11.37
8.789587020874023,-5.78,-0.55,-3.16,6.61
8.799092054367065,-2.28,1.59,-1.95,3.39
8.80991005897522,0.31,1.84,-1.12,2.17
8.81966495513916,2.01,1.26,-1.43,2.76
8.864273071289062,1.88,0.89,-1.33,2.46
8.864704132080078,0.42,0.6,-1.04,1.27
8.865123987197876,-0.51,0.18,-1.51,1.6
8.865554094314575,-1.12,-0.12,-1.92,2.22
8.868823051452637,-1.7,-0.34,-1.32,2.17
8.879401206970215,-1.75,-0.41,-0.03,1.79
8.889385223388672,-1.16,-0.26,0.36,1.24
8.899036884307861,-0.05,-0.09,-0.51,0.52
8.90957498550415,0.61,0.01,-1.01,1.17
8.919429063796997,0.61,-0.05,-0.38,0.72
8.963892936706543,0.34,-0.05,0.44,0.55
8.964308023452759,0.08,0.09,0.72,0.73
8.964731216430664,-0.15,0.26,0.76,0.81
8.965149879455566,-0.11,0.28,0.78,0.83
8.968705177307129,0.27,0.17,0.62,0.69
8.979269027709961,0.66,0.1,0.14,0.68
8.989179134368896,0.86,0.06,0.14,0.87
8.998857021331787,1.31,0.05,0.6,1.44
9.009530067443848,2.02,0.01,1.22,2.35
9.019484043121338,2.36,-0.05,1.75,2.93
9.063730001449585,2.1,-0.14,1.88,2.82
9.064176082611084,1.52,-0.28,1.8,2.37
9.064603090286255,1.04,-0.37,1.78,2.09
9.065026998519897,1.19,-0.25,1.22,1.72
9.068557024002075,1.46,0.13,0.42,1.52
9.079149007797241,1.31,0.61,-0.05,1.44
9.089058876037598,1.1,0.89,-0.25,1.43
9.098819017410278,0.99,0.85,0.06,1.3
9.109230995178223,0.82,0.46,0.53,1.07
9.119433879852295,0.7,0.11,1.05,1.26
9.164153099060059,0.9,0.13,1.55,1.79
9.164587020874023,1.03,0.51,1.63,1.99
9.165003061294556,1.16,0.98,1.21,1.94
9.165419101715088,1.04,1.58,1.08,2.17
9.16842794418335,1.24,2.13,1.09,2.69
9.178958892822266,1.26,2.43,1.55,3.14
9.188918113708496,1.61,2.47,2.06,3.59
9.198606967926025,2.03,2.72,2.37,4.13
9.20908498764038,2.16,2.93,2.55,4.44
9.219085216522217,2.17,3.71,2.43,4.93
9.264445066452026,2.27,5.13,2.18,6.01
9.264877080917358,2.88,6.06,2.79,7.26
9.26529312133789,2.84,6.28,3.89,7.91
9.265707969665527,2.72,6.9,5.08,8.98
9.268253087997437,2.91,7.99,6.63,10.78
9.27883005142212,3.5,9.15,7.26,12.19
9.288801193237305,4.77,9.82,7.29,13.12
9.298367023468018,4.59,9.15,7.35,12.6
9.309071063995361,3.37,7.23,6.51,10.29
9.318975925445557,3.3,5.57,2.85,7.07
9.364059925079346,4.19,5.36,-2.42,7.22
9.364492893218994,3.7,8.3,-6.34,11.08
9.364917039871216,0.16,11.54,-3.36,12.02
9.365345001220703,-2.57,10.94,1.16,11.29
9.368076086044312,-1.5,8.25,0.72,8.41
9.378672122955322,1.73,4.15,-0.22,4.5
9.388684034347534,2.64,0.99,0.94,2.97
9.398252964019775,0.03,-0.15,-0.95,0.96
9.409005165100098,-0.32,1.61,-5.05,5.31
9.418836116790771,3.55,4.02,-2.07,5.74
9.464335918426514,7.09,2.73,1.38,7.72
9.464763164520264,9.7,0.08,3.61,10.35
9.465183019638062,10.74,-1.63,4.88,11.9
9.465601921081543,9.22,-2.4,4.45,10.51
9.467928886413574,7.17,-2.61,3.77,8.51
9.478538990020752,5.46,-2.5,3.29,6.84
9.488533973693848,4.25,-2.36,2.83,5.62
9.498122215270996,3.41,-2.3,2.74,4.94
9.50891900062561,2.65,-2.31,2.7,4.43
9.518651008605957,1.91,-2.42,2.32,3.85
9.564298152923584,1.32,-2.54,1.9,3.43
9.564733028411865,1.07,-2.6,1.53,3.2
9.565152168273926,0.87,-2.63,1.19,3.01
9.565577030181885,0.89,-2.61,1.09,2.96
9.567769050598145,0.9,-2.62,1.06,2.96
9.578447103500366,0.57,-2.67,0.98,2.9
9.588401079177856,-0.68,-2.72,0.91,2.94
9.597975015640259,-1.8,-2.34,0.14,2.95
9.608819007873535,-2.8,-1.99,-0.78,3.52
9.618550062179565,-3.9,-1.01,-2.13,4.55
9.664992094039917,-4.89,0.38,-4.81,6.86
9.66542387008667,-6.33,1.31,-6.97,9.5
9.665848016738892,-6.98,1.04,-5.62,9.02
9.66626787185669,-6.63,0.44,-2.55,7.11
9.667643070220947,-6.39,1.3,-1.87,6.78
9.678286075592041,-6.55,2.78,-2.91,7.68
9.68817400932312,-6.55,3.77,-3.8,8.45
9.697818040847778,-5.93,4.59,-4.78,8.89
9.708631038665771,-5.29,5.79,-5.66,9.67
9.71839714050293,-5.41,6.03,-6.4,10.32
9.764492988586426,-5.77,3.13,-6.15,8.99
9.764930009841919,-6.31,-1.81,-5.56,8.6
9.765355110168457,-7.66,-5.44,-5.42,10.84
9.765780925750732,-10.25,-6.28,-6.02,13.44
9.767466068267822,-13.18,-5.05,-6.45,15.51
9.778187036514282,-12.91,-1.65,-7.34,14.94
9.788121223449707,-5.83,1.39,-7.84,9.86
9.797682046890259,-1.87,3.66,-6.47,7.66
9.808555126190186,0.88,6.61,1.41,6.81
9.818253993988037,6.9,3.93,6.39,10.19
9.864912033081055,4.81,0.53,5.11,7.03
9.86534595489502,0.23,0.45,0.48,0.69
9.865771055221558,-0.81,7.22,-4.66,8.63
9.866199016571045,-4.32,12.73,-8.66,15.99
9.867364883422852,-2.98,5.39,-9.08,10.97
9.877982139587402,-5.33,-0.8,0.58,5.42
9.888004064559937,-8.41,-4.23,-0.1,9.41
9.897564888000488,-8.38,-3.67,-3.67,9.85
9.908371925354004,-7.46,-2.99,-3.19,8.64
9.918153047561646,-5.4,-1.42,-3.23,6.45
9.965278148651123,-3.55,0.34,-2.54,4.37
9.965717077255249,-2.12,0.87,-1.83,2.93
9.966143131256104,-0.65,0.69,-1.94,2.15
9.966562032699585,0.33,0.43,-1.94,2.01
9.967324018478394,0.24,0.44,-1.76,1.82
9.97789192199707,-0.34,0.36,-1.45,1.53
9.987872123718262,-0.57,0.23,-1.42,1.54
9.997404098510742,-0.76,0.15,-1.39,1.59
10.007961988449097,-1.11,0.13,-1.16,1.61
10.017908096313477,-1.16,0.14,-1.11,1.61
10.06501293182373,-0.84,0.16,-1.03,1.33
10.065428018569946,-0.31,0.16,-0.97,1.03
10.06583309173584,0.22,0.21,-0.87,0.92
10.06623888015747,0.67,0.21,-0.78,1.04
10.066964149475098,0.89,0.12,-0.55,1.05
10.077692985534668,0.74,0.04,-0.14,0.75
10.087723016738892,0.32,0.02,0.4,0.51
10.097249984741211,0.12,0.03,0.49,0.5
10.107909202575684,0.26,0.18,0.22,0.38
10.117856979370117,0.51,0.24,0.17,0.58
10.165536880493164,0.62,0.12,0.27,0.68
10.165966987609863,0.95,-0.04,0.67,1.16
10.166393041610718,1.74,0.01,1.37,2.21
10.167096138000488,2.54,0.12,1.91,3.18
10.167517185211182,2.53,0.17,2.04,3.25
10.177552223205566,1.87,0.04,1.83,2.61
10.187586069107056,1.4,-0.05,1.79,2.27
10.197074890136719,1.27,-0.01,1.51,1.97
10.207576990127563,1.28,0.1,1.06,1.66
10.217670917510986,1.03,0.24,0.75,1.29
10.26592493057251,0.57,0.34,0.43,0.79
10.266716003417969,0.23,0.38,0.29,0.53
10.26714301109314,0.21,0.35,0.37,0.55
10.267554998397827,0.57,0.39,0.77,1.03
10.267966032028198,1.12,0.46,1.08,1.62
10.277452945709229,1.67,0.58,1.29,2.18
10.287374019622803,1.74,0.74,1.89,2.67
10.296941995620728,2.02,1.24,2.22,3.24
10.307429075241089,1.79,1.81,2.17,3.34
10.3175630569458,0.8,2.09,2.1,3.06
10.366288185119629,0.94,2.51,1.64,3.14
10.36705207824707,1.23,2.84,1.7,3.53
10.367460012435913,1.65,2.84,2.09,3.89
10.367865085601807,2.31,3.02,2.58,4.59
10.368285179138184,2.88,3.45,3.13,5.47
10.377204895019531,3.39,4.01,3.55,6.33
10.387202024459839,3.55,4.62,3.89,7.0
10.396820068359375,3.41,5.71,3.95,7.73
10.407381057739258,3.71,6.94,4.86,9.24
10.417445182800293,4.09,7.89,7.01,11.31
10.466235160827637,4.91,9.16,7.4,12.75
10.466991901397705,6.27,10.69,6.54,14.01
10.467422008514404,6.4,11.21,6.82,14.59
10.467843055725098,5.26,9.91,6.85,13.14
10.468260049819946,4.31,8.46,2.55,9.83
10.476964950561523,4.25,8.36,-3.94,10.17
10.487176895141602,2.94,11.61,-8.6,14.74
10.496726989746094,0.11,14.94,-6.06,16.12
10.507153987884521,-1.59,14.19,1.21,14.32
10.517260074615479,0.0,8.83,4.15,9.75
10.566883087158203,3.89,3.32,1.05,5.22
10.5673189163208,1.23,0.95,0.24,1.57
10.567750930786133,-5.49,-0.23,-4.18,6.9
10.568172931671143,-5.1,2.38,-7.01,8.98
10.568593978881836,1.23,4.91,-1.25,5.21
10.576809883117676,6.38,3.62,2.75,7.83
10.586909055709839,10.01,0.72,5.56,11.47
10.59644603729248,10.15,-1.61,7.36,12.64
10.60706901550293,7.47,-2.24,5.67,9.64
10.617089033126831,4.91,-1.86,3.85,6.51
10.666447162628174,2.45,-1.49,3.17,4.27
10.667065143585205,0.96,-1.51,2.4,2.99
10.667493104934692,0.19,-1.76,2.25,2.86
10.667908191680908,-0.41,-1.98,2.03,2.86
10.66832709312439,-0.57,-2.36,1.6,2.9
10.676676988601685,-0.28,-3.02,1.61,3.43
10.686774015426636,0.32,-3.72,1.72,4.11
10.696377038955688,0.81,-4.21,1.7,4.61
10.706870079040527,0.83,-4.79,1.57,5.1
10.71694302558899,0.49,-5.22,1.18,5.37
10.766799926757812,0.29,-5.53,0.73,5.58
10.767230987548828,-0.27,-5.78,0.52,5.8
10.767652034759521,-0.9,-5.9,0.24,5.97
10.768071174621582,-1.36,-5.98,-0.18,6.13
10.76849102973938,-2.1,-5.65,-1.38,6.18
10.776739120483398,-2.85,-5.18,-3.08,6.66
10.78662109375,-3.35,-4.51,-4.83,7.4
10.796326160430908,-3.96,-3.48,-5.22,7.41
10.806725978851318,-4.52,-2.58,-4.26,6.72
10.81682801246643,-4.8,-1.56,-3.9,6.37
10.866875171661377,-5.33,0.14,-4.98,7.29
10.867305994033813,-6.15,2.36,-6.64,9.35
10.867732048034668,-7.49,4.07,-8.17,11.8
10.868153095245361,-9.09,4.44,-9.99,14.21
10.868577003479004,-10.02,3.33,-10.91,15.18
10.876762866973877,-10.51,1.68,-11.08,15.36
10.886543989181519,-10.28,-0.22,-11.12,15.14
10.896098136901855,-9.09,-1.54,-9.7,13.38
10.906668186187744,-7.58,-1.93,-8.22,11.34
10.916705131530762,-6.74,-2.6,-7.11,10.13
10.966658115386963,-6.72,-3.59,-5.98,9.68
10.967092037200928,-7.1,-3.57,-5.81,9.84
10.967516899108887,-7.95,0.43,-6.52,10.29
10.967955112457275,-2.63,6.89,-1.74,7.57
10.968376159667969,5.28,3.76,4.11,7.67
10.976525068283081,5.45,5.17,10.45,12.86
10.9862961769104,12.06,8.81,20.05,25.0
10.996004104614258,9.28,4.66,5.01,11.52
11.00650405883789,-2.18,0.72,-11.86,12.08
11.016566038131714,-4.5,6.96,-8.42,11.81
11.066844940185547,-5.8,7.41,-7.99,12.34
11.067281007766724,-2.72,1.66,-4.66,5.64
11.067708015441895,-4.09,-1.23,2.32,4.86
11.068130016326904,-6.47,-3.39,-2.39,7.68
11.06855297088623,-5.63,-2.77,-4.87,7.94
11.076420068740845,-5.04,-2.16,-3.1,6.29
11.086307048797607,-4.0,-0.78,-1.66,4.4
11.095761060714722,-2.53,0.38,-0.92,2.71
11.106336116790771,-1.1,0.8,-0.88,1.62
11.116447925567627,-0.1,0.66,-0.72,0.98
11.125708103179932,-0.08,0.49,-0.65,0.81
11.167257070541382,-0.48,0.4,-0.68,0.92
11.167689085006714,-0.6,0.14,-1.03,1.2
11.168108940124512,-0.38,-0.06,-1.29,1.34
11.168537139892578,-0.3,0.07,-1.42,1.45
11.176290035247803,-0.4,0.26,-1.79,1.85
11.186186075210571,-0.55,0.31,-2.07,2.16
11.195581912994385,-0.58,0.33,-1.81,1.92
11.206013202667236,-0.54,0.24,-1.45,1.56
11.216154098510742,-0.45,0.11,-1.1,1.19
11.225493907928467,-0.49,0.02,-0.54,0.72
11.26659107208252,-0.56,-0.05,-0.01,0.56
11.267029047012329,-0.44,-0.06,0.41,0.6
11.267450094223022,-0.1,0.0,0.59,0.59
11.267866134643555,0.26,0.1,0.66,0.71
11.275853157043457,0.48,0.16,0.43,0.66
11.28580093383789,0.55,0.16,0.02,0.57
11.29540205001831,0.56,0.13,-0.23,0.61
11.305968999862671,0.64,0.09,-0.12,0.65
11.316044092178345,0.74,0.1,0.42,0.85
11.325353145599365,0.85,0.13,1.08,1.38
11.36575698852539,0.95,0.17,1.22,1.55
11.366188049316406,0.85,0.11,1.0,1.31
11.366605997085571,0.69,0.05,1.06,1.26
11.367023944854736,0.77,0.02,1.01,1.27
11.375646114349365,1.07,0.04,0.99,1.45
11.385807037353516,1.23,-0.01,1.0,1.58
11.395357131958008,1.47,0.03,0.97,1.76
11.405842065811157,1.88,0.22,0.93,2.1
11.415926933288574,1.73,0.47,0.75,1.94
11.42528510093689,1.26,0.51,0.75,1.55
11.466940879821777,0.82,0.35,0.98,1.32
11.46737289428711,0.93,0.34,1.02,1.42
11.46778917312622,1.06,0.86,0.99,1.68
11.468191146850586,1.13,1.48,0.99,2.1
11.475523948669434,1.28,1.74,1.09,2.41
11.485574007034302,1.04,2.24,1.33,2.8
11.49499797821045,1.1,2.56,1.49,3.15
11.50559401512146,1.54,2.73,1.78,3.6
11.515791893005371,2.21,2.75,2.33,4.22
11.525016069412231,3.0,2.9,2.64,4.93
11.566575050354004,3.5,3.13,2.89,5.51
11.56700611114502,3.73,3.68,2.94,6.0
11.567425012588501,3.87,5.16,2.77,7.01
11.567838191986084,4.62,6.78,3.02,8.74
11.57541298866272,4.87,7.25,4.78,9.95
11.585448026657104,3.97,8.07,6.43,11.05
11.594902992248535,4.42,9.26,7.29,12.58
11.60558795928955,6.02,10.02,7.26,13.76
11.615637063980103,6.63,10.03,6.74,13.78
11.62494707107544,5.95,9.24,5.97,12.5
11.666896104812622,5.66,8.24,3.25,10.51
11.667327880859375,4.92,7.89,-1.57,9.42
11.66775894165039,2.61,9.19,-5.8,11.17
11.6681809425354,-0.39,12.37,-5.89,13.7
11.67530608177185,-2.32,13.21,-0.86,13.43
11.685338020324707,-1.44,9.02,1.47,9.25
11.694908142089844,1.35,4.27,-0.82,4.55
11.705391883850098,1.43,0.83,0.22,1.66
11.715475082397461,-2.42,-1.36,-2.08,3.46
11.724792003631592,-1.59,1.32,-5.86,6.21
11.766984939575195,3.59,3.52,-1.25,5.18
11.767420053482056,7.47,1.45,2.31,7.95
11.767841100692749,9.66,-0.77,3.8,10.4
11.768266201019287,9.28,-2.13,4.3,10.44
11.775058031082153,7.94,-2.67,3.99,9.27
11.785125017166138,6.41,-2.65,3.31,7.68
11.794549942016602,4.84,-2.25,2.74,5.99
11.80530595779419,3.66,-1.98,2.48,4.84
11.815263032913208,2.96,-2.18,2.47,4.42
11.82460904121399,2.61,-2.52,2.4,4.34
11.867150068283081,2.23,-2.69,1.9,3.97
11.86758303642273,1.81,-2.8,1.4,3.61
11.868008136749268,1.64,-2.86,1.05,3.46
11.868420124053955,1.76,-2.84,0.93,3.46
11.874972105026245,1.87,-2.42,0.83,3.16
11.885047912597656,1.51,-1.92,1.06,2.66
11.894379138946533,0.8,-1.7,0.97,2.11
11.905124187469482,-0.25,-2.03,0.11,2.04
11.915220022201538,-2.08,-2.23,-1.73,3.5
11.924528121948242,-3.97,-1.91,-3.77,5.79
11.96727991104126,-5.19,-1.73,-4.78,7.26
11.967719078063965,-5.46,-1.99,-3.8,6.94
11.968147993087769,-5.05,-2.19,-2.69,6.12
11.96857213973999,-4.38,-1.56,-2.34,5.2
11.97477102279663,-4.04,-0.72,-1.97,4.55
11.984848976135254,-4.49,0.06,-1.98,4.9
11.994225978851318,-5.53,1.03,-3.24,6.49
12.004936218261719,-6.58,1.88,-4.69,8.29
12.01509404182434,-7.36,2.36,-5.58,9.53
12.02432918548584,-7.62,2.83,-6.24,10.24
12.068110942840576,-8.18,3.13,-6.98,11.19
12.068543910980225,-9.4,2.57,-7.51,12.3
12.068969011306763,-10.14,0.72,-7.23,12.47
12.069393157958984,-9.71,-1.95,-5.86,11.5
12.074696063995361,-9.49,-3.88,-4.96,11.38
12.084710121154785,-10.05,-4.54,-4.73,11.99
12.094157218933105,-10.53,-4.21,-5.04,12.4
12.104857921600342,-10.13,-0.88,-5.89,11.75
12.114913940429688,-6.6,-0.27,-6.73,9.43
12.124171018600464,-4.36,0.35,-6.52,7.85
12.167741060256958,0.84,7.46,5.02,9.03
12.168168067932129,8.3,6.26,12.53,16.28
12.168588161468506,5.85,4.13,2.86,7.71
12.169004917144775,0.94,10.36,-4.13,11.19
12.174546003341675,-4.13,11.98,-7.52,14.73
12.184571027755737,-3.25,3.54,-11.11,12.1
12.194221019744873,-5.39,-0.04,1.7,5.65
12.204691886901855,-7.94,-4.77,2.36,9.55
12.214737892150879,-7.86,-4.39,-3.97,9.83
12.224020004272461,-6.97,-2.98,-4.41,8.76
12.26832914352417,-4.48,-1.09,-4.16,6.21
12.268760204315186,-2.27,0.53,-3.1,3.87
12.269180059432983,-0.78,0.97,-2.45,2.74
12.269598007202148,0.68,0.91,-2.34,2.6
12.274458885192871,1.44,0.75,-2.02,2.59
12.284455060958862,0.43,0.56,-1.37,1.54
12.294203996658325,-0.89,0.31,-0.95,1.33
12.304565906524658,-1.21,0.18,-0.93,1.53
12.314577102661133,-1.19,0.04,-1.0,1.55
12.323875904083252,-1.63,-0.11,-1.13,1.98
12.36896300315857,-1.78,-0.17,-1.03,2.06
12.36939811706543,-1.39,-0.05,-0.61,1.51
12.369822025299072,-0.69,0.09,-0.4,0.8
12.370249032974243,0.16,0.08,-0.63,0.65
12.374253988265991,0.42,0.01,-0.58,0.71
12.384201049804688,0.05,-0.11,-0.15,0.19
12.394103050231934,-0.26,-0.22,0.26,0.42
12.404378890991211,-0.21,-0.06,0.56,0.6
12.41447114944458,0.07,0.15,0.64,0.66
12.423799991607666,0.3,0.22,0.38,0.53
12.468996047973633,0.32,0.22,0.05,0.39
12.469409942626953,0.38,0.18,0.06,0.42
12.469835042953491,0.95,0.15,0.62,1.14
12.470254898071289,2.04,0.22,1.52,2.55
12.474048137664795,2.67,0.23,1.8,3.22
12.484072208404541,2.24,0.09,1.43,2.65
12.493580102920532,1.46,-0.17,1.51,2.1
12.504302024841309,0.92,-0.34,1.37,1.68
12.514359951019287,0.79,-0.28,1.0,1.3
12.523653984069824,0.68,-0.04,0.67,0.95
12.5691819190979,0.29,0.3,-0.04,0.41
12.569614887237549,-0.1,0.61,-0.4,0.73
12.570045948028564,-0.29,0.72,-0.34,0.84
12.570470094680786,-0.49,0.66,0.05,0.82
12.573862075805664,-0.28,0.61,0.62,0.91
12.583988189697266,0.32,0.48,1.33,1.44
12.593462944030762,0.56,0.34,1.37,1.51
12.604060173034668,0.92,0.14,1.36,1.64
12.614113092422485,0.91,0.25,2.08,2.28
12.623435020446777,1.28,0.76,2.12,2.59
12.66869306564331,1.33,1.36,1.64,2.51
12.669126987457275,1.18,1.65,1.35,2.43
12.669548034667969,1.07,1.89,1.38,2.57
12.669969081878662,1.37,2.06,1.47,2.87
12.673759937286377,1.88,2.32,1.76,3.46
12.683815002441406,2.56,2.73,2.0,4.24
12.69333791732788,3.08,3.32,2.21,5.03
12.703935146331787,3.4,4.69,2.07,6.15
12.714031219482422,4.51,6.06,2.52,7.96
12.72327208518982,5.2,6.32,3.67,8.96
12.76938509941101,5.13,6.35,4.49,9.31
12.769814014434814,4.18,6.62,5.5,9.56
12.770231008529663,3.13,7.69,6.43,10.5
12.770653009414673,3.49,9.21,7.84,12.58
12.773611068725586,3.54,9.22,8.31,12.9
12.783668041229248,2.63,8.04,7.63,11.39
12.793168067932129,2.27,6.46,5.08,8.52
12.803840160369873,3.55,5.75,-0.09,6.75
12.81385087966919,4.49,8.12,-5.14,10.6
12.823119163513184,1.39,13.19,-5.85,14.49
12.869217872619629,-2.65,13.46,-0.8,13.74
12.86965799331665,-2.35,10.38,1.82,10.79
12.870083093643188,1.74,6.85,0.68,7.1
12.870505094528198,3.67,3.26,0.92,4.99
12.873536109924316,0.54,1.19,0.62,1.44
12.883539199829102,-1.72,2.26,-4.95,5.7
12.893060207366943,2.22,5.43,-4.15,7.18
12.903718948364258,6.82,4.69,-0.2,8.27
12.913855075836182,10.5,0.9,2.79,10.9
12.923027992248535,12.4,-2.23,4.65,13.42
12.969734191894531,10.87,-3.7,4.49,12.32
12.970165014266968,8.78,-4.19,4.03,10.53
12.970588207244873,6.73,-4.06,3.47,8.59
12.9710111618042,5.17,-3.25,2.84,6.73
12.97330093383789,3.91,-2.04,2.53,5.08
12.98332691192627,3.33,-1.03,2.26,4.15
12.992842197418213,3.24,-0.47,1.6,3.64
13.003490924835205,2.46,-0.52,1.36,2.85
13.013592004776001,0.58,-0.18,0.53,0.8
13.022869110107422,0.41,0.41,-0.51,0.77
13.069782018661499,1.74,-0.17,0.77,1.91
13.070213079452515,3.6,-0.08,0.4,3.62
13.070635080337524,2.9,0.03,0.05,2.9
13.071062088012695,-0.44,-0.98,-0.31,1.11
13.0731360912323,-2.87,-1.26,-1.71,3.57
13.083154201507568,-3.27,-1.02,-2.21,4.07
13.092741012573242,-3.51,-0.21,-3.21,4.76
13.103343963623047,-3.16,0.48,-4.95,5.89
13.11347508430481,-2.95,0.49,-5.2,5.99
13.122797012329102,-3.73,0.07,-3.19,4.9
13.169710159301758,-4.54,-0.34,-2.12,5.02
13.170145988464355,-5.36,0.08,-3.21,6.24
13.170568943023682,-6.58,0.89,-5.39,8.55
13.17099404335022,-7.62,1.36,-7.45,10.74
13.17304801940918,-8.3,1.51,-9.18,12.46
13.183088064193726,-8.91,1.6,-10.58,13.92
13.192588090896606,-9.24,1.21,-11.75,14.99
13.203186988830566,-9.07,-0.29,-12.0,15.04
13.21309518814087,-8.63,-2.29,-11.14,14.27
13.222436904907227,-8.05,-3.72,-9.77,13.19
13.269347190856934,-7.84,-4.26,-9.11,12.75
13.269782066345215,-7.6,-4.36,-9.17,12.68
13.270206928253174,-7.98,-2.59,-9.18,12.43
13.270628929138184,-5.31,-1.98,-6.87,8.9
13.272965908050537,-3.23,-5.38,-6.42,8.97
13.282932043075562,-5.64,-2.55,-4.83,7.85
13.292464017868042,-0.09,5.06,3.82,6.34
13.303089141845703,11.12,7.43,17.78,22.24
13.31314206123352,7.57,8.21,-0.74,11.19
13.322391986846924,0.56,11.81,-10.68,15.93
13.370450973510742,-0.23,7.9,-4.47,9.07
13.370880126953125,-7.0,2.75,-4.54,8.78
13.371299028396606,-5.38,-2.19,-3.34,6.7
13.371746063232422,-5.6,-3.0,-1.78,6.59
13.3729829788208,-7.7,-4.02,-6.29,10.72
13.382785081863403,-7.18,-2.19,-7.44,10.56
13.392323970794678,-5.94,-0.31,-5.12,7.84
13.402913093566895,-3.33,0.46,-3.65,4.96
13.412786960601807,-0.98,0.8,-3.26,3.49
13.422268867492676,0.65,0.83,-1.66,1.96
13.47154712677002,1.54,0.68,0.9,1.9
13.472332000732422,1.19,0.76,0.61,1.53
13.472758054733276,0.31,0.5,-1.45,1.56
13.473183155059814,-0.76,0.22,-1.54,1.73
13.474130153656006,-1.28,0.08,-1.33,1.84
13.482594013214111,-1.41,-0.19,-1.06,1.77
13.49215316772461,-1.56,-0.36,-1.04,1.9
13.50282096862793,-1.32,-0.32,-1.2,1.81
13.51258897781372,-0.55,0.0,-1.46,1.56
13.52209210395813,0.07,0.26,-1.45,1.47
13.571685075759888,0.27,0.34,-1.23,1.3
13.572371006011963,0.13,0.25,-0.61,0.67
13.572802066802979,-0.06,0.07,0.25,0.26
13.573225975036621,-0.05,-0.07,0.75,0.75
13.574172019958496,0.17,-0.09,0.72,0.74
13.582429885864258,0.4,0.02,0.38,0.55
13.591960906982422,0.49,0.14,0.15,0.53
13.602634906768799,0.53,0.15,0.03,0.55
13.612831115722656,0.72,0.11,0.35,0.8
13.622014999389648,1.0,0.16,1.0,1.42
13.671206951141357,1.18,0.18,1.32,1.77
13.671950101852417,1.11,0.12,1.38,1.77
13.67236614227295,0.83,0.03,1.35,1.58
13.672794103622437,0.62,-0.11,1.37,1.5
13.67373514175415,0.62,-0.17,1.26,1.41
13.682311058044434,0.82,-0.13,0.89,1.21
13.69188117980957,1.17,0.04,0.4,1.23
13.702509880065918,1.29,0.34,0.0,1.33
13.712748050689697,1.16,0.55,-0.06,1.28
13.72180700302124,0.72,0.61,0.09,0.94
13.772603988647461,0.34,0.61,0.55,0.88
13.773015975952148,0.33,0.6,0.87,1.1
13.773442029953003,0.62,0.45,1.66,1.82
13.7738618850708,0.86,0.57,2.21,2.43
13.77482008934021,1.49,0.91,1.67,2.41
13.782166957855225,1.4,1.6,1.29,2.48
13.791778087615967,0.72,2.01,1.39,2.54
13.802238941192627,0.86,2.27,1.45,2.82
13.85446310043335,1.4,2.49,1.8,3.37
13.854899883270264,1.75,2.41,2.24,3.72
13.855321884155273,2.24,2.58,2.49,4.22
13.855743885040283,2.6,2.84,2.76,4.73
13.856161117553711,2.55,3.57,2.78,5.19
13.861885070800781,2.87,5.39,2.2,6.49
13.872143030166626,4.2,6.38,2.95,8.18
13.88220500946045,3.97,5.91,4.53,8.43
13.89142107963562,3.31,5.97,5.51,8.77
13.902252197265625,3.8,6.68,7.33,10.62
13.95679521560669,4.57,7.42,7.99,11.82
13.95722508430481,4.86,7.82,7.24,11.71
13.957645893096924,4.28,7.48,6.63,10.87
13.9580659866333,3.64,6.38,4.81,8.78
13.958485126495361,3.61,5.36,0.65,6.49
13.961339950561523,4.05,6.04,-4.14,8.36
13.971939086914062,2.35,10.1,-6.59,12.28
13.981903076171875,-1.77,12.1,-2.53,12.48
13.991443157196045,-2.81,10.51,1.56,10.99
14.002157211303711,-0.26,8.45,0.65,8.47
14.056507110595703,2.97,4.91,-0.06,5.73
14.056941986083984,2.49,1.39,0.89,2.98
14.057365894317627,-0.42,-0.1,-0.39,0.58
14.057785987854004,-2.77,0.51,-5.44,6.12
14.058203220367432,0.13,3.17,-4.77,5.72
14.061124086380005,4.69,3.1,-0.34,5.63
14.071791172027588,7.84,0.38,2.45,8.22
14.081944942474365,9.68,-2.13,4.5,10.88
14.09132194519043,9.47,-3.49,5.17,11.33
14.101883888244629,7.9,-3.43,4.68,9.8
14.156121015548706,6.47,-2.66,4.01,8.06
14.15745210647583,4.87,-2.03,3.55,6.35
14.15787410736084,2.99,-1.71,3.27,4.74
14.158297061920166,1.51,-1.42,2.71,3.41
14.158735990524292,0.72,-0.96,1.76,2.13
14.16103219985962,1.04,-0.42,1.19,1.63
14.17154312133789,2.1,-0.29,1.48,2.58
14.181654930114746,3.12,-0.56,2.06,3.78
14.191104888916016,3.45,-0.5,2.14,4.09
14.202277183532715,2.5,-0.22,1.72,3.04
14.21176815032959,0.43,-0.71,0.73,1.1
14.257781028747559,-1.8,-1.1,-1.48,2.57
14.258218050003052,-3.09,-1.05,-4.21,5.32
14.258642196655273,-3.77,-1.26,-4.6,6.07
14.259068965911865,-3.79,-2.19,-2.66,5.12
14.260897159576416,-3.02,-2.55,-1.69,4.29
14.271416187286377,-2.6,-2.13,-2.04,3.93
14.281568050384521,-2.81,-1.68,-2.43,4.07
14.291040897369385,-3.96,-1.02,-3.26,5.22
14.301620960235596,-5.77,-0.11,-4.54,7.34
14.311554908752441,-7.53,0.97,-5.7,9.49
14.35818099975586,-8.21,1.82,-6.87,10.85
14.358611106872559,-7.77,2.16,-7.95,11.32
14.359034061431885,-7.34,1.83,-8.71,11.53
14.359463214874268,-7.52,0.91,-9.04,11.79
14.360704898834229,-8.04,-0.3,-9.34,12.32
14.371263027191162,-8.35,-1.97,-9.75,12.98
14.38136601448059,-8.3,-3.18,-9.36,12.9
14.390888214111328,-8.05,-4.31,-8.32,12.35
14.401473999023438,-7.81,-5.33,-7.65,12.16
14.411432027816772,-8.02,-5.43,-7.15,12.03
14.458528995513916,-8.35,-5.23,-7.04,12.1
14.458961009979248,-8.96,-3.38,-7.42,12.11
14.45938491821289,-6.56,0.77,-6.69,9.4
14.459810018539429,1.39,-0.45,-1.4,2.02
14.46087908744812,5.29,3.87,8.74,10.92
14.47118091583252,10.96,6.87,15.47,20.16
14.481222152709961,7.28,10.61,3.09,13.23
14.490856170654297,-2.64,18.08,-11.54,21.61
14.50128698348999,0.08,7.61,-8.9,11.71
14.511343955993652,-1.66,-2.82,-5.16,6.11
14.55852222442627,-5.81,-3.56,1.51,6.97
14.558958053588867,-6.66,-4.2,-0.41,7.88
14.559380054473877,-6.86,-3.51,-5.37,9.39
14.559834003448486,-5.68,-1.33,-4.43,7.32
14.560594081878662,-4.46,0.24,-3.18,5.48
14.570998191833496,-3.39,1.0,-2.24,4.18
14.581007957458496,-1.96,0.69,-1.15,2.37
14.590525150299072,-0.87,0.05,-0.1,0.87
14.601119041442871,-0.68,-0.04,-0.07,0.68
14.611145973205566,-1.07,0.21,-0.42,1.16
14.660254955291748,-0.81,0.43,-0.99,1.34
14.660887002944946,-0.13,0.49,-1.47,1.55
14.661314964294434,-0.14,0.29,-1.36,1.39
14.661750078201294,-0.5,0.09,-1.16,1.26
14.662373065948486,-0.79,-0.1,-1.42,1.62
14.670895099639893,-0.88,-0.15,-1.68,1.9
14.680757999420166,-0.58,0.0,-1.52,1.62
14.690444946289062,-0.08,0.17,-1.23,1.24
14.701032161712646,0.23,0.22,-0.88,0.93
14.711015224456787,0.07,0.16,-0.29,0.33
14.760817050933838,-0.31,0.06,0.35,0.47
14.761245012283325,-0.47,0.03,0.75,0.88
14.761670112609863,-0.26,0.02,0.66,0.7
14.762092113494873,0.22,0.07,0.38,0.44
14.762710094451904,0.71,0.1,0.18,0.73
14.770725011825562,0.88,0.07,0.08,0.88
14.780611038208008,0.71,0.07,0.25,0.75
14.790302991867065,0.54,0.08,0.55,0.77
14.800843000411987,0.45,0.1,0.79,0.91
14.8108069896698,0.37,0.11,0.82,0.9
14.860147953033447,0.23,0.07,0.94,0.97
14.860764980316162,0.19,-0.03,0.96,0.97
14.861180067062378,0.36,-0.15,0.86,0.94
14.861600875854492,0.48,-0.3,0.79,0.97
14.862019062042236,0.45,-0.31,0.58,0.79
14.870585918426514,0.8,-0.2,0.55,0.99
14.88046908378601,1.48,-0.04,0.82,1.69
14.890166997909546,1.91,0.17,1.02,2.17
14.90075397491455,1.69,0.29,1.05,2.01
14.910645008087158,1.08,0.34,1.05,1.54
14.96091103553772,0.69,0.31,1.12,1.35
14.961336135864258,0.68,0.29,1.34,1.53
14.961752891540527,0.95,0.34,1.43,1.75
14.962172985076904,1.24,0.53,1.6,2.09
14.962963104248047,1.47,0.74,1.81,2.44
14.97043514251709,1.59,0.94,1.49,2.37
14.980492115020752,1.58,1.28,1.25,2.38
14.990005016326904,1.41,1.71,1.34,2.58
15.000537872314453,1.6,2.2,1.03,2.9
15.010426044464111,1.72,2.83,0.75,3.39
15.061087131500244,1.51,3.02,1.01,3.52
15.061520099639893,1.33,3.08,1.59,3.71
15.061944007873535,1.49,3.77,1.9,4.47
15.062365055084229,1.88,5.57,1.96,6.19
15.063117980957031,3.36,6.47,3.1,7.92
15.070269107818604,3.94,6.09,4.72,8.65
15.080522060394287,4.0,6.3,5.19,9.08
15.089822053909302,4.19,6.93,6.03,10.09
15.100432872772217,4.4,7.56,7.17,11.31
15.110408067703247,4.29,7.86,7.49,11.67
15.161565065383911,3.24,7.78,7.23,11.1
15.16199016571045,2.3,7.34,7.25,10.57
15.162411212921143,2.08,5.97,5.49,8.37
15.163043022155762,3.25,5.1,0.8,6.1
15.163463115692139,4.75,6.73,-3.83,9.08
15.170083045959473,2.81,10.69,-5.62,12.39
15.180487155914307,-1.55,11.53,-1.45,11.72
15.189699172973633,-2.45,10.26,1.69,10.68
15.200321197509766,-0.72,7.96,1.63,8.15
15.210186958312988,2.76,4.17,1.45,5.2
15.261989116668701,2.53,1.06,1.87,3.31
15.2624192237854,-0.97,-0.12,-1.0,1.39
15.263041019439697,-1.47,1.37,-5.41,5.77
15.263468027114868,2.54,3.99,-3.3,5.76
15.263889074325562,7.04,3.29,0.35,7.77
15.269921064376831,9.88,0.59,2.79,10.28
15.280166149139404,10.85,-1.88,4.6,11.93
15.28953218460083,9.79,-3.54,4.89,11.5
15.300064086914062,7.91,-3.78,3.92,9.6
15.310157060623169,6.28,-3.17,2.86,7.59
15.362874031066895,4.94,-2.74,2.66,6.24
15.363312005996704,3.81,-2.44,2.71,5.27
15.363734006881714,2.43,-2.18,2.39,4.04
15.364166021347046,1.22,-1.84,1.92,2.92
15.364585876464844,0.7,-1.47,1.87,2.47
15.369871139526367,0.74,-1.17,2.17,2.57
15.379999160766602,1.3,-0.94,2.23,2.74
15.389404058456421,2.19,-0.85,2.16,3.19
15.399914026260376,2.57,-0.7,2.13,3.41
15.410045146942139,1.91,0.01,1.56,2.46
15.462954998016357,-0.16,0.58,0.82,1.01
15.463386058807373,-2.55,0.99,-0.72,2.82
15.46381402015686,-4.06,2.31,-3.53,5.85
15.464250087738037,-5.08,3.24,-6.56,8.9
15.46467113494873,-5.25,3.06,-6.17,8.65
15.469660997390747,-4.32,1.92,-3.09,5.64
15.479919910430908,-3.21,1.7,-1.35,3.87
15.48917007446289,-2.87,2.21,-1.86,4.07
15.499782085418701,-3.85,2.74,-3.28,5.75
15.509842872619629,-6.0,3.14,-4.89,8.35
15.563924074172974,-8.36,3.52,-6.47,11.14
15.564383029937744,-9.36,3.77,-7.84,12.77
15.56482219696045,-8.2,3.7,-8.39,12.3
15.565246105194092,-6.35,2.34,-7.95,10.44
15.56569504737854,-5.59,-0.44,-6.75,8.77
15.569437026977539,-6.11,-2.9,-6.33,9.26
15.579498052597046,-8.4,-4.39,-6.77,11.64
15.58902907371521,-10.57,-5.36,-6.66,13.59
15.599642992019653,-10.32,-5.41,-6.11,13.15
15.609724044799805,-8.75,-4.64,-5.89,11.52
15.66423511505127,-6.56,-3.41,-6.42,9.79
15.664674997329712,-4.76,-2.51,-6.84,8.7
15.665106058120728,-5.58,0.51,-7.01,8.97
15.665533065795898,-2.0,3.94,-3.62,5.71
15.665956974029541,2.02,0.47,0.66,2.17
15.669363975524902,2.46,-0.13,2.95,3.84
15.679311990737915,5.34,1.25,7.18,9.03
15.688898086547852,4.42,1.32,7.32,8.65
15.699572086334229,-0.29,7.17,-3.83,8.13
15.709487915039062,-4.92,17.84,-8.75,20.47
15.76493215560913,-2.76,11.75,-13.05,17.77
15.765376091003418,1.41,3.07,-7.09,7.85
15.765800952911377,-7.01,-2.57,5.3,9.15
15.766226053237915,-11.56,-6.42,-0.75,13.24
15.766648054122925,-10.66,-5.68,-8.03,14.5
15.769213199615479,-10.42,-3.92,-6.26,12.77
15.779154062271118,-7.35,-1.12,-3.29,8.13
15.788770198822021,-3.16,0.85,-2.5,4.11
15.799476146697998,0.59,1.51,-2.02,2.59
15.8093900680542,2.77,1.48,-1.3,3.39
15.865228176116943,3.04,1.16,-0.52,3.29
15.865670204162598,1.26,0.8,-1.07,1.83
15.866097927093506,-0.42,0.3,-2.29,2.34
15.86652421951294,-0.99,0.0,-2.21,2.42
15.866950035095215,-1.04,-0.05,-1.34,1.69
15.869065046310425,-1.06,-0.13,-0.9,1.39
15.879000186920166,-1.27,-0.16,-1.11,1.69
15.88866400718689,-1.51,-0.22,-0.81,1.72
15.899168014526367,-1.07,-0.18,-0.27,1.11
15.909253120422363,-0.41,0.01,-0.13,0.43
15.965831995010376,-0.03,0.21,-0.13,0.24
15.966250896453857,0.07,0.22,-0.17,0.28
15.966675996780396,0.06,0.13,0.03,0.14
15.96710205078125,0.02,0.07,0.23,0.24
15.967518091201782,0.0,-0.01,0.06,0.06
15.96898102760315,-0.03,0.02,-0.28,0.28
15.978867053985596,0.21,0.13,-0.71,0.75
15.988630056381226,0.62,0.25,-0.6,0.89
15.999032974243164,0.73,0.22,-0.04,0.76
16.009088039398193,0.6,0.1,0.43,0.74
16.065120220184326,0.6,0.08,0.76,0.97
16.065510034561157,0.81,0.08,0.89,1.2
16.065913200378418,0.79,0.04,1.05,1.31
16.066336154937744,0.64,-0.08,1.1,1.27
16.066752910614014,0.78,-0.24,1.11,1.37
16.068783044815063,1.05,-0.28,1.1,1.54
16.07870602607727,1.7,-0.14,1.02,1.98
16.08839702606201,2.18,0.1,0.9,2.36
16.098803997039795,2.22,0.3,0.66,2.33
16.10896396636963,1.9,0.42,0.85,2.12
16.16605520248413,1.4,0.37,1.18,1.86
16.166489124298096,0.96,0.11,1.21,1.54
16.16691493988037,0.72,0.05,1.08,1.29
16.16735315322876,0.58,0.22,0.93,1.11
16.168094158172607,0.61,0.42,1.06,1.29
16.169050216674805,0.55,0.64,1.37,1.6
16.178595066070557,0.84,0.93,1.13,1.68
16.188306093215942,0.88,1.38,0.69,1.77
16.19867992401123,0.74,1.81,0.51,2.02
16.208762168884277,0.93,2.35,0.93,2.69
16.26658606529236,0.8,2.48,1.46,2.98
16.267019033432007,1.36,2.67,1.6,3.39
16.267803192138672,1.51,2.91,1.95,3.81
16.268229007720947,1.67,3.61,2.08,4.48
16.268651008605957,2.48,5.25,2.02,6.14
16.269609928131104,4.17,6.25,2.83,8.02
16.278462886810303,4.83,6.42,4.01,8.97
16.288093090057373,4.85,6.85,4.45,9.49
16.298512935638428,4.7,7.39,5.07,10.11
16.308576107025146,4.09,7.61,6.19,10.62
16.366741180419922,3.75,7.74,7.58,11.46
16.36717200279236,3.88,7.93,7.87,11.82
16.367906093597412,3.86,7.5,6.68,10.75
16.36832618713379,4.16,6.67,4.69,9.15
16.368746042251587,5.2,6.09,1.08,8.08
16.369665145874023,6.2,7.06,-3.14,9.9
16.378406047821045,4.36,10.1,-4.99,12.07
16.38802194595337,0.24,11.44,-1.44,11.53
16.398312091827393,-1.56,9.79,1.44,10.01
16.408488035202026,-0.95,6.92,1.46,7.13
16.466443061828613,1.64,3.67,1.0,4.14
16.466875076293945,2.28,1.03,1.39,2.86
16.467613220214844,-0.46,-0.02,-2.03,2.08
16.468039989471436,0.24,2.54,-5.46,6.02
16.468463897705078,4.38,4.49,-2.1,6.61
16.469385147094727,7.89,2.76,0.69,8.38
16.478183031082153,10.23,0.15,2.63,10.56
16.48784589767456,10.64,-1.64,3.49,11.31
16.498435020446777,8.6,-2.36,2.77,9.33
16.50836706161499,6.22,-2.24,2.36,7.01
16.5678129196167,4.41,-2.03,2.68,5.54
16.56844711303711,3.0,-1.89,2.65,4.42
16.568897008895874,1.91,-1.79,2.08,3.34
16.569319009780884,1.04,-1.8,1.35,2.47
16.569753170013428,0.46,-1.78,0.69,1.96
16.570683002471924,0.25,-1.85,0.19,1.87
16.577991008758545,0.65,-2.03,0.14,2.13
16.587621212005615,1.32,-2.23,0.33,2.61
16.598438024520874,1.85,-2.45,0.65,3.13
16.608120918273926,1.78,-2.73,0.74,3.34
16.66803002357483,1.11,-3.06,0.51,3.29
16.668467044830322,0.05,-3.25,0.28,3.26
16.668889045715332,-0.95,-3.29,-0.05,3.42
16.669311046600342,-1.47,-3.41,-0.34,3.72
16.669728994369507,-1.91,-3.29,-0.88,3.9
16.67066717147827,-2.14,-2.71,-2.18,4.08
16.677722930908203,-2.51,-2.0,-3.21,4.53
16.6875581741333,-3.25,-1.29,-3.15,4.7
16.69828510284424,-3.92,-0.76,-2.66,4.79
16.707972049713135,-4.67,0.01,-2.92,5.5
16.768619060516357,-5.95,1.2,-4.24,7.4
16.769052982330322,-7.52,2.21,-5.9,9.81
16.769476890563965,-8.31,2.55,-6.98,11.14
16.769901037216187,-7.87,2.35,-6.91,10.73
16.77031898498535,-7.41,2.69,-6.95,10.5
16.771241188049316,-7.07,3.2,-7.52,10.8
16.777684211730957,-6.75,2.43,-7.53,10.4
16.787309169769287,-5.92,0.1,-7.41,9.48
16.79816699028015,-4.77,-2.28,-7.04,8.8
16.807880878448486,-5.63,-3.79,-6.45,9.36
16.869497060775757,-8.94,-4.27,-5.84,11.5
16.869932174682617,-11.65,-1.73,-5.39,12.95
16.87035608291626,-8.81,-3.79,-7.11,11.93
16.87077307701111,-7.53,-0.32,-6.85,10.18
16.871192932128906,-1.5,6.41,3.56,7.48
16.872125148773193,5.37,6.94,10.84,13.94
16.877556085586548,5.72,5.93,3.98,9.15
16.887246131896973,-2.35,11.98,-6.88,14.01
16.897988080978394,-5.99,9.45,-9.33,14.56
16.90773606300354,-1.48,-0.12,-7.08,7.23
16.969688892364502,-4.6,-3.8,1.73,6.21
16.970128059387207,-6.72,-4.79,-1.6,8.4
16.970553874969482,-6.98,-3.37,-5.85,9.71
16.97097110748291,-6.15,-1.96,-3.9,7.54
16.97139596939087,-3.88,-0.23,-2.45,4.59
16.97238302230835,-2.3,0.84,-1.43,2.83
16.97743797302246,-1.82,0.68,-1.86,2.68
16.98711919784546,-1.04,0.21,-2.15,2.39
16.9978609085083,-0.92,0.18,-1.27,1.57
17.00756001472473,-1.44,0.28,-1.0,1.77
17.070909023284912,-1.47,0.38,-1.32,2.01
17.07133913040161,-0.86,0.34,-1.29,1.58
17.07176113128662,-0.26,0.25,-1.21,1.26
17.072180032730103,-0.16,0.14,-1.35,1.36
17.072596073150635,-0.58,0.08,-1.42,1.53
17.073538064956665,-0.76,0.06,-1.27,1.48
17.07719087600708,-0.54,0.07,-0.98,1.12
17.08690309524536,-0.19,0.16,-0.77,0.8
17.09733295440674,0.26,0.26,-0.65,0.74
17.107426166534424,0.68,0.36,-0.4,0.86
17.170991897583008,0.97,0.28,0.21,1.03
17.17143487930298,1.02,0.16,0.69,1.24
17.17185688018799,0.91,0.17,0.53,1.06
17.172275066375732,0.5,0.14,0.1,0.52
17.172693014144897,0.08,0.08,0.04,0.12
17.17365312576294,-0.01,-0.03,0.08,0.08
17.177041053771973,0.43,0.04,0.3,0.52
17.18676996231079,1.05,0.18,1.02,1.47
17.19722604751587,1.37,0.19,1.22,1.84
17.207256078720093,1.21,0.09,1.07,1.61
17.271459102630615,0.68,-0.02,1.13,1.31
17.27192497253418,0.3,-0.03,1.12,1.15
17.272353172302246,0.23,-0.01,0.95,0.97
17.272783994674683,0.22,0.01,0.71,0.74
17.27320408821106,0.6,0.09,0.52,0.79
17.274174213409424,1.09,0.22,0.39,1.17
17.276887893676758,1.05,0.3,0.37,1.15
17.286592960357666,0.95,0.36,0.4,1.09
17.297072887420654,1.15,0.35,0.54,1.31
17.307010173797607,1.2,0.37,0.96,1.58
17.37090301513672,1.09,0.48,1.21,1.69
17.371329069137573,1.05,0.52,1.68,2.04
17.371749877929688,1.26,0.93,2.17,2.67
17.372169017791748,1.34,1.23,2.29,2.92
17.372586011886597,1.32,1.63,2.12,2.98
17.373521089553833,1.6,1.97,1.98,3.21
17.376770973205566,1.8,2.3,1.94,3.5
17.38632607460022,2.07,2.49,2.06,3.83
17.396924018859863,2.38,2.88,2.33,4.4
17.407023906707764,2.66,3.56,2.58,5.13
17.471678018569946,2.72,5.06,2.59,6.3
17.4721200466156,3.43,7.41,2.29,8.48
17.472554206848145,4.53,8.06,3.65,9.94
17.472981929779053,3.82,7.67,5.15,9.99
17.473400115966797,3.43,8.1,6.82,11.13
17.474363088607788,3.85,9.07,7.91,12.63
17.476574897766113,4.61,10.08,7.36,13.3
17.486242055892944,3.94,9.63,7.11,12.6
17.496742010116577,2.71,7.69,5.79,10.0
17.506857872009277,2.98,5.8,1.68,6.73
17.57368302345276,4.41,5.81,-3.5,8.09
17.5741229057312,3.33,9.34,-6.17,11.67
17.574543952941895,-1.2,11.69,-2.32,11.97
17.574965000152588,-2.48,10.52,1.59,10.92
17.57538604736328,0.02,8.58,0.48,8.59
17.57663917541504,2.96,4.8,0.35,5.65
17.57760190963745,2.95,1.07,1.92,3.67
17.58617901802063,0.42,-0.49,0.35,0.73
17.596575021743774,-1.34,0.3,-5.43,5.6
17.606566905975342,1.35,3.84,-5.29,6.67
17.67250919342041,6.45,4.75,-1.14,8.09
17.67293691635132,9.64,2.5,1.94,10.14
17.673358917236328,10.37,-0.02,3.88,11.07
17.67377996444702,10.11,-1.17,4.08,10.96
17.674199104309082,7.93,-1.53,3.61,8.84
17.675127029418945,5.59,-1.64,3.42,6.75
17.676352977752686,4.12,-1.69,3.48,5.65
17.68600606918335,2.72,-1.74,3.14,4.5
17.69640588760376,1.31,-1.78,2.58,3.39
17.70652198791504,0.34,-1.85,2.08,2.8
17.773963928222656,0.1,-1.74,1.66,2.4
17.77440309524536,0.66,-1.73,2.01,2.73
17.77483105659485,1.66,-1.8,2.48,3.48
17.77561092376709,2.59,-1.66,2.88,4.21
17.77604103088379,1.96,-1.38,2.87,3.73
17.77698516845703,-0.31,-1.41,1.18,1.86
17.777891159057617,-2.1,-1.46,-1.65,3.04
17.785852909088135,-3.5,-1.43,-3.81,5.36
17.796317100524902,-3.8,-1.96,-3.08,5.26
17.806474208831787,-3.07,-2.89,-1.02,4.33
17.873844146728516,-2.37,-3.31,-0.56,4.1
17.87428307533264,-2.18,-2.98,-1.41,3.95
17.87472105026245,-2.41,-2.4,-2.22,4.06
17.875509023666382,-2.94,-1.8,-2.59,4.31
17.875940084457397,-4.19,-1.24,-2.93,5.26
17.876901149749756,-5.89,-0.64,-3.9,7.09
17.87782621383667,-7.27,0.0,-5.36,9.03
17.885648012161255,-8.25,0.62,-7.08,10.88
17.89625120162964,-8.31,0.9,-8.32,11.79
17.906301975250244,-7.1,0.33,-8.06,10.74
17.974943161010742,-7.14,-0.09,-7.96,10.69
17.975701093673706,-8.48,-0.27,-8.74,12.18
17.97612500190735,-9.71,-1.2,-9.43,13.58
17.976550102233887,-10.29,-3.02,-9.67,14.43
17.976973056793213,-10.34,-5.03,-8.68,14.4
17.977936029434204,-11.36,-3.18,-7.63,14.04
17.978893041610718,-8.23,-2.1,-6.81,10.88
17.985413074493408,-7.71,-4.5,-8.52,12.34
17.99605107307434,-4.95,4.71,-0.59,6.85
18.006070137023926,9.62,11.94,24.72,29.08
18.075634002685547,10.68,13.13,6.58,18.15
18.076274871826172,-0.04,18.96,-12.62,22.77
18.07671022415161,-3.44,6.51,-11.77,13.88
18.077131986618042,-5.51,-1.54,-7.06,9.08
18.077558040618896,-9.92,-3.98,3.99,11.4
18.0784969329834,-9.82,-5.66,-5.18,12.46
18.07942819595337,-7.93,-3.32,-9.75,12.99
18.08533501625061,-5.86,-0.86,-6.68,8.92
18.09588599205017,-2.32,0.62,-3.73,4.43
18.105844020843506,1.04,1.08,-2.87,3.23
18.17568588256836,2.44,1.29,-1.99,3.4
18.176319122314453,1.46,1.02,-0.75,1.93
18.17673921585083,-1.03,0.33,-0.46,1.17
18.177162170410156,-2.79,-0.08,-0.74,2.88
18.177579879760742,-2.77,-0.03,-0.69,2.85
18.178532123565674,-1.89,0.14,-0.66,2.0
18.179441928863525,-1.21,0.12,-1.1,1.63
18.18525004386902,-0.79,0.12,-1.6,1.78
18.195724964141846,-0.38,0.05,-1.66,1.7
18.20569610595703,-0.11,-0.13,-1.12,1.13
18.276531219482422,-0.14,-0.25,-0.52,0.59
18.27696418762207,-0.57,-0.26,-0.02,0.62
18.27739405632019,-0.85,-0.19,0.38,0.95
18.277817010879517,-0.6,-0.13,0.67,0.9
18.278237104415894,0.06,-0.04,0.89,0.89
18.279195070266724,0.77,0.04,0.98,1.24
18.28009605407715,1.17,0.05,0.83,1.43
18.285044193267822,1.2,0.04,0.33,1.24
18.295512199401855,1.15,0.05,-0.07,1.15
18.30559802055359,1.24,0.16,0.05,1.25
18.314981937408447,1.55,0.23,0.75,1.73
18.376179218292236,1.82,0.29,1.45,2.34
18.37660503387451,1.66,0.25,1.52,2.26
18.377036094665527,1.29,0.16,1.17,1.74
18.377466201782227,0.88,0.01,0.93,1.28
18.378416061401367,0.51,-0.07,0.73,0.89
18.37935495376587,0.27,-0.05,0.47,0.54
18.384867191314697,0.34,0.09,0.42,0.54
18.39544105529785,0.9,0.27,0.38,1.01
18.405434131622314,1.53,0.54,0.28,1.64
18.414851188659668,2.02,0.53,0.74,2.21
18.47623109817505,2.26,0.4,1.69,2.85
18.476659059524536,2.36,0.39,2.04,3.14
18.477081060409546,2.22,0.56,1.88,2.96
18.477500915527344,1.99,0.89,1.47,2.62
18.478425979614258,1.66,1.43,1.17,2.48
18.47936701774597,1.88,2.06,1.14,3.01
18.484710216522217,1.64,2.31,1.92,3.42
18.495306968688965,1.6,2.26,2.51,3.73
18.50525403022766,2.28,2.59,2.78,4.43
18.514688968658447,2.54,2.88,3.25,5.03
18.57672691345215,2.68,3.47,3.05,5.34
18.577163219451904,2.53,4.23,3.04,5.79
18.577585220336914,2.23,5.73,3.01,6.84
18.578005075454712,3.28,7.18,3.76,8.74
18.578944206237793,4.6,7.48,5.58,10.4
18.57987403869629,5.23,7.99,6.31,11.44
18.584617137908936,5.89,8.75,6.84,12.57
18.595118045806885,6.03,9.66,7.29,13.52
18.60511803627014,6.11,9.81,7.06,13.54
18.614543914794922,5.31,8.84,6.48,12.17
18.677587032318115,4.1,7.16,3.68,9.03
18.678016185760498,3.37,5.82,-2.31,7.11
18.678441047668457,2.2,7.12,-7.82,10.8
18.678863048553467,-0.36,10.85,-8.18,13.59
18.679798126220703,-2.42,12.56,-1.82,12.91
18.680738925933838,-2.54,10.18,1.7,10.62
18.684523105621338,0.9,5.23,-0.68,5.35
18.695072174072266,2.61,0.78,-0.74,2.82
18.705049991607666,0.27,-1.7,-0.26,1.74
18.71439790725708,-2.08,-1.49,-5.78,6.32
18.77811288833618,0.78,2.29,-4.8,5.37
18.778543949127197,5.65,2.86,-0.15,6.33
18.778966903686523,9.23,0.25,2.39,9.53
18.77940607070923,10.8,-2.27,4.09,11.76
18.780341148376465,10.08,-3.48,4.23,11.47
18.78125810623169,7.99,-3.62,3.32,9.37
18.784393072128296,6.08,-3.5,2.19,7.34
18.794779062271118,5.14,-3.36,1.73,6.37
18.80481195449829,4.74,-3.26,1.79,6.02
18.814218997955322,4.0,-3.51,2.01,5.68
18.878579139709473,2.97,-3.95,1.96,5.31
18.879004955291748,1.97,-4.22,1.75,4.97
18.879425048828125,0.99,-4.31,1.79,4.77
18.879844188690186,0.28,-4.15,1.89,4.56
18.88078022003174,-0.09,-3.64,1.19,3.83
18.88168716430664,-0.19,-2.91,0.97,3.07
18.884192943572998,-0.67,-2.2,0.75,2.41
18.894760131835938,-1.13,-1.29,0.36,1.75
18.9047110080719,-1.8,0.01,-0.21,1.81
18.914072036743164,-2.72,1.85,-1.32,3.54
18.979019165039062,-4.11,4.21,-3.64,6.91
18.979453086853027,-5.83,6.52,-6.57,10.93
18.979877948760986,-6.15,8.21,-7.67,12.8
18.980299949645996,-4.5,8.9,-6.19,11.73
18.981311082839966,-1.68,8.99,-3.24,9.7
18.982622146606445,-0.99,8.53,-0.28,8.59
18.983971118927002,-5.92,8.39,-3.18,10.74
18.99458909034729,-9.96,7.59,-7.44,14.56
19.00468111038208,-13.04,2.43,-7.62,15.29
19.013930082321167,-11.39,-3.55,-4.51,12.75
19.079719066619873,-5.05,-6.29,-2.04,8.32
19.080156087875366,-0.9,-6.97,-2.08,7.32
19.080583095550537,0.05,-4.77,-3.3,5.8
19.08100199699402,-3.39,-1.94,-3.21,5.05
19.081947088241577,-6.71,-1.07,-3.82,7.79
19.08322501182556,-7.88,-0.2,-4.57,9.11
19.084007024765015,-7.76,0.86,-4.64,9.08
19.09435796737671,-7.04,1.09,-5.37,8.92
19.104441165924072,-6.44,0.2,-6.0,8.8
19.113787174224854,-6.59,-1.27,-5.88,8.92
19.180556058883667,-7.37,-3.0,-5.46,9.65
19.180991172790527,-7.95,-4.45,-5.34,10.56
19.18142008781433,-8.62,-3.28,-5.72,10.85
19.18186902999878,-6.58,-1.01,-2.8,7.22
19.18320608139038,-1.41,-4.09,-0.38,4.34
19.18445110321045,-0.79,-0.74,2.37,2.6
19.184895992279053,-0.61,8.97,4.04,9.85
19.194200038909912,3.04,16.05,-4.18,16.86
19.20431089401245,12.57,23.92,-12.98,29.97
19.213593006134033,11.88,7.22,-4.17,14.51
19.28144407272339,-1.25,-7.02,5.73,9.14
19.28187894821167,-10.53,-8.47,0.87,13.54
19.282308101654053,-12.54,-6.05,-2.31,14.11
19.283420085906982,-13.13,-6.28,-1.94,14.68
19.2843918800354,-9.7,-3.19,-1.22,10.28
19.285326957702637,-4.97,0.05,-1.36,5.15
19.28577709197998,-1.19,0.84,-3.3,3.6
19.29404592514038,2.24,1.13,-3.8,4.55
19.3041250705719,4.17,1.74,-2.94,5.39
19.31348204612732,3.47,1.82,-2.09,4.44
19.381155967712402,0.81,1.41,-0.97,1.89
19.381597995758057,-1.26,0.65,-1.33,1.94
19.382023096084595,-2.1,0.11,-2.6,3.34
19.38244390487671,-2.22,-0.05,-2.82,3.58
19.38408613204956,-2.09,-0.07,-2.26,3.07
19.385066032409668,-1.22,0.0,-1.46,1.9
19.38549304008484,-0.44,-0.07,-0.91,1.01
19.393972873687744,-0.4,-0.25,-0.29,0.55
19.403851985931396,-0.38,-0.25,0.26,0.52
19.413279056549072,-0.34,0.01,0.3,0.45
19.482569217681885,-0.2,0.11,0.26,0.34
19.483510971069336,0.0,0.04,0.24,0.24
19.483928203582764,0.11,-0.01,0.31,0.32
19.484364986419678,0.19,0.06,0.22,0.29
19.485289096832275,0.38,0.15,0.13,0.42
19.48627805709839,0.83,0.22,0.08,0.86
19.486708164215088,1.31,0.3,-0.22,1.36
19.493776082992554,1.65,0.38,-0.06,1.69
19.503782987594604,1.85,0.32,0.46,1.93
19.51310396194458,2.02,0.17,1.21,2.36
19.582784175872803,1.94,0.14,1.84,2.67
19.583561897277832,1.37,0.16,1.95,2.38
19.58400821685791,0.67,0.01,1.78,1.9
19.584442138671875,0.3,-0.18,1.38,1.42
19.58542490005493,0.46,-0.22,0.94,1.06
19.586350917816162,0.93,-0.02,0.73,1.18
19.586782932281494,1.21,0.38,0.55,1.38
19.593565940856934,1.19,0.71,0.4,1.44
19.60357403755188,1.02,0.87,0.89,1.6
19.612989902496338,1.03,0.96,1.46,2.02
19.683452129364014,1.37,0.95,1.63,2.33
19.6841721534729,1.67,1.29,2.85,3.54
19.684604167938232,2.22,2.07,2.99,4.26
19.685020923614502,2.46,2.47,2.23,4.13
19.6860032081604,1.89,2.88,2.12,4.04
19.68694496154785,2.27,2.82,2.16,4.21
19.687367916107178,2.86,2.89,2.9,4.99
19.693392992019653,3.72,3.45,3.59,6.21
19.70345401763916,4.31,5.36,3.52,7.72
19.712946891784668,5.39,8.21,2.95,10.25
19.783926010131836,6.77,8.66,4.63,11.92
19.784449100494385,5.16,7.97,5.67,11.05
19.784871101379395,3.26,8.22,6.33,10.87
19.785295963287354,2.32,9.12,7.43,11.99
19.786238193511963,3.04,9.94,7.79,12.98
19.787208080291748,3.98,9.57,5.87,11.91
19.78763198852539,4.26,7.95,3.2,9.57
19.79332208633423,4.52,6.55,0.22,7.96
19.80332899093628,3.95,6.48,-3.2,8.23
19.81276512145996,1.81,8.32,-5.06,9.9
19.884597063064575,-0.99,10.51,-2.63,10.87
19.88505506515503,-3.3,9.93,0.59,10.48
19.885475158691406,-2.65,6.84,0.52,7.35
19.885892868041992,1.25,2.73,0.46,3.03
19.886836051940918,1.51,-0.13,1.6,2.2
19.887736082077026,-2.23,-0.07,-2.63,3.44
19.888154983520508,-0.48,3.87,-2.68,4.73
19.893174171447754,3.53,4.35,2.0,5.94
19.9031400680542,6.71,1.88,4.53,8.31
19.912611961364746,8.32,-0.12,6.41,10.5
19.984703063964844,7.62,-1.05,6.41,10.01
19.98512887954712,5.85,-1.09,5.14,7.86
19.985549926757812,3.83,-0.93,3.76,5.44
19.985976219177246,2.48,-1.25,2.96,4.05
19.986949920654297,1.87,-1.73,2.82,3.8
19.987884044647217,1.22,-2.06,2.97,3.81
19.988304138183594,0.34,-2.18,2.84,3.59
19.993027210235596,-0.24,-2.22,2.32,3.22
20.003031015396118,-0.45,-2.45,2.01,3.2
20.012400150299072,-0.26,-2.79,1.67,3.26
20.08531093597412,0.34,-3.0,1.67,3.45
20.08573293685913,0.94,-3.23,1.72,3.77
20.086161136627197,1.05,-3.49,1.46,3.92
20.086583137512207,0.93,-3.75,1.19,4.04
20.087523937225342,0.54,-4.3,1.23,4.5
20.088425159454346,0.04,-4.77,1.27,4.93
20.088841915130615,-0.35,-4.9,0.87,4.98
20.09287405014038,-0.6,-4.62,-0.02,4.65
20.10291290283203,-0.98,-3.96,-1.37,4.3
20.11226797103882,-1.71,-3.18,-2.83,4.58
20.185249090194702,-2.97,-2.12,-4.22,5.57
20.185694217681885,-4.35,-1.29,-4.58,6.44
20.18611717224121,-5.5,-0.8,-4.5,7.15
20.186546087265015,-6.28,-0.03,-5.01,8.03
20.18748903274536,-6.51,0.93,-6.28,9.09
20.188395977020264,-6.55,1.84,-7.76,10.32
20.188817024230957,-6.93,2.57,-9.14,11.75
20.192648887634277,-8.29,2.96,-10.34,13.57
20.202773094177246,-9.93,2.51,-11.04,15.05
20.212100982666016,-10.52,0.87,-11.13,15.33
20.2868971824646,-9.5,-2.0,-9.81,13.8
20.28743314743042,-8.14,-1.02,-7.33,11.0
20.287868976593018,-3.67,-1.32,-6.34,7.44
20.288291931152344,-4.96,-4.24,-6.19,8.99
20.28926706314087,-8.48,-2.45,-5.67,10.49
20.290192127227783,-0.25,8.68,9.18,12.63
20.29062008857727,12.11,11.93,25.83,30.92
20.292529106140137,6.65,9.74,-4.79,12.72
20.302565097808838,-4.92,8.91,-7.5,12.64
20.311994075775146,-10.26,2.37,-1.51,10.63
20.387062072753906,-7.28,-2.28,-5.37,9.32
20.387508869171143,-6.38,-0.82,-1.96,6.72
20.38793706893921,-7.82,-3.15,-4.53,9.57
20.388358116149902,-6.76,-2.57,-8.58,11.22
20.38932204246521,-4.92,-0.58,-6.57,8.22
20.390264987945557,-3.05,-0.04,-3.47,4.62
20.390686988830566,-1.22,-0.11,-2.65,2.91
20.392387866973877,0.39,0.39,-2.77,2.82
20.40247392654419,1.46,0.96,-1.42,2.25
20.411850929260254,0.95,0.97,-0.42,1.42
20.48786211013794,-0.56,0.68,-1.25,1.52
20.488301992416382,-1.54,0.4,-1.27,2.03
20.48872995376587,-1.42,0.06,-0.93,1.69
20.489161014556885,-0.9,-0.16,-1.03,1.37
20.49012303352356,-0.58,-0.14,-1.15,1.29
20.491048097610474,-0.47,-0.04,-1.24,1.32
20.49181318283081,-0.26,0.05,-1.23,1.25
20.492806911468506,-0.09,0.16,-1.24,1.25
20.502175092697144,-0.07,0.21,-1.23,1.24
20.511687994003296,-0.23,0.16,-0.96,1.0
20.587883949279785,-0.38,0.06,-0.34,0.51
20.588337898254395,-0.42,-0.04,0.17,0.45
20.58876609802246,-0.11,-0.06,0.62,0.63
20.589192867279053,0.32,0.02,0.76,0.82
20.59015703201294,0.47,0.09,0.48,0.67
20.59107208251953,0.37,0.19,0.16,0.44
20.59181308746338,0.18,0.21,-0.06,0.28
20.59278917312622,0.25,0.09,0.2,0.33
20.602055072784424,0.59,0.07,0.85,1.03
20.61153793334961,1.05,0.13,1.2,1.59
20.68825602531433,1.34,0.18,1.22,1.82
20.68870210647583,1.16,0.09,1.21,1.67
20.68913221359253,0.45,-0.08,1.13,1.21
20.689558029174805,-0.05,-0.25,0.95,0.98
20.690524101257324,0.03,-0.36,0.81,0.88
20.691819190979004,0.72,-0.06,0.65,0.97
20.69224500656128,1.33,0.36,0.55,1.48
20.693247079849243,1.46,0.6,0.69,1.72
20.70182514190674,1.52,0.69,0.81,1.85
20.711379051208496,1.61,0.47,1.25,2.09
20.788762092590332,1.68,0.17,2.04,2.64
20.789207935333252,1.75,0.32,2.09,2.74
20.789626121520996,1.66,0.79,1.54,2.39
20.790042877197266,1.54,1.4,1.17,2.38
20.79132318496704,1.3,1.88,1.56,2.76
20.792230129241943,1.09,2.03,2.08,3.1
20.792646884918213,1.78,2.22,2.16,3.57
20.793612003326416,2.4,2.35,2.73,4.32
20.801692008972168,2.86,2.55,2.92,4.81
20.811312198638916,3.24,3.25,2.73,5.33
20.88911509513855,3.13,4.11,2.58,5.77
20.889546871185303,2.63,5.9,2.24,6.83
20.889965057373047,3.58,7.4,2.73,8.66
20.890406131744385,3.95,7.58,4.28,9.55
20.891669034957886,3.71,8.23,5.78,10.71
20.892584085464478,4.29,9.16,7.45,12.56
20.893003940582275,5.39,10.4,7.28,13.79
20.893970012664795,6.41,10.87,7.36,14.6
20.901647090911865,5.34,9.46,7.32,13.09
20.911303997039795,4.52,7.3,4.56,9.72
20.989625930786133,4.5,5.97,-0.79,7.51
20.990081071853638,3.44,7.61,-5.88,10.21
20.99087405204773,0.09,11.23,-5.11,12.33
20.991311073303223,-2.66,11.63,0.32,11.93
20.992302894592285,-2.86,9.67,1.61,10.21
20.993270874023438,-0.56,5.38,0.7,5.45
20.993696212768555,2.0,1.45,1.5,2.89
20.994730949401855,0.14,-0.57,0.67,0.89
21.001641035079956,-1.25,0.83,-5.22,5.43
21.01093816757202,2.61,4.66,-2.78,6.02
21.0903902053833,6.62,4.17,1.77,8.02
21.091136932373047,9.11,1.44,4.17,10.12
21.091556072235107,10.11,-0.78,5.94,11.75
21.091973066329956,8.85,-2.05,5.91,10.83
21.092928886413574,6.66,-2.19,4.46,8.3
21.09385108947754,4.71,-1.92,3.36,6.09
21.09426999092102,3.42,-1.83,3.05,4.93
21.09524703025818,2.69,-1.89,3.29,4.65
21.1747989654541,1.95,-1.88,3.47,4.4
21.175462007522583,1.32,-1.77,2.92,3.66
21.175890922546387,0.97,-1.78,2.25,3.02
21.17631506919861,0.79,-1.96,1.93,2.86
21.176735877990723,1.0,-2.09,1.77,2.91
21.177165985107422,1.27,-2.07,1.6,2.9
21.17809295654297,1.4,-1.91,1.26,2.68
21.17899203300476,1.07,-2.05,1.16,2.58
21.180810928344727,-0.01,-2.44,1.33,2.77
21.191309928894043,-1.5,-2.41,0.83,2.95
21.275146007537842,-2.74,-2.37,-0.19,3.62
21.27558708190918,-4.22,-2.03,-1.49,4.91
21.276010990142822,-5.04,-1.04,-4.02,6.53
21.276432991027832,-5.16,-0.18,-6.24,8.09
21.276854991912842,-5.63,0.11,-5.41,7.8
21.277277946472168,-5.65,0.15,-3.87,6.84
21.278214931488037,-5.15,0.94,-3.55,6.32
21.27913808822632,-5.15,2.5,-4.62,7.35
21.28056502342224,-5.43,3.62,-6.4,9.14
21.291137218475342,-5.66,3.66,-7.6,10.15
21.375648975372314,-6.55,3.84,-8.71,11.55
21.376090049743652,-7.87,3.64,-10.47,13.59
21.376507997512817,-8.68,2.0,-11.75,14.74
21.37692904472351,-9.32,-1.51,-12.65,15.78
21.377347946166992,-9.91,-5.2,-12.02,16.42
21.377763986587524,-10.31,-6.8,-10.32,16.09
21.37868905067444,-9.9,-5.13,-10.29,15.17
21.379595041275024,-8.18,-1.96,-10.55,13.49
21.38048005104065,-5.54,2.78,-7.55,9.76
21.390971183776855,-0.14,1.6,-6.28,6.48
21.473702907562256,2.78,6.79,4.38,8.54
21.475905895233154,7.46,3.03,14.04,16.18
21.476343154907227,7.0,-0.02,8.17,10.75
21.476770877838135,4.43,2.89,0.36,5.3
21.47719717025757,0.15,11.36,-7.79,13.77
21.477622032165527,-4.44,12.34,-8.7,15.73
21.478578090667725,-7.96,2.75,-5.14,9.86
21.479531049728394,-5.37,-2.9,-3.49,7.03
21.480303049087524,-6.49,-1.74,-4.49,8.08
21.490814208984375,-6.71,-2.25,-5.95,9.24
21.573695182800293,-4.42,-1.45,-6.57,8.05
21.57589817047119,-3.67,-0.24,-5.4,6.53
21.576338052749634,-3.43,0.49,-3.76,5.11
21.57676601409912,-2.15,0.76,-2.76,3.58
21.57719087600708,-0.81,0.58,-1.85,2.1
21.577627182006836,-0.49,0.63,-1.15,1.39
21.57860517501831,-0.91,0.54,-0.68,1.25
21.579560041427612,-1.23,0.22,-0.69,1.42
21.580326080322266,-1.15,0.12,-0.8,1.4
21.590579986572266,-0.82,0.07,-0.74,1.1
21.60061001777649,-0.41,0.02,-0.58,0.71
21.67551302909851,-0.09,0.09,-0.6,0.61
21.675941944122314,0.21,0.18,-0.72,0.77
21.676366090774536,0.37,0.15,-0.78,0.87
21.676788091659546,0.35,0.11,-0.69,0.78
21.677207946777344,0.12,0.06,-0.66,0.67
21.678144931793213,-0.06,-0.05,-0.57,0.57
21.679070949554443,-0.06,-0.1,-0.19,0.22
21.679883003234863,-0.01,-0.11,0.33,0.34
21.690524101257324,-0.06,-0.1,0.69,0.69
21.70056390762329,-0.05,-0.04,0.81,0.81
21.775665998458862,0.18,0.01,0.73,0.75
21.77609920501709,0.69,0.09,0.58,0.9
21.776516914367676,1.3,0.14,0.53,1.41
21.77693796157837,1.71,0.12,0.77,1.87
21.777359008789062,1.83,0.08,0.96,2.06
21.778303146362305,1.68,0.03,0.83,1.87
21.779221057891846,1.19,-0.09,0.69,1.37
21.779980182647705,0.78,-0.19,0.7,1.06
21.790337085723877,0.62,-0.2,0.76,1.0
21.800432205200195,0.67,-0.25,1.0,1.22
21.875705003738403,0.91,-0.37,1.25,1.58
21.876123905181885,1.33,-0.37,1.18,1.81
21.87653112411499,1.74,-0.28,0.84,1.95
21.87695598602295,1.71,-0.13,0.31,1.74
21.877379894256592,1.3,0.02,0.09,1.3
21.878352165222168,1.07,0.08,0.19,1.08
21.879306077957153,1.1,0.05,0.73,1.32
21.880051136016846,1.52,0.0,1.36,2.03
21.890181064605713,1.86,-0.08,1.52,2.4
21.90024709701538,1.76,0.0,1.64,2.4
21.975831031799316,1.6,0.21,1.66,2.31
21.976261138916016,1.45,0.48,1.41,2.07
21.976686000823975,1.32,0.73,1.21,1.93
21.977102994918823,1.48,1.02,1.08,2.09
21.977517127990723,1.58,1.45,0.99,2.36
21.978455066680908,1.15,1.79,0.75,2.25
21.97972822189331,0.86,2.24,0.73,2.5
21.980145931243896,0.85,3.01,1.09,3.31
21.990044116973877,0.69,3.61,2.01,4.18
22.000097036361694,1.33,4.36,2.28,5.09
22.076022148132324,2.51,5.52,2.67,6.62
22.07645893096924,3.59,5.67,3.77,7.69
22.076887130737305,3.45,6.42,4.22,8.42
22.07730722427368,4.01,7.81,4.43,9.83
22.077725887298584,4.68,8.38,5.25,10.94
22.078685998916626,4.47,8.76,6.34,11.7
22.079998016357422,4.64,9.77,7.59,13.21
22.080417156219482,5.74,9.83,7.21,13.47
22.08994722366333,5.97,8.33,5.94,11.84
22.09994602203369,5.45,6.47,4.05,9.37
22.17593812942505,5.41,5.81,-0.09,7.93
22.176380157470703,5.18,7.21,-4.51,9.95
22.176805019378662,1.25,10.98,-4.87,12.07
22.17722511291504,-3.6,11.36,0.28,11.92
22.177649974822998,-2.14,8.84,1.46,9.21
22.178614139556885,2.13,5.66,-0.04,6.04
22.17985486984253,2.26,1.84,0.69,2.99
22.180278062820435,-0.38,-0.82,0.68,1.13
22.18981909751892,-2.4,-0.54,-4.25,4.91
22.1997971534729,0.98,3.03,-3.41,4.66
22.27768898010254,5.07,3.29,0.53,6.06
22.278141975402832,7.79,1.1,2.36,8.21
22.278587102890015,9.32,-0.52,3.46,9.95
22.279345989227295,8.89,-1.81,3.75,9.81
22.27976703643799,7.37,-2.48,3.36,8.47
22.28071904182434,5.51,-2.63,2.89,6.75
22.281626224517822,3.84,-2.41,2.58,5.21
22.28203296661377,2.73,-2.23,2.58,4.36
22.289616107940674,1.97,-2.31,2.61,4.0
22.299638032913208,1.3,-2.61,2.36,3.75
22.37678098678589,0.84,-2.76,1.83,3.41
22.377213954925537,0.94,-2.55,1.49,3.09
22.377636909484863,1.31,-2.44,1.63,3.21
22.378058910369873,1.8,-2.48,1.85,3.57
22.378494024276733,2.02,-2.48,1.99,3.76
22.379751205444336,1.45,-2.06,1.79,3.09
22.38068914413452,0.05,-1.97,1.56,2.51
22.381107091903687,-1.31,-2.28,0.53,2.68
22.389472007751465,-2.39,-1.94,-1.69,3.51
22.399463176727295,-3.3,-1.29,-4.05,5.38
22.476378917694092,-4.11,-1.1,-4.53,6.21
22.476816177368164,-4.56,-1.42,-3.25,5.77
22.477245092391968,-4.47,-1.66,-2.44,5.35
22.47766900062561,-4.07,-1.32,-2.39,4.9
22.478121995925903,-3.88,-0.72,-2.54,4.69
22.479413986206055,-4.27,0.14,-3.16,5.31
22.480347156524658,-4.95,1.19,-3.83,6.37
22.48076605796814,-6.08,2.22,-5.2,8.3
22.48932909965515,-7.58,3.37,-7.46,11.15
22.49923801422119,-8.54,4.13,-8.69,12.86
22.576921939849854,-8.81,3.73,-8.87,13.04
22.57736587524414,-8.58,1.72,-8.95,12.51
22.577795028686523,-7.86,-1.47,-8.62,11.75
22.578543186187744,-6.89,-3.1,-7.84,10.88
22.578970909118652,-6.2,-2.86,-7.02,9.79
22.579914093017578,-6.21,-3.26,-5.92,9.17
22.580831050872803,-7.5,-2.33,-5.16,9.39
22.581252098083496,-5.46,0.81,-5.3,7.65
22.589044094085693,-1.16,-2.21,-5.77,6.28
22.5990571975708,-2.87,1.46,-0.87,3.33
22.67691707611084,3.94,8.57,11.12,14.58
22.677369117736816,9.45,5.95,15.45,19.06
22.677810192108154,3.83,2.85,-0.06,4.77
22.678555011749268,-3.28,4.82,-7.53,9.52
22.678975105285645,-6.86,6.97,-5.05,11.0
22.67995810508728,-6.92,4.76,-7.16,11.03
22.68088388442993,-3.1,2.23,-5.67,6.83
22.681303024291992,-5.87,-0.28,0.3,5.88
22.68899393081665,-8.88,-3.36,-3.12,9.99
22.69890308380127,-7.09,-3.08,-6.45,10.06
22.77645707130432,-5.49,-2.12,-5.37,7.96
22.77688694000244,-3.49,-0.95,-3.08,4.75
22.777309894561768,-1.84,0.24,-1.59,2.44
22.777731895446777,0.01,0.86,-1.27,1.53
22.778505086898804,1.46,0.99,-0.6,1.86
22.77945613861084,1.06,0.83,-0.85,1.59
22.780379056930542,-0.28,0.58,-1.83,1.94
22.780802011489868,-1.36,0.34,-2.13,2.54
22.7888240814209,-1.82,-0.04,-1.57,2.4
22.798846006393433,-1.78,-0.22,-1.07,2.08
22.876675128936768,-1.63,-0.19,-1.15,2.0
22.877108097076416,-1.35,-0.02,-1.24,1.83
22.87753391265869,-0.83,0.19,-1.24,1.5
22.878270149230957,-0.03,0.33,-1.46,1.49
22.8786940574646,0.53,0.34,-1.4,1.53
22.87969207763672,0.56,0.28,-0.72,0.95
22.880599975585938,0.4,0.18,0.12,0.45
22.881021976470947,0.2,0.1,0.54,0.58
22.88895320892334,-0.13,0.14,0.51,0.54
22.898624897003174,-0.41,0.16,0.4,0.59
22.977421045303345,-0.4,0.1,0.36,0.54
22.97819995880127,-0.04,0.06,0.43,0.43
22.9786319732666,0.47,0.16,0.38,0.62
22.979063034057617,1.0,0.31,0.37,1.11
22.97948694229126,1.48,0.36,0.68,1.66
22.980427026748657,1.7,0.29,1.13,2.06
22.981378078460693,1.63,0.1,1.43,2.17
22.981801986694336,1.42,-0.14,1.58,2.12
22.988566875457764,1.14,-0.36,1.67,2.05
22.998553037643433,1.0,-0.37,1.44,1.79
23.08078408241272,1.04,-0.31,0.97,1.45
23.08132314682007,0.99,-0.16,0.51,1.12
23.081769943237305,1.0,0.12,0.29,1.04
23.08226704597473,1.1,0.33,0.33,1.19
23.082758903503418,1.17,0.52,0.25,1.3
23.08374810218811,1.08,0.59,0.45,1.31
23.084671020507812,0.78,0.63,0.95,1.38
23.085113048553467,0.74,0.83,1.59,1.94
23.088569164276123,0.85,0.98,2.11,2.47
23.098369121551514,0.98,1.34,2.08,2.66
23.177512168884277,1.34,1.87,1.68,2.84
23.178278923034668,1.43,2.32,1.56,3.14
23.17870807647705,1.67,2.55,1.59,3.43
23.179139137268066,1.98,2.64,1.73,3.72
23.179562091827393,2.16,2.82,1.92,4.03
23.180535078048706,2.56,3.18,2.1,4.59
23.181441068649292,2.76,3.6,2.45,5.15
23.18186616897583,2.84,4.63,2.47,5.96
23.18825602531433,3.53,5.64,2.98,7.29
23.198385000228882,3.81,5.69,4.22,8.04
23.277379989624023,3.32,5.83,5.33,8.56
23.278133869171143,3.9,6.59,6.84,10.26
23.278563022613525,5.06,7.84,7.41,11.91
23.27898120880127,5.75,9.72,6.4,12.98
23.27939510345459,6.2,10.53,6.81,13.98
23.28034210205078,5.61,9.19,5.91,12.28
23.281233072280884,5.4,7.45,1.09,9.26
23.28165292739868,5.79,8.16,-4.72,11.06
23.288107872009277,3.51,12.1,-6.82,14.32
23.29806900024414,-0.07,13.99,-1.98,14.12
23.378089904785156,-0.62,11.53,2.23,11.76
23.378729104995728,1.19,7.25,1.91,7.59
23.379157066345215,3.11,3.56,0.46,4.74
23.379578113555908,1.62,0.88,0.73,1.98
23.3799991607666,-3.02,-0.73,-2.93,4.27
23.38094401359558,-3.18,1.22,-6.75,7.56
23.38183903694153,1.88,3.43,-2.71,4.75
23.38226318359375,6.21,2.26,0.93,6.67
23.387994050979614,9.13,0.1,3.27,9.69
23.39802312850952,9.32,-1.72,4.86,10.65
23.477949142456055,7.32,-2.57,4.99,9.22
23.478597164154053,5.4,-2.46,4.13,7.22
23.479026079177856,3.81,-2.14,3.42,5.54
23.479456901550293,2.37,-1.91,3.09,4.33
23.47988796234131,1.45,-1.75,3.04,3.79
23.48087215423584,0.77,-1.89,2.84,3.49
23.48178720474243,0.53,-2.0,2.34,3.12
23.482215881347656,0.67,-1.83,1.92,2.73
23.48781108856201,1.04,-1.62,1.88,2.69
23.497822999954224,1.94,-1.49,2.17,3.26
23.578243017196655,2.64,-1.3,2.59,3.92
23.57869601249695,2.06,-0.71,2.17,3.07
23.579144954681396,0.13,-0.53,1.58,1.67
23.57956600189209,-2.15,-0.95,0.36,2.37
23.579991102218628,-3.48,-0.81,-2.07,4.12
23.580952167510986,-3.93,-0.6,-3.75,5.46
23.58189105987549,-4.0,-1.12,-2.6,4.9
23.582311153411865,-3.45,-1.78,-1.01,4.01
23.587733030319214,-3.31,-1.58,-1.1,3.82
23.5975821018219,-3.7,-0.95,-1.99,4.3
23.678215980529785,-4.23,-0.41,-2.58,4.97
23.678673028945923,-4.97,-0.16,-3.31,5.97
23.679108142852783,-6.32,0.26,-4.75,7.91
23.679537057876587,-7.63,0.69,-5.96,9.7
23.67996311187744,-8.33,0.73,-6.65,10.68
23.680903911590576,-8.62,0.37,-7.91,11.7
23.681829929351807,-9.19,-0.27,-9.19,12.99
23.68225622177124,-9.95,-1.17,-9.54,13.83
23.687479972839355,-10.05,-2.21,-9.33,13.89
23.697471141815186,-9.23,-3.13,-8.77,13.11
23.77816104888916,-8.42,-3.7,-8.26,12.36
23.77860689163208,-8.05,-4.04,-8.07,12.09
23.77902889251709,-8.27,-2.75,-8.43,12.12
23.779448986053467,-7.13,1.57,-7.02,10.12
23.779869079589844,-2.85,-5.16,-7.81,9.78
23.78080415725708,-6.29,-1.14,-6.61,9.19
23.78172492980957,2.03,11.07,6.45,12.97
23.782147884368896,13.63,10.98,19.05,25.86
23.787286043167114,6.58,11.07,-6.67,14.5
23.79737091064453,2.54,8.75,-9.53,13.18
23.878413200378418,-2.13,0.23,-0.11,2.14
23.878857135772705,-9.74,0.14,-3.06,10.21
23.879279136657715,-8.05,-2.68,-5.33,10.01
23.879698038101196,-7.87,-2.09,-3.81,8.99
23.880096912384033,-8.57,-2.09,-4.94,10.11
23.88103699684143,-6.35,-0.39,-4.47,7.77
23.881957054138184,-4.3,0.11,-2.92,5.19
23.88238286972046,-1.96,-0.02,-2.62,3.27
23.88735604286194,0.0,0.45,-2.05,2.09
23.897269010543823,0.76,0.77,-1.4,1.76
23.97920322418213,0.28,0.75,-1.17,1.41
23.97964906692505,-0.6,0.52,-1.62,1.8
23.98008394241333,-1.15,0.26,-2.03,2.34
23.980513095855713,-1.13,0.05,-1.38,1.78
23.9809410572052,-0.93,-0.13,-0.78,1.22
23.981875896453857,-0.77,-0.12,-0.96,1.23
23.982810974121094,-0.69,-0.11,-1.25,1.43
23.983234882354736,-0.56,-0.04,-1.28,1.39
23.98741102218628,-0.16,0.04,-1.13,1.14
23.997093200683594,-0.09,0.16,-0.83,0.85
24.080461978912354,-0.1,0.22,-0.65,0.69
24.08100199699402,-0.05,0.14,-0.42,0.44
24.08143711090088,0.06,0.07,-0.12,0.15
24.081866025924683,0.23,0.03,0.11,0.25
24.082295894622803,0.38,0.0,0.34,0.5
24.083307027816772,0.53,0.02,0.25,0.58
24.08423089981079,0.7,0.07,0.07,0.7
24.08465600013733,0.72,0.13,-0.04,0.73
24.08730411529541,0.66,0.11,-0.01,0.66
24.096939086914062,0.68,0.05,0.27,0.73
24.18065309524536,0.7,-0.03,0.72,1.0
24.181097984313965,0.73,-0.09,0.95,1.2
24.181528091430664,0.74,-0.13,1.06,1.29
24.181952953338623,0.51,-0.09,1.1,1.21
24.18237805366516,0.5,-0.03,1.02,1.13
24.183362007141113,0.59,-0.02,0.95,1.11
24.184268951416016,0.61,-0.03,0.83,1.03
24.184693098068237,0.74,-0.01,0.66,0.99
24.18713402748108,1.22,0.07,0.66,1.38
24.196779012680054,1.76,0.21,0.94,2.0
24.281143188476562,2.01,0.28,1.34,2.43
24.281585216522217,2.03,0.35,1.53,2.56
24.282011032104492,1.99,0.28,1.72,2.64
24.28241205215454,1.57,0.28,1.88,2.46
24.282819986343384,1.06,0.49,1.55,1.94
24.283786058425903,0.53,0.83,0.98,1.38
24.284730911254883,0.32,1.29,0.75,1.52
24.28515601158142,0.59,1.75,1.16,2.18
24.28702402114868,1.05,2.06,1.85,2.96
24.296663999557495,1.75,2.77,1.94,3.8
24.38074016571045,2.51,3.27,2.0,4.58
24.381185054779053,2.09,3.52,2.12,4.61
24.381612062454224,2.11,3.92,2.51,5.11
24.382030963897705,2.4,4.98,2.71,6.15
24.3824520111084,3.48,6.21,3.27,7.83
24.38340401649475,4.38,6.79,4.48,9.23
24.38433313369751,4.67,7.42,5.25,10.21
24.384756088256836,4.57,8.2,6.29,11.29
24.38676404953003,4.5,8.81,8.23,12.86
24.396496057510376,5.05,8.91,9.32,13.84
24.480769157409668,5.39,8.49,8.18,12.96
24.481221199035645,5.51,7.54,6.19,11.2
24.481648921966553,5.96,6.31,3.1,9.21
24.482078075408936,6.8,6.56,-1.95,9.64
24.482502937316895,5.7,9.48,-6.07,12.61
24.483450889587402,0.89,12.03,-4.39,12.83
24.48441791534424,-2.94,10.77,0.04,11.16
24.484840869903564,-3.39,7.9,1.27,8.68
24.48625612258911,-0.78,4.53,0.6,4.63
24.496345043182373,2.41,1.39,1.16,3.01
24.581248998641968,0.17,-0.58,0.56,0.82
24.58171319961548,-1.39,0.56,-4.29,4.54
24.582170009613037,2.04,4.0,-2.86,5.32
24.582594871520996,6.0,3.77,0.43,7.09
24.583019018173218,8.73,1.58,2.33,9.17
24.583967208862305,9.92,-0.65,3.89,10.67
24.584908962249756,9.13,-2.02,3.87,10.11
24.585678100585938,7.16,-2.1,2.44,7.85
24.58705711364746,5.41,-1.72,1.84,5.96
24.59613299369812,4.11,-1.54,2.22,4.91
24.68155813217163,3.18,-1.71,2.83,4.58
24.682008028030396,2.05,-1.93,2.71,3.9
24.6824312210083,1.03,-1.85,1.69,2.7
24.6828351020813,0.75,-1.85,0.86,2.17
24.683242082595825,1.2,-1.96,0.72,2.4
24.68420696258545,1.93,-2.25,0.91,3.1
24.685445070266724,2.58,-2.45,1.4,3.82
24.685861110687256,2.87,-2.47,1.8,4.19
24.687222957611084,2.12,-2.45,1.52,3.57
24.696105003356934,0.3,-2.76,0.94,2.93
24.781204223632812,-1.45,-2.99,-0.95,3.45
24.78165602684021,-2.06,-2.33,-3.73,4.85
24.782084941864014,-2.64,-1.81,-4.66,5.65
24.78251004219055,-3.31,-2.13,-3.55,5.3
24.782926082611084,-3.07,-2.14,-3.24,4.94
24.783921003341675,-2.99,-1.62,-3.73,5.04
24.78484606742859,-3.39,-1.12,-4.22,5.52
24.78558111190796,-4.16,-0.64,-4.79,6.37
24.786573886871338,-4.79,-0.35,-4.76,6.76
24.7958722114563,-5.28,-0.13,-4.97,7.25
24.882140159606934,-6.32,0.63,-6.3,8.94
24.88257908821106,-7.32,1.45,-7.62,10.66
24.883007049560547,-7.63,1.75,-8.36,11.45
24.883435010910034,-7.98,1.74,-8.88,12.06
24.883853912353516,-8.71,1.03,-8.95,12.53
24.884806156158447,-9.13,-0.84,-8.4,12.43
24.88600492477417,-9.14,-2.68,-7.59,12.17
24.886425018310547,-8.53,-3.27,-6.72,11.34
24.887753009796143,-7.74,-0.71,-6.43,10.08
24.895720958709717,-3.84,-0.81,-5.35,6.63
24.98166298866272,-5.13,-2.75,-5.01,7.67
24.982200145721436,-7.72,-2.12,-6.49,10.3
24.982626914978027,-4.1,5.0,-1.83,6.72
24.983049869537354,6.8,11.07,15.05,19.88
24.983479976654053,9.4,8.17,7.38,14.47
24.98443102836609,0.34,11.31,-9.92,15.04
24.985682010650635,-3.13,9.7,-6.89,12.3
24.986109018325806,-3.74,0.28,-6.65,7.63
24.987438201904297,-6.33,-2.15,1.68,6.89
24.99560308456421,-6.81,-4.03,0.17,7.91
25.081443071365356,-6.95,-3.82,-5.5,9.65
25.081912994384766,-7.31,-2.7,-4.9,9.2
25.082356929779053,-5.23,-0.79,-4.21,6.76
25.082802057266235,-3.29,0.29,-3.13,4.55
25.08324098587036,-2.22,0.47,-1.78,2.88
25.08430004119873,-0.94,0.48,-1.41,1.76
25.085605144500732,0.51,0.69,-1.12,1.41
25.086026191711426,0.62,0.88,-0.45,1.16
25.087409019470215,-0.24,0.6,-0.7,0.95
25.095512866973877,-0.66,0.13,-1.45,1.59
25.18135118484497,-0.78,-0.13,-1.51,1.7
25.181793212890625,-0.8,-0.22,-1.14,1.4
25.182224988937378,-0.73,-0.08,-0.96,1.2
25.182656049728394,-0.67,0.01,-1.16,1.33
25.18306016921997,-0.74,0.03,-1.16,1.37
25.183979034423828,-0.68,0.12,-0.85,1.09
25.185209035873413,-0.48,0.17,-0.65,0.82
25.18562889099121,-0.39,0.11,-0.31,0.51
25.186569213867188,-0.48,0.01,0.0,0.48
25.195372104644775,-0.38,-0.04,0.16,0.41
25.280757904052734,-0.07,-0.06,0.26,0.27
25.281196117401123,0.14,0.01,0.25,0.28
25.281615018844604,0.32,0.17,0.08,0.37
25.282060146331787,0.5,0.25,-0.1,0.56
25.282474040985107,0.58,0.24,-0.12,0.63
25.2833890914917,0.61,0.24,-0.05,0.65
25.2846200466156,0.64,0.15,0.1,0.66
25.285036087036133,0.65,0.06,0.59,0.87
25.285991191864014,0.75,-0.06,1.1,1.33
25.295246124267578,1.02,-0.07,1.42,1.74
25.38129711151123,1.06,-0.08,1.46,1.8
25.38173508644104,0.91,-0.14,1.39,1.66
25.382160186767578,1.08,-0.26,1.42,1.8
25.38257908821106,1.59,-0.19,1.03,1.9
25.382997035980225,1.78,0.02,0.47,1.84
25.3839910030365,1.21,0.29,0.38,1.3
25.38521099090576,0.69,0.42,0.5,0.95
25.385613918304443,0.69,0.4,0.89,1.19
25.386547088623047,0.95,0.27,1.13,1.5
25.395052909851074,1.45,0.07,1.72,2.25
25.480797052383423,1.78,0.15,2.35,2.95
25.481236934661865,1.95,0.45,1.98,2.81
25.481668949127197,1.9,0.79,1.21,2.38
25.482089042663574,1.39,1.31,0.86,2.09
25.482508182525635,1.24,1.96,0.87,2.47
25.48347520828247,1.62,2.59,0.82,3.16
25.484729051589966,1.76,3.19,1.25,3.85
25.485148906707764,2.01,3.55,1.56,4.36
25.486159086227417,2.25,3.97,2.25,5.08
25.494851112365723,2.57,4.94,2.71,6.19
25.58088493347168,3.62,6.53,3.25,8.14
25.581332206726074,4.86,7.21,4.52,9.79
25.58175802230835,5.1,7.72,5.33,10.67
25.58218288421631,4.82,8.19,5.76,11.11
25.582606077194214,3.95,8.67,6.15,11.33
25.583581924438477,3.57,9.76,7.39,12.75
25.58487319946289,3.93,10.04,8.63,13.81
25.585297107696533,4.43,8.55,7.42,12.15
25.58630108833313,5.36,7.12,4.69,10.07
25.594649076461792,6.7,6.69,0.67,9.49
25.68107795715332,6.99,7.91,-3.94,11.26
25.68152093887329,3.29,11.45,-5.27,13.02
25.68195390701294,-1.86,12.7,-0.75,12.85
25.68238115310669,-2.29,10.23,1.51,10.59
25.682804107666016,1.28,6.87,0.08,6.98
25.684117078781128,2.87,3.56,0.59,4.61
25.685061931610107,-0.14,0.65,1.03,1.22
25.68549394607544,-2.96,0.31,-4.0,4.98
25.686488151550293,0.34,3.69,-3.26,4.93
25.694528102874756,5.04,3.97,1.0,6.49
25.704020023345947,8.31,1.72,3.53,9.19
25.782097101211548,9.68,-0.13,5.46,11.11
25.78252410888672,8.18,-1.42,5.53,9.97
25.78294610977173,5.98,-1.98,4.59,7.79
25.783408164978027,4.18,-2.02,3.99,6.12
25.78465509414673,2.82,-2.01,3.49,4.91
25.78555202484131,2.05,-2.01,3.32,4.38
25.78595805168152,1.38,-2.15,3.67,4.47
25.78691291809082,0.83,-2.28,3.76,4.47
25.79456901550293,0.49,-2.27,3.24,3.98
25.8038649559021,0.59,-2.15,2.77,3.55
25.880606174468994,0.96,-2.19,2.49,3.45
25.881049156188965,1.36,-2.45,2.22,3.57
25.881474018096924,1.42,-2.74,1.88,3.61
25.88189697265625,1.04,-3.0,1.12,3.36
25.88287591934204,0.47,-3.29,0.59,3.37
25.884106159210205,0.05,-3.55,0.25,3.55
25.884530067443848,-0.16,-3.68,0.01,3.68
25.885531902313232,-0.87,-3.66,-0.12,3.76
25.8942551612854,-1.62,-3.05,-0.71,3.52
25.90361499786377,-1.74,-2.07,-1.73,3.21
25.981299877166748,-2.04,-0.81,-2.36,3.22
25.981739044189453,-2.3,1.02,-3.76,4.52
25.982161045074463,-3.38,2.91,-6.17,7.61
25.982588052749634,-5.24,3.97,-6.84,9.48
25.98389506340027,-7.07,4.39,-6.38,10.48
25.984798908233643,-9.05,4.81,-7.47,12.68
25.985220909118652,-9.84,5.09,-9.4,14.52
25.98618221282959,-9.66,5.16,-11.16,15.63
25.994024991989136,-9.8,3.98,-12.88,16.66
26.00341010093689,-9.3,0.86,-13.05,16.04
26.083895206451416,-7.55,-3.33,-10.27,13.17
26.08453893661499,-6.92,-6.22,-7.32,11.83
26.084963083267212,-9.72,-4.69,-6.99,12.85
26.085386037826538,-10.26,-2.16,-6.69,12.43
26.08639907836914,-6.88,-4.56,-7.59,11.21
26.087314128875732,-5.25,-0.21,-3.52,6.32
26.08773899078369,3.43,8.01,12.34,15.1
26.08919906616211,12.02,9.23,18.23,23.7
26.09380292892456,7.65,6.69,-0.88,10.2
26.103402137756348,0.45,5.29,-6.61,8.47
26.1825909614563,-4.17,7.06,-6.31,10.34
26.18340015411377,-6.12,5.59,-5.67,10.04
26.183852195739746,-4.94,2.24,-8.13,9.77
26.18427610397339,-7.38,0.73,-6.59,9.92
26.185211181640625,-8.95,-1.99,-6.65,11.32
26.18612003326416,-6.94,-2.42,-7.53,10.52
26.186541080474854,-5.97,-1.62,-5.05,7.98
26.187499046325684,-5.71,-0.46,-3.18,6.55
26.193809032440186,-4.09,0.5,-2.97,5.07
26.203225135803223,-1.74,0.47,-2.52,3.09
26.282286167144775,-0.81,0.72,-1.07,1.52
26.28304100036621,-0.65,0.83,-0.65,1.23
26.283468008041382,-0.41,0.53,-0.45,0.8
26.28389000892639,-0.07,0.15,-0.55,0.57
26.284820079803467,0.05,-0.17,-0.48,0.51
26.28577995300293,-0.1,-0.38,-0.56,0.68
26.28626012802124,-0.28,-0.31,-0.69,0.8
26.287309169769287,-0.42,-0.16,-0.7,0.83
26.29356598854065,-0.4,-0.05,-0.83,0.92
26.303036212921143,-0.17,0.06,-0.97,0.98
26.38265109062195,0.09,0.11,-1.0,1.01
26.383413076400757,0.35,0.08,-0.85,0.92
26.383864879608154,0.49,-0.01,-0.35,0.6
26.384294986724854,0.59,-0.13,0.34,0.69
26.385258197784424,0.69,-0.11,0.89,1.13
26.386149883270264,0.78,0.07,1.06,1.31
26.386570930480957,0.88,0.23,0.9,1.27
26.3875150680542,0.93,0.31,0.55,1.12
26.393517017364502,1.11,0.25,0.16,1.14
26.4029860496521,1.25,0.14,0.05,1.25
26.48189115524292,1.4,0.05,0.21,1.41
26.482372999191284,1.47,-0.02,0.79,1.66
26.483135223388672,1.52,-0.05,1.6,2.2
26.483572006225586,1.5,-0.09,1.84,2.37
26.484589099884033,1.14,-0.15,1.66,2.01
26.485515117645264,0.9,-0.19,1.38,1.65
26.485951900482178,0.86,-0.12,0.67,1.09
26.486935138702393,0.66,0.14,-0.03,0.67
26.493380069732666,0.42,0.46,-0.37,0.72
26.502844095230103,0.12,0.59,-0.53,0.8
26.582709074020386,0.06,0.63,-0.14,0.64
26.583378076553345,0.48,0.49,0.66,0.95
26.583810091018677,1.02,0.44,1.52,1.88
26.584246158599854,1.47,0.39,2.53,2.95
26.58518409729004,1.53,0.6,3.12,3.52
26.58611822128296,1.88,1.26,2.39,3.29
26.586535930633545,2.12,1.97,1.38,3.2
26.587526082992554,1.56,2.88,1.86,3.76
26.593143939971924,1.47,2.56,2.29,3.73
26.602706909179688,2.26,2.77,2.55,4.39
26.68128490447998,2.58,3.01,2.99,4.96
26.681785106658936,2.93,3.67,3.31,5.74
26.682568073272705,3.34,5.19,3.33,7.01
26.68300199508667,4.67,6.63,3.47,8.82
26.68398404121399,5.36,7.04,4.48,9.91
26.684916973114014,4.81,7.65,5.07,10.36
26.68534517288208,4.08,8.25,6.03,11.0
26.686320066452026,3.91,9.02,7.54,12.38
26.693028926849365,4.49,9.81,8.56,13.77
26.702506065368652,4.86,9.55,7.42,13.03
26.78218412399292,4.95,8.02,5.72,11.02
26.782954216003418,5.33,6.63,1.6,8.65
26.783388137817383,5.54,7.05,-3.84,9.75
26.783820152282715,2.63,10.96,-7.13,13.33
26.784797191619873,-2.64,13.38,-2.39,13.84
26.785742044448853,-3.35,11.2,2.38,11.93
26.786173105239868,0.08,7.55,1.5,7.69
26.787177085876465,2.41,3.71,0.23,4.43
26.792913913726807,0.46,0.9,0.97,1.4
26.802297115325928,-3.32,-0.03,-3.16,4.58
26.88317108154297,-1.37,2.98,-5.19,6.13
26.883621215820312,3.67,4.43,-0.67,5.79
26.88404893875122,7.2,2.07,2.2,7.8
26.884473085403442,9.29,-0.29,3.95,10.09
26.8854341506958,9.18,-1.78,4.62,10.43
26.886378049850464,7.56,-2.26,4.09,8.88
26.886803150177002,5.7,-2.2,3.4,6.99
26.887798070907593,4.18,-2.02,3.04,5.54
26.892866134643555,3.37,-1.93,3.23,5.05
26.902225017547607,2.44,-2.0,3.63,4.8
26.983217000961304,1.52,-1.89,3.07,3.91
26.98366904258728,0.9,-1.72,1.88,2.7
26.98409605026245,0.95,-1.89,1.3,2.48
26.98452091217041,1.59,-1.97,1.31,2.85
26.985491037368774,2.52,-2.0,1.22,3.44
26.98638606071472,3.22,-2.04,1.22,4.0
26.986778020858765,3.09,-2.04,0.94,3.82
26.987738132476807,2.05,-1.87,0.27,2.78
26.992655038833618,0.39,-2.14,-0.54,2.24
27.00205707550049,-1.44,-2.47,-1.9,3.43
27.082699060440063,-2.25,-2.29,-4.1,5.2
27.083343982696533,-2.48,-2.17,-5.46,6.37
27.083770036697388,-3.46,-2.49,-4.56,6.24
27.08419418334961,-4.67,-2.71,-4.07,6.76
27.085203170776367,-5.3,-2.3,-4.33,7.22
27.08615207672119,-5.34,-1.52,-4.26,6.99
27.086577892303467,-6.09,-0.71,-5.14,8.0
27.087563037872314,-8.15,0.63,-7.2,10.89
27.09256887435913,-10.11,2.09,-8.65,13.46
27.101911067962646,-10.84,3.0,-9.02,14.41
27.182903051376343,-10.82,3.19,-9.56,14.78
27.183358192443848,-10.39,2.39,-10.26,14.79
27.183788061141968,-9.6,0.44,-9.83,13.74
27.184211015701294,-8.89,-1.57,-8.23,12.21
27.18519687652588,-7.93,-3.0,-6.94,10.95
27.186151027679443,-7.08,-4.28,-5.79,10.09
27.18657398223877,-8.02,-4.04,-6.03,10.81
27.18756914138794,-8.59,0.29,-6.63,10.85
27.192313194274902,-4.08,-1.58,-7.38,8.57
27.201695919036865,-0.96,4.04,1.87,4.55
27.28214120864868,7.9,8.14,16.27,19.83
27.282779216766357,10.58,7.37,14.44,19.35
27.28321099281311,1.91,4.23,0.73,4.69
27.283638954162598,-4.22,2.94,-5.86,7.79
27.284605026245117,-6.47,7.13,-8.66,12.94
27.285551071166992,-3.2,6.41,-13.71,15.46
27.285978078842163,-3.4,7.05,-0.14,7.82
27.28697109222412,-8.2,-3.05,5.96,10.58
27.29218292236328,-7.56,-6.42,-4.1,10.73
27.301609992980957,-6.39,-4.25,-6.94,10.34
27.3821702003479,-5.74,-2.25,-5.11,8.0
27.382809162139893,-4.55,0.0,-3.7,5.86
27.383241176605225,-2.79,1.42,-2.02,3.72
27.383665084838867,-0.18,1.56,-1.59,2.23
27.384614944458008,1.57,1.15,-1.45,2.42
27.38555407524109,1.17,0.68,-0.55,1.46
27.385982990264893,-0.22,0.4,-0.33,0.56
27.38697099685669,-0.74,0.21,-1.35,1.55
27.391998052597046,-0.82,0.09,-2.29,2.43
27.40162706375122,-0.9,0.15,-2.02,2.21
27.48266887664795,-0.84,0.17,-1.75,1.94
27.483120918273926,-0.88,0.06,-1.71,1.92
27.483551025390625,-1.05,-0.08,-1.38,1.73
27.483983039855957,-0.86,-0.11,-1.1,1.4
27.48496103286743,-0.37,-0.13,-0.79,0.88
27.485897064208984,-0.08,-0.14,-0.28,0.32
27.48632287979126,0.0,-0.15,0.26,0.3
27.487316131591797,0.1,-0.08,0.81,0.82
27.49191188812256,0.17,-0.06,0.96,0.97
27.50131106376648,0.32,-0.01,0.9,0.95
27.582898139953613,0.58,0.14,0.76,0.96
27.583341121673584,0.83,0.22,0.4,0.94
27.58376908302307,0.82,0.23,0.01,0.85
27.58419418334961,0.64,0.15,0.06,0.66
27.58516502380371,0.72,0.07,0.73,1.02
27.58608102798462,1.45,0.05,1.46,2.05
27.58650493621826,2.19,0.03,1.88,2.88
27.58747100830078,2.28,-0.01,2.09,3.09
27.591670989990234,1.91,-0.11,1.99,2.76
27.60108208656311,1.48,-0.14,1.57,2.16
27.68289303779602,1.14,0.0,0.98,1.5
27.683342933654785,1.1,0.34,0.49,1.25
27.683767080307007,1.03,0.61,0.27,1.22
27.68418002128601,0.79,0.71,0.27,1.09
27.68509006500244,0.65,0.75,0.27,1.02
27.68602204322815,0.66,0.56,0.51,1.0
27.68644404411316,0.63,0.45,1.32,1.53
27.687434196472168,0.81,0.78,1.58,1.93
27.69153594970703,1.19,1.46,1.53,2.42
27.7010600566864,0.77,1.73,1.96,2.72
27.782819986343384,0.82,2.05,2.23,3.13
27.783262014389038,1.84,2.31,2.14,3.64
27.783670902252197,2.58,2.61,2.14,4.24
27.78406000137329,3.11,3.01,2.14,4.82
27.78500199317932,3.49,3.6,2.39,5.55
27.785935878753662,3.36,4.92,2.56,6.48
27.78636121749878,4.0,7.03,2.61,8.49
27.787341117858887,4.87,7.93,3.83,10.06
27.791499137878418,4.2,8.25,5.08,10.55
27.800872087478638,3.04,9.05,6.53,11.56
27.88368511199951,3.33,10.47,8.09,13.64
27.884130001068115,5.27,11.22,8.66,15.12
27.884555101394653,5.84,10.37,7.23,13.92
27.88497805595398,5.72,8.34,5.18,11.36
27.88595700263977,6.31,6.84,1.17,9.37
27.886905193328857,5.93,7.38,-4.18,10.34
27.8873291015625,2.7,10.62,-6.47,12.72
27.888336181640625,-1.83,13.42,-2.37,13.74
27.891069889068604,-2.74,11.77,1.58,12.18
27.900710105895996,0.65,8.1,0.92,8.17
27.984751224517822,2.75,4.48,0.59,5.28
27.98518705368042,1.59,1.48,1.76,2.79
27.985610008239746,-1.11,-0.02,-2.37,2.61
27.98603105545044,0.1,3.03,-5.11,5.94
27.987025022506714,4.67,5.1,-0.84,6.96
27.987936973571777,8.37,3.1,2.15,9.18
27.988362073898315,10.02,0.66,4.47,10.99
27.989334106445312,9.88,-1.18,5.58,11.4
27.990997076034546,8.3,-2.34,4.42,9.69
28.00058603286743,5.88,-2.5,3.26,7.17
28.08564805984497,3.77,-2.23,2.65,5.11
28.086085081100464,2.76,-2.12,2.69,4.39
28.08651304244995,2.4,-2.32,3.45,4.8
28.086933135986328,1.79,-2.65,3.56,4.78
28.08790111541748,0.79,-2.75,2.5,3.79
28.088847160339355,-0.05,-2.35,1.17,2.62
28.089291095733643,-0.08,-1.99,0.69,2.1
28.09093189239502,0.82,-2.05,1.22,2.52
28.09191608428955,1.55,-2.28,1.8,3.29
28.100461959838867,1.17,-2.23,1.67,3.02
28.18545389175415,-0.2,-1.84,0.87,2.04
28.185890197753906,-2.28,-2.14,-0.21,3.13
28.186326026916504,-4.01,-2.11,-2.47,5.16
28.186748027801514,-4.02,-1.53,-5.72,7.15
28.187736988067627,-4.17,-1.64,-5.84,7.36
28.18869709968567,-4.04,-2.91,-3.04,5.83
28.18911910057068,-3.23,-3.51,-2.07,5.19
28.190831184387207,-3.15,-2.61,-3.43,5.33
28.191792011260986,-4.63,-1.68,-4.9,6.94
28.20017099380493,-6.48,-1.16,-5.88,8.82
28.28592014312744,-7.28,-0.5,-6.61,9.84
28.286365032196045,-8.26,0.54,-7.9,11.44
28.286784172058105,-9.29,1.09,-9.44,13.28
28.287204027175903,-9.31,0.65,-10.02,13.69
28.288148880004883,-8.27,-0.35,-9.95,12.94
28.289101123809814,-7.16,-0.98,-9.43,11.88
28.289570093154907,-6.8,-1.91,-8.27,10.87
28.29130506515503,-6.88,-3.08,-7.36,10.53
28.29227304458618,-7.03,-3.56,-6.88,10.46
28.300230026245117,-7.65,-2.5,-7.07,10.71
28.38534688949585,-5.83,1.29,-6.71,8.98
28.38577890396118,-2.31,-2.73,-5.37,6.45
28.386199951171875,-7.73,-1.91,-4.41,9.1
28.38662600517273,-2.2,7.49,5.4,9.49
28.38764715194702,9.93,9.89,22.77,26.73
28.38857102394104,8.05,9.84,2.66,12.98
28.38900899887085,-2.54,12.84,-10.29,16.64
28.390686988830566,-5.46,5.77,-7.0,10.58
28.391726970672607,-6.1,-2.02,-8.07,10.31
28.400012016296387,-8.78,-3.15,3.39,9.92
28.484776973724365,-9.55,-4.97,-1.96,10.94
28.485254049301147,-6.98,-3.53,-8.88,11.83
28.48572015762329,-5.51,-0.65,-6.47,8.52
28.486196041107178,-2.85,0.43,-3.98,4.91
28.48723602294922,1.08,1.03,-3.82,4.1
28.48825216293335,3.22,1.16,-3.33,4.77
28.488672018051147,2.5,0.83,-1.62,3.09
28.490407943725586,-0.38,0.53,-0.61,0.89
28.491404056549072,-2.57,0.26,-0.94,2.74
28.499845027923584,-2.77,0.28,-0.95,2.94
28.58513307571411,-2.18,0.15,-0.54,2.25
28.58556890487671,-1.84,-0.14,-0.8,2.01
28.58599305152893,-2.07,-0.3,-0.88,2.26
28.586419105529785,-1.73,-0.11,-0.85,1.93
28.587395191192627,-1.02,0.17,-0.91,1.37
28.588349103927612,0.12,0.3,-1.34,1.37
28.588773012161255,1.02,0.25,-1.68,1.98
28.59053611755371,1.06,-0.04,-1.19,1.59
28.59156107902527,0.48,-0.43,-0.13,0.65
28.599695205688477,-0.08,-0.47,0.75,0.88
28.683131217956543,-0.32,-0.08,0.9,0.95
28.68356990814209,-0.17,0.22,0.83,0.87
28.684007167816162,0.15,0.23,0.78,0.82
28.684432983398438,0.58,0.19,0.63,0.87
28.68536901473999,1.13,0.19,0.63,1.3
28.686260223388672,1.52,0.22,0.81,1.73
28.686688899993896,1.71,0.25,0.88,1.93
28.68766498565674,1.62,0.3,0.81,1.83
28.765615940093994,1.31,0.29,0.9,1.61
28.767629146575928,0.87,0.18,1.02,1.35
28.768054962158203,0.41,0.07,1.12,1.19
28.76848316192627,0.24,0.03,1.21,1.23
28.768929958343506,0.53,0.07,1.06,1.18
28.769695043563843,1.29,0.23,1.04,1.67
28.77065420150757,2.11,0.54,0.9,2.35
28.77155303955078,2.37,0.82,0.4,2.53
28.771967887878418,1.85,0.83,0.57,2.1
28.77997899055481,1.24,1.04,0.72,1.77
28.789985179901123,1.02,1.26,0.52,1.7
28.867642879486084,0.57,1.51,0.95,1.87
28.868086099624634,0.38,1.79,1.35,2.27
28.868558883666992,0.81,2.13,1.84,2.92
28.869336128234863,1.24,2.44,2.09,3.44
28.869779109954834,1.69,2.57,2.29,3.83
28.870771884918213,2.52,2.68,2.6,4.5
28.871710062026978,3.17,2.88,2.78,5.1
28.872157096862793,3.54,3.36,2.88,5.66
28.879866123199463,3.49,4.25,3.02,6.27
28.889875888824463,3.07,6.56,2.65,7.71
28.96845293045044,4.11,8.78,3.64,10.35
28.969210147857666,5.01,9.09,6.17,12.07
28.969635009765625,5.28,9.3,7.29,12.94
28.970096111297607,5.92,9.74,7.46,13.62
28.97053098678589,6.0,9.96,7.12,13.63
28.971549034118652,5.06,9.4,6.71,12.6
28.97249412536621,4.4,8.04,3.86,9.94
28.972929000854492,4.7,7.56,-1.64,9.05
28.97976803779602,3.55,9.34,-5.87,11.58
28.98979902267456,-0.29,12.18,-5.05,13.18
29.06753396987915,-2.82,12.2,-0.26,12.52
29.067979097366333,-2.14,8.68,1.21,9.02
29.06842303276062,1.2,5.1,-0.27,5.24
29.069189071655273,2.07,1.55,1.24,2.86
29.069613933563232,-0.52,-1.31,-0.02,1.4
29.070581912994385,-1.15,0.23,-5.22,5.35
29.071521997451782,2.66,4.09,-3.5,6.0
29.071943998336792,7.26,3.68,-0.14,8.14
29.079596042633057,9.98,1.4,2.33,10.34
29.089556217193604,10.69,-0.42,3.84,11.36
29.16756296157837,9.62,-1.61,3.89,10.5
29.16801404953003,7.41,-1.87,2.95,8.19
29.168806076049805,5.68,-1.53,2.4,6.35
29.169246196746826,4.46,-1.55,2.79,5.48
29.169682025909424,3.54,-1.94,3.36,5.25
29.170711040496826,2.8,-2.3,3.19,4.82
29.171669960021973,2.27,-2.71,2.43,4.28
29.172093868255615,1.95,-2.89,1.5,3.79
29.179396152496338,1.95,-2.45,1.44,3.44
29.189435958862305,2.22,-2.03,2.05,3.64
29.267704963684082,2.31,-1.41,2.2,3.48
29.26819610595703,1.5,-0.69,1.58,2.28
29.268980979919434,-0.28,-0.72,-0.38,0.86
29.26942205429077,-1.86,-0.61,-3.04,3.61
29.26986598968506,-3.09,-0.62,-3.99,5.08
29.27086591720581,-3.49,-1.39,-2.79,4.67
29.271804094314575,-3.09,-2.41,-1.53,4.2
29.27223300933838,-2.57,-2.4,-1.76,3.93
29.279314041137695,-2.28,-1.91,-2.55,3.91
29.289280891418457,-2.68,-1.48,-3.17,4.4
29.36870503425598,-3.76,-1.21,-3.3,5.14
29.369328022003174,-5.31,-0.82,-3.51,6.41
29.369750022888184,-6.65,-0.33,-3.73,7.63
29.370168209075928,-7.68,0.25,-4.35,8.82
29.370583057403564,-7.81,0.85,-5.23,9.43
29.37150812149048,-7.5,1.39,-6.03,9.72
29.372400999069214,-7.42,1.82,-6.78,10.21
29.372815132141113,-7.54,2.05,-7.04,10.51
29.379005908966064,-8.02,1.78,-7.13,10.87
29.389105081558228,-8.94,0.89,-7.86,11.93
29.46863102912903,-9.02,-1.4,-7.47,11.79
29.469272136688232,-7.97,-3.42,-5.59,10.31
29.46970796585083,-7.32,-3.84,-5.37,9.85
29.470139980316162,-7.87,-3.73,-6.16,10.66
29.47057008743286,-9.24,-0.43,-6.59,11.35
29.47153615951538,-5.62,-1.31,-7.55,9.5
29.472480058670044,-4.28,-2.69,-6.54,8.26
29.472918033599854,2.37,3.36,2.42,4.77
29.478995084762573,12.35,6.78,12.87,19.08
29.488941192626953,10.5,8.93,7.6,15.74
29.56914520263672,-3.85,11.77,-7.86,14.66
29.569830894470215,-9.91,6.74,-6.63,13.69
29.570298194885254,-7.74,0.06,-5.69,9.6
29.57076597213745,-8.25,-1.79,-5.89,10.29
29.571226119995117,-11.84,-0.37,-0.77,11.87
29.57224202156067,-11.63,-1.68,-2.84,12.08
29.573130130767822,-8.24,-1.22,-5.19,9.81
29.57355499267578,-5.71,-0.42,-4.44,7.24
29.57871103286743,-3.22,-0.1,-3.48,4.74
29.588723182678223,-0.88,0.39,-2.83,2.98
29.669620037078857,0.79,0.77,-2.7,2.91
29.670053005218506,0.97,0.73,-2.08,2.4
29.670473098754883,0.0,0.64,-1.59,1.71
29.670916080474854,-0.67,0.43,-1.66,1.84
29.67135000228882,-0.87,0.04,-1.42,1.66
29.672354221343994,-1.53,-0.27,-0.68,1.69
29.67330312728882,-2.19,-0.44,0.18,2.24
29.673742055892944,-1.94,-0.25,0.28,1.97
29.67864203453064,-1.12,0.04,0.04,1.12
29.688637018203735,-0.16,0.03,-0.39,0.42
29.76984214782715,0.65,-0.03,-0.52,0.83
29.770316123962402,1.12,-0.14,-0.16,1.14
29.7707839012146,1.27,-0.09,-0.04,1.27
29.7712459564209,1.12,0.05,-0.17,1.13
29.77171301841736,0.75,0.24,-0.39,0.87
29.772708892822266,0.44,0.28,-0.5,0.72
29.7736759185791,0.41,0.17,-0.14,0.46
29.774096965789795,0.75,0.06,0.12,0.76
29.77854609489441,1.34,0.11,0.1,1.34
29.788514137268066,1.95,0.27,0.73,2.09
29.867521047592163,2.33,0.27,1.7,2.89
29.868257999420166,2.26,0.01,2.43,3.31
29.86870002746582,2.23,-0.22,2.89,3.65
29.869127988815308,2.48,-0.36,2.5,3.53
29.869551181793213,2.57,-0.41,1.7,3.1
29.870524883270264,2.28,-0.33,1.04,2.52
29.87143087387085,1.71,-0.12,0.19,1.72
29.87185502052307,0.97,0.0,-0.19,0.98
29.878289222717285,0.39,0.04,0.03,0.39
29.888592004776,0.49,0.2,0.99,1.12
29.96856117248535,1.07,0.36,1.72,2.05
29.969253063201904,1.32,0.59,1.55,2.11
29.969715118408203,1.19,0.78,1.21,1.86
29.97018814086914,0.78,0.85,1.3,1.73
29.970603942871094,0.86,0.95,1.71,2.13
29.971580028533936,1.14,1.09,1.8,2.39
29.97254705429077,1.38,1.4,1.34,2.37
29.972966194152832,1.45,1.98,1.32,2.78
29.978214025497437,1.4,2.71,1.7,3.49
29.988137006759644,1.55,2.77,2.13,3.82
30.069357872009277,1.6,2.87,2.42,4.08
30.06982421875,1.78,2.86,3.06,4.55
30.070279121398926,2.19,2.94,3.55,5.1
30.070719003677368,2.52,3.55,3.93,5.86
30.07114005088806,2.65,5.4,3.68,7.05
30.072082042694092,3.81,7.81,3.49,9.36
30.073008060455322,4.84,8.39,4.91,10.85
30.073427200317383,4.2,8.44,6.2,11.28
30.078068017959595,4.02,8.97,7.95,12.64
30.088020086288452,3.77,8.95,9.15,13.34
30.170012950897217,2.84,7.95,9.55,12.74
30.170449018478394,2.26,6.52,7.72,10.35
30.170870065689087,3.52,5.53,1.69,6.76
30.171298027038574,5.66,7.23,-4.55,10.24
30.171728134155273,2.9,11.93,-6.8,14.03
30.17268991470337,-1.7,12.71,-2.31,13.02
30.17363214492798,-1.83,10.86,0.91,11.05
30.174055099487305,-0.31,7.92,1.22,8.01
30.178027153015137,2.09,3.54,1.16,4.27
30.187908172607422,1.48,0.69,1.26,2.06
