time,ax,ay,az,atotal
0.0032248497009277344,-0.03,-0.14,-0.06,0.15
0.004695892333984375,0.15,0.15,-0.07,0.22
0.006167888641357422,-0.05,-0.08,-0.1,0.13
0.010879039764404297,-0.38,0.12,0.16,0.42
0.020970821380615234,-0.22,0.1,0.2,0.31
0.030891895294189453,0.15,-0.14,0.2,0.28
0.04083681106567383,0.06,-0.06,0.09,0.12
0.05089902877807617,-0.07,0.02,0.01,0.07
0.06038379669189453,-0.06,0.0,0.01,0.06
0.07103681564331055,0.06,0.01,-0.03,0.06
0.08414292335510254,0.06,0.0,-0.07,0.09
0.10347390174865723,0.03,0.0,-0.04,0.05
0.10532689094543457,0.07,-0.04,-0.01,0.08
0.11038875579833984,0.04,-0.03,0.07,0.08
0.12138175964355469,-0.02,-0.01,0.16,0.16
0.130112886428833,-0.04,-0.03,0.13,0.13
0.14014792442321777,-0.03,-0.04,0.08,0.09
0.150054931640625,0.06,-0.02,0.18,0.19
0.16235589981079102,0.17,-0.07,0.25,0.31
0.17023372650146484,0.17,-0.09,0.15,0.24
0.18335485458374023,0.01,-0.01,0.04,0.04
0.20120882987976074,-0.11,0.02,0.03,0.11
0.2028670310974121,-0.08,0.04,0.03,0.09
0.20957183837890625,-0.03,0.04,-0.02,0.05
0.22168684005737305,-0.07,0.03,-0.05,0.09
0.22944283485412598,-0.06,0.01,-0.02,0.06
0.23909687995910645,0.0,-0.04,0.1,0.1
0.24971580505371094,0.03,-0.1,0.24,0.26
0.2619168758392334,0.07,-0.09,0.27,0.29
0.2712278366088867,0.06,-0.05,0.19,0.2
0.2818460464477539,-0.01,0.01,0.12,0.12
0.29955577850341797,-0.1,0.04,0.03,0.11
0.3011298179626465,-0.07,0.03,-0.08,0.11
0.3087577819824219,0.03,0.05,-0.14,0.15
0.32242298126220703,0.07,0.07,-0.08,0.12
0.32854390144348145,0.02,0.01,0.01,0.02
0.3384089469909668,-0.09,-0.01,0.04,0.09
0.34827685356140137,-0.17,0.02,0.06,0.18
0.36067986488342285,-0.17,0.02,0.02,0.17
0.3708357810974121,-0.12,0.0,0.03,0.12
0.38131284713745117,-0.03,0.04,-0.01,0.05
0.4022817611694336,-0.01,0.09,-0.06,0.1
0.40381789207458496,-0.05,0.07,-0.06,0.1
0.40778684616088867,-0.03,0.05,-0.07,0.09
0.42189884185791016,-0.03,0.04,-0.11,0.12
0.4276547431945801,-0.03,0.04,-0.1,0.11
0.43781375885009766,0.03,0.02,-0.09,0.09
0.44818687438964844,0.07,0.0,-0.12,0.13
0.46027183532714844,0.06,-0.02,-0.09,0.11
0.4701080322265625,0.01,0.02,-0.03,0.03
0.47987794876098633,0.01,0.03,-0.05,0.05
0.5070888996124268,0.0,0.04,-0.07,0.08
0.5086560249328613,0.0,0.05,0.02,0.05
0.5103130340576172,-0.01,-0.05,0.06,0.07
0.5226340293884277,0.02,-0.06,0.14,0.15
0.5270709991455078,0.08,-0.02,0.12,0.14
0.5367569923400879,0.03,-0.02,0.08,0.08
0.5469698905944824,-0.08,0.04,0.04,0.09
0.5573358535766602,-0.05,0.04,-0.03,0.07
0.5697917938232422,0.04,-0.01,-0.09,0.09
0.5794968605041504,0.08,0.04,-0.06,0.1
0.6141228675842285,0.03,0.03,-0.07,0.08
0.6156618595123291,-0.04,0.02,-0.08,0.09
0.6171789169311523,-0.06,0.04,-0.14,0.15
0.618811845779419,-0.04,0.04,-0.18,0.18
0.6262938976287842,-0.02,0.03,-0.14,0.14
0.636387825012207,-0.01,0.01,-0.04,0.04
0.6461048126220703,0.06,0.01,0.15,0.16
0.6562008857727051,0.09,-0.08,0.34,0.36
0.666144847869873,0.01,-0.12,0.44,0.45
0.6759958267211914,-0.03,-0.09,0.21,0.23
0.7015600204467773,-0.01,-0.02,0.12,0.12
0.7033157348632812,0.01,-0.02,0.17,0.17
0.7055199146270752,0.02,-0.04,0.17,0.17
0.7216918468475342,-0.05,-0.01,0.04,0.06
0.7256350517272949,-0.17,0.06,-0.06,0.19
0.7374839782714844,-0.2,0.06,-0.06,0.21
0.7454478740692139,-0.11,0.05,-0.09,0.15
0.7576937675476074,-0.03,0.07,-0.06,0.09
0.7681598663330078,-0.07,0.03,0.02,0.07
0.7756168842315674,-0.1,0.01,0.12,0.15
0.8063859939575195,-0.01,0.0,0.08,0.08
0.8081119060516357,0.06,-0.04,0.06,0.09
0.8095169067382812,0.08,-0.03,0.08,0.11
0.8221917152404785,0.09,-0.02,0.06,0.11
0.8247838020324707,0.02,0.0,0.02,0.02
0.8382768630981445,0.0,0.02,-0.02,0.02
0.8446249961853027,0.08,0.03,-0.08,0.11
0.8548169136047363,0.05,0.05,-0.08,0.1
0.8678989410400391,-0.05,0.01,-0.02,0.05
0.8770759105682373,-0.07,-0.01,0.06,0.09
0.8848168849945068,-0.01,-0.04,0.03,0.05
0.9071650505065918,0.04,-0.01,0.0,0.04
0.9087867736816406,-0.05,0.02,0.05,0.07
0.9137768745422363,-0.06,0.02,0.04,0.07
0.9243707656860352,-0.01,0.03,0.03,0.04
0.9340708255767822,-0.04,0.04,0.04,0.06
0.944011926651001,-0.01,-0.03,-0.01,0.03
0.9540090560913086,0.11,-0.01,-0.08,0.13
0.9671058654785156,0.11,0.02,-0.05,0.12
0.9739537239074707,0.01,0.03,0.0,0.03
0.9866347312927246,-0.07,0.09,-0.07,0.13
1.005600929260254,-0.13,0.12,-0.12,0.21
1.00715970993042,-0.13,0.08,-0.13,0.2
1.0133137702941895,0.0,0.01,-0.1,0.1
1.0232698917388916,0.08,-0.05,0.04,0.1
1.0333328247070312,0.12,-0.1,0.2,0.25
1.0432138442993164,0.09,-0.09,0.25,0.28
1.0537488460540771,-0.05,-0.04,0.2,0.21
1.066572904586792,-0.08,-0.05,0.21,0.23
1.0752098560333252,-0.03,-0.08,0.18,0.19
1.0866389274597168,0.02,-0.04,0.07,0.08
1.1071488857269287,-0.03,0.01,0.0,0.03
1.108703851699829,-0.1,0.03,-0.01,0.1
1.1122548580169678,-0.1,0.05,-0.01,0.11
1.122952938079834,-0.12,0.03,-0.04,0.13
1.1326327323913574,-0.13,-0.01,0.01,0.13
1.1423609256744385,0.06,-0.06,0.1,0.13
1.1525018215179443,0.18,-0.04,0.09,0.2
1.1629688739776611,-0.05,0.03,0.08,0.09
1.1747548580169678,-0.15,0.04,0.06,0.16
1.1850738525390625,-0.03,0.05,-0.01,0.05
1.2053608894348145,0.02,0.07,-0.09,0.11
1.2069597244262695,0.02,0.08,-0.12,0.14
1.2119128704071045,0.03,0.04,-0.08,0.09
1.2226588726043701,-0.02,0.0,0.02,0.02
1.2316949367523193,-0.02,-0.02,0.05,0.05
1.241631031036377,0.07,-0.01,-0.02,0.07
1.251755714416504,0.08,-0.03,0.05,0.09
1.2644069194793701,0.09,-0.05,0.14,0.17
1.274061918258667,0.07,-0.07,0.1,0.14
1.284329891204834,0.05,-0.02,0.12,0.13
1.3117437362670898,-0.02,-0.02,0.11,0.11
1.3132798671722412,-0.03,0.01,0.11,0.11
1.3147997856140137,0.01,-0.01,0.08,0.08
1.3210797309875488,0.0,-0.03,0.02,0.03
1.330798864364624,0.03,0.0,0.01,0.03
1.3410849571228027,0.02,0.02,-0.07,0.07
1.3509697914123535,-0.06,0.05,-0.07,0.1
1.3607177734375,-0.04,0.01,0.01,0.04
1.3732478618621826,0.05,-0.02,0.07,0.08
1.3840789794921875,0.03,0.02,0.01,0.03
1.4098339080810547,-0.06,0.06,0.05,0.09
1.4114279747009277,-0.08,0.07,0.02,0.1
1.4131999015808105,-0.04,0.03,-0.03,0.05
1.4202847480773926,-0.02,0.01,-0.02,0.03
1.4301557540893555,-0.08,0.0,0.01,0.08
1.4400887489318848,-0.08,0.02,0.04,0.09
1.4505438804626465,-0.06,-0.02,0.01,0.06
1.4599957466125488,-0.03,0.02,0.04,0.05
1.4725878238677979,0.01,0.02,0.05,0.05
1.4829349517822266,0.03,0.02,0.01,0.03
1.511103868484497,0.05,0.02,-0.03,0.06
1.5126047134399414,0.02,-0.03,0.02,0.04
1.5143437385559082,0.06,-0.05,0.1,0.12
1.5195088386535645,0.05,-0.06,0.13,0.15
1.5294978618621826,0.0,-0.04,0.14,0.14
1.539423942565918,-0.09,-0.01,0.11,0.14
1.549325942993164,-0.19,0.02,0.07,0.2
1.5594658851623535,-0.17,0.06,0.08,0.19
1.572110891342163,-0.09,0.05,0.01,0.1
1.5797219276428223,-0.01,0.02,-0.03,0.03
1.6100308895111084,0.09,-0.02,-0.01,0.09
1.6118769645690918,0.16,-0.03,-0.03,0.16
1.6134138107299805,0.13,-0.02,-0.03,0.13
1.621311902999878,0.07,0.0,0.01,0.07
1.6287837028503418,0.04,-0.01,0.01,0.04
1.6385760307312012,0.01,-0.01,0.02,0.02
1.6484379768371582,-0.08,-0.01,0.07,0.1
1.6585078239440918,-0.09,0.01,0.08,0.12
1.6718568801879883,0.03,0.02,0.06,0.06
1.6810979843139648,0.06,-0.01,0.07,0.09
1.6909480094909668,0.01,-0.03,0.05,0.05
1.709580898284912,0.09,-0.02,-0.01,0.09
1.7113568782806396,0.18,-0.04,-0.04,0.18
1.7180168628692627,0.13,-0.03,-0.01,0.13
1.7279009819030762,0.06,-0.02,0.04,0.07
1.737898826599121,0.02,-0.05,0.09,0.1
1.7477140426635742,-0.02,-0.04,0.09,0.1
1.757868766784668,-0.04,0.02,0.05,0.06
1.7704997062683105,-0.01,0.01,0.06,0.06
1.7803938388824463,0.01,0.05,0.07,0.08
1.790137767791748,0.09,0.05,0.0,0.1
1.8109469413757324,0.04,0.0,0.0,0.04
1.812668800354004,0.02,-0.06,0.06,0.08
1.8173069953918457,0.11,-0.08,0.09,0.16
1.8274128437042236,0.09,-0.06,0.16,0.19
1.837331771850586,0.04,-0.11,0.19,0.22
1.847172737121582,0.05,-0.21,0.08,0.23
1.8572759628295898,0.09,-0.17,-0.02,0.19
1.8670768737792969,0.13,-0.11,0.06,0.18
1.8794097900390625,0.11,-0.22,0.19,0.31
1.8891818523406982,0.09,-0.24,0.32,0.41
1.909165859222412,0.09,-0.12,0.38,0.4
1.9106988906860352,0.08,-0.12,0.44,0.46
1.9167568683624268,0.01,-0.05,0.53,0.53
1.9264440536499023,-0.01,-0.02,0.44,0.44
1.9366779327392578,0.02,-0.15,0.31,0.34
1.9464688301086426,0.09,-0.2,0.43,0.48
1.9565210342407227,0.2,-0.26,0.41,0.52
1.9667549133300781,0.23,-0.14,0.47,0.54
1.9789109230041504,0.14,-0.03,0.13,0.19
1.9864020347595215,0.05,0.12,-0.2,0.23
2.008111000061035,-0.11,0.1,-0.35,0.38
2.0100178718566895,-0.13,0.15,-0.27,0.33
2.0158257484436035,-0.06,0.13,-0.12,0.18
2.025909900665283,-0.02,0.02,-0.05,0.05
2.0359208583831787,0.03,-0.03,-0.1,0.1
2.0457968711853027,0.04,0.01,-0.03,0.05
2.05609393119812,0.01,0.03,0.25,0.25
2.06870698928833,0.06,-0.08,0.32,0.33
2.075974941253662,0.1,-0.07,0.19,0.22
2.0873968601226807,0.14,-0.07,0.13,0.2
2.113619804382324,0.14,-0.03,0.16,0.21
2.115156888961792,0.13,-0.07,0.08,0.16
2.1168947219848633,0.14,-0.09,0.04,0.17
2.125182867050171,0.1,0.01,0.04,0.1
2.138612747192383,0.1,0.02,-0.07,0.12
2.1449668407440186,0.17,-0.03,-0.1,0.19
2.155362844467163,0.12,0.01,0.03,0.12
2.1677498817443848,-0.01,0.01,0.09,0.09
2.1772608757019043,-0.14,0.05,0.12,0.19
2.184847831726074,-0.14,0.06,0.1,0.18
2.2180089950561523,-0.17,0.02,0.08,0.18
2.2194948196411133,-0.29,-0.01,0.07,0.29
2.2209529876708984,-0.38,0.01,0.17,0.41
2.2378687858581543,-0.35,-0.02,0.15,0.38
2.239377975463867,-0.33,-0.05,0.25,0.41
2.2555370330810547,-0.27,-0.02,0.4,0.48
2.257020950317383,-0.18,-0.07,0.27,0.33
2.2760448455810547,-0.24,-0.02,0.2,0.31
2.2822389602661133,-0.32,0.03,0.15,0.35
2.2856760025024414,-0.33,0.08,0.02,0.34
2.315788745880127,-0.37,0.04,-0.01,0.37
2.3175997734069824,-0.51,-0.05,0.22,0.55
2.319044828414917,-0.32,-0.09,0.24,0.41
2.339700937271118,0.09,-0.09,0.09,0.15
2.341080904006958,0.25,-0.02,0.07,0.26
2.355576992034912,0.27,0.0,-0.02,0.27
2.357036828994751,0.14,0.02,-0.07,0.15
2.3757567405700684,0.06,-0.01,-0.09,0.1
2.3804407119750977,0.11,0.01,-0.09,0.14
2.385045051574707,0.13,0.08,-0.08,0.17
2.4124019145965576,-0.03,0.08,-0.03,0.09
2.4140987396240234,-0.14,0.04,-0.03,0.14
2.415462017059326,-0.08,0.03,-0.05,0.09
2.422585964202881,-0.07,0.03,-0.03,0.08
2.439971923828125,-0.14,-0.01,-0.01,0.14
2.442556858062744,-0.15,0.0,-0.02,0.15
2.4555797576904297,-0.04,0.01,-0.07,0.08
2.462355852127075,0.08,-0.06,-0.16,0.18
2.474848747253418,0.18,0.01,-0.08,0.19
2.485224723815918,0.3,0.03,-0.1,0.31
2.492635726928711,0.3,0.02,-0.11,0.32
2.516871929168701,0.28,-0.03,-0.15,0.31
2.5186448097229004,0.23,-0.05,-0.08,0.24
2.521944999694824,0.07,0.02,0.09,0.11
2.539712905883789,-0.04,0.04,0.08,0.09
2.541779041290283,-0.01,0.07,-0.03,0.07
2.5555598735809326,0.1,0.03,-0.15,0.18
2.5617337226867676,0.08,0.01,-0.06,0.1
2.572756767272949,-0.11,0.05,0.12,0.17
2.5849037170410156,-0.24,0.05,0.16,0.29
2.5945639610290527,-0.19,0.06,0.09,0.21
2.6159448623657227,-0.22,0.03,0.04,0.22
2.6178998947143555,-0.31,-0.01,-0.03,0.31
2.6214218139648438,-0.17,0.04,-0.3,0.34
2.6397147178649902,0.01,0.12,-0.44,0.45
2.6411328315734863,-0.09,0.06,-0.25,0.27
2.655776023864746,-0.19,0.06,-0.03,0.2
2.6609349250793457,-0.2,0.09,-0.09,0.23
2.672799825668335,-0.13,0.13,-0.16,0.24
2.6842598915100098,0.04,0.15,-0.26,0.3
2.6932828426361084,0.04,0.08,-0.25,0.26
2.716427803039551,-0.18,0.01,-0.07,0.19
2.718259811401367,-0.29,0.04,0.04,0.29
2.7200489044189453,-0.28,0.01,0.15,0.31
2.7399330139160156,-0.21,-0.02,0.11,0.23
2.741405963897705,-0.07,0.07,-0.08,0.12
2.755270004272461,0.05,0.19,-0.23,0.3
2.760190963745117,-0.03,0.15,-0.3,0.33
2.7717719078063965,-0.21,0.12,-0.23,0.33
2.7808358669281006,-0.26,0.13,-0.22,0.36
2.7925777435302734,-0.16,0.14,-0.32,0.38
2.812911033630371,-0.1,0.1,-0.3,0.33
2.81477689743042,-0.13,0.07,-0.13,0.19
2.819546937942505,-0.19,0.07,0.04,0.2
2.829753875732422,-0.2,0.07,0.09,0.23
2.8396289348602295,-0.11,0.07,0.16,0.2
2.849670886993408,0.03,0.03,0.19,0.19
2.8593740463256836,0.13,-0.03,0.04,0.13
2.8696868419647217,0.05,0.01,-0.02,0.05
2.8831000328063965,-0.19,0.07,0.01,0.2
2.8919408321380615,-0.44,0.24,-0.1,0.51
2.9165408611297607,-0.45,0.36,-0.26,0.63
2.9184348583221436,-0.19,0.3,-0.35,0.49
2.919851779937744,0.06,0.13,-0.25,0.28
2.936403751373291,0.13,0.04,-0.07,0.15
2.9386887550354004,0.09,0.04,0.0,0.09
2.9528539180755615,0.06,0.0,-0.01,0.06
2.9587807655334473,0.12,-0.05,0.12,0.17
2.969028949737549,0.27,-0.01,0.26,0.37
2.9790868759155273,0.35,0.01,0.21,0.4
2.991297721862793,0.24,0.07,0.15,0.29
3.0221290588378906,0.04,0.1,0.13,0.16
3.0239689350128174,-0.01,0.12,0.09,0.15
3.025430917739868,0.02,0.1,0.06,0.11
3.0402188301086426,0.0,0.01,0.05,0.05
3.041667938232422,-0.03,-0.05,0.05,0.07
3.055624008178711,-0.03,-0.01,-0.02,0.03
3.057931900024414,-0.01,0.06,-0.07,0.09
3.0722899436950684,0.02,0.08,-0.08,0.11
3.0783658027648926,0.02,0.11,0.0,0.11
3.091670036315918,-0.03,0.14,0.03,0.14
3.116086006164551,-0.1,0.12,-0.11,0.19
3.117856979370117,-0.25,0.12,-0.22,0.35
3.1192078590393066,-0.39,0.21,-0.22,0.49
3.1275908946990967,-0.31,0.05,-0.38,0.49
3.137662887573242,0.02,-0.28,-0.58,0.64
3.147552013397217,0.45,-0.55,-0.72,1.01
3.1573429107666016,0.54,-0.5,-0.7,1.01
3.1672277450561523,0.44,-0.4,-0.82,1.01
3.179804801940918,0.34,-0.46,-1.05,1.19
3.186950922012329,0.36,-0.6,-0.87,1.11
3.218035936355591,0.16,-0.88,-0.31,0.94
3.2196407318115234,-0.28,-0.92,0.36,1.02
3.2211170196533203,0.29,-0.36,1.02,1.11
3.2401018142700195,0.66,0.07,1.07,1.25
3.241586923599243,-0.38,0.89,1.01,1.39
3.2559847831726074,-1.93,1.64,1.4,2.89
3.2574620246887207,-2.6,1.45,2.0,3.58
3.2769789695739746,-2.01,0.22,1.88,2.76
3.2804598808288574,-1.15,-0.22,1.47,1.87
3.2861099243164062,-0.62,0.85,0.6,1.21
3.2962329387664795,-0.66,1.85,-0.37,1.99
3.3263139724731445,-1.23,2.5,-0.79,2.89
3.3279967308044434,-2.34,3.31,-0.65,4.1
3.329685926437378,-3.33,3.94,-0.39,5.17
3.340329885482788,-4.08,4.2,-0.28,5.86
3.3458189964294434,-4.13,4.2,-0.07,5.89
3.3560967445373535,-3.57,3.81,-0.12,5.22
3.3657608032226562,-3.08,3.64,-0.13,4.77
3.3754918575286865,-3.14,3.73,-0.08,4.87
3.388882875442505,-3.32,3.82,-0.41,5.07
3.3959617614746094,-3.37,3.96,-0.79,5.25
3.421422004699707,-3.23,3.6,-1.02,4.94
3.423034906387329,-2.73,2.6,-1.02,3.9
3.425346851348877,-1.68,1.87,-0.41,2.54
3.4437649250030518,-0.82,-0.24,-0.43,0.95
3.44523286819458,-0.81,-2.72,-0.79,2.94
3.454819917678833,-1.82,-1.72,-0.16,2.5
3.465202808380127,-2.14,-0.29,1.14,2.44
3.4776740074157715,-2.63,-1.82,0.96,3.33
3.4878029823303223,-4.09,-2.59,0.98,4.93
3.495175838470459,-5.97,-2.83,1.56,6.78
3.5203559398651123,-6.99,-2.98,1.55,7.75
3.5221128463745117,-7.13,-3.02,1.44,7.87
3.524538993835449,-6.82,-2.89,1.55,7.56
3.5402328968048096,-6.4,-2.83,2.0,7.27
3.5443499088287354,-5.93,-3.01,2.29,7.03
3.5560317039489746,-5.31,-2.88,2.61,6.58
3.5645270347595215,-4.69,-2.57,2.54,5.92
3.5740699768066406,-4.06,-2.27,2.31,5.19
3.586859703063965,-3.5,-1.95,2.09,4.51
3.594444751739502,-3.06,-1.57,1.86,3.91
3.6222188472747803,-2.31,-1.48,1.61,3.18
3.624073028564453,-0.65,-1.87,1.32,2.37
3.6255340576171875,2.18,-2.21,1.28,3.35
3.6402578353881836,5.15,-2.4,0.27,5.68
3.6437907218933105,8.06,-2.3,-1.75,8.56
3.6534998416900635,10.5,-1.19,-3.32,11.07
3.663541793823242,11.8,0.23,-4.02,12.46
3.6733028888702393,12.79,0.47,-3.64,13.3
3.686234951019287,13.46,-1.07,-2.85,13.79
3.6955008506774902,12.24,-2.3,-1.29,12.52
3.7237768173217773,9.21,-1.93,-0.51,9.42
3.7256219387054443,6.92,-1.13,-0.9,7.06
3.727094888687134,4.97,-0.99,-1.29,5.22
3.7402288913726807,2.53,-1.55,-1.03,3.14
3.7428760528564453,-0.02,-2.14,-0.59,2.21
3.75368595123291,-2.07,-2.48,-0.03,3.23
3.7630598545074463,-2.9,-2.58,0.35,3.89
3.7724828720092773,-1.76,2.9,1.19,3.59
3.782583713531494,1.23,8.43,-0.49,8.53
3.7926559448242188,9.85,8.15,-7.37,14.75
3.8291358947753906,11.17,9.15,-5.45,15.43
3.8310179710388184,-0.84,11.68,4.24,12.45
3.832406997680664,-7.69,4.96,8.58,12.54
3.8363418579101562,-5.15,-5.89,4.59,9.07
3.8421199321746826,0.83,-8.17,1.9,8.42
3.8561298847198486,3.71,-1.32,0.28,3.94
3.8621468544006348,2.76,2.27,-2.03,4.1
3.872842788696289,0.63,1.73,-3.17,3.66
3.8819868564605713,-0.02,0.39,-2.03,2.06
3.8943378925323486,0.49,-0.41,-0.95,1.14
3.926344871520996,0.47,-0.49,-1.15,1.33
3.928210735321045,0.13,0.34,-0.66,0.75
3.9297070503234863,-0.62,1.14,0.52,1.39
3.9405689239501953,-0.76,0.87,0.99,1.52
3.9420289993286133,-0.01,0.28,0.89,0.93
3.9561500549316406,0.74,0.03,0.44,0.86
3.9612350463867188,0.98,0.02,-0.05,0.98
3.972554922103882,0.88,0.13,-0.45,0.99
3.9812798500061035,0.64,0.3,-0.69,0.98
3.993652820587158,0.38,0.29,-0.75,0.88
4.025559902191162,0.42,0.23,-0.47,0.67
4.027422904968262,0.63,0.01,-0.09,0.63
4.028863906860352,0.8,-0.07,0.29,0.85
4.039477825164795,0.64,-0.05,0.54,0.83
4.040918827056885,0.32,0.14,0.8,0.87
4.056324005126953,-0.02,0.41,0.59,0.71
4.060441970825195,-0.23,0.57,0.09,0.62
4.0730299949646,-0.16,0.5,-0.14,0.54
4.080595970153809,0.0,0.31,-0.18,0.35
4.090576887130737,0.07,0.21,-0.2,0.29
4.102920055389404,0.03,0.37,-0.22,0.43
4.129634857177734,0.11,0.4,-0.47,0.62
4.131310939788818,0.18,0.37,-0.39,0.56
4.132992744445801,0.04,0.41,-0.13,0.43
4.139586925506592,-0.28,0.78,0.13,0.83
4.156590938568115,-0.57,0.86,0.24,1.05
4.159718036651611,-0.82,0.86,0.72,1.38
4.172832012176514,-1.04,0.73,0.88,1.54
4.179772853851318,-1.29,0.55,0.71,1.57
4.189367771148682,-1.4,0.56,0.41,1.56
4.199251890182495,-1.37,0.67,0.03,1.52
4.226703882217407,-1.21,0.78,-0.28,1.46
4.228396892547607,-1.07,0.9,-0.44,1.46
4.229959964752197,-1.01,1.01,-0.52,1.52
4.240697860717773,-1.05,1.02,-0.45,1.53
4.249197006225586,-1.24,0.95,-0.37,1.6
4.259297847747803,-1.39,0.84,-0.31,1.65
4.269076824188232,-1.48,0.9,-0.15,1.73
4.279026031494141,-1.59,1.04,0.05,1.9
4.289228916168213,-1.83,1.12,0.22,2.15
4.302611827850342,-2.06,1.25,0.31,2.42
4.32539176940918,-2.15,1.48,0.25,2.62
4.327115058898926,-2.18,1.74,0.17,2.79
4.328519821166992,-2.27,1.93,-0.01,2.97
4.341054916381836,-2.51,2.15,-0.14,3.3
4.348444938659668,-2.9,2.48,-0.06,3.81
4.358391761779785,-3.35,2.85,0.11,4.39
4.368192911148071,-3.79,3.32,0.37,5.05
4.37820291519165,-4.3,4.05,0.74,5.95
4.388092041015625,-4.91,4.95,1.08,7.05
4.397984981536865,-5.74,6.3,1.3,8.62
4.42440390586853,-6.78,8.14,1.21,10.66
4.426050901412964,-7.83,9.79,0.66,12.55
4.427787780761719,-8.68,10.93,-0.07,13.95
4.4413158893585205,-9.28,12.09,-0.03,15.24
4.447675704956055,-9.3,13.65,0.35,16.52
4.457481861114502,-8.16,14.7,-0.91,16.83
4.468095779418945,-4.63,14.57,-4.07,15.82
4.477346897125244,0.85,15.36,-5.42,16.31
4.487143039703369,3.1,13.63,-3.84,14.49
4.497692823410034,0.59,9.86,-1.51,9.99
4.535872936248779,-3.59,5.53,-0.28,6.59
4.537608861923218,-4.78,0.33,-2.8,5.54
4.539066791534424,0.87,2.12,-2.48,3.37
4.5568647384643555,6.52,-1.23,0.77,6.67
4.558367729187012,2.29,-1.67,-2.1,3.52
4.5733208656311035,-4.43,0.63,-1.06,4.59
4.574801921844482,-8.24,0.18,0.44,8.25
4.5934858322143555,-10.81,-1.02,-0.88,10.89
4.597102880477905,-12.67,-2.06,-1.05,12.87
4.603241920471191,-13.79,-3.04,-0.59,14.13
4.627447843551636,-13.75,-4.08,0.34,14.34
4.629231929779053,-12.43,-4.24,2.42,13.35
4.63083291053772,-10.1,-4.06,3.31,11.37
4.639859914779663,-7.91,-3.74,2.49,9.09
4.646016836166382,-7.39,-2.72,1.96,8.11
4.656383991241455,-7.67,-2.18,1.79,8.17
4.666144847869873,-7.84,-2.06,1.32,8.21
4.675817966461182,-7.02,-2.08,0.5,7.33
4.686614990234375,-5.61,-1.86,-0.36,5.92
4.698782920837402,-4.36,-1.44,-1.06,4.71
4.729814052581787,-3.3,-1.02,-1.5,3.76
4.731521844863892,-2.37,-0.82,-1.83,3.1
4.73317289352417,-1.43,-0.84,-2.07,2.65
4.736093044281006,-0.56,-0.8,-2.39,2.58
4.756744861602783,0.26,-0.61,-2.39,2.48
4.758129835128784,0.95,-0.26,-1.9,2.14
4.773368835449219,1.43,0.42,-1.32,1.99
4.775002956390381,1.91,0.99,-1.49,2.61
4.788959980010986,2.7,1.53,-2.04,3.71
4.7947728633880615,3.55,2.81,-2.09,4.98
4.831222057342529,4.61,4.62,-1.38,6.67
4.832870960235596,6.05,6.07,-0.83,8.61
4.834589958190918,7.85,6.9,-0.6,10.46
4.836025714874268,9.8,7.42,-0.82,12.31
4.856798887252808,11.83,7.94,-1.39,14.31
4.8583009243011475,13.47,8.42,-1.86,15.99
4.873068809509277,14.27,8.34,-2.61,16.73
4.874557971954346,14.26,7.5,-3.33,16.45
4.888768911361694,14.08,5.61,-3.48,15.55
4.894136905670166,14.89,2.99,-3.77,15.64
4.905840873718262,16.59,0.16,-2.59,16.79
4.93320894241333,18.76,-1.77,-0.58,18.85
4.935022830963135,20.85,-2.54,1.87,21.08
4.936433792114258,20.71,-1.62,3.25,21.02
4.943728923797607,13.41,2.86,3.46,14.14
4.953633785247803,3.45,6.19,3.96,8.11
4.963740825653076,-4.43,2.3,0.96,5.08
4.9737229347229,-8.8,-0.07,-0.39,8.8
4.9834558963775635,-10.35,4.8,-1.28,11.48
4.993473052978516,-9.35,13.28,-0.28,16.24
5.0036940574646,-4.84,17.46,0.54,18.12
5.031146049499512,1.75,11.89,-2.6,12.29
5.032757759094238,7.07,2.07,-2.72,7.85
5.034387826919556,10.05,-2.33,-0.69,10.33
5.042911052703857,10.73,-2.8,2.99,11.48
5.056649923324585,9.73,-3.62,1.56,10.49
5.062798976898193,6.67,-1.86,-1.63,7.11
5.072831869125366,4.28,0.54,-2.62,5.04
5.082812786102295,3.0,1.12,-3.31,4.6
5.092792987823486,2.37,0.68,-2.36,3.41
5.103297710418701,1.88,-0.25,-0.28,1.91
5.132635831832886,1.2,-0.54,1.28,1.83
5.133935928344727,0.86,-0.52,1.87,2.12
5.135081768035889,0.77,-0.51,1.76,1.98
5.142104864120483,0.67,-0.3,1.43,1.6
5.152442932128906,0.68,-0.26,0.72,1.02
5.1622209548950195,0.69,-0.14,-0.02,0.7
5.1723549365997314,0.41,0.04,-0.42,0.58
5.182183742523193,0.18,0.06,-0.7,0.72
5.192065715789795,0.01,-0.13,-0.83,0.84
5.202521800994873,-0.32,-0.39,-1.12,1.22
5.23263692855835,-0.39,-0.45,-1.33,1.45
5.23378586769104,0.06,-0.01,-0.72,0.72
5.234979867935181,0.45,0.27,0.36,0.63
5.2414469718933105,0.38,0.15,1.02,1.09
5.251644849777222,0.04,0.1,0.91,0.91
5.261584758758545,-0.38,0.18,0.24,0.48
5.2715559005737305,-0.67,0.3,-0.44,0.85
5.281272888183594,-0.97,0.3,-0.99,1.41
5.291241884231567,-1.44,0.31,-1.14,1.86
5.301760911941528,-1.87,0.43,-0.8,2.07
5.337407827377319,-1.97,0.47,-0.42,2.06
5.33927583694458,-1.27,0.39,-0.1,1.33
5.34069299697876,-0.28,0.22,0.4,0.53
5.3574378490448,0.22,0.01,0.86,0.88
5.358885765075684,0.18,-0.22,0.89,0.93
5.37329888343811,-0.31,-0.1,0.68,0.75
5.374759912490845,-0.73,0.34,0.22,0.83
5.391311883926392,-0.64,0.66,-0.15,0.93
5.392797946929932,-0.37,0.74,-0.33,0.89
5.406594753265381,-0.4,0.7,-0.41,0.9
5.434618949890137,-0.86,0.66,-0.32,1.13
5.436513900756836,-1.39,0.78,-0.06,1.59
5.437963962554932,-1.76,0.88,-0.08,1.96
5.457360744476318,-2.15,1.07,-0.12,2.4
5.45890474319458,-2.24,1.54,-0.05,2.71
5.4734907150268555,-2.1,2.1,-0.32,2.98
5.47495698928833,-1.75,2.88,-0.12,3.37
5.4901957511901855,-1.83,3.9,0.28,4.31
5.491673946380615,-2.19,4.15,0.39,4.7
5.510304927825928,-2.76,4.05,0.61,4.93
5.535460948944092,-3.19,4.27,0.69,5.37
5.536763906478882,-3.4,4.43,0.39,5.59
5.537781715393066,-3.59,4.58,0.08,5.81
5.557592868804932,-4.23,4.9,-0.08,6.47
5.559099912643433,-5.12,5.8,0.17,7.73
5.573373794555664,-6.34,6.78,0.21,9.28
5.574887752532959,-7.54,7.81,0.23,10.85
5.59027886390686,-8.37,8.96,0.1,12.26
5.591718912124634,-9.08,10.28,-0.22,13.71
5.610476016998291,-9.62,11.28,-0.71,14.84
5.634795904159546,-10.23,11.36,-1.56,15.36
5.63654899597168,-11.28,12.79,-1.32,17.1
5.637570858001709,-11.47,15.37,-0.3,19.18
5.654188871383667,-7.86,16.72,-4.22,18.95
5.655664920806885,-1.53,15.78,-10.16,18.83
5.673830986022949,1.67,12.1,-8.78,15.04
5.6753129959106445,-1.02,8.63,-3.6,9.4
5.690244913101196,-5.94,3.57,-0.62,6.95
5.691771030426025,-5.47,-0.45,-1.09,5.59
5.70593786239624,1.6,0.31,0.3,1.65
5.708597898483276,6.16,-3.18,1.32,7.05
5.749139785766602,1.93,-3.06,-2.6,4.45
5.750339031219482,-4.32,-1.38,-1.55,4.79
5.751559734344482,-8.57,-1.53,0.28,8.71
5.753476858139038,-11.62,-2.34,-0.53,11.86
5.757441997528076,-13.4,-3.19,-0.38,13.77
5.76781702041626,-14.27,-4.19,-0.17,14.87
5.777782917022705,-13.72,-5.06,0.86,14.64
5.787713050842285,-11.31,-5.25,2.73,12.76
5.79730486869812,-7.68,-5.25,2.96,9.76
5.807552814483643,-5.61,-4.52,1.81,7.42
5.834551811218262,-5.41,-3.29,1.45,6.49
5.8357439041137695,-5.73,-2.98,1.71,6.68
5.836748838424683,-6.01,-3.13,1.59,6.96
5.857814788818359,-5.82,-2.89,0.95,6.56
5.8592848777771,-5.38,-2.47,0.05,5.92
5.873685836791992,-4.87,-2.23,-0.56,5.38
5.876778841018677,-4.18,-2.02,-0.99,4.74
5.89084792137146,-3.22,-1.9,-1.49,4.02
5.896734714508057,-2.1,-1.7,-1.76,3.22
5.906570911407471,-0.94,-1.33,-1.27,2.06
5.934636831283569,0.19,-0.6,-0.4,0.74
5.936063766479492,1.47,0.31,-0.68,1.64
5.937082767486572,3.02,0.96,-1.93,3.71
5.957721710205078,4.54,2.03,-3.1,5.86
5.959264755249023,5.8,4.11,-2.54,7.54
5.973913908004761,6.91,6.44,-1.05,9.5
5.97600793838501,8.46,7.17,-0.5,11.1
5.9905009269714355,10.32,6.93,-0.7,12.45
5.996076822280884,12.27,7.48,-0.94,14.4
6.0060319900512695,14.06,8.38,-1.68,16.45
6.035507917404175,15.53,8.53,-2.69,17.92
6.037516832351685,16.56,7.54,-3.08,18.45
6.038981914520264,17.0,5.44,-2.75,18.05
6.057580947875977,17.09,3.24,-1.84,17.49
6.059075832366943,16.91,1.16,-1.19,16.99
6.073891878128052,16.41,-0.88,-1.19,16.47
6.0752787590026855,15.96,-1.89,-0.83,16.09
6.090522766113281,15.89,-1.82,-0.17,15.99
6.095355987548828,15.61,-1.2,0.03,15.65
6.106023788452148,14.05,-0.1,0.01,14.05
6.143998861312866,8.41,4.58,1.94,9.77
6.145474910736084,1.88,4.42,1.39,5.0
6.146493911743164,-5.18,-1.71,-0.59,5.48
6.157372951507568,-10.49,1.25,0.47,10.57
6.1587347984313965,-12.15,9.68,1.22,15.58
6.173982858657837,-12.18,16.6,0.19,20.59
6.175533771514893,-10.25,14.97,-3.61,18.49
6.190724849700928,-3.32,9.06,-4.89,10.81
6.194356918334961,3.3,2.36,-3.2,5.16
6.204327821731567,8.13,-0.02,-0.18,8.13
6.239326000213623,11.37,-2.93,1.34,11.81
6.2408928871154785,11.88,-5.1,1.4,13.0
6.241893768310547,11.22,-4.75,-0.72,12.2
6.257918834686279,8.91,-2.15,-1.2,9.24
6.259400844573975,5.35,0.51,-1.31,5.53
6.273805856704712,2.21,1.0,-1.21,2.71
6.275264739990234,0.62,0.5,-0.81,1.13
6.2905168533325195,0.39,0.19,0.02,0.43
6.293597936630249,0.82,-0.01,0.8,1.14
6.305788993835449,1.04,-0.19,0.76,1.3
6.341249942779541,0.95,-0.05,0.67,1.16
6.342700958251953,0.66,0.08,0.58,0.88
6.343745708465576,0.32,0.05,0.42,0.53
6.357916831970215,-0.06,0.09,0.17,0.2
6.359372854232788,-0.48,0.15,-0.23,0.55
6.374789714813232,-1.02,-0.15,-0.77,1.28
6.3762359619140625,-1.34,-0.44,-1.54,2.08
6.390913009643555,-0.88,0.12,-1.91,2.1
6.392923831939697,-0.23,0.61,-1.43,1.57
6.406012058258057,0.1,0.45,-0.46,0.65
6.441457748413086,0.35,-0.01,0.26,0.43
6.442829847335815,0.5,-0.31,0.98,1.14
6.4438090324401855,0.26,-0.35,0.98,1.07
6.444789886474609,-0.31,-0.16,0.42,0.54
6.45238184928894,-1.04,0.37,0.04,1.1
6.462474822998047,-1.77,0.79,-0.59,2.02
6.472628831863403,-2.14,0.91,-0.54,2.38
6.482508897781372,-1.91,0.69,-0.17,2.03
6.492327928543091,-1.2,0.13,0.35,1.25
6.502332925796509,-0.59,-0.22,-0.06,0.63
6.512094974517822,-0.39,-0.15,-0.16,0.44
6.542453765869141,-0.76,0.23,0.41,0.89
6.54378080368042,-1.18,0.37,0.43,1.3
6.544781923294067,-1.28,0.51,0.07,1.37
6.5580408573150635,-1.04,0.7,-0.46,1.33
6.561730861663818,-0.74,0.75,-0.84,1.34
6.574182033538818,-0.6,0.64,-0.79,1.18
6.5817859172821045,-0.69,0.46,-0.6,1.02
6.591310977935791,-1.01,0.4,-0.26,1.11
6.601452827453613,-1.36,0.51,0.01,1.45
6.611364841461182,-1.58,0.6,0.08,1.69
6.642122745513916,-1.73,0.89,0.28,1.96
6.643342018127441,-1.81,1.33,0.09,2.24
6.6444008350372314,-1.66,1.82,-0.04,2.46
6.658009052276611,-1.64,2.24,-0.05,2.77
6.660923957824707,-2.0,3.0,0.32,3.61
6.674200057983398,-2.28,3.85,0.42,4.49
6.680908918380737,-2.34,3.92,0.3,4.57
6.690637826919556,-2.45,3.9,0.75,4.66
6.700713872909546,-2.84,3.73,0.57,4.72
6.71061897277832,-3.3,3.8,0.48,5.05
6.741491794586182,-3.83,4.36,0.66,5.84
6.742820739746094,-4.57,5.55,0.88,7.24
6.7438507080078125,-5.66,6.82,0.59,8.88
6.758162021636963,-6.85,8.09,0.42,10.6
6.760202884674072,-7.9,9.68,0.55,12.5
6.774014949798584,-8.86,11.28,0.34,14.34
6.780266761779785,-10.07,12.74,-0.58,16.24
6.79093599319458,-11.27,12.87,-1.86,17.2
6.800658702850342,-12.5,12.12,-3.2,17.7
6.810922861099243,-13.03,13.68,-2.86,19.1
6.840664863586426,-10.34,16.12,-3.75,19.51
6.841999053955078,-4.54,15.53,-8.47,18.26
6.8432087898254395,-0.22,12.31,-7.71,14.52
6.858005046844482,1.07,8.36,-3.5,9.12
6.859386920928955,-1.49,3.16,-0.68,3.55
6.874212741851807,-3.57,-1.72,-0.67,4.01
6.8793487548828125,0.33,-0.85,-0.22,0.93
6.89100980758667,5.49,-2.99,1.25,6.37
6.899364948272705,3.58,-3.67,-2.07,5.52
6.908906936645508,-2.97,-1.17,-3.17,4.49
6.942290782928467,-7.83,-0.42,-0.36,7.84
6.943319797515869,-11.06,-1.6,-0.49,11.18
6.9441070556640625,-13.07,-2.85,-0.45,13.38
6.948312759399414,-14.17,-3.98,-0.11,14.71
6.958868980407715,-14.52,-5.26,0.54,15.45
6.968794822692871,-13.48,-5.7,2.44,14.83
6.979248046875,-9.98,-5.46,3.44,11.88
6.98864483833313,-6.67,-4.99,2.67,8.74
6.998672962188721,-5.61,-3.95,1.66,7.05
7.00839900970459,-5.84,-3.41,1.36,6.89
7.048141002655029,-6.34,-3.45,1.24,7.32
7.049378871917725,-6.26,-3.51,0.72,7.21
7.050386905670166,-5.86,-3.32,-0.03,6.73
7.053854942321777,-5.32,-2.94,-0.66,6.11
7.0577099323272705,-4.38,-2.72,-1.15,5.28
7.074379920959473,-3.18,-2.51,-1.53,4.33
7.077789783477783,-2.06,-2.37,-1.93,3.68
7.090868949890137,-1.26,-2.16,-2.21,3.33
7.097792863845825,-0.69,-1.59,-1.77,2.47
7.10739278793335,-0.31,-0.44,-0.75,0.92
7.145106792449951,0.63,0.91,-0.88,1.41
7.146432876586914,2.6,1.81,-2.24,3.87
7.147439956665039,5.11,2.96,-3.45,6.83
7.158144950866699,7.17,5.28,-3.16,9.44
7.15921688079834,8.34,8.12,-1.88,11.79
7.174386024475098,9.47,9.63,-0.9,13.53
7.17719292640686,11.07,9.48,-0.59,14.58
7.191057920455933,12.4,8.97,-1.16,15.34
7.196885824203491,13.07,9.28,-2.21,16.18
7.206868886947632,13.61,9.55,-2.63,16.83
7.245573997497559,14.27,8.71,-3.18,17.01
7.247029781341553,15.01,6.62,-3.38,16.74
7.248064994812012,15.89,3.91,-2.82,16.6
7.257688999176025,16.59,1.39,-1.67,16.73
7.258738994598389,16.93,-0.49,0.49,16.94
7.274397850036621,17.21,-1.32,2.69,17.46
7.2761619091033936,17.43,-1.0,3.61,17.82
7.291062831878662,15.42,1.28,2.66,15.7
7.296046733856201,8.98,6.61,2.61,11.45
7.306336879730225,2.93,5.08,0.07,5.86
7.316046714782715,-4.63,-2.44,-0.31,5.24
7.350054740905762,-11.88,0.89,2.13,12.1
7.351240873336792,-13.37,10.75,2.35,17.31
7.352609872817993,-10.85,16.56,3.96,20.19
7.355395793914795,-7.12,13.28,-0.34,15.07
7.36548376083374,-0.17,4.08,-4.75,6.26
7.375547885894775,7.21,1.04,-4.43,8.52
7.385556936264038,11.71,-0.25,-2.05,11.89
7.395686864852905,12.76,-2.14,0.63,12.95
7.405488967895508,12.05,-4.36,1.28,12.87
7.415252923965454,9.39,-5.18,-0.52,10.73
7.448482990264893,6.05,-2.69,-1.34,6.75
7.4498279094696045,3.19,0.14,-1.31,3.45
7.450835704803467,1.29,1.16,-1.13,2.07
7.454422950744629,0.31,0.99,-0.4,1.11
7.474639892578125,0.09,0.37,0.9,0.97
7.476136922836304,0.17,-0.32,1.67,1.7
7.491231918334961,0.52,-0.89,1.64,1.93
7.494657039642334,0.79,-0.77,1.42,1.79
7.506488800048828,0.68,-0.4,1.12,1.36
7.514561891555786,0.35,0.13,0.43,0.56
7.551461935043335,0.08,0.35,-0.67,0.76
7.5526227951049805,-0.08,0.32,-1.55,1.58
7.5536370277404785,-0.01,0.24,-2.11,2.12
7.574902057647705,0.1,0.1,-2.08,2.08
7.575970888137817,-0.02,0.04,-1.45,1.45
7.591444969177246,-0.35,0.15,-0.65,0.75
7.592988014221191,-0.62,0.23,0.42,0.78
7.607924938201904,-0.84,0.19,1.09,1.38
7.609378814697266,-1.07,0.06,1.11,1.54
7.622854709625244,-1.21,0.13,0.51,1.31
7.653517723083496,-1.13,0.34,-0.87,1.46
7.654871940612793,-0.92,0.67,-1.49,1.87
7.655871868133545,-0.7,0.74,-1.21,1.58
7.674599885940552,-0.73,0.5,-0.55,1.04
7.675662040710449,-1.09,0.37,0.28,1.18
7.691303730010986,-1.49,0.28,0.7,1.66
7.692723751068115,-1.49,0.22,0.69,1.65
7.707888841629028,-1.0,0.17,0.35,1.07
7.709345817565918,-0.44,0.15,-0.17,0.49
7.723129749298096,-0.09,0.26,-0.48,0.55
7.753616809844971,-0.04,0.36,-0.67,0.76
7.754950046539307,-0.31,0.28,-0.82,0.92
7.755972862243652,-0.94,0.3,-0.7,1.2
7.774565935134888,-1.75,0.57,-0.45,1.89
7.775623798370361,-2.34,0.89,-0.39,2.53
7.791241884231567,-2.6,1.29,-0.12,2.9
7.792734861373901,-2.51,1.59,0.05,2.97
7.807659864425659,-2.11,1.7,0.01,2.7
7.809092998504639,-1.76,1.77,-0.27,2.51
7.822108745574951,-1.74,2.28,-0.5,2.91
7.851388931274414,-2.32,3.57,-0.33,4.27
7.852695941925049,-2.78,4.76,0.49,5.53
7.85370397567749,-3.63,4.77,0.75,6.04
7.874795913696289,-3.98,5.38,1.74,6.91
7.875865936279297,-4.26,5.68,1.25,7.2
7.891563892364502,-4.75,6.01,0.77,7.69
7.8930559158325195,-5.45,6.84,0.47,8.75
7.908138751983643,-6.21,8.02,0.24,10.14
7.909613847732544,-6.95,9.52,0.04,11.78
7.923501014709473,-7.91,10.98,-0.65,13.54
7.952740907669067,-9.49,12.57,-1.94,15.86
7.954088926315308,-11.06,13.45,-3.32,17.72
7.955205917358398,-12.09,12.94,-5.06,18.41
7.971563816070557,-12.66,12.37,-5.97,18.67
7.972651958465576,-12.31,14.24,-4.04,19.25
7.98803186416626,-8.89,17.24,-3.42,19.69
7.989101886749268,-3.34,15.54,-7.44,17.54
8.008080005645752,1.47,11.39,-7.76,13.86
8.009586811065674,2.07,7.29,-4.16,8.64
8.023585796356201,-1.71,1.01,-2.44,3.14
8.054077863693237,-0.75,1.11,0.4,1.39
8.055370807647705,4.49,-1.45,4.32,6.39
8.056404829025269,4.25,-5.58,1.58,7.18
8.074779033660889,-1.62,-2.88,-1.92,3.82
8.075851917266846,-6.79,-1.14,1.26,6.99
8.090995788574219,-10.16,-1.61,1.36,10.37
8.092055797576904,-12.33,-2.96,0.89,12.71
8.108307838439941,-13.12,-4.33,1.61,13.9
8.10976791381836,-12.24,-5.37,2.27,13.55
8.123539924621582,-9.28,-5.34,3.29,11.2
8.125033855438232,-6.5,-5.1,2.94,8.76
8.171710014343262,-5.49,-4.83,2.25,7.65
8.172902822494507,-5.41,-4.85,2.39,7.64
8.17391586303711,-5.69,-5.17,2.63,8.12
8.192011833190918,-5.76,-5.35,2.67,8.3
8.193051815032959,-5.4,-5.25,2.15,7.83
8.208046913146973,-4.84,-4.88,1.49,7.03
8.209528923034668,-4.21,-4.61,1.13,6.34
8.224641799926758,-3.64,-4.63,0.8,5.94
8.226119041442871,-3.14,-4.59,0.62,5.59
8.240294933319092,-2.73,-4.4,0.58,5.21
8.27125597000122,-2.29,-4.24,0.72,4.87
8.272566795349121,-1.84,-3.78,1.11,4.34
8.273576736450195,-1.18,-3.01,1.67,3.63
8.291362762451172,-0.09,-2.24,1.52,2.7
8.29239273071289,1.33,-1.54,0.67,2.14
8.307765007019043,2.82,-0.68,-0.15,2.9
8.308796882629395,4.27,0.65,0.0,4.31
8.32446002960205,5.87,2.27,0.72,6.33
8.325901985168457,7.58,3.57,1.28,8.47
8.341378927230835,9.0,4.29,1.23,10.04
8.372220039367676,9.87,5.07,0.62,11.11
8.373520851135254,10.58,6.08,-0.41,12.2
8.374526023864746,11.67,6.93,-1.56,13.66
8.391794919967651,13.1,7.51,-2.84,15.36
8.39282488822937,14.7,7.52,-3.76,16.93
8.407938003540039,16.09,6.69,-3.9,17.85
8.409010887145996,17.53,4.59,-3.79,18.51
8.424747943878174,18.65,1.81,-3.25,19.01
8.426249980926514,19.32,-0.19,-2.08,19.43
8.440474033355713,19.49,-1.24,-0.34,19.53
8.47267484664917,17.93,-0.51,0.81,17.95
8.473996877670288,12.39,3.53,0.6,12.89
8.475000858306885,4.55,1.28,-0.78,4.79
8.491915702819824,-5.6,-0.18,1.09,5.7
8.49295687675476,-12.82,6.74,2.78,14.74
8.508128881454468,-14.3,17.52,-0.29,22.61
8.50921082496643,-14.1,21.54,-2.54,25.86
8.524724006652832,-10.3,13.2,-8.28,18.67
8.526221752166748,-1.0,5.14,-8.55,10.02
8.540271759033203,6.42,0.11,-2.69,6.96
8.571252822875977,9.55,-6.04,2.11,11.49
8.572372913360596,11.17,-9.6,1.61,14.81
8.573185920715332,11.79,-9.26,0.72,15.0
8.591691970825195,10.66,-4.27,1.06,11.53
8.592761993408203,6.51,0.75,0.17,6.55
8.60780382156372,2.01,2.28,-0.79,3.14
8.6088547706604,-0.5,1.98,-1.05,2.29
8.624944925308228,-1.48,1.36,-0.87,2.19
8.626417875289917,-0.57,0.75,0.39,1.01
8.640635013580322,1.12,-0.3,0.79,1.4
8.671849727630615,1.42,-1.01,0.62,1.84
8.673210859298706,0.65,-0.97,0.59,1.3
8.674221992492676,0.07,-0.4,0.4,0.57
8.691794872283936,0.24,-0.03,-0.39,0.45
8.692868709564209,0.74,0.12,-0.9,1.17
8.70794677734375,0.83,0.13,-0.76,1.13
8.708982944488525,0.58,-0.02,-0.41,0.71
8.724979877471924,0.36,-0.11,0.05,0.37
8.726469993591309,0.1,-0.04,0.54,0.55
8.740540981292725,-0.32,0.02,0.76,0.82
8.771238803863525,-0.73,0.08,0.39,0.83
8.772557735443115,-1.01,0.36,-0.16,1.08
8.773561954498291,-1.07,0.6,-0.46,1.31
8.791592836380005,-0.93,0.57,-0.53,1.21
8.792686939239502,-0.72,0.35,-0.55,0.97
8.80795693397522,-0.59,0.14,-0.76,0.97
8.80887484550476,-0.5,0.13,-0.84,0.98
8.824627876281738,-0.57,0.25,-0.65,0.89
8.825642824172974,-0.65,0.3,-0.22,0.74
8.840604782104492,-0.56,0.33,0.29,0.71
8.87062382698059,-0.37,0.33,0.35,0.6
8.871988773345947,-0.33,0.29,0.05,0.44
8.873015880584717,-0.54,0.32,-0.15,0.64
8.891834735870361,-0.9,0.43,-0.28,1.03
8.892914772033691,-1.11,0.59,-0.35,1.3
8.90788984298706,-1.11,0.69,-0.47,1.38
8.908864974975586,-1.12,0.8,-0.68,1.53
8.924283981323242,-1.33,0.78,-0.88,1.77
8.925313949584961,-1.58,0.91,-0.48,1.88
8.940688848495483,-1.73,1.2,-0.03,2.1
8.942169904708862,-1.79,1.36,-0.08,2.24
8.98601484298706,-2.04,1.49,-0.42,2.56
8.987205028533936,-2.36,2.11,-0.31,3.18
8.988210916519165,-2.94,3.38,0.01,4.47
9.009186744689941,-3.17,4.19,0.57,5.28
9.010196924209595,-3.52,4.16,0.45,5.46
9.024260997772217,-3.84,4.69,0.8,6.11
9.025304794311523,-4.09,5.52,0.26,6.87
9.042227745056152,-4.49,6.14,-0.37,7.61
9.043702840805054,-5.1,6.96,-0.41,8.63
9.056651830673218,-5.91,7.94,-0.24,9.9
9.085426807403564,-6.67,9.43,0.14,11.55
9.086644887924194,-7.3,11.27,-0.16,13.42
9.08745789527893,-7.87,12.51,-1.22,14.82
9.108837842941284,-9.36,13.02,-2.78,16.27
9.10988473892212,-10.93,12.6,-4.69,17.32
9.122861862182617,-11.61,11.28,-6.16,17.31
9.124013900756836,-11.93,11.28,-6.22,17.55
9.141993999481201,-10.71,14.51,-4.01,18.47
9.143426895141602,-6.41,17.0,-4.8,18.79
9.157220840454102,-0.91,12.76,-10.09,16.29
9.1876540184021,2.5,9.04,-8.71,12.79
9.188976764678955,-0.22,3.51,-5.04,6.14
9.190001964569092,-2.93,0.21,-1.33,3.22
9.208781719207764,1.4,-0.15,3.51,3.78
9.209820747375488,3.89,-6.07,3.28,7.92
9.224775791168213,-0.78,-5.21,-2.41,5.79
9.225835800170898,-5.65,-1.97,-0.34,5.99
9.241675853729248,-8.97,-1.21,0.11,9.05
9.242687940597534,-11.41,-1.87,-0.81,11.59
9.257345914840698,-12.5,-2.72,-0.3,12.79
9.28581690788269,-12.11,-3.4,0.91,12.61
9.28702688217163,-10.1,-3.85,2.27,11.04
9.287808895111084,-7.34,-4.57,2.27,8.93
9.308767795562744,-5.75,-4.74,1.76,7.65
9.309804916381836,-5.53,-4.49,1.64,7.3
9.325772762298584,-5.87,-4.66,1.77,7.7
9.326791763305664,-6.06,-4.95,1.76,8.02
9.342004776000977,-5.84,-5.0,1.38,7.81
9.343365907669067,-5.16,-4.84,0.77,7.11
9.3574378490448,-4.58,-4.63,0.47,6.52
9.387059926986694,-4.03,-4.53,0.33,6.07
9.388428926467896,-3.27,-4.57,0.04,5.61
9.389301776885986,-2.41,-4.84,-0.56,5.43
9.409111022949219,-1.64,-5.09,-0.99,5.43
9.410064935684204,-1.03,-4.85,-0.9,5.03
9.42481279373169,-0.48,-4.2,-0.22,4.23
9.425855875015259,0.25,-3.53,-0.21,3.54
9.441722869873047,1.53,-2.97,-0.71,3.41
9.442759990692139,3.12,-2.32,-1.24,4.08
9.45763874053955,4.7,-1.25,-1.21,5.01
9.487261772155762,6.42,0.5,-0.33,6.44
9.488484859466553,8.4,2.16,0.67,8.69
9.489300727844238,10.01,3.15,1.25,10.56
9.508757829666138,11.11,4.03,1.52,11.91
9.509791851043701,12.35,5.12,1.8,13.48
9.524977922439575,13.9,6.08,1.16,15.21
9.52600884437561,15.28,6.76,0.0,16.7
9.541638851165771,16.35,7.33,-0.77,17.93
9.542701721191406,17.24,7.11,-0.66,18.66
9.557365894317627,17.92,6.01,-0.24,18.9
9.586933851242065,18.14,4.48,0.22,18.68
9.588089942932129,17.62,2.49,1.26,17.83
9.588933944702148,16.38,0.21,2.22,16.53
9.609166860580444,15.48,-0.97,3.78,15.96
9.610211849212646,13.56,0.29,3.2,13.93
9.624878883361816,6.35,0.92,0.87,6.47
9.625967025756836,-3.11,-3.44,-0.6,4.67
9.641876935958862,-13.69,2.03,0.84,13.86
9.642974853515625,-18.22,20.57,-2.34,27.57
9.657643795013428,-18.53,31.13,-0.45,36.23
9.683736801147461,-16.51,20.13,-6.95,26.94
9.684929847717285,-4.25,7.01,-7.22,10.92
9.685770988464355,4.67,-2.42,-4.45,6.88
9.688227891921997,8.77,-8.15,1.63,12.08
9.689442873001099,11.0,-11.03,2.83,15.83
9.69059705734253,12.26,-11.2,2.83,16.84
9.691661834716797,12.31,-6.35,2.48,14.07
9.697540760040283,10.45,-0.2,1.85,10.61
9.707854747772217,5.79,1.8,-1.75,6.31
9.717766761779785,1.38,2.17,-2.46,3.55
9.727746963500977,-1.21,2.45,-1.43,3.08
9.755437850952148,-2.22,1.6,-0.14,2.74
9.756624937057495,-1.24,0.1,1.12,1.67
9.757436752319336,0.38,-0.89,1.34,1.65
9.773884773254395,1.11,-0.93,0.54,1.54
9.777115821838379,0.92,-0.27,-0.69,1.18
9.79184889793396,0.49,0.45,-1.25,1.41
9.797009944915771,0.18,0.58,-1.15,1.3
9.808583736419678,0.1,0.11,-0.89,0.9
9.817168712615967,0.14,-0.28,-0.5,0.58
9.82689094543457,0.19,-0.32,-0.01,0.37
9.857678890228271,0.15,-0.11,0.51,0.54
9.858901977539062,-0.08,0.03,0.51,0.51
9.859845876693726,-0.43,0.16,0.25,0.52
9.87635588645935,-0.66,0.35,0.1,0.75
9.877368927001953,-0.75,0.35,-0.26,0.86
9.891973972320557,-0.65,0.26,-0.55,0.89
9.896525859832764,-0.58,0.2,-0.9,1.08
9.908434867858887,-0.95,0.38,-0.54,1.15
9.916419982910156,-1.84,0.67,0.25,1.97
9.926216840744019,-2.57,0.77,0.47,2.72
9.955870866775513,-2.46,0.62,0.38,2.56
9.95704984664917,-1.81,0.61,0.44,1.96
9.957871913909912,-1.56,0.33,0.23,1.61
9.975935935974121,-1.69,0.13,0.03,1.69
9.977012872695923,-1.47,0.17,-0.42,1.53
9.991405963897705,-0.86,0.46,-0.67,1.18
9.995542049407959,-0.32,0.81,-0.74,1.14
10.008135795593262,-0.24,0.83,-0.67,1.09
10.015920877456665,-0.63,0.81,-0.41,1.1
10.025483846664429,-1.15,0.87,-0.13,1.44
10.057124853134155,-1.67,0.95,0.16,1.92
10.058373928070068,-2.12,1.18,0.45,2.46
10.059412956237793,-2.15,1.37,0.31,2.56
10.076206922531128,-1.89,1.78,0.19,2.6
10.077204704284668,-1.79,2.55,0.07,3.11
10.091883897781372,-1.78,3.37,0.0,3.81
10.094793796539307,-1.99,3.55,0.05,4.07
10.106551885604858,-2.52,3.96,0.35,4.7
10.114812850952148,-3.14,4.27,0.38,5.31
10.124705791473389,-3.86,4.59,0.41,6.01
10.161521911621094,-4.68,4.95,0.5,6.83
10.162900924682617,-5.33,5.23,0.74,7.5
10.163874864578247,-5.83,5.97,0.9,8.39
10.172657012939453,-6.32,6.96,0.63,9.42
10.174079895019531,-7.11,8.09,0.17,10.77
10.188608884811401,-8.56,9.54,-0.31,12.82
10.194107055664062,-10.11,10.69,-0.63,14.72
10.209321975708008,-11.46,11.46,-1.27,16.25
10.214202880859375,-12.85,12.12,-2.23,17.8
10.22429370880127,-13.31,13.91,-2.42,19.4
10.26108694076538,-11.07,15.59,-4.38,19.61
10.262552738189697,-5.0,15.02,-9.91,18.67
10.263556003570557,0.94,13.95,-10.01,17.19
10.276014804840088,3.11,11.29,-4.86,12.67
10.27709674835205,0.27,6.83,-1.59,7.01
10.291843891143799,-2.98,0.93,-1.08,3.3
10.293207883834839,0.47,0.59,-1.86,2.0
10.310161828994751,6.78,-0.62,-0.02,6.8
10.313416957855225,5.36,-2.92,-1.3,6.24
10.323301792144775,-2.06,-1.18,-3.73,4.42
10.361049890518188,-7.57,-0.35,-0.57,7.59
10.362392902374268,-10.76,-1.17,-0.52,10.83
10.363403797149658,-12.58,-2.52,-0.69,12.84
10.375982761383057,-13.58,-3.77,-0.53,14.1
10.37705373764038,-13.41,-4.64,0.25,14.19
10.392393827438354,-11.71,-4.74,2.49,12.87
10.39344072341919,-8.83,-5.03,3.45,10.73
10.4091477394104,-6.36,-5.05,2.93,8.63
10.412664890289307,-5.62,-4.31,2.19,7.41
10.424420833587646,-5.6,-3.88,1.92,7.07
10.461396932601929,-5.79,-4.07,1.55,7.24
10.462779998779297,-5.73,-4.1,0.96,7.11
10.463788986206055,-5.4,-3.89,0.12,6.65
10.475873947143555,-5.0,-3.58,-0.67,6.18
10.477012872695923,-4.48,-3.27,-1.15,5.66
10.492212772369385,-3.64,-3.26,-1.33,5.06
10.493208885192871,-2.7,-3.7,-1.58,4.84
10.501801013946533,-1.76,-4.19,-1.95,4.94
10.512117862701416,-0.78,-4.04,-1.58,4.4
10.522065877914429,0.17,-3.51,-0.82,3.6
10.531991004943848,1.26,-3.0,-0.88,3.37
10.564039707183838,2.62,-2.71,-1.77,4.16
10.56546401977539,3.94,-2.05,-2.49,5.09
10.56649398803711,4.94,-0.58,-2.18,5.43
10.57644271850586,6.22,1.68,-1.15,6.54
10.581095933914185,8.21,3.77,-0.64,9.05
10.5916268825531,10.36,5.08,-0.74,11.56
10.60123085975647,12.13,6.53,-1.37,13.84
10.611240863800049,13.62,8.22,-2.16,16.05
10.621304035186768,15.04,9.13,-3.46,17.93
10.631150722503662,16.79,8.91,-4.55,19.54
10.662837982177734,18.58,7.26,-5.49,20.68
10.664176940917969,20.07,5.5,-4.72,21.33
10.665190935134888,20.69,3.71,-3.31,21.27
10.67605972290039,19.85,1.62,-2.0,20.01
10.680380821228027,17.78,-0.08,-0.47,17.78
10.691648006439209,16.23,-0.97,1.05,16.29
10.700433731079102,15.77,-0.49,1.87,15.88
10.710108757019043,14.27,0.78,2.3,14.47
10.720370769500732,7.56,4.82,4.46,10.01
10.730353832244873,-0.86,6.53,5.12,8.34
10.762661933898926,-7.6,0.27,3.26,8.27
10.76400375366211,-14.58,-0.29,3.22,14.93
10.764888763427734,-20.3,11.32,-4.98,23.77
10.776488780975342,-18.09,24.18,4.74,30.56
10.779613971710205,-16.41,18.11,2.97,24.61
10.789494037628174,-6.41,5.98,-3.58,9.46
10.79953670501709,5.36,0.3,-2.73,6.02
10.809552907943726,8.93,-5.2,0.64,10.35
10.819772720336914,10.03,-8.85,-0.37,13.38
10.829483032226562,10.75,-8.78,-0.25,13.88
10.861276865005493,11.25,-5.47,1.17,12.56
10.862385749816895,10.77,-1.73,-0.34,10.91
10.863188743591309,7.55,0.46,-2.53,7.97
10.875831842422485,2.84,1.21,-2.51,3.97
10.878818035125732,-0.23,1.79,-0.52,1.87
10.892292022705078,-1.84,1.39,0.78,2.43
10.898704051971436,-1.7,0.04,1.44,2.22
10.908607006072998,-0.16,-0.39,1.88,1.92
10.918948888778687,0.81,-0.17,0.71,1.09
10.928699970245361,0.6,0.17,0.17,0.64
10.9668869972229,0.22,0.37,-0.11,0.44
10.968308925628662,0.12,0.38,-1.04,1.11
10.96928596496582,0.09,0.25,-2.12,2.13
10.972039937973022,-0.08,0.19,-1.96,1.97
10.99246883392334,-0.37,0.26,-0.57,0.72
10.99354076385498,-0.6,0.04,0.59,0.84
11.009067058563232,-0.44,-0.06,0.94,1.03
11.010118961334229,-0.15,0.29,0.69,0.76
11.024736881256104,-0.07,0.53,0.05,0.53
11.028079986572266,-0.13,0.49,-0.23,0.55
11.06784987449646,-0.21,0.31,-0.09,0.38
11.069005966186523,-0.43,0.1,0.07,0.44
11.070219993591309,-0.83,0.11,0.05,0.83
11.071943759918213,-1.16,0.37,-0.11,1.22
11.077635765075684,-1.2,0.7,-0.2,1.4
11.087543964385986,-0.71,0.85,0.02,1.1
11.097625732421875,-0.13,0.61,0.4,0.74
11.107429027557373,0.23,0.18,0.67,0.73
11.117263793945312,0.3,-0.25,0.67,0.77
11.127412796020508,-0.04,-0.19,0.59,0.62
11.163041830062866,-0.34,0.26,0.26,0.5
11.164005756378174,-0.61,0.66,-0.21,0.92
11.164824962615967,-0.88,0.94,-0.28,1.31
11.17535400390625,-1.3,0.95,-0.22,1.62
11.17642092704773,-1.62,0.81,-0.1,1.81
11.192434787750244,-1.88,0.8,0.03,2.04
11.19655704498291,-2.07,1.04,0.17,2.32
11.20915174484253,-2.08,1.43,0.06,2.52
11.216341972351074,-2.1,1.78,-0.15,2.75
11.226377964019775,-2.21,2.14,-0.35,3.09
11.26276183128357,-2.38,2.58,-0.4,3.53
11.264027833938599,-2.51,3.03,-0.42,3.95
11.265058040618896,-2.63,3.36,-0.39,4.28
11.276381969451904,-2.83,3.47,-0.39,4.49
11.277387857437134,-3.19,3.52,-0.09,4.75
11.293553829193115,-3.59,3.68,0.34,5.15
11.29569387435913,-4.05,3.91,0.53,5.65
11.309552907943726,-4.6,4.38,0.58,6.37
11.31588077545166,-5.34,5.43,0.78,7.65
11.32585096359253,-6.44,6.95,0.71,9.5
11.33574891090393,-7.74,8.48,0.37,11.48
11.367207050323486,-9.12,9.89,0.04,13.45
11.368401050567627,-10.44,11.21,-0.4,15.32
11.36962080001831,-11.78,12.09,-0.97,16.9
11.375319004058838,-12.57,13.83,-0.8,18.7
11.389695882797241,-11.37,15.3,-2.05,19.17
11.39493703842163,-6.2,14.43,-8.2,17.71
11.406333923339844,0.01,13.22,-10.88,17.12
11.414788722991943,2.64,11.95,-5.86,13.56
11.424973011016846,0.49,8.54,-2.61,8.94
11.435104846954346,-3.91,4.13,-0.29,5.69
11.465677738189697,-3.97,-0.6,-1.71,4.36
11.466866970062256,2.67,1.11,-2.96,4.13
11.468137741088867,7.92,-0.61,-0.19,7.94
11.47562289237976,4.62,-1.56,-1.97,5.25
11.484669923782349,-2.6,-0.47,-3.17,4.12
11.494085788726807,-7.91,-0.64,0.04,7.93
11.504364967346191,-11.18,-1.5,-0.11,11.28
11.514083862304688,-13.2,-2.53,-0.2,13.44
11.524343013763428,-14.3,-3.65,-0.39,14.76
11.534278869628906,-14.11,-4.55,0.35,14.82
11.566221714019775,-12.15,-4.71,1.85,13.16
11.567550897598267,-8.5,-4.9,2.87,10.22
11.568594932556152,-5.75,-4.92,2.2,7.88
11.573554992675781,-4.96,-4.29,1.53,6.73
11.592774868011475,-5.4,-3.79,1.4,6.74
11.593819856643677,-5.66,-4.06,1.26,7.07
11.609197854995728,-5.36,-4.13,0.6,6.79
11.613708019256592,-4.95,-3.88,-0.28,6.29
11.624983787536621,-4.47,-3.53,-1.03,5.78
11.63339900970459,-3.85,-3.21,-1.77,5.31
11.666417837142944,-3.06,-3.05,-1.98,4.75
11.66762399673462,-2.22,-3.23,-2.09,4.44
11.668970823287964,-1.21,-3.37,-2.08,4.14
11.672799825668335,-0.04,-3.0,-1.57,3.38
11.682991981506348,1.01,-2.33,-1.1,2.76
11.692715883255005,1.9,-1.65,-1.52,2.93
11.70285701751709,2.72,-1.2,-2.28,3.74
11.712517738342285,3.71,-0.29,-2.47,4.46
11.722647905349731,5.03,1.34,-1.82,5.51
11.732872009277344,6.69,3.15,-0.9,7.44
11.769779920578003,8.4,4.45,-0.44,9.51
11.771002769470215,9.85,5.08,-0.57,11.09
11.771996974945068,11.36,5.82,-0.97,12.8
11.79388689994812,13.24,6.68,-1.96,14.95
11.794952869415283,15.14,6.89,-3.14,16.92
11.806821823120117,16.57,6.34,-4.15,18.22
11.807822704315186,17.63,5.41,-4.06,18.88
11.826502799987793,18.52,3.94,-3.24,19.2
11.827970027923584,18.97,1.98,-2.52,19.23
11.842445850372314,18.55,-0.05,-1.43,18.6
11.8714919090271,16.17,0.62,0.63,16.19
11.872934818267822,11.97,5.97,3.02,13.71
11.873933792114258,6.8,1.87,0.94,7.11
11.893247842788696,-2.49,0.89,1.76,3.17
11.894312858581543,-11.32,6.69,3.74,13.67
11.9096097946167,-12.24,14.71,4.26,19.6
11.91069483757019,-8.7,18.81,-0.57,20.73
11.926317930221558,-3.87,12.36,-5.91,14.23
11.927803993225098,1.54,3.83,-6.89,8.03
11.942057847976685,4.95,-1.33,-1.99,5.49
11.971137046813965,7.78,-2.61,1.7,8.38
11.972449779510498,9.8,-6.47,3.62,12.28
11.973252773284912,9.5,-8.62,-0.73,12.84
11.993230819702148,9.3,-4.05,-2.66,10.48
11.994229793548584,7.45,1.65,-0.53,7.64
12.009926795959473,4.08,2.26,-1.02,4.77
12.010963916778564,1.51,0.7,-1.13,2.01
12.02654504776001,-0.05,0.21,-0.58,0.61
12.027997016906738,-0.4,0.62,0.64,0.97
12.042175769805908,0.06,0.34,1.21,1.25
12.070888996124268,0.35,-0.53,0.92,1.11
12.072263717651367,0.51,-0.78,0.75,1.19
12.073232889175415,0.53,-0.6,0.51,0.94
12.09197998046875,0.9,-0.31,-0.51,1.07
12.092957973480225,1.39,-0.03,-1.34,1.93
12.107622861862183,1.42,0.18,-0.88,1.68
12.108608722686768,1.04,0.02,-0.23,1.06
12.123395919799805,0.79,-0.19,-0.04,0.81
12.1248197555542,0.7,-0.17,-0.03,0.72
12.13939905166626,0.45,-0.13,-0.05,0.47
12.140799045562744,0.01,0.02,0.16,0.16
12.18485689163208,-0.4,0.18,0.33,0.54
12.186020851135254,-0.58,0.33,0.11,0.67
12.18725872039795,-0.65,0.52,-0.19,0.85
12.189190864562988,-0.61,0.5,-0.54,0.95
12.209717750549316,-0.33,0.26,-1.06,1.14
12.210711002349854,-0.14,0.09,-1.15,1.16
12.226565837860107,-0.43,0.19,-0.37,0.59
12.228080749511719,-0.99,0.51,0.54,1.23
12.242019891738892,-1.24,0.7,0.68,1.57
12.243517875671387,-0.96,0.59,0.16,1.13
12.288368940353394,-0.48,0.45,-0.14,0.67
12.289577007293701,-0.28,0.36,-0.12,0.47
12.290555000305176,-0.48,0.36,-0.09,0.6
12.310091972351074,-0.92,0.48,-0.22,1.06
12.311075925827026,-1.2,0.73,-0.46,1.47
12.326205730438232,-1.19,0.89,-0.48,1.56
12.327622890472412,-1.13,0.99,-0.18,1.51
12.343599796295166,-1.39,0.92,-0.32,1.69
12.345067024230957,-1.96,1.01,-0.47,2.25
12.358693838119507,-2.66,1.69,-0.48,3.18
12.38936996459961,-2.83,2.24,-0.34,3.62
12.390724897384644,-2.73,2.3,0.01,3.56
12.391777992248535,-2.65,2.59,0.31,3.71
12.410313844680786,-2.5,3.17,0.13,4.03
12.41134786605835,-2.32,3.9,-0.04,4.53
12.426182746887207,-2.66,4.31,0.02,5.06
12.42720890045166,-3.51,4.61,0.21,5.79
12.443323850631714,-4.51,4.87,0.16,6.63
12.444785833358765,-5.31,5.47,0.03,7.62
12.458963871002197,-5.72,6.38,-0.21,8.57
12.487244844436646,-5.79,7.56,-0.47,9.53
12.488577842712402,-5.81,9.26,-0.53,10.94
12.489563941955566,-6.31,11.67,-0.69,13.28
12.508057832717896,-8.06,13.26,-2.25,15.67
12.509150981903076,-10.03,13.11,-4.23,17.04
12.52334976196289,-11.0,12.46,-5.34,17.45
12.52439284324646,-11.88,12.19,-5.9,18.01
12.540408849716187,-11.27,14.78,-4.18,19.05
12.541886806488037,-6.82,18.11,-4.18,19.79
12.558863878250122,-0.67,14.46,-9.42,17.27
12.589122772216797,3.78,10.21,-8.04,13.53
12.590450763702393,1.9,4.59,-4.7,6.83
12.591454982757568,-1.72,0.68,-1.73,2.53
12.610174894332886,1.47,0.7,3.1,3.5
12.61121392250061,3.46,-4.84,4.35,7.37
12.62646770477295,-1.04,-4.86,-0.88,5.04
12.627513885498047,-5.47,-1.51,0.51,5.69
12.643541812896729,-8.62,-0.49,0.64,8.65
12.644929885864258,-10.97,-1.03,-0.21,11.02
12.658803939819336,-11.77,-1.81,0.71,11.92
12.6891188621521,-10.38,-2.79,1.95,10.92
12.690433025360107,-7.24,-3.7,2.83,8.6
12.691423892974854,-4.8,-4.29,2.66,6.96
12.710211753845215,-4.08,-4.32,2.29,6.36
12.711228847503662,-4.15,-4.29,2.2,6.36
12.726047992706299,-4.41,-4.42,2.19,6.61
12.727064847946167,-4.45,-4.54,1.91,6.63
12.743559837341309,-4.23,-4.59,1.38,6.39
12.744991779327393,-3.92,-4.51,0.64,6.0
12.758918762207031,-3.39,-4.27,0.09,5.45
12.789354801177979,-3.1,-3.99,-0.01,5.05
12.790667057037354,-3.08,-3.82,0.24,4.91
12.791690826416016,-3.2,-3.87,0.51,5.04
12.8104829788208,-3.26,-4.1,0.57,5.26
12.811491966247559,-3.01,-4.35,0.47,5.31
12.826093912124634,-2.53,-4.76,0.27,5.39
12.827154874801636,-2.07,-5.03,0.29,5.44
12.84394383430481,-1.72,-4.73,0.86,5.1
12.845448970794678,-1.41,-4.22,1.12,4.58
12.859067916870117,-0.71,-3.92,0.36,4.0
12.888446807861328,0.69,-3.5,-0.48,3.59
12.889877796173096,2.19,-2.88,-0.69,3.68
12.89090871810913,3.28,-2.21,-0.4,3.97
12.910553932189941,4.44,-1.13,0.39,4.59
12.911581993103027,6.06,0.16,0.91,6.13
12.926270008087158,7.87,1.09,0.74,7.97
12.927573919296265,9.6,2.07,0.45,9.83
12.943778038024902,10.96,3.19,-0.02,11.41
12.945271968841553,11.54,4.2,-0.45,12.28
12.959040880203247,11.88,4.99,-0.93,12.91
12.960453033447266,12.79,4.99,-1.52,13.81
13.005177974700928,14.27,4.57,-1.71,15.08
13.00635290145874,15.79,4.08,-1.46,16.37
13.007377862930298,16.88,3.1,-0.51,17.16
13.026901721954346,17.05,1.82,0.78,17.16
13.027873992919922,16.11,0.5,2.29,16.27
13.04373288154602,14.29,-0.92,3.81,14.81
13.045201778411865,12.91,-2.09,4.82,13.93
13.047380924224854,10.24,-0.25,3.36,10.78
13.048959732055664,1.32,-1.9,1.3,2.65
13.05041790008545,-8.56,-3.47,-3.45,9.85
13.074559926986694,-16.5,16.33,-6.1,24.0
13.075697898864746,-19.17,44.05,6.73,48.5
13.076485872268677,-19.9,34.31,-2.09,39.71
13.093002796173096,-8.29,11.99,-9.94,17.64
13.094021797180176,1.71,-2.52,-6.07,6.79
13.110130786895752,6.13,-10.53,0.51,12.19
13.112172842025757,9.29,-13.5,1.26,16.43
13.126561880111694,11.47,-14.22,2.5,18.43
13.131961822509766,12.94,-10.93,4.43,17.5
13.142621040344238,12.51,-3.51,4.56,13.77
13.172974824905396,8.69,0.67,0.54,8.73
13.17428970336914,3.18,1.6,-2.58,4.39
13.175325870513916,-0.44,3.27,-2.62,4.21
13.19376802444458,-2.25,3.68,-1.86,4.69
13.194815874099731,-2.7,1.74,-0.64,3.27
13.209926843643188,-0.47,-0.51,0.98,1.2
13.211206912994385,1.77,-1.72,1.13,2.71
13.226398944854736,2.17,-1.73,0.71,2.86
13.231190919876099,0.97,-0.79,-0.08,1.25
13.242449760437012,0.24,0.15,-0.91,0.95
13.273193836212158,0.56,0.32,-1.33,1.47
13.274361848831177,0.78,0.01,-0.34,0.85
13.275185823440552,0.59,-0.19,0.87,1.06
13.293699741363525,0.52,-0.48,1.07,1.28
13.294741868972778,0.43,-0.44,0.61,0.86
13.310093879699707,0.15,0.12,0.42,0.46
13.311079978942871,-0.33,0.4,0.38,0.64
13.327013969421387,-0.89,0.31,0.1,0.94
13.330768823623657,-1.09,0.33,-0.59,1.28
13.342676877975464,-0.96,0.44,-1.23,1.62
13.378397941589355,-0.95,0.59,-0.9,1.43
13.37968397140503,-1.03,0.41,-0.35,1.16
13.380640983581543,-1.1,0.19,-0.04,1.11
13.394272804260254,-0.97,0.36,0.07,1.03
13.395305871963501,-0.73,0.47,-0.2,0.89
13.409633874893188,-0.45,0.42,-0.41,0.73
13.410676956176758,-0.27,0.3,-0.43,0.58
13.426872730255127,-0.35,0.23,-0.21,0.46
13.429710865020752,-0.43,0.25,0.04,0.49
13.44275188446045,-0.41,0.16,0.09,0.44
13.476909875869751,-0.31,0.12,0.02,0.33
13.478209018707275,-0.43,0.2,0.0,0.47
13.479249954223633,-0.87,0.5,0.09,1.0
13.494103908538818,-1.54,0.85,0.28,1.78
13.495142936706543,-1.86,1.05,0.34,2.16
13.510149002075195,-1.83,1.18,0.38,2.21
13.511173725128174,-1.7,1.3,0.2,2.14
13.527004718780518,-1.47,1.34,-0.46,2.04
13.529294967651367,-1.32,1.53,-1.08,2.29
13.54263186454773,-1.64,2.43,-0.91,3.06
13.575911045074463,-1.96,3.28,-0.55,3.86
13.577213764190674,-2.02,3.3,-0.18,3.87
13.5782790184021,-2.17,3.45,0.57,4.11
13.594128847122192,-2.69,3.65,0.74,4.59
13.595215797424316,-3.05,4.01,0.4,5.05
13.610077857971191,-3.18,4.22,0.02,5.28
13.611108779907227,-3.46,4.38,-0.23,5.58
13.627687931060791,-3.91,4.66,-0.15,6.08
13.629142761230469,-4.42,5.5,0.14,7.05
13.642862796783447,-5.01,6.99,0.42,8.61
13.676479816436768,-5.75,8.94,0.33,10.63
13.677971839904785,-7.16,10.36,-0.57,12.6
13.678974866867065,-9.24,11.04,-1.84,14.51
13.694469928741455,-10.84,11.27,-2.98,15.91
13.695528030395508,-11.46,11.17,-3.92,16.47
13.71057391166687,-11.4,11.41,-4.88,16.85
13.711596965789795,-11.21,12.96,-3.9,17.57
13.726544857025146,-8.68,15.14,-3.1,17.72
13.728027820587158,-2.88,14.63,-7.17,16.54
13.742908954620361,2.37,10.8,-9.22,14.39
13.747772932052612,2.85,8.2,-5.0,10.01
13.78773283958435,-2.18,3.04,-1.81,4.15
13.788876056671143,-3.68,0.36,0.53,3.73
13.78987193107605,2.1,-0.15,2.79,3.49
13.810981750488281,4.41,-4.39,1.81,6.48
13.812016010284424,-0.82,-1.76,-1.98,2.77
13.827140808105469,-5.54,1.16,0.05,5.66
13.828614711761475,-8.59,1.0,0.18,8.64
13.844095706939697,-10.86,-0.36,-0.58,10.88
13.845619916915894,-11.99,-1.38,-0.05,12.06
13.859508037567139,-11.36,-2.19,0.93,11.6
13.889878749847412,-8.99,-3.13,1.96,9.71
13.89115571975708,-6.5,-4.1,2.07,7.95
13.892168998718262,-5.02,-4.55,1.88,7.03
13.910827875137329,-4.53,-4.49,1.76,6.61
13.911869049072266,-4.45,-4.49,1.63,6.52
13.926689863204956,-4.51,-4.51,1.54,6.56
13.927708864212036,-4.26,-4.45,1.12,6.26
13.943817853927612,-3.5,-4.31,0.39,5.56
13.94532299041748,-2.96,-4.12,-0.02,5.07
13.959460735321045,-3.0,-3.94,0.05,4.95
13.98760175704956,-3.13,-3.88,0.31,4.99
13.98893404006958,-3.14,-4.04,0.17,5.11
13.989881992340088,-2.93,-4.19,0.05,5.11
14.01100778579712,-2.41,-4.14,0.17,4.79
14.012067794799805,-1.8,-4.17,0.34,4.55
14.027253866195679,-1.28,-4.17,0.41,4.38
14.028236865997314,-0.68,-3.88,0.27,3.94
14.044381856918335,0.44,-3.49,0.05,3.51
14.045838832855225,1.82,-2.89,0.02,3.41
14.059601783752441,3.14,-2.14,0.36,3.81
14.08812689781189,4.25,-1.22,1.2,4.58
14.089463710784912,5.26,-0.15,2.1,5.66
14.090443849563599,6.32,1.01,2.34,6.81
14.111094951629639,7.52,2.31,2.1,8.14
14.112086772918701,8.97,3.98,1.34,9.9
14.127001762390137,10.98,5.58,0.02,12.31
14.128068923950195,13.5,6.5,-1.45,15.05
14.144266843795776,15.82,6.22,-2.32,17.15
14.145792007446289,17.22,5.04,-2.75,18.15
14.159807920455933,17.85,3.73,-2.53,18.41
14.189292907714844,17.98,2.35,-2.0,18.24
14.190652847290039,17.76,1.08,-1.91,17.89
14.191669940948486,17.13,0.08,-1.94,17.23
14.210851907730103,15.62,0.22,-1.71,15.71
14.211891889572144,11.48,6.05,0.4,12.98
14.22693395614624,4.83,5.63,0.51,7.43
14.227959871292114,-5.17,2.46,0.95,5.8
14.245512008666992,-12.67,8.68,4.59,16.02
14.247028827667236,-14.26,17.53,4.1,22.96
14.259737968444824,-12.62,19.9,-0.82,23.57
14.2894287109375,-7.27,11.81,-6.26,15.21
14.290847778320312,0.21,2.92,-6.13,6.79
14.291857719421387,5.0,-1.88,-0.25,5.34
14.311403751373291,9.01,-2.73,2.16,9.65
14.312434911727905,10.49,-6.54,1.35,12.43
14.327044010162354,10.61,-7.2,-1.86,12.95
14.328097820281982,10.57,-3.06,-1.58,11.11
14.34425401687622,8.16,0.98,-1.3,8.32
14.345744848251343,4.04,1.77,-1.97,4.83
14.359656810760498,0.75,0.95,-1.65,2.04
14.388673782348633,-1.06,0.89,-1.03,1.72
14.390048027038574,-1.29,1.11,0.48,1.76
14.391060829162598,-0.21,0.29,1.84,1.87
14.410772800445557,1.18,-1.2,2.32,2.86
14.41183090209961,1.98,-2.03,1.83,3.37
14.4269437789917,1.7,-1.41,1.02,2.43
14.42798376083374,1.51,-0.28,-0.37,1.57
14.444486856460571,1.46,0.4,-1.08,1.85
14.445957899093628,1.24,0.47,-0.82,1.55
14.46001672744751,1.15,0.01,-0.69,1.34
14.49113392829895,0.84,-0.14,-0.57,1.02
14.492383003234863,0.25,0.09,-0.56,0.61
14.493371963500977,-0.28,0.2,-0.38,0.51
14.511299848556519,-0.78,0.23,0.35,0.88
14.512399911880493,-1.18,0.27,1.1,1.63
14.52729082107544,-1.21,0.33,1.04,1.62
14.52834701538086,-0.58,0.29,-0.23,0.68
14.544242858886719,0.2,0.29,-1.2,1.25
14.54557991027832,0.25,0.22,-1.17,1.21
14.559391975402832,-0.23,0.18,-0.44,0.52
14.56098484992981,-0.63,0.18,0.05,0.65
14.607791900634766,-0.71,0.16,0.11,0.73
14.608957767486572,-0.62,0.25,0.19,0.69
14.609944820404053,-0.54,0.4,0.17,0.69
14.628562927246094,-0.52,0.49,0.06,0.71
14.629647731781006,-0.59,0.59,0.02,0.83
14.64401888847351,-0.75,0.66,0.23,1.02
14.645509719848633,-1.07,0.64,0.18,1.25
14.661136865615845,-1.44,0.59,-0.28,1.58
14.66260290145874,-1.72,0.64,-0.53,1.91
14.675926923751831,-1.76,0.75,-0.61,2.0
14.70590877532959,-1.64,0.84,-0.65,1.95
14.707331895828247,-1.63,0.88,-0.74,1.99
14.708339929580688,-1.86,1.14,-0.65,2.27
14.727573871612549,-2.42,1.76,-0.26,3.0
14.728579044342041,-2.83,2.32,0.32,3.67
14.744555950164795,-3.02,2.65,0.56,4.05
14.746022939682007,-3.06,3.19,0.77,4.48
14.760910987854004,-2.93,3.92,0.53,4.92
14.762349843978882,-2.98,4.46,0.08,5.36
14.776465892791748,-3.35,4.88,0.01,5.91
14.807066917419434,-3.98,5.21,0.05,6.55
14.80845594406128,-4.79,5.63,-0.03,7.39
14.809460878372192,-5.47,6.46,-0.01,8.46
14.82785701751709,-6.0,7.68,-0.07,9.74
14.828930854797363,-6.29,9.31,-0.01,11.23
14.84116792678833,-7.05,11.31,-0.29,13.33
14.842227935791016,-8.71,12.94,-1.71,15.69
14.858055830001831,-10.14,13.23,-3.2,16.97
14.85956883430481,-10.92,12.36,-4.85,17.19
14.87434196472168,-11.65,11.9,-5.57,17.56
14.903205871582031,-11.77,14.05,-3.83,18.72
14.904428005218506,-8.49,16.57,-3.67,18.97
14.905241012573242,-2.69,15.27,-7.86,17.38
14.907668828964233,1.87,10.72,-7.93,13.46
14.909121990203857,1.98,6.05,-3.66,7.34
14.910516738891602,-1.61,0.44,-2.26,2.8
14.918603897094727,-0.62,0.21,-0.27,0.7
14.928804874420166,4.38,-1.25,3.32,5.63
14.938520908355713,3.84,-4.5,1.41,6.08
14.948545932769775,-1.99,-2.02,-1.74,3.32
14.982123851776123,-7.05,0.13,0.97,7.11
14.98326587677002,-10.23,-0.12,1.19,10.29
14.984088897705078,-12.17,-1.05,0.89,12.24
14.992308855056763,-12.57,-1.93,1.5,12.8
14.997885704040527,-10.79,-2.77,2.2,11.35
15.01061487197876,-7.19,-3.49,2.68,8.42
15.017821788787842,-4.6,-3.97,2.31,6.5
15.0277099609375,-3.95,-3.86,2.07,5.89
15.037916898727417,-3.93,-3.92,2.14,5.94
15.047396898269653,-4.16,-4.37,2.04,6.36
15.083014965057373,-4.28,-4.59,1.66,6.49
15.084552764892578,-4.15,-4.41,0.96,6.13
15.08538293838501,-3.82,-4.21,0.15,5.68
15.094810009002686,-3.35,-4.2,-0.41,5.38
15.09720492362976,-3.14,-4.18,-0.48,5.24
15.111056804656982,-3.05,-4.33,-0.22,5.3
15.117305755615234,-2.86,-4.72,0.1,5.51
15.127258777618408,-2.52,-5.33,0.34,5.9
15.137102842330933,-2.11,-5.97,0.48,6.35
15.146929740905762,-1.88,-6.46,0.64,6.75
15.183436870574951,-1.88,-6.51,0.85,6.82
15.184704780578613,-2.03,-5.85,1.47,6.36
15.185774803161621,-2.13,-4.71,1.72,5.44
15.193562984466553,-1.03,-3.53,1.31,3.9
15.196377754211426,1.63,-2.8,0.46,3.27
15.210953712463379,4.01,-1.95,-0.19,4.46
15.216248035430908,5.7,-0.34,0.1,5.71
15.226562023162842,7.5,1.46,0.49,7.65
15.23665475845337,9.41,2.54,0.22,9.74
15.246277809143066,11.03,3.29,-0.44,11.51
15.2859468460083,12.46,4.49,-1.07,13.28
15.287338733673096,13.61,5.72,-1.91,14.88
15.288123846054077,14.65,6.35,-3.03,16.25
15.290581703186035,15.75,6.44,-3.61,17.39
15.311133861541748,16.67,6.04,-3.96,18.16
15.312180995941162,17.74,4.94,-3.19,18.68
15.327139854431152,18.34,3.27,-1.98,18.73
15.32817792892456,17.7,1.45,-1.2,17.79
15.34320878982544,15.81,0.6,0.24,15.82
15.345504760742188,10.9,5.13,2.75,12.35
15.359752893447876,2.81,4.51,3.13,6.16
15.39131498336792,-7.37,0.69,1.81,7.62
15.392647743225098,-14.25,7.25,3.01,16.26
15.39366102218628,-15.76,20.58,3.64,26.17
15.409584045410156,-14.26,24.49,1.7,28.39
15.410672903060913,-9.28,12.54,-4.24,16.16
15.427634716033936,-0.81,0.87,-3.88,4.05
15.428682804107666,4.96,-3.55,-0.58,6.12
15.44415283203125,9.34,-3.7,0.22,10.04
15.445210933685303,11.17,-6.25,-0.83,12.82
15.460177898406982,12.19,-5.45,-2.72,13.62
15.490342855453491,12.61,-1.73,-2.51,12.97
15.491415977478027,11.38,0.66,-2.36,11.64
15.492248058319092,6.6,0.89,-2.54,7.12
15.511490821838379,1.89,0.47,-0.68,2.06
15.512520790100098,-0.89,0.59,1.03,1.48
15.527415752410889,-1.66,0.53,2.51,3.05
15.528473854064941,-0.54,-0.33,3.21,3.27
15.544570922851562,0.63,-1.13,2.14,2.5
15.545636892318726,1.12,-1.25,0.6,1.78
15.56028699874878,1.14,-0.71,0.06,1.34
15.591530799865723,1.1,-0.09,-0.32,1.14
15.593557834625244,1.3,-0.05,-0.87,1.56
15.594574928283691,1.33,-0.08,-0.64,1.47
15.611793041229248,0.98,-0.17,-0.63,1.17
15.612849712371826,0.76,-0.03,-0.78,1.08
15.627687931060791,0.54,0.34,-0.71,0.95
15.628761768341064,0.07,0.45,-0.62,0.76
15.644713878631592,-0.47,0.48,-0.28,0.72
15.64621090888977,-0.88,0.37,0.58,1.11
15.660478830337524,-1.24,0.1,1.12,1.67
15.691236972808838,-1.22,0.01,1.13,1.66
15.692415714263916,-0.88,-0.03,-0.34,0.94
15.693270921707153,-0.48,0.17,-1.49,1.57
15.712102890014648,-0.36,0.53,-1.74,1.85
15.713145732879639,-0.6,0.64,-1.2,1.48
15.727366924285889,-0.9,0.52,0.01,1.03
15.728407859802246,-1.07,0.29,0.9,1.42
15.744186878204346,-1.0,0.18,1.17,1.54
15.745224952697754,-0.92,0.26,0.86,1.28
15.760293960571289,-1.15,0.42,0.25,1.24
15.789570808410645,-1.48,0.54,-0.14,1.58
15.79073691368103,-1.59,0.63,-0.44,1.76
15.791637897491455,-1.39,0.58,-0.6,1.62
15.811673879623413,-1.02,0.56,-0.56,1.29
15.812726020812988,-0.75,0.63,-0.37,1.04
15.8278648853302,-0.76,0.65,-0.2,1.01
15.828921794891357,-0.97,0.63,-0.04,1.15
15.844542980194092,-1.19,0.7,0.24,1.4
15.845862865447998,-1.39,0.86,0.43,1.69
15.860378742218018,-1.47,0.9,0.39,1.76
15.891721725463867,-1.52,1.13,0.47,1.95
15.892982959747314,-1.45,1.38,0.07,2.0
15.893953800201416,-1.45,1.82,-0.29,2.34
15.911789894104004,-1.56,2.2,-0.68,2.78
15.912814855575562,-1.81,2.84,-0.65,3.42
15.927612781524658,-1.84,3.22,-0.55,3.74
15.92864990234375,-2.02,3.15,-0.19,3.74
15.944795846939087,-2.42,2.95,0.16,3.81
15.946201801300049,-2.85,3.02,0.45,4.17
15.96043586730957,-3.17,3.34,0.52,4.63
15.991241931915283,-3.43,3.81,0.67,5.17
15.992516040802002,-3.99,4.66,0.96,6.2
15.993521928787231,-4.83,6.03,1.65,7.9
16.01170778274536,-6.04,7.98,1.9,10.18
16.012794017791748,-7.79,9.59,0.78,12.37
16.027894973754883,-9.75,10.44,-0.6,14.29
16.02894687652588,-11.14,11.12,-1.27,15.79
16.044365882873535,-11.91,11.38,-1.57,16.54
16.04591703414917,-12.48,12.36,-1.31,17.61
16.05811071395874,-11.17,13.88,-1.51,17.88
16.088016033172607,-6.5,13.23,-5.07,15.58
16.089348793029785,-0.1,12.27,-8.11,14.7
16.09018087387085,3.88,11.92,-3.74,13.08
16.092352867126465,3.51,8.47,-0.76,9.19
16.09953784942627,-0.82,3.52,0.01,3.61
16.109642028808594,-2.85,-0.22,-1.08,3.05
16.11966586112976,2.37,1.71,-2.48,3.83
16.129697799682617,7.43,0.64,-0.07,7.45
16.139506816864014,3.96,-0.13,-1.92,4.4
16.149770736694336,-3.07,1.86,-2.48,4.36
16.159608840942383,-7.51,2.21,0.39,7.83
16.1921968460083,-9.88,0.48,-0.14,9.89
16.193169832229614,-11.59,-1.1,-0.96,11.68
16.193970918655396,-12.36,-2.1,-0.83,12.56
16.213948726654053,-11.41,-2.86,0.27,11.76
16.21502184867859,-9.38,-3.74,1.61,10.22
16.226552963256836,-6.92,-4.91,2.63,8.88
16.22869086265564,-4.99,-5.71,2.53,7.99
16.245162963867188,-4.04,-5.65,1.74,7.16
16.248820781707764,-3.92,-4.87,1.09,6.34
16.258715867996216,-4.19,-4.4,0.21,6.07
16.292294025421143,-4.38,-4.19,-0.68,6.09
16.293614864349365,-4.43,-3.92,-1.44,6.08
16.294591903686523,-4.48,-3.72,-1.78,6.08
16.311880826950073,-4.44,-3.64,-1.76,6.0
16.312917709350586,-4.1,-4.0,-1.72,5.98
16.327627897262573,-3.36,-4.71,-1.81,6.06
16.328683853149414,-2.36,-5.33,-1.96,6.14
16.344706058502197,-1.42,-5.39,-1.8,5.85
16.34805202484131,-0.8,-5.22,-1.61,5.52
16.36036777496338,-0.42,-5.22,-1.98,5.59
16.390934944152832,0.31,-4.95,-2.41,5.51
16.392236709594727,1.14,-4.32,-2.59,5.16
16.393249034881592,1.71,-3.55,-2.24,4.53
16.412056922912598,2.08,-2.67,-1.19,3.58
16.4131019115448,2.72,-1.63,-0.02,3.17
16.42778778076172,3.88,-0.48,0.51,3.94
16.428853034973145,5.4,1.17,0.38,5.53
16.44531774520874,7.32,3.46,-0.16,8.09
16.447330951690674,9.46,5.48,-0.93,10.97
16.46065378189087,11.31,6.6,-1.97,13.24
16.492697715759277,13.11,7.14,-2.39,15.11
16.493979930877686,14.87,6.96,-2.33,16.58
16.49499797821045,16.28,5.98,-1.71,17.42
16.512342929840088,17.0,5.03,-0.77,17.74
16.513375759124756,16.64,4.14,0.28,17.14
16.52793598175049,15.43,3.2,1.05,15.79
16.528972864151,14.49,2.11,1.58,14.72
16.545353889465332,13.76,1.2,2.13,13.97
16.546767711639404,13.01,0.76,3.2,13.41
16.56067991256714,10.87,2.39,3.76,11.74
16.596694946289062,3.56,3.34,4.64,6.73
16.598005771636963,-4.98,-1.85,1.26,5.45
16.59902000427246,-12.53,-0.43,-0.03,12.53
16.612606048583984,-15.93,16.47,-0.5,22.91
16.613651752471924,-13.05,32.75,6.15,35.78
16.624786853790283,-10.88,22.93,0.4,25.38
16.625836849212646,-4.15,2.91,-4.61,6.85
16.645302772521973,3.26,-3.38,-3.62,5.92
16.646780967712402,8.66,-4.42,-1.81,9.88
16.660717010498047,10.92,-7.6,-0.74,13.32
16.694511890411377,12.19,-7.92,-0.37,14.54
16.69581699371338,12.89,-4.96,0.56,13.82
16.696838855743408,11.83,-1.37,1.2,11.96
16.71272897720337,6.79,-0.04,-0.77,6.83
16.713757038116455,1.91,0.42,-1.0,2.19
16.728211879730225,-1.03,1.56,-0.49,1.93
16.72922682762146,-2.66,2.03,0.57,3.39
16.745505809783936,-2.28,0.92,2.1,3.23
16.746992826461792,0.16,-0.98,2.2,2.41
16.760799884796143,2.07,-1.74,1.27,2.98
16.795273780822754,2.05,-1.09,0.39,2.35
16.796573877334595,1.18,-0.22,-0.66,1.36
16.797546863555908,0.79,0.19,-1.33,1.55
16.812325954437256,0.7,0.15,-1.38,1.55
16.813326835632324,0.57,-0.11,-1.12,1.26
16.828102827072144,0.41,-0.06,-0.77,0.87
16.82913303375244,0.33,0.2,-0.36,0.52
16.845005989074707,0.24,0.17,-0.22,0.36
16.84598684310913,0.1,0.17,0.05,0.2
16.86081600189209,-0.09,0.11,0.5,0.51
16.893098831176758,-0.31,-0.05,0.99,1.03
16.89448595046997,-0.47,-0.22,1.06,1.18
16.89549970626831,-0.68,-0.28,0.19,0.75
16.912545919418335,-0.65,0.06,-0.69,0.94
16.913586854934692,-0.48,0.41,-1.07,1.24
16.92802882194519,-0.45,0.37,-1.02,1.17
16.929083824157715,-0.63,0.22,-0.3,0.73
16.944990873336792,-0.75,0.07,0.43,0.86
16.946452856063843,-0.53,0.04,0.64,0.83
16.960890769958496,-0.27,0.12,0.46,0.54
16.963332891464233,-0.1,0.3,0.06,0.32
17.00788688659668,-0.18,0.39,-0.31,0.52
17.009047985076904,-0.58,0.45,-0.29,0.78
17.010066986083984,-1.26,0.5,0.02,1.35
17.029096841812134,-1.88,0.47,-0.01,1.93
17.030158042907715,-2.03,0.53,-0.43,2.14
17.04497003555298,-1.83,0.74,-0.46,2.02
17.046008825302124,-1.46,0.89,-0.4,1.75
17.062330722808838,-1.39,0.8,-0.44,1.66
17.06380605697632,-1.64,0.62,-0.29,1.77
17.077696800231934,-1.9,0.51,-0.11,1.97
17.108845710754395,-1.91,0.62,-0.14,2.01
17.11070489883423,-1.52,1.0,-0.21,1.83
17.111668825149536,-0.99,1.5,-0.33,1.82
17.12908387184143,-0.84,1.76,-0.56,2.02
17.130128860473633,-1.06,2.2,-0.28,2.45
17.14501690864563,-1.54,2.64,-0.4,3.08
17.146018028259277,-2.01,3.0,-0.92,3.72
17.161967754364014,-2.15,3.87,-0.93,4.52
17.163415908813477,-2.32,4.14,-0.75,4.8
17.17754077911377,-2.49,4.43,-0.22,5.08
17.206859827041626,-2.83,4.72,0.23,5.5
17.2082679271698,-3.5,5.38,0.72,6.45
17.2092547416687,-4.53,6.76,1.01,8.19
17.228989839553833,-5.78,8.5,0.52,10.29
17.23004674911499,-6.97,9.49,-0.73,11.79
17.24507784843445,-7.74,10.29,-1.29,12.94
17.24610996246338,-8.41,11.05,-1.56,13.97
17.26236891746521,-9.56,11.09,-3.09,14.96
17.26379084587097,-10.39,10.37,-3.66,15.12
17.27786684036255,-10.73,9.65,-3.75,14.91
17.308120727539062,-10.82,9.92,-3.0,14.98
17.3093318939209,-8.76,12.37,-1.15,15.2
17.31021499633789,-4.28,14.44,-3.46,15.45
17.328733921051025,0.49,11.61,-6.98,13.55
17.32978582382202,2.42,8.94,-5.91,10.98
17.345266819000244,-1.68,3.66,-3.95,5.64
17.346319913864136,-5.07,0.47,-0.67,5.13
17.361077785491943,-1.62,0.63,3.51,3.91
17.362547874450684,1.32,-4.31,2.84,5.32
17.37766981124878,-2.19,-2.77,-0.87,3.63
17.406319856643677,-5.88,0.7,0.5,5.94
17.407471895217896,-8.62,0.45,-0.4,8.64
17.408281803131104,-10.54,-0.64,-1.45,10.65
17.429011821746826,-10.82,-1.25,-1.12,10.94
17.430068016052246,-9.37,-1.72,0.03,9.52
17.445497035980225,-7.41,-2.8,0.94,7.97
17.44652485847473,-6.04,-3.59,1.3,7.14
17.46186089515686,-5.39,-3.89,1.69,6.85
17.46289873123169,-5.05,-3.91,2.01,6.69
17.47782588005066,-4.77,-3.63,1.89,6.28
17.50493884086609,-4.52,-3.35,1.4,5.79
17.506130933761597,-4.18,-3.17,0.83,5.31
17.50692081451416,-3.66,-2.89,0.16,4.66
17.50935697555542,-3.04,-2.5,-0.15,3.93
17.510579824447632,-2.53,-2.36,-0.39,3.48
17.518983840942383,-2.25,-2.51,-0.63,3.42
17.529067993164062,-2.27,-2.78,-0.65,3.64
17.53882074356079,-2.49,-2.77,-0.22,3.73
17.54897689819336,-2.5,-2.44,0.19,3.49
17.55895686149597,-1.75,-2.76,-0.19,3.27
17.59367084503174,-0.28,-3.28,-0.94,3.42
17.594648838043213,1.05,-3.18,-1.11,3.52
17.595448970794678,1.74,-2.81,-0.61,3.36
17.613197803497314,2.24,-2.31,0.21,3.22
17.614296913146973,3.06,-1.65,0.86,3.58
17.627996921539307,4.43,-0.91,1.24,4.68
17.62903070449829,6.26,-0.12,1.34,6.4
17.63829493522644,7.89,0.52,0.86,7.95
17.64824891090393,8.88,1.29,0.28,8.97
17.6581768989563,9.67,2.63,-0.51,10.03
17.695812940597534,11.31,3.8,-1.63,12.04
17.696775913238525,13.71,4.59,-2.98,14.76
17.697586059570312,16.19,5.2,-3.91,17.44
17.712990760803223,18.19,5.12,-3.6,19.23
17.71401882171631,19.9,3.88,-2.25,20.39
17.728169918060303,20.64,1.81,-0.69,20.73
17.729212760925293,20.11,0.04,1.06,20.13
17.745194911956787,18.19,-0.95,2.24,18.35
17.74722194671631,15.8,-1.53,2.01,16.0
17.76115393638611,13.74,-1.08,1.32,13.84
17.767539978027344,9.06,1.7,1.74,9.38
17.80752682685852,-0.99,1.42,3.26,3.69
17.808629035949707,-10.81,-1.19,0.67,10.89
17.809622764587402,-18.28,11.3,-4.22,21.9
17.825850009918213,-19.11,32.53,4.76,38.02
17.826987743377686,-18.93,29.0,4.11,34.87
17.845805883407593,-10.66,11.48,-5.59,16.63
17.846840858459473,3.61,2.24,-8.05,9.1
17.861990928649902,9.35,-3.55,-2.1,10.21
17.86343479156494,11.85,-8.27,0.63,14.46
17.87795877456665,13.25,-11.21,0.18,17.35
17.908483028411865,13.98,-10.37,1.5,17.47
17.909782886505127,13.52,-6.09,3.27,15.18
17.91077470779419,8.7,-1.36,1.41,8.91
17.92901086807251,2.72,0.39,-0.58,2.8
17.93007802963257,-0.71,2.25,-0.28,2.37
17.9455509185791,-2.31,3.44,-0.36,4.15
17.946589946746826,-2.26,2.09,0.03,3.07
17.96247386932373,0.08,-0.25,1.49,1.51
17.963932037353516,1.97,-1.4,1.48,2.83
17.978035926818848,1.88,-1.25,0.51,2.31
18.008769989013672,0.8,-0.12,-0.24,0.84
18.00987195968628,0.25,0.78,-1.06,1.33
18.010692834854126,0.07,0.77,-1.68,1.84
18.029226779937744,-0.12,0.47,-1.71,1.77
18.030293941497803,-0.32,-0.02,-1.41,1.44
18.045538902282715,-0.64,-0.31,-0.37,0.8
18.046576023101807,-0.76,-0.37,0.37,0.92
18.06262493133545,-0.46,-0.16,0.71,0.86
18.064111709594727,-0.06,0.17,0.82,0.83
18.078070878982544,0.06,0.31,0.53,0.61
18.106812953948975,-0.1,0.32,-0.02,0.33
18.108214855194092,-0.31,0.29,-0.15,0.45
18.10907292366028,-0.49,0.25,-0.04,0.55
18.12915802001953,-0.7,0.1,-0.2,0.73
18.13017177581787,-0.93,0.23,-0.16,0.97
18.145612716674805,-1.21,0.56,0.04,1.33
18.146641731262207,-1.3,0.61,0.16,1.44
18.16228675842285,-0.96,0.4,0.34,1.09
18.163331985473633,-0.62,0.23,0.56,0.86
18.179224967956543,-0.45,0.08,0.56,0.72
18.20823884010315,-0.32,0.11,0.41,0.53
18.20936679840088,-0.2,0.15,0.09,0.26
18.210154056549072,-0.08,0.16,-0.09,0.2
18.22926378250122,0.01,0.22,-0.1,0.24
18.23028802871704,-0.03,0.36,-0.11,0.37
18.24439001083374,-0.32,0.44,-0.24,0.59
18.24544095993042,-0.9,0.69,-0.18,1.14
18.26272487640381,-1.7,1.1,0.23,2.03
18.26419973373413,-2.29,1.43,0.49,2.74
18.278182983398438,-2.46,1.35,0.36,2.82
18.30778193473816,-2.11,1.35,0.2,2.51
18.30915880203247,-1.75,1.36,-0.38,2.24
18.310166835784912,-1.32,1.75,-1.02,2.41
18.32929801940918,-1.26,2.27,-1.27,2.89
18.33033800125122,-1.51,2.74,-1.08,3.3
18.34567880630493,-1.96,3.12,-0.52,3.72
18.34672498703003,-2.35,3.36,0.06,4.1
18.362640857696533,-2.61,3.49,0.43,4.37
18.364120960235596,-2.85,3.7,0.72,4.72
18.37815570831299,-3.21,4.12,0.96,5.31
18.408921718597412,-3.89,5.04,1.08,6.45
18.410269737243652,-4.88,6.39,1.24,8.13
18.411293029785156,-6.04,8.05,1.18,10.13
18.429406881332397,-7.31,9.51,0.67,12.01
18.430439949035645,-8.77,10.84,0.19,13.94
18.445814847946167,-10.43,12.03,-0.61,15.93
18.446884870529175,-11.87,12.01,-1.32,16.93
18.46095895767212,-13.03,11.82,-1.17,17.63
18.462018966674805,-12.76,12.86,-0.77,18.13
18.478230953216553,-9.05,12.83,-3.36,16.05
18.507324934005737,-2.65,11.65,-8.14,14.45
18.508450031280518,1.86,11.88,-4.82,12.95
18.509268760681152,2.07,9.03,-1.0,9.31
18.52918291091919,-1.31,4.35,0.65,4.58
18.530251026153564,-4.19,0.02,1.1,4.33
18.545783042907715,-0.99,0.09,-0.85,1.3
18.54682183265686,5.76,0.93,-0.64,5.86
18.562328815460205,6.8,-1.62,-0.8,7.03
18.563796997070312,0.68,0.37,-3.01,3.1
18.57826590538025,-5.06,1.35,-0.62,5.27
18.57978105545044,-8.38,-0.04,-0.08,8.38
18.62411594390869,-10.26,-1.79,-0.7,10.43
18.625290870666504,-11.3,-2.88,-0.63,11.67
18.626279830932617,-11.21,-3.33,-0.21,11.69
18.64704179763794,-9.7,-3.15,0.67,10.22
18.648070812225342,-7.79,-3.25,1.55,8.58
18.6626398563385,-6.07,-3.4,1.64,7.14
18.664100885391235,-4.87,-3.04,1.58,5.95
18.67952585220337,-4.43,-2.39,1.24,5.18
18.680985927581787,-4.49,-2.1,0.76,5.01
18.694167852401733,-4.73,-2.24,0.13,5.23
18.72459387779236,-4.58,-2.13,-0.58,5.08
18.72592782974243,-4.11,-1.9,-1.37,4.73
18.726953983306885,-3.49,-1.79,-1.87,4.34
18.746338844299316,-2.92,-2.04,-1.96,4.06
18.747406005859375,-2.48,-2.76,-1.79,4.11
18.762037754058838,-2.09,-3.66,-1.52,4.48
18.763099908828735,-1.69,-4.34,-1.23,4.81
18.779176712036133,-1.27,-4.83,-0.92,5.07
18.780470848083496,-1.0,-5.22,-0.64,5.35
18.795403003692627,-0.85,-5.48,-0.51,5.56
18.82438588142395,-0.54,-5.34,-0.67,5.4
18.825824737548828,0.25,-4.74,-0.48,4.77
18.826852798461914,1.71,-4.15,0.03,4.48
18.8464617729187,3.54,-3.59,0.62,5.07
18.847537994384766,5.19,-2.7,1.23,5.97
18.86240792274475,6.23,-1.28,1.47,6.52
18.863440990447998,7.07,0.47,1.25,7.19
18.879881858825684,8.17,2.01,0.34,8.42
18.881394863128662,10.05,3.28,-0.83,10.6
18.89495086669922,12.4,4.47,-2.32,13.38
18.925699710845947,14.82,5.91,-3.69,16.37
18.927079916000366,17.05,7.03,-4.43,18.96
18.928130865097046,19.03,6.96,-5.07,20.88
18.946497917175293,20.99,5.65,-4.83,22.26
18.947566032409668,22.93,3.54,-2.92,23.38
18.96091079711914,23.06,1.09,-0.57,23.09
18.961891889572144,19.17,3.2,2.66,19.61
18.97957181930542,11.93,4.9,4.17,13.55
18.98108673095703,0.92,-1.9,2.55,3.31
18.994932889938354,-11.26,2.39,3.66,12.07
19.023351907730103,-15.73,16.47,3.2,22.99
19.024662017822266,-15.06,28.3,3.81,32.28
19.02549171447754,-13.1,18.63,-1.95,22.85
19.04663896560669,-5.22,4.29,-5.71,8.84
19.04767894744873,4.65,1.05,-3.26,5.77
19.062925815582275,9.63,-3.68,1.41,10.4
19.063955783843994,11.3,-7.94,-0.07,13.81
19.0792179107666,12.03,-8.64,-2.35,14.99
19.080262899398804,11.68,-5.74,-1.02,13.05
19.09514570236206,8.78,-1.54,-0.46,8.92
19.12370204925537,3.95,0.49,-1.93,4.42
19.12506890296936,0.54,1.28,-1.78,2.25
19.126004934310913,-1.36,1.85,-0.45,2.33
19.146543979644775,-1.96,1.53,1.94,3.15
19.147559881210327,-0.82,0.01,3.18,3.28
19.163912773132324,0.81,-1.39,2.03,2.59
19.164912939071655,1.55,-1.2,0.15,1.96
19.17958402633667,1.47,-0.28,-0.99,1.79
19.180616855621338,1.19,0.21,-1.09,1.62
19.19533681869507,1.0,0.11,-0.88,1.33
19.225087881088257,1.11,-0.15,-0.61,1.27
19.22616672515869,1.28,-0.33,-0.56,1.43
19.226996898651123,0.95,-0.2,-0.68,1.18
19.246574878692627,0.45,0.01,-0.43,0.62
19.247626781463623,0.12,0.08,0.21,0.25
19.26292896270752,-0.11,-0.02,0.92,0.92
19.263922929763794,-0.37,-0.15,1.12,1.18
19.279761791229248,-0.45,-0.08,0.88,0.99
19.281275749206543,-0.38,0.2,0.56,0.7
19.295301914215088,-0.31,0.25,-0.09,0.4
19.323762893676758,-0.24,0.18,-0.6,0.67
19.325167894363403,-0.28,0.28,-0.67,0.77
19.326050758361816,-0.55,0.39,-0.49,0.83
19.346967935562134,-1.04,0.37,-0.09,1.1
19.348000049591064,-1.3,0.36,0.24,1.37
19.361219882965088,-1.07,0.39,0.27,1.17
19.362274885177612,-0.69,0.42,0.35,0.88
19.379400730133057,-0.41,0.37,0.29,0.62
19.38044786453247,-0.57,0.22,0.13,0.62
19.3952739238739,-0.98,0.23,0.12,1.01
19.396728992462158,-1.25,0.32,-0.3,1.32
19.440653800964355,-1.14,0.46,-0.77,1.45
19.441810846328735,-0.83,0.67,-0.95,1.42
19.442837715148926,-0.73,0.72,-0.81,1.3
19.46359395980835,-1.11,0.56,-0.49,1.33
19.464622974395752,-1.77,0.58,-0.04,1.86
19.479874849319458,-2.14,0.91,0.34,2.35
19.481356859207153,-2.0,1.36,0.36,2.44
19.496639728546143,-1.33,1.84,0.34,2.29
19.498061895370483,-0.82,2.15,0.25,2.31
19.51224184036255,-0.95,2.38,0.36,2.58
19.544155836105347,-1.49,2.79,0.18,3.16
19.545491933822632,-1.89,3.31,-0.14,3.81
19.546477794647217,-2.1,3.51,-0.27,4.09
19.56339383125305,-2.09,3.62,-0.17,4.18
19.564395904541016,-2.22,3.55,-0.15,4.18
19.579293727874756,-2.59,3.85,0.21,4.64
19.580330848693848,-3.33,4.57,0.5,5.67
19.596375942230225,-4.42,5.52,0.68,7.1
19.597843885421753,-5.75,7.1,1.07,9.19
19.611671924591064,-7.1,9.0,1.05,11.51
19.6415798664093,-8.34,10.57,0.54,13.47
19.64291787147522,-9.62,11.58,0.16,15.05
19.64391279220581,-10.76,12.01,0.0,16.12
19.663246870040894,-11.68,11.22,-0.08,16.19
19.66432476043701,-12.29,10.9,0.09,16.42
19.679616928100586,-11.82,12.42,-0.1,17.14
19.68080997467041,-8.4,13.46,-3.96,16.35
19.697113037109375,-1.98,13.3,-9.17,16.27
19.698612928390503,2.0,12.52,-6.88,14.42
19.71223497390747,1.35,9.05,-3.26,9.71
19.74021577835083,-2.62,4.5,-0.69,5.25
19.741586923599243,-4.57,-0.25,-0.6,4.61
19.742572784423828,0.22,-0.03,-1.2,1.22
19.76343083381653,6.45,-1.52,0.85,6.68
19.76451086997986,4.66,-2.56,-1.16,5.44
19.77976393699646,-2.26,0.01,-2.89,3.66
19.780797004699707,-7.17,1.18,-0.45,7.28
19.796658992767334,-9.72,-0.16,-0.99,9.77
19.798120975494385,-11.26,-1.81,-1.41,11.49
19.81209373474121,-12.34,-2.92,-1.03,12.72
19.84136199951172,-12.13,-3.88,0.21,12.73
19.842747926712036,-10.65,-4.44,2.26,11.75
19.843777894973755,-8.37,-5.16,2.96,10.26
19.863196849822998,-6.14,-5.39,2.53,8.55
19.86426591873169,-4.96,-4.31,1.87,6.83
19.87956690788269,-4.9,-3.23,1.34,6.01
19.880578994750977,-5.32,-3.15,0.61,6.21
19.8968448638916,-5.55,-3.3,-0.14,6.45
19.89832305908203,-5.36,-3.09,-0.74,6.23
19.912186861038208,-4.99,-2.92,-1.34,5.93
19.942383766174316,-4.6,-2.86,-1.64,5.65
19.94374179840088,-4.13,-3.07,-1.43,5.34
19.94470977783203,-3.56,-3.76,-1.24,5.32
19.96340799331665,-2.74,-4.39,-1.09,5.28
19.964447021484375,-1.8,-4.61,-0.72,5.0
19.979433059692383,-1.15,-4.47,-0.26,4.62
19.980484008789062,-0.53,-4.03,-0.23,4.07
19.996490955352783,0.83,-3.54,-0.66,3.69
19.99797296524048,2.95,-2.88,-0.98,4.23
20.012253761291504,5.03,-1.83,-0.83,5.41
20.042053937911987,6.81,-0.05,-0.06,6.81
20.0433509349823,8.19,2.13,0.41,8.47
20.044360876083374,9.15,4.24,0.56,10.1
20.06335973739624,10.03,6.04,0.03,11.7
20.064411878585815,11.35,7.5,-1.06,13.64
20.079681873321533,13.1,8.35,-2.19,15.68
20.080708980560303,14.98,8.73,-2.67,17.54
20.096848964691162,16.62,8.41,-2.68,18.81
20.098312854766846,17.54,7.15,-2.91,19.16
20.112382888793945,17.66,5.33,-2.6,18.62
20.142605781555176,17.57,2.89,-2.69,18.0
20.144060850143433,17.45,0.86,-1.7,17.55
20.14505100250244,17.79,-0.12,0.48,17.79
20.16407299041748,18.46,-0.71,2.72,18.67
20.165130853652954,14.2,1.49,5.51,15.3
20.17784285545349,3.59,5.62,5.55,8.67
20.17890191078186,-6.2,-1.09,2.77,6.87
20.194466829299927,-14.42,-0.86,0.78,14.46
20.19600200653076,-18.53,12.74,-4.5,22.93
20.21222496032715,-17.55,26.1,1.19,31.47
20.213724851608276,-15.6,21.65,-0.79,26.69
20.25981092453003,-5.96,8.07,-4.09,10.83
20.260958909988403,4.77,2.06,-5.2,7.35
20.261958837509155,9.82,-3.69,-1.68,10.62
20.28087282180786,11.82,-7.89,-0.56,14.22
20.28197693824768,12.89,-8.98,-0.52,15.71
20.297006845474243,13.57,-7.25,0.0,15.38
20.298497915267944,13.28,-3.34,1.0,13.73
20.313695907592773,8.79,0.21,-0.43,8.8
20.315172910690308,2.88,0.89,-1.31,3.28
20.32880687713623,-0.7,1.21,-0.44,1.46
20.359076023101807,-2.68,1.55,0.23,3.1
20.36043691635132,-2.7,0.9,1.37,3.15
20.361440896987915,-0.46,-0.56,1.58,1.73
20.380311965942383,1.45,-1.03,0.89,1.98
20.381418704986572,1.81,-0.62,0.3,1.93
20.397029876708984,1.41,-0.29,-0.35,1.48
20.398515939712524,1.02,-0.07,-0.73,1.25
20.413522720336914,0.69,-0.02,-0.65,0.94
20.415003776550293,0.46,0.02,-0.45,0.64
20.4288330078125,0.22,0.01,-0.71,0.74
20.457988739013672,-0.16,0.04,-1.02,1.03
20.459399938583374,-0.52,0.15,-0.68,0.86
20.460408926010132,-0.59,0.18,0.28,0.67
20.480263710021973,-0.43,0.01,0.93,1.02
20.481489896774292,-0.22,-0.04,0.69,0.72
20.496651887893677,-0.11,0.14,-0.09,0.19
20.49768304824829,-0.12,0.31,-0.52,0.61
20.513722896575928,-0.24,0.33,-0.44,0.6
20.515122890472412,-0.5,0.34,-0.03,0.6
20.528961896896362,-0.95,0.42,0.06,1.04
20.55589771270752,-1.4,0.55,0.07,1.5
20.557291984558105,-1.59,0.66,0.21,1.73
20.558263778686523,-1.27,0.62,0.31,1.44
20.560643911361694,-0.78,0.36,0.31,0.91
20.562071800231934,-0.49,0.11,0.44,0.66
20.5635929107666,-0.52,0.03,0.3,0.6
20.56507682800293,-0.68,0.01,-0.23,0.71
20.566375732421875,-0.71,0.18,-0.5,0.88
20.567612886428833,-0.71,0.34,-0.72,1.06
20.576239824295044,-0.77,0.4,-0.89,1.24
20.606431007385254,-1.03,0.53,-0.66,1.33
20.60733389854431,-1.45,0.71,-0.33,1.64
20.608093738555908,-1.85,0.91,-0.01,2.06
20.615550994873047,-2.11,1.12,0.14,2.39
20.625679969787598,-2.1,1.48,-0.13,2.57
20.635597705841064,-2.11,1.85,-0.8,2.91
20.645506858825684,-2.15,2.82,-0.77,3.62
20.655749797821045,-1.93,3.4,-0.75,3.98
20.66537094116211,-1.88,3.79,-0.34,4.24
20.67541790008545,-2.28,4.02,0.42,4.64
20.706745862960815,-2.72,4.5,0.71,5.3
20.70762586593628,-3.17,4.93,0.68,5.9
20.708597898483276,-3.59,5.33,0.53,6.44
20.714908838272095,-3.98,5.94,0.5,7.16
20.724750995635986,-4.46,7.19,0.49,8.47
20.735021829605103,-5.6,8.96,0.24,10.56
20.74496293067932,-7.45,10.58,-0.18,12.94
20.754848957061768,-9.24,12.05,-0.65,15.19
20.76499891281128,-10.33,12.81,-1.94,16.57
20.775136947631836,-10.79,12.33,-3.74,16.8
20.80880880355835,-10.88,11.42,-5.55,16.72
20.810157775878906,-11.48,12.32,-4.64,17.46
20.81107783317566,-10.82,15.21,-2.84,18.88
20.83052682876587,-6.06,17.13,-5.04,18.85
20.83158302307129,-0.67,13.54,-9.5,16.55
20.846885919570923,1.67,8.94,-6.97,11.45
20.84788179397583,-1.15,4.75,-2.13,5.33
20.86380672454834,-3.71,-0.22,-0.72,3.78
20.864797830581665,0.83,0.25,0.31,0.92
20.879535913467407,6.78,-2.51,2.82,7.76
20.910202026367188,4.7,-4.35,0.12,6.4
20.9115629196167,-2.09,-1.55,-2.02,3.29
20.912596702575684,-7.49,-0.1,0.74,7.52
20.93061876296997,-10.69,-0.5,0.67,10.72
20.931684970855713,-12.31,-1.66,0.25,12.42
20.946862936019897,-13.1,-2.91,-0.19,13.42
20.9478497505188,-12.3,-4.09,0.05,12.96
20.963721752166748,-9.15,-4.54,0.97,10.26
20.964759826660156,-5.58,-5.0,1.09,7.57
20.97929883003235,-3.68,-5.12,0.84,6.36
20.983123779296875,-3.25,-4.95,0.95,5.99
21.02175784111023,-3.32,-5.15,1.05,6.21
21.022950887680054,-3.51,-5.35,1.09,6.49
21.02418088912964,-3.35,-5.42,0.79,6.42
21.02638292312622,-3.22,-5.58,0.04,6.44
21.04717993736267,-3.42,-5.49,-0.47,6.48
21.048171997070312,-3.78,-5.04,-0.45,6.31
21.06334090232849,-4.15,-4.59,-0.31,6.19
21.06437087059021,-4.22,-4.47,-0.11,6.14
21.07927393913269,-3.74,-4.57,0.16,5.9
21.08240270614624,-2.81,-4.82,0.42,5.59
21.122500896453857,-2.08,-4.9,0.83,5.38
21.123623847961426,-1.8,-4.41,1.51,4.99
21.124868869781494,-1.77,-3.55,1.72,4.32
21.128081798553467,-1.2,-2.4,1.15,2.91
21.131913900375366,0.41,-0.82,0.38,0.99
21.14160394668579,2.72,1.19,-0.61,3.03
21.151610851287842,5.05,3.46,-1.36,6.27
21.16152787208557,7.11,6.03,-1.47,9.43
21.17188596725464,9.04,8.31,-1.75,12.4
21.182050704956055,11.47,9.18,-2.01,14.82
21.21268081665039,14.32,8.83,-2.52,17.01
21.213897705078125,16.95,7.87,-3.12,18.94
21.21492886543274,18.74,6.51,-4.09,20.25
21.23062491416931,20.19,5.23,-5.1,21.47
21.23163604736328,21.39,3.83,-4.33,22.15
21.24688196182251,22.29,2.14,-3.28,22.63
21.251035928726196,22.43,0.65,-1.9,22.51
21.261525869369507,20.91,-0.35,-0.48,20.91
21.27114772796631,17.05,-0.24,0.23,17.05
21.280824899673462,10.44,5.68,3.26,12.32
21.312882900238037,2.99,8.41,3.65,9.64
21.314246892929077,-5.08,2.02,2.59,6.04
21.315281867980957,-12.89,2.62,6.21,14.54
21.330994844436646,-17.48,12.69,1.49,21.65
21.332095861434937,-17.72,18.78,-0.07,25.82
21.346121788024902,-16.06,15.34,-3.02,22.41
21.35019874572754,-7.57,7.96,-4.33,11.8
21.363944053649902,1.23,1.79,-3.45,4.07
21.370474815368652,7.38,-2.48,-2.51,8.18
21.380162715911865,9.81,-6.93,-2.15,12.2
21.418910026550293,11.1,-8.52,-2.44,14.2
21.420297861099243,12.31,-6.51,-0.96,13.95
21.421401977539062,12.72,-2.73,2.11,13.17
21.430830001831055,9.2,0.35,1.42,9.31
21.43186378479004,3.53,0.89,-0.1,3.64
21.44724702835083,0.11,0.79,0.35,0.87
21.44942283630371,-1.83,1.22,0.54,2.26
21.463989734649658,-2.43,1.22,1.32,3.02
21.469594955444336,-0.92,-0.27,1.46,1.74
21.479658842086792,1.02,-1.3,0.73,1.8
21.5172438621521,1.75,-0.99,0.0,2.01
21.51861882209778,1.52,-0.23,-0.61,1.65
21.519625902175903,0.91,0.53,-0.99,1.44
21.530208826065063,0.64,0.42,-1.64,1.8
21.5312557220459,0.65,0.01,-1.61,1.73
21.547379970550537,0.28,-0.14,-0.96,1.0
21.5485520362854,-0.4,-0.23,-0.58,0.74
21.563632011413574,-0.5,-0.02,0.12,0.51
21.569005966186523,-0.25,0.29,1.06,1.12
21.579730987548828,-0.35,0.4,1.71,1.79
21.61625576019287,-0.47,0.39,1.24,1.38
21.617586851119995,-0.24,0.32,-0.1,0.41
21.61860179901123,0.19,0.21,-1.26,1.29
21.630998849868774,0.15,0.26,-1.36,1.39
21.63207983970642,-0.4,0.42,-0.54,0.79
21.647160053253174,-0.94,0.38,0.24,1.04
21.64819097518921,-1.12,0.37,0.5,1.28
21.662750720977783,-1.02,0.53,0.6,1.29
21.667682886123657,-0.74,0.63,0.56,1.12
21.679598808288574,-0.43,0.47,0.31,0.7
21.714228868484497,-0.34,0.21,0.11,0.41
21.715613842010498,-0.61,0.02,-0.04,0.61
21.716652870178223,-1.03,0.09,-0.14,1.04
21.731031894683838,-1.21,0.35,-0.29,1.29
21.73208999633789,-0.81,0.7,-0.52,1.19
21.747329711914062,-0.26,0.84,-0.84,1.21
21.7483549118042,-0.26,0.94,-0.88,1.31
21.764371871948242,-1.08,1.32,-0.38,1.74
21.76732087135315,-2.11,1.76,0.08,2.74
21.77950382232666,-2.73,2.27,0.62,3.6
21.787022829055786,-2.76,2.59,0.99,3.91
21.821815013885498,-2.37,2.62,1.13,3.7
21.823007822036743,-2.16,2.76,0.85,3.6
21.824238777160645,-2.02,3.1,0.44,3.72
21.827620029449463,-2.08,3.53,0.18,4.1
21.84728693962097,-2.56,3.96,0.0,4.71
21.8483829498291,-3.27,4.4,-0.04,5.48
21.863313913345337,-4.04,4.99,0.22,6.42
21.866822719573975,-4.88,5.68,0.36,7.49
21.879718780517578,-5.74,6.6,0.61,8.76
21.886348724365234,-6.64,8.17,0.66,10.54
21.924490928649902,-7.76,9.37,-0.45,12.17
21.925667762756348,-9.22,10.09,-1.62,13.76
21.926677703857422,-10.66,10.81,-2.03,15.31
21.948120832443237,-11.61,11.08,-2.64,16.26
21.94917893409729,-12.17,11.07,-4.04,16.94
21.963826894760132,-12.37,12.86,-3.26,18.13
21.964930057525635,-10.41,15.69,-3.4,19.13
21.977983951568604,-4.61,15.83,-8.02,18.33
21.979508876800537,0.55,12.66,-10.12,16.21
21.996541023254395,1.79,10.26,-6.15,12.09
22.027273893356323,-1.5,6.64,-2.04,7.1
22.02854585647583,-3.66,0.24,-0.09,3.66
22.02955198287964,0.46,-0.5,-0.34,0.75
22.04792284965515,8.16,-0.04,1.29,8.26
22.04898500442505,8.81,-2.55,1.14,9.24
22.063862800598145,1.89,-0.69,-2.8,3.44
22.06488800048828,-5.5,0.85,-0.75,5.61
22.0809588432312,-10.26,0.52,0.61,10.29
22.08244276046753,-12.7,-0.55,0.58,12.72
22.09671187400818,-14.52,-1.74,0.92,14.65
22.126049041748047,-15.12,-3.41,1.17,15.54
22.127487897872925,-13.62,-5.01,2.57,14.73
22.128511905670166,-8.94,-6.07,4.6,11.74
22.147819995880127,-4.15,-6.5,4.26,8.81
22.148865938186646,-1.72,-5.93,2.48,6.65
22.163326740264893,-1.01,-5.24,1.11,5.45
22.16429901123047,-1.82,-5.14,0.28,5.45
22.181091785430908,-2.92,-4.97,-0.3,5.77
22.18257188796997,-3.16,-4.64,-1.31,5.76
22.196444988250732,-2.67,-4.01,-2.17,5.28
22.226443767547607,-2.12,-3.54,-2.59,4.87
22.227921962738037,-1.85,-3.46,-2.54,4.67
22.22890281677246,-1.86,-3.82,-1.9,4.65
22.24785804748535,-2.02,-4.55,-0.8,5.04
22.24887704849243,-2.12,-5.41,0.35,5.82
22.263754844665527,-2.1,-6.12,1.02,6.55
22.265246868133545,-2.13,-6.49,1.38,6.96
22.28115487098694,-2.33,-6.67,1.52,7.22
22.282641887664795,-2.61,-6.47,1.77,7.19
22.29519271850586,-2.69,-5.67,2.37,6.7
22.324126720428467,-2.43,-4.5,2.78,5.82
22.325564861297607,-1.29,-3.22,2.47,4.25
22.326546907424927,1.07,-1.62,2.05,2.82
22.328109741210938,4.1,0.59,1.4,4.37
22.332804918289185,7.35,2.9,0.48,7.91
22.342891931533813,10.67,5.2,-0.05,11.86
22.352871894836426,13.37,7.42,-0.84,15.31
22.3628249168396,15.5,8.57,-1.77,17.79
22.372752904891968,17.32,8.74,-2.54,19.56
22.382835865020752,18.67,8.89,-3.34,20.94
22.41953682899475,19.89,9.06,-4.19,22.25
22.42081093788147,21.32,7.16,-4.54,22.94
22.421802043914795,22.22,3.94,-3.99,22.91
22.42937684059143,21.44,6.14,-1.47,22.35
22.43196988105774,17.38,3.48,-1.51,17.78
22.44757604598999,5.61,-2.65,-0.75,6.24
22.451802730560303,-8.7,1.28,3.48,9.45
22.464033842086792,-14.48,12.28,4.05,19.41
22.471597909927368,-15.18,22.7,3.41,27.52
22.4821720123291,-14.4,19.8,0.46,24.48
22.51936674118042,-8.89,6.93,-4.33,12.07
22.520456790924072,0.67,1.2,-4.9,5.08
22.521304845809937,7.53,-3.6,-2.3,8.65
22.52808904647827,11.3,-6.14,0.83,12.88
22.531298875808716,12.8,-7.11,0.25,14.64
22.54733371734619,13.19,-6.46,0.23,14.68
22.551269054412842,11.23,-3.14,0.43,11.66
22.564308881759644,6.2,0.02,-0.81,6.25
22.57092571258545,1.8,0.77,-0.79,2.11
22.58115291595459,-0.9,1.25,-0.38,1.58
22.59101891517639,-2.14,1.24,-0.06,2.47
22.623570919036865,-1.32,0.69,0.91,1.74
22.624725818634033,1.01,-0.23,0.84,1.33
22.62586283683777,2.42,-0.81,0.09,2.55
22.63047981262207,2.29,-0.85,-0.29,2.45
22.640564918518066,1.58,-0.45,-0.27,1.66
22.650742053985596,1.09,-0.01,-0.3,1.13
22.660627841949463,0.9,0.11,-0.68,1.13
22.6700758934021,0.71,0.17,-0.97,1.21
22.68032193183899,0.34,0.22,-0.84,0.93
22.69022798538208,0.05,0.24,-0.12,0.27
22.722004890441895,0.0,0.16,0.42,0.44
22.722983837127686,0.06,0.03,0.27,0.27
22.723952770233154,-0.08,0.03,0.12,0.14
22.729601860046387,-0.35,0.2,-0.05,0.4
22.747859001159668,-0.36,0.24,-0.28,0.51
22.749565839767456,-0.21,0.25,-0.31,0.45
22.764225006103516,-0.11,0.21,-0.25,0.34
22.769536018371582,-0.25,0.11,-0.46,0.53
22.77957582473755,-0.61,0.28,-0.37,0.76
22.7896568775177,-1.0,0.57,-0.11,1.15
22.820985794067383,-1.01,0.62,0.09,1.18
22.822351932525635,-0.75,0.45,0.37,0.94
22.823365926742554,-0.43,0.36,0.64,0.85
22.82888174057007,-0.1,0.31,0.62,0.7
22.83906388282776,0.09,0.32,0.67,0.74
22.848703861236572,0.07,0.28,0.78,0.83
22.858999729156494,-0.29,0.17,0.68,0.75
22.868700981140137,-0.35,0.17,0.42,0.57
22.878973960876465,-0.2,0.1,-0.12,0.25
22.889058828353882,-0.25,0.45,-0.29,0.59
22.920044898986816,-0.68,0.73,-0.34,1.05
22.921364784240723,-1.46,0.95,-0.06,1.74
22.9223690032959,-2.24,1.14,0.2,2.52
22.928889751434326,-2.81,1.05,0.26,3.01
22.93837881088257,-2.87,1.03,0.36,3.07
22.948181867599487,-2.26,1.11,-0.18,2.52
22.95807981491089,-1.54,1.3,-0.8,2.16
22.967979907989502,-1.39,1.81,-0.99,2.48
22.97819685935974,-1.82,2.43,-1.03,3.2
22.988231897354126,-2.38,3.09,-0.87,3.99
23.027114868164062,-2.93,3.59,-0.61,4.67
23.028522968292236,-3.36,3.82,-0.33,5.09
23.02951693534851,-3.56,3.96,0.18,5.32
23.048465728759766,-3.84,4.06,0.41,5.6
23.049468994140625,-4.19,4.27,0.56,6.0
23.064632892608643,-4.46,5.02,0.98,6.78
23.066088914871216,-4.79,6.03,1.19,7.79
23.081363916397095,-5.68,7.02,1.1,9.09
23.0828218460083,-7.05,8.16,1.08,10.83
23.097990036010742,-8.52,9.47,0.81,12.76
23.127797842025757,-9.8,10.32,-0.32,14.23
23.129138946533203,-11.2,10.86,-1.44,15.66
23.130125999450684,-12.1,12.35,-2.29,17.44
23.148581981658936,-10.7,14.88,-3.8,18.71
23.14962673187256,-5.73,15.06,-8.69,18.3
23.16469693183899,-0.09,14.3,-10.46,17.71
23.165794849395752,2.27,12.5,-5.52,13.85
23.181472778320312,0.63,7.9,-2.13,8.2
23.182950019836426,-3.13,3.83,0.64,4.98
23.197107791900635,-3.86,-0.85,-1.25,4.14
23.228736877441406,1.62,-0.24,-3.96,4.28
23.23006582260132,8.07,0.3,-1.47,8.2
23.231088876724243,6.23,-2.19,-1.43,6.75
23.248453855514526,-1.77,-1.45,-3.91,4.53
23.249456882476807,-7.55,-1.22,-0.88,7.69
23.26467490196228,-10.75,-2.03,-0.4,10.94
23.265666961669922,-12.53,-2.88,-0.61,12.87
23.281775951385498,-13.81,-3.77,-0.86,14.34
23.28326988220215,-14.12,-4.3,-0.27,14.76
23.297266006469727,-12.6,-4.28,1.64,13.4
23.328337907791138,-9.73,-4.64,2.85,11.15
23.329627990722656,-6.67,-5.27,2.82,8.95
23.330636024475098,-5.21,-4.87,2.1,7.43
23.348585844039917,-5.3,-3.95,1.54,6.78
23.349650859832764,-5.51,-3.48,1.08,6.6
23.36462688446045,-5.35,-3.15,0.01,6.2
23.36565089225769,-5.05,-2.82,-1.19,5.9
23.381510734558105,-4.89,-2.17,-1.88,5.67
23.382956981658936,-4.77,-0.73,-1.48,5.04
23.39695978164673,-4.12,0.64,-1.78,4.53
23.39845895767212,-1.77,0.09,-3.93,4.31
23.44731903076172,1.28,-0.96,-5.71,5.92
23.44850182533264,3.77,-0.79,-5.89,7.03
23.44950771331787,5.31,0.05,-4.85,7.19
23.465369939804077,5.71,0.14,-4.22,7.1
23.46643090248108,5.09,-0.54,-3.67,6.29
23.481453895568848,4.27,-0.69,-2.98,5.25
23.482947826385498,4.44,0.08,-2.35,5.02
23.498075008392334,4.81,0.85,-1.51,5.11
23.499568939208984,4.67,1.48,-0.08,4.89
23.5138578414917,4.57,2.28,1.44,5.3
23.545901775360107,5.87,3.14,1.73,6.87
23.547176837921143,8.11,3.58,0.4,8.87
23.548161029815674,9.83,4.48,-0.86,10.83
23.564976930618286,11.44,5.61,-2.14,12.91
23.566004753112793,12.97,5.83,-3.01,14.53
23.581334829330444,14.31,5.36,-3.02,15.57
23.582400798797607,15.19,4.01,-2.38,15.88
23.598365783691406,15.34,2.38,-0.97,15.55
23.599835872650146,14.88,0.91,0.54,14.91
23.613866806030273,14.22,-0.59,1.59,14.32
23.64394998550415,13.52,-1.6,2.33,13.81
23.645344734191895,12.8,-2.04,2.55,13.21
23.646363735198975,11.82,-1.96,2.68,12.27
23.665287017822266,10.84,-1.31,2.83,11.27
23.666297912597656,7.91,0.8,3.1,8.53
23.681379795074463,0.7,4.3,5.58,7.07
23.68241596221924,-6.42,2.26,2.64,7.3
23.698428869247437,-10.85,0.29,-0.58,10.86
23.70001482963562,-13.35,11.46,-2.62,17.78
23.71236801147461,-11.01,29.32,4.23,31.6
23.740970849990845,-6.56,25.63,1.78,26.51
23.742231845855713,-3.34,5.1,-5.17,7.99
23.74311089515686,2.33,-4.14,-3.51,5.9
23.74445390701294,8.7,-4.09,-0.52,9.62
23.745584964752197,11.82,-6.38,4.27,14.09
23.752444744110107,11.98,-8.52,3.74,15.16
23.762227058410645,11.51,-6.53,-0.12,13.23
23.772207736968994,9.96,-1.76,0.19,10.11
23.782022953033447,5.46,0.65,-0.5,5.52
23.79178476333618,1.35,0.58,-1.36,2.0
23.826964855194092,-0.86,1.31,-1.92,2.47
23.82819175720215,-1.8,2.41,-1.71,3.46
23.828989028930664,-1.22,1.97,-0.84,2.46
23.848700046539307,0.71,-0.02,-0.24,0.74
23.849731922149658,2.24,-1.6,0.24,2.76
23.864481925964355,2.53,-1.87,0.85,3.25
23.865538835525513,1.75,-1.18,0.96,2.31
23.88159489631653,0.81,-0.38,0.43,0.99
23.883015871047974,0.44,0.12,-0.24,0.51
23.897414922714233,0.61,0.24,-0.38,0.75
23.929489850997925,0.9,0.04,-0.08,0.9
23.930891036987305,0.68,-0.03,0.38,0.77
23.931907892227173,0.31,0.0,0.32,0.44
23.949073791503906,0.0,-0.06,-0.34,0.34
23.950121879577637,-0.24,-0.01,-0.88,0.91
23.964661836624146,-0.38,0.13,-0.86,0.94
23.965715885162354,-0.28,0.16,-0.02,0.32
23.981791019439697,-0.09,0.0,0.63,0.63
23.98327088356018,-0.14,-0.09,0.31,0.35
23.997203826904297,-0.39,0.17,-0.49,0.64
24.027513027191162,-0.52,0.5,-0.81,1.08
24.028976917266846,-0.51,0.48,-0.4,0.8
24.03004789352417,-0.42,0.22,-0.08,0.48
24.048597812652588,-0.43,0.13,-0.02,0.44
24.04960870742798,-0.4,0.21,-0.13,0.47
24.064769744873047,-0.2,0.23,-0.33,0.44
24.06576681137085,-0.22,0.28,-0.13,0.37
24.082969903945923,-0.67,0.34,0.49,0.89
24.084463834762573,-1.03,0.33,0.6,1.23
24.09692692756653,-1.21,0.3,0.15,1.25
24.12794780731201,-1.32,0.5,-0.36,1.45
24.129353046417236,-1.44,0.67,-0.85,1.8
24.130364894866943,-1.52,0.73,-1.19,2.06
24.148945808410645,-1.45,0.59,-1.28,2.02
24.14997887611389,-1.3,0.51,-0.82,1.61
24.1649808883667,-1.19,0.53,-0.5,1.39
24.165979862213135,-1.21,0.6,-0.33,1.39
24.181819915771484,-1.33,0.82,-0.11,1.56
24.183283805847168,-1.45,1.13,0.04,1.83
24.197523832321167,-1.7,1.46,0.08,2.24
24.19900894165039,-2.11,2.16,-0.15,3.02
24.243170738220215,-2.56,3.55,-0.07,4.37
24.24433994293213,-2.76,4.81,-0.09,5.54
24.24535894393921,-3.07,5.15,-0.37,6.0
24.265591859817505,-3.72,5.5,-0.23,6.64
24.266664028167725,-4.49,6.48,0.15,7.88
24.281805992126465,-5.36,7.73,-0.1,9.4
24.28286600112915,-6.04,9.79,-0.2,11.5
24.297632932662964,-6.44,12.7,-0.24,14.24
24.29928684234619,-7.46,14.76,-1.37,16.59
24.31224489212036,-9.0,14.97,-2.74,17.68
24.341508865356445,-10.25,14.44,-2.71,17.91
24.34300184249878,-11.2,13.15,-3.64,17.65
24.34404492378235,-11.54,11.25,-5.02,16.88
24.346333026885986,-12.16,10.93,-4.69,17.0
24.347810745239258,-10.56,15.26,-1.75,18.63
24.357674837112427,-5.35,16.61,-4.65,18.05
24.367692947387695,1.04,10.57,-9.68,14.37
24.37761092185974,4.51,5.24,-5.88,9.07
24.3875949382782,3.67,-0.99,-3.6,5.23
24.397305011749268,4.13,-1.41,2.2,4.88
24.428907871246338,2.69,-5.44,7.74,9.83
24.43008804321289,-2.7,-7.27,2.87,8.26
24.431015968322754,-6.82,-4.12,1.62,8.13
24.449227809906006,-9.07,-1.04,1.35,9.22
24.450265884399414,-10.53,-0.72,0.04,10.55
24.464941024780273,-10.9,-1.65,0.3,11.02
24.466761827468872,-8.7,-2.69,1.75,9.27
24.48171901702881,-5.31,-4.09,2.18,7.04
24.486602783203125,-3.99,-4.93,1.82,6.59
24.49744987487793,-3.91,-5.09,1.72,6.64
24.52735686302185,-3.91,-5.31,1.79,6.83
24.528504848480225,-4.05,-5.71,1.73,7.21
24.52932071685791,-4.16,-6.07,1.38,7.48
24.548929929733276,-4.29,-6.14,1.02,7.55
24.549981832504272,-4.28,-6.07,0.86,7.47
24.564921855926514,-4.16,-6.02,0.88,7.37
24.565886974334717,-4.07,-6.08,0.91,7.37
24.581871032714844,-3.98,-6.29,0.98,7.5
24.586180925369263,-4.01,-6.34,1.17,7.59
24.597165822982788,-4.19,-6.42,1.25,7.76
24.634305953979492,-4.2,-6.4,1.39,7.78
24.635576725006104,-3.98,-6.19,1.75,7.56
24.636569023132324,-3.6,-6.0,2.02,7.28
24.649131774902344,-3.29,-5.51,2.37,6.84
24.650214910507202,-3.05,-4.81,2.43,6.19
24.665464878082275,-2.46,-3.94,2.13,5.1
24.66648292541504,-0.6,-2.79,1.75,3.34
24.68203592300415,2.57,-1.66,1.07,3.24
24.685240745544434,5.61,-0.64,0.48,5.66
24.697514057159424,7.56,0.72,0.23,7.59
24.73210382461548,8.64,2.3,-0.03,8.94
24.73341703414917,9.47,3.73,-0.57,10.19
24.734506845474243,10.64,4.8,-1.59,11.78
24.74937891960144,12.13,5.69,-2.96,13.72
24.75039577484131,13.47,6.33,-4.19,15.46
24.765254974365234,14.33,6.52,-4.87,16.47
24.766312837600708,14.88,6.54,-4.88,16.97
24.781314849853516,15.34,6.15,-4.83,17.21
24.784632921218872,15.74,5.04,-5.13,17.3
24.796464920043945,15.86,3.42,-4.78,16.91
24.83076286315918,15.49,2.18,-3.15,15.95
24.832097053527832,11.09,4.83,1.3,12.16
24.83307695388794,2.71,9.06,5.04,10.71
24.84571886062622,-5.02,6.81,5.97,10.35
24.846722841262817,-12.94,5.25,8.94,16.58
24.862263917922974,-15.13,9.49,6.71,19.07
24.863816738128662,-11.92,13.79,1.7,18.3
24.879374980926514,-5.73,11.12,-1.88,12.64
24.883872032165527,0.82,5.19,-4.67,7.02
24.89628291130066,5.54,0.35,-2.6,6.12
24.93285894393921,9.55,-0.47,-1.29,9.64
24.934233903884888,10.86,-3.85,-1.51,11.62
24.935214042663574,10.61,-4.54,-2.33,11.77
24.94763994216919,8.81,-1.73,-2.1,9.22
24.948698043823242,5.53,-0.16,-3.07,6.32
24.96502685546875,3.05,0.33,-3.63,4.75
24.966046810150146,1.04,0.64,-1.52,1.94
24.981919765472412,-0.01,0.31,1.6,1.62
24.982937812805176,0.13,-0.18,3.92,3.92
24.99766993522644,0.19,-0.41,3.48,3.5
25.002869844436646,0.19,-0.64,1.36,1.51
25.042337894439697,0.7,-0.65,0.22,0.98
25.043561935424805,1.3,-0.39,-0.12,1.36
25.04454493522644,1.54,-0.35,-0.25,1.59
25.065136909484863,1.56,-0.38,-0.28,1.62
25.06617283821106,1.34,-0.15,-0.52,1.44
25.08195400238037,0.9,0.14,-1.13,1.45
25.082945823669434,0.49,0.27,-1.59,1.68
25.099291801452637,0.08,0.34,-1.07,1.12
25.10077476501465,-0.22,0.28,0.03,0.35
25.11472797393799,-0.25,-0.01,1.21,1.23
25.144428730010986,-0.13,-0.31,1.46,1.49
25.145810842514038,0.11,-0.24,0.87,0.9
25.14681100845337,0.26,0.02,-0.44,0.51
25.1666259765625,0.18,0.28,-1.32,1.36
25.16771388053894,-0.05,0.35,-1.21,1.26
25.18119478225708,-0.35,0.19,-0.7,0.8
25.18217182159424,-0.7,0.18,-0.1,0.72
25.19937491416931,-0.96,0.4,0.36,1.1
25.200809001922607,-0.96,0.48,0.47,1.17
25.214571952819824,-0.64,0.4,0.41,0.85
25.242815017700195,-0.45,0.24,0.17,0.53
25.244085788726807,-0.48,0.1,0.04,0.49
25.245079040527344,-0.6,0.01,-0.1,0.6
25.26607894897461,-0.64,0.02,-0.28,0.69
25.26715898513794,-0.56,0.14,-0.32,0.66
25.281914710998535,-0.49,0.23,-0.35,0.64
25.282922744750977,-0.56,0.3,-0.24,0.67
25.29935884475708,-0.77,0.42,0.0,0.87
25.300837993621826,-0.89,0.52,0.0,1.03
25.314673900604248,-0.99,0.63,-0.18,1.18
25.34384775161743,-1.09,0.8,-0.18,1.36
25.345067024230957,-1.2,0.95,-0.02,1.53
25.346077919006348,-1.27,1.01,0.11,1.62
25.366117000579834,-1.31,0.92,-0.14,1.6
25.367111921310425,-1.51,1.13,-0.21,1.89
25.382051944732666,-1.81,1.9,-0.15,2.62
25.383121967315674,-2.04,2.76,-0.23,3.43
25.39926290512085,-2.04,3.38,-0.04,3.94
25.400567054748535,-2.14,3.77,0.36,4.34
25.41464900970459,-2.41,3.95,0.63,4.66
25.44462776184082,-2.78,4.0,0.62,4.91
25.445955753326416,-3.08,4.12,0.45,5.16
25.446979999542236,-3.41,4.55,0.4,5.7
25.46613383293152,-3.77,5.23,0.44,6.46
25.467205047607422,-4.41,5.98,0.1,7.43
25.48216676712036,-5.18,6.96,0.08,8.67
25.483211994171143,-6.13,8.34,0.54,10.36
25.499130725860596,-7.65,10.13,0.66,12.71
25.50061273574829,-9.22,11.6,0.02,14.81
25.514898777008057,-10.21,12.51,-0.74,16.16
25.54436492919922,-10.91,12.53,-1.88,16.72
25.54570198059082,-11.88,12.2,-3.23,17.33
25.546710968017578,-12.36,13.33,-2.26,18.31
25.566072940826416,-9.61,14.51,-2.84,17.63
25.567144870758057,-3.42,13.73,-6.83,15.71
25.582043886184692,1.08,10.34,-6.74,12.38
25.58307695388794,2.08,6.24,-2.75,7.12
25.59921383857727,-1.36,1.91,-0.04,2.34
25.600698947906494,-3.25,-1.9,0.35,3.78
25.61481475830078,1.73,-1.01,0.9,2.19
25.64459800720215,6.91,-3.21,2.87,8.14
25.645938873291016,5.08,-3.86,0.77,6.42
25.647021770477295,-1.71,-0.58,-0.81,1.97
25.665984869003296,-7.33,0.53,1.69,7.54
25.667078971862793,-10.34,-0.09,1.27,10.41
25.682233810424805,-11.59,-1.56,0.65,11.71
25.683283805847168,-11.86,-2.99,0.38,12.23
25.6994309425354,-10.62,-3.36,1.32,11.21
25.70088481903076,-7.58,-3.34,2.61,8.68
25.714951992034912,-4.95,-4.05,3.21,7.15
25.744096755981445,-4.09,-4.16,3.16,6.63
25.74552297592163,-4.18,-4.04,3.03,6.55
25.74652099609375,-4.4,-4.15,2.6,6.58
25.766127824783325,-4.46,-4.26,2.09,6.51
25.767151832580566,-4.4,-4.25,1.44,6.28
25.782282829284668,-4.14,-4.09,0.93,5.89
25.78330683708191,-3.79,-3.85,0.59,5.43
25.799075841903687,-3.46,-4.03,0.2,5.31
25.800561904907227,-3.23,-4.51,-0.04,5.54
25.815050840377808,-3.17,-5.05,-0.31,5.97
25.816560745239258,-3.16,-5.2,-0.37,6.09
25.860281944274902,-3.08,-4.76,0.18,5.67
25.861459732055664,-2.72,-4.25,0.79,5.1
25.862469911575317,-1.74,-3.93,0.72,4.35
25.882884979248047,-0.3,-3.7,0.11,3.71
25.883923053741455,0.82,-3.08,-0.15,3.19
25.898891925811768,1.42,-1.82,0.18,2.31
25.89989686012268,2.25,0.04,0.77,2.37
25.916209936141968,4.03,2.19,0.87,4.66
25.917670726776123,6.57,4.02,0.09,7.7
25.931342840194702,9.48,5.48,-1.09,11.0
25.960378885269165,12.38,7.07,-2.24,14.43
25.961911916732788,15.03,8.52,-3.31,17.59
25.962929725646973,17.34,8.82,-4.16,19.89
25.982823848724365,19.21,7.7,-4.26,21.12
25.983882904052734,20.57,6.1,-4.06,21.83
25.998860836029053,21.27,3.53,-3.61,21.86
25.999894857406616,20.61,1.04,-2.84,20.83
26.015846729278564,18.95,-0.53,-1.73,19.03
26.0173020362854,17.47,-1.87,-1.08,17.6
26.031285762786865,14.81,-0.73,0.35,14.83
26.06149983406067,7.27,6.12,3.51,10.13
26.062829971313477,-2.74,4.06,4.06,6.36
26.06385374069214,-13.66,1.19,5.9,14.92
26.08165693283081,-18.99,11.89,2.79,22.57
26.082762718200684,-18.74,22.82,2.2,29.61
26.09898281097412,-15.92,17.94,-2.83,24.15
26.100050926208496,-7.72,6.73,-7.73,12.83
26.11623787879944,0.85,0.18,-3.81,3.9
26.11768889427185,7.86,0.28,-0.67,7.89
26.131481885910034,10.94,-4.11,1.7,11.8
26.16029977798462,11.69,-8.01,-1.23,14.22
26.1616530418396,12.62,-7.04,-2.53,14.67
26.162664890289307,12.63,-3.92,-1.6,13.32
26.183106899261475,10.04,-0.64,-1.24,10.13
26.18414878845215,4.6,1.03,-1.71,5.01
26.198591709136963,0.57,1.36,-0.49,1.55
26.199591875076294,-1.7,1.43,0.3,2.24
26.216551780700684,-2.28,0.91,1.97,3.14
26.21804904937744,-0.42,-0.51,3.08,3.15
26.231587886810303,1.67,-1.69,1.86,3.01
26.261018753051758,2.14,-1.37,0.49,2.58
26.262335777282715,1.85,-0.47,-0.39,1.94
26.263142824172974,1.4,0.1,-0.59,1.52
26.282715797424316,0.94,0.02,-0.42,1.02
26.283684730529785,0.93,-0.29,-0.36,1.03
26.299365043640137,1.24,-0.3,-0.35,1.32
26.300402879714966,1.17,-0.03,-0.44,1.25
26.31601572036743,0.52,0.21,-0.54,0.77
26.31738805770874,-0.19,0.33,-0.53,0.65
26.33175277709961,-0.51,0.31,-0.13,0.61
26.361657857894897,-0.65,0.27,0.66,0.96
26.36309003829956,-0.73,0.21,0.81,1.11
26.36411190032959,-0.49,0.14,0.08,0.51
26.38283395767212,-0.22,0.14,-0.94,0.97
26.383846759796143,-0.11,0.19,-1.47,1.48
26.398996829986572,-0.33,0.21,-1.36,1.41
26.400028705596924,-0.67,0.26,-0.77,1.05
26.416358947753906,-0.79,0.24,0.03,0.82
26.417836904525757,-0.49,0.2,0.53,0.74
26.43131971359253,-0.07,0.15,0.6,0.62
26.46076989173889,0.13,0.16,0.51,0.55
26.462085723876953,0.06,0.15,0.22,0.27
26.463106870651245,-0.26,0.19,0.01,0.32
26.482975959777832,-0.61,0.27,-0.11,0.67
26.484047889709473,-0.85,0.33,-0.19,0.93
26.499742031097412,-0.9,0.47,-0.21,1.03
26.501220703125,-0.81,0.65,-0.09,1.04
26.516386032104492,-0.7,0.7,-0.03,0.99
26.517863750457764,-0.74,0.6,0.01,0.95
26.531707763671875,-1.02,0.68,0.03,1.22
26.56123971939087,-1.44,0.76,-0.05,1.62
26.56255292892456,-1.78,0.84,-0.23,1.98
26.56357192993164,-1.94,0.98,-0.34,2.19
26.582913875579834,-1.99,1.08,-0.6,2.34
26.58391571044922,-2.09,1.52,-0.3,2.6
26.59962797164917,-1.98,2.02,-0.39,2.85
26.600663900375366,-1.67,2.57,-0.44,3.09
26.61658000946045,-1.51,2.98,-0.32,3.35
26.617992877960205,-1.71,3.24,0.02,3.66
26.63170289993286,-2.13,3.39,0.14,4.0
26.633179903030396,-2.61,3.52,0.37,4.39
26.6781907081604,-2.92,3.84,0.54,4.85
26.67942190170288,-3.32,4.33,0.71,5.5
26.68042278289795,-3.92,5.2,0.82,6.56
26.700297832489014,-4.73,6.32,0.88,7.94
26.701379776000977,-5.73,7.83,0.96,9.75
26.716091871261597,-6.74,9.68,0.61,11.81
26.71760082244873,-7.98,11.22,-0.75,13.78
26.733060836791992,-9.03,11.86,-2.11,15.05
26.734539031982422,-9.53,11.64,-2.75,15.29
26.74753999710083,-10.37,10.65,-3.61,15.29
26.777572870254517,-11.71,11.07,-3.26,16.44
26.778931856155396,-11.79,13.53,-2.37,18.1
26.779945850372314,-7.5,15.01,-5.33,17.6
26.800100803375244,-1.93,13.51,-8.29,15.96
26.801167964935303,1.32,10.55,-4.97,11.73
26.816216945648193,1.23,6.52,-1.22,6.74
26.817267894744873,-1.69,1.2,-0.43,2.11
26.833276748657227,-1.78,-1.77,-1.2,2.78
26.834764003753662,3.43,-0.17,0.11,3.43
26.84866189956665,5.79,-2.55,1.52,6.5
26.87830090522766,0.96,-1.6,-2.36,3.0
26.879665851593018,-5.4,1.07,-1.28,5.65
26.88076090812683,-9.05,1.49,0.14,9.17
26.899855852127075,-10.82,-0.01,-0.71,10.84
26.900895833969116,-11.86,-1.34,-1.01,11.97
26.91630792617798,-11.73,-2.02,-0.27,11.9
26.917351722717285,-9.48,-2.8,1.39,9.98
26.933084964752197,-6.39,-3.91,1.96,7.74
26.934555053710938,-4.08,-4.55,2.22,6.5
26.94876194000244,-3.24,-4.32,1.96,5.74
26.97740387916565,-3.17,-4.0,1.32,5.27
26.978801727294922,-3.61,-4.06,0.61,5.46
26.97980499267578,-4.02,-4.0,-0.02,5.67
27.000077724456787,-3.81,-3.65,-0.81,5.33
27.00111484527588,-3.23,-3.45,-1.67,5.01
27.01612687110901,-2.54,-3.36,-2.08,4.69
27.01718783378601,-1.97,-3.58,-2.03,4.56
27.034196853637695,-1.7,-4.22,-1.62,4.82
27.035686016082764,-1.73,-5.0,-1.19,5.42
27.049003839492798,-1.82,-5.63,-0.74,5.96
27.07962989807129,-1.95,-5.84,-0.13,6.15
27.080967903137207,-1.98,-5.77,0.65,6.13
27.081929922103882,-1.67,-5.67,0.89,5.97
27.1000018119812,-0.92,-5.41,0.68,5.52
27.101061820983887,0.05,-4.66,0.66,4.7
27.116326808929443,1.08,-3.6,0.85,3.85
27.117430925369263,2.63,-2.46,1.37,3.85
27.13327383995056,4.65,-1.2,1.69,5.09
27.134668827056885,6.67,-0.06,1.22,6.78
27.14873170852661,8.72,1.2,0.38,8.81
27.178777933120728,10.9,2.55,-0.74,11.21
27.180177927017212,13.23,3.85,-2.08,13.93
27.18120288848877,15.4,5.06,-3.44,16.57
27.199986934661865,17.18,6.45,-3.54,18.68
27.201037883758545,18.85,7.8,-2.3,20.52
27.216696739196777,20.15,7.71,-1.65,21.63
27.21815776824951,21.23,5.32,-0.91,21.9
27.23305082321167,21.71,3.15,0.74,21.94
27.234521865844727,20.6,1.92,2.19,20.8
27.248584747314453,17.55,1.16,2.5,17.76
27.280659914016724,14.02,2.46,2.0,14.37
27.282025814056396,7.15,6.29,2.68,9.89
27.28304672241211,-2.33,5.27,1.7,6.0
27.300331830978394,-10.17,-0.08,2.55,10.48
27.301394939422607,-21.11,8.41,-6.2,23.55
27.316773891448975,-24.02,26.18,-2.28,35.6
27.318214893341064,-22.32,26.49,6.84,35.3
27.33335781097412,-13.96,10.79,-0.48,17.65
27.334821939468384,-0.48,-0.38,-3.18,3.23
27.348834991455078,6.23,-7.61,-2.15,10.06
27.380085945129395,8.98,-10.94,0.32,14.15
27.381459712982178,10.81,-11.5,0.33,15.78
27.382468938827515,12.82,-8.67,2.04,15.61
27.40029287338257,14.02,-3.96,4.06,15.12
27.40132999420166,11.17,-0.18,0.67,11.19
27.416152954101562,4.72,0.82,-3.25,5.78
27.417187929153442,0.47,2.06,-3.06,3.71
27.433401823043823,-2.0,3.61,-1.09,4.26
27.43488883972168,-2.85,2.25,0.59,3.67
27.448941707611084,-0.85,-0.82,1.68,2.05
27.4504337310791,1.9,-1.85,1.37,2.98
27.49448585510254,2.64,-1.11,-0.09,2.86
27.495653867721558,1.72,-0.16,-0.88,1.93
27.49663496017456,0.91,0.4,-0.86,1.31
27.51701283454895,0.89,0.14,-0.32,0.95
27.51814079284668,1.15,-0.29,0.1,1.19
27.5331130027771,1.02,-0.29,0.02,1.06
27.534517765045166,0.55,0.04,-0.04,0.55
27.55002188682556,0.03,0.26,-0.04,0.26
27.551414966583252,-0.23,0.23,-0.16,0.36
27.56521701812744,-0.27,0.16,-0.19,0.36
27.59547472000122,-0.16,0.14,0.04,0.21
27.596889972686768,-0.03,0.06,-0.04,0.07
27.597909927368164,-0.04,-0.03,-0.43,0.43
27.61707305908203,-0.18,0.05,-0.59,0.61
27.618111848831177,-0.46,0.26,-0.21,0.56
27.632717847824097,-0.77,0.34,0.08,0.84
27.63377285003662,-0.84,0.36,0.28,0.95
27.650269985198975,-0.59,0.43,0.4,0.83
27.651684761047363,-0.27,0.35,0.15,0.46
27.665514945983887,-0.33,0.32,0.23,0.51
27.694113731384277,-0.74,0.34,0.24,0.84
27.69548797607422,-1.02,0.34,-0.09,1.07
27.69642686843872,-0.99,0.39,-0.1,1.06
27.717139720916748,-0.83,0.52,-0.03,0.97
27.718178749084473,-0.64,0.47,-0.26,0.83
27.73311996459961,-0.56,0.41,-0.37,0.78
27.7341628074646,-0.74,0.44,-0.39,0.94
27.75051498413086,-1.04,0.5,-0.37,1.21
27.752044916152954,-1.43,0.68,-0.32,1.61
27.76570987701416,-1.98,0.89,-0.29,2.19
27.795395851135254,-2.58,1.38,0.09,2.92
27.796751022338867,-3.04,1.7,-0.03,3.48
27.797756910324097,-2.73,2.18,-0.35,3.51
27.8171067237854,-1.69,2.74,-0.37,3.24
27.81819200515747,-0.94,3.18,-0.38,3.33
27.83299684524536,-1.14,3.51,-0.2,3.69
27.834046840667725,-2.28,3.83,0.02,4.45
27.850443840026855,-3.37,4.23,0.12,5.4
27.851953983306885,-3.92,4.63,-0.14,6.06
27.865749835968018,-3.96,4.99,-0.27,6.37
27.89490795135498,-3.99,5.53,0.02,6.81
27.896158933639526,-4.39,6.65,0.25,7.97
27.89718198776245,-5.45,7.94,0.15,9.63
27.917183876037598,-7.21,9.35,-0.02,11.8
27.918211936950684,-9.12,10.5,-0.53,13.91
27.93341875076294,-10.33,11.11,-1.54,15.24
27.93491291999817,-10.67,10.55,-3.04,15.3
27.95043182373047,-10.83,9.67,-4.16,15.1
27.951900005340576,-11.39,10.47,-3.96,15.96
27.965764045715332,-10.68,13.15,-2.46,17.11
27.995667934417725,-6.62,14.33,-4.84,16.51
27.997007846832275,-1.14,11.96,-9.0,15.01
27.998013973236084,2.39,9.1,-6.98,11.71
28.01851487159729,1.02,6.4,-2.1,6.81
28.019584894180298,-3.02,1.71,0.22,3.47
28.034026861190796,-2.65,-1.57,-0.44,3.11
28.035505771636963,3.71,-0.41,0.5,3.76
28.05055570602417,6.65,-3.32,1.25,7.53
28.052008867263794,1.45,-2.14,-2.02,3.28
28.065866947174072,-5.15,0.25,-0.24,5.16
28.096306800842285,-9.34,0.58,1.59,9.49
28.097630977630615,-11.52,-0.62,1.32,11.61
28.098639965057373,-12.87,-2.08,1.28,13.09
28.117326736450195,-12.97,-3.36,1.43,13.47
28.118424892425537,-10.71,-4.27,2.26,11.74
28.13330888748169,-6.81,-4.61,2.7,8.65
28.134711742401123,-4.17,-4.69,2.46,6.74
28.15061593055725,-3.41,-3.92,2.34,5.69
28.152078866958618,-3.31,-3.34,2.24,5.2
28.16592788696289,-3.29,-3.44,1.9,5.12
28.19603395462036,-3.11,-3.5,1.18,4.82
28.197382926940918,-2.86,-3.23,0.22,4.31
28.198363780975342,-2.7,-2.89,-0.54,3.99
28.217205047607422,-2.63,-2.79,-0.96,3.95
28.218259811401367,-2.72,-3.12,-1.21,4.31
28.23332691192627,-2.88,-3.49,-1.19,4.67
28.234374046325684,-2.75,-3.54,-0.78,4.55
28.250306844711304,-2.02,-3.71,-0.4,4.24
28.25168490409851,-0.55,-4.38,-0.21,4.41
28.26587986946106,0.75,-4.83,-0.43,4.9
28.26736879348755,1.55,-4.67,-0.13,4.92
28.31104803085327,2.25,-4.27,0.39,4.84
28.312192916870117,3.01,-3.83,0.96,4.96
28.313154935836792,3.7,-3.1,1.58,5.07
28.33408498764038,4.69,-2.09,1.81,5.44
28.335154056549072,5.94,-0.99,1.34,6.16
28.35039472579956,7.51,0.2,0.56,7.53
28.351682901382446,9.38,1.31,-0.35,9.47
28.367432832717896,11.58,2.38,-1.01,11.86
28.368903875350952,13.96,3.35,-1.59,14.44
28.38281774520874,16.12,4.05,-1.97,16.73
28.41423988342285,17.64,4.58,-1.82,18.31
28.415493965148926,18.58,4.3,-1.62,19.13
28.41650104522705,18.88,2.91,-1.52,19.16
28.434192895889282,18.11,1.64,-1.29,18.22
28.43525505065918,15.8,2.45,-0.83,16.01
28.450294017791748,13.7,7.86,-0.11,15.79
28.451324939727783,8.21,1.35,-4.4,9.41
28.467220783233643,-4.07,-0.14,-2.22,4.63
28.46868896484375,-12.9,16.98,1.23,21.35
28.482730865478516,-13.13,32.98,3.05,35.62
28.51229691505432,-12.01,23.4,-2.28,26.4
28.51357889175415,-6.63,4.5,-9.37,12.32
28.514595985412598,2.15,0.4,-4.47,4.97
28.534029960632324,7.28,-4.7,2.39,8.98
28.535071849822998,9.64,-10.36,3.19,14.5
28.549973964691162,11.79,-11.03,1.36,16.2
28.550999879837036,12.48,-6.98,1.61,14.38
28.56702995300293,10.42,-1.47,1.6,10.64
28.56851291656494,4.98,1.1,-0.42,5.11
28.582531929016113,0.66,1.42,-0.37,1.6
28.611281871795654,-1.59,1.52,-0.84,2.35
28.61269187927246,-1.99,1.76,-0.66,2.73
28.613682746887207,-0.12,1.32,0.24,1.34
28.63384771347046,1.93,-0.24,0.24,1.95
28.63479995727539,2.49,-1.31,0.04,2.81
28.65033483505249,1.93,-1.28,0.14,2.32
28.65137791633606,1.12,-0.64,0.16,1.29
28.667212963104248,0.83,0.01,-0.19,0.85
28.668686866760254,0.8,0.3,-0.75,1.13
28.683290004730225,0.69,0.34,-1.17,1.4
28.711927890777588,0.55,0.24,-0.92,1.09
28.713331937789917,0.37,0.22,0.13,0.44
28.7143497467041,0.19,0.12,0.54,0.58
28.734046936035156,-0.03,0.01,0.12,0.12
28.735095024108887,-0.35,0.24,-0.08,0.43
28.75022292137146,-0.43,0.4,-0.29,0.65
28.75124979019165,-0.22,0.21,-0.26,0.4
28.766984939575195,0.08,-0.01,-0.22,0.23
28.768457889556885,0.19,-0.15,-0.46,0.51
28.78267788887024,-0.16,0.03,-0.51,0.53
28.811185836791992,-0.74,0.26,-0.26,0.82
28.812510013580322,-1.22,0.41,0.21,1.3
28.81340503692627,-1.31,0.41,0.42,1.43
28.834115982055664,-0.9,0.35,0.12,0.97
28.835175037384033,-0.31,0.4,-0.11,0.51
28.850388050079346,-0.03,0.45,-0.1,0.46
28.851423740386963,-0.22,0.36,0.2,0.46
28.867197036743164,-0.69,0.28,0.61,0.96
28.868587970733643,-1.21,0.25,0.71,1.42
28.883046865463257,-1.31,0.32,0.41,1.4
28.911043882369995,-1.06,0.46,-0.19,1.17
28.91242289543152,-0.81,0.67,-0.68,1.25
28.913394927978516,-0.85,0.77,-0.96,1.49
28.934038877487183,-1.4,0.86,-0.85,1.84
28.93504285812378,-2.16,1.26,-0.54,2.55
28.950660705566406,-2.75,1.51,-0.55,3.18
28.951648712158203,-3.01,1.89,-0.07,3.55
28.967308044433594,-2.81,2.36,0.5,3.7
28.968760013580322,-2.22,2.54,0.72,3.44
28.98298192024231,-1.79,2.73,0.66,3.33
29.010000705718994,-1.81,2.94,0.25,3.46
29.011400938034058,-2.2,3.3,-0.2,3.97
29.012366771697998,-2.73,3.8,-0.31,4.68
29.014691829681396,-3.22,4.18,-0.17,5.27
29.016088008880615,-3.67,4.67,0.06,5.93
29.01745891571045,-4.16,5.35,0.29,6.78
29.01883602142334,-4.9,6.21,0.4,7.92
29.02018976211548,-6.02,7.51,0.54,9.64
29.021384716033936,-7.56,9.41,0.35,12.07
29.022689819335938,-8.92,11.11,-0.07,14.24
29.023850917816162,-9.78,12.05,-0.92,15.54
29.045233726501465,-10.18,11.86,-2.26,15.79
29.04628586769104,-11.01,11.38,-3.19,16.15
29.052398920059204,-12.19,12.7,-2.2,17.74
29.06719183921814,-11.45,15.19,-1.46,19.07
29.072738885879517,-6.23,15.22,-6.25,17.59
29.083135843276978,-0.08,11.19,-11.78,16.24
29.092121839523315,2.33,10.08,-5.76,11.84
29.101758003234863,-0.12,6.74,-0.98,6.81
29.111999988555908,-3.27,0.16,-0.85,3.38
29.121595859527588,-0.83,-1.37,-1.92,2.5
29.147419929504395,5.78,-0.8,0.21,5.83
29.1485857963562,6.59,-3.44,0.99,7.49
29.151411056518555,0.39,-2.02,-2.88,3.53
29.16762685775757,-5.91,-0.28,-0.8,5.97
29.171361923217773,-9.61,-0.33,0.3,9.62
29.18132495880127,-11.42,-1.51,-0.18,11.52
29.191372871398926,-12.71,-2.55,-0.4,12.96
29.201132774353027,-12.78,-3.4,-0.17,13.22
29.211108922958374,-10.73,-3.77,1.31,11.44
29.221089839935303,-7.47,-4.47,1.98,8.92
29.248138904571533,-4.84,-4.99,1.88,7.2
29.24923801422119,-4.09,-4.28,1.68,6.15
29.25066590309143,-4.36,-3.73,1.35,5.89
29.267863750457764,-4.8,-4.01,0.85,6.31
29.270606994628906,-4.9,-4.04,0.13,6.35
29.28375482559204,-4.6,-3.79,-0.69,6.0
29.29076099395752,-4.19,-3.49,-1.31,5.6
29.300724029541016,-3.74,-3.34,-1.55,5.24
29.310839891433716,-3.24,-3.55,-1.45,5.02
29.3204448223114,-2.7,-4.22,-1.39,5.19
29.3510160446167,-1.91,-4.83,-1.17,5.32
29.352334022521973,-0.86,-5.09,-0.75,5.21
29.35335683822632,0.1,-5.21,-0.51,5.23
29.36810874938965,0.7,-5.26,-0.8,5.36
29.369926929473877,1.3,-4.8,-0.98,5.06
29.383913040161133,2.29,-4.0,-0.77,4.67
29.3898708820343,3.52,-3.27,-0.17,4.8
29.39995789527893,5.0,-2.08,0.91,5.49
29.41007685661316,6.92,-0.6,1.81,7.17
29.41984486579895,9.05,0.81,2.18,9.34
29.457254886627197,10.91,2.17,1.9,11.28
29.45859670639038,12.52,3.45,0.94,13.02
29.45959997177124,14.05,4.76,-0.13,14.83
29.464029788970947,15.88,6.25,-1.2,17.1
29.48415493965149,17.96,7.04,-2.27,19.42
29.48525094985962,20.02,6.95,-2.85,21.38
29.500816822052002,21.89,6.09,-1.94,22.8
29.502344846725464,22.7,3.41,-0.48,22.95
29.516490936279297,20.87,0.65,1.25,20.91
29.51901888847351,16.57,2.4,1.92,16.85
29.559435844421387,10.12,2.12,0.69,10.36
29.5605628490448,-2.45,-4.37,-0.72,5.06
29.561779022216797,-14.65,4.35,-1.39,15.34
29.563912868499756,-19.36,24.51,0.52,31.23
29.56837487220764,-20.03,32.99,1.86,38.63
29.579096794128418,-15.04,18.95,-6.94,25.16
29.588624000549316,-4.26,3.05,-4.51,6.91
