time,ax,ay,az,atotal
0.0015149116516113281,0.44,-1.22,0.36,1.34
0.002125978469848633,0.7,0.16,-0.32,0.78
0.004642009735107422,0.54,0.2,0.09,0.58
0.014718055725097656,0.02,-0.14,0.15,0.2
0.024888992309570312,-0.06,0.09,-0.4,0.41
0.03471088409423828,0.2,0.11,-0.55,0.59
0.04463601112365723,0.38,0.16,-0.56,0.69
0.054615020751953125,0.35,0.15,-0.58,0.69
0.06464719772338867,0.06,0.11,-0.43,0.44
0.09943389892578125,-0.07,0.04,-0.23,0.24
0.10102200508117676,-0.12,-0.06,0.07,0.15
0.10159587860107422,-0.26,-0.06,0.09,0.28
0.10465812683105469,-0.32,-0.06,0.06,0.33
0.11466789245605469,-0.26,-0.03,0.0,0.26
0.12452006340026855,-0.14,0.0,-0.03,0.14
0.13452696800231934,-0.09,0.01,-0.05,0.1
0.14466190338134766,-0.06,0.01,-0.1,0.11
0.154555082321167,0.01,0.0,-0.05,0.05
0.16453218460083008,-0.03,0.0,-0.02,0.03
0.17457199096679688,-0.03,0.02,-0.04,0.05
0.20151185989379883,0.05,0.03,-0.03,0.06
0.202131986618042,0.21,0.05,-0.05,0.22
0.20447492599487305,0.37,0.07,-0.13,0.39
0.21449613571166992,0.26,0.01,-0.17,0.31
0.22443699836730957,0.04,0.0,-0.13,0.13
0.23444199562072754,0.0,-0.03,-0.02,0.03
0.24448299407958984,0.03,-0.06,0.05,0.08
0.2544100284576416,0.0,-0.01,0.02,0.02
0.26436901092529297,0.0,0.02,-0.1,0.1
0.2742319107055664,0.06,0.02,-0.13,0.14
0.30077099800109863,0.07,0.02,-0.05,0.08
0.30135202407836914,-0.05,0.01,-0.03,0.05
0.3042941093444824,-0.15,0.02,-0.1,0.18
0.3143281936645508,-0.08,0.03,-0.11,0.13
0.32442307472229004,-0.02,0.0,-0.1,0.1
0.33415699005126953,-0.04,-0.03,-0.1,0.11
0.34430599212646484,-0.11,-0.03,-0.12,0.16
0.3542461395263672,-0.23,-0.01,-0.11,0.25
0.36434412002563477,-0.36,0.03,-0.14,0.38
0.37424612045288086,-0.33,0.08,-0.21,0.39
0.4009850025177002,-0.15,0.09,-0.18,0.25
0.4015951156616211,-0.03,0.05,-0.09,0.1
0.40415406227111816,-0.09,0.01,-0.05,0.1
0.4142289161682129,-0.17,0.02,-0.2,0.26
0.4241170883178711,-0.07,0.03,-0.34,0.34
0.4341890811920166,0.07,0.05,-0.37,0.37
0.4442119598388672,0.08,0.02,-0.36,0.36
0.4541590213775635,-0.02,-0.03,-0.28,0.28
0.4641990661621094,-0.14,-0.01,-0.01,0.14
0.47411298751831055,-0.17,-0.1,0.36,0.41
0.5007591247558594,-0.2,-0.15,0.54,0.59
0.5013608932495117,-0.24,-0.09,0.53,0.58
0.5040159225463867,-0.22,-0.12,0.63,0.67
0.5140872001647949,-0.12,-0.16,0.76,0.78
0.5239880084991455,-0.01,-0.21,0.86,0.88
0.5338730812072754,-0.01,-0.17,0.76,0.77
0.5440590381622314,-0.08,-0.09,0.56,0.57
0.5539650917053223,-0.09,-0.07,0.43,0.44
0.5640289783477783,-0.07,-0.05,0.29,0.3
0.5738129615783691,-0.07,-0.04,0.34,0.34
0.6012589931488037,-0.28,-0.06,0.38,0.47
0.6018600463867188,-0.54,0.0,0.25,0.59
0.6040339469909668,-0.59,-0.02,0.15,0.6
0.6139869689941406,-0.47,-0.01,0.09,0.47
0.6237668991088867,-0.33,0.01,0.07,0.33
0.6338081359863281,-0.36,0.01,0.22,0.42
0.6438319683074951,-0.48,0.02,0.14,0.5
0.6538779735565186,-0.49,0.01,-0.03,0.49
0.6638941764831543,-0.33,0.01,-0.11,0.34
0.6739511489868164,-0.22,0.05,-0.09,0.24
0.7023220062255859,-0.14,0.02,-0.13,0.19
0.7029290199279785,-0.01,-0.03,0.02,0.03
0.7041211128234863,0.05,-0.04,0.14,0.15
0.7138681411743164,0.07,0.01,0.16,0.17
0.7237448692321777,0.08,-0.03,0.24,0.25
0.7337989807128906,0.26,-0.1,0.31,0.41
0.7437171936035156,0.39,-0.13,0.31,0.51
0.7536869049072266,0.54,-0.1,0.31,0.63
0.7839131355285645,0.62,-0.04,0.25,0.66
0.7844882011413574,0.7,-0.04,0.17,0.72
0.7850320339202881,0.73,-0.06,0.27,0.78
0.7936239242553711,0.61,-0.04,0.32,0.69
0.8036551475524902,0.36,0.08,0.05,0.37
0.8136720657348633,0.49,-0.21,0.51,0.73
0.8235888481140137,0.44,0.03,0.3,0.53
0.8336100578308105,0.23,-0.09,0.38,0.45
0.8435420989990234,0.21,-0.18,0.42,0.5
0.8536090850830078,0.16,-0.11,0.42,0.46
0.88531494140625,0.24,-0.11,0.36,0.44
0.8858771324157715,0.14,-0.18,0.49,0.54
0.8864619731903076,0.02,-0.11,0.58,0.59
0.8935060501098633,-0.09,-0.15,0.54,0.56
0.9033920764923096,-0.17,-0.21,0.5,0.56
0.9135360717773438,-0.32,-0.16,0.43,0.55
0.9234528541564941,-0.43,-0.14,0.28,0.53
0.9335498809814453,-0.52,-0.21,0.13,0.57
0.9434850215911865,-0.19,-0.23,0.1,0.31
0.953434944152832,0.12,-0.03,0.22,0.25
0.9849460124969482,0.21,0.0,0.18,0.27
0.9855420589447021,-0.02,-0.16,0.15,0.22
0.9861130714416504,-0.03,-0.16,0.11,0.19
0.9932680130004883,0.03,-0.13,0.2,0.24
1.0032730102539062,-0.09,-0.22,0.33,0.4
1.0133109092712402,-0.31,-0.22,0.32,0.49
1.0231781005859375,-0.34,0.03,0.03,0.34
1.0332989692687988,-0.06,0.09,-0.38,0.39
1.043227195739746,0.41,-0.03,-0.6,0.72
1.0533361434936523,0.87,-0.01,-0.67,1.09
1.0849430561065674,0.86,-0.01,-0.84,1.2
1.085510015487671,0.77,0.1,-0.94,1.21
1.086094856262207,0.88,0.15,-0.75,1.16
1.093101978302002,0.5,0.04,-0.79,0.93
1.1032559871673584,0.04,0.01,-1.11,1.11
1.1132841110229492,-0.12,0.1,-1.01,1.02
1.1232330799102783,-0.32,0.02,-0.64,0.71
1.1331892013549805,-0.41,0.12,-0.43,0.6
1.1429860591888428,-0.44,0.1,-0.09,0.46
1.1531150341033936,-0.35,0.07,-0.12,0.37
1.1853580474853516,-0.11,-0.03,-0.23,0.25
1.185960054397583,-0.17,-0.05,-0.29,0.33
1.1865549087524414,-0.26,0.0,-0.36,0.44
1.1929199695587158,-0.33,0.14,-0.31,0.47
1.2031421661376953,-0.27,0.22,-0.3,0.45
1.2130961418151855,-0.08,0.12,-0.33,0.36
1.2230949401855469,0.12,0.02,-0.38,0.39
1.2330451011657715,0.1,-0.07,-0.16,0.2
1.2428979873657227,-0.22,0.0,0.01,0.22
1.2530131340026855,-0.43,0.15,0.08,0.46
1.2857060432434082,-0.31,0.05,0.26,0.4
1.2863211631774902,0.01,-0.07,0.32,0.32
1.28690505027771,0.33,-0.1,0.27,0.43
1.2928869724273682,0.59,-0.15,0.24,0.65
1.3029160499572754,0.65,-0.13,0.35,0.74
1.3129029273986816,0.31,-0.13,0.37,0.49
1.3229010105133057,0.03,-0.03,0.18,0.18
1.33296799659729,-0.02,0.13,-0.02,0.13
1.3430230617523193,0.17,0.16,-0.31,0.38
1.352966070175171,0.42,0.09,-0.39,0.58
1.3866779804229736,0.39,0.18,-0.51,0.66
1.387294054031372,0.42,0.36,-0.83,0.99
1.388221025466919,0.57,0.46,-0.86,1.12
1.3930048942565918,0.69,0.26,-0.79,1.08
1.4027271270751953,0.67,0.06,-0.67,0.94
1.4127788543701172,0.74,-0.03,-0.57,0.93
1.4227850437164307,1.06,-0.02,-0.28,1.09
1.4327569007873535,1.14,0.02,0.07,1.14
1.4430408477783203,1.28,0.12,0.04,1.28
1.4527301788330078,1.3,0.24,-0.12,1.32
1.4861888885498047,1.16,0.31,0.02,1.2
1.486788034439087,1.17,0.47,0.13,1.26
1.4873671531677246,1.36,0.53,0.01,1.45
1.4931340217590332,1.37,0.67,-0.21,1.53
1.5026800632476807,1.91,0.28,-0.49,1.99
1.5126428604125977,2.17,0.38,0.02,2.2
1.52264404296875,2.58,0.6,0.26,2.66
1.5326528549194336,3.13,0.69,0.3,3.21
1.5426201820373535,3.03,1.21,0.56,3.31
1.552628993988037,2.42,2.95,0.26,3.82
1.5866751670837402,1.93,3.63,-0.12,4.11
1.5876069068908691,1.79,3.88,-1.03,4.39
1.5881891250610352,3.42,3.67,-2.24,5.49
1.5925168991088867,3.82,3.7,-1.6,5.55
1.6024951934814453,2.71,2.99,-1.42,4.27
1.6125340461730957,1.5,2.39,-1.42,3.15
1.6225619316101074,1.36,1.99,-1.41,2.79
1.6325139999389648,2.5,2.13,-1.21,3.5
1.6425061225891113,3.69,2.07,-1.24,4.4
1.6523351669311523,4.83,0.42,-1.38,5.04
1.686018943786621,5.11,1.57,1.48,5.54
1.6866321563720703,5.55,0.38,2.75,6.2
1.6875391006469727,5.2,-0.67,1.18,5.37
1.692352056503296,5.62,-0.69,1.08,5.76
1.702345848083496,7.06,-0.71,1.93,7.35
1.7122879028320312,7.45,-0.93,2.3,7.85
1.7222990989685059,7.27,-1.17,2.2,7.68
1.7323479652404785,6.81,-0.96,1.98,7.15
1.7423038482666016,6.15,-0.68,1.85,6.45
1.7522940635681152,5.43,-0.51,1.61,5.68
1.786118984222412,4.89,-0.41,1.5,5.13
1.786741018295288,4.61,-0.19,1.58,4.87
1.7876510620117188,3.8,0.28,1.84,4.23
1.7922868728637695,2.85,0.38,1.65,3.31
1.8023262023925781,1.89,0.74,1.29,2.4
1.812283992767334,0.95,1.42,0.9,1.93
1.822206974029541,-0.22,2.23,0.78,2.37
1.832280158996582,-1.2,2.59,0.6,2.91
1.8422000408172607,-2.32,2.4,0.51,3.37
1.852174997329712,-3.51,1.84,0.37,3.98
1.884955883026123,-4.28,0.87,0.41,4.38
1.8855600357055664,-4.75,0.03,0.33,4.76
1.8861560821533203,-4.97,-0.55,-0.13,5.0
1.892071008682251,-5.25,-0.95,-0.63,5.37
1.9021539688110352,-5.76,-0.99,-1.06,5.93
1.912095069885254,-6.61,-0.29,-1.17,6.71
1.9220740795135498,-5.97,3.43,-1.73,7.09
1.9321889877319336,-5.67,0.32,-2.34,6.14
1.9420409202575684,-8.91,-2.48,-2.24,9.51
1.9520859718322754,-10.2,-1.23,-2.88,10.66
1.9792981147766113,-9.71,-0.51,-3.12,10.21
1.9799540042877197,-8.49,-0.63,-2.76,8.94
1.9820780754089355,-7.88,-1.29,-2.35,8.32
1.9920480251312256,-7.06,-0.67,-2.36,7.47
2.001983165740967,-1.5,1.41,-1.27,2.41
2.012178897857666,5.56,1.2,1.82,5.97
2.021994113922119,8.12,0.42,3.69,8.92
2.0319790840148926,4.06,3.19,3.47,6.22
2.041934013366699,-3.68,4.02,0.38,5.46
2.0518269538879395,-10.99,-0.51,-3.49,11.54
2.0804429054260254,-10.58,3.61,-4.25,11.95
2.081191062927246,-5.64,4.91,-1.1,7.55
2.081881046295166,-1.27,-0.75,1.78,2.31
2.091784954071045,-0.47,-2.96,1.66,3.42
2.102004051208496,-1.86,-1.71,0.24,2.53
2.111877918243408,-2.81,-0.59,-0.26,2.88
2.1218719482421875,-3.24,0.54,-0.24,3.29
2.1318469047546387,-3.14,0.92,-0.01,3.27
2.1418118476867676,-2.55,0.44,0.19,2.59
2.151841163635254,-1.59,-0.17,0.2,1.61
2.1833410263061523,-0.7,-0.09,-0.16,0.72
2.1841230392456055,-0.17,0.07,-0.51,0.54
2.1848530769348145,0.08,0.22,-0.96,0.98
2.191694974899292,0.48,0.0,-0.93,1.04
2.201724052429199,0.79,-0.19,-1.07,1.34
2.2118420600891113,1.15,0.18,-2.09,2.39
2.221737861633301,1.62,0.14,-2.15,2.69
2.231719970703125,1.83,0.01,-1.99,2.7
2.2416439056396484,1.81,0.07,-2.13,2.79
2.251718044281006,1.55,-0.04,-1.73,2.32
2.2841248512268066,0.77,0.02,-1.12,1.35
2.2849280834198,-0.22,0.11,-0.03,0.24
2.285691022872925,-0.9,0.04,0.78,1.19
2.2915802001953125,-1.15,-0.11,1.27,1.71
2.3015639781951904,-1.13,-0.23,1.69,2.04
2.3114781379699707,-0.98,-0.2,1.63,1.91
2.321516990661621,-0.71,-0.08,1.38,1.55
2.331587076187134,-0.39,0.05,1.16,1.22
2.341525077819824,-0.32,0.04,0.47,0.56
2.351546049118042,-0.36,0.05,-0.75,0.83
2.3851561546325684,-0.43,0.03,-1.79,1.84
2.3859610557556152,-0.63,0.02,-1.95,2.04
2.38712215423584,-0.58,-0.01,-1.27,1.39
2.3914120197296143,-0.09,-0.03,-0.35,0.36
2.4014129638671875,0.19,-0.06,0.33,0.38
2.411432981491089,0.23,0.02,0.76,0.79
2.421329975128174,0.15,0.02,1.09,1.1
2.4314990043640137,-0.24,0.12,0.95,0.98
2.4413490295410156,-0.52,0.24,0.56,0.8
2.451435089111328,-0.48,0.13,0.11,0.5
2.485206127166748,-0.59,0.06,-0.31,0.66
2.485975980758667,-0.79,0.07,-0.23,0.82
2.487123966217041,-0.84,0.15,0.17,0.87
2.4912970066070557,-0.61,0.24,0.28,0.71
2.501265048980713,-0.22,0.04,0.21,0.3
2.511308193206787,0.42,-0.12,0.11,0.45
2.521353006362915,0.98,-0.24,-0.2,1.02
2.53132700920105,1.19,-0.24,-0.26,1.24
2.541232109069824,1.25,-0.13,0.03,1.25
2.551239013671875,1.09,-0.02,-0.08,1.09
2.5849008560180664,0.78,0.07,-0.27,0.82
2.5856680870056152,0.61,0.12,-0.35,0.71
2.586799144744873,0.5,0.22,-0.51,0.74
2.591150999069214,0.64,0.42,-0.48,0.9
2.601207971572876,0.98,0.57,-0.53,1.25
2.610997200012207,1.03,0.52,-0.85,1.43
2.6212081909179688,1.14,0.32,-0.66,1.35
2.6311168670654297,1.61,0.18,-0.47,1.68
2.6409659385681152,1.8,0.2,-0.45,1.86
2.651124954223633,2.19,0.35,-0.01,2.21
2.6848809719085693,2.46,0.52,0.06,2.51
2.68564510345459,2.14,1.04,-0.63,2.46
2.686796188354492,1.44,1.48,-1.19,2.38
2.6910300254821777,1.23,1.82,-1.52,2.67
2.701050043106079,1.36,1.9,-1.14,2.59
2.71089506149292,1.38,1.89,-0.76,2.46
2.721041202545166,1.39,1.61,0.09,2.12
2.731020927429199,1.68,1.42,-0.28,2.21
2.7409801483154297,2.86,2.14,0.2,3.57
2.7509729862213135,2.49,2.79,0.82,3.82
2.78609299659729,2.6,2.95,-0.2,3.93
2.7870800495147705,3.01,3.43,0.15,4.56
2.787816047668457,3.65,3.75,-0.09,5.23
2.7908549308776855,4.38,4.21,0.0,6.07
2.800887107849121,4.59,4.27,0.26,6.27
2.810884952545166,4.85,4.21,0.17,6.42
2.820919990539551,5.14,4.4,0.42,6.77
2.830860137939453,4.96,4.28,0.3,6.55
2.8408679962158203,4.65,4.12,-0.03,6.21
2.8508269786834717,4.03,4.0,-0.12,5.67
2.885331153869629,3.26,3.73,-0.15,4.95
2.8865089416503906,3.24,3.67,-0.03,4.89
2.88728404045105,3.81,4.36,-0.19,5.79
2.8907041549682617,4.35,4.44,-0.82,6.26
2.900775909423828,2.74,5.25,-0.43,5.93
2.9109489917755127,-0.67,6.64,0.23,6.67
2.920849084854126,-0.68,7.7,-2.19,8.03
2.930772066116333,2.27,6.96,-2.81,7.84
2.940678119659424,4.18,5.25,-0.98,6.78
2.9506778717041016,5.97,3.49,-1.39,7.05
2.984774112701416,8.3,1.06,-1.82,8.56
2.9859461784362793,8.54,-0.23,-0.24,8.54
2.9866890907287598,-0.1,-0.28,-0.03,0.29
2.9905881881713867,-0.23,-0.5,-4.21,4.24
3.000519037246704,4.23,0.46,-2.85,5.12
3.010550022125244,7.37,1.08,-0.23,7.45
3.020543098449707,8.75,0.89,0.95,8.84
3.0307230949401855,8.98,-0.62,1.28,9.09
3.040618896484375,7.74,-1.7,2.0,8.17
3.0505549907684326,6.36,-1.77,2.23,6.96
3.060404062271118,5.56,-1.82,1.81,6.12
3.085744857788086,5.59,-1.87,1.5,6.08
3.086495876312256,6.36,-2.12,1.76,6.93
3.0904300212860107,6.54,-2.44,1.96,7.25
3.1005489826202393,5.79,-2.56,1.55,6.51
3.1103200912475586,4.75,-2.59,0.97,5.49
3.1203761100769043,3.36,-2.73,0.71,4.38
3.130429983139038,2.14,-2.68,0.59,3.47
3.140376091003418,1.56,-2.49,0.48,2.97
3.150424003601074,1.31,-1.86,0.58,2.34
3.160412073135376,0.8,-0.97,0.81,1.49
3.1860320568084717,0.11,0.07,0.79,0.8
3.1867849826812744,-0.87,1.0,0.22,1.34
3.1903460025787354,-1.92,1.54,-0.84,2.6
3.2003700733184814,-2.97,1.84,-1.6,3.84
3.2102599143981934,-4.19,2.1,-1.11,4.81
3.2203030586242676,-5.43,2.72,-0.02,6.07
3.23028302192688,-6.21,3.44,0.2,7.1
3.240339994430542,-6.37,3.85,-0.43,7.45
3.2502598762512207,-6.36,4.16,-0.92,7.65
3.2601540088653564,-6.6,4.32,-1.44,8.01
3.2864608764648438,-7.17,4.66,-2.04,8.79
3.287231922149658,-8.12,4.68,-2.66,9.74
3.2901721000671387,-8.89,3.93,-2.63,10.06
3.300288200378418,-8.75,4.5,-1.83,10.0
3.310106039047241,-7.41,4.85,-1.55,8.99
3.320107936859131,-9.96,-0.31,-1.52,10.08
3.33016300201416,-10.74,-0.05,-1.62,10.86
3.3401079177856445,-10.25,-0.21,-0.95,10.29
3.3502249717712402,-9.88,-0.47,-1.1,9.95
3.360161066055298,-9.49,-0.27,-1.38,9.59
3.386484146118164,-8.33,-0.17,-1.27,8.42
3.3871910572052,-7.38,0.23,-0.78,7.42
3.390033006668091,-5.85,1.63,-2.24,6.47
3.4000630378723145,1.1,2.21,-1.51,2.89
3.4100120067596436,7.18,0.53,1.45,7.34
3.4200448989868164,5.08,-0.91,1.12,5.28
3.430069923400879,-0.58,0.64,-0.52,1.0
3.440016984939575,-4.99,3.66,-0.92,6.25
3.4500200748443604,-6.75,6.37,-0.14,9.28
3.460033893585205,-9.13,4.75,-1.32,10.37
3.4862430095672607,-10.82,2.4,-3.42,11.59
3.4869420528411865,-6.38,3.73,-1.41,7.52
3.4900059700012207,-2.73,-0.48,2.07,3.45
3.499908924102783,-2.99,-3.34,1.78,4.82
3.5098400115966797,-3.96,-2.2,-0.02,4.53
3.519897937774658,-4.18,-0.61,-0.03,4.22
3.5299201011657715,-3.63,0.49,0.6,3.71
3.539808988571167,-2.57,0.82,0.6,2.76
3.5498619079589844,-1.51,0.33,0.37,1.58
3.55985689163208,-0.54,-0.26,-0.03,0.6
3.5862350463867188,0.35,-0.23,-0.66,0.78
3.5869669914245605,0.8,0.21,-1.47,1.68
3.5897879600524902,0.74,0.37,-1.65,1.84
3.599781036376953,0.6,0.22,-1.01,1.19
3.609786033630371,0.48,0.01,-0.37,0.6
3.6197760105133057,0.33,-0.11,-0.26,0.43
3.6298351287841797,-0.02,-0.07,-0.59,0.59
3.63969087600708,-0.11,-0.02,-0.9,0.9
3.6497721672058105,0.06,-0.08,-0.83,0.83
3.6596908569335938,0.23,-0.05,-0.77,0.8
3.6871719360351562,0.31,-0.03,-0.5,0.58
3.687896966934204,0.36,-0.07,0.05,0.37
3.6895999908447266,0.36,0.0,-0.01,0.36
3.699657917022705,0.47,-0.05,-0.3,0.55
3.7095351219177246,0.74,-0.05,-0.16,0.75
3.719600200653076,0.56,0.17,-0.23,0.62
3.7296719551086426,0.22,0.29,-0.35,0.5
3.739543914794922,-0.01,0.13,-0.15,0.19
3.7495779991149902,-0.19,0.01,-0.29,0.34
3.7595648765563965,-0.21,-0.1,-0.44,0.49
3.7876429557800293,-0.19,-0.14,-0.3,0.38
3.7883381843566895,-0.21,0.0,-0.12,0.24
3.791620969772339,-0.17,0.1,0.09,0.21
3.7995219230651855,0.02,-0.03,-0.07,0.07
3.8094820976257324,0.07,-0.17,-0.53,0.56
3.8194351196289062,-0.15,-0.14,-0.58,0.61
3.829463005065918,-0.35,-0.04,-0.21,0.41
3.8394031524658203,-0.45,-0.01,-0.05,0.45
3.849453926086426,-0.49,-0.02,-0.16,0.51
3.8594231605529785,-0.22,-0.09,-0.1,0.25
3.888046979904175,0.21,0.01,-0.24,0.31
3.888780117034912,0.38,0.05,-0.08,0.39
3.88948392868042,0.46,0.0,0.4,0.6
3.899290084838867,0.6,0.12,0.4,0.73
3.9093198776245117,0.41,0.2,0.31,0.55
3.919271945953369,0.24,0.22,0.31,0.44
3.9292569160461426,0.41,0.29,0.16,0.52
3.9393019676208496,0.56,0.32,-0.03,0.64
3.9493489265441895,0.53,0.14,-0.18,0.57
3.9591798782348633,0.65,0.15,-0.15,0.68
3.9883289337158203,0.84,0.14,-0.2,0.87
3.9890830516815186,0.97,0.2,-0.17,1.0
3.989763021469116,0.98,0.43,-0.28,1.1
3.9992661476135254,0.85,0.64,-0.24,1.09
4.009248971939087,0.88,0.78,-0.1,1.18
4.019157886505127,0.88,0.67,0.49,1.2
4.029140949249268,0.84,0.65,0.77,1.31
4.039188861846924,1.01,0.94,0.22,1.39
4.0492329597473145,1.49,1.22,0.12,1.92
4.059169054031372,2.09,1.68,-0.56,2.73
4.088338851928711,2.82,2.83,-0.93,4.1
4.089053153991699,2.5,2.92,-0.18,3.84
4.089729070663452,2.46,2.8,-0.37,3.74
4.099094867706299,2.59,2.96,-0.21,3.93
4.108983993530273,2.97,2.95,-0.47,4.21
4.11903190612793,3.24,2.73,-0.59,4.27
4.128947973251343,3.32,2.81,-0.63,4.39
4.139008045196533,3.6,3.11,-0.94,4.84
4.149056911468506,4.16,3.53,-1.23,5.59
4.158946990966797,4.83,4.15,-0.86,6.42
4.1881489753723145,5.26,4.41,-0.82,6.91
4.1888508796691895,5.28,4.83,-1.01,7.22
4.189532041549683,4.86,5.12,-0.67,7.09
4.198913097381592,3.85,4.96,-0.56,6.3
4.208903074264526,2.72,5.21,-0.69,5.91
4.218909978866577,1.96,5.71,-0.85,6.09
4.228826999664307,2.05,5.67,-1.43,6.19
4.23887300491333,3.08,5.16,-2.09,6.36
4.248889923095703,3.98,4.58,-2.28,6.48
4.258821964263916,3.34,4.33,-1.42,5.64
4.2882630825042725,1.47,5.11,-1.71,5.58
4.288985967636108,1.44,6.15,-4.1,7.53
4.289667129516602,3.93,5.96,-3.87,8.12
4.298825979232788,7.11,5.54,-2.6,9.38
4.308718204498291,9.4,3.27,-1.43,10.05
4.3188018798828125,11.03,0.44,-0.89,11.07
4.328994989395142,7.65,-1.06,0.46,7.73
4.3387908935546875,-0.41,-1.55,-0.01,1.6
4.348829030990601,-2.23,0.41,-3.6,4.25
4.35873007774353,3.4,1.62,-3.82,5.36
4.388244152069092,8.2,0.4,-1.6,8.36
4.388952016830444,10.03,0.02,0.44,10.03
4.38963508605957,9.57,-0.67,1.5,9.7
4.398713111877441,7.81,-1.43,2.1,8.21
4.408612012863159,5.77,-1.84,2.32,6.48
4.418683052062988,4.28,-2.42,1.82,5.24
4.428865909576416,3.64,-2.7,1.22,4.69
4.438640117645264,3.58,-2.76,0.78,4.58
4.44854211807251,3.55,-2.64,0.59,4.46
4.458513975143433,3.33,-2.28,0.63,4.08
4.488831996917725,3.06,-1.98,0.68,3.7
4.489520072937012,2.81,-1.81,0.86,3.45
4.49019193649292,2.48,-1.75,1.27,3.29
4.498502969741821,2.15,-1.81,1.79,3.33
4.508478164672852,1.81,-1.68,2.21,3.31
4.518455982208252,1.86,-1.23,2.34,3.23
4.528471946716309,2.34,-0.76,2.19,3.29
4.538519859313965,2.07,-0.01,1.5,2.55
4.548446178436279,0.87,0.94,0.36,1.33
4.558504104614258,-0.71,1.72,-0.49,1.92
4.587440013885498,-1.78,2.31,-0.99,3.07
4.588109970092773,-2.31,2.97,-0.84,3.85
4.588749885559082,-3.04,3.63,-0.4,4.75
4.598406076431274,-3.95,4.51,-0.9,6.06
4.60834002494812,-5.54,5.57,-1.86,8.07
4.61830997467041,-8.12,6.18,-3.18,10.68
4.628293991088867,-10.33,6.27,-4.87,13.02
4.638298988342285,-11.6,6.01,-5.52,14.18
4.6483070850372314,-11.21,7.72,-5.08,14.52
4.658272981643677,-8.59,7.73,-5.11,12.63
4.686883926391602,-11.76,-0.4,-3.94,12.4
4.687566041946411,-11.95,-2.02,-2.66,12.4
4.688218116760254,-10.76,-1.26,-1.51,10.93
4.698233127593994,-9.22,-0.68,-0.74,9.27
4.708184003829956,-8.69,-0.24,-0.93,8.74
4.718185901641846,-8.82,-0.04,-1.34,8.92
4.728182077407837,-8.42,0.17,-1.22,8.5
4.738163948059082,-7.19,0.71,-0.83,7.27
4.7482171058654785,-5.74,2.01,-1.52,6.26
4.758095026016235,0.73,2.99,-1.57,3.45
4.788021087646484,6.9,1.02,1.99,7.25
4.788703918457031,4.99,-0.5,1.79,5.32
4.789379119873047,-1.4,-0.39,-0.56,1.55
4.798065185546875,-6.31,0.24,-0.68,6.35
4.8080830574035645,-7.38,3.15,-0.84,8.06
4.818081855773926,-7.81,6.16,-1.36,10.03
4.8278889656066895,-9.06,2.56,-3.7,10.11
4.837907075881958,-9.28,2.57,-4.32,10.55
4.8480470180511475,-6.27,4.22,-1.33,7.67
4.857948064804077,-4.36,-0.17,0.83,4.44
4.887681007385254,-3.9,-2.75,0.77,4.83
4.888370990753174,-3.86,-1.55,-0.24,4.16
4.8890540599823,-3.04,-0.12,0.01,3.04
4.898003101348877,-1.57,0.07,0.91,1.81
4.9079179763793945,-0.57,-0.1,1.15,1.28
4.917917013168335,-0.26,-0.1,1.15,1.18
4.927869081497192,-0.04,-0.03,0.84,0.84
4.937741041183472,0.04,0.16,0.07,0.17
4.947979927062988,0.0,0.23,-0.57,0.61
4.957906007766724,-0.14,0.24,-1.22,1.25
4.9874889850616455,-0.25,0.34,-1.47,1.52
4.988184928894043,-0.19,0.19,-1.36,1.38
4.988871097564697,-0.2,-0.03,-1.45,1.46
4.997652053833008,-0.28,-0.05,-1.77,1.79
5.007796049118042,-0.15,-0.09,-1.71,1.71
5.017767906188965,0.09,-0.16,-1.15,1.16
5.027561187744141,0.33,-0.18,-0.31,0.48
5.037750005722046,0.5,-0.06,0.45,0.67
5.047824859619141,0.54,0.1,0.92,1.07
5.05771803855896,0.3,0.1,0.66,0.73
5.088385105133057,-0.18,0.07,-0.31,0.36
5.08907413482666,-0.53,0.12,-1.11,1.23
5.089755058288574,-0.72,-0.15,-0.63,0.96
5.09757399559021,-0.7,-0.32,-0.51,0.92
5.107859134674072,-0.37,-0.03,-0.89,0.96
5.1176629066467285,0.02,0.02,-0.75,0.75
5.127671003341675,0.22,-0.07,-0.73,0.76
5.137580871582031,0.23,0.01,-0.93,0.95
5.147645950317383,0.46,-0.11,-0.62,0.77
5.1576151847839355,0.72,-0.3,-0.39,0.87
5.18809700012207,0.38,0.05,-0.84,0.92
5.188758850097656,-0.37,0.39,-0.36,0.64
5.189401149749756,-0.65,0.31,0.67,0.98
5.197448968887329,-0.9,0.07,0.4,0.98
5.207426071166992,-1.04,-0.17,0.23,1.07
5.217468976974487,-1.01,-0.05,0.15,1.02
5.2274370193481445,-0.87,0.03,0.07,0.87
5.237432956695557,-0.58,0.1,0.04,0.58
5.247546195983887,-0.28,0.2,-0.2,0.39
5.257372856140137,0.04,0.18,-0.33,0.37
5.288331031799316,0.25,0.15,-0.27,0.39
5.289013862609863,0.47,0.18,0.05,0.5
5.289647102355957,0.74,0.23,0.38,0.86
5.297491073608398,0.96,0.31,0.28,1.04
5.307326078414917,1.08,0.38,0.04,1.14
5.317368984222412,1.34,0.37,-0.39,1.44
5.327324867248535,1.68,0.36,-0.69,1.85
5.337331056594849,2.03,0.41,-0.83,2.23
5.347285985946655,2.38,0.61,-0.87,2.6
5.357293128967285,2.75,0.89,-0.73,2.98
5.388395071029663,3.1,1.23,-0.96,3.47
5.389042854309082,3.28,1.27,-0.27,3.52
5.389679908752441,3.44,1.38,0.62,3.75
5.3972249031066895,3.57,1.69,0.01,3.94
5.407100200653076,3.29,2.34,-0.48,4.06
5.417200088500977,3.11,3.48,0.01,4.66
5.4272260665893555,3.46,3.66,-0.39,5.05
5.43715500831604,3.85,3.56,-0.65,5.28
5.447124004364014,4.16,3.59,-0.15,5.49
5.457046031951904,4.3,3.57,-0.32,5.59
5.488312005996704,4.49,3.93,-0.23,5.97
5.489042043685913,4.97,4.33,-0.15,6.59
5.4897050857543945,5.38,4.55,-0.31,7.05
5.496954917907715,5.79,4.95,-0.19,7.61
5.507017135620117,5.86,4.89,-0.17,7.63
5.517065048217773,5.4,4.52,-0.19,7.04
5.526998043060303,4.65,4.38,-0.29,6.39
5.537003040313721,3.56,4.19,-0.5,5.52
5.546918869018555,2.62,4.23,-0.58,5.0
5.5577170848846436,2.39,5.2,-1.29,5.86
5.587667942047119,2.7,6.14,-2.67,7.21
5.588316917419434,2.3,6.68,-2.68,7.55
5.588958978652954,0.02,7.37,-1.59,7.53
5.596773147583008,-0.2,7.07,-3.47,7.87
5.606882095336914,2.51,5.82,-3.83,7.4
5.616831064224243,5.23,5.33,-2.12,7.76
5.626832008361816,7.69,3.84,-1.54,8.73
5.63689398765564,9.42,1.5,-1.28,9.62
5.646758079528809,6.89,-1.03,-0.62,6.99
5.656814098358154,-0.16,-2.02,-0.37,2.05
5.6892008781433105,-2.97,-0.79,-3.57,4.71
5.689892053604126,2.21,1.63,-4.84,5.56
5.690543174743652,8.41,0.18,-3.15,8.98
5.696721076965332,11.32,-0.94,-0.92,11.39
5.7068190574646,11.59,-1.24,1.06,11.7
5.7168049812316895,9.45,-1.96,2.41,9.94
5.726744174957275,7.01,-2.7,3.1,8.12
5.736755847930908,5.38,-3.39,2.92,6.99
5.746803045272827,4.8,-3.89,2.43,6.63
5.756763935089111,5.1,-3.83,1.98,6.67
5.789005994796753,5.33,-3.44,1.49,6.51
5.7896599769592285,5.12,-3.26,1.29,6.2
5.790297985076904,4.76,-3.27,1.17,5.89
5.796800136566162,4.36,-3.19,1.09,5.51
5.80663800239563,3.91,-3.01,1.25,5.09
5.816616058349609,3.32,-2.62,1.68,4.55
5.826659202575684,2.73,-1.83,2.03,3.86
5.8366169929504395,2.39,-0.67,2.33,3.4
5.8468499183654785,2.41,0.76,2.69,3.69
5.856635093688965,2.49,1.98,2.59,4.1
5.888440132141113,1.39,3.41,1.18,3.86
5.889088153839111,-1.27,5.14,-1.25,5.44
5.889730930328369,-4.23,6.55,-3.58,8.57
5.896885871887207,-6.67,8.36,-4.89,11.75
5.906503200531006,-8.52,9.63,-4.91,13.76
5.916486978530884,-9.04,9.25,-4.44,13.67
5.926455974578857,-9.06,7.44,-3.83,12.33
5.936498165130615,-9.49,4.78,-3.87,11.3
5.946447849273682,-10.71,3.39,-5.45,12.48
5.956456184387207,-11.41,3.01,-6.11,13.28
5.991084098815918,-11.35,2.61,-4.52,12.49
5.992085933685303,-11.38,0.07,-2.28,11.6
5.992727994918823,-11.75,-2.69,-1.25,12.11
5.996249198913574,-11.07,-1.4,-1.27,11.23
6.0062620639801025,-10.19,0.31,-1.49,10.3
6.016358852386475,-9.46,1.33,-1.47,9.66
6.026307106018066,-8.89,0.98,-1.23,9.02
6.036341190338135,-8.16,0.69,-1.26,8.28
6.046257019042969,-2.5,3.37,-1.49,4.45
6.056155204772949,5.76,3.76,3.66,7.79
6.088644981384277,4.84,1.17,4.23,6.53
6.089292049407959,-1.48,1.62,-0.91,2.37
6.089935064315796,-6.81,4.03,-1.57,8.06
6.096156120300293,-8.13,5.04,-1.36,9.66
6.106258869171143,-8.05,5.54,-3.12,10.25
6.1162309646606445,-7.57,3.06,-3.65,8.94
6.126101016998291,-7.69,0.64,-4.18,8.77
6.136151075363159,-5.46,1.83,-2.24,6.17
6.146200180053711,-3.96,-0.35,0.24,3.98
6.156161069869995,-4.14,-2.43,0.32,4.81
6.18984317779541,-4.8,-1.74,-0.96,5.19
6.190512180328369,-4.28,-0.32,-0.76,4.35
6.191498041152954,-3.14,0.51,0.15,3.18
6.1960768699646,-2.15,0.54,0.39,2.25
6.206037998199463,-1.26,0.29,0.35,1.33
6.216070175170898,-0.6,0.08,0.4,0.72
6.225922107696533,-0.12,0.0,0.39,0.4
6.236093997955322,0.26,-0.04,0.27,0.37
6.246016979217529,0.45,-0.13,0.15,0.49
6.256120204925537,0.33,-0.27,-0.04,0.42
6.289766073226929,0.14,-0.36,-0.33,0.5
6.290444850921631,0.12,-0.15,-0.87,0.89
6.291436195373535,0.21,0.06,-1.39,1.4
6.295957088470459,0.2,0.1,-1.69,1.7
6.305938005447388,-0.03,0.23,-1.81,1.82
6.3159050941467285,-0.45,0.28,-1.63,1.71
6.325743198394775,-0.91,0.27,-1.03,1.4
6.335948944091797,-1.21,0.33,-0.4,1.31
6.345869064331055,-1.05,0.21,0.14,1.07
6.355885028839111,-0.7,0.01,0.52,0.87
6.3902599811553955,-0.34,-0.16,0.6,0.7
6.391272068023682,-0.17,-0.21,0.43,0.5
6.3919219970703125,-0.12,-0.16,0.17,0.26
6.39581298828125,0.14,-0.1,0.07,0.18
6.405795097351074,0.3,0.04,0.14,0.33
6.415847063064575,0.48,0.05,0.11,0.49
6.425734996795654,0.62,0.02,0.06,0.62
6.4357590675354,0.58,0.0,-0.16,0.6
6.445755958557129,0.24,-0.01,-0.52,0.57
6.455702066421509,-0.06,-0.01,-0.85,0.85
6.490199089050293,-0.22,-0.02,-1.08,1.1
6.491250991821289,-0.26,0.0,-1.06,1.09
6.491898059844971,-0.3,-0.02,-0.65,0.71
6.495613098144531,-0.28,-0.02,-0.02,0.28
6.505618095397949,-0.26,-0.02,0.52,0.58
6.515613079071045,-0.18,0.0,0.58,0.6
6.525628089904785,-0.14,0.03,0.3,0.33
6.535682201385498,-0.21,0.03,0.03,0.21
6.54561185836792,-0.24,0.05,-0.32,0.4
6.555577993392944,-0.14,0.09,-0.75,0.76
6.5895349979400635,0.08,0.11,-1.12,1.12
6.590175151824951,0.4,0.05,-1.11,1.18
6.591122150421143,0.67,-0.12,-0.81,1.05
6.595412015914917,1.04,-0.28,-0.39,1.14
6.605461120605469,1.42,-0.25,0.15,1.44
6.615455150604248,1.57,0.07,0.46,1.63
6.625471115112305,1.56,0.45,0.3,1.65
6.635517120361328,1.87,0.58,0.54,2.03
6.645438194274902,2.46,0.6,0.55,2.59
6.65554404258728,3.17,0.57,0.26,3.23
6.689966201782227,3.98,0.51,0.05,4.01
6.6909520626068115,4.78,0.48,-0.13,4.8
6.691554069519043,5.19,0.58,-0.81,5.28
6.6952290534973145,5.16,0.79,-1.28,5.37
6.705265045166016,5.03,0.82,-1.38,5.27
6.715282917022705,4.2,1.06,-1.93,4.74
6.72527003288269,2.92,1.56,-2.27,4.01
6.735405921936035,2.58,1.96,-1.64,3.63
6.745181083679199,1.83,3.25,0.24,3.73
6.755241870880127,1.48,5.71,-0.18,5.9
6.789722919464111,3.32,6.03,-0.08,6.88
6.790677070617676,2.71,4.97,1.28,5.8
6.791290044784546,2.67,4.82,0.75,5.56
6.795222997665405,2.61,4.54,0.76,5.29
6.80512809753418,2.94,4.66,0.23,5.51
6.815116882324219,3.14,4.85,-0.36,5.78
6.825140953063965,3.56,4.5,-0.36,5.74
6.835139036178589,3.21,3.72,0.2,4.91
6.84514307975769,2.9,3.71,0.56,4.74
6.855004072189331,2.73,4.63,0.05,5.37
6.890191078186035,2.47,6.48,-0.52,6.95
6.891010046005249,2.83,7.56,-1.34,8.18
6.891615867614746,4.17,7.26,-2.0,8.6
6.895050048828125,5.05,6.24,-2.28,8.34
6.904873847961426,3.63,5.78,-2.3,7.2
6.915014982223511,1.23,7.23,-3.31,8.04
6.925025939941406,1.27,5.9,-4.33,7.42
6.935103893280029,4.82,4.74,-2.44,7.18
6.945029020309448,9.02,3.51,-1.17,9.74
6.955111980438232,10.74,1.14,-0.19,10.8
6.990411996841431,8.22,-3.51,0.39,8.94
6.9910359382629395,1.94,-4.65,0.75,5.09
6.991644859313965,-3.89,-3.4,-2.06,5.56
6.994925022125244,-3.53,0.8,-4.26,5.59
7.004997968673706,3.64,0.39,-4.35,5.68
7.014820098876953,8.87,-1.63,-2.86,9.46
7.024906158447266,10.69,-2.17,-1.04,10.95
7.034990072250366,10.01,-2.1,0.31,10.23
7.044938087463379,8.13,-2.67,1.57,8.7
7.054916858673096,6.27,-3.64,2.25,7.59
7.091207027435303,5.32,-4.21,2.09,7.09
7.091825008392334,5.23,-3.94,1.68,6.76
7.092422008514404,5.6,-3.3,1.11,6.59
7.094817161560059,5.67,-2.81,0.72,6.36
7.104813098907471,5.42,-2.61,0.79,6.06
7.114598989486694,5.01,-2.31,1.12,5.62
7.1247570514678955,4.44,-1.76,1.49,5.0
7.134818077087402,3.66,-1.28,2.15,4.43
7.144773006439209,2.72,-0.88,2.94,4.1
7.154778957366943,1.74,-0.35,3.22,3.67
7.19094705581665,1.23,0.41,3.12,3.37
7.191562175750732,1.5,1.13,2.83,3.39
7.192157983779907,1.18,2.46,1.69,3.2
7.194672107696533,-0.47,3.76,-0.33,3.8
7.2046849727630615,-3.05,5.22,-2.36,6.49
7.214734077453613,-6.66,6.99,-3.81,10.37
7.224706172943115,-10.26,7.64,-4.19,13.46
7.234647989273071,-11.61,6.82,-3.6,13.93
7.2445878982543945,-10.96,4.91,-2.61,12.28
7.254669189453125,-9.94,3.09,-2.23,10.64
7.2918500900268555,-9.71,2.76,-3.11,10.56
7.292466163635254,-10.48,4.02,-4.29,12.01
7.293063163757324,-10.23,6.57,-4.37,12.91
7.29445219039917,-11.19,1.21,-3.35,11.74
7.3044328689575195,-13.29,-1.26,-2.45,13.57
7.314824104309082,-13.12,-1.36,-1.7,13.29
7.3244850635528564,-12.46,-0.41,-1.79,12.59
7.334618091583252,-10.56,0.79,-1.86,10.75
7.3445680141448975,-8.96,1.47,-0.76,9.11
7.3545520305633545,-6.66,3.96,-1.28,7.85
7.364491939544678,1.73,5.04,0.49,5.35
7.3915650844573975,6.13,1.48,4.26,7.61
7.392153024673462,1.97,-0.28,1.21,2.32
7.39437198638916,-3.75,2.89,-1.07,4.85
7.404365062713623,-6.95,4.04,-0.05,8.03
7.414412975311279,-7.48,3.85,-0.46,8.42
7.42441987991333,-6.36,3.02,-1.63,7.22
7.43441104888916,-4.43,1.61,-0.99,4.81
7.4443230628967285,-4.97,-0.86,-1.95,5.4
7.4543609619140625,-4.37,-0.16,-2.11,4.85
7.4643049240112305,-4.11,0.54,-0.42,4.16
7.492552042007446,-4.52,-0.74,0.48,4.6
7.493145942687988,-4.75,-0.87,0.0,4.82
7.494330883026123,-3.83,0.12,-0.24,3.83
7.504209041595459,-2.43,0.42,0.31,2.48
7.514254093170166,-1.18,-0.04,0.53,1.29
7.524164199829102,-0.19,-0.25,0.43,0.53
7.534275054931641,0.28,-0.07,0.15,0.32
7.5442070960998535,0.35,0.17,-0.2,0.43
7.554233074188232,0.43,0.21,-0.53,0.71
7.564259052276611,0.27,0.16,-0.72,0.78
7.592311859130859,-0.17,0.08,-0.91,0.92
7.592905044555664,-0.65,-0.06,-1.26,1.41
7.594090938568115,-0.87,-0.04,-1.58,1.8
7.604129076004028,-0.88,0.03,-1.59,1.81
7.614094018936157,-0.7,0.03,-1.27,1.45
7.624124050140381,-0.44,0.03,-1.0,1.09
7.634067058563232,-0.23,0.15,-0.78,0.82
7.644047975540161,-0.06,0.11,-0.35,0.37
7.654101848602295,0.07,-0.08,-0.17,0.2
7.664033889770508,-0.02,-0.1,-0.1,0.14
7.691372871398926,-0.32,-0.09,0.03,0.33
7.691962003707886,-0.66,-0.13,-0.11,0.68
7.694032192230225,-0.94,-0.15,-0.36,1.01
7.704012870788574,-1.05,-0.04,-0.51,1.16
7.7139811515808105,-0.9,0.08,-0.65,1.11
7.723940849304199,-0.49,0.01,-0.9,1.02
7.733978986740112,-0.11,0.0,-1.11,1.11
7.743965148925781,0.18,0.15,-0.78,0.81
7.7539448738098145,0.28,0.04,-0.23,0.36
7.763859033584595,0.19,0.02,-0.04,0.19
7.792057037353516,0.08,0.1,-0.01,0.12
7.792646884918213,0.09,0.02,0.07,0.11
7.793823003768921,0.06,-0.07,0.07,0.11
7.8038458824157715,0.0,-0.07,0.05,0.08
7.813840866088867,-0.02,-0.03,-0.1,0.1
7.823788166046143,0.09,0.01,-0.39,0.4
7.833853006362915,0.27,0.03,-0.58,0.64
7.843695163726807,0.4,0.03,-0.55,0.68
7.853805065155029,0.32,0.16,-0.41,0.54
7.863774061203003,0.16,0.37,-0.07,0.4
7.892348051071167,0.34,0.28,0.49,0.65
7.892940998077393,0.7,0.13,0.68,0.98
7.89411997795105,1.11,0.08,0.59,1.25
7.903736114501953,1.5,0.06,0.33,1.53
7.913628101348877,1.91,0.11,0.15,1.91
7.923645973205566,2.14,0.23,-0.19,2.16
7.933665990829468,2.31,0.38,-0.62,2.42
7.943578004837036,2.63,0.46,-0.68,2.75
7.953629970550537,3.21,0.52,-0.67,3.32
7.963587999343872,3.54,0.6,-0.68,3.65
7.992470979690552,3.63,0.74,-0.58,3.74
7.993103981018066,3.81,1.11,-0.65,4.02
7.994264125823975,4.03,1.31,-1.19,4.4
8.003551959991455,3.89,1.49,-0.99,4.28
8.013472080230713,3.52,1.82,-0.41,3.98
8.023496150970459,3.24,2.19,0.12,3.91
8.033553123474121,2.7,3.75,-0.55,4.65
8.043488025665283,2.82,4.6,-0.25,5.4
8.07485294342041,2.63,3.84,0.64,4.69
8.075448036193848,2.7,3.76,0.53,4.65
8.07604694366455,2.91,3.75,0.52,4.77
8.083494186401367,3.55,3.96,0.23,5.32
8.093340873718262,4.19,4.42,0.12,6.09
8.103479862213135,4.86,4.56,-0.5,6.68
8.113339900970459,5.15,4.59,-0.71,6.93
8.123347043991089,4.79,4.5,-1.14,6.67
8.133414030075073,4.56,4.73,-1.42,6.72
8.143359184265137,4.49,5.59,-1.25,7.27
8.177314043045044,4.36,6.81,-2.08,8.34
8.177929878234863,4.67,7.57,-3.18,9.44
8.178825855255127,5.01,6.98,-3.46,9.26
8.183263063430786,4.48,5.93,-3.16,8.07
8.193224906921387,1.41,6.86,-1.86,7.24
8.203291893005371,-1.72,7.66,-2.89,8.36
8.213204860687256,0.23,5.83,-4.71,7.49
8.223304986953735,3.85,4.65,-2.68,6.6
8.233272075653076,6.89,3.48,-1.36,7.83
8.243235111236572,9.18,0.79,-0.84,9.25
8.276311874389648,7.18,-1.92,-0.11,7.43
8.276918888092041,0.56,-2.9,0.49,2.99
8.277502059936523,-3.88,-3.62,-2.47,5.85
8.28310489654541,-3.25,-0.97,-3.96,5.21
8.293128967285156,3.18,-0.78,-4.04,5.2
8.303155899047852,8.13,-2.41,-2.58,8.86
8.31313419342041,9.79,-2.9,-0.78,10.24
8.323110103607178,9.55,-2.72,0.65,9.95
8.332980155944824,8.17,-3.01,2.03,8.94
8.343102931976318,6.57,-3.94,2.63,8.09
8.376497983932495,5.91,-4.58,2.54,7.89
8.377091884613037,6.21,-4.46,2.16,7.94
8.377717018127441,6.43,-3.92,1.56,7.69
8.38289499282837,5.95,-3.46,0.97,6.95
8.392982959747314,5.04,-3.27,0.65,6.04
8.402988910675049,4.23,-3.12,0.6,5.29
8.412858009338379,3.69,-2.75,0.57,4.63
8.422768115997314,3.36,-2.35,0.69,4.15
8.432887077331543,3.1,-2.03,1.09,3.86
8.44299602508545,2.75,-1.52,1.61,3.53
8.47690486907959,2.41,-0.76,2.24,3.37
8.477500915527344,2.58,0.42,2.71,3.76
8.478402137756348,2.76,1.58,2.4,3.98
8.482765197753906,1.74,3.27,0.55,3.74
8.492851972579956,-0.52,5.17,-2.25,5.66
8.502928972244263,-3.43,6.69,-4.72,8.87
8.512876033782959,-6.53,7.86,-6.03,11.86
8.52285385131836,-8.92,8.04,-5.71,13.29
8.532697200775146,-10.38,7.12,-4.25,13.28
8.542846202850342,-11.18,6.17,-2.96,13.1
8.57741904258728,-11.55,4.79,-3.29,12.92
8.578330993652344,-11.46,7.53,-5.78,14.88
8.578927993774414,-9.48,7.88,-7.68,14.52
8.582643032073975,-13.83,0.14,-5.74,14.97
8.592774868011475,-14.0,-0.58,-2.9,14.3
8.602796077728271,-12.89,-2.26,0.1,13.08
8.612712860107422,-11.59,-2.0,1.03,11.8
8.622736930847168,-9.22,-0.19,1.31,9.31
8.632750988006592,-6.61,1.39,2.02,7.05
8.642682075500488,-5.39,2.55,2.59,6.5
8.678037166595459,-3.39,3.83,0.86,5.18
8.678637981414795,3.24,2.69,1.94,4.63
8.679221153259277,4.5,-0.6,3.49,5.72
8.682673931121826,-0.82,1.53,0.73,1.88
8.692556858062744,-6.79,5.94,-0.04,9.02
8.702625036239624,-10.04,4.78,-0.35,11.12
8.712972164154053,-9.94,0.28,-5.0,11.13
8.722517013549805,-9.1,0.99,-6.93,11.48
8.73274302482605,-5.39,4.85,-2.94,7.82
8.742546081542969,-2.8,0.26,0.48,2.85
8.778426170349121,-3.09,-3.13,-0.03,4.39
8.779017925262451,-4.09,-1.9,-1.31,4.69
8.779600143432617,-4.27,-0.17,-1.35,4.48
8.782796859741211,-3.16,0.39,0.98,3.33
8.79243803024292,-1.11,-0.45,2.82,3.06
8.80242919921875,0.29,-0.74,2.92,3.02
8.812442064285278,0.98,-0.14,1.22,1.57
8.822457075119019,0.45,0.21,-0.32,0.59
8.832373142242432,-0.67,0.07,-0.66,0.94
8.842371940612793,-1.18,0.21,-1.08,1.61
8.878412008285522,-1.52,0.21,-1.54,2.17
8.878974914550781,-1.83,0.12,-1.99,2.7
8.879562854766846,-1.72,-0.03,-2.23,2.81
8.882369041442871,-1.21,-0.2,-1.2,1.71
8.89231014251709,-0.36,-0.19,-0.08,0.41
8.90226697921753,0.31,0.01,0.24,0.39
8.912230968475342,0.17,0.16,0.14,0.27
8.922258853912354,-0.37,0.19,-0.05,0.41
8.932299137115479,-0.65,0.11,-0.31,0.72
8.94231104850769,-0.55,0.03,-0.67,0.86
8.97913408279419,-0.09,0.0,-1.03,1.03
8.979732990264893,0.41,0.03,-1.17,1.24
8.980345010757446,0.2,0.08,-0.98,1.0
8.982145071029663,-0.03,0.12,-0.77,0.77
8.992094039916992,0.03,0.06,-0.41,0.41
9.002034187316895,0.12,0.0,-0.25,0.27
9.011990070343018,0.13,0.07,-0.1,0.17
9.022057056427002,0.05,0.07,0.12,0.14
9.032043933868408,-0.14,0.06,0.2,0.25
9.042055130004883,-0.11,-0.01,0.12,0.16
9.079065084457397,0.1,-0.12,-0.07,0.17
9.079663038253784,0.37,-0.11,-0.23,0.44
9.080246925354004,0.33,-0.05,-0.28,0.43
9.082079887390137,0.28,-0.01,-0.19,0.33
9.091978073120117,0.24,-0.04,-0.08,0.25
9.101982116699219,0.08,-0.01,-0.11,0.13
9.112010955810547,0.1,-0.02,0.06,0.11
9.122014045715332,0.35,0.03,0.16,0.38
9.132035970687866,0.51,0.15,0.01,0.53
9.14200210571289,0.39,0.22,-0.17,0.47
9.179157972335815,0.28,0.37,-0.27,0.53
9.179758071899414,0.39,0.35,-0.19,0.55
9.180336952209473,0.82,0.32,-0.18,0.89
9.181939125061035,1.35,0.3,-0.29,1.41
9.191958904266357,1.71,0.36,-0.5,1.81
9.201911926269531,1.97,0.46,-0.38,2.05
9.211886882781982,2.41,0.54,-0.48,2.51
9.221921920776367,3.21,0.6,-0.7,3.33
9.231854915618896,4.06,0.63,-0.76,4.17
9.241831064224243,4.48,0.86,-0.47,4.58
9.27920913696289,4.88,1.26,-0.05,5.04
9.27981185913086,4.99,1.96,0.25,5.36
9.280386924743652,4.8,3.47,0.14,5.92
9.281771183013916,4.94,4.34,0.75,6.61
9.291686058044434,4.84,4.52,0.02,6.62
9.301758050918579,4.86,5.13,-0.76,7.1
9.311774969100952,4.89,5.08,-1.12,7.13
9.321716070175171,4.38,4.76,-0.93,6.53
9.331685066223145,4.08,4.8,-0.7,6.33
9.341695070266724,4.48,5.25,-0.22,6.9
9.379517078399658,4.87,5.33,-0.26,7.22
9.380125045776367,5.0,5.11,-0.33,7.15
9.380706071853638,4.78,4.95,-0.6,6.9
9.381516933441162,4.15,4.66,-1.21,6.35
9.391583919525146,3.38,5.37,-1.62,6.54
9.401598930358887,2.2,7.69,-1.81,8.2
9.41150188446045,1.0,9.69,-2.12,9.96
9.421611070632935,0.41,8.74,-3.16,9.3
9.431526184082031,0.16,6.52,-4.43,7.88
9.441601037979126,0.76,6.84,-5.35,8.71
9.480093002319336,3.17,6.07,-4.22,8.04
9.480690002441406,5.77,4.44,-1.64,7.46
9.481297969818115,8.53,2.52,-0.05,8.89
9.481881141662598,10.05,-0.51,1.1,10.12
9.491419076919556,5.22,-2.58,2.38,6.29
9.501471996307373,-1.67,-4.63,0.55,4.95
9.51143503189087,-3.73,-3.55,-3.34,6.13
9.52140498161316,1.34,-0.31,-4.14,4.36
9.531446933746338,8.59,-0.87,-2.97,9.13
9.5413179397583,12.65,-1.52,-0.35,12.74
9.580562114715576,12.59,-0.89,2.8,12.92
9.581197023391724,10.76,-1.14,4.76,11.82
9.581780910491943,7.56,-2.72,4.63,9.27
9.582360982894897,4.73,-2.95,2.67,6.18
9.591356992721558,3.62,-2.56,0.89,4.52
9.60132884979248,3.98,-2.54,0.58,4.75
9.611248970031738,4.16,-2.5,0.83,4.92
9.621251106262207,3.74,-2.29,1.08,4.51
9.631227970123291,2.86,-2.04,1.41,3.78
9.641270160675049,1.66,-1.72,1.4,2.77
9.680499076843262,0.52,-1.51,1.21,2.0
9.681096076965332,-0.03,-1.31,1.3,1.84
9.681676864624023,0.11,-1.1,1.54,1.89
9.682254076004028,0.53,-0.75,2.13,2.31
9.691183090209961,0.94,-0.08,3.03,3.17
9.701081037521362,1.49,0.24,3.66,3.95
9.711223125457764,2.19,0.37,3.64,4.26
9.721208095550537,1.68,1.2,2.59,3.31
9.731175899505615,0.26,2.5,1.09,2.73
9.741127967834473,-1.38,3.95,0.02,4.18
9.7812020778656,-3.46,5.14,-1.01,6.27
9.781795978546143,-5.27,5.73,-2.13,8.07
9.782376050949097,-6.18,6.12,-2.92,9.17
9.78295612335205,-6.79,6.32,-3.75,10.0
9.791017055511475,-7.62,5.87,-4.77,10.73
9.800957202911377,-9.2,5.04,-5.79,11.98
9.810940980911255,-11.2,3.61,-6.25,13.32
9.821022033691406,-12.19,2.18,-5.58,13.58
9.830981016159058,-10.67,3.39,-4.48,12.05
9.84082317352295,-11.52,-2.15,-4.01,12.38
9.881081104278564,-12.37,-2.61,-4.44,13.39
9.881676197052002,-11.02,-1.44,-3.88,11.77
9.882261991500854,-10.48,-0.57,-3.39,11.02
9.882843971252441,-9.94,0.65,-2.77,10.33
9.890817165374756,-9.27,2.02,-2.38,9.78
9.900713920593262,-2.8,4.74,-2.39,6.0
9.910773992538452,5.2,3.64,2.6,6.85
9.920799016952515,5.4,1.12,2.44,6.03
9.930663108825684,0.09,2.41,-1.44,2.8
9.940878868103027,-4.43,4.44,-1.27,6.39
9.982564926147461,-6.32,5.0,-0.89,8.1
9.98315715789795,-6.93,4.02,-2.55,8.4
9.984097003936768,-6.12,2.54,-3.39,7.44
9.984686851501465,-6.89,-0.02,-4.85,8.42
9.990747928619385,-5.49,1.57,-3.03,6.46
10.000577926635742,-3.74,0.88,-0.16,3.84
10.010773181915283,-3.74,-1.79,0.13,4.14
10.020717144012451,-4.42,-1.82,-0.8,4.84
10.03065800666809,-3.81,-0.65,-0.62,3.91
10.040708065032959,-2.68,0.25,0.12,2.69
10.08230209350586,-2.08,0.3,-0.23,2.11
10.08289384841919,-1.38,0.04,-0.44,1.44
10.083477973937988,-0.34,-0.03,0.01,0.34
10.084371089935303,0.72,0.12,0.29,0.78
10.090529918670654,1.31,0.15,0.17,1.32
10.100669860839844,0.99,-0.05,0.02,0.99
10.110635042190552,0.57,-0.25,-0.14,0.63
10.120665073394775,0.38,-0.16,-0.6,0.72
10.130568981170654,0.14,0.1,-1.36,1.37
10.140563011169434,-0.27,0.34,-1.92,1.96
10.182968139648438,-0.64,0.28,-1.83,1.95
10.183564186096191,-0.76,0.0,-1.44,1.62
10.1844801902771,-0.49,-0.28,-0.57,0.8
10.185093879699707,-0.04,-0.14,0.43,0.45
10.19049596786499,0.46,0.13,0.97,1.08
10.200731039047241,0.73,0.2,1.04,1.28
10.210453033447266,0.54,0.11,0.57,0.79
10.220484018325806,0.13,0.05,-0.13,0.19
10.23043704032898,-0.25,-0.07,-0.7,0.74
10.240370035171509,-0.6,-0.05,-0.98,1.15
10.250380992889404,-0.93,0.01,-0.99,1.35
10.283490180969238,-0.96,-0.08,-0.98,1.37
10.284425973892212,-1.0,-0.27,-0.93,1.39
10.285345077514648,-1.03,-0.18,-0.66,1.23
10.290316104888916,-0.91,-0.13,-0.38,0.99
10.300162076950073,-0.86,-0.08,-0.09,0.86
10.310258865356445,-0.84,0.01,0.03,0.84
10.32037901878357,-0.84,-0.04,-0.12,0.84
10.33028793334961,-0.82,-0.1,-0.11,0.83
10.340267181396484,-0.77,-0.06,-0.25,0.81
10.350255012512207,-0.75,-0.07,-0.44,0.87
10.38312816619873,-0.61,-0.07,-0.52,0.8
10.383688926696777,-0.52,-0.04,-0.58,0.78
10.384639978408813,-0.46,0.03,-0.44,0.63
10.390249967575073,-0.35,0.02,-0.28,0.44
10.400184154510498,-0.17,0.05,-0.27,0.32
10.410138130187988,-0.02,0.1,-0.08,0.12
10.420114994049072,0.15,0.15,0.08,0.22
10.43012809753418,0.35,0.19,0.14,0.42
10.44007396697998,0.54,0.09,0.14,0.56
10.450077056884766,0.77,-0.02,0.03,0.77
10.48324704170227,1.03,-0.05,0.01,1.03
10.483842849731445,1.26,0.06,0.13,1.26
10.485054969787598,1.45,0.16,0.06,1.46
10.490220069885254,1.59,0.31,-0.18,1.62
10.500012874603271,1.89,0.47,-0.49,2.0
10.509870052337646,2.41,0.52,-0.65,2.54
10.52010703086853,2.93,0.5,-0.72,3.05
10.529942989349365,3.72,0.54,-0.86,3.85
10.539988040924072,4.25,0.6,-0.95,4.39
10.549960136413574,4.54,0.73,-0.73,4.65
10.583606004714966,4.91,0.88,-0.49,5.01
10.584558963775635,4.96,1.19,-0.61,5.13
10.585484027862549,4.7,1.91,-0.91,5.15
10.589910984039307,4.29,3.9,-1.47,5.98
10.599878072738647,4.34,5.02,-0.18,6.63
10.609883069992065,4.02,4.33,1.6,6.12
10.619922161102295,3.96,4.55,1.46,6.2
10.629791975021362,3.92,5.12,1.54,6.62
10.639878988265991,4.11,4.98,1.76,6.69
10.649876117706299,4.1,4.81,1.38,6.46
10.683712005615234,3.86,4.8,0.83,6.21
10.68465805053711,3.84,4.83,0.21,6.17
10.68557596206665,3.81,4.42,-0.45,5.85
10.689812183380127,3.42,3.81,-0.57,5.15
10.699694156646729,2.68,3.98,-0.36,4.81
10.709747076034546,1.58,5.36,-0.59,5.61
10.719787120819092,0.69,7.74,-1.06,7.84
10.729741096496582,0.09,8.9,-2.0,9.12
10.739724159240723,0.62,7.15,-2.89,7.73
10.749656200408936,0.55,5.46,-2.07,5.86
10.784707069396973,0.17,5.79,-2.99,6.51
10.785512924194336,1.43,4.17,-3.98,5.93
10.78609299659729,4.18,3.76,-2.47,6.14
10.78972601890564,7.97,3.34,-1.63,8.79
10.799583911895752,11.4,0.42,-0.98,11.44
10.80961298942566,7.71,-2.2,0.54,8.03
10.819630146026611,-0.76,-3.31,0.15,3.39
10.829586029052734,-3.55,-2.81,-4.31,6.25
10.839606046676636,1.23,-0.11,-5.5,5.63
10.849552154541016,7.96,-0.91,-3.93,8.92
10.88508415222168,10.83,-1.59,-1.56,11.05
10.88572096824646,10.6,-2.02,0.74,10.81
10.886320114135742,8.9,-3.01,2.1,9.62
10.889541149139404,7.42,-3.84,2.88,8.83
10.899407863616943,6.81,-4.17,2.86,8.48
10.909481048583984,6.83,-3.99,2.18,8.2
10.919493198394775,6.85,-3.52,1.42,7.83
10.92940092086792,6.39,-3.22,1.05,7.23
10.94020414352417,5.62,-3.18,0.75,6.5
10.949352025985718,4.86,-3.09,0.42,5.77
10.985350131988525,4.17,-2.77,0.28,5.01
10.985948085784912,3.73,-2.35,0.41,4.42
10.986528873443604,3.19,-1.79,0.74,3.73
10.989372968673706,2.6,-0.99,1.19,3.02
10.999253988265991,2.17,-0.08,1.69,2.75
11.009323120117188,1.99,0.97,1.73,2.8
11.019269943237305,1.26,2.04,0.95,2.57
11.02912712097168,-0.89,3.2,-0.84,3.42
11.039288997650146,-3.69,3.8,-2.62,5.9
11.049329042434692,-5.38,4.2,-3.03,7.46
11.086150169372559,-6.08,5.17,-2.38,8.32
11.0867440700531,-6.2,5.78,-1.79,8.66
11.087341070175171,-5.79,5.88,-1.84,8.45
11.08912992477417,-5.25,5.69,-2.12,8.02
11.099244117736816,-5.2,5.39,-2.2,7.8
11.10917615890503,-6.04,5.21,-2.68,8.41
11.119107007980347,-7.47,5.44,-3.31,9.81
11.129119873046875,-8.04,6.21,-3.6,10.77
11.139180183410645,-11.29,2.36,-3.27,11.98
11.149182081222534,-12.25,0.45,-3.2,12.66
11.186241149902344,-12.48,1.34,-2.95,12.89
11.186840057373047,-11.35,0.92,-2.66,11.69
11.187426090240479,-10.03,0.37,-2.4,10.31
11.188994884490967,-9.67,0.77,-2.52,10.02
11.199005126953125,-9.67,-1.03,-2.85,10.13
11.20906114578247,-8.89,-0.8,-2.55,9.28
11.218836069107056,-8.1,0.16,-1.9,8.32
11.228996992111206,-3.48,2.74,-1.09,4.56
11.239065170288086,5.58,3.24,2.93,7.08
11.249022960662842,8.2,1.12,5.85,10.13
11.286778926849365,2.16,0.63,3.18,3.89
11.287364959716797,-4.79,4.66,-0.1,6.68
11.287950992584229,-7.88,6.57,-1.24,10.33
11.289156913757324,-8.89,3.19,-3.85,10.19
11.298890113830566,-8.45,2.41,-4.26,9.76
11.308942079544067,-3.82,3.26,-0.41,5.03
11.318787097930908,-1.96,-0.99,2.86,3.6
11.328866958618164,-3.11,-3.83,1.96,5.3
11.338890075683594,-4.88,-3.23,0.14,5.85
11.348845958709717,-5.1,-1.84,-0.3,5.43
11.38766098022461,-4.04,0.13,0.37,4.05
11.388378143310547,-2.97,1.02,-0.09,3.14
11.389079093933105,-2.2,0.48,-1.36,2.63
11.390392065048218,-1.42,0.13,-2.02,2.47
11.398701190948486,-0.69,0.56,-1.64,1.86
11.408778190612793,0.06,0.65,-0.86,1.07
11.418739080429077,0.34,0.31,-0.27,0.53
11.428714990615845,0.11,0.17,-0.1,0.22
11.438801050186157,-0.19,0.11,-0.24,0.32
11.448615074157715,-0.29,0.02,-0.79,0.84
11.487834930419922,-0.46,-0.01,-1.43,1.5
11.488455057144165,-0.59,0.01,-1.83,1.92
11.489057064056396,-0.66,0.14,-2.07,2.17
11.490251064300537,-0.52,0.04,-1.31,1.41
11.498637199401855,-0.33,-0.05,-0.4,0.52
11.508674144744873,-0.26,0.04,-0.15,0.3
11.518828868865967,-0.31,0.14,0.17,0.38
11.528553009033203,-0.32,0.06,0.41,0.52
11.538671016693115,-0.07,0.0,0.04,0.08
11.548619031906128,0.36,0.12,-0.34,0.5
11.588715076446533,0.66,0.07,-0.42,0.78
11.589293956756592,0.51,0.07,-0.54,0.74
11.589842081069946,0.18,0.11,-0.58,0.61
11.591001987457275,-0.02,0.03,-0.34,0.34
11.59850001335144,-0.14,-0.04,-0.13,0.19
11.60857105255127,0.12,-0.05,0.12,0.17
11.618839025497437,0.52,-0.08,0.36,0.63
11.628643989562988,0.78,-0.12,0.21,0.81
11.638521194458008,0.98,-0.04,0.11,0.98
11.648376941680908,0.88,-0.03,0.27,0.92
11.688179969787598,0.59,0.0,0.27,0.64
11.688732147216797,0.22,-0.03,0.26,0.34
11.689320087432861,0.18,-0.06,0.22,0.29
11.690479040145874,0.19,-0.04,-0.27,0.33
11.698339939117432,0.12,0.0,-0.37,0.38
11.70833706855774,0.18,0.17,-0.68,0.72
11.718140125274658,0.33,0.28,-0.92,1.01
11.72826099395752,0.37,0.28,-0.65,0.79
11.738335132598877,0.11,0.3,-0.8,0.86
11.748251914978027,0.15,0.29,-0.5,0.59
11.789026975631714,0.45,0.31,-0.19,0.57
11.78961706161499,0.82,0.35,-0.26,0.92
11.790197849273682,1.37,0.31,-0.41,1.46
11.791357040405273,2.05,0.29,-0.5,2.12
11.798234939575195,2.79,0.35,-0.46,2.84
11.808229923248291,3.64,0.33,-0.18,3.65
11.818166971206665,4.38,0.45,0.26,4.41
11.828219890594482,4.76,0.78,0.2,4.82
11.838235855102539,4.58,1.17,-0.04,4.72
11.848144054412842,3.81,1.65,0.33,4.16
11.889418125152588,2.88,2.27,0.33,3.68
11.889970064163208,2.44,3.37,-0.7,4.21
11.890583038330078,2.48,3.69,0.06,4.44
11.891765117645264,2.73,3.67,-0.74,4.63
11.898055076599121,2.88,3.83,-0.56,4.82
11.90805196762085,3.07,3.96,-0.46,5.03
11.91800594329834,3.32,4.1,-0.43,5.29
11.92802906036377,3.56,4.01,-0.01,5.36
11.938170909881592,3.65,3.89,0.3,5.34
11.948014974594116,3.98,4.28,0.34,5.85
11.989355087280273,4.3,4.32,0.31,6.1
11.989943981170654,3.85,4.04,0.14,5.58
11.990520000457764,3.13,4.26,0.0,5.28
11.99167013168335,2.45,4.98,-0.29,5.55
11.99787712097168,1.91,6.21,-1.07,6.58
12.007923126220703,2.53,7.27,-2.23,8.01
12.017896175384521,3.82,6.66,-3.05,8.26
12.027851104736328,3.65,5.69,-2.87,7.34
12.037934064865112,1.1,6.17,-1.19,6.37
12.047919988632202,-0.6,7.37,-2.32,7.74
12.09015417098999,-0.25,5.09,-4.46,6.77
12.090741157531738,2.99,3.45,-2.91,5.41
12.091320037841797,6.67,2.92,-2.13,7.58
12.092831134796143,9.44,1.77,-1.56,9.73
12.09779405593872,8.44,-1.6,-0.37,8.59
12.107837200164795,0.74,-3.49,0.87,3.67
12.117761135101318,-3.36,-3.35,-2.07,5.17
12.127631187438965,0.77,-0.55,-4.32,4.42
12.137928009033203,7.67,-0.63,-3.01,8.26
12.147719860076904,10.75,-1.9,-0.9,10.95
12.19016695022583,11.74,-2.01,1.13,11.96
12.190770149230957,10.8,-2.25,2.35,11.27
12.191354036331177,8.91,-2.61,2.97,9.74
12.192897081375122,7.44,-2.68,2.94,8.43
12.197630882263184,6.37,-2.7,2.37,7.31
12.20765495300293,5.76,-2.72,1.83,6.62
12.217611074447632,5.35,-2.78,1.65,6.25
12.227563858032227,4.88,-2.9,1.43,5.85
12.237698078155518,4.55,-2.88,1.16,5.5
12.247538089752197,4.27,-2.53,1.0,5.06
12.290924072265625,3.99,-1.92,1.09,4.56
12.291519165039062,3.54,-1.28,1.62,4.09
12.292451858520508,3.03,-0.58,2.18,3.77
12.293618202209473,2.89,0.25,2.8,4.03
12.297504901885986,3.08,1.06,3.22,4.58
12.307487964630127,2.16,2.44,2.06,3.85
12.317451000213623,-0.4,4.03,-0.7,4.1
12.327442169189453,-3.18,4.91,-3.08,6.61
12.337544918060303,-5.41,5.99,-4.08,9.04
12.3474280834198,-7.15,7.22,-4.19,10.99
12.391156196594238,-8.1,7.42,-4.25,11.77
12.391775131225586,-8.51,6.59,-4.3,11.59
12.392685890197754,-8.69,5.28,-4.28,11.03
12.39385986328125,-8.85,4.03,-5.02,10.94
12.397294998168945,-9.59,3.17,-6.01,11.75
12.407377004623413,-10.86,2.67,-5.72,12.56
12.417335033416748,-11.36,1.69,-4.51,12.33
12.427325010299683,-10.92,-0.2,-3.19,11.37
12.43724012374878,-10.21,-1.69,-2.23,10.58
12.447277069091797,-9.65,-2.33,-1.72,10.07
12.491291046142578,-9.02,-2.02,-1.56,9.37
12.492205142974854,-7.08,1.88,-1.86,7.55
12.492801189422607,-5.53,2.53,-1.95,6.38
12.493990898132324,-5.57,1.13,-1.26,5.82
12.49715805053711,-5.46,0.85,0.23,5.53
12.507256984710693,-4.48,0.96,1.02,4.69
12.517191886901855,0.3,1.65,1.23,2.07
12.52718210220337,5.52,1.15,5.69,8.01
12.53711199760437,3.33,-0.61,3.95,5.2
12.547171115875244,-2.27,0.25,-1.71,2.85
12.592810153961182,-6.61,2.31,-2.26,7.35
12.593408107757568,-7.18,4.45,-0.59,8.46
12.593991994857788,-6.84,7.39,-0.86,10.1
12.595179080963135,-5.95,6.49,-1.38,8.91
12.596981048583984,-4.54,2.86,-1.74,5.64
12.607129096984863,-4.94,-0.1,-2.35,5.47
12.617053985595703,-4.4,0.33,-0.71,4.46
12.627097129821777,-4.99,-0.72,0.42,5.05
12.63693904876709,-5.74,-1.8,-0.64,6.04
12.646973133087158,-5.55,-0.84,-1.52,5.81
12.692787170410156,-4.26,0.22,-1.17,4.42
12.693392992019653,-2.68,0.44,-0.48,2.75
12.693978071212769,-1.3,-0.19,-0.35,1.35
12.69513201713562,-0.21,-0.51,-0.26,0.6
12.696977138519287,0.42,-0.15,0.01,0.44
12.706969976425171,0.82,0.46,0.27,0.97
12.716949939727783,0.89,0.58,0.38,1.12
12.726888179779053,0.91,0.09,0.44,1.01
12.736747980117798,0.64,-0.28,0.23,0.73
12.746922016143799,0.27,-0.29,-0.44,0.59
12.79355001449585,-0.08,-0.25,-1.29,1.31
12.794147968292236,-0.26,-0.22,-1.71,1.74
12.7947359085083,-0.16,-0.07,-1.78,1.78
12.795905113220215,-0.13,0.15,-1.6,1.61
12.797059059143066,-0.14,0.13,-1.16,1.17
12.806761980056763,-0.26,0.02,-0.72,0.76
12.81672716140747,-0.51,0.04,-0.16,0.53
12.826694011688232,-0.72,-0.12,0.12,0.73
12.83663296699524,-0.87,-0.17,-0.02,0.88
12.846580982208252,-0.88,-0.07,-0.03,0.88
12.89382791519165,-0.69,0.03,0.19,0.71
12.89442491531372,-0.52,0.16,0.36,0.65
12.895004987716675,-0.41,0.28,0.15,0.51
12.896162033081055,-0.28,0.16,-0.41,0.52
12.897302150726318,-0.39,0.01,-1.08,1.14
12.906596183776855,-0.53,-0.09,-1.38,1.48
12.916507005691528,-0.48,-0.05,-1.2,1.29
12.926475048065186,-0.34,0.2,-0.85,0.93
12.936684131622314,-0.37,0.33,0.02,0.49
12.94649887084961,-0.28,0.17,0.4,0.51
12.994198083877563,-0.01,0.02,0.08,0.08
12.994793891906738,0.19,-0.15,-0.01,0.24
12.995383024215698,0.33,-0.21,0.05,0.39
12.996542930603027,0.47,-0.08,-0.02,0.47
12.99766492843628,0.57,0.06,-0.11,0.58
13.00651502609253,0.53,0.05,-0.23,0.57
13.016470909118652,0.54,-0.02,-0.38,0.66
13.026464939117432,0.72,-0.1,-0.55,0.91
13.036431074142456,0.88,-0.17,-0.62,1.08
13.04645586013794,0.96,-0.1,-0.49,1.08
13.09442400932312,1.0,-0.06,-0.26,1.03
13.09501314163208,1.1,-0.04,-0.1,1.1
13.095592021942139,1.38,-0.05,-0.13,1.38
13.09675407409668,1.62,-0.12,-0.23,1.64
13.097886085510254,1.78,-0.21,-0.48,1.85
13.106345176696777,1.74,-0.15,-0.54,1.82
13.116392135620117,1.52,0.26,-0.46,1.6
13.126329898834229,1.4,0.76,0.19,1.6
13.13631010055542,1.8,1.02,0.71,2.18
13.146329879760742,2.13,1.17,0.44,2.46
13.194907188415527,2.35,1.12,0.48,2.64
13.195508003234863,2.99,1.13,0.17,3.2
13.196115016937256,3.55,1.14,-0.26,3.73
13.197278022766113,3.63,1.37,-0.69,3.94
13.198427200317383,3.48,1.78,-1.03,4.04
13.206181049346924,3.71,1.94,-0.58,4.22
13.21620798110962,3.56,2.72,-0.12,4.48
13.226189136505127,2.85,4.0,-0.15,4.91
13.236195087432861,3.61,5.48,-1.41,6.71
13.246018886566162,4.03,4.9,0.72,6.38
13.29526400566101,3.79,4.3,0.42,5.74
13.295854091644287,4.41,4.99,0.39,6.67
13.296431064605713,4.6,4.77,0.54,6.64
13.297597885131836,5.16,4.74,-0.03,7.0
13.298749923706055,5.38,5.17,-0.36,7.47
13.306063175201416,5.29,5.38,-0.8,7.58
13.316060066223145,4.95,5.15,-1.36,7.27
13.326040983200073,4.92,5.4,-1.33,7.42
13.336041927337646,5.21,6.3,-1.79,8.36
13.34608507156372,5.23,7.16,-3.01,9.36
13.396152019500732,5.29,7.33,-4.08,9.91
13.396758079528809,4.57,6.87,-3.75,9.06
13.397346019744873,1.01,9.05,-0.54,9.12
13.398534059524536,-2.42,9.25,-0.79,9.59
13.399680137634277,-1.75,5.06,-3.19,6.23
13.405940055847168,2.2,3.37,-2.7,4.84
13.415966987609863,7.47,2.77,-2.52,8.35
13.425992965698242,12.45,1.53,-1.9,12.68
13.435885906219482,7.88,-1.82,0.16,8.08
13.445868015289307,-0.82,-3.29,0.18,3.39
13.496664047241211,-3.89,-1.85,-3.19,5.36
13.497267007827759,0.52,-0.18,-4.65,4.68
13.497849941253662,7.25,-1.28,-3.05,7.96
13.499013900756836,10.2,-2.73,-1.05,10.61
13.500149011611938,10.87,-3.28,0.65,11.37
13.505810976028442,9.53,-3.67,1.92,10.39
13.515697956085205,7.0,-4.29,2.6,8.61
13.525864124298096,4.7,-4.98,2.24,7.2
13.535804033279419,4.15,-5.21,1.54,6.83
13.545638084411621,4.88,-4.77,1.19,6.92
13.597015857696533,5.21,-4.36,1.3,6.91
13.597608089447021,5.1,-4.14,1.45,6.72
13.598191022872925,4.76,-3.93,1.52,6.35
13.599347114562988,4.2,-3.26,1.48,5.51
13.600848197937012,3.66,-2.51,2.05,4.88
13.60568904876709,3.37,-1.85,3.06,4.91
13.615682125091553,3.2,-0.94,4.0,5.2
13.625670909881592,3.27,0.02,4.43,5.5
13.635593891143799,3.17,0.63,3.64,4.86
13.645522117614746,1.89,2.19,1.49,3.25
13.696829080581665,-0.62,4.22,-0.94,4.36
13.697422981262207,-3.22,5.71,-2.77,7.11
13.698011875152588,-5.51,7.12,-3.64,9.71
13.699183940887451,-7.52,7.67,-3.42,11.27
13.700659036636353,-8.59,7.14,-3.34,11.65
13.705528974533081,-8.9,6.03,-3.35,11.26
13.715520858764648,-10.06,4.99,-4.31,12.02
13.725535869598389,-12.23,6.89,-6.32,15.39
13.735462188720703,-11.67,9.98,-8.41,17.5
13.745492935180664,-15.4,1.87,-6.73,16.91
13.796249866485596,-17.78,-1.98,-4.65,18.48
13.796858072280884,-15.71,-2.28,-2.92,16.14
13.797446012496948,-12.79,-1.71,-2.75,13.19
13.798623085021973,-10.83,-0.52,-2.94,11.23
13.799779891967773,-9.89,0.79,-2.28,10.18
13.805406093597412,-8.73,2.56,-2.97,9.57
13.815349102020264,0.87,4.51,-1.82,4.94
13.825476169586182,8.62,2.56,4.13,9.89
13.835340976715088,5.91,1.53,3.22,6.9
13.8452730178833,-2.7,5.01,0.81,5.74
13.897433042526245,-8.87,5.73,0.39,10.56
13.898035049438477,-10.22,2.99,-1.3,10.72
13.898627042770386,-9.09,0.46,-3.9,9.9
13.899825096130371,-7.94,0.65,-3.76,8.8
13.901275157928467,-5.64,1.89,-1.39,6.1
13.90513801574707,-4.66,-0.29,-0.39,4.68
13.915265083312988,-4.84,-1.71,-0.67,5.17
13.925249099731445,-4.48,-0.96,-1.17,4.72
13.935181140899658,-3.2,0.15,-0.64,3.26
13.945259094238281,-1.95,0.5,-0.12,2.01
13.997894048690796,-0.81,0.26,0.35,0.91
13.998492002487183,-0.04,0.08,0.49,0.49
13.999083042144775,0.23,0.06,0.06,0.24
14.000549077987671,0.42,0.06,-0.41,0.59
14.001662015914917,0.27,0.12,-0.44,0.53
14.005045890808105,0.12,0.13,-0.32,0.36
14.015040874481201,-0.07,0.28,-0.52,0.59
14.02512502670288,-0.5,0.39,-0.63,0.89
14.034931182861328,-0.67,0.28,-0.78,1.06
14.045034885406494,-0.28,-0.02,-0.76,0.81
14.098369121551514,0.18,-0.21,-0.85,0.89
14.0989670753479,0.32,-0.18,-1.38,1.42
14.09958791732788,0.17,-0.17,-1.29,1.31
14.101085186004639,0.01,-0.22,-0.65,0.68
14.102222919464111,-0.03,-0.22,-0.15,0.26
14.104806900024414,0.12,-0.16,-0.04,0.2
14.114974021911621,0.18,-0.1,-0.24,0.31
14.124977111816406,0.35,-0.17,-0.45,0.59
14.134948015213013,0.43,-0.32,-0.6,0.8
14.144906044006348,0.34,-0.26,-0.82,0.92
14.198834896087646,0.21,-0.14,-0.84,0.87
14.199452877044678,0.15,0.03,-0.78,0.79
14.200350999832153,0.19,0.01,-0.57,0.6
14.201523065567017,0.53,-0.1,-0.41,0.67
14.202672958374023,0.78,-0.17,-0.56,0.97
14.20481014251709,0.96,-0.05,-0.59,1.12
14.214820861816406,1.05,-0.03,-0.13,1.05
14.224806070327759,0.84,-0.08,-0.12,0.85
14.23474407196045,0.45,-0.19,-0.19,0.52
14.244752883911133,0.53,-0.2,-0.14,0.58
14.2983078956604,0.45,-0.15,-0.14,0.49
14.298863887786865,-0.2,0.1,0.11,0.24
14.299761056900024,-0.9,0.35,0.49,1.08
14.300889015197754,-1.12,0.35,0.51,1.27
14.301976203918457,-0.88,0.15,0.07,0.89
14.304847002029419,-0.53,0.08,-0.33,0.62
14.314738035202026,-0.37,0.1,-0.62,0.72
14.324676036834717,-0.36,0.23,-0.64,0.76
14.334625005722046,-0.23,0.33,-0.46,0.61
14.34459400177002,-0.09,0.32,-0.32,0.46
14.3993239402771,0.04,0.28,-0.42,0.5
14.400250911712646,0.2,0.33,-0.39,0.54
14.4008309841156,0.62,0.38,-0.46,0.86
14.401997089385986,1.16,0.41,-0.63,1.38
14.403151035308838,1.84,0.54,-0.67,2.03
14.404895067214966,2.49,0.71,-0.63,2.66
14.414533138275146,2.89,0.91,-0.53,3.07
14.424644947052002,3.34,1.05,-0.29,3.51
14.434517860412598,3.89,1.16,-0.2,4.06
14.444432973861694,4.35,1.42,-0.08,4.57
14.454381942749023,4.47,1.88,0.15,4.85
14.500048160552979,4.26,2.13,0.33,4.77
14.500627994537354,4.18,2.88,0.11,5.07
14.501782894134521,4.99,4.68,-1.3,6.96
14.502917051315308,4.85,4.97,-0.36,6.95
14.504322052001953,4.66,4.82,-0.22,6.7
14.514222145080566,4.55,5.12,0.04,6.84
14.524383068084717,4.39,4.95,0.01,6.61
14.534342050552368,4.5,4.76,0.22,6.55
14.544319152832031,4.84,4.66,-0.08,6.71
14.554280996322632,5.58,4.97,-0.63,7.49
14.600879192352295,5.6,5.19,-1.14,7.71
14.601477146148682,4.68,5.21,-1.32,7.12
14.602642059326172,3.61,5.48,-1.37,6.7
14.60380220413208,3.29,6.03,-1.58,7.04
14.604422092437744,3.73,6.75,-2.93,8.24
14.61427903175354,4.9,6.94,-3.92,9.35
14.624267101287842,4.58,6.09,-3.36,8.32
14.634217023849487,0.95,7.17,-1.54,7.39
14.644193172454834,-1.53,7.1,-2.89,7.81
14.654175043106079,0.43,4.7,-4.08,6.23
14.700706005096436,3.93,4.36,-2.41,6.34
14.70129919052124,7.29,3.16,-1.59,8.1
14.70245885848999,9.06,-0.21,-0.8,9.09
14.703602075576782,3.99,-2.32,0.75,4.67
14.704208850860596,-3.19,-4.44,-0.61,5.5
14.713968992233276,-4.11,-2.67,-3.65,6.11
14.724082946777344,2.45,0.13,-4.03,4.71
14.734150886535645,8.23,-1.39,-2.89,8.83
14.744100093841553,10.79,-2.32,-0.95,11.07
14.753915071487427,10.97,-2.53,0.72,11.28
14.801059007644653,9.16,-2.82,2.01,9.79
14.801656007766724,7.0,-3.28,2.61,8.15
14.80280590057373,5.6,-4.01,2.36,7.28
14.803973197937012,5.21,-4.4,2.01,7.1
14.804558992385864,5.49,-4.2,1.62,7.09
14.813956022262573,5.41,-3.89,1.01,6.73
14.824050903320312,5.02,-3.71,0.55,6.26
14.833919048309326,4.63,-3.46,0.31,5.78
14.84398889541626,4.34,-3.18,0.39,5.39
14.853901863098145,4.01,-2.77,0.88,4.95
14.901511192321777,3.55,-2.23,1.65,4.5
14.902107000350952,3.19,-1.67,2.4,4.32
14.903252124786377,3.12,-0.86,2.93,4.36
14.904397010803223,2.97,-0.01,3.02,4.23
14.905359029769897,1.66,1.57,1.54,2.75
14.913838863372803,-1.01,3.44,-1.26,3.8
14.923861026763916,-3.57,4.85,-3.9,7.17
14.933784008026123,-4.73,6.54,-5.07,9.53
14.943758964538574,-5.52,8.44,-4.8,11.16
14.953786849975586,-7.01,8.74,-4.17,11.95
15.002470016479492,-8.22,7.16,-4.15,11.66
15.003074169158936,-8.62,4.73,-3.78,10.53
15.004255056381226,-9.22,3.21,-3.97,10.53
15.005733966827393,-10.92,3.37,-5.4,12.63
15.006324052810669,-12.42,3.89,-6.4,14.5
15.013629913330078,-12.07,2.55,-5.36,13.45
15.023706912994385,-11.25,0.6,-3.07,11.67
15.033560991287231,-10.42,0.39,-1.83,10.58
15.085664987564087,-9.14,1.71,-1.43,9.4
15.086257934570312,-9.04,0.02,-1.21,9.12
15.086857080459595,-8.97,-0.02,-0.67,8.99
15.087436199188232,-8.38,0.8,-0.26,8.42
15.089303970336914,-7.01,1.41,0.71,7.18
15.093584060668945,-4.45,2.43,2.59,5.69
15.103540897369385,1.36,4.77,3.35,5.98
15.113651990890503,8.86,3.81,7.8,12.4
15.123617172241211,7.32,-0.38,7.53,10.5
15.133513927459717,-2.04,-0.8,0.2,2.2
15.18749189376831,-9.3,1.31,-2.06,9.61
15.188408851623535,-10.72,2.83,-1.62,11.2
15.1893789768219,-8.42,5.61,-2.04,10.32
15.189990997314453,-6.24,5.69,-2.88,8.92
15.19115686416626,-3.9,1.99,-2.16,4.88
15.193403005599976,-3.9,0.36,-1.93,4.36
15.203370094299316,-5.25,-0.21,-3.42,6.26
15.213235855102539,-5.24,1.0,-2.25,5.78
15.223371028900146,-4.94,0.08,-0.4,4.95
15.233731985092163,-4.04,-0.58,-0.12,4.08
15.286926031112671,-3.12,-0.26,-0.12,3.13
15.287491083145142,-2.19,-0.09,0.42,2.23
15.288419008255005,-1.46,-0.1,0.68,1.61
15.289337158203125,-0.84,-0.08,0.49,0.97
15.290514945983887,-0.27,-0.04,0.37,0.45
15.293322086334229,0.29,-0.05,0.5,0.58
15.303238868713379,0.46,-0.1,0.74,0.87
15.313252925872803,0.36,-0.18,0.8,0.89
15.323163032531738,0.37,-0.23,0.53,0.68
15.33318305015564,0.66,-0.16,-0.06,0.68
15.387627124786377,1.05,-0.1,-1.02,1.46
15.388548851013184,1.2,0.09,-1.99,2.32
15.389462947845459,1.0,0.28,-2.36,2.57
15.390058040618896,0.5,0.07,-2.26,2.31
15.391233921051025,-0.22,-0.21,-2.23,2.25
15.393140077590942,-0.83,-0.12,-1.88,2.05
15.403115034103394,-0.95,0.08,-0.77,1.22
15.41313099861145,-0.43,0.03,0.28,0.51
15.422997951507568,0.09,-0.11,1.11,1.11
15.433049201965332,0.39,-0.14,1.27,1.33
15.487524032592773,0.49,-0.04,0.5,0.7
15.488393068313599,0.45,0.04,-0.3,0.54
15.489323139190674,0.17,0.04,-0.7,0.72
15.489880084991455,-0.46,-0.04,-1.01,1.11
15.491080045700073,-1.13,-0.08,-0.96,1.48
15.492930889129639,-1.41,-0.06,-0.54,1.51
15.502960205078125,-1.19,-0.07,-0.37,1.24
15.512969017028809,-0.77,-0.08,-0.14,0.78
15.522824048995972,-0.41,-0.05,0.0,0.41
15.53292202949524,-0.18,-0.05,-0.08,0.2
15.58870005607605,-0.23,-0.02,-0.2,0.3
15.589664936065674,-0.49,-0.04,-0.46,0.67
15.590282917022705,-0.69,-0.1,-0.85,1.09
15.590865135192871,-0.81,-0.22,-0.9,1.23
15.592087984085083,-1.02,-0.21,-0.77,1.29
15.593293190002441,-1.21,0.03,-0.64,1.36
15.602827072143555,-1.13,0.16,-0.27,1.17
15.612890005111694,-0.83,0.3,0.01,0.88
15.62279200553894,-0.37,0.41,-0.06,0.55
15.632814884185791,0.15,0.33,0.15,0.39
15.688628196716309,0.63,0.21,0.34,0.74
15.689591884613037,1.09,0.0,0.32,1.13
15.690163135528564,1.66,-0.19,0.32,1.7
15.690711975097656,2.05,-0.19,0.24,2.07
15.691833019256592,2.05,0.1,0.13,2.05
15.69309401512146,2.07,0.42,0.04,2.11
15.702696084976196,2.54,0.53,-0.1,2.59
15.71269416809082,2.87,0.58,-0.35,2.94
15.722903966903687,2.85,0.59,-0.23,2.91
15.732620000839233,3.01,0.68,0.04,3.08
15.789166927337646,3.29,0.76,-0.44,3.4
15.78975796699524,3.18,0.9,-0.77,3.39
15.790364980697632,2.99,1.0,-0.63,3.21
15.79094409942627,2.9,1.19,-0.58,3.18
15.792101860046387,2.75,1.58,-0.44,3.2
15.793259143829346,2.6,2.06,-0.33,3.33
15.802576065063477,2.44,2.93,-0.55,3.85
15.81254506111145,2.51,4.34,-1.72,5.3
15.822527885437012,3.2,4.4,-0.79,5.49
15.832530975341797,3.1,3.68,0.09,4.81
15.889349937438965,3.21,3.54,0.01,4.77
15.88993501663208,3.24,3.57,0.06,4.82
15.890542030334473,4.26,3.64,-0.16,5.6
15.891123056411743,5.09,4.1,-0.41,6.54
15.892293930053711,5.43,4.63,-0.58,7.15
15.893424034118652,5.32,4.65,-0.62,7.09
15.902425050735474,4.58,4.4,-0.7,6.38
15.912378072738647,3.53,4.11,-0.43,5.43
15.922406196594238,2.82,3.92,-0.2,4.83
15.932435989379883,2.92,4.39,-0.29,5.28
15.989686965942383,3.67,5.29,-1.49,6.6
15.990281105041504,4.91,5.68,-2.75,7.99
15.99086308479309,4.38,5.73,-2.92,7.78
15.991441011428833,0.57,7.4,-1.38,7.54
15.992604970932007,-2.01,7.77,-2.42,8.38
15.993746042251587,0.08,5.25,-4.36,6.82
16.002254962921143,3.51,3.91,-2.67,5.89
16.012256145477295,6.4,2.86,-1.46,7.16
16.0222110748291,8.4,0.67,-0.87,8.47
16.03222107887268,7.79,-2.08,-0.04,8.06
16.090806007385254,0.84,-3.51,1.05,3.75
16.091398000717163,-4.18,-4.16,-1.41,6.06
16.092000007629395,-3.58,-1.51,-3.53,5.24
16.092578887939453,3.15,-0.7,-3.66,4.87
16.09377408027649,7.88,-2.41,-2.48,8.6
16.09492015838623,9.84,-3.09,-0.84,10.34
16.102156162261963,9.88,-3.16,0.48,10.38
16.11214017868042,8.27,-3.22,1.74,9.04
16.122097969055176,6.27,-3.84,2.4,7.73
16.13200616836548,4.75,-4.42,2.25,6.86
16.190876007080078,4.11,-4.3,1.76,6.2
16.1914701461792,4.19,-3.9,1.26,5.86
16.192078113555908,4.33,-3.59,0.91,5.69
16.19266104698181,4.43,-3.53,0.69,5.7
16.19384002685547,4.46,-3.34,0.75,5.62
16.194973945617676,4.37,-2.89,1.02,5.33
16.202031135559082,3.97,-2.46,1.4,4.87
16.2120840549469,3.41,-1.89,1.86,4.31
16.22201108932495,2.92,-1.22,2.03,3.75
16.231994152069092,2.93,-0.61,2.16,3.69
16.291172981262207,3.03,0.32,2.18,3.74
16.291791915893555,2.24,2.07,1.55,3.42
16.29237198829651,0.62,3.87,-0.16,3.92
16.292954921722412,-1.13,5.12,-2.38,5.75
16.294128894805908,-2.28,6.39,-3.55,7.65
16.29527711868286,-3.34,7.91,-3.48,9.26
16.30187201499939,-4.8,8.55,-3.27,10.33
16.31188702583313,-6.49,8.12,-3.42,10.94
16.321895122528076,-7.64,7.27,-3.41,11.08
16.331850051879883,-8.42,6.16,-3.51,11.0
16.39218497276306,-9.38,5.39,-4.81,11.83
16.392783164978027,-9.95,4.67,-5.46,12.27
16.39336919784546,-9.72,2.86,-3.58,10.74
16.39395809173584,-9.68,0.42,-1.02,9.74
16.395140171051025,-10.21,-1.27,-0.15,10.28
16.39630699157715,-10.03,-2.02,-0.17,10.23
16.40190100669861,-9.07,-1.98,-0.02,9.28
16.411641120910645,-7.99,-1.37,-0.16,8.1
16.421701908111572,-7.24,0.77,-0.53,7.3
16.431676864624023,-5.0,6.48,-0.77,8.22
16.49242115020752,-4.46,4.47,-0.64,6.34
16.493028163909912,-7.27,0.58,-1.0,7.36
16.49361515045166,-7.94,-2.05,-1.07,8.26
16.494194984436035,0.13,0.02,-0.12,0.17
16.49538516998291,9.88,1.32,3.97,10.72
16.49686908721924,10.16,0.36,5.63,11.62
16.501583099365234,2.17,0.01,2.57,3.36
16.51162099838257,-6.45,-0.16,-0.44,6.46
16.521548986434937,-9.06,0.51,-2.04,9.3
16.531584978103638,-7.16,4.11,-2.57,8.64
16.592697143554688,-5.24,7.27,-1.84,9.14
16.59330105781555,-4.79,4.59,-2.57,7.11
16.593883991241455,-6.11,0.66,-3.73,7.18
16.594462871551514,-5.29,2.23,-1.93,6.05
16.5956711769104,-4.58,0.8,1.22,4.8
16.597177028656006,-4.86,-2.2,1.76,5.61
16.601366996765137,-4.88,-2.1,0.63,5.34
16.611445903778076,-3.62,-1.0,0.39,3.77
16.621366024017334,-2.23,-0.24,0.45,2.28
16.631461143493652,-1.72,0.03,-0.12,1.72
16.693900108337402,-1.21,-0.22,-0.47,1.31
16.69450092315674,-0.7,-0.21,-0.14,0.74
16.69508695602417,-0.13,0.15,-0.04,0.2
16.69569706916809,0.45,0.28,-0.11,0.54
16.69718885421753,0.77,0.14,-0.26,0.82
16.698330879211426,0.7,0.09,-0.65,0.95
16.70130205154419,0.28,0.12,-1.02,1.06
16.711260080337524,-0.34,0.1,-1.12,1.17
16.721224069595337,-0.88,0.13,-1.26,1.54
16.731247901916504,-1.09,0.1,-1.63,1.96
16.79403305053711,-0.95,-0.01,-1.55,1.81
16.79464602470398,-0.79,0.09,-1.11,1.36
16.79521417617798,-0.52,0.09,-0.57,0.77
16.79578399658203,-0.22,-0.03,-0.1,0.24
16.797203063964844,-0.01,-0.03,0.31,0.31
16.798274040222168,-0.04,-0.05,0.31,0.31
16.801165103912354,-0.12,-0.03,0.19,0.22
16.811102867126465,-0.13,-0.06,0.03,0.14
16.821166038513184,-0.3,0.01,-0.25,0.39
16.83122491836548,-0.52,0.08,-0.66,0.84
16.89424419403076,-0.69,0.04,-0.98,1.19
16.89483904838562,-0.83,-0.07,-1.08,1.36
16.895461082458496,-0.72,-0.21,-0.9,1.17
16.89632797241211,-0.3,-0.1,-0.44,0.54
16.89750385284424,0.01,-0.01,0.06,0.06
16.898657083511353,0.08,-0.03,0.22,0.23
16.90100407600403,0.03,0.04,0.16,0.16
16.911062002182007,0.07,-0.01,-0.01,0.07
16.920997142791748,-0.07,-0.11,-0.13,0.18
16.93100118637085,-0.28,-0.15,-0.1,0.33
16.99441385269165,-0.38,-0.14,-0.13,0.42
16.995007038116455,-0.34,-0.1,-0.16,0.38
16.99593496322632,-0.33,0.04,-0.07,0.33
16.99652910232544,-0.27,0.08,-0.16,0.32
16.997684955596924,-0.16,0.09,-0.33,0.37
16.998793125152588,0.09,0.15,-0.33,0.37
17.00077486038208,0.44,0.15,-0.37,0.59
17.01084613800049,0.7,0.13,-0.37,0.8
17.020840167999268,0.85,0.1,-0.11,0.86
17.030855178833008,1.08,0.11,0.05,1.08
17.095183849334717,1.3,0.17,0.02,1.31
17.096105098724365,1.79,0.28,0.08,1.81
17.09668803215027,2.29,0.35,0.29,2.33
17.097265005111694,2.54,0.43,0.27,2.59
17.098429203033447,2.84,0.47,0.15,2.88
17.099553108215332,3.39,0.51,0.03,3.42
17.10063409805298,4.29,0.72,-0.74,4.41
17.11072301864624,5.26,0.66,-0.97,5.38
17.12071204185486,5.3,0.88,-0.99,5.46
17.13069200515747,4.63,0.93,-1.26,4.88
17.1957049369812,3.99,0.97,-0.52,4.13
17.19655418395996,3.24,1.26,-0.51,3.51
17.197148084640503,2.1,2.21,-0.47,3.08
17.197731971740723,1.65,4.48,-0.68,4.82
17.198889017105103,2.07,4.78,0.46,5.22
17.200011014938354,2.06,4.08,0.78,4.63
17.200623989105225,2.35,4.23,0.69,4.88
17.210579872131348,2.71,4.51,0.39,5.27
17.22055196762085,3.0,4.48,0.21,5.39
17.230629920959473,3.37,4.68,-0.16,5.76
17.29617214202881,3.66,4.54,-0.82,5.88
17.2969651222229,4.0,4.29,-0.88,5.93
17.297550201416016,4.69,4.52,-0.72,6.55
17.298137187957764,5.54,5.24,-0.98,7.68
17.299283981323242,6.04,6.67,-1.59,9.13
17.300440073013306,5.6,7.56,-2.98,9.86
17.301022052764893,4.15,8.31,-3.18,9.81
17.31052589416504,2.45,8.78,-2.61,9.48
17.32042098045349,1.06,7.89,-2.61,8.37
17.33044719696045,-1.3,6.63,-3.34,7.53
17.34049701690674,-2.19,5.73,-5.1,7.97
17.397417068481445,0.29,4.55,-4.43,6.35
17.39801001548767,3.95,3.71,-1.87,5.73
17.39859390258789,8.39,1.79,-1.03,8.64
17.399773120880127,9.67,-2.01,-0.09,9.87
17.400949954986572,4.97,-4.13,1.23,6.57
17.40154218673706,-2.02,-5.88,-0.11,6.21
17.41038203239441,-4.72,-4.81,-3.31,7.5
17.420333862304688,0.28,-1.51,-3.34,3.67
17.430338859558105,6.96,-2.58,-2.53,7.84
17.440239906311035,10.43,-3.72,-1.23,11.14
17.497519969940186,10.95,-3.22,0.36,11.41
17.4981529712677,10.24,-2.82,1.88,10.78
17.49874496459961,8.17,-3.06,2.96,9.21
17.499956130981445,6.1,-3.64,3.11,7.75
17.50112295150757,4.98,-4.02,2.71,6.95
17.501707077026367,4.95,-3.46,2.23,6.43
17.510150909423828,5.05,-2.93,1.63,6.06
17.520097970962524,4.86,-2.8,1.17,5.72
17.530142068862915,4.3,-2.57,0.9,5.08
17.54005718231201,3.55,-2.29,0.7,4.28
17.59823203086853,2.82,-2.09,0.67,3.57
17.598834991455078,2.14,-1.99,0.76,3.01
17.599425077438354,1.85,-1.71,0.89,2.67
17.600666046142578,1.64,-1.18,1.4,2.45
17.601820945739746,1.34,-0.28,2.34,2.71
17.602403163909912,1.02,0.77,2.9,3.16
17.61011004447937,0.73,2.23,1.98,3.07
17.62003517150879,-0.46,4.19,-0.39,4.23
17.630051136016846,-2.66,5.7,-2.9,6.92
17.63993501663208,-4.62,6.94,-4.28,9.37
17.698724031448364,-6.05,7.91,-4.52,10.93
17.699331045150757,-7.25,8.24,-3.89,11.64
17.699936866760254,-8.38,7.75,-3.58,11.96
17.701091051101685,-9.42,6.24,-3.58,11.85
17.702205181121826,-10.21,4.3,-4.1,11.81
17.702790021896362,-10.51,3.08,-4.73,11.92
17.70987319946289,-10.03,2.69,-4.37,11.26
17.719868183135986,-9.35,1.27,-2.8,9.84
17.729898929595947,-9.61,-0.81,-0.86,9.68
17.739830017089844,-9.66,-2.08,0.0,9.88
17.79901099205017,-8.91,-2.46,0.15,9.24
17.799652099609375,-7.27,-1.76,0.01,7.48
17.800232887268066,-4.88,3.22,-0.16,5.84
17.801390171051025,-2.83,5.35,-0.58,6.08
17.80251407623291,-3.47,2.65,-0.6,4.4
17.803091049194336,-4.16,0.43,0.82,4.26
17.80972719192505,-0.4,1.19,1.05,1.63
17.819705963134766,8.08,1.3,5.55,9.88
17.829769134521484,9.75,0.52,8.47,12.92
17.83972692489624,1.85,0.27,1.31,2.28
17.899757862091064,-7.88,-0.17,-2.41,8.24
17.90036392211914,-11.77,-0.42,-2.89,12.12
17.90096092224121,-9.47,2.01,-3.56,10.31
17.90213108062744,-5.13,6.63,-2.32,8.69
17.903273105621338,-3.11,6.77,-0.53,7.46
17.90385913848877,-3.48,2.17,-0.31,4.11
17.909584999084473,-5.5,-0.87,-2.05,5.93
17.919623851776123,-6.25,1.12,-2.13,6.69
17.92958116531372,-6.6,0.94,-0.07,6.66
17.939545154571533,-6.12,-1.04,0.47,6.22
18.00076389312744,-5.02,-1.11,-0.01,5.14
18.001363039016724,-3.0,-0.47,-0.34,3.05
18.001949071884155,-1.19,-0.14,-0.16,1.2
18.003121852874756,-0.25,-0.16,-0.09,0.31
18.004634857177734,0.27,-0.2,-0.03,0.33
18.00522208213806,0.6,0.13,-0.22,0.65
18.009469985961914,0.74,0.27,-0.45,0.9
18.019427061080933,0.5,0.07,-0.74,0.89
18.02942991256714,0.27,-0.19,-0.98,1.03
18.039371013641357,0.16,-0.05,-0.99,1.0
18.100486040115356,-0.21,0.11,-1.06,1.08
18.1010799407959,-0.76,0.15,-1.0,1.26
18.10166096687317,-1.19,0.08,-0.93,1.51
18.102792978286743,-1.52,0.11,-0.93,1.78
18.103888034820557,-1.35,0.16,-0.75,1.55
18.104795932769775,-0.79,0.08,-0.34,0.86
18.10933017730713,-0.24,-0.06,0.2,0.31
18.119266033172607,-0.07,-0.18,0.53,0.56
18.129208087921143,-0.03,-0.1,0.57,0.57
18.139258861541748,-0.08,0.04,0.47,0.47
18.20112895965576,-0.15,0.05,-0.05,0.16
18.201730012893677,-0.44,-0.01,-0.74,0.86
18.20231604576111,-0.66,-0.08,-1.36,1.51
18.203454971313477,-0.69,-0.14,-1.6,1.74
18.204908847808838,-0.76,-0.14,-1.21,1.43
18.205456018447876,-0.57,-0.09,-0.41,0.7
18.209075927734375,-0.33,-0.02,0.19,0.38
18.21905517578125,-0.29,0.01,0.4,0.49
18.229186058044434,-0.42,-0.01,0.26,0.49
18.239110946655273,-0.69,-0.05,0.01,0.69
18.30031704902649,-0.85,-0.14,-0.16,0.87
18.30094003677368,-0.94,-0.19,-0.28,0.99
18.30155301094055,-0.79,-0.01,-0.58,0.98
18.30271816253662,-0.23,0.15,-0.73,0.77
18.304234981536865,0.16,0.13,0.08,0.22
18.30481195449829,0.4,0.09,0.34,0.53
18.30883002281189,0.51,0.03,0.12,0.52
18.31893801689148,0.46,0.0,0.12,0.47
18.32911705970764,0.43,0.03,0.17,0.46
18.338968992233276,0.42,0.06,0.28,0.5
18.40036392211914,0.5,0.07,0.12,0.51
18.400963068008423,0.89,0.1,-0.26,0.93
18.401552200317383,1.3,0.14,-0.3,1.34
18.402667999267578,1.56,0.18,-0.37,1.61
18.404103994369507,1.77,0.27,-0.36,1.82
18.404685020446777,2.28,0.32,-0.17,2.3
18.408740043640137,2.87,0.28,-0.45,2.91
18.4189190864563,3.36,0.21,-0.28,3.37
18.428915977478027,4.17,0.18,0.26,4.18
18.438838958740234,4.69,0.41,-0.36,4.72
18.50054097175598,4.77,0.78,-0.5,4.85
18.501133918762207,4.97,1.11,-0.85,5.16
18.50172519683838,4.81,1.07,-1.39,5.11
18.502912044525146,4.57,1.0,-0.85,4.75
18.504390001296997,3.9,1.51,-1.35,4.39
18.504971027374268,2.54,2.09,-1.43,3.58
18.508769989013672,1.35,3.37,0.26,3.63
18.518693923950195,0.84,6.03,-0.14,6.08
18.528733015060425,2.29,5.61,-0.95,6.13
18.538704872131348,2.03,4.48,0.91,5.0
18.60188913345337,3.46,4.62,0.57,5.8
18.6025071144104,3.69,4.45,0.61,5.81
18.603085041046143,4.08,4.36,0.52,5.99
18.604586124420166,4.85,4.51,0.4,6.63
18.605760097503662,5.2,4.64,-0.47,6.98
18.606353044509888,4.98,4.41,-0.78,6.69
18.608909130096436,4.55,4.41,-0.75,6.38
18.618599891662598,4.32,5.13,-0.69,6.74
18.62859296798706,4.53,6.57,-1.62,8.14
18.63855791091919,4.69,7.31,-2.73,9.1
18.701528072357178,4.55,7.0,-3.38,9.0
18.70213508605957,3.92,7.12,-3.24,8.74
18.702720165252686,0.82,8.8,-1.43,8.95
18.70415687561035,-1.67,8.83,-3.51,9.64
18.705309867858887,0.01,5.74,-4.99,7.6
18.705888986587524,3.86,4.8,-2.73,6.73
18.708853006362915,7.92,3.92,-1.89,9.03
18.718503952026367,9.04,-0.2,-1.25,9.12
18.728538036346436,2.63,-2.79,-0.1,3.83
18.738465070724487,-5.81,-5.28,-2.21,8.15
18.802032947540283,-5.41,-2.37,-5.09,7.79
18.80262804031372,3.13,0.24,-4.74,5.68
18.803539037704468,9.18,-1.4,-2.72,9.67
18.804715156555176,11.46,-2.34,-0.42,11.7
18.80586004257202,10.94,-3.08,0.9,11.4
18.806457042694092,8.92,-3.97,2.07,9.98
18.808342933654785,7.11,-4.74,2.86,9.01
18.81834888458252,6.13,-5.54,2.72,8.69
18.82846999168396,6.02,-5.61,2.23,8.52
18.83828902244568,6.03,-4.88,1.46,7.89
18.902384996414185,5.88,-4.18,0.73,7.25
18.9032940864563,5.47,-3.86,0.37,6.7
18.90388011932373,4.95,-3.56,0.24,6.1
18.904991149902344,4.49,-3.21,0.35,5.53
18.90608310699463,4.02,-2.9,0.7,5.0
18.90666103363037,3.32,-2.51,1.2,4.33
18.908156871795654,2.74,-2.17,1.54,3.81
18.91817808151245,2.38,-1.71,1.81,3.44
18.92816400527954,1.84,-0.76,2.33,3.06
18.938109874725342,1.1,0.47,2.65,2.9
19.0024471282959,0.22,1.48,1.9,2.41
19.003352165222168,-1.27,2.8,-0.46,3.1
19.003933906555176,-3.8,4.76,-3.4,6.97
19.00504493713379,-6.42,6.52,-5.12,10.48
19.006147861480713,-8.16,8.04,-5.21,12.58
19.00675106048584,-8.97,8.55,-4.11,13.05
19.008064031600952,-8.83,8.02,-2.76,12.24
19.018043994903564,-8.43,6.85,-2.13,11.06
19.028007984161377,-8.48,5.37,-2.73,10.4
19.037989139556885,-9.31,4.49,-4.12,11.12
19.10356616973877,-9.64,7.23,-4.75,12.95
19.10434913635254,-9.45,3.74,-3.69,10.81
19.10492992401123,-11.67,-0.82,-1.59,11.8
19.10610008239746,-10.79,-0.46,-0.29,10.8
19.107251167297363,-10.35,-0.69,0.08,10.37
19.107861042022705,-9.81,0.03,-0.35,9.81
19.10942506790161,-8.95,0.28,-0.45,8.96
19.117913007736206,-7.02,0.69,-0.05,7.05
19.127907037734985,-4.18,2.81,0.3,5.04
19.13794708251953,3.43,4.29,1.21,5.62
19.20404601097107,8.04,1.76,5.32,9.8
19.204636096954346,2.33,-0.66,3.13,3.95
19.205242156982422,-5.77,0.59,-0.92,5.87
19.206407070159912,-9.52,2.03,-1.49,9.84
19.20757293701172,-8.2,3.69,-0.92,9.03
19.2081561088562,-6.45,6.22,-1.21,9.04
19.209691047668457,-5.04,3.97,-1.34,6.55
19.217803955078125,-5.09,1.88,-1.44,5.61
19.22777509689331,-6.2,-0.33,-2.68,6.76
19.237700939178467,-4.51,0.19,-1.94,4.91
19.304776191711426,-3.66,-0.25,-0.26,3.67
19.305373191833496,-3.71,-1.05,-0.02,3.85
19.305958032608032,-3.43,-0.75,-0.53,3.55
19.307142972946167,-2.11,-0.21,-0.47,2.17
19.30832600593567,-0.93,-0.22,-0.31,1.0
19.308918952941895,-0.21,-0.38,-0.3,0.52
19.31050205230713,0.23,-0.31,-0.08,0.39
19.31758999824524,0.4,-0.09,0.13,0.43
19.327713012695312,0.36,0.15,0.21,0.44
19.33756685256958,0.07,0.16,0.06,0.18
19.404706954956055,-0.24,0.06,-0.28,0.37
19.40531015396118,-0.26,-0.02,-0.64,0.69
19.40588402748108,-0.12,-0.02,-0.7,0.71
19.407036066055298,0.01,0.07,-0.89,0.89
19.408179998397827,0.08,0.21,-1.25,1.27
19.408765077590942,0.18,0.18,-1.4,1.42
19.410338878631592,0.15,0.13,-1.19,1.2
19.417451858520508,-0.04,0.17,-0.9,0.91
19.427520036697388,-0.26,0.16,-0.63,0.7
19.4374680519104,-0.68,0.1,-0.27,0.73
19.505159854888916,-1.19,-0.03,-0.14,1.19
19.5057590007782,-1.59,-0.01,-0.35,1.62
19.50636601448059,-1.63,0.03,-0.37,1.67
19.507572174072266,-1.44,-0.04,-0.13,1.44
19.508722066879272,-1.19,-0.13,0.07,1.19
19.509652137756348,-0.91,-0.12,-0.03,0.91
19.510851860046387,-0.7,-0.12,-0.15,0.72
19.517362117767334,-0.58,-0.08,-0.11,0.59
19.527347087860107,-0.47,0.06,-0.04,0.47
19.53747320175171,-0.28,0.06,-0.08,0.29
19.605390071868896,-0.17,0.06,-0.12,0.21
19.60594892501831,-0.03,0.08,-0.3,0.31
19.606540203094482,0.2,0.0,-0.45,0.49
19.60771608352661,0.43,-0.1,-0.23,0.49
19.60884189605713,0.42,0.0,0.03,0.42
19.609776973724365,0.3,0.08,0.12,0.33
19.611002922058105,0.21,-0.11,0.4,0.46
19.61715602874756,0.14,-0.21,0.71,0.75
19.62721586227417,0.09,-0.13,0.4,0.43
19.637132167816162,-0.07,0.11,-0.29,0.31
19.704925060272217,-0.23,0.27,-0.94,1.0
19.705528020858765,-0.28,0.25,-1.36,1.41
19.706120014190674,-0.29,0.14,-1.18,1.22
19.707272052764893,0.02,0.11,-0.64,0.64
19.7083899974823,0.81,0.11,-0.16,0.83
19.708938121795654,1.55,-0.12,0.1,1.55
19.710472106933594,1.94,-0.2,0.04,1.95
19.716887950897217,2.55,0.01,-0.24,2.56
19.72688388824463,3.12,0.16,-0.14,3.12
19.736876010894775,3.3,0.18,0.03,3.3
19.805480003356934,3.4,0.26,0.07,3.41
19.806068897247314,3.76,0.2,-0.05,3.76
19.80668020248413,4.31,0.0,0.05,4.31
19.807868003845215,5.17,0.09,0.12,5.17
19.809043884277344,6.05,0.14,-0.26,6.05
19.809985160827637,7.11,0.32,0.07,7.11
19.811182975769043,7.95,0.61,-0.63,7.99
19.816905975341797,8.28,1.08,-1.81,8.54
19.826682090759277,7.81,1.5,-1.84,8.16
19.836883068084717,5.62,1.46,-1.77,6.07
19.90605401992798,1.83,1.69,-0.98,2.67
19.906673908233643,-2.18,4.11,0.02,4.65
19.90726399421692,-3.18,8.34,0.1,8.92
19.908421993255615,-0.64,7.38,1.21,7.5
19.909873008728027,1.5,5.63,1.5,6.01
19.910454988479614,2.67,5.92,0.38,6.5
19.911951065063477,1.91,5.21,0.21,5.55
19.916673183441162,2.04,4.99,-0.02,5.39
19.92664384841919,4.07,5.43,-0.28,6.79
19.93672800064087,6.28,5.65,-1.07,8.51
20.00625991821289,7.7,6.61,-2.11,10.36
20.006860971450806,7.49,7.78,-2.81,11.15
20.007441997528076,5.87,8.81,-2.79,10.94
20.008615970611572,3.83,8.19,-1.75,9.2
20.010107040405273,1.24,7.14,-0.7,7.28
20.010698080062866,-1.59,7.4,-2.41,7.94
20.012277126312256,-1.6,5.9,-4.91,7.84
20.01663303375244,1.22,4.59,-2.99,5.61
20.026679039001465,4.85,3.55,-0.58,6.03
20.03656816482544,9.08,0.54,0.16,9.09
20.106703996658325,8.33,-2.95,1.51,8.96
20.10730791091919,-0.28,-4.47,2.64,5.19
20.107895851135254,-5.69,-5.83,-2.06,8.4
20.109074115753174,-2.07,-1.88,-3.6,4.55
20.110569953918457,5.59,-1.51,-2.3,6.23
20.111489057540894,10.62,-2.49,-0.68,10.92
20.112730026245117,11.86,-2.54,0.86,12.15
20.11646795272827,10.56,-2.68,1.93,11.06
20.126348972320557,8.19,-3.78,2.36,9.32
20.13636589050293,5.97,-5.06,2.78,8.3
20.20757007598877,5.09,-5.43,2.89,7.98
20.208168029785156,4.98,-4.9,2.29,7.35
20.20875597000122,4.94,-4.09,1.61,6.61
20.210270881652832,4.7,-3.69,1.13,6.08
20.211806058883667,4.33,-3.46,1.0,5.63
20.212400913238525,3.96,-3.35,1.16,5.31
20.21362805366516,3.41,-3.26,1.59,4.97
20.21631097793579,2.73,-3.0,2.04,4.54
20.226233959197998,2.38,-2.48,2.44,4.21
20.23626399040222,2.52,-1.71,3.0,4.27
20.3077449798584,3.17,-0.83,3.81,5.02
20.308391094207764,2.82,0.58,3.64,4.64
20.30897307395935,0.77,2.46,1.71,3.09
20.310492992401123,-1.83,4.19,-1.25,4.73
20.312076091766357,-3.97,6.16,-3.9,8.3
20.312684059143066,-5.75,8.57,-5.18,11.54
20.313899993896484,-7.99,10.17,-4.89,13.82
20.316233158111572,-10.14,9.73,-4.61,14.79
20.32613205909729,-11.21,7.65,-4.18,14.2
20.33613109588623,-11.03,5.07,-3.58,12.65
20.408629894256592,-11.0,3.33,-4.53,12.35
20.409236907958984,-11.33,2.78,-5.77,13.01
20.4098539352417,-11.21,1.13,-4.99,12.32
20.411765098571777,-10.83,0.75,-2.96,11.25
20.41291308403015,-9.6,2.23,-1.72,10.0
20.41349697113037,-9.81,-0.53,-1.93,10.01
20.414670944213867,-9.34,-0.77,-1.74,9.53
20.416086196899414,-8.19,-0.17,-1.22,8.28
20.425969123840332,-6.22,0.56,-0.11,6.24
20.436034202575684,-3.67,2.76,0.0,4.59
20.509337902069092,3.69,4.66,1.6,6.15
20.50993299484253,8.24,2.41,5.6,10.25
20.51120901107788,3.85,-0.19,2.34,4.5
20.512343883514404,-3.37,0.9,-1.13,3.66
20.513463020324707,-6.95,1.38,-0.35,7.09
20.514055013656616,-7.11,1.46,0.07,7.25
20.515207052230835,-6.04,4.15,-1.61,7.5
20.51635217666626,-4.38,4.49,-2.19,6.64
20.525854110717773,-4.5,1.97,-2.53,5.52
20.535749912261963,-5.84,0.12,-3.9,7.02
20.610251903533936,-4.57,1.6,-2.43,5.41
20.611172199249268,-3.88,0.49,-0.56,3.95
20.611763954162598,-4.06,-1.34,-0.12,4.27
20.612967014312744,-4.12,-1.31,-0.55,4.35
20.614137172698975,-3.19,-0.44,-0.45,3.25
20.61471700668335,-2.02,0.12,0.23,2.03
20.615921020507812,-1.16,0.04,0.35,1.21
20.617104053497314,-0.42,0.01,0.23,0.47
20.625745058059692,0.11,0.0,0.13,0.17
20.6356840133667,0.42,0.06,-0.12,0.44
20.710493087768555,0.5,0.06,-0.48,0.69
20.711379051208496,0.42,-0.13,-0.63,0.76
20.711965084075928,0.5,-0.3,-0.69,0.9
20.713260173797607,0.54,-0.33,-0.8,1.02
20.71444296836853,0.43,-0.27,-0.99,1.11
20.715029001235962,0.21,-0.05,-1.21,1.22
20.716270923614502,-0.05,0.2,-1.5,1.51
20.717480182647705,-0.45,0.14,-1.53,1.6
20.725552082061768,-0.85,0.1,-1.36,1.6
20.73554801940918,-1.14,0.22,-0.98,1.51
20.811305046081543,-1.08,0.27,-0.35,1.16
20.81214714050293,-0.86,0.0,0.23,0.89
20.81274700164795,-0.8,-0.13,0.48,0.94
20.813933849334717,-0.72,-0.17,0.41,0.84
20.815088033676147,-0.42,-0.16,0.35,0.56
20.81565499305725,0.06,-0.16,0.31,0.35
20.816842079162598,0.35,-0.09,0.16,0.39
20.818053007125854,0.3,0.02,-0.35,0.46
20.825496196746826,-0.28,0.01,-0.83,0.87
20.83546805381775,-0.92,0.04,-1.16,1.48
20.91073989868164,-1.22,0.01,-1.19,1.7
20.91154408454895,-1.09,0.0,-0.95,1.44
20.912122011184692,-0.8,0.03,-0.56,0.97
20.913312911987305,-0.52,-0.03,-0.17,0.54
20.9144549369812,-0.3,-0.01,-0.28,0.41
20.91503620147705,-0.14,0.08,-0.62,0.64
20.916225910186768,-0.06,-0.05,-0.46,0.46
20.917402029037476,-0.01,-0.06,-0.22,0.22
20.9253511428833,-0.04,-0.02,-0.2,0.2
20.93514919281006,-0.08,0.04,-0.29,0.3
21.01090717315674,-0.03,0.08,-0.39,0.39
21.011701107025146,0.08,0.04,-0.54,0.54
21.012290954589844,0.26,0.04,-0.6,0.65
21.013440132141113,0.5,0.13,-0.44,0.67
21.014605045318604,0.69,0.09,-0.06,0.69
21.01521587371826,0.91,-0.03,0.46,1.02
21.016401052474976,1.38,-0.11,0.62,1.51
21.017578125,1.89,-0.15,0.7,2.02
21.025155067443848,2.2,-0.04,0.56,2.27
21.035125970840454,2.19,0.24,0.48,2.25
21.111318111419678,2.34,0.33,0.72,2.47
21.11214590072632,2.79,0.3,0.62,2.87
21.11275005340576,3.12,0.45,0.24,3.16
21.113940000534058,3.23,0.74,0.07,3.31
21.115066051483154,3.37,0.87,-0.47,3.51
21.115650177001953,3.27,0.78,-0.64,3.42
21.116780996322632,3.21,0.71,-0.64,3.34
21.117877960205078,3.08,0.8,-1.12,3.37
21.125072956085205,2.51,1.03,-1.19,2.96
21.135070085525513,1.68,1.24,-1.04,2.33
21.211862087249756,1.28,1.68,-0.96,2.31
21.21249008178711,1.39,2.42,-0.08,2.79
21.21309185028076,1.68,3.74,-0.37,4.11
21.21434998512268,3.19,5.22,-1.68,6.34
21.215512990951538,2.97,4.72,0.38,5.58
21.216105937957764,3.36,4.95,-0.22,5.98
21.217319011688232,3.61,5.0,0.14,6.16
21.218503952026367,3.9,4.43,0.33,5.91
21.224932193756104,4.5,4.23,0.15,6.17
21.235054969787598,4.83,4.47,-0.22,6.58
21.312213897705078,4.93,4.77,-0.51,6.87
21.312825202941895,4.48,5.41,-0.56,7.04
21.313414096832275,4.32,6.04,-0.76,7.46
21.314591884613037,4.32,6.37,-1.16,7.78
21.315703868865967,5.0,6.46,-1.93,8.39
21.316287994384766,5.88,6.12,-2.77,8.92
21.317469120025635,5.86,5.91,-3.4,8.99
21.31863498687744,4.1,6.99,-2.4,8.45
21.324728965759277,-0.47,8.7,-1.5,8.84
21.334754943847656,-2.78,7.76,-4.22,9.26
21.41241216659546,-0.4,4.75,-4.81,6.77
21.4130220413208,4.0,4.27,-2.65,6.42
21.413604974746704,7.96,3.29,-1.61,8.76
21.414833068847656,9.43,-1.1,-0.88,9.53
21.416002988815308,3.66,-3.52,0.41,5.09
21.416588068008423,-4.41,-4.43,-1.63,6.45
21.417793035507202,-5.96,-1.64,-4.64,7.72
21.41899299621582,1.84,0.08,-4.78,5.12
21.424603939056396,8.47,-1.88,-3.25,9.26
21.43465304374695,11.15,-2.82,-1.3,11.57
21.512610912322998,11.17,-3.24,0.26,11.63
21.513236045837402,9.29,-3.63,1.65,10.1
21.513835906982422,7.35,-4.16,2.47,8.79
21.515066146850586,5.99,-4.85,2.46,8.09
21.516233921051025,5.42,-5.32,2.17,7.89
21.51681900024414,5.44,-5.18,1.8,7.72
21.518004894256592,5.3,-4.79,1.29,7.25
21.519526958465576,5.02,-4.48,0.75,6.77
21.524502992630005,4.75,-4.1,0.43,6.28
21.53447699546814,4.56,-3.64,0.43,5.85
21.613635063171387,4.31,-3.09,0.84,5.36
21.614294052124023,3.86,-2.32,1.5,4.74
21.61488389968872,3.35,-1.57,2.35,4.38
21.616087913513184,2.59,-0.74,3.06,4.07
21.617258071899414,1.74,0.2,2.95,3.43
21.617846965789795,1.09,1.0,1.51,2.11
21.619086027145386,-0.4,2.77,-1.05,2.98
21.620593070983887,-2.75,4.85,-3.73,6.7
21.624341011047363,-5.15,6.52,-5.25,9.82
21.634334087371826,-7.08,7.82,-5.61,11.94
21.644273042678833,-8.81,8.26,-5.08,13.1
21.713648080825806,-10.17,7.78,-4.37,13.52
21.714273929595947,-10.65,6.27,-3.33,12.79
21.715506076812744,-10.93,4.36,-3.18,12.18
21.716690063476562,-12.04,3.24,-4.23,13.16
21.71727705001831,-13.02,3.05,-4.67,14.16
21.718504905700684,-12.38,2.22,-3.4,13.02
21.72006106376648,-11.02,0.43,-1.35,11.11
21.72413206100464,-9.48,-0.93,-0.24,9.52
21.734282970428467,-8.37,-1.47,0.42,8.5
21.744232177734375,-7.8,-1.12,0.78,7.91
21.813497066497803,-7.56,0.08,0.57,7.58
21.814116954803467,-6.08,5.82,-0.09,8.41
21.81527614593506,-4.76,6.05,-0.4,7.7
21.81641697883606,-5.98,1.55,-0.26,6.18
21.816998958587646,-1.79,0.67,-0.1,1.91
21.81818199157715,8.48,0.95,4.06,9.44
21.8197021484375,13.8,-0.16,8.57,16.24
21.824045181274414,7.85,-0.21,4.3,8.95
21.834086894989014,-2.64,0.96,-0.51,2.85
21.843975067138672,-10.08,0.79,-2.35,10.38
21.913825035095215,-10.71,1.48,-2.82,11.17
21.91451907157898,-7.72,5.64,-2.77,9.95
21.915723085403442,-4.81,8.19,-1.88,9.68
21.916915893554688,-3.75,3.52,-0.99,5.23
21.917502880096436,-4.22,-0.51,-1.16,4.4
21.919044971466064,-3.97,0.04,-0.04,3.97
21.920237064361572,-5.21,-1.06,1.35,5.48
21.92389488220215,-6.11,-1.58,0.31,6.31
21.93387007713318,-5.56,-0.74,-0.36,5.62
21.943742036819458,-3.6,-0.06,-0.07,3.6
22.013519048690796,-1.7,0.04,0.15,1.7
22.014137983322144,-0.49,-0.25,0.09,0.55
22.015351057052612,0.04,-0.24,0.08,0.25
22.016511917114258,0.17,0.04,0.26,0.31
22.017091989517212,0.14,0.2,0.47,0.52
22.01830816268921,-0.16,0.11,0.26,0.32
22.01982593536377,-0.58,-0.12,-0.08,0.59
22.02376413345337,-0.71,-0.07,-0.52,0.88
22.033782958984375,-0.67,0.05,-0.83,1.06
22.043797969818115,-0.48,0.02,-1.13,1.22
22.1138858795166,-0.35,0.03,-1.4,1.44
22.11449909210205,-0.44,0.06,-1.47,1.53
22.115653038024902,-0.49,0.07,-1.26,1.35
22.116766929626465,-0.46,0.1,-0.88,0.99
22.117350101470947,-0.22,0.07,-0.64,0.68
22.118848085403442,0.02,-0.08,-0.62,0.62
22.120048999786377,-0.1,-0.1,-0.7,0.71
22.123630046844482,-0.29,-0.05,-0.6,0.66
22.133646965026855,-0.23,0.03,-0.38,0.44
22.14359402656555,-0.06,0.05,-0.17,0.18
22.213871955871582,0.03,-0.06,-0.02,0.06
22.214466094970703,-0.04,-0.06,-0.08,0.1
22.21557307243347,-0.18,-0.09,-0.25,0.32
22.21668004989624,-0.41,-0.1,-0.46,0.62
22.217266082763672,-0.37,-0.07,-0.53,0.65
22.21875810623169,-0.25,0.01,-0.3,0.39
22.21995210647583,-0.29,-0.01,-0.06,0.29
22.223474979400635,-0.34,-0.02,-0.04,0.34
22.23353385925293,-0.27,0.09,0.05,0.28
22.24343490600586,-0.07,0.02,-0.01,0.07
22.31335997581482,0.15,-0.1,-0.24,0.3
22.313968181610107,0.36,-0.03,-0.26,0.44
22.31517505645752,0.48,0.0,-0.3,0.56
22.316344022750854,0.49,-0.04,-0.43,0.65
22.316926956176758,0.46,0.01,-0.41,0.61
22.318475008010864,0.42,0.09,-0.38,0.57
22.319686889648438,0.36,0.13,-0.35,0.51
22.323338985443115,0.38,0.13,-0.26,0.47
22.397683143615723,0.37,0.0,-0.15,0.39
22.39859700202942,0.26,-0.08,-0.08,0.28
22.399185180664062,0.29,0.03,-0.26,0.39
22.399767875671387,0.46,0.12,-0.23,0.52
22.400896072387695,0.59,0.16,0.26,0.66
22.401982069015503,0.67,0.14,0.24,0.72
22.40254306793213,0.91,0.14,-0.15,0.93
22.40367889404297,1.34,0.24,-0.3,1.39
22.41321611404419,1.72,0.3,-0.36,1.78
22.4253249168396,2.04,0.34,-0.34,2.09
22.49702501296997,2.31,0.39,-0.34,2.36
22.497627019882202,2.61,0.48,-0.22,2.66
22.498533010482788,2.94,0.74,-0.13,3.03
22.49911403656006,3.06,0.9,-0.44,3.21
22.500258922576904,3.08,1.0,-0.53,3.28
22.501370906829834,2.89,1.32,-1.02,3.33
22.501957893371582,2.2,1.64,-0.87,2.87
22.503117084503174,1.51,1.88,-0.46,2.45
22.513012886047363,1.32,2.47,0.07,2.8
22.523035049438477,1.61,3.28,0.41,3.67
22.5974280834198,2.59,3.72,-0.77,4.59
22.598355054855347,4.53,4.44,-0.99,6.41
22.598939895629883,4.32,5.01,-0.07,6.61
22.59951901435852,5.08,4.78,-0.59,7.0
22.60065007209778,5.1,4.69,0.32,6.93
22.601868152618408,5.58,4.49,-0.11,7.16
22.602499961853027,5.94,4.74,-0.26,7.6
22.603801012039185,5.9,5.36,-0.34,7.97
22.612914085388184,5.46,5.71,-0.65,7.92
22.622776985168457,4.64,5.94,-0.47,7.55
22.69751214981079,4.11,5.66,-0.21,6.99
22.698458194732666,4.34,5.52,-0.46,7.03
22.69904088973999,5.7,5.89,-1.55,8.34
22.69962215423584,7.17,5.87,-2.71,9.65
22.700870037078857,6.69,5.79,-2.81,9.28
22.702054023742676,2.97,7.75,-1.39,8.41
22.7026469707489,-1.96,9.04,-1.95,9.45
22.70388102531433,-1.94,6.62,-4.48,8.22
22.712636947631836,2.75,4.9,-3.83,6.8
22.722719192504883,7.65,4.66,-2.25,9.23
22.797386169433594,9.65,2.92,-1.08,10.13
22.79830503463745,6.51,-2.35,-0.4,6.93
22.798890113830566,-0.51,-3.05,-0.19,3.09
22.79948616027832,-6.69,-2.29,-2.95,7.66
22.80070400238037,-4.53,0.27,-5.48,7.11
22.80186104774475,5.07,0.04,-5.22,7.27
22.8024640083313,11.1,-1.64,-2.9,11.58
22.803659915924072,12.7,-2.33,-0.32,12.91
22.81242609024048,11.38,-2.94,1.75,11.88
22.822641849517822,8.6,-3.58,3.1,9.81
22.89736318588257,6.23,-4.54,3.22,8.35
22.898280143737793,5.07,-5.41,2.54,7.83
22.898870944976807,4.94,-5.74,1.94,7.81
22.89945411682129,4.89,-5.67,1.33,7.6
22.900678157806396,4.63,-5.52,0.9,7.26
22.901830196380615,4.06,-5.24,0.88,6.68
22.902441024780273,3.54,-4.7,0.95,5.96
22.903647899627686,3.09,-4.05,1.29,5.25
22.912352085113525,2.77,-3.37,1.9,4.75
22.9225070476532,2.18,-2.63,2.64,4.31
22.99755597114563,1.57,-1.9,3.59,4.35
22.99837017059326,1.43,-0.88,4.41,4.71
22.99896812438965,1.33,0.91,4.17,4.47
22.999555110931396,1.07,3.23,1.81,3.85
23.00074291229248,-0.36,5.92,-1.9,6.22
23.00193214416504,-3.61,8.59,-5.09,10.61
23.002526998519897,-7.81,10.66,-6.65,14.79
23.003758907318115,-11.39,10.77,-6.25,16.87
23.012489080429077,-12.78,8.93,-4.61,16.25
23.022357940673828,-12.2,6.43,-2.84,14.08
23.09762191772461,-10.96,4.42,-3.36,12.28
23.098459005355835,-11.23,3.87,-5.14,12.94
23.099050998687744,-11.67,3.04,-5.86,13.4
23.09963607788086,-11.66,0.74,-3.67,12.24
23.100800037384033,-11.66,-1.18,-1.16,11.77
23.101941108703613,-11.64,-2.29,-0.37,11.86
23.102540969848633,-11.08,-2.49,-1.17,11.41
23.103729009628296,-9.85,-0.7,-2.0,10.07
23.112409114837646,-5.76,6.76,-2.18,9.14
23.122207164764404,-4.99,6.33,-1.55,8.2
23.19799518585205,-1.95,3.34,-2.54,4.62
23.19880485534668,11.18,2.62,4.98,12.51
23.199431896209717,15.88,-0.59,14.67,21.62
23.20002317428589,6.74,-0.78,3.64,7.69
23.201210975646973,-7.07,-0.13,-3.2,7.76
23.20238494873047,-13.45,-0.06,-2.83,13.74
23.2029709815979,-11.02,1.7,-2.38,11.4
23.20417594909668,-6.93,5.29,-2.36,9.03
23.21202802658081,-3.95,6.51,-1.58,7.77
23.222069025039673,-2.6,3.58,-1.39,4.63
23.29769515991211,-3.06,0.35,-0.29,3.09
23.2984881401062,-4.7,0.69,-0.61,4.78
23.29906988143921,-6.58,-0.78,-3.26,7.38
23.29964804649353,-5.79,0.2,-3.6,6.82
23.30080509185791,-3.87,0.72,-1.75,4.3
23.301941871643066,-2.26,-0.8,-0.88,2.55
23.302551984786987,-1.33,-1.16,-0.76,1.92
23.303738117218018,-0.95,-0.48,-0.31,1.1
23.31193494796753,-1.08,-0.12,0.32,1.13
23.321949005126953,-1.42,0.1,0.68,1.57
23.397552013397217,-1.75,0.4,0.77,1.95
23.398354053497314,-2.06,0.53,0.66,2.22
23.398966073989868,-2.02,0.31,0.42,2.08
23.3995680809021,-1.67,-0.03,0.33,1.7
23.400731086730957,-1.01,-0.15,0.46,1.11
23.40189790725708,-0.18,-0.24,0.7,0.76
23.402482986450195,0.14,-0.19,0.3,0.38
23.40366005897522,-0.05,-0.08,-0.78,0.78
23.411763191223145,-0.41,0.05,-1.68,1.73
23.421836853027344,-0.61,0.31,-2.29,2.39
23.497273921966553,-0.59,0.48,-2.31,2.43
23.49806785583496,-0.51,0.21,-1.62,1.71
23.498650074005127,-0.38,-0.09,-1.01,1.08
23.49923086166382,-0.45,-0.2,-0.68,0.83
23.50040292739868,-0.58,-0.17,-0.56,0.82
23.50154399871826,-0.52,-0.1,-0.38,0.65
23.502125024795532,-0.2,-0.05,-0.1,0.22
23.503308057785034,0.1,-0.11,0.15,0.21
23.511749982833862,0.25,-0.18,0.21,0.37
23.521777153015137,0.24,-0.16,0.1,0.3
23.59785795211792,0.05,-0.05,-0.1,0.12
23.59845805168152,0.06,0.05,-0.48,0.48
23.599048137664795,0.08,0.03,-0.77,0.77
23.599629878997803,-0.07,-0.01,-0.85,0.85
23.600843906402588,-0.03,0.01,-0.77,0.77
23.602055072784424,0.22,-0.05,-0.7,0.73
23.602648973464966,0.41,-0.09,-0.58,0.71
23.6038498878479,0.33,-0.04,-0.39,0.51
23.61155891418457,0.06,-0.11,-0.38,0.4
23.621496200561523,-0.22,-0.05,-0.48,0.53
23.697937965393066,-0.51,-0.05,-0.46,0.68
23.698517084121704,-0.88,-0.03,-0.42,0.97
23.699109077453613,-1.31,0.16,-0.43,1.38
23.699689865112305,-1.59,0.31,-0.4,1.66
23.700906991958618,-1.45,0.4,-0.61,1.62
23.702106952667236,-0.99,0.47,-0.82,1.36
23.702692985534668,-0.49,0.31,-0.47,0.74
23.703891038894653,0.07,0.06,-0.16,0.18
23.711337089538574,0.86,-0.17,0.01,0.87
23.721354007720947,1.69,-0.34,0.06,1.72
23.798505067825317,2.44,-0.49,-0.01,2.48
23.799120903015137,3.04,-0.62,0.59,3.15
23.79972505569458,3.19,-0.53,0.93,3.36
23.800344944000244,2.73,-0.03,0.26,2.74
23.801621913909912,2.35,0.33,-0.29,2.39
23.80278706550598,2.26,0.41,-0.28,2.31
23.80336618423462,2.54,0.46,-0.2,2.58
23.804558992385864,3.13,0.41,0.18,3.16
23.811192989349365,3.72,0.36,0.25,3.74
23.82127809524536,4.22,0.48,0.06,4.24
23.898364067077637,4.5,0.79,-0.12,4.57
23.89898109436035,4.42,1.2,-0.7,4.63
23.89959192276001,4.26,1.3,-1.21,4.61
23.90017604827881,4.21,1.19,-1.35,4.57
23.901379108428955,3.79,1.83,-1.83,4.58
23.902523040771484,2.93,2.61,-1.7,4.27
23.90310502052307,2.15,3.38,-0.17,4.0
23.904290199279785,2.18,4.62,1.08,5.22
23.911072969436646,4.03,6.17,-0.7,7.4
23.920984983444214,5.63,6.44,0.2,8.55
23.998326063156128,3.98,5.07,1.19,6.55
23.998924016952515,3.89,5.47,0.19,6.71
23.99952507019043,3.94,5.54,0.11,6.79
24.000107049942017,4.03,5.41,-0.71,6.78
24.001330852508545,3.99,6.0,-0.99,7.27
24.00247097015381,4.26,6.41,-1.17,7.78
24.003056049346924,5.06,6.39,-1.95,8.38
24.004234075546265,6.2,6.67,-2.68,9.49
24.0108540058136,6.15,6.53,-3.0,9.45
24.02102303504944,5.06,6.33,-3.47,8.81
24.098406076431274,2.56,7.42,-2.48,8.23
24.099012851715088,-1.69,9.21,-1.05,9.42
24.099605083465576,-2.78,6.96,-2.68,7.95
24.100192070007324,0.78,3.71,-3.64,5.25
24.101369857788086,4.81,3.05,-1.97,6.02
24.10249090194702,8.17,1.37,-0.94,8.33
24.10308003425598,8.85,-1.87,-0.46,9.05
24.10424304008484,1.09,-4.17,0.86,4.39
24.11077904701233,-4.41,-5.12,-2.18,7.1
24.120787143707275,-2.74,-1.54,-4.38,5.39
24.198895931243896,4.49,-0.83,-3.1,5.51
24.199506998062134,8.58,-2.39,-1.38,9.01
24.20009708404541,9.95,-2.8,0.19,10.33
24.200695037841797,9.08,-3.25,1.52,9.76
24.201866149902344,6.97,-3.76,2.28,8.24
24.20301103591919,5.09,-4.49,2.34,7.17
24.20359516143799,4.41,-4.88,1.92,6.85
24.204780101776123,4.61,-4.48,1.7,6.64
24.210660934448242,4.98,-4.0,1.38,6.53
24.2206449508667,4.96,-3.84,1.07,6.36
24.299000024795532,4.6,-3.9,0.81,6.08
24.29960012435913,4.29,-3.98,0.78,5.9
24.30018901824951,4.22,-4.01,1.04,5.91
24.300776958465576,4.1,-3.74,1.45,5.73
24.30191993713379,3.72,-3.22,1.93,5.28
24.303039073944092,3.24,-2.61,2.18,4.69
24.303625106811523,2.94,-2.09,2.42,4.34
24.304769039154053,2.82,-1.38,2.77,4.18
24.310521125793457,2.69,0.05,2.78,3.86
24.32047200202942,2.06,1.99,1.82,3.39
24.399250984191895,0.82,4.24,-0.3,4.32
24.399855136871338,-1.11,6.51,-3.08,7.28
24.40044116973877,-3.8,9.05,-5.63,11.31
24.40102195739746,-6.62,10.8,-6.73,14.34
24.402195930480957,-8.91,10.79,-6.96,15.62
24.403346061706543,-10.29,9.76,-6.37,15.54
24.403928995132446,-10.74,8.04,-5.37,14.45
24.40543794631958,-11.05,5.7,-5.62,13.64
24.41024899482727,-11.33,3.17,-5.76,13.09
24.420359134674072,-11.39,0.77,-3.95,12.08
24.499073028564453,-11.24,-1.57,-1.7,11.47
24.499675989151,-11.04,-3.1,-0.96,11.5
24.500303983688354,-10.52,-3.18,-0.92,11.02
24.50088906288147,-9.45,-2.1,-0.94,9.72
24.502066135406494,-7.5,2.22,-1.21,7.91
24.503209114074707,-3.99,8.22,-1.45,9.25
24.503796100616455,-2.35,4.77,-0.56,5.34
24.505414962768555,-2.83,-0.48,0.35,2.89
24.510261058807373,1.82,-0.59,1.05,2.18
24.52022695541382,9.37,1.46,7.28,11.95
24.59931206703186,8.56,0.97,7.99,11.74
24.599953174591064,-0.46,1.82,-0.1,1.87
24.6005539894104,-8.71,2.59,-2.64,9.46
24.601144075393677,-9.69,1.2,-1.74,9.91
24.602323055267334,-7.12,2.39,-1.52,7.66
24.60348105430603,-4.03,4.89,-1.45,6.5
24.60406804084778,-1.98,4.0,-0.81,4.53
24.6056010723114,-2.81,1.39,-0.3,3.14
24.61009407043457,-5.19,-1.0,-2.18,5.71
24.620135068893433,-7.16,-0.99,-3.58,8.06
24.630045890808105,-7.21,1.76,-2.6,7.86
24.700623989105225,-6.31,1.11,-1.13,6.5
24.70121717453003,-4.47,-0.88,-0.05,4.55
24.701802015304565,-3.21,-1.22,-0.12,3.43
24.702986001968384,-2.61,-0.59,-0.2,2.68
24.704144954681396,-2.21,-0.15,0.44,2.25
24.705081939697266,-1.72,0.24,0.74,1.88
24.706248998641968,-0.71,0.46,0.44,0.95
24.70997905731201,0.3,0.44,-0.03,0.53
24.719922065734863,0.64,0.33,-0.42,0.83
24.729881048202515,0.31,0.0,-0.74,0.8
24.80034303665161,-0.11,-0.16,-0.7,0.72
24.800965070724487,-0.43,0.02,-0.71,0.83
24.80157709121704,-0.57,0.07,-1.21,1.33
24.80276107788086,-0.65,0.06,-1.91,2.01
24.803933143615723,-0.94,-0.02,-2.36,2.54
24.804548978805542,-1.46,-0.1,-1.99,2.47
24.80607795715332,-1.36,-0.21,-0.95,1.67
24.809800148010254,-0.72,-0.23,0.05,0.75
24.819815158843994,-0.25,-0.11,0.56,0.62
24.82976007461548,-0.05,0.0,0.44,0.44
24.90016794204712,-0.27,0.0,-0.32,0.41
24.900732040405273,-0.57,-0.05,-0.84,1.01
24.901326179504395,-0.78,-0.38,-0.67,1.09
24.902508020401,-0.93,-0.33,-0.65,1.18
24.903657913208008,-0.61,-0.03,-0.6,0.85
24.904263019561768,-0.08,-0.01,-0.55,0.55
24.90579319000244,0.19,-0.08,-0.56,0.59
24.909668922424316,0.42,-0.12,-0.34,0.55
24.919652938842773,0.38,-0.03,-0.11,0.39
24.92959499359131,0.12,0.08,-0.03,0.14
25.000303983688354,0.11,0.13,-0.06,0.18
25.00096106529236,0.33,0.06,-0.3,0.45
25.001636028289795,0.38,-0.01,-0.33,0.5
25.002832889556885,0.23,-0.06,-0.12,0.26
25.004004955291748,0.05,-0.05,-0.08,0.1
25.00492811203003,-0.19,0.03,-0.11,0.22
25.006153106689453,-0.32,0.2,0.01,0.37
25.009437084197998,-0.22,0.23,0.28,0.42
25.01947593688965,-0.06,0.16,0.17,0.24
25.029380083084106,0.19,0.15,-0.18,0.3
25.100432872772217,0.39,0.12,-0.21,0.45
25.101086139678955,0.55,0.12,-0.27,0.62
25.101693153381348,0.66,0.09,-0.37,0.76
25.102985858917236,0.59,0.05,-0.21,0.62
25.104562044143677,0.49,0.13,-0.17,0.53
25.10514497756958,0.54,0.12,-0.33,0.64
25.106350898742676,0.89,0.04,-0.42,0.98
25.109371185302734,1.28,0.02,-0.59,1.4
25.11934804916382,1.64,0.09,-0.72,1.79
25.129266023635864,1.98,0.36,-0.6,2.1
25.200491905212402,2.39,0.58,-0.48,2.5
25.201117992401123,2.93,0.7,-0.63,3.07
25.20176410675049,3.13,0.76,-0.48,3.25
25.20293402671814,2.97,0.79,-0.38,3.09
25.204118013381958,2.91,0.99,-0.62,3.13
25.205023050308228,2.85,1.11,-0.75,3.14
25.206200122833252,2.89,1.28,-0.5,3.2
25.20921516418457,3.16,1.71,-0.27,3.6
25.219255924224854,3.05,2.56,0.01,3.98
25.229187965393066,2.3,4.0,-0.59,4.65
25.30044984817505,2.56,4.82,-0.66,5.49
25.301065921783447,2.34,4.24,0.38,4.85
25.3016459941864,2.95,3.97,0.09,4.94
25.30282688140869,3.68,3.98,0.14,5.42
25.304336071014404,4.7,4.02,-0.01,6.18
25.304914951324463,5.43,4.22,-0.14,6.87
25.306060075759888,5.8,4.53,-0.47,7.37
25.30902099609375,6.1,4.99,-0.46,7.89
25.319087982177734,6.11,4.96,-0.63,7.89
25.328986167907715,5.54,4.96,-0.52,7.45
25.400723934173584,4.48,4.77,-0.51,6.56
25.40134286880493,3.6,4.77,-0.74,6.02
25.401906967163086,3.23,5.53,-1.21,6.51
25.40309190750122,3.91,6.46,-2.46,7.94
25.40460705757141,4.86,6.31,-3.34,8.63
25.40519094467163,3.4,6.42,-2.54,7.69
25.406368017196655,-0.4,8.44,-1.62,8.6
25.408977031707764,-0.54,8.22,-4.23,9.26
25.419034957885742,2.47,6.06,-4.75,8.08
25.428946018218994,6.33,5.02,-2.98,8.61
25.500768184661865,9.6,3.65,-1.81,10.42
25.501389026641846,10.41,0.16,-0.82,10.44
25.502004146575928,4.98,-2.22,0.25,5.45
25.503237009048462,-3.0,-3.08,-1.51,4.55
25.504735946655273,-6.44,-1.11,-4.82,8.12
25.50532102584839,-0.79,1.0,-4.58,4.75
25.50652003288269,6.75,-1.16,-2.88,7.42
25.5088210105896,9.57,-2.43,-1.17,9.94
25.518872022628784,9.12,-2.86,0.51,9.57
25.528779983520508,7.97,-3.23,2.03,8.83
25.601598978042603,6.48,-3.98,2.69,8.06
25.602198123931885,5.29,-4.94,2.37,7.61
25.602792024612427,4.56,-5.26,1.71,7.16
25.60432505607605,4.53,-4.86,1.04,6.72
25.605513095855713,4.69,-4.52,0.73,6.55
25.606096982955933,4.73,-4.16,0.71,6.33
25.607321977615356,4.71,-3.94,0.81,6.19
25.608683109283447,4.73,-3.82,1.07,6.17
25.618685007095337,4.32,-3.39,1.44,5.67
25.628612995147705,3.68,-3.0,1.76,5.06
25.70183801651001,3.24,-2.41,2.07,4.53
25.70246410369873,2.83,-1.47,2.71,4.18
25.703102111816406,2.51,-0.92,3.09,4.08
25.70469617843628,2.23,-0.25,2.54,3.38
25.705862045288086,1.04,1.63,0.47,1.98
25.706444025039673,-1.36,3.66,-2.25,4.5
25.707651138305664,-3.85,5.36,-3.87,7.65
25.7088680267334,-5.61,7.05,-4.27,9.97
25.718528985977173,-6.87,8.64,-4.29,11.84
25.728353023529053,-7.52,9.19,-3.97,12.52
25.801738023757935,-7.73,8.54,-3.29,11.97
25.802340030670166,-8.18,7.64,-3.06,11.6
25.802947998046875,-9.07,6.8,-3.85,11.97
25.804537057876587,-9.77,5.66,-4.73,12.24
25.805717945098877,-9.46,3.93,-4.17,11.06
25.80631113052368,-9.13,1.86,-2.19,9.57
25.807514190673828,-9.1,-0.2,-0.67,9.12
25.8087260723114,-9.24,-1.6,-0.27,9.38
25.818389892578125,-8.83,-1.88,-0.5,9.04
25.8283429145813,-7.65,-1.55,-0.7,7.83
25.90230107307434,-6.23,-0.86,-0.44,6.3
25.903321027755737,-5.12,-0.23,-0.78,5.18
25.903949975967407,-4.99,0.1,-1.48,5.2
25.90530490875244,-4.92,2.95,-1.59,5.95
25.906580924987793,-3.02,8.58,-0.91,9.14
25.90721607208252,-5.2,3.73,-1.28,6.52
25.90855598449707,-2.36,-1.98,-2.66,4.07
25.909823894500732,7.08,-1.71,3.76,8.19
25.91827702522278,9.71,0.92,8.59,12.99
25.928228855133057,4.35,2.08,3.81,6.14
26.0017991065979,-5.3,1.26,-0.5,5.47
26.002410888671875,-10.89,-0.38,-1.55,11.0
26.003334999084473,-9.55,0.14,-2.1,9.77
26.004508018493652,-6.07,2.94,-1.99,7.03
26.005650997161865,-3.35,6.09,-0.52,6.97
26.006237983703613,-2.08,5.81,0.37,6.18
26.00744915008545,-4.62,2.98,-0.75,5.54
26.008641004562378,-7.09,-0.91,-4.1,8.24
26.01814889907837,-6.79,1.52,-3.46,7.77
26.028092861175537,-4.95,2.6,-1.13,5.7
26.1021671295166,-2.74,-0.27,-0.12,2.75
26.103118896484375,-1.94,-1.78,-0.1,2.63
26.103708028793335,-1.6,-1.53,-0.63,2.3
26.104899883270264,-1.7,-0.75,-0.24,1.87
26.10607099533081,-2.1,-0.16,0.31,2.12
26.10665988922119,-2.25,0.12,0.35,2.28
26.107882976531982,-2.02,0.29,0.26,2.05
26.109084129333496,-1.48,0.3,0.17,1.51
26.117974042892456,-0.92,0.24,-0.05,0.95
26.12796401977539,-0.35,0.01,-0.12,0.37
26.20318603515625,0.17,-0.13,-0.31,0.37
26.20397400856018,0.42,-0.26,-0.83,0.96
26.204567909240723,0.58,-0.22,-1.57,1.68
26.20574188232422,0.76,-0.14,-1.91,2.06
26.206883907318115,0.86,0.02,-1.91,2.09
26.207440853118896,0.57,0.22,-1.74,1.84
26.208621978759766,0.0,0.25,-1.41,1.43
26.209786891937256,-0.71,0.14,-1.1,1.31
26.21778106689453,-1.12,-0.03,-0.92,1.44
26.227807998657227,-1.17,-0.07,-0.41,1.24
26.302544116973877,-1.08,-0.02,-0.03,1.08
26.303475856781006,-0.7,-0.07,0.44,0.82
26.30406093597412,-0.55,-0.23,0.87,1.05
26.305252075195312,-0.68,-0.26,0.98,1.22
26.30641198158264,-0.54,-0.15,0.73,0.92
26.30699396133423,-0.14,-0.1,0.47,0.5
26.308209896087646,0.08,0.0,0.7,0.7
26.309386014938354,0.24,0.04,0.71,0.75
26.317665100097656,0.32,-0.01,-0.02,0.32
26.32765507698059,0.24,0.05,-1.26,1.28
26.40348505973816,-0.28,0.15,-1.95,1.97
26.404296875,-0.74,0.14,-1.58,1.75
26.40488910675049,-0.65,-0.11,-0.49,0.82
26.4060640335083,-0.13,-0.16,0.46,0.5
26.40723419189453,0.33,-0.07,0.72,0.79
26.40782594680786,0.36,0.05,-0.25,0.44
26.409008979797363,-0.03,0.17,-1.36,1.37
26.41019916534424,-0.33,0.05,-1.05,1.1
26.417479991912842,-0.5,-0.1,-0.58,0.77
26.42751693725586,-0.56,-0.05,-0.62,0.83
26.503170013427734,-0.56,-0.03,-0.64,0.85
26.50392198562622,-0.33,-0.01,-0.64,0.72
26.504482984542847,0.1,-0.16,-0.15,0.24
26.50567102432251,0.25,-0.22,0.12,0.35
26.506818056106567,0.32,-0.09,0.13,0.35
26.50739288330078,0.43,0.08,0.01,0.43
26.508581161499023,0.78,0.21,-0.3,0.86
26.509747982025146,1.43,0.06,-0.41,1.48
26.517381191253662,2.25,-0.09,-0.27,2.26
26.527404069900513,2.66,0.11,-0.69,2.75
26.603394985198975,2.64,0.47,-0.42,2.71
26.604002952575684,2.8,0.73,0.4,2.92
26.6045880317688,3.42,0.77,0.59,3.55
26.605742931365967,4.21,0.75,0.19,4.28
26.606854915618896,4.84,0.75,-0.28,4.9
26.60740303993225,5.13,0.85,-0.71,5.24
26.60855507850647,4.92,1.01,-1.05,5.13
26.609692096710205,4.32,1.34,-1.37,4.72
26.617291927337646,3.23,1.63,-1.54,3.93
26.627234935760498,2.05,2.04,-0.6,2.95
26.70389699935913,0.84,4.26,-0.48,4.36
26.704519033432007,2.14,5.8,-0.3,6.18
26.70512104034424,2.74,4.84,2.2,5.98
26.706322193145752,3.59,5.08,1.49,6.39
26.707481861114502,3.91,5.35,1.35,6.76
26.708060026168823,3.77,4.69,1.25,6.14
26.709237098693848,4.06,4.4,0.56,6.01
26.710402011871338,4.78,4.28,-0.14,6.41
26.717130184173584,5.19,4.48,-0.89,6.91
26.727148056030273,4.8,4.76,-1.67,6.96
26.804656982421875,4.42,5.45,-1.81,7.24
26.80528688430786,4.06,6.56,-2.37,8.07
26.805878162384033,4.63,7.38,-3.16,9.26
26.807137966156006,5.42,7.31,-3.33,9.69
26.808327198028564,5.22,6.91,-3.35,9.28
26.80891513824463,2.56,8.21,-1.72,8.77
26.810123920440674,-0.78,9.69,-1.99,9.92
26.811345100402832,-0.42,7.09,-5.08,8.73
26.81688404083252,2.86,5.24,-3.61,6.97
26.826770067214966,6.28,5.48,-1.8,8.52
26.904448986053467,9.08,2.73,-1.38,9.58
26.9051251411438,6.57,-2.21,-0.2,6.93
26.905750036239624,-0.3,-4.59,0.1,4.6
26.906957149505615,-2.5,-4.14,-3.42,5.92
26.90811014175415,3.62,-0.05,-4.04,5.42
26.90869903564453,9.17,-1.32,-1.74,9.42
26.90988802909851,11.16,-2.62,0.5,11.47
26.911077976226807,10.71,-3.5,1.95,11.43
26.916839122772217,8.38,-4.23,2.78,9.79
26.926781177520752,6.19,-4.64,2.78,8.22
27.004146099090576,4.74,-5.41,2.27,7.54
27.004765033721924,4.45,-5.17,1.74,7.03
27.00534200668335,4.45,-4.31,1.12,6.29
27.006514072418213,4.17,-3.74,0.6,5.63
27.007683992385864,3.57,-3.47,0.37,4.99
27.00826406478882,3.07,-3.49,0.4,4.66
27.00945806503296,2.8,-3.56,0.53,4.56
27.010626077651978,2.65,-3.43,0.88,4.42
27.016484022140503,2.42,-2.87,1.57,4.06
27.026578903198242,2.19,-2.14,2.28,3.81
27.104361057281494,2.04,-1.13,2.92,3.73
27.10500407218933,2.04,-0.03,3.26,3.84
27.10560894012451,2.15,0.87,2.79,3.62
27.106831073760986,1.2,2.56,0.99,2.99
27.10799503326416,-1.08,4.48,-1.78,4.94
27.10857915878296,-3.76,6.16,-3.82,8.16
27.10978889465332,-6.03,7.69,-4.21,10.64
27.110998153686523,-7.27,8.62,-3.89,11.92
27.116437911987305,-8.21,9.28,-3.87,12.98
27.126555919647217,-9.13,9.06,-3.79,13.4
27.20543098449707,-9.29,7.61,-4.12,12.69
27.206081867218018,-9.32,5.7,-5.25,12.12
27.206697940826416,-9.84,4.14,-4.89,11.74
27.20788812637329,-10.12,2.37,-2.67,10.73
27.209041118621826,-10.2,-0.13,-0.31,10.2
27.20962905883789,-10.14,-1.96,0.34,10.33
27.210841178894043,-9.79,-2.5,-0.11,10.1
27.2123441696167,-8.3,-0.88,-0.53,8.36
27.216296195983887,-5.48,4.72,-0.86,7.28
27.226548194885254,-4.92,3.87,-1.46,6.42
27.305262088775635,-5.7,1.1,-2.08,6.16
27.305882930755615,-7.65,-1.07,-2.24,8.04
27.30647087097168,-7.12,-1.24,-3.3,7.94
27.307633876800537,0.74,1.08,-2.3,2.64
27.308758020401,7.12,2.05,2.29,7.75
27.30934190750122,4.65,1.64,2.24,5.41
27.310508012771606,-2.14,1.25,-0.05,2.47
27.311999082565308,-7.08,-0.28,0.16,7.08
27.316224098205566,-7.08,-0.09,0.16,7.08
27.326222896575928,-6.07,4.34,-0.62,7.48
27.405066967010498,-5.48,7.45,-0.73,9.27
27.40575098991394,-6.26,4.74,-1.31,7.96
27.40634298324585,-8.15,0.66,-2.46,8.53
27.407508850097656,-5.96,0.9,-2.19,6.41
27.408649921417236,-3.19,0.74,-0.19,3.28
27.40923500061035,-2.8,-1.46,0.73,3.24
27.410423040390015,-3.14,-1.85,0.03,3.64
27.411974906921387,-2.51,-0.88,-0.34,2.68
27.416386127471924,-1.57,-0.27,0.24,1.61
27.426112174987793,-1.03,-0.02,0.26,1.06
27.50537109375,-0.71,0.07,-0.29,0.77
27.506015062332153,-0.36,-0.21,-0.66,0.78
27.506606101989746,-0.15,-0.34,-0.79,0.87
27.50777506828308,-0.19,0.11,-1.29,1.3
27.508918046951294,-0.35,0.32,-1.58,1.64
27.50950002670288,-0.65,0.24,-1.38,1.54
27.510694980621338,-0.77,0.28,-1.19,1.44
27.512187004089355,-0.51,0.21,-0.84,1.0
27.51590919494629,0.01,-0.01,-0.49,0.49
27.52595806121826,0.37,-0.12,-0.57,0.69
27.60554313659668,0.43,-0.1,-0.79,0.9
27.606160163879395,0.22,-0.07,-0.85,0.88
27.606751918792725,-0.17,0.1,-0.57,0.6
27.60792303085327,-0.65,0.37,-0.08,0.75
27.6090669631958,-0.99,0.28,0.5,1.14
27.60967206954956,-1.19,0.01,0.7,1.38
27.6111900806427,-1.03,-0.17,0.36,1.1
27.612364053726196,-0.68,-0.14,-0.03,0.69
27.6158709526062,-0.34,-0.1,-0.34,0.49
27.62582302093506,-0.08,-0.04,-0.57,0.57
27.7044780254364,0.18,-0.03,-0.76,0.78
27.70509910583496,0.33,-0.17,-0.77,0.85
27.70571804046631,0.21,-0.13,-0.63,0.67
27.706925868988037,0.05,-0.01,-0.65,0.65
27.70810890197754,-0.14,0.06,-0.62,0.63
27.708695888519287,-0.42,-0.02,-0.45,0.61
27.709902048110962,-0.68,0.01,-0.32,0.75
27.711431980133057,-0.8,-0.04,-0.18,0.82
27.71565008163452,-0.73,-0.1,0.09,0.74
27.725677013397217,-0.46,-0.06,0.26,0.53
27.80483603477478,-0.13,-0.09,0.34,0.37
27.805490970611572,0.13,-0.07,0.25,0.29
27.806087970733643,0.25,0.0,0.11,0.27
27.807313919067383,0.26,0.06,-0.06,0.27
27.808475017547607,0.26,0.09,-0.28,0.39
27.809025049209595,0.23,0.14,-0.46,0.53
27.81026792526245,0.26,0.2,-0.74,0.8
27.811779975891113,0.3,0.16,-0.69,0.76
27.815502166748047,0.4,0.16,-0.5,0.66
27.82536005973816,0.65,0.12,-0.49,0.82
27.90482807159424,0.88,-0.04,-0.03,0.88
27.905461072921753,1.1,-0.13,0.63,1.27
27.906059980392456,1.35,-0.05,0.88,1.61
27.907243013381958,1.83,0.07,0.83,2.01
27.9083890914917,2.56,0.17,0.54,2.62
27.908967971801758,3.08,0.11,0.44,3.11
27.910468101501465,3.11,0.14,0.15,3.11
27.911576986312866,2.99,0.18,-0.41,3.02
27.9153790473938,2.93,0.43,-1.02,3.13
27.9254469871521,3.37,0.73,-1.11,3.62
28.004767894744873,3.96,0.88,-1.59,4.35
28.00538396835327,3.8,0.62,-1.56,4.15
28.005977153778076,3.52,0.47,-0.56,3.59
28.007172107696533,3.8,0.98,-1.33,4.14
28.008321046829224,3.28,1.47,-1.67,3.96
28.008907079696655,2.22,1.67,-1.43,3.12
28.010427951812744,1.56,2.3,-0.55,2.83
28.011598110198975,1.03,3.84,0.51,4.0
28.015282154083252,2.55,5.28,-1.02,5.95
28.02525305747986,2.55,4.97,0.36,5.59
28.104923009872437,2.8,4.84,0.31,5.6
28.105521202087402,3.04,5.09,0.41,5.94
28.106099128723145,3.14,4.92,0.24,5.84
28.107266902923584,3.46,4.84,0.55,5.97
28.108407020568848,3.84,5.09,-0.07,6.37
28.108996868133545,4.24,5.21,-0.26,6.72
28.110508918762207,4.49,5.18,-0.17,6.85
28.111703872680664,5.08,6.0,-0.54,7.88
28.115100860595703,5.56,7.51,-1.53,9.46
28.12508201599121,5.19,8.39,-2.39,10.15
28.20591688156128,4.26,8.03,-2.22,9.35
28.20661497116089,3.65,7.26,-1.28,8.22
28.207189083099365,1.5,7.26,-0.67,7.44
28.208343029022217,-1.76,8.02,-1.46,8.33
28.209527015686035,-1.88,5.62,-4.34,7.34
28.210432052612305,1.69,4.13,-2.94,5.34
28.211647987365723,6.87,3.64,-1.69,7.95
28.21282696723938,10.06,1.3,-0.93,10.18
28.214977025985718,7.55,-2.33,-0.31,7.9
28.224941968917847,-0.64,-3.39,0.04,3.45
28.305824995040894,-5.32,-2.75,-3.5,6.93
28.306435108184814,-1.86,-0.05,-5.42,5.73
28.30702304840088,6.08,-0.76,-4.75,7.75
28.308207988739014,10.73,-2.1,-3.08,11.35
28.309360027313232,12.2,-2.26,-1.15,12.46
28.310262203216553,10.99,-2.39,0.57,11.26
28.31144094467163,8.35,-2.96,1.79,9.03
28.31260919570923,6.18,-3.75,2.22,7.56
28.314836025238037,5.29,-4.27,2.0,7.08
28.324903964996338,5.19,-4.21,1.67,6.88
28.405395984649658,5.1,-4.16,1.23,6.69
28.40603804588318,4.74,-4.2,0.74,6.37
28.40666389465332,4.35,-4.16,0.53,6.04
28.407850980758667,4.14,-4.13,0.69,5.88
28.409017086029053,3.95,-4.0,1.04,5.71
28.409936904907227,3.57,-3.72,1.41,5.34
28.411123037338257,3.04,-3.32,1.89,4.88
28.412335872650146,2.58,-2.71,2.22,4.35
28.41477394104004,2.2,-1.9,2.68,3.95
28.424718856811523,1.95,-0.53,3.5,4.04
28.505645036697388,2.12,1.1,3.76,4.45
28.50628399848938,2.02,2.61,2.39,4.07
28.506906032562256,0.56,5.24,-0.58,5.3
28.50813102722168,-2.74,8.35,-3.89,9.61
28.509315967559814,-7.09,10.65,-6.21,14.22
28.510243892669678,-11.12,11.7,-6.83,17.52
28.51145100593567,-12.25,10.6,-6.05,17.29
28.512648105621338,-10.86,7.85,-4.14,14.02
28.514575004577637,-9.73,5.01,-3.65,11.53
28.524569034576416,-10.31,2.79,-6.0,12.25
28.605710983276367,-11.99,0.99,-6.57,13.7
28.6063551902771,-13.17,-0.39,-3.44,13.61
28.606953144073486,-13.72,-1.37,-1.73,13.89
28.608152866363525,-13.2,-2.13,-2.32,13.57
28.6096510887146,-11.75,-2.2,-2.98,12.32
28.61023712158203,-10.57,-1.44,-3.45,11.21
28.611473083496094,-10.11,0.24,-3.67,10.75
28.612717151641846,-7.98,9.58,-3.83,13.04
28.614416122436523,-2.66,9.46,-3.31,10.36
28.624390125274658,7.02,1.85,-1.72,7.46
28.70607089996338,18.68,-1.57,11.64,22.06
28.70669198036194,14.74,-1.5,12.37,19.3
28.707282066345215,1.81,0.03,1.18,2.16
28.70847988128662,-10.17,-0.68,-3.01,10.62
28.709997177124023,-11.57,0.3,-2.3,11.8
28.71060085296631,-7.78,3.66,-2.33,8.9
28.711827993392944,-5.22,7.16,-1.49,8.98
28.713024139404297,-4.03,6.9,-1.15,8.07
28.71420192718506,-3.92,1.85,-0.45,4.35
28.72425413131714,-4.63,0.98,-0.65,4.77
28.806797981262207,-6.48,-0.62,-3.79,7.53
28.80741786956787,-6.37,0.43,-3.4,7.23
28.80800700187683,-5.16,0.31,-1.74,5.45
28.809574127197266,-3.82,-0.93,-1.23,4.11
28.810765027999878,-2.9,-0.89,-1.54,3.4
28.811349868774414,-1.9,-0.18,-1.22,2.26
28.812594890594482,-1.34,-0.08,-0.43,1.4
28.813840866088867,-1.09,-0.11,0.08,1.09
28.81442403793335,-0.68,0.21,0.33,0.78
28.824092864990234,-0.33,0.23,0.37,0.54
28.906960010528564,-0.08,0.05,0.12,0.15
28.907569885253906,0.07,-0.34,-0.08,0.35
28.908152103424072,0.08,-0.42,-0.35,0.55
28.909648895263672,0.08,-0.24,-0.68,0.72
28.910770893096924,0.13,-0.22,-0.75,0.79
28.911377906799316,0.23,-0.06,-1.1,1.12
28.912580013275146,0.39,0.06,-1.4,1.45
28.913785934448242,0.36,0.05,-1.36,1.4
28.914373874664307,0.13,0.14,-1.31,1.32
28.923989057540894,-0.29,0.2,-0.99,1.05
28.93392300605774,-0.72,0.21,-0.53,0.91
29.007632970809937,-1.07,0.24,-0.29,1.13
29.008244037628174,-1.2,0.21,-0.06,1.21
29.009735107421875,-1.01,-0.05,0.12,1.01
29.010879039764404,-0.73,-0.12,0.25,0.78
29.01146411895752,-0.58,-0.13,0.37,0.7
29.01267385482788,-0.41,-0.19,0.42,0.61
29.01387119293213,-0.26,-0.25,0.37,0.51
29.014473915100098,-0.04,-0.11,0.18,0.21
29.023902893066406,0.33,-0.08,0.01,0.33
29.033823013305664,0.39,-0.09,-0.13,0.42
29.10719919204712,0.16,0.0,-0.35,0.38
29.107797145843506,0.05,0.05,-0.39,0.39
29.10930585861206,0.06,-0.04,0.0,0.07
29.110474109649658,0.12,-0.09,-0.12,0.19
29.111063957214355,0.03,0.01,-0.79,0.79
29.112263202667236,-0.21,0.14,-1.19,1.21
29.11344814300537,-0.28,0.13,-1.23,1.26
29.114042043685913,-0.13,0.02,-0.68,0.69
29.123724937438965,0.1,-0.01,0.01,0.1
29.13365411758423,0.29,0.05,-0.12,0.31
29.207247018814087,0.43,0.1,-0.44,0.62
29.207868099212646,0.4,0.14,-0.65,0.77
29.209412097930908,0.56,0.15,-0.59,0.82
29.210564136505127,1.06,0.14,-0.43,1.15
29.211148977279663,1.52,0.13,-0.23,1.54
29.212387084960938,1.8,0.16,0.39,1.84
29.213615894317627,2.18,0.22,0.88,2.36
29.214219093322754,2.16,0.46,-0.07,2.2
29.22359609603882,1.68,0.65,-0.5,1.86
29.233561038970947,1.33,0.57,-0.08,1.44
29.306797981262207,1.55,0.57,-0.25,1.67
29.307371139526367,2.05,0.43,-0.07,2.09
29.30891513824463,2.42,0.46,-0.44,2.5
29.310057163238525,2.41,0.69,-0.63,2.58
29.310637950897217,2.27,1.06,-0.72,2.6
29.31185007095337,1.95,1.54,-0.62,2.56
29.313068866729736,1.65,1.79,-0.19,2.44
29.313673973083496,1.51,2.02,0.14,2.52
29.323446035385132,1.86,2.35,-0.36,3.01
29.333250999450684,3.29,3.06,-0.62,4.53
29.407042026519775,3.73,3.39,-0.33,5.05
29.40773606300354,4.17,3.34,-0.7,5.38
29.40922498703003,4.05,3.62,-0.4,5.44
29.410367965698242,3.6,3.36,-0.26,4.93
29.410951137542725,3.31,3.35,-0.11,4.71
29.412129878997803,3.38,3.85,-0.23,5.12
29.413339138031006,3.96,4.51,-0.05,6.0
29.413923025131226,4.66,5.16,-0.15,6.95
29.423258066177368,4.68,5.54,-0.42,7.26
29.433224201202393,4.58,5.78,-0.05,7.37
29.506319046020508,4.36,5.78,-0.39,7.25
29.506895065307617,4.59,6.07,-0.86,7.65
29.50839900970459,5.89,6.71,-1.49,9.05
29.509541034698486,6.64,6.49,-2.7,9.66
29.51012396812439,6.57,6.11,-2.78,9.39
29.511303901672363,4.26,7.34,-1.57,8.63
29.512490034103394,-0.22,8.87,-1.24,8.95
29.51312804222107,-1.52,8.35,-4.37,9.54
29.52314305305481,1.57,5.66,-4.39,7.33
29.533184051513672,5.51,5.05,-2.16,7.77
29.6056010723114,9.12,4.57,-1.04,10.25
29.606217861175537,9.48,-0.43,-0.44,9.49
29.607359886169434,2.49,-3.82,0.22,4.56
29.608833074569702,-5.61,-3.81,-1.94,7.05
29.609416007995605,-5.27,-0.22,-5.24,7.43
29.61061191558838,3.67,0.24,-4.95,6.16
29.61179494857788,9.43,-1.38,-2.76,9.92
29.61294412612915,10.98,-1.8,-0.64,11.14
29.689635038375854,9.37,-2.28,0.71,9.66
29.69027304649353,6.72,-3.43,1.24,7.64
29.69086003303528,5.53,-5.41,1.86,7.95
29.691437005996704,6.16,-7.2,2.86,9.89
29.692604064941406,6.84,-6.29,3.2,9.82
29.693739891052246,6.57,-3.72,2.57,7.97
29.69432020187378,6.12,-2.64,1.83,6.91
29.695492029190063,5.61,-2.95,1.46,6.5
29.702847003936768,4.71,-2.99,1.6,5.8
29.712883949279785,3.69,-2.8,2.14,5.1
29.789001941680908,3.26,-2.58,2.73,4.97
29.789613008499146,4.0,-2.48,3.23,5.7
29.79019594192505,4.4,-1.98,3.47,5.94
29.790781021118164,3.61,-0.74,3.13,4.83
29.791987895965576,2.37,0.74,2.48,3.5
29.793171882629395,0.81,2.37,1.55,2.94
29.793755054473877,-0.66,3.93,-0.13,3.98
29.794965028762817,-2.09,5.67,-1.89,6.33
29.80268907546997,-3.58,7.84,-3.35,9.24
29.812790870666504,-6.25,10.25,-4.46,12.8
29.889849185943604,-9.85,11.34,-5.38,15.95
29.89090585708618,-12.71,10.38,-5.61,17.34
29.891507148742676,-13.7,7.76,-4.94,16.5
29.89209508895874,-13.12,4.65,-3.98,14.47
29.893299102783203,-11.5,1.87,-3.11,12.05
29.89444589614868,-10.63,-0.52,-1.97,10.82
29.89503288269043,-12.0,-1.64,-1.38,12.18
29.89621591567993,-13.58,-2.18,-1.97,13.89
29.905230045318604,-12.84,1.06,-2.49,13.12
29.91249418258667,-8.93,6.71,-3.42,11.68
29.98868989944458,-8.61,2.46,-3.91,9.77
29.989294052124023,-10.47,-0.61,-4.09,11.25
29.989890098571777,-6.71,0.74,-4.11,7.9
29.990478992462158,4.77,3.82,1.57,6.3
29.99167490005493,11.96,4.49,6.55,14.35
29.992840051651,6.94,2.04,2.63,7.69
29.993422031402588,-2.69,0.75,-0.9,2.93
29.994616985321045,-5.72,-0.43,-0.46,5.75
30.002233028411865,-4.56,-1.99,-0.43,4.99
30.01241898536682,-4.09,0.15,-1.86,4.49
30.089534044265747,-4.09,2.74,-1.79,5.23
30.090102195739746,-5.99,2.16,-1.64,6.57
30.09069585800171,-9.77,-0.28,-3.05,10.23
30.091290950775146,-9.69,2.64,-3.32,10.57
30.092509031295776,-6.31,3.16,-1.31,7.17
30.093657970428467,-3.86,-0.55,0.2,3.9
30.094248056411743,-2.44,-1.89,0.45,3.11
30.095449924468994,-1.57,-0.84,0.58,1.87
30.102133989334106,-1.36,0.31,1.02,1.72
