time,ax,ay,az,atotal
0.002435922622680664,-0.36,-0.37,-0.4,0.65
0.013071060180664062,-0.23,-0.16,-0.41,0.49
0.04987788200378418,0.37,-0.73,-0.51,0.96
0.051492929458618164,-0.59,0.43,0.83,1.1
0.05300188064575195,-0.5,0.81,0.17,0.96
0.06513786315917969,-0.18,0.03,0.02,0.18
0.06660699844360352,0.03,-0.01,0.2,0.2
0.08199501037597656,0.18,0.04,0.0,0.18
0.08349394798278809,0.26,-0.09,-0.04,0.27
0.09908103942871094,0.25,-0.11,-0.15,0.31
0.10112285614013672,0.04,-0.11,-0.2,0.23
0.11483383178710938,-0.07,-0.04,-0.19,0.2
0.14374780654907227,0.19,0.11,-0.11,0.24
0.14567279815673828,0.4,0.26,-0.01,0.47
0.14711284637451172,0.47,0.21,0.06,0.51
0.16585683822631836,0.34,0.07,0.08,0.35
0.16736984252929688,0.04,0.05,0.14,0.15
0.18220186233520508,-0.2,-0.01,0.1,0.22
0.18367791175842285,-0.23,-0.09,-0.04,0.25
0.19901800155639648,-0.1,-0.06,-0.08,0.14
0.200516939163208,0.08,-0.08,-0.15,0.18
0.2200937271118164,0.1,-0.08,-0.14,0.18
0.24466180801391602,-0.04,0.01,-0.09,0.09
0.24602794647216797,-0.19,0.03,-0.09,0.21
0.24698591232299805,-0.18,0.0,-0.08,0.19
0.26540493965148926,-0.14,0.06,-0.03,0.15
0.26685595512390137,-0.17,0.08,-0.06,0.19
0.2818460464477539,-0.16,0.03,-0.13,0.2
0.2832169532775879,-0.11,0.03,-0.13,0.17
0.2986948490142822,-0.04,0.04,-0.04,0.06
0.3001418113708496,-0.01,0.06,-0.09,0.1
0.31707286834716797,0.01,0.02,-0.1,0.1
0.34317588806152344,0.12,-0.03,-0.1,0.15
0.34488582611083984,0.17,-0.03,-0.18,0.24
0.34625887870788574,0.15,-0.05,-0.11,0.19
0.3668558597564697,0.23,-0.15,-0.12,0.29
0.36827802658081055,0.23,-0.22,-0.2,0.37
0.38090991973876953,0.12,-0.26,-0.22,0.36
0.3824019432067871,0.0,-0.35,-0.14,0.37
0.3988819122314453,-0.04,-0.43,-0.14,0.45
0.4002528190612793,-0.03,-0.53,-0.36,0.64
0.4187178611755371,0.24,-0.54,-0.54,0.8
0.4235038757324219,0.29,-0.47,-0.07,0.55
0.45125484466552734,0.12,-0.52,-0.17,0.56
0.4528827667236328,0.04,-0.63,0.12,0.64
0.45454978942871094,0.33,-0.72,0.52,0.94
0.4672679901123047,-0.03,-1.29,-0.37,1.34
0.46876096725463867,-0.15,-0.34,-0.12,0.39
0.48233985900878906,-0.17,-0.03,0.81,0.82
0.4884767532348633,-0.17,-0.38,0.55,0.68
0.49897193908691406,0.08,-1.02,-0.02,1.02
0.5087189674377441,0.06,-1.19,0.07,1.19
0.5209848880767822,0.54,-0.61,0.61,1.01
0.5484528541564941,0.45,-1.43,0.46,1.56
0.5502579212188721,0.51,-1.31,-0.66,1.55
0.5515928268432617,0.8,-1.46,0.91,1.89
0.5668849945068359,0.48,-1.14,2.65,2.92
0.5684537887573242,-0.17,0.22,1.29,1.31
0.5824580192565918,-0.67,2.64,-0.18,2.72
0.5877828598022461,-0.87,4.71,-1.45,5.0
0.5989627838134766,-1.1,5.39,-2.43,6.01
0.6077568531036377,-1.65,4.32,-2.51,5.26
0.6174888610839844,-1.52,1.35,-1.23,2.37
0.6454577445983887,-0.45,-0.65,0.21,0.81
0.6473350524902344,0.47,-1.39,1.12,1.84
0.6488199234008789,0.91,-1.53,1.48,2.31
0.6665098667144775,0.73,-1.05,1.17,1.73
0.6679959297180176,0.17,-0.26,0.24,0.39
0.6825919151306152,-0.26,0.36,-0.57,0.72
0.6869509220123291,-0.32,0.69,-0.62,0.98
0.6989049911499023,-0.11,0.43,-0.45,0.63
0.7073619365692139,0.2,-0.03,-0.21,0.29
0.718803882598877,0.46,-0.34,-0.09,0.57
0.7432680130004883,0.55,-0.29,-0.01,0.62
0.7451419830322266,0.47,-0.1,-0.13,0.49
0.7463638782501221,0.39,0.05,-0.38,0.54
0.7677507400512695,0.3,0.06,-0.45,0.54
0.7690720558166504,0.19,0.0,-0.32,0.37
0.7828249931335449,0.18,0.06,-0.36,0.4
0.7860939502716064,0.16,0.07,-0.3,0.34
0.7991328239440918,-0.13,0.04,0.09,0.16
0.806182861328125,-0.62,0.15,0.19,0.66
0.8162779808044434,-1.02,0.23,0.07,1.04
0.8513917922973633,-0.91,0.37,0.19,1.0
0.8533639907836914,-0.34,0.35,0.17,0.51
0.8547277450561523,0.22,0.17,0.18,0.33
0.8661518096923828,0.34,0.03,0.44,0.55
0.8676619529724121,0.07,-0.05,0.71,0.71
0.8826239109039307,-0.37,-0.22,0.74,0.85
0.8853950500488281,-0.61,-0.24,0.75,0.99
0.8969440460205078,-0.53,-0.13,0.65,0.84
0.9054250717163086,-0.42,-0.12,0.45,0.62
0.9151198863983154,-0.58,-0.2,0.36,0.71
0.9466829299926758,-0.65,-0.17,0.09,0.67
0.9484548568725586,-0.64,-0.08,-0.04,0.64
0.9499099254608154,-0.58,0.01,-0.07,0.58
0.9664208889007568,-0.42,0.02,-0.07,0.42
0.9677777290344238,-0.36,-0.2,-0.01,0.41
0.9810199737548828,-0.42,-0.27,0.14,0.51
0.9845318794250488,-0.41,-0.27,0.15,0.51
0.9987287521362305,-0.29,-0.24,0.23,0.44
1.004680871963501,-0.17,-0.22,0.33,0.43
1.0148277282714844,-0.29,-0.37,0.4,0.61
1.0494627952575684,-0.44,-0.43,0.55,0.82
1.0512537956237793,-0.29,-0.36,0.7,0.83
1.052703857421875,0.05,-0.44,0.63,0.77
1.0667099952697754,0.37,-0.46,0.32,0.67
1.0681898593902588,0.55,-0.15,0.06,0.57
1.0825788974761963,0.59,0.28,-0.11,0.66
1.0840420722961426,0.48,0.5,-0.45,0.82
1.0994467735290527,0.32,0.58,-0.51,0.83
1.1038448810577393,0.14,0.56,-0.39,0.69
1.118030071258545,0.14,0.5,-0.27,0.58
1.1433148384094238,0.16,0.28,-0.27,0.42
1.1450419425964355,0.04,0.05,-0.21,0.21
1.1465098857879639,-0.18,0.04,-0.12,0.22
1.1668000221252441,-0.44,0.11,-0.04,0.45
1.168287754058838,-0.63,0.18,0.02,0.65
1.1826999187469482,-0.52,0.13,-0.25,0.59
1.1841840744018555,-0.22,0.07,-0.46,0.51
1.1995530128479004,0.04,0.22,-0.3,0.37
1.2030057907104492,0.14,0.35,-0.16,0.4
1.2178678512573242,-0.1,0.24,-0.22,0.34
1.2234950065612793,-0.63,0.16,-0.27,0.7
1.2535369396209717,-1.14,0.37,-0.19,1.21
1.2551450729370117,-1.53,0.73,-0.05,1.69
1.2564518451690674,-1.88,0.96,-0.21,2.12
1.2664389610290527,-2.27,1.04,-0.48,2.54
1.2724299430847168,-2.61,1.36,-0.8,3.04
1.28233003616333,-2.92,1.63,-1.33,3.59
1.2923429012298584,-3.28,1.84,-1.44,4.02
1.302283763885498,-3.34,2.32,-1.38,4.29
1.312406063079834,-3.01,2.56,-1.64,4.27
1.3226499557495117,-2.33,2.75,-1.99,4.11
1.3497369289398193,-1.75,3.58,-2.43,4.66
1.3514719009399414,-1.79,5.41,-3.26,6.56
1.3524370193481445,-1.57,6.92,-4.37,8.33
1.3656959533691406,-1.52,7.77,-5.63,9.71
1.3717758655548096,-2.0,7.21,-6.55,9.94
1.3816490173339844,-2.87,6.69,-6.02,9.44
1.3915369510650635,-4.0,5.96,-4.09,8.26
1.4015707969665527,-4.53,4.06,-3.13,6.84
1.4114670753479004,-3.59,2.19,-3.3,5.34
1.4243829250335693,-1.63,3.26,-1.57,3.96
1.4482970237731934,-1.89,1.33,-0.58,2.38
1.44964599609375,-4.56,-1.24,-1.37,4.92
1.4508938789367676,-6.93,-1.25,-0.17,7.04
1.468031883239746,-8.38,-1.65,0.89,8.58
1.4709677696228027,-8.31,-2.8,1.79,8.94
1.4820818901062012,-6.91,-3.81,2.6,8.3
1.4908738136291504,-5.81,-4.81,2.53,7.95
1.5011248588562012,-5.63,-5.52,2.4,8.24
1.5106408596038818,-5.51,-5.72,3.19,8.55
1.5232088565826416,-4.83,-5.9,4.59,8.89
1.5462779998779297,-3.77,-6.18,5.49,9.08
1.5480809211730957,-2.27,-6.41,5.82,8.95
1.5503299236297607,-0.64,-6.82,5.35,8.69
1.5668509006500244,0.88,-6.96,3.95,8.05
1.5701658725738525,2.76,-6.73,2.54,7.7
1.58091402053833,4.92,-6.71,0.94,8.37
1.5901329517364502,6.98,-7.84,-1.48,10.6
1.6000547409057617,9.94,-8.93,-3.07,13.71
1.6103839874267578,14.26,-9.01,-0.7,16.88
1.622499942779541,18.37,-10.11,3.02,21.18
1.65016508102417,19.58,-11.99,4.81,23.45
1.6521058082580566,17.34,-13.27,6.58,22.8
1.6536059379577637,10.7,-11.61,6.41,17.04
1.6674878597259521,5.86,-8.88,5.14,11.81
1.6694109439849854,4.03,-7.29,2.6,8.72
1.682891845703125,9.31,-5.83,3.32,11.47
1.6894469261169434,9.81,-7.09,5.44,13.27
1.699549913406372,-0.04,-3.74,4.51,5.85
1.7092769145965576,-4.42,0.65,4.16,6.1
1.7192559242248535,-2.94,3.34,4.08,6.03
1.755530834197998,-1.6,5.35,-0.98,5.66
1.7573668956756592,-1.99,9.47,-3.3,10.22
1.7588658332824707,-3.63,12.96,-3.79,13.98
1.7653999328613281,-5.87,14.72,-5.14,16.65
1.768704891204834,-7.13,11.92,-6.47,15.32
1.7812280654907227,-8.16,4.46,-4.38,10.27
1.7887568473815918,-7.14,-0.08,-0.29,7.14
1.7996840476989746,-3.25,-0.65,0.83,3.41
1.809225082397461,-0.45,-0.98,0.0,1.07
1.8208999633789062,1.83,-1.99,-0.97,2.87
1.8542659282684326,1.64,0.04,-2.06,2.63
1.8561408519744873,-0.85,2.96,-1.94,3.63
1.8577008247375488,-3.15,5.44,0.45,6.3
1.8669757843017578,-4.6,6.76,2.1,8.44
1.8684699535369873,-4.93,3.77,1.1,6.3
1.883059024810791,-3.58,0.38,0.66,3.66
1.8878979682922363,-1.16,0.77,1.55,2.08
1.8978137969970703,0.37,0.82,0.83,1.22
1.9078187942504883,-0.02,0.38,-0.1,0.39
1.9178590774536133,-1.48,1.01,-0.6,1.88
1.9493019580841064,-2.72,1.69,-1.0,3.35
1.951098918914795,-2.48,1.67,-2.12,3.66
1.9525437355041504,-1.9,1.37,-3.06,3.85
1.9674339294433594,-2.29,1.43,-2.48,3.66
1.968930959701538,-3.01,1.58,-1.64,3.77
1.9831228256225586,-3.11,1.2,-1.81,3.79
1.987287998199463,-2.71,0.85,-1.91,3.42
1.9994919300079346,-2.25,0.9,-1.68,2.94
2.0069339275360107,-2.0,1.04,-1.31,2.6
2.0195648670196533,-2.09,1.44,-0.83,2.67
2.0299489498138428,-2.24,2.12,-0.32,3.1
2.0560050010681152,-2.32,2.63,-0.29,3.51
2.0577049255371094,-2.91,3.24,0.38,4.37
2.059034824371338,-4.27,7.48,3.23,9.19
2.0662918090820312,-5.84,11.54,2.35,13.14
2.076389789581299,-6.89,8.36,-1.02,10.88
2.086336851119995,-8.16,9.92,-1.78,12.96
2.096550941467285,-8.9,11.28,-3.89,14.88
2.107179880142212,-8.98,11.38,-6.61,15.93
2.116931915283203,-8.73,11.74,-7.51,16.44
2.1260218620300293,-8.1,12.61,-5.83,16.08
2.152817726135254,-8.2,14.41,-4.0,17.05
2.154478073120117,-8.7,15.46,-4.15,18.21
2.156183958053589,-7.74,15.31,-4.42,17.71
2.166581869125366,-5.68,13.09,-4.65,15.0
2.1760659217834473,-3.63,10.55,-4.74,12.12
2.1856160163879395,-3.5,7.09,-4.07,8.89
2.195831775665283,-4.6,2.94,-3.62,6.55
2.205399990081787,-2.32,4.51,-0.83,5.13
2.2156620025634766,-1.12,2.52,1.45,3.11
2.2257039546966553,-4.24,0.24,-0.73,4.3
2.254696846008301,-7.11,2.35,0.27,7.49
2.2564029693603516,-8.52,1.76,-0.02,8.69
2.258030891418457,-7.83,-1.44,-0.84,8.0
2.2646589279174805,-5.41,-3.29,0.18,6.33
2.275122880935669,-4.15,-4.65,1.46,6.4
2.284998893737793,-4.33,-5.91,2.02,7.59
2.294970989227295,-4.83,-6.56,2.29,8.46
2.3046278953552246,-5.13,-6.85,2.33,8.86
2.3147189617156982,-5.09,-6.86,1.93,8.75
2.324512004852295,-4.63,-6.52,1.15,8.07
2.354954957962036,-4.24,-5.8,0.51,7.2
2.3567399978637695,-4.56,-5.56,0.21,7.19
2.358102798461914,-5.1,-5.9,0.19,7.8
2.364332914352417,-5.29,-6.5,0.33,8.38
2.374358892440796,-5.19,-7.1,0.55,8.81
2.384176731109619,-5.21,-7.59,0.81,9.24
2.3941359519958496,-5.25,-7.99,1.02,9.61
2.4039077758789062,-5.28,-8.15,1.32,9.8
2.414130926132202,-5.13,-8.2,1.74,9.82
2.4238619804382324,-4.32,-8.36,2.0,9.62
2.4641218185424805,-2.68,-8.37,2.22,9.06
2.4659008979797363,-0.37,-7.9,2.09,8.18
2.4673409461975098,2.41,-7.02,1.2,7.51
2.4840407371520996,5.13,-6.1,-0.23,7.97
2.4855008125305176,7.91,-5.59,-1.85,9.86
2.4996657371520996,10.59,-4.75,-2.56,11.88
2.501126766204834,13.16,-3.68,-1.85,13.78
2.5166099071502686,15.61,-3.22,0.08,15.93
2.5180819034576416,17.03,-4.0,1.77,17.58
2.536090850830078,16.9,-4.72,2.36,17.7
2.565398931503296,14.85,-3.4,2.18,15.38
2.5672359466552734,12.73,-1.45,0.94,12.84
2.5686049461364746,12.49,0.28,-0.98,12.53
2.584001064300537,12.59,1.56,-2.35,12.9
2.585500955581665,12.67,2.74,-2.92,13.28
2.598296880722046,12.17,5.17,-2.39,13.43
2.5997447967529297,7.25,12.95,-1.37,14.9
2.6166138648986816,-0.03,11.82,-5.4,12.99
2.618170738220215,-4.24,18.45,-2.49,19.09
2.6298868656158447,-3.19,34.14,2.13,34.35
2.654202938079834,-4.27,26.47,-7.92,27.95
2.6556038856506348,-7.11,5.63,-15.25,17.74
2.656730890274048,-5.49,1.59,-2.08,6.08
2.666306972503662,0.08,1.75,7.3,7.5
2.672095775604248,4.57,-1.97,7.84,9.28
2.683155059814453,5.36,-7.83,4.48,10.49
2.692046880722046,5.65,-9.0,2.05,10.82
2.701704978942871,5.51,-5.34,-0.34,7.68
2.7118918895721436,3.37,-0.01,-1.97,3.9
2.721579074859619,1.22,3.11,-3.04,4.51
2.7609987258911133,-0.27,3.77,-2.91,4.77
2.7628097534179688,-0.78,2.36,-0.66,2.57
2.764206886291504,0.03,-0.01,2.01,2.01
2.784289836883545,0.94,-1.73,3.24,3.79
2.7858028411865234,1.34,-1.95,2.94,3.77
2.8001489639282227,1.08,-0.94,1.22,1.88
2.801609992980957,0.58,0.32,-0.66,0.93
2.817009925842285,0.09,0.82,-1.88,2.05
2.818467855453491,-0.25,0.69,-1.93,2.06
2.835905075073242,0.01,0.32,-1.06,1.1
2.8384079933166504,0.44,-0.09,-0.19,0.48
2.874666929244995,0.4,-0.19,0.41,0.6
2.8758418560028076,0.03,-0.07,0.65,0.65
2.8769760131835938,-0.23,0.13,0.64,0.69
2.8794307708740234,-0.26,0.07,0.11,0.29
2.9010138511657715,-0.24,0.09,-0.11,0.27
2.9024829864501953,-0.33,0.17,-0.09,0.38
2.917171001434326,-0.3,0.08,-0.21,0.37
2.9186179637908936,-0.05,0.03,-0.43,0.43
2.932353973388672,0.23,-0.01,-0.5,0.55
2.933835029602051,0.31,0.01,-0.15,0.34
2.9789037704467773,0.32,-0.02,0.28,0.42
2.9803128242492676,0.24,-0.1,0.53,0.59
2.9812989234924316,0.04,-0.02,0.31,0.31
3.000678062438965,-0.36,0.26,-0.23,0.5
3.00216007232666,-1.03,0.64,-0.13,1.21
3.016720771789551,-1.74,0.79,-0.14,1.91
3.0181989669799805,-2.14,0.6,-0.28,2.24
3.0334830284118652,-2.16,0.45,-0.3,2.22
3.034945011138916,-1.84,0.43,-0.36,1.92
3.052487850189209,-1.27,0.45,-0.63,1.48
3.087188959121704,-0.91,0.5,-1.05,1.47
3.0886077880859375,-0.88,0.58,-1.28,1.65
3.0896267890930176,-1.05,0.65,-0.95,1.55
3.100787878036499,-1.34,0.48,-0.44,1.48
3.1018548011779785,-1.39,0.39,0.09,1.44
3.11688494682312,-1.06,0.53,0.34,1.23
3.1183958053588867,-0.79,0.71,0.21,1.08
3.1338188648223877,-0.97,0.84,0.09,1.28
3.135279893875122,-1.45,1.02,0.04,1.77
3.1487979888916016,-1.85,1.43,-0.2,2.34
3.1724929809570312,-2.28,2.1,-0.1,3.1
3.173820972442627,-2.09,2.43,-0.26,3.21
3.174938917160034,-1.51,2.51,-0.61,2.99
3.179919958114624,-1.04,2.82,-0.79,3.1
3.180968761444092,-1.25,2.85,-0.11,3.11
3.2000088691711426,-2.35,3.17,0.56,3.98
3.201550006866455,-3.47,3.65,0.67,5.08
3.2171998023986816,-4.53,5.01,0.77,6.79
3.218852996826172,-5.65,6.59,-0.2,8.68
3.2326250076293945,-6.69,7.53,-1.92,10.25
3.260869026184082,-7.85,8.62,-2.74,11.97
3.2623958587646484,-8.89,9.89,-3.22,13.68
3.2634339332580566,-9.72,10.37,-4.28,14.84
3.2838988304138184,-10.04,10.46,-4.75,15.25
3.285371780395508,-10.18,10.14,-4.83,15.15
3.300330877304077,-10.83,9.29,-3.75,14.75
3.301858901977539,-11.47,10.25,-2.07,15.52
3.317126750946045,-10.75,13.82,-0.62,17.51
3.318598747253418,-7.57,15.23,-2.65,17.21
3.3328769207000732,-2.13,14.02,-7.24,15.92
3.362205982208252,1.1,11.12,-7.17,13.27
3.3637259006500244,0.17,5.23,-6.01,7.96
3.364729881286621,-3.45,-0.58,-5.03,6.12
3.383786916732788,-2.4,-0.16,-3.74,4.44
3.3852667808532715,2.36,0.8,1.54,2.92
3.400244951248169,1.68,-3.45,1.3,4.05
3.401733875274658,-3.1,-4.34,-3.33,6.28
3.417235851287842,-6.25,-2.53,-0.64,6.77
3.418735980987549,-8.42,-1.74,0.4,8.6
3.4389848709106445,-10.74,-2.24,-0.81,11.0
3.4632997512817383,-12.04,-2.6,-0.52,12.32
3.464845895767212,-11.77,-3.3,0.86,12.25
3.465825080871582,-9.77,-4.29,2.45,10.94
3.483750820159912,-7.63,-5.3,3.06,9.78
3.485222816467285,-6.27,-5.81,2.88,9.02
3.500365734100342,-5.53,-5.45,2.47,8.14
3.501873016357422,-5.22,-4.65,1.78,7.21
3.516942024230957,-5.06,-4.25,0.72,6.64
3.518454074859619,-4.79,-3.89,-0.3,6.17
3.532528877258301,-4.4,-3.69,-1.1,5.84
3.560760021209717,-4.06,-3.71,-1.58,5.72
3.562419891357422,-3.85,-3.91,-1.73,5.75
3.563441753387451,-3.6,-4.55,-1.57,6.01
3.584444046020508,-2.97,-5.23,-1.05,6.1
3.5858850479125977,-2.0,-6.06,-0.69,6.41
3.600721836090088,-1.14,-6.99,-0.51,7.1
3.602200984954834,-0.59,-7.55,-0.24,7.57
3.616903781890869,-0.3,-7.34,0.33,7.35
3.6183838844299316,0.02,-6.2,0.93,6.26
3.633175849914551,0.92,-4.78,0.77,4.92
3.6355278491973877,2.33,-3.29,0.35,4.04
3.676740884780884,4.16,-1.69,0.33,4.5
3.6778879165649414,6.5,0.07,0.3,6.5
3.6788430213928223,9.04,2.29,0.82,9.36
3.6811227798461914,11.32,4.33,1.0,12.16
3.684138774871826,13.43,5.52,0.71,14.53
3.6943979263305664,15.22,6.16,0.31,16.42
3.7045068740844727,16.55,6.7,-0.32,17.85
3.7143759727478027,17.93,7.33,-1.02,19.39
3.7245378494262695,19.53,7.48,-1.01,20.93
3.7341649532318115,21.1,6.74,-0.05,22.15
3.762171745300293,21.43,5.12,1.28,22.07
3.7633590698242188,17.58,7.82,2.13,19.35
3.764369010925293,10.93,8.36,0.22,13.76
3.7841200828552246,0.73,-4.27,-4.61,6.32
3.7856059074401855,-9.69,1.8,-7.68,12.49
3.800107002258301,-13.03,24.95,-3.55,28.37
3.803593873977661,-9.93,35.07,7.19,37.15
3.8170809745788574,-8.76,20.67,-2.11,22.54
3.823387861251831,-4.13,2.96,-2.41,5.62
3.8331539630889893,2.38,-2.29,3.04,4.48
3.862020969390869,6.97,-3.89,3.15,8.58
3.863368034362793,8.27,-8.32,1.5,11.82
3.864377975463867,9.45,-9.49,-0.96,13.42
3.883992910385132,10.06,-6.28,-0.89,11.89
3.885502815246582,8.22,-0.55,-0.52,8.25
3.900383949279785,4.6,1.86,-1.72,5.25
3.902750015258789,1.17,2.5,-2.18,3.51
3.917081832885742,-1.15,2.88,-1.16,3.31
3.9226927757263184,-2.16,2.06,0.39,3.01
3.9324328899383545,-1.35,0.25,1.92,2.36
3.9636597633361816,0.2,-1.49,1.95,2.46
3.9651098251342773,1.19,-1.96,1.4,2.68
3.9660708904266357,0.94,-1.17,0.54,1.59
3.984320878982544,0.27,-0.1,-0.55,0.62
3.9858198165893555,0.03,0.52,-1.21,1.31
4.00049090385437,0.12,0.61,-0.88,1.07
4.00197696685791,0.3,0.22,0.05,0.37
4.016934871673584,0.58,-0.2,0.39,0.72
4.021930932998657,0.74,-0.36,0.25,0.86
4.032676935195923,0.63,-0.17,0.14,0.66
4.071392059326172,0.39,0.03,0.12,0.4
4.072783946990967,0.13,0.1,0.23,0.28
4.073802947998047,-0.13,0.12,0.29,0.33
4.084292888641357,-0.36,0.15,0.23,0.45
4.085830926895142,-0.55,0.16,-0.04,0.57
4.100813865661621,-0.88,0.16,-0.31,0.94
4.10221791267395,-1.03,0.25,-0.46,1.15
4.117258071899414,-0.7,0.3,-0.63,0.98
4.1211700439453125,-0.17,0.23,-0.58,0.64
4.132585048675537,0.06,0.12,-0.3,0.32
4.16799783706665,-0.2,0.07,0.12,0.24
4.16932487487793,-0.73,0.16,0.25,0.78
4.170398950576782,-1.33,0.41,0.14,1.39
4.184529781341553,-1.76,0.63,-0.49,1.93
4.18600606918335,-1.82,0.61,-1.18,2.25
4.200654983520508,-1.88,0.65,-1.21,2.32
4.2020978927612305,-1.98,0.8,-0.94,2.33
4.217191934585571,-1.84,0.75,-0.91,2.18
4.220301866531372,-1.48,0.73,-0.78,1.82
4.232464790344238,-1.3,0.7,-0.67,1.62
4.26667594909668,-1.33,0.55,-0.66,1.58
4.267993927001953,-1.46,0.58,-0.44,1.63
4.269024848937988,-1.5,0.94,-0.28,1.79
4.284693956375122,-1.24,1.48,-0.22,1.94
4.286162853240967,-0.99,1.83,-0.4,2.11
4.300603866577148,-1.2,2.01,-0.63,2.42
4.302090883255005,-2.02,2.75,-0.41,3.43
4.317710876464844,-2.54,3.47,-0.65,4.34
4.3196330070495605,-2.91,3.72,-1.19,4.87
4.3327789306640625,-3.42,3.84,-1.19,5.27
4.363913059234619,-3.82,4.45,-1.19,5.98
4.365203857421875,-4.25,5.15,-1.44,6.83
4.366219997406006,-5.0,6.35,-1.1,8.15
4.384561061859131,-6.34,9.16,-0.48,11.15
4.386030912399292,-8.07,11.74,-1.5,14.32
4.399334907531738,-9.88,12.76,-3.41,16.49
4.400795936584473,-11.6,13.81,-3.78,18.42
4.414446830749512,-13.13,14.17,-5.16,19.99
4.41904091835022,-13.63,12.85,-6.87,19.95
4.43078088760376,-13.66,10.64,-8.66,19.35
4.4387078285217285,-12.96,10.3,-8.02,18.39
4.481750011444092,-9.96,13.93,-4.74,17.76
4.483357906341553,-5.38,15.84,-4.81,17.4
4.484462738037109,-2.0,11.7,-8.05,14.34
4.5014238357543945,-1.85,5.35,-8.45,10.17
4.5029168128967285,-3.72,-0.53,-6.65,7.63
4.517353057861328,-2.65,-1.94,-4.27,5.38
4.518822908401489,2.06,-0.62,1.67,2.72
4.534157752990723,2.93,-5.45,3.77,7.24
4.535655975341797,-1.12,-8.72,-1.84,8.98
4.549461841583252,-5.56,-7.99,-1.33,9.82
4.577548980712891,-8.31,-5.71,1.23,10.15
4.579012870788574,-9.72,-4.65,0.57,10.79
4.580047845840454,-10.66,-4.37,-0.52,11.53
4.582252025604248,-10.85,-4.04,-0.67,11.59
4.587512016296387,-9.47,-4.08,0.53,10.32
4.597867965698242,-7.89,-4.97,1.6,9.46
4.60766077041626,-6.95,-5.8,2.69,9.44
4.617828845977783,-6.47,-6.2,3.46,9.6
4.627352952957153,-6.11,-6.11,3.46,9.3
4.637392997741699,-5.57,-5.56,3.05,8.44
4.666602849960327,-5.06,-4.76,2.3,7.31
4.6678900718688965,-4.75,-3.85,1.56,6.31
4.668900012969971,-4.64,-3.11,0.86,5.65
4.684683799743652,-4.42,-2.56,0.24,5.11
4.686693906784058,-3.8,-2.31,-0.15,4.44
4.701884746551514,-2.87,-2.45,-0.18,3.77
4.706782817840576,-1.67,-2.94,0.0,3.38
4.716758728027344,-0.56,-3.21,0.35,3.27
4.726617813110352,0.4,-3.02,0.59,3.1
4.736670017242432,1.36,-2.4,0.72,2.85
4.767398834228516,2.57,-1.49,0.29,2.98
4.768723964691162,4.06,-0.77,-0.03,4.13
4.769753932952881,5.79,-0.16,-0.1,5.79
4.784592866897583,7.64,0.47,0.29,7.65
4.785833835601807,9.14,1.36,1.0,9.29
4.800811767578125,9.67,2.26,1.31,10.01
4.806143760681152,9.23,2.92,1.37,9.77
4.8173418045043945,9.18,3.63,1.07,9.92
4.826070785522461,10.38,4.26,0.16,11.22
4.836012840270996,12.06,5.09,-0.74,13.11
4.874501943588257,13.95,5.99,-1.18,15.22
4.875828742980957,15.77,6.12,-2.11,17.04
4.876852989196777,17.66,5.94,-2.27,18.76
4.880377769470215,19.87,4.92,-0.88,20.48
4.900896072387695,21.49,2.94,1.04,21.71
4.902368068695068,20.13,5.95,3.58,21.29
4.917235851287842,13.53,2.89,-0.17,13.83
4.918720960617065,0.93,-5.81,-3.85,7.03
4.9332380294799805,-10.37,3.48,-6.38,12.66
4.93485689163208,-13.02,26.7,-5.14,30.14
4.975672960281372,-10.16,38.46,3.55,39.93
4.976894855499268,-8.18,19.8,-8.7,23.12
4.978116989135742,-3.34,0.2,-5.16,6.14
4.980629920959473,2.27,-5.21,2.49,6.2
5.001252889633179,6.6,-8.12,2.93,10.86
5.0027079582214355,9.22,-11.61,1.05,14.86
5.017760753631592,11.74,-10.56,2.62,16.0
5.01925802230835,11.73,-4.8,3.51,13.15
5.033166885375977,8.47,-0.35,1.46,8.6
5.034610748291016,3.65,1.16,-0.96,3.94
5.075777053833008,-0.14,2.81,-1.66,3.26
5.076972007751465,-2.73,3.66,-1.69,4.86
5.078182935714722,-3.63,2.66,-0.62,4.54
5.080179929733276,-1.69,0.22,0.72,1.85
5.100794792175293,1.24,-1.54,0.96,2.19
5.1018500328063965,2.87,-2.07,1.28,3.76
5.117696762084961,2.33,-1.73,0.64,2.97
5.119174003601074,0.73,-0.5,-0.45,0.99
5.13329291343689,-0.22,0.63,-1.04,1.23
5.134767055511475,-0.03,0.8,-0.92,1.21
5.175868988037109,0.65,0.23,-0.06,0.69
5.177095890045166,0.83,-0.34,0.67,1.11
5.178318023681641,0.53,-0.4,0.96,1.16
5.180346965789795,0.17,-0.14,0.73,0.76
5.200747013092041,-0.06,0.1,0.37,0.38
5.201823949813843,-0.16,0.21,0.14,0.29
5.2170820236206055,-0.28,0.06,-0.19,0.34
5.218509912490845,-0.43,0.05,-0.44,0.61
5.233757019042969,-0.53,0.13,-0.7,0.88
5.235205888748169,-0.66,0.3,-0.46,0.85
5.249608039855957,-0.82,0.36,0.02,0.89
5.2783448696136475,-0.54,0.24,0.18,0.61
5.279728889465332,-0.04,0.14,0.29,0.32
5.280716896057129,0.16,0.13,0.26,0.33
5.301267862319946,-0.04,0.11,0.24,0.26
5.302258014678955,-0.34,0.26,0.26,0.5
5.3168909549713135,-0.72,0.33,0.07,0.79
5.318378925323486,-1.12,0.41,-0.31,1.23
5.334776878356934,-1.31,0.48,-0.71,1.56
5.336255073547363,-1.33,0.58,-0.87,1.69
5.34991979598999,-1.37,0.67,-0.72,1.68
5.378323078155518,-1.59,0.57,-0.74,1.84
5.379642963409424,-1.92,0.49,-0.76,2.12
5.380668878555298,-2.32,0.65,-0.46,2.45
5.401726961135864,-2.43,0.91,-0.45,2.63
5.4031898975372314,-2.11,1.02,-0.75,2.46
5.4179277420043945,-1.41,1.15,-0.74,1.96
5.419390916824341,-0.73,1.16,-0.38,1.42
5.434583902359009,-0.51,0.99,-0.25,1.14
5.436060905456543,-0.68,0.92,-0.24,1.16
5.450047016143799,-1.1,1.26,-0.41,1.72
5.478559970855713,-1.59,1.94,-0.4,2.54
5.479959964752197,-1.64,2.49,-0.8,3.08
5.480931758880615,-1.65,3.29,-0.7,3.74
5.5016608238220215,-1.67,3.52,-0.48,3.92
5.503149032592773,-2.16,3.64,-0.19,4.23
5.517899990081787,-2.9,3.7,-0.16,4.7
5.519376754760742,-3.58,4.09,-0.01,5.43
5.534969806671143,-4.24,5.22,0.31,6.73
5.5364298820495605,-5.42,7.23,0.65,9.05
5.550083875656128,-7.08,9.49,-0.34,11.84
5.578947067260742,-8.78,10.39,-2.52,13.83
5.580261945724487,-10.48,11.31,-3.47,15.8
5.581254959106445,-11.81,12.23,-4.12,17.49
5.601197957992554,-12.31,12.17,-4.52,17.89
5.6022539138793945,-12.59,11.17,-5.11,17.58
5.617856025695801,-12.57,10.86,-5.43,17.47
5.6193249225616455,-10.72,13.1,-3.73,17.33
5.633443832397461,-5.51,15.54,-4.5,17.09
5.634884834289551,0.22,15.13,-7.16,16.74
5.649925947189331,2.04,10.79,-6.33,12.67
5.678456783294678,-0.22,3.93,-6.18,7.32
5.679825782775879,-4.07,-1.02,-4.46,6.12
5.6807990074157715,-2.54,-0.21,-3.19,4.08
5.702194929122925,3.03,0.92,2.2,3.85
5.7032790184021,2.8,-3.37,1.41,4.6
5.7179179191589355,-2.24,-3.94,-2.89,5.37
5.719398021697998,-6.49,-2.64,-0.34,7.01
5.734540939331055,-9.1,-2.18,0.62,9.37
5.736025810241699,-11.64,-2.74,-1.05,12.0
5.75026798248291,-13.48,-3.39,-1.49,13.97
5.779822826385498,-13.86,-3.91,-0.4,14.4
5.7811479568481445,-12.07,-4.48,1.82,13.0
5.782159805297852,-9.3,-5.44,3.32,11.27
5.801444053649902,-7.35,-6.21,3.61,10.27
5.802486896514893,-6.38,-6.39,3.45,9.66
5.817757844924927,-5.93,-5.81,2.72,8.73
5.8192338943481445,-5.85,-5.11,1.84,7.98
5.834559917449951,-5.97,-4.62,0.94,7.6
5.836021900177002,-5.89,-4.17,0.09,7.21
5.850093841552734,-5.56,-3.77,-0.69,6.75
5.878732919692993,-5.09,-3.54,-1.37,6.34
5.880148887634277,-4.57,-3.61,-1.68,6.06
5.881162881851196,-3.77,-3.93,-1.48,5.64
5.901895999908447,-2.67,-4.49,-1.23,5.36
5.902988910675049,-1.52,-5.16,-1.0,5.47
5.917472839355469,-0.58,-5.37,-0.56,5.43
5.91882586479187,-0.14,-4.78,0.09,4.78
5.934934854507446,0.16,-3.71,0.2,3.71
5.9364237785339355,1.27,-2.64,-0.32,2.94
5.950256824493408,2.74,-1.58,-0.63,3.22
5.980017900466919,4.01,0.13,-0.19,4.01
5.981838941574097,5.42,2.86,0.77,6.17
5.982846736907959,7.71,5.71,1.33,9.68
6.001605987548828,10.34,7.55,1.09,12.84
6.002691745758057,12.77,8.94,0.36,15.59
6.016648769378662,15.04,10.26,-0.71,18.22
6.018157005310059,17.5,10.68,-1.93,20.59
6.035008907318115,20.15,9.87,-2.99,22.63
6.036458969116211,22.68,8.21,-2.79,24.28
6.049558877944946,23.83,8.18,-0.83,25.2
6.0510618686676025,22.72,10.53,0.29,25.04
6.098553895950317,19.88,4.48,-3.92,20.75
6.099748849868774,6.82,-2.49,-5.23,8.94
6.100769996643066,-6.6,9.02,-3.03,11.58
6.118815898895264,-7.09,31.47,4.2,32.53
6.119919776916504,-4.54,29.66,3.31,30.18
6.134705066680908,-4.48,4.98,-7.49,10.04
6.136096000671387,-0.09,-3.89,-1.73,4.25
6.151421070098877,6.13,-3.23,2.63,7.41
6.152886867523193,9.46,-7.6,3.55,12.64
6.166956901550293,11.71,-9.17,2.79,15.13
6.197948932647705,10.6,-4.28,3.12,11.84
6.199302911758423,6.25,-1.24,1.38,6.51
6.200314998626709,2.42,-0.59,-1.04,2.69
6.218106746673584,-0.31,1.67,-2.57,3.08
6.219157934188843,-2.11,3.79,-2.4,4.95
6.23491907119751,-2.91,3.43,-1.32,4.68
6.236394882202148,-1.81,0.85,0.01,1.99
6.251298904418945,0.25,-1.44,0.7,1.62
6.252744913101196,1.73,-2.28,1.27,3.13
6.267070770263672,1.65,-1.65,1.18,2.61
6.297417879104614,0.8,-0.47,0.09,0.93
6.298719882965088,0.01,0.37,-0.79,0.87
6.299716949462891,-0.18,0.82,-0.87,1.2
6.31828498840332,0.79,0.32,-0.12,0.86
6.319373846054077,1.68,-0.32,1.07,2.01
6.334869861602783,1.77,-0.7,1.63,2.5
6.3363189697265625,1.26,-0.8,1.08,1.84
6.35145378112793,0.59,-0.29,0.01,0.65
6.352934837341309,0.09,0.42,-0.53,0.68
6.366926908493042,-0.07,0.5,-0.25,0.56
6.396120071411133,-0.06,0.32,0.58,0.66
6.397496938705444,0.06,-0.09,0.55,0.56
6.3985137939453125,0.13,-0.25,-0.15,0.31
6.418444871902466,0.24,-0.03,-0.52,0.57
6.419475078582764,0.11,0.2,-0.27,0.35
6.434672832489014,-0.35,0.46,0.33,0.66
6.4359917640686035,-0.82,0.55,0.51,1.11
6.449452877044678,-1.08,0.53,0.24,1.22
6.450870037078857,-1.11,0.57,-0.2,1.26
6.464420795440674,-1.31,0.63,-0.49,1.53
6.492218017578125,-1.72,0.7,-0.76,2.0
6.494133949279785,-1.99,0.67,-0.98,2.31
6.495165824890137,-1.98,0.58,-0.92,2.25
6.497034072875977,-1.94,0.54,-0.86,2.18
6.515133857727051,-1.84,0.53,-0.89,2.11
6.51613187789917,-1.74,0.52,-1.06,2.1
6.531661033630371,-1.66,0.66,-0.92,2.0
6.533061981201172,-1.59,0.84,-0.78,1.96
6.5504469871521,-1.42,1.2,-0.22,1.87
6.55190896987915,-1.12,1.54,0.03,1.9
6.596471786499023,-1.18,1.84,0.23,2.19
6.597665786743164,-1.45,2.07,0.12,2.53
6.598697900772095,-2.07,2.54,-0.02,3.27
6.618498802185059,-2.4,2.91,-0.27,3.78
6.6195068359375,-2.45,3.26,-0.42,4.09
6.634799003601074,-2.37,3.45,-0.78,4.25
6.636250972747803,-2.38,3.5,-1.12,4.37
6.651362895965576,-2.66,3.72,-1.03,4.68
6.652854919433594,-3.28,4.05,-0.82,5.27
6.668178081512451,-4.31,5.04,-0.37,6.64
6.700163841247559,-5.72,6.98,0.32,9.03
6.701488018035889,-7.47,9.54,0.05,12.11
6.702497959136963,-9.16,11.17,-2.12,14.6
6.716547966003418,-10.8,11.94,-3.93,16.57
6.717568874359131,-12.11,12.49,-4.37,17.93
6.735276937484741,-12.95,11.99,-4.57,18.23
6.736950874328613,-13.64,10.91,-5.07,18.18
6.7505669593811035,-13.56,12.1,-4.25,18.66
6.752119064331055,-9.99,15.16,-3.26,18.44
6.767377853393555,-3.2,15.56,-7.4,17.52
6.798598766326904,1.82,13.82,-8.58,16.36
6.799936771392822,2.28,9.43,-6.43,11.63
6.800914764404297,-1.79,2.89,-4.9,5.96
6.818629741668701,-4.87,-1.81,-3.36,6.18
6.819707870483398,-1.05,-0.38,-2.69,2.91
6.834819793701172,4.3,-1.0,2.87,5.26
6.8358588218688965,2.35,-4.52,-0.68,5.13
6.851471900939941,-3.44,-3.54,-2.67,5.61
6.852911949157715,-7.46,-2.23,0.2,7.78
6.867318868637085,-9.94,-2.23,-0.15,10.18
6.86872673034668,-12.27,-2.69,-1.71,12.67
6.913573741912842,-13.46,-3.15,-1.82,13.94
6.9147789478302,-12.7,-3.72,-0.78,13.25
6.915792942047119,-9.95,-4.04,1.18,10.8
6.935410022735596,-7.36,-4.84,2.42,9.13
6.936431884765625,-5.91,-5.84,2.9,8.8
6.951450824737549,-5.41,-6.25,3.16,8.84
6.952952861785889,-5.44,-5.94,2.87,8.55
6.968663930892944,-5.45,-5.33,2.28,7.95
6.970116853713989,-5.32,-4.52,1.42,7.12
6.983845949172974,-5.19,-3.68,0.53,6.38
7.016750812530518,-5.15,-3.1,-0.23,6.01
7.0185089111328125,-5.04,-2.96,-1.18,5.96
7.019515037536621,-4.59,-3.02,-1.84,5.79
7.036346912384033,-3.52,-3.31,-2.04,5.24
7.037797927856445,-1.97,-3.78,-1.48,4.51
7.0518479347229,-0.29,-4.09,-0.33,4.11
7.053323745727539,1.14,-4.2,0.05,4.35
7.068683862686157,2.31,-4.05,-0.59,4.69
7.070150852203369,3.35,-3.22,-1.19,4.79
7.084064960479736,4.44,-1.77,-1.17,4.92
7.116556882858276,5.79,-0.41,-0.16,5.8
7.1179327964782715,7.42,0.99,1.5,7.63
7.11893892288208,9.02,2.14,3.06,9.76
7.135737895965576,10.25,3.07,4.26,11.51
7.13681697845459,10.96,4.16,4.85,12.68
7.151666879653931,11.3,5.37,4.5,13.29
7.153163909912109,11.96,6.36,3.5,13.99
7.168694019317627,13.66,6.8,2.74,15.5
7.170172929763794,16.08,6.45,1.71,17.4
7.1841208934783936,18.26,5.88,1.29,19.22
7.215345859527588,19.51,4.54,0.7,20.04
7.2167158126831055,19.23,1.94,0.06,19.32
7.2177557945251465,17.45,0.99,0.29,17.48
7.235644817352295,15.79,5.68,-2.09,16.91
7.236707925796509,6.61,-5.29,-8.75,12.17
7.248508930206299,-7.61,-4.48,-15.44,17.78
7.24956488609314,-13.22,23.16,-13.41,29.84
7.268490791320801,-8.8,50.03,6.59,51.22
7.269962787628174,-6.13,31.14,-4.04,31.99
7.284003734588623,-1.5,3.44,-4.82,6.1
7.313838005065918,3.8,-4.38,3.38,6.71
7.315171957015991,6.55,-10.75,3.95,13.19
7.316259860992432,9.14,-14.34,1.32,17.05
7.335454940795898,11.66,-12.95,4.77,18.06
7.336549758911133,11.46,-6.86,5.69,14.51
7.351593971252441,7.71,-2.28,2.76,8.5
7.352609872817993,2.97,-0.07,0.68,3.04
7.368650913238525,-0.54,2.76,-1.24,3.07
7.370126962661743,-2.85,4.95,-3.46,6.67
7.384084939956665,-3.51,4.72,-3.66,6.92
7.413359880447388,-1.06,1.72,-1.93,2.79
7.4147138595581055,1.92,-0.95,0.33,2.16
7.415611743927002,3.07,-2.45,1.48,4.19
7.435402870178223,2.42,-2.82,1.34,3.95
7.436471939086914,0.75,-1.17,0.52,1.48
7.451505899429321,-0.21,0.72,-0.45,0.87
7.452518939971924,-0.12,1.13,-0.93,1.46
7.46859884262085,0.42,0.56,-0.36,0.78
7.470049858093262,0.72,-0.18,0.41,0.84
7.483996868133545,0.5,-0.41,0.82,1.04
7.512150764465332,0.04,-0.14,0.53,0.54
7.513519763946533,-0.2,0.2,-0.24,0.37
7.514494895935059,-0.22,0.37,-0.79,0.89
7.53590202331543,-0.3,0.29,-0.87,0.96
7.536916732788086,-0.4,0.1,-0.58,0.71
7.551750898361206,-0.46,-0.09,-0.27,0.54
7.55280876159668,-0.44,-0.11,0.01,0.45
7.568792819976807,-0.51,0.08,0.36,0.62
7.569828033447266,-0.64,0.29,0.35,0.78
7.584244728088379,-0.68,0.46,0.04,0.82
7.613976001739502,-0.62,0.64,0.05,0.89
7.615462779998779,-0.58,0.7,0.18,0.92
7.616448879241943,-0.67,0.59,0.24,0.92
7.635347843170166,-0.97,0.55,0.08,1.11
7.636386871337891,-1.29,0.51,-0.21,1.4
7.652569770812988,-1.4,0.47,-0.38,1.52
7.653673887252808,-1.26,0.36,-0.54,1.41
7.668482780456543,-1.03,0.35,-0.55,1.21
7.6698949337005615,-0.95,0.45,-0.5,1.16
7.684300899505615,-1.14,0.66,-0.46,1.39
7.685772895812988,-1.45,0.97,-0.6,1.84
7.730542898178101,-1.7,1.33,-0.65,2.25
7.731778860092163,-1.96,1.76,-0.32,2.65
7.732882022857666,-2.15,2.1,-0.3,3.02
7.752495765686035,-1.9,2.16,-0.6,2.93
7.753514766693115,-1.89,2.67,-0.68,3.34
7.768903732299805,-1.7,3.16,-0.63,3.64
7.7703537940979,-1.93,3.35,-0.57,3.9
7.785510063171387,-2.4,3.49,-0.33,4.24
7.7869977951049805,-2.91,3.57,-0.23,4.61
7.800862789154053,-3.34,3.82,-0.24,5.07
7.830498933792114,-3.77,4.14,-0.48,5.61
7.831938743591309,-4.62,4.69,-0.63,6.61
7.832998752593994,-5.78,5.92,-0.3,8.27
7.848662853240967,-7.08,7.88,-0.14,10.59
7.849746942520142,-8.79,10.02,-0.79,13.35
7.865687847137451,-10.82,12.03,-2.5,16.37
7.866728782653809,-12.45,13.07,-4.35,18.56
7.881990909576416,-13.49,12.84,-5.6,19.44
7.883460998535156,-14.44,11.88,-6.39,19.76
7.901326894760132,-14.43,13.29,-5.39,20.34
7.932143926620483,-10.99,16.63,-4.09,20.34
7.9333367347717285,-4.37,15.98,-8.29,18.52
7.9343647956848145,0.78,13.92,-9.67,16.96
7.952570915222168,1.62,10.36,-6.56,12.36
7.953587055206299,-1.62,4.32,-4.92,6.74
7.967474937438965,-4.5,-0.91,-3.44,5.73
7.968465805053711,-1.27,-1.56,-4.71,5.12
7.983898878097534,5.58,-0.14,0.61,5.61
7.985335826873779,5.88,-4.11,1.49,7.32
7.998456954956055,-0.89,-5.2,-3.86,6.53
8.027425765991211,-6.79,-4.41,-1.58,8.24
8.028679847717285,-9.92,-3.82,-0.02,10.63
8.029717922210693,-12.18,-3.72,-1.05,12.77
8.03211784362793,-13.92,-4.18,-1.6,14.62
8.033689975738525,-14.59,-4.76,-1.06,15.38
8.035300731658936,-12.93,-5.0,1.16,13.91
8.036903858184814,-9.68,-5.52,2.99,11.53
8.038498878479004,-7.25,-6.33,3.28,10.16
8.041475772857666,-6.18,-6.43,3.11,9.44
8.051485061645508,-5.79,-5.76,2.36,8.5
8.082934856414795,-5.53,-5.03,1.46,7.61
8.08390188217163,-5.27,-4.41,0.25,6.87
8.084694862365723,-4.91,-3.74,-0.99,6.25
8.101470947265625,-4.49,-3.17,-2.2,5.92
8.102323055267334,-3.9,-2.73,-3.11,5.68
8.118589878082275,-3.04,-2.74,-3.47,5.36
8.12089991569519,-1.89,-3.43,-3.38,5.17
8.135261058807373,-0.58,-4.4,-2.59,5.13
8.140759944915771,0.75,-5.04,-1.34,5.26
8.150861740112305,1.91,-5.16,-0.4,5.51
8.183541774749756,2.91,-4.95,-0.62,5.77
8.184656858444214,3.79,-4.26,-1.31,5.85
8.18547773361206,4.7,-3.2,-1.44,5.86
8.202753067016602,5.9,-2.0,-0.79,6.27
8.203789949417114,7.35,-0.45,0.09,7.36
8.218610763549805,8.86,1.4,0.93,9.01
8.219997882843018,10.65,3.35,2.06,11.35
8.235551834106445,12.45,5.02,2.59,13.67
8.24000883102417,14.13,6.61,2.61,15.81
8.250144958496094,15.96,7.77,2.63,17.94
8.285667896270752,17.58,7.69,2.35,19.33
8.28691291809082,18.77,6.73,2.54,20.1
8.287730932235718,18.99,5.11,2.39,19.81
8.302953958511353,18.79,3.2,2.99,19.29
8.304001808166504,17.81,3.32,2.84,18.33
8.318809986114502,14.34,7.22,0.03,16.05
8.319864749908447,7.34,-0.21,-5.8,9.35
8.335795879364014,-5.51,0.89,-11.56,12.83
8.339316844940186,-9.12,31.35,-3.91,32.88
8.351081848144531,-6.99,48.95,8.31,50.13
8.384071826934814,-8.26,18.29,-4.95,20.67
8.38550591468811,-1.68,1.02,-4.31,4.73
8.38650393486023,2.82,-6.9,0.63,7.48
8.40298080444336,5.41,-12.19,3.39,13.76
8.40404486656189,8.86,-12.2,4.26,15.66
8.418317794799805,10.94,-9.35,5.69,15.47
8.419363021850586,9.06,-4.36,4.82,11.15
8.435987949371338,4.65,-1.85,1.16,5.13
8.43880295753479,1.08,-0.02,-2.44,2.66
8.451076030731201,-0.77,2.93,-3.15,4.37
8.458529949188232,-1.69,4.85,-1.09,5.25
8.493574857711792,-1.13,3.08,0.48,3.31
8.494783878326416,1.02,-0.45,1.02,1.51
8.496010780334473,2.41,-2.23,0.86,3.39
8.498394966125488,2.25,-2.04,0.66,3.1
8.518941879272461,1.09,-0.71,0.24,1.32
8.520002841949463,0.29,0.14,-0.57,0.65
8.536026000976562,0.41,0.43,-0.88,1.06
8.537951946258545,0.79,0.33,-0.52,1.0
8.551176071166992,0.82,0.14,-0.11,0.83
8.558130741119385,0.69,0.05,0.1,0.69
8.596427917480469,0.59,-0.07,0.15,0.61
8.597594738006592,0.49,-0.06,0.18,0.52
8.598591804504395,0.29,-0.08,0.32,0.43
8.619479894638062,0.06,-0.13,0.31,0.34
8.62050199508667,-0.09,-0.07,0.22,0.24
8.636908054351807,-0.17,0.08,-0.06,0.19
8.638370037078857,-0.15,0.17,-0.34,0.4
8.652931928634644,-0.16,0.23,-0.32,0.42
8.6544189453125,-0.18,0.18,-0.2,0.32
8.66836404800415,-0.15,0.1,0.06,0.19
8.697649955749512,-0.16,0.07,0.21,0.27
8.69904899597168,-0.36,0.19,0.29,0.49
8.700078010559082,-0.68,0.43,0.16,0.82
8.719089984893799,-0.82,0.68,-0.08,1.06
8.720152854919434,-0.76,0.75,-0.24,1.09
8.736230850219727,-0.61,0.66,-0.34,0.96
8.737652778625488,-0.61,0.5,-0.33,0.85
8.752474784851074,-0.66,0.38,-0.4,0.86
8.753921031951904,-0.84,0.35,-0.33,0.96
8.768078804016113,-1.17,0.42,-0.21,1.26
8.797221899032593,-1.41,0.58,-0.25,1.54
8.798590898513794,-1.53,0.7,-0.58,1.77
8.799602031707764,-1.71,1.07,-0.53,2.08
8.81903886795044,-1.61,1.59,-0.53,2.32
8.820039749145508,-1.52,1.56,-1.03,2.4
8.835529804229736,-1.26,1.82,-0.96,2.41
8.836582899093628,-1.3,2.22,-0.71,2.66
8.852366924285889,-1.79,2.47,-0.43,3.08
8.853786945343018,-2.3,2.82,-0.35,3.65
8.8681058883667,-2.72,3.14,-0.55,4.19
8.895591735839844,-2.88,3.47,-0.9,4.59
8.897007942199707,-3.0,3.79,-1.29,5.0
8.897989749908447,-3.31,4.04,-1.63,5.47
8.899593830108643,-3.92,4.52,-1.6,6.19
8.90514087677002,-4.79,5.41,-1.5,7.37
8.915205001831055,-5.95,6.74,-1.32,9.08
8.9252290725708,-7.5,9.15,-1.3,11.9
8.935009956359863,-9.15,10.7,-3.32,14.46
8.944962978363037,-10.38,10.94,-4.98,15.88
8.955607891082764,-11.19,11.23,-5.58,16.8
8.99042797088623,-11.65,10.75,-6.81,17.25
8.991833925247192,-11.6,9.28,-7.68,16.72
8.992825031280518,-11.39,9.37,-7.6,16.59
9.003273010253906,-9.05,13.44,-5.15,17.0
9.004353046417236,-4.27,17.28,-5.18,18.53
9.018234729766846,0.4,16.1,-8.84,18.37
9.024085998535156,1.75,10.44,-10.31,14.77
9.035737037658691,-1.88,3.76,-7.97,9.01
9.044435024261475,-5.49,-1.16,-4.34,7.09
9.05411672592163,-1.87,0.22,-1.78,2.59
9.090046882629395,3.73,-0.6,3.37,5.06
9.091354846954346,2.43,-5.53,-0.02,6.04
9.092400074005127,-3.17,-5.97,-3.35,7.54
9.093978881835938,-7.55,-4.09,0.02,8.58
9.103944778442383,-10.14,-3.0,0.42,10.58
9.113625049591064,-12.51,-2.87,-1.14,12.88
9.12369680404663,-14.0,-2.86,-1.33,14.35
9.133539915084839,-13.61,-2.93,-0.2,13.92
9.143970012664795,-10.66,-3.64,1.22,11.33
9.153611898422241,-7.54,-5.19,2.06,9.38
9.190918922424316,-5.61,-6.48,2.38,8.89
9.192090034484863,-4.67,-6.92,2.38,8.68
9.193043947219849,-4.57,-6.47,2.05,8.18
9.20314073562622,-4.8,-5.74,1.42,7.61
9.204195022583008,-4.59,-4.97,0.45,6.78
9.219021797180176,-3.94,-4.14,-0.33,5.72
9.222694873809814,-3.34,-3.55,-0.91,4.95
9.233790874481201,-3.1,-3.45,-1.29,4.81
9.24302887916565,-3.19,-3.71,-1.47,5.1
9.252599954605103,-3.17,-4.09,-1.55,5.4
9.262712955474854,-2.64,-4.18,-1.29,5.1
9.29456901550293,-1.6,-3.85,-0.23,4.17
9.295767784118652,-0.59,-3.47,0.39,3.54
9.29702091217041,0.87,-3.47,-0.67,3.63
9.302158832550049,2.87,-3.15,-0.98,4.37
9.312135934829712,4.48,-1.96,-0.23,4.89
9.322208881378174,5.69,-0.94,1.27,5.9
9.332047939300537,6.02,0.0,2.56,6.54
9.342297077178955,6.49,1.12,4.51,7.98
9.352022886276245,7.84,1.9,5.54,9.78
9.361830949783325,9.46,1.95,5.1,10.92
9.394474983215332,10.7,2.71,4.17,11.79
9.395650863647461,11.29,4.34,2.74,12.4
9.39692497253418,12.55,5.48,1.18,13.74
9.401394844055176,15.25,5.86,0.43,16.34
9.419790744781494,18.14,6.45,-0.27,19.25
9.421093940734863,20.62,6.8,-0.1,21.71
9.436548948287964,22.13,5.84,0.74,22.89
9.441230773925781,22.8,3.44,2.4,23.18
9.451183795928955,21.88,1.68,4.12,22.32
9.46130084991455,15.5,1.96,0.68,15.63
9.492384910583496,2.08,-5.58,-4.23,7.3
9.493581771850586,-10.66,0.97,-13.48,17.21
9.494784832000732,-14.67,32.28,-7.41,36.22
9.500569820404053,-14.71,48.49,7.61,51.24
9.510895729064941,-12.93,19.11,-7.82,24.36
9.520426750183105,-3.21,1.62,-1.75,3.99
9.530482769012451,1.41,-7.66,2.81,8.28
9.54050087928772,4.93,-13.06,3.09,14.29
9.551976919174194,8.67,-13.29,2.66,16.08
9.560579776763916,11.39,-10.75,4.36,16.25
9.591507911682129,11.67,-5.67,4.14,13.61
9.592833042144775,8.23,-1.68,0.77,8.43
9.593847751617432,3.48,0.55,-2.64,4.4
9.600121021270752,-0.22,3.39,-3.42,4.82
9.609946727752686,-2.72,5.58,-1.43,6.37
9.619885921478271,-3.64,4.16,0.88,5.59
9.629555940628052,-1.52,-0.01,1.7,2.28
9.639983892440796,1.3,-2.39,1.15,2.95
9.64992904663086,2.75,-2.48,0.35,3.71
9.659836769104004,1.96,-1.15,-0.51,2.32
9.698219776153564,0.32,0.35,-1.09,1.18
9.699605941772461,-0.38,1.0,-1.21,1.61
9.700639963150024,0.16,0.61,-0.59,0.86
9.719854831695557,0.9,-0.11,0.11,0.91
9.720879077911377,1.05,-0.47,0.44,1.23
9.736207962036133,0.58,-0.36,0.62,0.92
9.73755407333374,0.02,-0.1,0.36,0.37
9.75282096862793,-0.34,0.11,0.22,0.41
9.754271030426025,-0.35,0.25,0.55,0.69
9.768748760223389,-0.05,0.17,0.76,0.78
9.799248933792114,0.15,-0.08,0.62,0.64
9.80058479309082,0.04,0.07,-0.1,0.12
9.801585912704468,-0.02,0.14,-1.12,1.12
9.819852828979492,-0.24,0.31,-1.26,1.31
9.820909023284912,-0.5,0.64,-0.69,1.06
9.834922790527344,-0.76,0.63,0.18,1.0
9.835953950881958,-0.53,0.39,0.39,0.76
9.852828025817871,-0.16,0.23,0.4,0.48
9.854301929473877,-0.3,0.26,0.21,0.44
9.868654727935791,-0.85,0.51,-0.21,1.01
9.899312973022461,-1.25,0.7,-0.73,1.6
9.90065884590149,-1.35,0.65,-0.92,1.75
9.901655912399292,-1.36,0.54,-0.79,1.66
9.92000675201416,-1.33,0.49,-0.64,1.55
9.92109489440918,-1.23,0.56,-0.65,1.49
9.936583042144775,-1.17,0.7,-0.88,1.62
9.938018798828125,-1.18,0.97,-0.88,1.76
9.952977895736694,-1.45,1.21,-0.71,2.01
9.95444107055664,-2.0,1.52,-0.23,2.52
9.968556880950928,-2.26,1.71,-0.35,2.85
9.997828006744385,-2.4,1.88,-0.8,3.15
9.999168872833252,-2.15,2.71,-0.8,3.55
10.000133037567139,-2.07,3.08,-0.68,3.77
10.019983768463135,-2.31,3.35,-0.46,4.09
10.02104377746582,-2.93,3.54,-0.53,4.62
10.036375045776367,-3.72,3.9,-0.93,5.46
10.037408828735352,-4.35,4.57,-1.56,6.49
10.052899837493896,-4.86,5.82,-1.82,7.79
10.054365873336792,-5.62,7.91,-1.67,9.84
10.068908929824829,-6.86,10.42,-2.01,12.63
10.070422887802124,-8.28,11.54,-3.93,14.73
10.112992763519287,-9.59,11.8,-5.3,16.1
10.114137887954712,-10.5,11.84,-5.72,16.82
10.115152835845947,-10.51,11.07,-6.14,16.45
10.117516040802002,-10.27,9.54,-7.9,16.09
10.118920803070068,-10.87,9.2,-8.31,16.48
10.125768899917603,-9.78,12.92,-5.04,16.96
10.136045932769775,-5.0,18.0,-4.31,19.17
10.146565914154053,-0.18,16.58,-7.45,18.17
10.156242847442627,1.42,8.14,-7.76,11.33
10.166131973266602,-1.16,1.15,-5.19,5.44
10.197336912155151,-3.72,-3.08,-3.84,6.17
10.198500871658325,-0.12,-1.19,-1.41,1.84
10.199501991271973,3.31,-2.83,4.31,6.12
10.22042989730835,-0.64,-6.33,-0.52,6.38
10.221502780914307,-6.17,-5.72,-1.61,8.56
10.236379861831665,-9.23,-4.05,1.22,10.15
10.237395763397217,-11.36,-3.57,0.37,11.91
10.253538846969604,-13.06,-3.62,-0.66,13.56
10.25515604019165,-13.6,-3.55,-0.34,14.05
10.268914937973022,-11.9,-3.69,0.83,12.48
10.297460079193115,-8.98,-4.59,1.91,10.26
10.298851013183594,-7.0,-5.91,2.61,9.52
10.299851894378662,-6.33,-6.89,3.0,9.82
10.320375919342041,-6.41,-7.0,3.06,9.97
10.321416854858398,-6.4,-6.59,2.57,9.53
10.336448907852173,-6.07,-5.82,1.71,8.58
10.33750581741333,-5.66,-4.8,0.94,7.48
10.353298902511597,-5.16,-4.04,0.27,6.55
10.354788780212402,-4.48,-3.66,-0.46,5.8
10.369204044342041,-3.78,-3.69,-1.22,5.42
10.398337841033936,-3.19,-3.96,-1.55,5.31
10.39977502822876,-2.67,-4.23,-1.43,5.2
10.400786876678467,-1.89,-4.31,-0.89,4.78
10.420345783233643,-0.56,-4.15,-0.24,4.19
10.421390056610107,1.02,-3.83,0.25,3.97
10.43619990348816,2.59,-3.26,0.15,4.16
10.437241077423096,4.14,-2.44,-0.26,4.81
10.453258037567139,5.63,-1.6,-0.32,5.86
10.454754829406738,7.16,-0.61,0.1,7.18
10.468910932540894,8.43,0.61,1.03,8.51
10.50200080871582,9.48,1.74,1.95,9.83
10.503434896469116,10.31,2.57,2.58,10.93
10.504467010498047,11.16,3.33,2.69,11.95
10.520412921905518,11.69,4.59,1.93,12.7
10.521488904953003,12.0,6.28,1.56,13.63
10.536609888076782,13.21,7.99,1.41,15.5
10.538076877593994,15.21,8.99,0.55,17.67
10.553311824798584,17.79,9.0,0.32,19.93
10.554787874221802,20.32,7.94,1.04,21.84
10.56896185874939,20.58,8.12,2.3,22.24
10.601095914840698,16.89,9.43,2.33,19.48
10.602558851242065,7.93,-1.92,-2.64,8.57
10.603591918945312,-5.44,-4.83,-7.67,10.57
10.604637861251831,-12.89,13.49,-7.44,20.08
10.612596988677979,-11.08,37.16,10.35,40.13
10.623222827911377,-11.94,28.07,3.03,30.65
10.632408857345581,-5.57,6.37,-5.34,10.0
10.642063856124878,3.07,-0.29,-0.91,3.21
10.652479887008667,5.75,-7.68,1.77,9.75
10.66243290901184,8.66,-10.87,0.89,13.92
10.700738906860352,10.85,-10.53,0.65,15.13
10.702022075653076,11.47,-6.29,2.71,13.35
10.703041076660156,8.25,-1.67,2.27,8.71
10.720509052276611,3.11,-0.4,-0.63,3.19
10.721522808074951,-0.48,1.5,-2.21,2.71
10.73651385307312,-2.56,3.57,-1.77,4.73
10.737568855285645,-3.07,3.93,0.24,4.99
10.753238916397095,-1.01,1.19,1.39,2.09
10.75471305847168,1.59,-1.64,0.96,2.47
10.768994808197021,2.69,-2.4,0.86,3.7
10.798110961914062,1.92,-1.54,0.55,2.52
10.79948091506958,0.39,-0.21,0.09,0.45
10.800587892532349,-0.29,0.6,-0.3,0.73
10.820114850997925,-0.02,0.54,-0.36,0.64
10.821131944656372,0.7,0.05,-0.41,0.81
10.836715936660767,1.1,-0.19,-0.18,1.13
10.837760925292969,0.95,-0.24,0.17,0.99
10.85334587097168,0.58,-0.15,0.43,0.73
10.854842901229858,0.32,-0.16,0.47,0.59
10.869019985198975,0.2,-0.15,0.68,0.72
10.870503902435303,0.05,-0.18,0.42,0.45
10.915259838104248,-0.05,-0.11,-0.1,0.15
10.916427850723267,-0.16,0.12,-0.38,0.42
10.917434930801392,-0.21,0.32,-0.44,0.58
10.937389850616455,-0.15,0.27,-0.43,0.52
10.93842887878418,-0.21,0.19,-0.33,0.43
10.9531729221344,-0.43,0.27,-0.02,0.5
10.9546217918396,-0.76,0.41,0.22,0.89
10.970318794250488,-0.98,0.48,0.28,1.12
10.971788883209229,-1.12,0.56,0.15,1.26
10.985833883285522,-1.38,0.64,-0.07,1.52
11.016116857528687,-1.61,0.62,-0.57,1.81
11.017382860183716,-1.7,0.61,-0.9,2.01
11.018385887145996,-1.64,0.66,-0.8,1.94
11.037168979644775,-1.52,0.62,-0.54,1.72
11.038238048553467,-1.34,0.71,-0.46,1.58
11.053005933761597,-1.11,0.9,-0.58,1.54
11.05437707901001,-0.96,1.13,-0.52,1.57
11.070262908935547,-1.04,1.28,-0.31,1.67
11.071785926818848,-1.14,1.4,-0.19,1.81
11.08584976196289,-1.29,1.45,-0.29,1.96
11.114487886428833,-1.67,1.86,0.09,2.5
11.115862846374512,-1.94,2.07,-0.21,2.84
11.116908073425293,-1.98,2.39,-0.37,3.12
11.137496948242188,-1.92,2.72,-0.54,3.37
11.138561964035034,-1.96,2.99,-0.66,3.63
11.153493881225586,-2.2,3.15,-1.08,3.99
11.154955863952637,-2.62,3.36,-1.36,4.47
11.170276880264282,-3.1,4.05,-1.24,5.24
11.171696901321411,-3.77,4.81,-1.31,6.25
11.185863971710205,-4.77,5.88,-1.28,7.67
11.214515924453735,-5.98,7.41,-1.63,9.66
11.215937852859497,-7.39,8.38,-2.76,11.5
11.216960906982422,-9.05,9.51,-3.45,13.57
11.237640857696533,-10.49,10.94,-3.84,15.63
11.23868703842163,-11.48,11.39,-4.85,16.88
11.253735065460205,-11.9,10.45,-5.58,16.79
11.255208015441895,-12.32,8.92,-6.11,16.39
11.270433902740479,-12.32,9.16,-5.59,16.33
11.27184796333313,-9.61,12.67,-3.21,16.22
11.285943984985352,-4.06,15.61,-4.1,16.64
11.315414905548096,0.95,13.14,-7.93,15.37
11.316881895065308,2.13,7.8,-8.67,11.85
11.317888736724854,-1.59,3.07,-6.01,6.93
11.337247848510742,-5.18,-0.99,-2.98,6.05
11.338291883468628,-1.7,-0.57,-1.68,2.45
11.35329294204712,4.63,-0.19,2.33,5.18
11.354331970214844,3.57,-4.59,-0.19,5.81
11.370431900024414,-2.34,-4.86,-3.76,6.57
11.371904850006104,-7.03,-3.42,-0.94,7.87
11.38617491722107,-9.68,-2.68,-0.64,10.06
11.414374828338623,-12.18,-2.71,-2.15,12.66
11.415663957595825,-13.87,-2.62,-1.94,14.24
11.416624069213867,-13.68,-2.41,-0.52,13.9
11.43770980834961,-10.94,-2.88,1.09,11.36
11.438777923583984,-8.08,-4.12,1.94,9.27
11.452043056488037,-6.17,-5.07,2.65,8.41
11.453081846237183,-5.11,-5.54,2.81,8.04
11.470366954803467,-4.79,-5.54,2.11,7.62
11.471750736236572,-4.86,-5.15,0.98,7.14
11.485934734344482,-5.05,-4.42,-0.3,6.71
11.513885974884033,-5.1,-3.57,-1.38,6.37
11.515354871749878,-4.87,-3.16,-2.46,6.3
11.516355037689209,-4.39,-3.03,-3.09,6.16
11.537639856338501,-3.59,-3.26,-3.29,5.86
11.538678884506226,-2.53,-3.78,-2.86,5.37
11.553520917892456,-1.28,-4.25,-2.03,4.88
11.554555892944336,0.0,-4.58,-1.35,4.77
11.570787906646729,1.16,-4.82,-1.42,5.15
11.572236061096191,2.14,-4.62,-1.67,5.35
11.587125778198242,2.77,-3.76,-1.19,4.81
11.6146240234375,3.22,-2.73,-0.15,4.22
11.616034030914307,3.71,-1.62,1.35,4.26
11.616890907287598,4.57,0.01,3.02,5.47
11.63738203048706,6.05,1.55,3.82,7.32
11.638413906097412,8.0,2.94,4.12,9.46
11.653648853302002,10.01,4.24,3.65,11.46
11.654677867889404,11.99,5.45,2.65,13.43
11.670369863510132,14.51,7.01,1.93,16.22
11.671867847442627,17.51,8.23,1.12,19.38
11.686025857925415,20.39,9.01,0.56,22.29
11.687582969665527,22.72,9.79,0.4,24.74
11.726239919662476,24.38,9.35,1.72,26.16
11.727398872375488,24.42,7.02,3.15,25.6
11.728616952896118,22.05,6.33,3.99,23.28
11.735719919204712,16.28,4.33,0.84,16.86
11.736763000488281,3.45,-6.47,-3.57,8.15
11.753365993499756,-10.26,-5.65,-10.75,15.89
11.754406929016113,-19.16,13.3,-11.05,25.8
11.770508766174316,-16.54,38.11,8.33,42.37
11.771588802337646,-11.66,34.72,3.49,36.79
11.786143779754639,-4.81,6.6,-1.01,8.22
11.811460971832275,-0.45,-7.24,1.78,7.46
11.81258773803711,5.46,-9.35,2.4,11.09
11.813458919525146,9.1,-10.06,1.84,13.68
11.816033840179443,11.05,-10.74,0.46,15.41
11.83713674545288,12.77,-7.41,1.38,14.82
11.838197946548462,11.4,-1.36,2.02,11.65
11.853685855865479,6.62,0.91,-1.19,6.78
11.854713916778564,1.91,1.64,-2.22,3.35
11.869601726531982,-1.0,3.29,-1.57,3.78
11.8730788230896,-2.92,3.46,-0.72,4.58
11.911336898803711,-3.15,1.45,0.89,3.58
11.91257905960083,-0.86,-1.12,1.64,2.16
11.913763999938965,1.77,-2.3,1.51,3.27
11.916990756988525,2.63,-1.87,1.02,3.38
11.937304019927979,1.79,-0.69,-0.35,1.95
11.938368797302246,0.41,0.45,-1.27,1.4
11.953474044799805,-0.5,0.94,-1.35,1.71
11.95449185371399,-0.2,0.68,-0.67,0.97
11.969656944274902,0.67,0.0,0.2,0.69
11.972304821014404,0.93,-0.25,0.74,1.21
12.01413106918335,0.61,-0.15,0.72,0.95
12.015310764312744,0.16,0.06,0.17,0.24
12.01628589630127,-0.03,0.22,-0.19,0.29
12.037755966186523,-0.08,0.14,-0.04,0.16
12.03879690170288,-0.26,-0.01,0.16,0.3
12.053395748138428,-0.45,-0.03,0.16,0.47
12.054385900497437,-0.46,0.06,-0.29,0.54
12.070725917816162,-0.25,0.16,-0.69,0.75
12.072196006774902,-0.15,0.33,-0.55,0.65
12.086496829986572,-0.35,0.48,-0.1,0.6
12.116169929504395,-0.67,0.53,0.29,0.9
12.117976903915405,-0.79,0.54,0.34,1.01
12.118983745574951,-0.87,0.54,0.13,1.03
12.137579917907715,-1.12,0.7,0.09,1.32
12.138558864593506,-1.32,0.8,0.0,1.54
12.153966903686523,-1.45,0.72,-0.04,1.61
12.155405044555664,-1.49,0.6,-0.46,1.67
12.171526908874512,-1.44,0.55,-0.95,1.81
12.172979831695557,-1.41,0.84,-1.11,1.98
12.186511993408203,-1.52,1.29,-1.01,2.23
12.217127799987793,-1.84,1.48,-0.88,2.52
12.218424797058105,-2.28,1.72,-0.29,2.87
12.219445943832397,-2.58,1.84,-0.06,3.16
12.23655390739441,-2.53,1.68,-0.55,3.08
12.237549781799316,-2.18,2.15,-1.08,3.24
12.25012993812561,-1.68,3.02,-1.35,3.71
12.251128911972046,-1.72,3.48,-1.3,4.09
12.267256736755371,-2.28,3.75,-1.13,4.53
12.26888394355774,-3.15,3.96,-0.7,5.1
12.286898851394653,-3.94,4.28,-0.53,5.84
12.315546035766602,-4.6,4.64,-0.72,6.57
12.316959857940674,-5.28,5.42,-0.72,7.6
12.317948818206787,-6.13,6.71,-0.88,9.13
12.33622694015503,-7.42,8.47,-1.02,11.3
12.337308883666992,-9.09,10.27,-2.13,13.87
12.352031946182251,-10.96,11.85,-4.44,16.74
12.353139877319336,-12.61,12.63,-6.52,19.0
12.371060848236084,-13.67,12.21,-7.37,19.75
12.372560024261475,-14.48,11.38,-7.48,19.87
12.384950876235962,-14.19,12.88,-6.16,20.12
12.413236856460571,-9.96,17.46,-4.15,20.52
12.414623737335205,-2.89,18.83,-7.51,20.47
12.415603876113892,1.25,13.37,-10.32,16.93
12.417763948440552,1.14,6.87,-8.69,11.13
12.41924786567688,-2.84,1.93,-4.71,5.82
12.428881883621216,-3.82,-1.24,-2.91,4.95
12.438962936401367,3.15,1.94,-0.15,3.7
12.44877004623413,7.04,-1.41,3.43,7.95
12.458775043487549,2.63,-4.93,-2.74,6.22
12.468474864959717,-4.16,-4.11,-3.43,6.77
12.478824853897095,-8.41,-2.85,-0.35,8.88
12.508924961090088,-10.95,-2.61,-0.98,11.29
12.510097026824951,-13.02,-2.82,-2.02,13.47
12.510934829711914,-14.06,-3.26,-1.97,14.56
12.521291732788086,-12.83,-3.67,-0.42,13.35
12.528019905090332,-9.65,-4.38,1.38,10.68
12.537837028503418,-7.22,-5.84,1.98,9.49
12.547873973846436,-5.98,-6.97,1.97,9.39
12.557683944702148,-5.5,-7.21,2.15,9.31
12.568167924880981,-5.42,-7.26,1.72,9.22
12.578097820281982,-5.61,-7.42,0.87,9.34
12.608762741088867,-5.85,-7.55,-0.08,9.55
12.610069751739502,-5.79,-7.29,-0.93,9.35
12.611084938049316,-5.42,-6.68,-1.51,8.73
12.621417999267578,-4.84,-6.24,-1.86,8.11
12.627068996429443,-4.16,-6.11,-1.93,7.63
12.637168884277344,-3.49,-6.19,-1.38,7.23
12.64700984954834,-3.04,-6.48,-0.55,7.17
12.657038927078247,-2.91,-6.59,0.09,7.2
12.667381763458252,-2.95,-6.13,0.19,6.8
12.677353858947754,-2.6,-4.83,0.37,5.49
12.707284927368164,-1.24,-3.02,0.7,3.33
12.708562850952148,1.14,-1.17,0.14,1.63
12.709582805633545,3.95,0.68,-0.55,4.04
12.721986770629883,7.56,3.18,-1.13,8.27
12.726394891738892,11.79,6.16,-1.43,13.37
12.73633885383606,15.76,9.37,-1.85,18.42
12.746419906616211,19.1,12.25,-2.45,22.82
12.757277965545654,22.0,13.6,-2.98,26.03
12.767277956008911,24.62,12.13,-2.9,27.59
12.777066946029663,26.49,9.85,-2.51,28.37
12.806539058685303,27.48,7.38,-0.8,28.46
12.807824850082397,27.42,4.36,2.46,27.87
12.80884599685669,23.26,5.48,4.62,24.33
12.821590900421143,13.9,9.7,5.84,17.92
12.825684070587158,1.66,-2.72,1.53,3.53
12.83741283416748,-10.71,-2.9,-6.67,12.94
12.845438003540039,-16.52,15.56,-9.59,24.63
12.855455875396729,-14.85,35.05,8.23,38.94
12.866606950759888,-14.42,26.89,-0.97,30.52
12.875482082366943,-3.37,11.88,-5.53,13.53
12.913214921951294,4.1,0.62,-0.58,4.18
12.914601802825928,7.31,-6.71,2.28,10.18
12.915595054626465,9.45,-10.57,1.62,14.27
12.917876958847046,10.75,-10.91,-1.34,15.37
12.92501974105835,11.66,-8.47,-0.36,14.41
12.93519401550293,9.95,-3.15,2.25,10.67
12.945035934448242,4.97,0.02,0.08,4.97
12.95506477355957,0.68,1.65,-0.59,1.87
12.965024948120117,-1.62,3.47,-0.32,3.84
12.974941730499268,-3.04,3.34,-0.3,4.52
13.012882947921753,-2.75,1.22,0.76,3.1
13.014474868774414,-0.47,-1.2,0.74,1.48
13.01545786857605,1.74,-1.91,0.44,2.62
13.017889976501465,2.54,-1.36,0.38,2.9
13.024204730987549,1.81,-0.61,0.15,1.91
13.034075736999512,0.65,-0.13,0.03,0.66
13.044225931167603,0.21,-0.15,-0.44,0.51
13.054039001464844,0.46,-0.16,-0.68,0.83
13.06404185295105,0.52,0.04,-0.24,0.57
13.073853015899658,0.35,0.13,0.34,0.5
13.105893850326538,0.05,0.12,0.85,0.85
13.107391834259033,-0.13,0.02,0.77,0.78
13.108428001403809,-0.15,0.01,0.31,0.34
13.122036933898926,-0.16,0.08,-0.19,0.26
13.123366832733154,-0.33,0.21,-0.42,0.57
13.137966871261597,-0.54,0.34,-0.57,0.85
13.143801927566528,-0.56,0.41,-0.45,0.82
13.153534889221191,-0.56,0.45,-0.3,0.77
13.163487911224365,-0.73,0.5,-0.02,0.88
13.173529863357544,-1.15,0.62,0.25,1.33
13.213878870010376,-1.49,0.74,0.08,1.66
13.215336799621582,-1.62,0.79,-0.36,1.83
13.216299057006836,-1.58,0.83,-0.6,1.88
13.21854305267334,-1.55,0.67,-0.67,1.81
13.222777843475342,-1.59,0.53,-0.61,1.78
13.232946872711182,-1.47,0.57,-0.67,1.71
13.242884874343872,-1.23,0.85,-0.86,1.72
13.253152847290039,-1.09,1.12,-1.15,1.94
13.262743949890137,-1.12,1.31,-1.32,2.17
13.272843837738037,-1.2,1.5,-1.17,2.24
13.28270673751831,-1.42,1.65,-0.8,2.31
13.31609582901001,-1.75,2.3,-0.26,2.9
13.317471027374268,-1.76,2.79,-0.45,3.32
13.318473815917969,-2.15,3.28,-0.16,3.92
13.338534832000732,-2.6,3.68,0.17,4.5
13.33954381942749,-3.04,3.9,-0.16,4.94
13.354043960571289,-3.27,3.86,-0.7,5.1
13.355100870132446,-3.41,3.98,-1.05,5.34
13.371805906295776,-3.64,4.36,-1.16,5.79
13.373262882232666,-4.28,5.3,-0.94,6.87
13.3870267868042,-5.34,6.96,-0.75,8.8
13.414785861968994,-6.94,8.94,-1.56,11.42
13.416196823120117,-8.92,10.5,-3.29,14.16
13.417204856872559,-10.56,11.65,-4.33,16.3
13.434793949127197,-11.67,12.14,-5.43,17.69
13.435866832733154,-12.27,11.58,-6.82,18.19
13.454298973083496,-12.99,10.47,-8.09,18.54
13.455370903015137,-12.91,12.62,-6.72,19.26
13.47054386138916,-8.71,18.15,-4.77,20.68
13.472099781036377,-2.37,19.29,-7.93,20.99
13.486865997314453,1.04,12.52,-9.73,15.89
13.515148878097534,0.7,6.21,-7.43,9.7
13.516622066497803,-2.73,1.02,-3.81,4.79
13.517632961273193,-3.06,-2.97,-3.58,5.56
13.538326740264893,3.62,0.13,-1.87,4.07
13.539414882659912,7.5,-1.77,3.51,8.46
13.554718971252441,2.58,-5.2,-2.14,6.18
13.55575704574585,-4.66,-4.53,-3.06,7.18
13.571626901626587,-8.91,-3.25,0.17,9.48
13.573126792907715,-11.69,-2.7,-0.42,12.0
13.586973905563354,-13.97,-2.44,-1.03,14.21
13.615746021270752,-15.02,-2.14,-0.54,15.18
13.616995811462402,-13.34,-2.28,0.15,13.53
13.618000984191895,-9.58,-3.4,1.12,10.22
13.638612747192383,-6.56,-5.16,2.21,8.63
13.639648914337158,-4.81,-6.48,2.86,8.56
13.654640913009644,-4.0,-6.93,3.12,8.58
13.656026840209961,-4.06,-6.78,2.25,8.21
13.67113995552063,-4.51,-6.35,0.84,7.83
13.672635078430176,-4.61,-5.29,-0.45,7.03
13.68698787689209,-4.22,-4.1,-1.49,6.06
13.717675924301147,-3.81,-3.79,-2.36,5.86
13.71906590461731,-3.77,-4.1,-2.53,6.11
13.720078945159912,-3.98,-4.56,-2.02,6.38
13.73850679397583,-3.89,-5.05,-0.94,6.44
13.739551067352295,-3.24,-5.8,-0.03,6.64
13.754324913024902,-2.26,-6.57,0.3,6.95
13.755348920822144,-1.57,-6.9,0.34,7.08
13.771755933761597,-1.6,-6.47,0.64,6.69
13.773239850997925,-1.72,-5.46,1.43,5.9
13.78698205947876,-0.79,-4.18,1.75,4.59
13.814624786376953,1.44,-2.93,1.49,3.58
13.816056728363037,4.37,-1.21,1.39,4.74
13.817039012908936,7.47,0.82,1.63,7.68
13.819242000579834,10.48,3.51,2.16,11.26
13.82841682434082,12.76,6.71,2.18,14.58
13.838367938995361,14.87,9.4,1.77,17.68
13.848068952560425,17.67,11.52,1.26,21.13
13.858722925186157,20.48,12.31,0.47,23.89
13.86884093284607,23.16,11.96,0.39,26.06
13.87882685661316,25.85,10.75,1.6,28.04
13.913121938705444,27.86,8.4,2.92,29.24
13.914479732513428,26.89,5.08,4.61,27.75
13.915472984313965,21.54,1.68,5.02,22.18
13.918560981750488,14.22,2.69,3.41,14.86
13.92741584777832,4.05,1.64,0.7,4.42
13.937723875045776,-7.49,-7.93,-8.25,13.67
13.947524070739746,-23.27,2.98,-24.69,34.05
13.95744800567627,-24.77,39.05,-1.53,46.26
13.96811580657959,-21.51,47.95,10.21,53.53
13.977163791656494,-12.22,8.55,-1.48,14.98
14.014955997467041,0.18,-1.5,7.95,8.09
14.016438007354736,5.08,-6.34,6.46,10.37
14.017242908477783,6.82,-11.21,1.8,13.24
14.038769960403442,8.13,-12.41,-2.31,15.01
14.039805889129639,9.89,-10.8,-3.14,14.97
14.054836750030518,11.26,-5.6,-0.77,12.59
14.055945873260498,10.83,0.29,1.52,10.93
14.071488857269287,7.36,2.66,-1.57,7.98
14.072511911392212,2.29,2.77,-3.16,4.78
14.087964057922363,-1.01,2.62,-1.77,3.31
14.089509963989258,-2.97,1.77,0.46,3.48
14.133570909500122,-3.0,0.23,2.97,4.22
14.134768962860107,-0.97,-1.62,2.07,2.8
14.135809898376465,1.25,-1.66,0.1,2.08
14.155154943466187,1.84,-0.37,-0.84,2.05
14.156284809112549,1.01,0.38,-0.68,1.27
14.171504020690918,0.22,0.16,0.01,0.27
14.172598838806152,0.46,-0.34,0.36,0.67
14.173587799072266,1.01,-0.54,-0.06,1.14
14.1755690574646,1.03,-0.26,-0.67,1.25
14.18567705154419,0.56,0.23,-0.69,0.91
14.218101024627686,-0.06,0.48,0.0,0.48
14.219121932983398,-0.52,0.33,0.69,0.92
14.219961881637573,-0.67,0.14,1.01,1.22
14.237429857254028,-0.45,0.08,0.81,0.93
14.238487958908081,0.04,0.09,0.02,0.1
14.254536867141724,0.28,0.12,-0.5,0.58
14.255595922470093,0.05,0.19,-0.72,0.74
14.271435737609863,-0.5,0.4,-0.53,0.83
14.274879932403564,-0.94,0.73,-0.13,1.19
14.287253856658936,-0.98,0.84,-0.08,1.29
14.318389892578125,-0.79,0.78,-0.15,1.12
14.319516897201538,-0.75,0.62,-0.51,1.09
14.320353031158447,-0.96,0.55,-0.64,1.27
14.338747024536133,-1.39,0.48,-0.72,1.63
14.33984088897705,-1.74,0.47,-0.96,2.04
14.354468822479248,-1.74,0.49,-1.14,2.13
14.355450868606567,-1.4,0.67,-1.17,1.94
14.371410846710205,-1.01,0.85,-1.12,1.73
14.373915910720825,-0.98,1.07,-1.02,1.77
14.386724948883057,-1.57,1.4,-0.78,2.24
14.416208744049072,-2.02,1.89,-0.35,2.78
14.41737985610962,-2.22,2.14,-0.15,3.08
14.418212890625,-1.98,2.82,0.32,3.46
14.43876600265503,-1.93,2.94,0.04,3.51
14.439856052398682,-2.14,2.98,-0.01,3.66
14.454483985900879,-2.63,3.11,-0.24,4.08
14.455520868301392,-3.08,3.3,-0.62,4.55
14.471796035766602,-3.52,3.54,-1.19,5.13
14.473285913467407,-3.96,3.9,-1.59,5.78
14.487218856811523,-4.55,4.78,-1.61,6.79
14.521013736724854,-5.33,6.16,-1.62,8.3
14.522367000579834,-6.17,8.23,-1.69,10.42
14.523379802703857,-7.3,9.82,-3.18,12.64
14.540379047393799,-8.83,10.93,-5.09,14.94
14.541437864303589,-10.07,11.68,-5.97,16.53
14.554965019226074,-10.82,11.43,-6.97,17.21
14.555988788604736,-11.01,10.47,-8.01,17.17
14.572186946868896,-11.21,10.34,-8.43,17.42
14.573715925216675,-9.62,14.58,-5.82,18.41
14.587717056274414,-5.17,20.05,-5.32,21.37
14.62187385559082,-0.61,17.55,-9.71,20.06
14.623278856277466,1.04,9.2,-10.02,13.64
14.624299049377441,-1.55,3.25,-6.28,7.23
14.639384746551514,-4.0,-1.4,-3.46,5.47
14.640423774719238,0.55,0.26,-2.3,2.37
14.65460991859436,5.95,0.06,3.4,6.85
14.655658960342407,3.18,-4.17,0.35,5.25
14.671891927719116,-3.87,-3.84,-2.86,6.15
14.673370838165283,-8.25,-2.14,0.73,8.55
14.6873939037323,-10.69,-1.4,0.65,10.8
14.722407817840576,-12.47,-1.17,-0.38,12.53
14.723704814910889,-12.67,-1.19,-0.28,12.72
14.724694728851318,-10.11,-1.96,0.08,10.29
14.739299774169922,-6.76,-3.58,0.65,7.67
14.740320920944214,-4.78,-5.46,1.42,7.39
14.754898071289062,-4.08,-6.67,2.2,8.12
14.755912780761719,-4.08,-7.26,2.49,8.69
14.771639823913574,-4.25,-7.37,2.11,8.76
14.772640943527222,-4.36,-7.07,1.24,8.39
14.78733205795288,-4.33,-6.3,0.34,7.65
14.818816900253296,-4.18,-5.3,-0.43,6.76
14.820027828216553,-3.99,-4.88,-1.0,6.38
14.820852756500244,-4.03,-5.09,-1.31,6.62
14.839046955108643,-4.07,-5.51,-0.87,6.9
14.840113878250122,-3.73,-5.97,-0.09,7.04
14.854804992675781,-3.09,-6.71,0.73,7.42
14.855868816375732,-2.62,-7.45,1.23,7.99
14.871535778045654,-2.49,-7.89,1.56,8.41
14.872565746307373,-2.61,-7.84,1.76,8.44
14.887500762939453,-2.73,-7.14,1.96,7.89
14.890467882156372,-2.59,-6.04,2.54,7.04
14.932562828063965,-1.9,-4.75,2.85,5.85
14.9337158203125,-0.07,-3.1,2.58,4.03
14.934714794158936,2.98,-1.32,2.39,4.04
14.95543384552002,6.64,0.11,1.55,6.81
14.956495761871338,10.17,1.97,1.15,10.42
14.971752882003784,12.95,4.88,1.51,13.92
14.972815990447998,14.99,7.69,1.12,16.88
14.988646984100342,16.9,9.67,0.64,19.48
14.99010705947876,18.86,10.88,0.45,21.77
15.001921892166138,20.51,11.28,-0.34,23.4
15.031071901321411,21.93,10.42,-0.32,24.28
15.032319068908691,22.8,8.36,0.71,24.29
15.033130884170532,22.23,5.87,2.28,23.1
15.035529851913452,18.72,6.04,2.5,19.82
15.039103031158447,11.66,5.58,0.08,12.92
15.049139976501465,-0.66,-5.29,-4.65,7.07
15.059290885925293,-13.4,-1.22,-13.67,19.18
15.069142818450928,-18.2,24.62,-8.01,31.64
15.079328060150146,-16.44,45.71,10.37,49.67
15.08912181854248,-12.82,20.71,-2.37,24.47
15.11815881729126,-2.82,-0.2,0.27,2.83
15.11912488937378,3.68,-3.54,3.04,5.94
15.119952917098999,7.79,-8.15,2.87,11.63
15.139327049255371,9.91,-11.18,0.83,14.96
15.140330791473389,11.56,-9.97,-0.32,15.26
15.153660774230957,11.91,-5.22,1.11,13.05
15.158359050750732,8.99,-0.45,1.48,9.12
15.1697518825531,4.06,1.12,-1.09,4.35
15.17819094657898,0.36,2.45,-2.24,3.33
15.188111782073975,-1.85,3.37,-2.35,4.5
15.219852924346924,-2.48,2.75,-0.83,3.79
15.221016883850098,-0.6,0.77,1.08,1.45
15.221795082092285,1.39,-1.47,0.8,2.17
15.235712051391602,2.19,-2.2,0.83,3.21
15.237644910812378,1.35,-1.4,1.25,2.31
15.253538846969604,0.12,-0.36,0.95,1.02
15.257561922073364,-0.16,0.25,0.04,0.29
15.271122932434082,0.31,0.38,-0.29,0.56
15.277728080749512,0.58,0.13,-0.15,0.61
15.287302017211914,0.49,-0.25,-0.27,0.61
15.32696795463562,0.44,-0.24,-0.49,0.7
15.328322887420654,0.31,0.04,-0.39,0.49
15.329339981079102,0.07,0.13,-0.06,0.15
15.337116956710815,-0.01,0.03,0.11,0.11
15.338123798370361,0.0,-0.02,0.15,0.15
15.353096008300781,-0.13,0.05,0.29,0.32
15.356744766235352,-0.4,0.28,0.19,0.52
15.371181011199951,-0.65,0.31,0.16,0.73
15.376702785491943,-0.84,0.33,-0.2,0.92
15.386739730834961,-0.61,0.45,-0.56,0.94
15.4268958568573,-0.19,0.41,-0.62,0.76
15.428184986114502,0.04,0.31,-0.35,0.46
15.429252862930298,-0.02,0.12,0.06,0.13
15.436686992645264,-0.31,0.1,0.25,0.41
15.437720775604248,-0.66,0.23,-0.07,0.7
15.455225944519043,-0.93,0.35,-0.53,1.12
15.45624589920044,-1.08,0.51,-0.73,1.39
15.471889972686768,-1.17,0.62,-0.75,1.52
15.475839853286743,-1.23,0.7,-0.58,1.52
15.487475872039795,-1.32,0.7,-0.46,1.56
15.52332592010498,-1.47,0.7,-0.49,1.7
15.524581909179688,-1.59,0.83,-0.61,1.89
15.525405883789062,-1.68,1.12,-0.59,2.1
15.540050029754639,-1.63,1.3,-0.6,2.16
15.541135787963867,-1.46,1.48,-0.63,2.17
15.55508804321289,-1.37,1.67,-0.69,2.26
15.556128978729248,-1.45,2.37,-0.19,2.78
15.572202920913696,-1.66,2.75,-0.45,3.24
15.575065851211548,-1.98,3.3,-0.58,3.89
15.587886810302734,-2.53,3.62,-0.59,4.45
15.624006748199463,-3.05,4.05,-0.78,5.12
15.62528395652771,-3.58,4.52,-1.1,5.86
15.626309871673584,-4.11,5.38,-1.44,6.92
15.639409065246582,-4.8,6.54,-1.78,8.3
15.640464782714844,-5.73,8.26,-2.0,10.24
15.654906749725342,-6.93,9.49,-2.89,12.1
15.655953884124756,-8.48,10.54,-3.31,13.92
15.671693801879883,-10.49,11.69,-3.36,16.06
15.674393892288208,-12.25,12.82,-3.42,18.05
15.685559749603271,-13.24,12.89,-5.48,19.27
15.694431781768799,-13.6,11.1,-8.13,19.34
15.732426881790161,-13.76,10.65,-8.14,19.2
15.733579874038696,-10.86,14.58,-4.42,18.7
15.734789848327637,-4.16,17.74,-4.87,18.86
15.736316919326782,0.73,12.45,-7.58,14.59
15.743981838226318,2.34,4.88,-6.35,8.34
15.753959894180298,-0.83,-0.18,-3.84,3.93
15.76393175125122,-3.25,-3.67,-2.65,5.57
15.774017810821533,1.76,-2.0,-1.82,3.22
15.783804893493652,6.89,-2.72,3.54,8.2
15.79367995262146,3.23,-6.42,-0.76,7.22
15.82472276687622,-4.18,-6.04,-3.54,8.15
15.825767040252686,-8.85,-4.82,-0.4,10.08
15.826624870300293,-11.33,-4.1,-0.21,12.05
15.838667869567871,-13.13,-3.92,-0.83,13.72
15.843117952346802,-14.25,-3.91,-0.88,14.8
15.855240821838379,-13.4,-3.58,0.55,13.88
15.862894058227539,-10.41,-3.86,2.08,11.29
15.872984886169434,-7.94,-4.87,2.41,9.62
15.882914066314697,-6.71,-5.57,2.49,9.06
15.892721891403198,-6.14,-5.5,2.49,8.61
15.924697875976562,-5.66,-4.97,1.72,7.72
15.925801753997803,-5.13,-4.39,0.76,6.79
15.926621913909912,-4.67,-3.74,-0.15,5.98
15.939756870269775,-4.2,-3.28,-1.14,5.44
15.942380905151367,-3.74,-3.12,-2.04,5.28
15.955185890197754,-3.31,-3.15,-2.69,5.3
15.962494850158691,-2.76,-3.46,-3.05,5.37
15.972294807434082,-1.91,-3.83,-2.75,5.08
15.982517957687378,-0.7,-4.01,-1.85,4.47
15.992182731628418,0.55,-4.25,-1.04,4.4
16.025232791900635,1.59,-4.35,-1.17,4.77
16.02629804611206,2.49,-3.96,-1.38,4.87
16.027118921279907,3.32,-3.02,-1.3,4.67
16.039530754089355,4.45,-2.03,-0.69,4.93
16.041614055633545,6.09,-0.83,1.12,6.24
16.05530095100403,7.48,0.19,2.54,7.9
16.061569929122925,8.05,0.92,3.11,8.67
16.072329998016357,8.14,1.99,3.07,8.92
16.08179807662964,8.57,3.6,2.44,9.61
16.091472864151,10.38,5.01,1.41,11.61
16.13173484802246,13.26,6.04,0.13,14.57
16.13297986984253,16.4,7.15,-0.8,17.9
16.133792877197266,19.14,7.34,-1.86,20.58
16.135872840881348,21.64,6.38,-1.65,22.62
16.1408429145813,24.15,4.57,-0.15,24.57
16.151566982269287,25.64,2.0,2.36,25.82
16.160786867141724,23.51,-0.02,4.25,23.89
16.170557975769043,14.36,4.93,4.61,15.86
16.180726051330566,3.06,-0.92,1.09,3.37
16.190776824951172,-9.59,-3.97,-6.27,12.12
16.22847080230713,-17.36,14.65,-9.96,24.8
16.229479789733887,-15.82,41.13,4.93,44.34
16.230342864990234,-15.55,30.61,-2.28,34.4
16.232470989227295,-4.8,5.68,-6.1,9.61
16.239956855773926,4.06,0.22,1.12,4.21
16.255615949630737,6.63,-8.12,4.68,11.48
16.260039806365967,9.16,-12.19,2.34,15.42
16.2722749710083,11.14,-12.08,0.12,16.43
16.27999186515808,12.16,-7.86,1.93,14.6
16.2900447845459,9.43,-2.01,2.3,9.91
16.32902693748474,3.77,0.31,-0.57,3.82
16.33014678955078,-0.51,2.45,-1.68,3.01
16.331058025360107,-3.03,4.18,-2.2,5.61
16.335867881774902,-4.1,3.34,-1.24,5.43
16.355572938919067,-1.73,1.27,0.81,2.29
16.356623888015747,1.39,-1.05,0.33,1.77
16.372039794921875,2.54,-1.95,0.11,3.2
16.373081922531128,1.48,-1.36,-0.19,2.01
16.388253927230835,0.26,-0.11,-0.1,0.29
16.389752864837646,0.09,0.4,0.24,0.47
16.43445086479187,0.52,0.07,0.29,0.59
16.435651779174805,0.77,-0.26,-0.06,0.81
16.43664288520813,0.69,-0.29,-0.44,0.86
16.45603084564209,0.57,-0.04,-0.24,0.61
16.457071781158447,0.45,0.08,0.55,0.71
16.472192764282227,0.28,-0.07,1.08,1.11
16.47323179244995,0.04,-0.17,0.74,0.76
16.489151000976562,-0.15,0.09,0.01,0.17
16.490604877471924,-0.19,0.33,-0.61,0.71
16.505568981170654,-0.17,0.38,-0.71,0.82
16.507046937942505,-0.14,0.3,-0.3,0.44
16.556199073791504,-0.11,0.18,-0.07,0.22
16.55739688873291,-0.12,0.21,-0.03,0.24
16.55840492248535,-0.29,0.45,0.18,0.56
16.57354974746704,-0.53,0.6,0.18,0.82
16.574553966522217,-0.64,0.57,-0.02,0.85
16.58864402770996,-0.8,0.55,-0.21,0.99
16.589784860610962,-1.04,0.58,-0.44,1.26
16.606096744537354,-1.22,0.7,-0.59,1.52
16.607569932937622,-1.24,0.82,-0.79,1.68
16.621779918670654,-1.27,0.94,-0.91,1.82
16.654921054840088,-1.42,1.16,-0.88,2.03
16.65634775161743,-1.7,1.28,-1.02,2.35
16.65729594230652,-2.19,1.51,-0.9,2.8
16.6737117767334,-2.3,1.81,-0.92,3.06
16.674798011779785,-2.23,1.94,-0.9,3.08
16.689005851745605,-2.15,2.41,-0.69,3.3
16.690086841583252,-2.3,2.54,-0.71,3.49
16.70603585243225,-2.43,2.88,-0.67,3.82
16.707464933395386,-2.57,3.25,-0.67,4.19
16.721555948257446,-2.67,3.6,-0.71,4.53
16.7536199092865,-2.95,3.77,-1.02,4.89
16.75492787361145,-3.56,4.04,-1.37,5.55
16.755913734436035,-4.29,4.68,-1.67,6.56
16.773212909698486,-5.09,5.64,-1.89,7.82
16.774276733398438,-6.03,7.55,-1.47,9.77
16.78786277770996,-7.3,10.16,-1.98,12.66
16.788944959640503,-9.07,11.58,-4.73,15.45
16.804581880569458,-10.68,11.87,-6.33,17.17
16.805649757385254,-11.57,12.08,-6.54,17.96
16.821626901626587,-11.83,11.47,-7.37,18.05
16.850855827331543,-12.17,10.74,-8.47,18.3
16.85203790664673,-10.82,14.2,-5.92,18.8
16.852829933166504,-5.52,19.08,-5.16,20.52
16.872923851013184,-0.06,16.21,-8.81,18.44
16.87399387359619,2.4,8.64,-7.69,11.81
16.88779306411743,0.07,2.11,-5.06,5.48
16.888840913772583,-3.47,-2.63,-2.95,5.25
16.905752897262573,-0.56,-1.71,-2.58,3.14
16.906775951385498,5.62,0.01,3.05,6.39
16.922060012817383,3.47,-4.01,1.21,5.43
16.95271873474121,-3.83,-4.21,-3.05,6.45
16.953929901123047,-8.28,-2.59,-0.01,8.67
16.954731941223145,-10.99,-2.26,-0.04,11.22
16.973517894744873,-13.22,-2.63,-0.77,13.5
16.97457504272461,-13.93,-3.08,-0.07,14.26
16.989261865615845,-11.84,-3.52,1.41,12.43
16.990275859832764,-8.22,-4.44,2.8,9.75
17.005895853042603,-5.84,-6.05,3.12,8.96
17.00693702697754,-4.87,-7.2,3.11,9.23
17.02189874649048,-4.77,-7.05,2.99,9.02
17.05198097229004,-4.99,-6.03,2.28,8.15
17.0532648563385,-5.02,-5.24,0.96,7.31
17.054079055786133,-4.65,-4.58,-0.56,6.55
17.073160886764526,-3.84,-3.9,-1.69,5.72
17.074184894561768,-2.77,-3.54,-2.33,5.06
17.089228868484497,-1.7,-3.61,-2.66,4.79
17.090274810791016,-1.05,-4.21,-2.53,5.02
17.105912923812866,-1.24,-5.2,-1.95,5.69
17.106950759887695,-1.82,-6.04,-1.11,6.4
17.121779918670654,-2.25,-6.49,-0.47,6.88
17.151771068572998,-2.31,-6.55,0.15,6.94
17.15295386314392,-1.86,-6.61,0.63,6.89
17.153762817382812,-1.06,-6.46,1.3,6.67
17.17345905303955,-0.3,-5.95,1.67,6.18
17.174510955810547,0.59,-5.06,1.33,5.26
17.18929886817932,2.04,-3.69,0.97,4.32
17.190310955047607,4.24,-1.95,0.94,4.76
17.205894947052002,6.78,-0.34,1.05,6.86
17.20693874359131,9.69,1.26,1.62,9.9
17.221958875656128,11.85,3.08,1.95,12.39
17.25319004058838,12.91,5.04,1.69,13.96
17.25444507598877,14.2,6.2,1.73,15.59
17.255461931228638,15.74,6.57,1.65,17.13
17.273420810699463,17.21,6.81,2.27,18.64
17.27448797225952,18.08,6.31,2.35,19.29
17.28922700881958,18.45,5.89,2.24,19.49
17.290283918380737,18.42,5.47,2.16,19.33
17.30638599395752,17.51,4.3,2.29,18.17
17.307888984680176,15.09,4.63,2.12,15.92
17.321786880493164,9.39,7.21,0.62,11.85
17.323259830474854,-0.94,-2.9,-4.34,5.3
17.3707537651062,-13.65,-1.16,-11.66,17.98
17.371946811676025,-16.76,23.23,-7.18,29.53
17.372995853424072,-12.94,39.63,9.56,42.77
17.390339851379395,-10.19,18.28,-0.77,20.94
17.391417026519775,-2.83,-0.46,-1.42,3.19
17.406081914901733,4.14,-2.63,2.26,5.4
17.407126903533936,9.58,-4.61,3.7,11.25
17.42310094833374,11.32,-8.61,2.16,14.38
17.42455792427063,11.66,-8.09,-0.4,14.19
17.43867778778076,10.01,-3.93,-0.04,10.75
17.470128059387207,5.86,-0.42,0.24,5.87
17.471542835235596,1.69,1.02,-1.84,2.69
17.472554922103882,-0.78,2.56,-2.83,3.89
17.49143695831299,-2.07,3.21,-1.68,4.17
17.492503881454468,-1.14,1.91,0.65,2.31
17.50539779663086,0.95,-0.48,1.23,1.62
17.50645875930786,2.08,-1.9,1.07,3.01
17.52326774597168,1.66,-1.64,0.72,2.44
17.524690866470337,0.29,-0.51,0.49,0.76
17.538716793060303,-0.4,0.3,0.47,0.68
17.568542003631592,-0.07,0.15,0.45,0.47
17.569689750671387,0.58,-0.36,0.45,0.81
17.5704288482666,0.87,-0.61,0.06,1.06
17.586423873901367,0.93,-0.23,-0.43,1.05
17.58743691444397,0.85,0.19,-0.52,1.01
17.603193759918213,0.53,0.25,-0.12,0.59
17.604208946228027,0.02,0.1,0.23,0.25
17.619669914245605,-0.46,0.0,0.24,0.51
17.620662927627563,-0.72,0.21,0.17,0.76
17.636615753173828,-0.63,0.33,-0.22,0.74
17.666889905929565,-0.47,0.24,-0.65,0.83
17.668159008026123,-0.55,0.37,-0.67,0.94
17.668986797332764,-0.72,0.52,-0.71,1.13
17.690289974212646,-0.83,0.55,-0.84,1.3
17.691333770751953,-0.84,0.67,-0.65,1.25
17.70656394958496,-0.76,0.63,-0.3,1.03
17.707560062408447,-0.84,0.41,-0.26,0.97
17.723104000091553,-1.02,0.37,-0.42,1.16
17.72414994239807,-1.11,0.48,-0.58,1.34
17.738786935806274,-1.15,0.56,-0.65,1.43
17.76801300048828,-0.98,0.56,-0.61,1.28
17.769105911254883,-0.59,0.54,-0.48,0.93
17.769924879074097,-0.25,0.56,-0.29,0.67
17.790324926376343,-0.17,0.67,-0.19,0.71
17.79136896133423,-0.37,0.8,-0.2,0.9
17.806440830230713,-0.74,0.91,-0.07,1.17
17.807538986206055,-1.16,1.17,0.19,1.65
17.823015928268433,-1.63,1.4,0.15,2.15
17.82406187057495,-2.06,1.8,0.12,2.73
17.838927745819092,-2.16,2.08,-0.37,3.02
17.867207050323486,-1.76,2.63,-0.48,3.2
17.868347883224487,-1.57,2.6,-0.41,3.06
17.869153022766113,-1.75,2.66,-0.43,3.21
17.890660762786865,-2.26,2.55,-0.92,3.52
17.891698837280273,-2.71,2.75,-1.3,4.07
17.906935930252075,-3.19,3.12,-1.62,4.74
17.9080228805542,-3.65,3.81,-1.74,5.55
17.92365789413452,-4.17,4.8,-1.81,6.61
17.925128936767578,-4.91,6.19,-1.71,8.08
17.937807083129883,-6.05,8.12,-1.76,10.27
17.967737913131714,-7.53,9.93,-2.35,12.68
17.969031810760498,-9.38,11.19,-3.51,15.01
17.969807863235474,-11.13,11.79,-4.64,16.86
17.990495920181274,-12.19,12.02,-5.53,17.99
17.991570949554443,-12.71,11.61,-6.89,18.54
18.006473064422607,-12.91,11.54,-7.87,19.02
18.007551908493042,-10.88,14.49,-5.5,18.93
18.023406982421875,-4.78,17.8,-5.18,19.14
18.02444076538086,1.23,14.96,-7.86,16.94
18.03909397125244,3.46,7.97,-5.89,10.49
18.066555976867676,0.57,1.61,-4.59,4.89
18.067769050598145,-3.63,-2.44,-2.32,4.95
18.068556785583496,0.22,0.55,-0.44,0.73
18.070931911468506,6.49,1.28,4.2,7.83
18.07213592529297,4.01,-3.47,-0.06,5.3
18.07331895828247,-2.83,-3.5,-3.21,5.52
18.074512004852295,-7.09,-1.89,0.36,7.34
18.076180934906006,-9.85,-1.93,0.0,10.03
18.08642578125,-11.8,-2.4,-0.46,12.05
18.096422910690308,-12.04,-3.01,0.02,12.41
18.106384754180908,-10.08,-3.76,1.4,10.84
18.133546829223633,-7.83,-4.9,2.81,9.65
18.134408950805664,-6.71,-6.3,3.52,9.85
18.13584804534912,-6.37,-7.23,4.04,10.44
18.155276775360107,-6.33,-7.38,3.93,10.48
18.15610694885254,-6.32,-7.02,3.0,9.91
18.173308849334717,-6.35,-6.5,1.85,9.27
18.175699949264526,-6.32,-5.69,0.69,8.53
18.189815044403076,-6.28,-5.14,-0.16,8.11
18.195551872253418,-6.08,-4.97,-0.47,7.86
18.20539093017578,-5.6,-5.27,-0.41,7.7
18.23506784439087,-4.97,-5.96,-0.23,7.76
18.236196041107178,-4.27,-6.64,0.03,7.89
18.23702096939087,-3.64,-7.15,0.26,8.02
18.256603956222534,-3.21,-7.52,0.48,8.19
18.257410049438477,-2.94,-7.58,0.77,8.16
18.273194789886475,-2.74,-7.19,1.0,7.75
18.274940013885498,-2.32,-6.33,1.51,6.9
18.28991985321045,-1.27,-5.13,1.84,5.59
18.294747829437256,0.78,-3.98,1.23,4.23
18.304674863815308,3.1,-2.79,0.75,4.23
18.336081981658936,4.89,-0.95,0.73,5.03
18.337175846099854,6.7,1.98,1.5,7.14
18.337987899780273,9.08,5.42,1.86,10.73
18.35688591003418,11.81,7.7,0.9,14.12
18.357898950576782,14.79,9.25,0.21,17.44
18.373365879058838,17.63,10.8,-0.09,20.67
18.374501943588257,19.79,11.48,-0.32,22.88
18.389396905899048,21.59,10.87,-0.01,24.17
18.394360065460205,22.76,8.84,-0.3,24.41
18.404263973236084,22.56,6.69,0.51,23.53
18.435354948043823,18.85,11.25,0.82,21.96
18.436457872390747,11.7,5.0,-3.87,13.29
18.43724489212036,-2.03,-4.98,-7.12,8.92
18.456982851028442,-13.61,11.75,-10.02,20.58
18.458049774169922,-13.03,39.14,3.52,41.4
18.474185943603516,-13.24,30.41,3.54,33.35
18.47520875930786,-5.94,2.26,-2.5,6.82
18.48975706100464,1.24,-3.94,2.33,4.74
18.493349075317383,7.11,-5.66,4.39,10.09
18.505332946777344,10.26,-9.1,2.7,13.97
18.541547775268555,11.96,-9.14,0.17,15.05
18.542826890945435,11.01,-3.66,0.57,11.61
18.543646812438965,6.46,0.39,0.1,6.47
18.557222843170166,1.81,0.64,-2.19,2.91
18.558271884918213,-1.07,1.27,-3.88,4.22
18.57327699661255,-2.56,2.48,-2.15,4.16
18.574305057525635,-1.72,1.99,1.95,3.27
18.590195894241333,0.58,-0.36,2.85,2.93
18.592589855194092,2.09,-2.01,1.67,3.34
18.605740070343018,2.1,-1.68,0.09,2.69
18.64073395729065,1.06,-0.34,-0.54,1.23
18.64195203781128,0.22,0.28,-0.25,0.43
18.642762899398804,0.11,-0.07,-0.13,0.18
18.65706491470337,0.52,-0.29,-0.08,0.6
18.658116817474365,0.97,-0.1,-0.27,1.01
18.67328977584839,1.07,-0.01,-0.52,1.18
18.674327850341797,0.77,0.11,-0.13,0.78
18.690074920654297,0.25,0.19,0.54,0.62
18.691810846328735,-0.12,0.16,0.77,0.79
18.705962896347046,-0.26,0.09,0.39,0.47
18.739418029785156,-0.31,0.14,0.0,0.34
18.740484952926636,-0.41,0.27,-0.31,0.58
18.741317749023438,-0.42,0.23,-0.64,0.79
18.757370948791504,-0.24,0.11,-0.85,0.89
18.758436918258667,-0.19,0.1,-0.6,0.63
18.773430824279785,-0.38,0.22,-0.21,0.48
18.77448272705078,-0.51,0.35,0.05,0.62
18.781070947647095,-0.42,0.45,0.11,0.62
18.791409015655518,-0.25,0.44,0.03,0.5
18.80101203918457,-0.24,0.35,-0.01,0.42
18.839690923690796,-0.29,0.28,0.04,0.4
18.840771913528442,-0.29,0.19,0.21,0.4
18.84145188331604,-0.21,0.06,0.18,0.28
18.85735273361206,-0.04,-0.07,-0.14,0.16
18.858404874801636,0.1,0.0,-0.34,0.35
18.873313903808594,0.01,0.16,-0.47,0.49
18.87436294555664,-0.27,0.35,-0.39,0.58
18.889983892440796,-0.67,0.67,-0.12,0.95
18.890984058380127,-1.15,0.94,-0.04,1.48
18.9059100151062,-1.59,1.19,0.06,1.98
18.910560846328735,-2.07,1.48,0.21,2.55
18.951573848724365,-2.19,1.7,0.11,2.77
18.952754020690918,-1.72,1.68,-0.4,2.43
18.953738927841187,-1.24,1.86,-1.11,2.49
18.974456787109375,-1.25,2.14,-1.47,2.88
18.97548794746399,-1.56,2.58,-0.93,3.15
18.99018692970276,-2.04,2.79,-0.62,3.51
18.9911949634552,-2.3,2.8,-0.73,3.69
19.007221937179565,-2.4,2.93,-0.75,3.86
19.008687019348145,-2.66,3.44,-0.64,4.39
19.02245283126831,-3.22,4.06,-0.8,5.24
19.053363800048828,-4.01,4.79,-0.93,6.31
19.054691791534424,-5.02,6.34,-0.82,8.12
19.055552005767822,-6.46,8.21,-1.58,10.56
19.074419021606445,-8.03,9.64,-3.49,13.02
19.075485944747925,-9.5,10.64,-4.81,15.05
19.088901042938232,-10.96,11.29,-5.06,16.52
19.089987754821777,-11.98,11.78,-4.97,17.52
19.103944778442383,-12.87,11.6,-5.05,18.04
19.105018854141235,-12.99,12.0,-4.13,18.16
19.12045383453369,-10.26,13.74,-3.31,17.46
19.147984981536865,-3.93,13.58,-6.3,15.47
19.149128913879395,2.74,12.04,-7.98,14.7
19.15002679824829,5.22,8.02,-3.19,10.08
19.15273094177246,1.71,2.04,-2.57,3.7
19.17392873764038,-3.19,-2.06,-1.79,4.19
19.174988746643066,-1.92,-2.22,-2.78,4.04
19.19018793106079,5.49,1.61,-0.56,5.74
19.191223859786987,6.34,-0.9,0.46,6.42
19.20590305328369,-0.62,-2.25,-4.58,5.14
19.207873821258545,-6.0,-1.29,-1.84,6.4
19.250370979309082,-9.16,-1.31,-1.32,9.34
19.251340866088867,-11.69,-1.96,-2.21,12.05
19.25211477279663,-12.44,-2.97,-1.66,12.89
19.254250049591064,-10.48,-3.88,0.24,11.17
19.257654905319214,-7.49,-4.78,2.01,9.1
19.267483949661255,-5.53,-6.06,2.6,8.6
19.27766489982605,-4.52,-6.77,2.61,8.54
19.28794574737549,-4.18,-6.41,2.14,7.94
19.29743790626526,-4.18,-5.56,1.14,7.04
19.307363986968994,-4.38,-4.8,-0.2,6.5
19.344579935073853,-4.51,-4.13,-1.44,6.28
19.345688819885254,-4.33,-3.75,-2.27,6.16
19.34652805328369,-3.71,-3.77,-2.72,5.94
19.357558727264404,-2.92,-4.21,-2.61,5.75
19.358617782592773,-2.42,-5.07,-2.12,6.0
19.37374782562256,-2.25,-5.96,-1.57,6.56
19.37667489051819,-2.28,-6.54,-1.06,7.0
19.3902530670166,-2.32,-6.94,-0.8,7.36
19.396557807922363,-2.19,-7.21,-0.68,7.56
19.406667947769165,-2.03,-7.26,-0.45,7.55
19.444233894348145,-2.03,-7.09,-0.25,7.37
19.445490837097168,-2.05,-6.35,0.3,6.67
19.446491956710815,-1.85,-5.37,0.66,5.71
19.457869052886963,-0.82,-4.69,0.67,4.8
19.45894193649292,1.34,-4.06,0.48,4.3
19.473923921585083,3.9,-3.14,0.21,5.01
19.47584295272827,6.35,-1.78,0.25,6.59
19.489702939987183,8.35,-0.25,0.51,8.36
19.495957851409912,9.99,1.21,1.01,10.11
19.5060977935791,11.32,2.45,1.05,11.62
19.543742895126343,12.86,3.25,0.83,13.29
19.545085906982422,14.25,3.98,-0.07,14.79
19.545921802520752,15.45,5.58,-0.21,16.42
19.55756688117981,16.87,6.86,-0.55,18.21
19.558624744415283,18.71,7.2,-0.8,20.06
19.573930740356445,20.25,6.57,-1.14,21.31
19.57503890991211,21.35,5.08,0.32,21.94
19.589890003204346,17.85,6.69,2.57,19.23
19.595074892044067,7.02,8.35,2.81,11.26
19.606096744537354,-6.15,-0.69,-2.86,6.81
19.64364194869995,-16.92,11.17,-8.67,22.05
19.644959926605225,-16.93,38.57,2.45,42.19
19.645805835723877,-16.46,32.82,2.75,36.81
19.65810990333557,-7.32,2.52,-5.01,9.22
19.6591477394104,3.28,-0.23,0.77,3.37
19.67399787902832,8.87,-2.95,4.44,10.34
19.675062894821167,10.32,-8.4,4.18,13.94
19.69017791748047,10.36,-10.11,-0.1,14.47
19.69431495666504,10.0,-7.09,-1.04,12.3
19.705827951431274,7.29,-1.49,0.12,7.44
19.71471881866455,2.93,1.12,-1.43,3.44
19.751733779907227,-0.17,1.89,-3.33,3.83
19.752951860427856,-1.61,2.39,-2.51,3.82
19.753936767578125,-0.91,1.99,1.34,2.56
19.77495789527893,0.84,0.3,3.82,3.92
19.77599573135376,1.52,-1.74,3.14,3.89
19.79057288169861,1.06,-2.21,1.59,2.92
19.791600942611694,0.37,-0.68,0.11,0.78
19.80752992630005,0.34,0.33,-0.97,1.07
19.80898380279541,0.6,0.37,-1.01,1.23
19.823132038116455,0.74,0.16,-0.31,0.81
19.854424953460693,0.76,-0.06,-0.21,0.79
19.855483055114746,0.85,-0.12,-0.73,1.12
19.85629177093506,0.81,-0.05,-0.94,1.24
19.874499797821045,0.48,0.06,-0.32,0.57
19.87558603286743,-0.16,0.08,0.71,0.73
19.889091968536377,-0.59,0.07,1.37,1.49
19.890116930007935,-0.53,0.15,1.4,1.5
19.9074969291687,-0.12,0.14,0.58,0.6
19.90899085998535,0.33,0.06,-0.46,0.56
19.922910928726196,0.57,0.07,-0.85,1.02
19.952661991119385,0.59,-0.05,-0.83,1.01
19.953990936279297,0.29,-0.08,-0.7,0.76
19.954818964004517,-0.12,0.07,-0.66,0.67
19.97446894645691,-0.39,0.35,-0.34,0.62
19.975523948669434,-0.38,0.43,0.06,0.57
19.990647792816162,-0.11,0.27,0.23,0.37
19.991610050201416,0.0,0.15,0.23,0.27
20.007023811340332,-0.24,0.15,-0.09,0.29
20.007978916168213,-0.7,0.33,-0.49,0.91
20.02288007736206,-1.07,0.58,-0.78,1.44
20.05177092552185,-1.19,0.65,-0.77,1.55
20.05283498764038,-1.03,0.58,-0.57,1.31
20.05362892150879,-0.8,0.45,-0.52,1.05
20.07455086708069,-0.84,0.45,-0.49,1.07
20.075522899627686,-1.02,0.66,-0.51,1.31
20.090552806854248,-1.29,0.85,-0.49,1.62
20.091595888137817,-1.25,1.14,-0.33,1.72
20.107268810272217,-0.94,1.14,-0.24,1.49
20.108256816864014,-0.99,1.09,-0.09,1.47
20.122968912124634,-1.36,1.2,0.01,1.81
20.152469873428345,-1.67,1.21,-0.28,2.08
20.153841972351074,-1.8,1.38,-0.57,2.33
20.15486192703247,-1.64,2.03,-0.8,2.72
20.17468285560608,-1.51,2.35,-1.14,3.01
20.175721883773804,-1.53,2.71,-1.18,3.32
20.19074583053589,-1.81,2.92,-1.28,3.66
20.19177484512329,-2.2,3.18,-1.23,4.05
20.207695960998535,-2.64,3.67,-1.04,4.63
20.209171772003174,-3.33,4.44,-0.94,5.62
20.223248958587646,-4.47,5.73,-0.95,7.32
20.253437995910645,-5.8,7.97,-1.03,9.91
20.254658937454224,-7.11,9.89,-2.43,12.42
20.255472898483276,-8.52,10.65,-4.16,14.25
20.272948741912842,-9.98,11.62,-4.55,15.97
20.274030923843384,-10.88,12.17,-4.69,16.98
20.290710926055908,-11.27,11.36,-5.39,16.88
20.291718006134033,-11.51,9.87,-6.36,16.44
20.307450771331787,-11.88,9.47,-6.84,16.66
20.308488845825195,-10.21,12.95,-4.81,17.17
20.323453903198242,-4.61,16.75,-5.46,18.21
20.35432195663452,0.71,13.72,-8.28,16.04
20.355741024017334,2.37,6.74,-6.29,9.51
20.356756925582886,-0.35,0.76,-4.01,4.09
20.374557971954346,-3.79,-3.53,-1.72,5.45
20.375627040863037,-0.41,-2.3,-1.46,2.75
20.389484882354736,6.16,0.04,2.61,6.69
20.390517950057983,4.44,-3.38,0.95,5.66
20.407696962356567,-2.68,-4.1,-3.09,5.79
20.40916895866394,-7.25,-2.53,-0.05,7.67
20.42317295074463,-9.99,-1.98,-0.31,10.18
20.452871799468994,-12.1,-2.24,-1.45,12.39
20.45422077178955,-12.17,-2.83,-0.93,12.52
20.45524787902832,-9.44,-3.48,0.68,10.08
20.47483777999878,-6.64,-4.74,2.1,8.42
20.475886821746826,-5.42,-6.42,2.63,8.8
20.490534782409668,-5.1,-7.12,2.95,9.24
20.491586923599243,-5.07,-7.09,2.78,9.14
20.507943868637085,-5.0,-6.73,2.01,8.62
20.509408950805664,-4.95,-6.23,1.06,8.02
20.52362298965454,-4.88,-5.77,0.11,7.55
20.525073051452637,-4.71,-5.56,-0.67,7.31
20.569822788238525,-4.68,-5.76,-1.14,7.5
20.571005821228027,-4.81,-6.19,-1.1,7.91
20.57200789451599,-4.85,-6.62,-0.6,8.22
20.591376781463623,-4.62,-7.04,0.11,8.42
20.59239387512207,-4.06,-7.53,0.61,8.57
20.60737895965576,-3.45,-7.9,0.79,8.65
20.608747005462646,-3.03,-7.85,0.8,8.45
20.62464475631714,-2.86,-7.25,0.76,7.83
20.626121997833252,-2.89,-6.32,1.06,7.02
20.640932083129883,-2.75,-5.0,1.58,5.92
20.67211389541626,-1.52,-3.16,1.85,3.96
20.673415899276733,1.03,-1.48,1.55,2.37
20.67441701889038,4.06,0.12,0.83,4.14
20.69149875640869,6.99,2.58,0.52,7.46
20.69255304336548,9.45,5.53,0.59,10.96
20.70733880996704,11.41,8.07,0.28,13.97
20.708411931991577,13.54,9.86,-0.04,16.74
20.72114086151123,16.02,10.47,-0.05,19.13
20.722704887390137,17.94,10.58,0.14,20.82
20.74045991897583,19.37,11.16,1.69,22.41
20.77227783203125,20.3,10.48,2.55,22.98
20.773621082305908,20.06,8.65,2.87,22.03
20.77465581893921,18.02,11.26,1.73,21.31
20.791876792907715,16.02,6.86,-3.22,17.72
20.792914867401123,5.7,-6.94,-9.51,13.08
20.80762004852295,-8.99,-0.66,-11.38,14.51
20.808698892593384,-14.05,30.88,-0.49,33.92
20.824488878250122,-13.28,44.07,6.13,46.43
20.825979948043823,-5.84,8.95,-2.86,11.06
20.840202808380127,3.58,-0.7,-0.02,3.64
20.87240505218506,5.77,-8.56,1.83,10.48
20.87374782562256,8.5,-12.71,2.1,15.43
20.874743938446045,11.06,-10.76,2.57,15.64
20.891544818878174,10.85,-4.87,3.64,12.43
20.892562866210938,6.56,-0.21,2.26,6.94
20.907615900039673,2.06,0.89,-0.48,2.29
20.908654928207397,-0.95,1.7,-2.77,3.38
20.924171924591064,-2.27,2.7,-2.59,4.37
20.92523193359375,-1.69,2.13,-0.15,2.72
20.940167903900146,0.52,0.18,1.55,1.64
20.97108292579651,2.41,-1.74,1.49,3.32
20.972389936447144,2.55,-2.05,0.8,3.36
20.973371028900146,1.24,-0.9,-0.2,1.54
20.9917209148407,0.36,0.09,-0.58,0.68
20.992764949798584,0.37,0.29,-0.14,0.49
21.007585048675537,0.63,-0.18,0.2,0.68
21.008567810058594,0.71,-0.16,0.49,0.87
21.02495574951172,0.52,0.13,0.34,0.63
21.026418924331665,0.41,0.22,0.1,0.47
21.04025387763977,0.42,0.21,0.06,0.47
21.07029891014099,0.47,-0.02,-0.07,0.47
21.07148504257202,0.26,-0.04,0.15,0.3
21.07250690460205,-0.13,0.01,0.21,0.24
21.091283798217773,-0.41,0.06,0.01,0.41
21.09233283996582,-0.49,0.31,-0.34,0.67
21.107699871063232,-0.28,0.35,-0.67,0.8
21.10871982574463,0.06,0.21,-0.65,0.68
21.124463081359863,0.05,0.02,-0.17,0.17
21.125689029693604,-0.2,0.03,0.27,0.33
21.140522003173828,-0.46,0.25,0.44,0.68
21.169477939605713,-0.57,0.48,0.22,0.77
21.17083501815796,-0.53,0.57,0.07,0.78
21.17179775238037,-0.43,0.56,0.02,0.7
21.188896894454956,-0.45,0.33,-0.13,0.57
21.18991184234619,-0.54,0.17,-0.44,0.71
21.20486092567444,-0.58,0.13,-0.66,0.88
21.205873012542725,-0.62,0.26,-0.72,0.98
21.22150993347168,-0.63,0.45,-0.64,1.0
21.22296380996704,-0.66,0.56,-0.71,1.11
21.23825192451477,-0.83,0.61,-0.8,1.3
21.266890048980713,-1.09,0.76,-0.77,1.53
21.26825475692749,-1.34,0.92,-0.6,1.73
21.269275903701782,-1.48,1.09,-0.47,1.89
21.271812915802002,-1.6,1.34,-0.44,2.13
21.273184776306152,-1.76,1.8,-0.4,2.54
21.274504899978638,-1.73,1.98,-0.62,2.7
21.28223991394043,-1.75,2.23,-0.65,2.9
21.292739868164062,-1.81,2.74,-0.7,3.35
21.302413940429688,-2.06,3.0,-1.13,3.81
21.312519073486328,-2.32,3.65,-1.45,4.56
21.322345733642578,-2.82,4.45,-1.38,5.44
21.351089000701904,-3.59,5.42,-1.13,6.59
21.35202407836914,-4.59,6.5,-0.96,8.01
21.352803945541382,-5.75,7.81,-0.68,9.72
21.361947059631348,-7.01,9.72,-0.81,12.01
21.371895790100098,-8.36,10.81,-2.65,13.92
21.38184094429016,-9.86,11.28,-4.59,15.66
21.392141819000244,-11.26,11.75,-5.66,17.23
21.401484966278076,-11.96,11.66,-6.06,17.76
21.411251068115234,-12.23,10.88,-6.52,17.61
21.421767950057983,-12.67,10.17,-7.27,17.79
21.45138692855835,-11.87,13.08,-5.55,18.51
21.452334880828857,-7.08,17.86,-4.86,19.81
21.453362941741943,-0.5,16.71,-9.1,19.03
21.461129903793335,2.66,9.72,-8.18,12.97
21.471313953399658,0.74,2.96,-5.26,6.08
21.481149911880493,-3.45,-2.29,-2.83,5.01
21.49113893508911,-1.56,-2.4,-2.16,3.58
21.500947952270508,5.79,0.51,2.05,6.16
21.51084804534912,5.36,-3.04,1.27,6.29
21.521228790283203,-2.12,-3.98,-4.23,6.18
21.554282903671265,-7.35,-2.37,-1.21,7.81
21.555277824401855,-10.52,-1.7,-1.12,10.71
21.55608892440796,-13.41,-1.99,-2.33,13.75
21.57531189918518,-14.86,-2.6,-1.46,15.15
21.57638692855835,-13.55,-3.52,0.7,14.01
21.591157913208008,-10.0,-4.77,2.42,11.34
21.592203855514526,-7.26,-6.28,2.74,9.98
21.608730792999268,-5.99,-7.2,2.54,9.7
21.610214948654175,-5.62,-6.87,2.59,9.24
21.62389087677002,-5.92,-6.15,2.0,8.76
21.653905868530273,-6.33,-5.86,0.84,8.66
21.655213832855225,-6.35,-5.43,-0.3,8.36
21.656187057495117,-6.01,-4.89,-1.26,7.84
21.675256729125977,-5.65,-4.55,-1.94,7.5
21.67628788948059,-5.19,-4.51,-1.96,7.14
21.69117784500122,-4.59,-4.95,-1.45,6.9
21.692210912704468,-3.77,-5.9,-0.64,7.03
21.708430767059326,-2.85,-6.83,-0.18,7.4
21.709848880767822,-1.95,-7.52,-0.16,7.77
21.724063873291016,-1.55,-7.67,-0.02,7.82
21.758102893829346,-1.77,-7.12,0.48,7.35
21.759418964385986,-1.86,-6.23,1.32,6.63
21.760427951812744,-0.83,-4.69,1.9,5.12
21.772990942001343,1.66,-2.93,1.14,3.55
21.77399206161499,4.89,-0.79,0.66,4.99
21.787964820861816,8.77,2.13,0.74,9.05
21.788962841033936,13.28,5.54,1.28,14.44
21.805552005767822,16.8,8.4,1.31,18.82
21.80873990058899,19.35,9.77,1.27,21.71
21.821407794952393,21.2,8.96,0.55,23.02
21.85684084892273,23.27,8.02,0.58,24.62
21.858154773712158,25.13,7.3,-0.28,26.17
21.85917377471924,26.13,5.43,-0.67,26.69
21.87624979019165,24.64,3.34,-0.02,24.86
21.877320766448975,18.19,8.84,0.12,20.22
21.891406059265137,6.49,0.06,-3.66,7.45
21.892448902130127,-8.54,1.19,-9.37,12.73
21.908610820770264,-13.62,35.26,-7.98,38.63
21.910111904144287,-15.32,51.37,4.86,53.82
21.92402982711792,-9.11,10.71,-5.94,15.26
21.956198930740356,3.28,-1.18,-3.46,4.91
21.957601070404053,6.64,-9.48,5.52,12.82
21.958626747131348,10.55,-13.33,7.82,18.71
21.975533962249756,13.05,-12.64,5.56,18.99
21.976627826690674,11.8,-7.85,4.71,14.93
21.991848945617676,6.21,-2.73,3.14,7.47
21.9928879737854,1.31,0.35,-0.13,1.36
22.008689880371094,-1.3,3.32,-4.86,6.02
22.010169982910156,-2.35,4.43,-5.36,7.34
22.024133920669556,-1.94,2.98,-1.3,3.78
22.05777072906494,0.56,0.38,1.24,1.41
22.059147834777832,2.41,-1.6,0.94,3.04
22.060157775878906,2.42,-1.89,-0.51,3.11
22.07559585571289,1.04,-0.41,-1.21,1.64
22.076627731323242,0.02,0.44,-0.58,0.72
22.091548919677734,0.2,0.31,0.35,0.5
22.092622756958008,0.78,-0.07,0.62,0.99
22.10835075378418,0.74,-0.06,0.35,0.82
22.10980987548828,0.35,0.36,0.22,0.54
22.122904777526855,0.05,0.39,0.16,0.42
22.1264328956604,-0.01,-0.03,0.03,0.04
22.171349048614502,0.17,-0.21,-0.19,0.33
22.17253088951111,0.31,-0.04,-0.36,0.47
22.17354393005371,0.35,-0.05,-0.75,0.82
22.192322731018066,0.17,0.06,-0.67,0.69
22.193363904953003,-0.21,0.43,0.08,0.48
22.207976818084717,-0.54,0.44,0.48,0.84
22.208981037139893,-0.54,0.37,0.45,0.79
22.225234985351562,-0.43,0.36,0.12,0.57
22.22664499282837,-0.3,0.49,-0.26,0.63
22.240790843963623,-0.25,0.66,-0.31,0.77
22.2722110748291,-0.3,0.65,-0.23,0.75
22.27354383468628,-0.41,0.58,-0.11,0.71
22.27454900741577,-0.52,0.57,0.01,0.77
22.292096853256226,-0.64,0.53,0.16,0.84
22.293160915374756,-0.92,0.4,0.15,1.01
22.308165073394775,-1.01,0.37,0.07,1.07
22.309135913848877,-0.91,0.39,-0.42,1.07
22.32453680038452,-0.8,0.93,-0.76,1.44
22.326032876968384,-0.77,1.31,-1.13,1.89
22.339653968811035,-1.17,1.67,-0.88,2.22
22.367387771606445,-1.85,1.86,-0.52,2.67
22.368680953979492,-2.33,1.92,-0.29,3.03
22.36971688270569,-2.38,1.93,-0.26,3.07
22.371887922286987,-2.11,1.94,-0.32,2.88
22.37400197982788,-1.87,1.8,-0.99,2.77
22.38407802581787,-1.79,1.83,-1.6,3.01
22.394137859344482,-1.96,2.26,-1.65,3.41
22.4041690826416,-2.4,2.88,-1.36,3.98
22.41425085067749,-2.94,3.38,-1.25,4.65
22.424352884292603,-3.57,3.86,-1.0,5.35
22.45513892173767,-4.43,4.52,-0.98,6.4
22.456313848495483,-5.39,5.37,-1.15,7.69
22.45711588859558,-6.36,7.25,-1.16,9.71
22.475743770599365,-7.2,8.73,-2.78,11.65
22.47686195373535,-8.25,9.32,-4.65,13.28
22.490351915359497,-9.33,9.81,-5.15,14.48
22.493342876434326,-10.16,9.98,-5.45,15.24
22.50850486755371,-10.95,9.58,-6.19,15.81
22.513470888137817,-11.15,11.24,-5.94,16.9
22.52405881881714,-8.72,16.18,-5.21,19.1
22.56169891357422,-2.99,18.4,-7.76,20.19
22.563110828399658,1.69,14.67,-9.6,17.61
22.56413173675537,2.54,9.17,-6.49,11.51
22.575832843780518,-1.32,3.63,-4.39,5.84
22.576889038085938,-4.94,-0.78,-2.85,5.75
22.591763019561768,-1.67,-1.37,-4.24,4.75
22.592787742614746,6.6,3.87,-1.36,7.77
22.608872890472412,6.34,0.38,0.58,6.37
22.612788915634155,-1.38,-1.15,-2.97,3.47
22.622672080993652,-7.26,-0.76,-0.41,7.31
22.66136407852173,-11.14,-0.37,-0.28,11.14
22.662717819213867,-14.11,-0.63,-1.35,14.18
22.663585901260376,-15.18,-1.68,-0.44,15.27
22.67613697052002,-13.41,-3.23,1.57,13.88
22.677193880081177,-10.11,-5.25,3.17,11.82
22.69177794456482,-7.87,-7.52,3.13,11.32
22.692798852920532,-6.68,-8.61,2.68,11.22
22.708337783813477,-6.19,-8.02,1.95,10.31
22.71173095703125,-6.35,-6.75,1.6,9.4
22.724183082580566,-6.38,-5.76,0.63,8.61
22.75922679901123,-5.83,-4.8,-0.33,7.55
22.760596752166748,-5.08,-4.26,-0.9,6.69
22.761652946472168,-4.38,-4.16,-1.06,6.13
22.776206970214844,-3.71,-4.45,-0.55,5.81
22.77722978591919,-3.57,-4.84,0.53,6.03
22.791791915893555,-2.84,-4.95,1.33,5.85
22.79275608062744,-1.16,-6.01,0.95,6.19
22.808764934539795,-0.97,-7.69,0.3,7.75
22.81124186515808,-1.51,-7.14,0.49,7.31
22.824421882629395,-1.89,-4.81,1.39,5.35
22.857653856277466,-0.69,-3.53,1.63,3.94
22.859020948410034,2.14,-2.97,1.72,4.04
22.86006784439087,5.16,-2.51,1.89,6.04
22.861119747161865,7.89,-1.04,2.3,8.28
22.870646953582764,10.2,1.26,2.53,10.58
22.880881786346436,11.46,3.67,2.56,12.3
22.890517950057983,12.41,5.57,2.25,13.78
22.90057897567749,14.22,6.78,2.37,15.93
22.91047477722168,16.1,7.47,1.85,17.84
22.920639038085938,17.8,8.18,1.18,19.62
22.93049907684326,19.12,8.3,0.16,20.84
22.96273183822632,20.47,8.08,0.58,22.01
22.96408176422119,21.2,6.99,0.92,22.34
22.965171813964844,21.21,4.96,2.17,21.89
22.97621488571167,19.89,2.61,3.49,20.36
22.979747772216797,16.29,1.53,3.54,16.74
22.99158787727356,8.92,2.83,0.03,9.35
22.999988079071045,-2.37,-4.54,-5.77,7.71
23.009525775909424,-16.43,-5.82,-19.39,26.07
23.019831895828247,-24.13,24.98,-16.39,38.4
23.030343055725098,-22.14,56.35,9.6,61.29
23.05749273300171,-15.89,17.86,-2.42,24.02
23.05898094177246,-2.1,-3.8,1.74,4.67
23.059992790222168,4.95,-4.75,5.45,8.76
23.076279878616333,8.86,-8.68,2.2,12.59
23.078948974609375,11.18,-11.09,-0.29,15.75
23.09209680557251,12.54,-8.79,-0.14,15.31
23.09936785697937,11.98,-3.45,1.2,12.52
23.10905885696411,8.37,0.08,0.43,8.38
23.119202852249146,2.7,0.58,-1.95,3.38
23.12881588935852,-1.08,1.72,-1.37,2.44
23.159674882888794,-3.16,2.48,0.22,4.02
23.160994052886963,-2.79,2.06,2.73,4.41
23.162001848220825,-0.32,0.18,2.08,2.11
23.176225900650024,1.71,-1.29,0.09,2.14
23.17837905883789,2.08,-1.03,-1.14,2.58
23.191707849502563,0.97,-0.32,-1.35,1.69
23.198740005493164,0.03,-0.01,-0.79,0.79
23.209136962890625,0.27,-0.15,-0.24,0.39
23.21859073638916,0.88,-0.33,0.14,0.95
23.228321075439453,0.99,-0.38,-0.05,1.06
23.259333848953247,0.68,-0.07,-0.19,0.7
23.260653972625732,0.31,0.24,0.21,0.44
23.261685848236084,0.15,0.15,0.52,0.56
23.276615858078003,0.07,0.08,0.89,0.89
23.27762794494629,-0.19,0.08,0.65,0.68
23.292362928390503,-0.27,0.06,-0.26,0.37
23.297966957092285,-0.11,0.2,-0.82,0.85
23.308846950531006,0.05,0.23,-0.67,0.71
23.317739009857178,0.05,0.27,-0.36,0.45
23.327301025390625,-0.15,-0.02,-0.22,0.26
23.364665985107422,-0.43,0.03,-0.26,0.5
23.366050958633423,-0.54,0.33,0.1,0.64
23.367069959640503,-0.49,0.44,0.27,0.71
23.368120908737183,-0.24,0.38,0.11,0.46
23.377037048339844,-0.07,0.33,-0.14,0.36
23.386854887008667,-0.13,0.33,-0.19,0.4
23.39703392982483,-0.26,0.3,-0.39,0.55
23.40702795982361,-0.31,0.19,-0.6,0.7
23.41701602935791,-0.34,0.23,-0.33,0.52
23.426843881607056,-0.45,0.37,-0.13,0.59
23.462763786315918,-0.54,0.47,-0.22,0.74
23.463958740234375,-0.5,0.6,-0.38,0.86
23.4649658203125,-0.6,0.73,-0.56,1.09
23.47513198852539,-0.88,0.85,-0.88,1.5
23.476172924041748,-1.42,1.06,-0.82,1.95
23.492361068725586,-1.85,1.46,-0.3,2.37
23.49640703201294,-2.02,1.67,-0.01,2.62
23.509155750274658,-1.77,2.14,0.06,2.77
23.516236782073975,-1.52,2.12,-0.23,2.61
23.52584195137024,-1.54,2.16,-0.39,2.68
23.561936855316162,-1.86,2.3,-0.76,3.05
23.563241004943848,-2.26,2.7,-1.18,3.71
23.564254760742188,-2.59,3.23,-1.49,4.4
23.57601499557495,-2.96,3.72,-1.82,5.09
23.577149868011475,-3.51,4.15,-1.94,5.77
23.59271001815796,-4.35,5.06,-1.83,6.91
23.59553575515747,-5.38,6.52,-1.81,8.64
23.609200954437256,-6.54,8.23,-2.15,10.72
23.61548376083374,-7.74,10.44,-2.76,13.28
23.62510585784912,-9.3,12.22,-4.7,16.05
23.664448738098145,-10.73,12.54,-6.5,17.73
23.665888786315918,-11.59,12.09,-7.43,18.32
23.666944980621338,-11.74,11.71,-8.68,18.71
23.676493883132935,-11.97,11.45,-9.8,19.24
23.67758798599243,-10.43,15.23,-7.34,19.86
23.692020893096924,-4.74,19.9,-7.03,21.63
23.69474506378174,0.9,16.42,-9.69,19.08
23.70895290374756,2.68,8.47,-7.9,11.88
23.714804887771606,-0.89,2.05,-5.62,6.04
23.72473692893982,-4.93,-2.23,-2.12,5.81
23.734498977661133,0.11,1.12,0.03,1.12
23.765219926834106,6.5,1.27,3.65,7.56
23.76643395423889,3.94,-4.14,0.17,5.71
23.76768398284912,-3.23,-4.22,-2.65,5.93
23.77375078201294,-7.79,-2.73,0.37,8.26
23.78386402130127,-10.86,-2.7,-0.51,11.2
23.794044017791748,-12.9,-3.02,-1.26,13.3
23.80398178100586,-12.73,-3.88,-0.51,13.31
23.813851833343506,-9.4,-4.82,0.94,10.6
23.823938846588135,-5.97,-6.15,1.72,8.74
23.833756923675537,-4.29,-7.8,1.69,9.06
23.866064071655273,-3.82,-8.71,1.84,9.68
23.86747980117798,-4.24,-8.74,1.93,9.9
23.868539810180664,-4.86,-8.29,1.63,9.74
23.87302303314209,-5.29,-7.47,0.97,9.2
23.883036851882935,-5.39,-7.03,0.15,8.85
23.893295764923096,-5.34,-6.91,-0.54,8.74
23.903080940246582,-5.26,-7.01,-0.93,8.81
23.91301989555359,-5.19,-6.99,-0.72,8.73
23.923176765441895,-5.31,-7.02,0.18,8.8
23.933040857315063,-5.51,-7.28,1.34,9.22
23.96378993988037,-5.4,-7.76,2.23,9.71
23.965123891830444,-4.91,-8.13,2.71,9.87
23.966134071350098,-4.3,-7.91,2.82,9.43
23.97548198699951,-3.58,-7.03,2.68,8.33
23.98223876953125,-2.6,-5.94,2.49,6.94
23.992382049560547,-1.13,-4.61,2.06,5.17
24.002360820770264,1.34,-2.86,1.4,3.45
24.012406826019287,4.71,-1.24,0.23,4.87
24.022312879562378,8.44,0.26,-1.29,8.54
24.032222747802734,12.12,2.83,-1.88,12.58
24.06459379196167,14.93,6.04,-1.5,16.17
24.065918922424316,16.98,8.36,-0.71,18.93
24.06693983078003,18.68,9.71,0.5,21.05
24.07565689086914,20.09,10.45,1.29,22.68
24.081471920013428,21.59,10.86,2.39,24.28
24.091808795928955,22.25,9.85,2.15,24.42
24.10179090499878,22.33,7.93,2.33,23.81
24.111443042755127,20.23,6.1,2.85,21.32
24.121726036071777,15.85,8.62,1.38,18.09
24.131552934646606,6.21,2.0,-1.92,6.8
24.168247938156128,-7.52,-5.68,-8.99,13.02
24.169681072235107,-18.4,11.84,-18.18,28.44
24.17073106765747,-19.01,47.1,1.6,50.81
24.172950744628906,-18.51,32.33,1.28,37.27
24.180609941482544,-5.96,0.16,-0.23,5.96
24.190990924835205,1.55,-5.54,6.0,8.31
24.201069831848145,6.37,-8.55,6.06,12.26
24.211046934127808,8.9,-11.45,2.48,14.71
24.220866918563843,10.24,-10.7,-1.02,14.84
24.23077392578125,11.16,-5.46,-1.55,12.52
24.268391847610474,10.08,0.94,0.31,10.12
24.269752025604248,5.74,2.57,-2.46,6.75
24.27073383331299,1.53,1.56,-3.08,3.77
24.272987842559814,-1.1,1.62,-1.41,2.41
24.279934883117676,-1.82,1.93,1.73,3.16
24.29022192955017,-0.59,0.8,3.87,3.99
24.300203800201416,0.77,-1.42,3.24,3.62
24.310220956802368,1.57,-2.26,1.8,3.28
24.320033073425293,1.27,-0.95,0.26,1.6
24.329941749572754,0.5,0.38,-0.84,1.04
24.366164922714233,0.33,0.53,-1.25,1.39
24.367496967315674,0.73,0.1,-0.55,0.91
24.368608951568604,1.22,-0.5,0.17,1.32
24.37092685699463,1.45,-0.64,-0.03,1.58
24.37959885597229,1.28,-0.26,-0.24,1.32
24.391775846481323,0.71,0.11,0.08,0.72
24.39914894104004,0.21,0.25,0.85,0.91
24.409777879714966,-0.13,0.21,1.14,1.16
24.419393062591553,-0.35,-0.02,0.72,0.8
24.42907691001892,-0.55,0.03,0.31,0.63
24.464887857437134,-0.73,0.23,0.0,0.76
24.466309070587158,-0.61,0.25,-0.57,0.87
24.467427730560303,-0.03,0.19,-1.32,1.33
24.476868867874146,0.37,0.3,-1.45,1.52
24.478453874588013,0.05,0.39,-0.86,0.94
24.49180793762207,-0.66,0.54,0.01,0.85
24.49897575378418,-1.42,0.71,0.33,1.62
24.509652853012085,-2.05,0.73,-0.1,2.17
24.5187029838562,-2.24,0.77,-0.97,2.55
24.528523921966553,-2.08,0.7,-1.51,2.66
24.538574934005737,-1.55,0.53,-1.53,2.24
24.569822788238525,-0.98,0.48,-1.29,1.68
24.571011066436768,-0.6,0.69,-0.91,1.29
24.572035789489746,-0.64,0.94,-0.67,1.31
24.593936920166016,-0.98,1.05,-0.62,1.56
24.59543490409851,-1.28,1.07,-0.46,1.73
24.609519958496094,-1.47,1.02,-0.27,1.8
24.61098575592041,-1.44,0.97,-0.03,1.73
24.62648105621338,-1.47,1.16,0.19,1.88
24.627940893173218,-1.86,1.8,0.39,2.61
24.64207887649536,-2.02,2.34,0.05,3.09
24.6711368560791,-1.99,2.59,-0.64,3.32
24.672478914260864,-1.84,3.38,-1.35,4.07
24.67352795600891,-1.62,3.57,-2.09,4.44
24.69374394416809,-1.92,3.92,-1.97,4.78
24.695223808288574,-2.78,4.61,-1.58,5.61
24.709660053253174,-3.93,5.78,-1.26,7.1
24.711066961288452,-5.32,7.23,-1.26,9.06
24.726243019104004,-7.11,9.35,-1.48,11.83
24.727724075317383,-9.06,11.96,-2.81,15.26
24.741809844970703,-11.14,13.87,-5.7,18.68
24.770655870437622,-13.06,14.56,-7.36,20.89
24.772198915481567,-13.79,14.41,-7.45,21.29
24.773218870162964,-13.82,12.66,-8.09,20.41
24.79378080368042,-13.58,10.37,-8.21,18.95
24.795269012451172,-11.25,12.74,-6.01,18.02
24.808737754821777,-4.74,16.96,-6.39,18.73
24.810189962387085,2.02,15.04,-9.34,17.81
24.82643985748291,4.14,8.12,-6.42,11.14
24.827887058258057,0.65,1.09,-5.3,5.44
24.842525005340576,-2.99,-3.38,-3.53,5.72
24.8725848197937,2.68,1.36,-0.59,3.06
24.873897075653076,7.27,0.28,3.61,8.12
24.874995946884155,2.58,-4.04,-2.16,5.25
24.893353939056396,-4.52,-3.44,-3.38,6.6
24.894799947738647,-8.84,-1.94,-0.72,9.07
24.90993094444275,-12.23,-2.01,-1.94,12.54
24.911361932754517,-14.35,-2.67,-1.8,14.7
24.92690396308899,-14.32,-3.77,-0.45,14.81
24.928387880325317,-11.49,-4.76,1.6,12.53
24.942002773284912,-8.37,-5.77,2.62,10.49
24.972161769866943,-6.84,-6.98,2.37,10.05
24.973482847213745,-6.38,-7.54,1.99,10.07
24.974523067474365,-6.38,-7.05,1.72,9.66
24.99347186088562,-6.54,-6.66,1.02,9.38
24.994894981384277,-6.47,-6.62,0.08,9.25
25.009305953979492,-6.12,-6.47,-0.68,8.93
25.010779857635498,-5.55,-6.27,-1.17,8.45
25.026753902435303,-4.94,-6.1,-1.39,7.97
25.028214931488037,-4.38,-6.19,-1.36,7.7
25.042110919952393,-3.84,-6.55,-1.34,7.7
25.0725679397583,-3.16,-6.97,-1.28,7.75
25.073885917663574,-2.39,-7.48,-1.31,7.96
25.07493305206299,-1.68,-7.79,-1.17,8.05
25.09389305114746,-1.03,-7.63,-0.64,7.72
25.09537982940674,-0.29,-7.08,0.2,7.08
25.10987377166748,0.74,-6.43,0.35,6.48
25.111358880996704,2.37,-5.41,-0.05,5.9
25.126492977142334,4.29,-4.22,0.03,6.01
25.1279718875885,6.35,-2.37,0.96,6.84
25.142050743103027,9.01,0.13,1.98,9.22
25.171470880508423,11.89,2.1,2.45,12.32
25.172781944274902,14.08,3.95,2.02,14.76
25.17381000518799,15.56,6.11,0.68,16.73
25.193639755249023,17.03,8.29,-0.66,18.95
25.195148944854736,19.19,10.6,-1.79,21.99
25.21009397506714,22.63,11.65,-2.01,25.53
25.211642742156982,26.8,10.33,-0.52,28.72
25.224134922027588,29.78,6.61,2.06,30.57
25.2256498336792,29.12,3.51,5.05,29.76
25.242530822753906,17.06,4.5,6.16,18.68
25.273409843444824,-0.76,1.07,2.7,3.0
25.274734020233154,-15.38,-0.84,-11.12,18.99
25.27577495574951,-24.01,38.49,-13.16,47.23
25.29396677017212,-27.32,56.61,1.68,62.88
25.29548406600952,-19.85,7.7,-4.91,21.84
25.30993890762329,-2.39,-5.04,5.0,7.49
25.311442852020264,6.04,-6.76,10.38,13.78
25.32664680480957,9.19,-11.32,7.38,16.34
25.328107833862305,10.62,-12.37,-0.64,16.31
25.342373847961426,12.51,-9.68,-2.7,16.04
25.344398975372314,13.02,-2.28,-0.36,13.22
25.393892765045166,9.95,2.06,-1.68,10.29
25.39508295059204,3.43,1.5,-4.58,5.91
25.39610481262207,-0.91,1.71,-1.33,2.34
25.410526752471924,-3.13,1.8,2.71,4.51
25.411568880081177,-2.44,1.31,4.63,5.39
25.426795959472656,-0.1,-0.9,1.89,2.09
25.428212881088257,1.97,-1.41,-0.91,2.58
25.44358777999878,2.05,-0.31,-1.4,2.5
25.44508981704712,0.65,0.31,-0.26,0.76
25.45879888534546,0.03,0.05,0.25,0.25
25.487624883651733,0.53,-0.27,-0.23,0.63
25.48899507522583,0.87,-0.41,-1.22,1.55
25.490006923675537,0.51,-0.09,-1.38,1.47
25.510119915008545,0.03,0.16,-0.86,0.87
25.511178970336914,-0.04,0.21,0.27,0.34
25.52674889564514,-0.05,0.27,1.14,1.17
25.528214931488037,-0.29,0.2,0.88,0.94
25.543409824371338,-0.44,0.25,0.27,0.57
25.544836044311523,-0.46,0.42,-0.1,0.63
25.55909490585327,-0.41,0.36,-0.15,0.56
25.589086055755615,-0.55,0.21,-0.12,0.6
25.590431928634644,-0.55,0.13,-0.6,0.82
25.591394901275635,-0.59,0.49,-0.66,1.01
25.61035394668579,-0.71,0.91,-0.62,1.31
25.61180305480957,-0.81,0.95,-0.48,1.33
25.626730918884277,-1.09,0.88,-0.2,1.41
25.628190994262695,-1.38,0.65,-0.17,1.53
25.643810749053955,-1.53,0.29,-0.41,1.61
25.645322799682617,-1.23,0.21,-0.66,1.41
25.65885090827942,-0.51,0.47,-0.77,1.03
25.69183874130249,0.07,0.73,-0.89,1.15
25.693588733673096,0.17,0.82,-0.83,1.17
25.69459581375122,-0.25,0.84,-0.53,1.02
25.710834980010986,-1.03,0.86,-0.09,1.34
25.71230387687683,-1.41,0.99,0.24,1.73
25.726948738098145,-1.73,1.26,0.22,2.15
25.728466033935547,-1.68,1.85,-0.03,2.49
25.743470907211304,-1.77,2.1,-0.61,2.81
25.744902849197388,-1.92,2.6,-0.7,3.3
25.758841037750244,-2.09,2.9,-0.76,3.65
25.788156032562256,-2.32,3.11,-0.83,3.96
25.789604902267456,-2.56,3.28,-0.82,4.24
25.790607929229736,-2.89,3.45,-0.93,4.59
25.81077289581299,-3.36,3.72,-1.07,5.12
25.81225085258484,-4.08,4.34,-1.03,6.04
25.826985836029053,-5.14,5.43,-1.28,7.58
25.828470945358276,-6.43,7.17,-1.7,9.77
25.84374475479126,-7.73,9.96,-2.95,12.94
25.845258951187134,-9.02,12.3,-5.78,16.31
25.858250856399536,-10.35,13.01,-7.96,18.43
25.886943817138672,-11.35,12.86,-8.0,18.92
25.888364791870117,-12.05,11.87,-7.63,18.55
25.889330863952637,-12.43,12.74,-7.19,19.19
25.910470008850098,-11.1,17.2,-5.32,21.15
25.911563873291016,-5.11,20.23,-7.1,22.04
25.927061080932617,1.18,15.8,-10.52,19.01
25.92851495742798,3.52,8.52,-7.24,11.72
25.943713903427124,0.32,2.01,-4.18,4.64
25.945165872573853,-3.73,-3.16,-1.69,5.17
25.95918607711792,1.16,-0.34,-0.46,1.29
25.986226081848145,7.41,1.02,4.24,8.59
25.987637042999268,4.01,-2.3,0.33,4.63
25.988574028015137,-3.7,-1.38,-1.96,4.4
25.99079704284668,-7.97,0.23,0.5,7.98
25.992153882980347,-10.94,0.31,-0.96,10.98
25.997216939926147,-12.72,-0.32,-1.27,12.78
26.007288932800293,-12.14,-1.81,-0.05,12.27
26.017229080200195,-9.06,-3.6,1.48,9.86
26.02717876434326,-6.27,-5.6,2.05,8.65
26.037489891052246,-4.95,-7.3,1.79,8.99
26.071231842041016,-4.44,-8.09,1.54,9.35
26.07265281677246,-4.36,-8.2,1.18,9.36
26.073664903640747,-4.64,-8.01,0.49,9.26
26.093842029571533,-4.84,-7.67,-0.48,9.08
26.094895839691162,-4.96,-7.3,-1.58,8.96
26.109951972961426,-4.93,-7.29,-2.59,9.17
26.111002922058105,-4.58,-7.53,-2.96,9.29
26.127267837524414,-4.0,-7.84,-2.49,9.14
26.128795862197876,-3.45,-8.53,-1.71,9.35
26.14269995689392,-3.13,-9.45,-1.0,10.0
26.146595001220703,-3.01,-10.18,-0.58,10.63
26.183918952941895,-2.95,-10.45,-0.14,10.85
26.185101985931396,-2.85,-10.16,0.47,10.56
26.186360836029053,-2.63,-9.58,1.02,9.98
26.192463874816895,-2.38,-8.89,1.4,9.3
26.195641040802002,-2.11,-7.99,1.81,8.45
26.21015691757202,-1.51,-6.49,2.12,6.99
26.215746879577637,-0.23,-4.71,2.04,5.13
26.227210998535156,2.39,-2.24,2.27,3.98
26.235976934432983,6.04,0.09,1.95,6.34
26.245701789855957,9.22,2.29,1.31,9.59
26.277354955673218,11.61,5.54,0.97,12.9
26.27869486808777,13.44,8.51,0.23,15.9
26.279728889465332,15.21,9.96,-1.06,18.21
26.294100761413574,16.68,10.79,-2.96,20.08
26.29520082473755,18.48,12.49,-3.9,22.64
26.308750867843628,20.81,13.38,-4.68,25.17
26.31507682800293,23.46,12.38,-2.93,26.68
26.32511281967163,24.95,10.06,0.14,26.9
26.33541202545166,20.78,9.76,3.48,23.22
26.344836950302124,8.5,8.71,5.02,13.16
26.374868869781494,-4.28,-1.42,-0.59,4.54
26.37622594833374,-16.88,-0.11,-7.53,18.48
26.37723684310913,-21.93,18.91,-2.97,29.1
26.3942928314209,-20.27,36.02,5.79,41.73
26.395370960235596,-12.07,18.56,0.37,22.14
26.410372734069824,-0.28,-1.02,1.7,2.0
26.414310932159424,4.77,-5.71,4.41,8.64
26.426049947738647,7.4,-7.46,2.87,10.89
26.434485912322998,9.62,-7.75,-2.44,12.59
26.444028854370117,11.08,-5.96,-4.47,13.35
26.476120948791504,11.3,0.25,-2.65,11.6
26.477481842041016,8.35,2.98,-3.13,9.4
26.478501796722412,3.85,0.36,-2.79,4.76
26.49422788619995,0.71,-0.41,-0.81,1.15
26.495272874832153,-0.93,0.77,2.48,2.75
26.510501861572266,-0.86,1.2,4.8,5.02
26.513643741607666,0.06,-0.55,4.07,4.1
26.52717089653015,0.71,-1.89,2.53,3.23
26.533511877059937,0.58,-1.28,1.21,1.85
26.5433087348938,0.36,-0.22,-0.23,0.48
26.580687046051025,0.33,0.27,-1.29,1.35
26.58206081390381,0.31,0.51,-1.44,1.55
26.58303189277649,0.31,0.44,-1.0,1.13
26.594214916229248,0.48,-0.21,-0.8,0.95
26.595284938812256,0.9,-0.48,-1.07,1.47
26.6103458404541,0.9,-0.22,-0.95,1.32
26.612972736358643,0.25,0.17,0.09,0.31
26.627176761627197,-0.47,0.36,1.33,1.45
26.632951736450195,-0.9,0.16,1.91,2.11
26.642969846725464,-0.86,-0.01,1.01,1.32
26.680688858032227,-0.23,0.09,-0.37,0.44
26.6820068359375,0.27,0.29,-0.79,0.88
26.68300199508667,0.08,0.25,-0.63,0.68
26.694196939468384,-0.13,0.13,-0.55,0.57
26.695255756378174,-0.04,0.15,-0.72,0.73
26.71006488800049,0.14,0.29,-0.41,0.52
26.711983919143677,0.05,0.34,0.22,0.4
26.72736406326294,-0.22,0.37,0.59,0.73
26.732041835784912,-0.6,0.51,0.47,0.91
26.74271297454834,-0.88,0.64,-0.28,1.12
26.77848482131958,-0.91,0.62,-1.0,1.48
26.77986192703247,-0.75,0.5,-1.04,1.37
26.780951023101807,-0.67,0.4,-0.71,1.05
26.794426918029785,-0.71,0.48,-0.54,1.01
26.79545783996582,-0.81,0.78,-0.65,1.29
26.810669898986816,-0.87,1.14,-0.57,1.54
26.81213688850403,-1.01,1.34,-0.41,1.72
26.82730484008789,-1.22,1.52,-0.35,1.98
26.831326007843018,-1.6,1.45,-0.58,2.23
26.842909812927246,-1.85,1.79,-0.14,2.57
26.8777117729187,-1.92,1.84,-0.4,2.68
26.879064083099365,-1.86,2.33,-0.31,2.99
26.880050897598267,-2.02,2.59,-0.27,3.29
26.8943829536438,-2.22,2.93,-0.34,3.69
26.89545488357544,-2.42,3.06,-0.57,3.94
26.91066074371338,-2.49,3.1,-1.08,4.12
26.91213893890381,-2.54,3.17,-1.57,4.35
26.927342891693115,-3.0,3.51,-1.73,4.93
26.930484771728516,-3.99,4.34,-1.61,6.11
26.942970752716064,-5.24,5.91,-1.56,8.05
26.950366020202637,-6.49,8.62,-1.74,10.92
26.985482931137085,-7.72,11.45,-3.34,14.2
26.986702919006348,-9.17,12.22,-5.96,16.39
26.987947940826416,-10.68,12.36,-6.63,17.62
26.990296840667725,-11.4,12.3,-5.8,17.74
27.010645866394043,-12.02,11.22,-6.06,17.52
27.011729955673218,-12.51,11.46,-6.16,18.04
27.027742862701416,-10.29,16.41,-4.06,19.79
27.02969193458557,-3.62,19.26,-6.29,20.58
27.040953874588013,2.44,14.62,-8.18,16.92
27.049695014953613,3.96,6.79,-4.57,9.09
27.083329916000366,-0.05,-0.24,-4.3,4.3
27.084510803222656,-3.28,-3.49,-3.21,5.76
27.08577299118042,1.94,1.19,-0.77,2.4
27.09406089782715,5.1,0.3,2.31,5.6
27.09890079498291,0.18,-2.69,-3.09,4.1
27.10901689529419,-5.2,-1.34,-2.6,5.96
27.119132041931152,-8.66,-0.07,-1.07,8.72
27.129014015197754,-11.14,-0.24,-1.85,11.29
27.139052867889404,-11.6,-1.21,-1.16,11.72
27.148764848709106,-9.88,-2.98,0.36,10.32
27.18104887008667,-7.57,-4.84,2.0,9.2
27.182427883148193,-6.53,-6.65,2.88,9.75
27.183451890945435,-6.37,-7.77,3.41,10.61
27.194684982299805,-6.29,-7.93,3.61,10.74
27.198204040527344,-6.01,-7.44,3.0,10.02
27.21076488494873,-5.84,-6.76,1.9,9.13
27.218355894088745,-5.83,-5.99,0.74,8.39
27.228230953216553,-5.92,-5.16,-0.32,7.85
27.23820400238037,-5.73,-4.81,-1.07,7.55
27.24798893928528,-5.15,-4.77,-1.61,7.2
27.278546810150146,-4.35,-5.29,-1.52,7.01
27.27993893623352,-3.67,-6.13,-0.95,7.2
27.280945777893066,-3.32,-6.82,-0.24,7.58
27.29449701309204,-3.2,-7.45,0.21,8.11
27.297414779663086,-3.22,-7.97,0.55,8.61
27.310760974884033,-3.44,-8.18,0.85,8.91
27.31765389442444,-3.72,-7.7,1.35,8.65
27.328490734100342,-3.79,-6.39,1.97,7.68
27.337544918060303,-3.19,-5.23,2.56,6.63
27.347425937652588,-1.72,-4.38,2.49,5.32
27.385133743286133,0.6,-3.51,2.11,4.13
27.38650894165039,3.06,-2.33,1.55,4.14
27.387496948242188,5.61,-0.47,1.36,5.79
27.39023995399475,8.66,1.73,1.28,8.92
27.41088581085205,11.8,3.24,1.0,12.27
27.411926746368408,14.14,4.49,0.82,14.85
27.427491903305054,15.78,5.49,0.67,16.72
27.429009914398193,16.99,6.39,0.77,18.16
27.443243980407715,18.06,7.41,0.54,19.52
27.44671893119812,19.47,8.5,0.84,21.26
27.486280918121338,21.08,9.38,1.0,23.09
27.487470865249634,22.14,8.76,2.04,23.89
27.488718032836914,20.27,10.33,3.04,22.95
27.49034881591797,13.36,7.2,-2.11,15.32
27.496031761169434,-1.36,-4.16,-8.43,9.49
27.506103038787842,-14.14,18.43,-10.07,25.31
27.516048908233643,-18.04,56.99,-1.23,59.78
27.526599884033203,-15.47,20.78,-3.37,26.12
27.536083936691284,0.04,-1.89,-3.09,3.62
27.546000003814697,6.44,-6.84,4.84,10.56
27.581523895263672,9.92,-11.25,8.27,17.12
27.58288288116455,12.09,-11.68,4.29,17.34
27.583915948867798,11.92,-7.98,2.18,14.5
27.59399175643921,8.22,-1.62,1.71,8.55
27.59508991241455,2.67,1.45,-0.61,3.09
27.610891819000244,-1.08,2.48,-3.02,4.05
27.615083932876587,-2.6,2.36,-2.88,4.54
27.627676010131836,-1.87,1.82,0.39,2.63
27.635127067565918,0.61,0.56,1.81,1.99
27.645169734954834,2.18,-0.94,0.65,2.46
27.681927919387817,2.09,-1.23,-0.5,2.47
27.683332920074463,1.06,-0.42,-0.9,1.45
27.684422969818115,0.42,0.17,-0.36,0.57
27.694978952407837,0.53,0.09,0.23,0.58
27.69605302810669,0.84,-0.21,0.32,0.92
27.710968017578125,0.89,-0.27,0.21,0.95
27.714284896850586,0.37,-0.21,0.03,0.42
27.727643966674805,-0.18,-0.09,-0.35,0.4
27.7346088886261,-0.06,0.09,-0.49,0.5
27.744301795959473,0.42,0.16,0.1,0.46
27.754344940185547,0.47,0.0,0.38,0.6
27.786113739013672,0.24,-0.04,-0.03,0.24
27.787301063537598,-0.02,0.26,-0.29,0.39
27.78846502304077,-0.21,0.5,-0.19,0.57
27.79372787475586,-0.29,0.3,0.33,0.53
27.803741931915283,-0.29,0.0,0.54,0.61
27.813785076141357,-0.1,-0.1,0.15,0.2
27.824105739593506,-0.22,0.37,-0.2,0.47
27.833695888519287,-0.5,0.76,-0.44,1.01
27.843828916549683,-0.66,0.94,-0.39,1.21
27.853431940078735,-0.79,0.84,-0.18,1.16
27.88560676574707,-0.89,0.73,0.08,1.15
27.88678503036499,-0.91,0.49,-0.11,1.03
27.888041019439697,-0.81,0.16,-0.47,0.95
27.893104076385498,-0.65,0.25,-0.66,0.95
27.911141872406006,-0.56,0.55,-0.8,1.12
27.91275191307068,-0.71,0.8,-1.02,1.47
27.927714824676514,-1.16,1.14,-0.95,1.88
27.933064937591553,-1.57,1.34,-0.78,2.2
27.943785905838013,-1.96,1.55,-0.48,2.54
27.952899932861328,-1.72,1.83,-0.29,2.52
27.983548879623413,-1.42,1.91,0.0,2.38
27.984684944152832,-1.42,1.93,0.14,2.4
27.985897064208984,-1.71,1.97,0.03,2.6
27.99240493774414,-1.98,2.34,0.03,3.06
28.002360820770264,-2.1,2.64,-0.23,3.38
28.012086868286133,-2.17,2.79,-0.64,3.59
28.02243685722351,-2.44,2.87,-1.17,3.94
28.03223705291748,-3.07,2.99,-1.75,4.62
28.042428016662598,-3.84,3.53,-2.12,5.63
28.05219292640686,-4.61,4.93,-2.41,7.16
28.083931922912598,-5.58,7.18,-2.56,9.44
28.085349082946777,-6.73,10.38,-3.31,12.8
28.086435794830322,-8.44,11.9,-5.71,15.66
28.092902898788452,-10.25,12.27,-6.54,17.27
28.1079318523407,-11.43,12.07,-5.77,17.59
28.11126685142517,-11.8,11.41,-5.23,17.22
28.128081798553467,-12.03,10.59,-5.63,16.98
28.131420850753784,-11.1,13.26,-4.24,17.8
28.143624782562256,-6.74,17.55,-4.33,19.29
28.151980876922607,0.05,17.06,-8.04,18.85
28.187077045440674,3.81,10.87,-6.55,13.25
28.18824577331543,2.21,3.58,-4.82,6.39
28.189456939697266,-3.37,-1.29,-3.04,4.71
28.191051959991455,-4.08,-2.79,-2.85,5.7
28.20076584815979,3.38,1.8,-0.35,3.84
28.21071195602417,4.58,-1.05,1.87,5.05
28.22064185142517,-2.51,-2.81,-2.68,4.62
28.230716943740845,-7.88,-1.4,-0.17,8.0
28.240885734558105,-11.16,-0.78,-0.07,11.18
28.25047492980957,-13.64,-1.21,-1.3,13.75
28.28527307510376,-13.75,-1.95,-0.14,13.88
28.28666400909424,-10.72,-3.07,1.9,11.31
28.28765296936035,-7.16,-4.63,2.92,9.01
28.29075574874878,-5.29,-6.3,2.83,8.69
28.31195878982544,-4.7,-6.92,2.68,8.78
28.312993049621582,-4.85,-6.11,2.71,8.25
28.328138828277588,-5.19,-5.48,1.81,7.76
28.32988977432251,-5.28,-5.19,0.54,7.42
28.3437237739563,-5.13,-4.7,-0.3,6.96
28.35008692741394,-4.89,-4.43,-0.87,6.65
28.38829493522644,-4.6,-4.47,-1.25,6.53
28.389448881149292,-4.34,-4.67,-1.28,6.5
28.390449047088623,-4.25,-5.04,-0.85,6.64
28.412121772766113,-4.24,-5.55,-0.16,6.98
28.41363787651062,-4.15,-6.11,0.56,7.4
28.428058862686157,-3.92,-6.8,0.91,7.9
28.429533004760742,-3.85,-7.53,1.04,8.52
28.444944858551025,-4.09,-7.39,1.57,8.59
28.446399927139282,-4.25,-6.15,2.46,7.86
28.46010994911194,-2.89,-5.04,2.55,6.34
28.48867893218994,0.32,-4.37,1.43,4.6
28.490484952926636,3.69,-3.54,0.7,5.16
28.49146604537964,6.45,-2.47,0.22,6.91
28.512372970581055,9.22,-0.72,0.36,9.25
28.513843059539795,11.8,1.82,0.54,11.95
28.528159856796265,14.1,4.09,0.68,14.69
28.52964687347412,16.18,5.79,1.2,17.22
28.545135021209717,17.64,6.97,2.14,19.08
28.54659390449524,18.69,8.0,3.75,20.67
28.56069803237915,19.63,8.33,5.54,22.03
28.56302285194397,20.4,7.22,7.21,22.8
28.605720043182373,18.6,7.96,6.08,21.12
28.60686993598938,14.79,14.36,3.03,20.83
28.6079158782959,11.69,5.58,-10.31,16.55
28.62924575805664,0.16,1.47,-17.71,17.77
28.63073205947876,-9.14,39.82,-2.08,40.9
28.644859790802002,-13.87,46.23,-5.75,48.6
28.64638090133667,-3.18,3.89,-6.26,8.02
28.661605834960938,5.18,-4.82,-1.29,7.19
28.663107872009277,6.68,-10.06,5.55,13.29
28.677237033843994,10.03,-12.72,5.63,17.14
28.71177887916565,12.07,-10.36,6.11,17.03
28.71318483352661,9.05,-3.91,4.43,10.8
28.71418786048889,3.41,0.11,1.96,3.93
28.728449821472168,-0.87,1.52,0.0,1.75
28.729496955871582,-3.46,2.37,-1.08,4.33
28.744711875915527,-2.57,1.96,-0.23,3.24
28.74597978591919,0.57,0.24,0.75,0.97
28.761512756347656,3.07,-0.49,0.59,3.16
28.76299285888672,3.2,-0.81,0.09,3.3
28.777209758758545,1.62,-0.59,-0.48,1.78
28.808130741119385,0.59,-0.1,-0.33,0.68
28.80947184562683,0.8,-0.17,-0.11,0.82
28.810390949249268,1.28,-0.49,-0.18,1.38
28.82847499847412,1.11,-0.3,-0.26,1.17
28.829508781433105,0.6,0.12,0.03,0.61
28.844615936279297,0.27,0.34,0.45,0.62
28.845643997192383,0.27,0.17,0.62,0.69
28.861270904541016,0.3,-0.03,0.68,0.74
28.862292766571045,0.21,-0.05,0.22,0.3
28.87698984146118,-0.03,0.29,-0.39,0.48
28.907111883163452,-0.32,0.51,-0.73,0.94
28.908294916152954,-0.31,0.45,-0.59,0.8
28.90911293029785,-0.23,0.31,-0.37,0.53
28.928395748138428,-0.19,0.13,-0.19,0.29
28.92940378189087,-0.3,0.1,0.18,0.36
28.94456672668457,-0.48,0.2,0.28,0.59
28.94555377960205,-0.54,0.38,0.12,0.67
28.961376905441284,-0.48,0.56,-0.13,0.74
28.96240997314453,-0.42,0.59,-0.17,0.74
28.97711181640625,-0.37,0.58,-0.05,0.68
29.007896900177002,-0.49,0.53,-0.03,0.72
29.009567737579346,-0.68,0.62,-0.21,0.94
29.010590076446533,-0.88,0.68,-0.41,1.18
29.028491020202637,-0.93,0.68,-0.56,1.28
29.029496908187866,-0.74,0.44,-0.72,1.12
29.04443883895874,-0.65,0.65,-0.19,0.93
29.045503854751587,-0.67,0.78,-0.21,1.04
29.061713933944702,-1.0,0.96,-0.34,1.42
29.063171863555908,-1.22,1.52,-0.34,1.97
29.077255725860596,-1.4,1.87,-0.02,2.33
29.108312845230103,-1.45,2.06,0.21,2.52
29.10967993736267,-1.44,1.96,0.02,2.43
29.110736846923828,-1.71,2.0,-0.14,2.63
29.12894105911255,-2.05,2.22,-0.36,3.04
29.130012035369873,-2.18,2.27,-0.81,3.24
29.14460587501526,-2.07,2.44,-1.07,3.37
29.145647048950195,-2.2,2.66,-1.13,3.63
29.1615629196167,-2.69,2.91,-1.24,4.15
29.16309094429016,-3.4,3.43,-1.35,5.01
29.177381992340088,-4.3,4.48,-1.52,6.39
29.20821475982666,-5.38,5.79,-2.22,8.2
29.209625959396362,-6.58,7.59,-2.48,10.34
29.210656881332397,-7.75,10.61,-2.96,13.46
29.22533392906189,-8.97,12.1,-5.49,16.03
29.22639274597168,-10.31,12.35,-6.87,17.49
29.241364002227783,-11.37,12.39,-6.29,17.95
29.242444038391113,-12.45,11.91,-6.28,18.33
29.25828790664673,-12.82,12.89,-6.05,19.16
29.259335041046143,-10.74,16.58,-5.04,20.38
29.277292728424072,-4.14,17.36,-7.77,19.46
29.307870864868164,2.28,13.86,-9.05,16.7
29.309256076812744,4.41,8.37,-4.88,10.64
29.31025981903076,0.78,1.78,-3.35,3.87
29.328495025634766,-3.41,-3.68,-2.06,5.42
29.32953405380249,0.82,-1.43,-1.88,2.5
29.343559741973877,7.13,-0.01,2.19,7.45
29.344635009765625,3.33,-3.97,-1.29,5.33
29.361778736114502,-4.32,-3.63,-3.43,6.6
29.363252878189087,-8.26,-2.1,-1.34,8.62
29.377286911010742,-11.24,-1.92,-3.09,11.81
29.378729820251465,-13.07,-2.23,-3.16,13.63
29.42646074295044,-12.66,-3.09,-1.78,13.15
29.42763376235962,-9.79,-4.39,0.31,10.73
29.42864179611206,-7.63,-5.88,1.63,9.76
29.4459228515625,-7.3,-6.95,2.26,10.32
29.446976900100708,-7.32,-6.72,3.06,10.39
29.461607933044434,-7.05,-5.82,3.78,9.89
29.46309804916382,-6.64,-5.34,3.86,9.35
29.478861808776855,-6.53,-5.01,3.16,8.81
