time,ax,ay,az,atotal
0.03603410720825195,1.01,-0.31,0.15,1.06
0.036306142807006836,1.35,-0.53,0.0,1.45
0.03657102584838867,0.57,-0.07,0.29,0.64
0.03683900833129883,0.3,0.37,0.2,0.51
0.03916811943054199,0.04,-0.06,0.28,0.28
0.04911613464355469,-0.03,-0.11,0.07,0.13
0.0591740608215332,0.08,-0.04,0.13,0.15
0.06987214088439941,0.14,-0.02,0.28,0.31
0.07929706573486328,0.18,-0.01,0.23,0.29
0.08918213844299316,0.14,-0.01,0.14,0.19
0.13532114028930664,0.05,-0.03,0.09,0.1
0.1356031894683838,-0.01,-0.02,0.07,0.07
0.1358652114868164,0.02,0.0,0.03,0.03
0.13612127304077148,0.09,0.02,0.04,0.1
0.13899612426757812,0.11,0.01,0.02,0.11
0.1490621566772461,0.07,-0.01,-0.01,0.07
0.15911412239074707,0.02,0.0,0.02,0.02
0.16960716247558594,0.02,-0.03,0.02,0.04
0.17903614044189453,-0.01,-0.04,0.01,0.04
0.18912410736083984,-0.06,-0.03,0.0,0.06
0.23487210273742676,-0.1,-0.01,0.01,0.1
0.23578214645385742,-0.11,-0.02,0.04,0.11
0.23602628707885742,-0.11,-0.04,0.01,0.11
0.23627018928527832,-0.07,-0.01,0.01,0.07
0.2389521598815918,-0.04,0.02,0.01,0.04
0.24894428253173828,0.0,0.01,-0.01,0.01
0.2589912414550781,0.01,-0.02,-0.02,0.03
0.26952219009399414,-0.01,-0.04,-0.02,0.04
0.2788963317871094,-0.06,-0.04,0.01,0.07
0.28885912895202637,-0.09,-0.04,0.02,0.1
0.2995791435241699,-0.1,-0.05,0.07,0.13
0.3339381217956543,-0.08,0.02,0.07,0.1
0.33420228958129883,-0.05,0.0,-0.02,0.05
0.33446216583251953,0.03,-0.01,0.02,0.03
0.3386881351470947,0.03,-0.03,0.02,0.04
0.3489232063293457,0.03,-0.01,0.02,0.03
0.3586921691894531,0.02,-0.02,0.02,0.03
0.3693671226501465,-0.04,-0.01,0.03,0.05
0.3787112236022949,-0.04,-0.03,0.04,0.06
0.3887062072753906,-0.03,-0.03,0.03,0.05
0.3995680809020996,0.0,-0.03,0.04,0.05
0.4342031478881836,0.03,-0.01,0.01,0.03
0.4344501495361328,0.03,0.01,-0.03,0.04
0.43470311164855957,0.01,0.02,-0.04,0.04
0.4386892318725586,-0.02,0.0,-0.05,0.05
0.4486382007598877,-0.02,-0.02,-0.03,0.04
0.45858216285705566,-0.02,-0.01,-0.01,0.02
0.4691920280456543,-0.04,-0.01,-0.01,0.04
0.47869205474853516,-0.05,-0.03,0.01,0.05
0.48865509033203125,-0.07,-0.02,0.02,0.07
0.49937915802001953,-0.08,-0.02,0.02,0.08
0.534588098526001,-0.08,-0.01,0.01,0.08
0.5348563194274902,-0.06,0.0,-0.03,0.06
0.5351080894470215,-0.04,0.02,-0.05,0.06
0.5384902954101562,-0.04,0.01,-0.07,0.08
0.5484333038330078,-0.03,0.0,-0.08,0.08
0.5584812164306641,-0.04,-0.01,-0.07,0.08
0.5690481662750244,-0.05,-0.01,-0.05,0.07
0.5783591270446777,-0.04,-0.01,-0.04,0.05
0.5883731842041016,-0.03,-0.01,-0.02,0.03
0.5992293357849121,-0.04,-0.01,-0.02,0.04
0.6344401836395264,-0.04,-0.02,0.0,0.04
0.634702205657959,-0.06,-0.01,-0.01,0.06
0.6349272727966309,-0.06,-0.01,0.01,0.06
0.6382250785827637,-0.09,-0.04,0.01,0.09
0.6482419967651367,-0.12,-0.07,0.03,0.14
0.659264087677002,-0.1,-0.03,0.03,0.1
0.6687970161437988,-0.01,-0.01,0.02,0.02
0.6782360076904297,0.04,-0.01,0.02,0.04
0.6882591247558594,0.02,-0.01,0.03,0.03
0.6990852355957031,-0.04,-0.01,0.02,0.04
0.7343811988830566,-0.06,-0.02,-0.01,0.06
0.7346451282501221,-0.04,-0.03,-0.02,0.05
0.7349061965942383,-0.06,-0.01,0.01,0.06
0.7382030487060547,-0.04,0.01,0.01,0.04
0.7481231689453125,-0.05,0.0,0.02,0.05
0.7581601142883301,-0.08,-0.02,0.01,0.08
0.7686581611633301,-0.04,0.0,-0.01,0.04
0.7781012058258057,0.0,-0.02,-0.04,0.04
0.7881550788879395,0.0,-0.05,0.0,0.05
0.798997163772583,-0.03,-0.02,0.01,0.03
0.8345379829406738,-0.06,-0.01,0.02,0.06
0.8348031044006348,-0.05,0.01,0.06,0.07
0.835064172744751,0.0,0.02,0.08,0.08
0.8379583358764648,0.05,0.01,0.11,0.12
0.8479700088500977,0.09,-0.01,0.12,0.15
0.8578929901123047,0.18,0.0,0.12,0.21
0.8684382438659668,0.29,0.04,0.11,0.31
0.8779821395874023,0.41,0.03,0.09,0.42
0.8880209922790527,0.52,-0.01,0.15,0.54
0.898827075958252,0.48,0.0,0.24,0.53
0.9344291687011719,0.34,0.01,0.29,0.44
0.9346921443939209,0.21,-0.03,0.28,0.35
0.9349570274353027,0.15,-0.15,0.27,0.34
0.9378221035003662,0.13,-0.11,0.23,0.28
0.9477481842041016,0.0,-0.09,0.27,0.28
0.9578289985656738,-0.12,-0.18,0.34,0.4
0.968353271484375,-0.17,-0.17,0.37,0.44
0.9778561592102051,-0.21,-0.1,0.41,0.47
0.9878592491149902,-0.2,-0.16,0.47,0.53
0.9985733032226562,-0.14,-0.15,0.58,0.61
1.0350241661071777,-0.01,-0.15,0.74,0.75
1.035271167755127,0.05,-0.14,0.74,0.75
1.035520076751709,0.09,-0.14,0.67,0.69
1.0376691818237305,0.17,-0.16,0.65,0.69
1.0476500988006592,0.31,-0.1,0.62,0.7
1.057662010192871,0.45,-0.03,0.48,0.65
1.068376064300537,0.43,-0.03,0.38,0.57
1.0777051448822021,0.37,-0.06,0.38,0.53
1.0877621173858643,0.4,-0.12,0.13,0.43
1.0985801219940186,0.58,-0.05,0.02,0.58
1.1338951587677002,0.64,-0.07,0.13,0.65
1.1341581344604492,0.51,-0.11,0.25,0.57
1.134416103363037,0.52,-0.09,0.35,0.63
1.1374731063842773,0.43,-0.1,0.22,0.49
1.1475551128387451,0.45,-0.05,0.11,0.46
1.1573781967163086,0.45,-0.05,0.32,0.55
1.168260097503662,0.29,-0.12,0.65,0.72
1.1775991916656494,0.1,-0.26,0.92,0.96
1.187540054321289,-0.16,-0.33,0.7,0.79
1.1983811855316162,-0.26,-0.42,0.38,0.62
1.2335500717163086,-0.24,-0.5,0.14,0.57
1.234126091003418,-0.2,-0.41,-0.08,0.46
1.2343871593475342,-0.1,-0.24,0.12,0.28
1.2373332977294922,-0.11,-0.15,0.18,0.25
1.247340202331543,-0.16,-0.12,0.12,0.23
1.2573511600494385,-0.18,-0.03,0.0,0.18
1.2683181762695312,-0.03,-0.02,-0.18,0.18
1.2774710655212402,0.39,-0.05,-0.3,0.49
1.2873892784118652,0.58,-0.06,-0.37,0.69
1.2980899810791016,0.47,-0.04,-0.34,0.58
1.3334481716156006,0.21,-0.13,-0.27,0.36
1.333712100982666,0.02,-0.18,-0.35,0.39
1.3343400955200195,-0.03,-0.12,-0.51,0.52
1.3373169898986816,-0.06,-0.05,-0.67,0.67
1.3473529815673828,-0.12,-0.02,-0.69,0.7
1.3574233055114746,-0.02,-0.03,-0.66,0.66
1.3682212829589844,-0.06,0.01,-0.78,0.78
1.3772051334381104,-0.34,0.04,-0.92,0.98
1.3872461318969727,-0.76,-0.03,-0.75,1.06
1.397975206375122,-0.98,0.0,-0.57,1.13
1.433739185333252,-0.82,0.09,-0.35,0.89
1.4343242645263672,-0.7,-0.08,-0.12,0.71
1.434587001800537,-0.66,-0.07,-0.09,0.66
1.4369893074035645,-0.5,0.01,-0.24,0.55
1.4470210075378418,-0.27,-0.06,-0.37,0.46
1.4570050239562988,-0.06,-0.07,-0.37,0.38
1.4679560661315918,0.18,0.0,-0.34,0.38
1.4770970344543457,0.31,0.06,-0.47,0.56
1.487093210220337,0.33,0.05,-0.53,0.62
1.497941017150879,0.21,0.02,-0.58,0.61
1.5336501598358154,-0.01,-0.02,-0.55,0.55
1.5339131355285645,-0.1,0.08,-0.61,0.62
1.5344982147216797,-0.03,0.15,-0.64,0.65
1.5369319915771484,-0.07,0.07,-0.55,0.55
1.546924114227295,-0.09,-0.02,-0.38,0.39
1.5569519996643066,-0.18,0.0,-0.27,0.32
1.5677580833435059,-0.21,0.08,-0.23,0.32
1.5769052505493164,-0.12,0.07,-0.25,0.28
1.5869991779327393,-0.29,0.05,-0.46,0.54
1.597825050354004,-0.59,-0.15,-0.52,0.8
1.633289098739624,-0.73,-0.18,-0.44,0.87
1.6335530281066895,-0.7,-0.08,-0.34,0.78
1.6338109970092773,-0.67,-0.01,-0.22,0.7
1.6367530822753906,-0.49,-0.04,-0.08,0.49
1.6467101573944092,-0.23,-0.08,0.07,0.25
1.6567351818084717,-0.02,-0.09,0.11,0.14
1.6673340797424316,0.07,-0.07,0.05,0.11
1.676828145980835,-0.04,0.0,-0.14,0.14
1.68681001663208,-0.13,0.04,-0.35,0.37
1.6976292133331299,-0.09,0.07,-0.44,0.45
1.7329692840576172,0.06,-0.01,-0.34,0.34
1.733232021331787,0.03,-0.03,-0.33,0.33
1.7334942817687988,0.08,0.01,-0.23,0.24
1.736612319946289,0.21,0.01,-0.1,0.23
1.7465901374816895,0.07,-0.04,-0.08,0.11
1.7565782070159912,-0.17,-0.09,0.01,0.19
1.7671833038330078,-0.23,-0.13,0.23,0.35
1.7766242027282715,-0.28,-0.11,0.42,0.51
1.7866551876068115,-0.24,-0.05,0.39,0.46
1.7974421977996826,-0.15,-0.05,0.36,0.39
1.8338031768798828,-0.08,-0.06,0.21,0.23
1.8340692520141602,0.11,-0.08,0.1,0.16
1.83469820022583,0.19,-0.15,0.04,0.24
1.8364901542663574,-0.08,-0.04,-0.19,0.21
1.846398115158081,-0.14,0.05,-0.25,0.29
1.8564422130584717,-0.09,-0.03,-0.19,0.21
1.8670072555541992,-0.14,-0.02,-0.23,0.27
1.8764641284942627,0.0,-0.09,-0.12,0.15
1.8865013122558594,-0.05,-0.14,0.01,0.14
1.8971800804138184,-0.32,-0.11,0.05,0.34
1.9327421188354492,-0.54,-0.2,0.19,0.6
1.9330072402954102,-0.72,-0.17,0.24,0.77
1.933272123336792,-0.71,-0.11,0.27,0.76
1.9362611770629883,-0.46,-0.13,0.26,0.54
1.9464712142944336,-0.2,-0.15,0.24,0.34
1.9563031196594238,-0.04,-0.1,0.24,0.26
1.9669601917266846,-0.07,-0.06,0.06,0.11
1.976356029510498,-0.23,-0.06,-0.23,0.33
1.9863741397857666,-0.32,0.02,-0.35,0.47
1.9970941543579102,-0.18,0.01,-0.32,0.36
2.0328540802001953,-0.06,0.01,-0.22,0.22
2.033116102218628,0.01,0.03,-0.18,0.18
2.0333571434020996,0.05,0.03,-0.2,0.2
2.0361380577087402,0.01,-0.01,-0.23,0.23
2.0461339950561523,-0.14,-0.08,-0.27,0.31
2.0561771392822266,-0.31,-0.14,-0.32,0.46
2.066751003265381,-0.48,-0.11,-0.43,0.65
2.0762112140655518,-0.49,-0.08,-0.41,0.64
2.0860722064971924,-0.47,-0.03,-0.28,0.54
2.096879005432129,-0.42,0.02,-0.09,0.43
2.1322991847991943,-0.24,-0.01,-0.03,0.24
2.132561206817627,-0.09,0.03,-0.09,0.13
2.1328201293945312,-0.06,0.01,-0.11,0.12
2.1360251903533936,-0.13,-0.04,-0.08,0.15
2.1459860801696777,-0.16,0.03,-0.09,0.18
2.1559600830078125,-0.23,0.05,-0.14,0.27
2.1665291786193848,-0.15,0.08,-0.29,0.33
2.175978183746338,0.14,0.0,-0.36,0.38
2.1858630180358887,0.24,0.0,-0.41,0.47
2.196730136871338,0.18,0.04,-0.48,0.51
2.233720302581787,0.03,0.03,-0.5,0.5
2.233983039855957,-0.17,0.0,-0.51,0.53
2.234224319458008,-0.25,0.0,-0.46,0.52
2.2358031272888184,-0.12,-0.03,-0.4,0.41
2.2458291053771973,-0.13,-0.11,-0.2,0.26
2.255824089050293,-0.21,-0.18,0.03,0.27
2.2663991451263428,-0.17,-0.13,0.22,0.3
2.275747299194336,-0.21,-0.05,0.36,0.41
2.28580904006958,-0.15,0.03,0.23,0.27
2.2966091632843018,0.07,0.01,0.15,0.16
2.332357168197632,0.35,-0.08,0.21,0.41
2.3326220512390137,0.44,-0.06,0.24,0.5
2.332888126373291,0.37,-0.11,0.12,0.4
2.335597038269043,0.63,0.07,0.01,0.63
2.345761299133301,0.52,0.09,0.1,0.53
2.355623245239258,0.21,-0.14,0.05,0.25
2.366201162338257,0.11,-0.19,-0.04,0.22
2.375692129135132,0.03,-0.05,-0.03,0.06
2.3857271671295166,0.13,0.02,0.06,0.14
2.3963522911071777,0.21,0.04,0.12,0.24
2.433333158493042,0.16,0.0,0.16,0.22
2.4335970878601074,0.11,-0.02,0.17,0.2
2.433838129043579,-0.01,-0.02,0.29,0.29
2.4355649948120117,0.19,-0.03,0.41,0.45
2.445568084716797,0.52,-0.02,0.42,0.66
2.455536127090454,0.69,-0.06,0.38,0.78
2.4661002159118652,0.66,-0.05,0.29,0.72
2.4757091999053955,0.46,-0.01,0.19,0.49
2.485619068145752,0.51,0.01,0.02,0.51
2.4962692260742188,0.49,0.1,0.02,0.5
2.53269624710083,0.44,0.14,-0.02,0.46
2.532902240753174,0.44,0.14,-0.02,0.46
2.5331592559814453,0.54,0.19,0.14,0.58
2.535457134246826,0.84,0.29,0.14,0.89
2.545516014099121,0.96,0.34,0.13,1.02
2.555382251739502,0.78,0.27,0.05,0.82
2.5659711360931396,0.42,0.18,-0.15,0.48
2.5753931999206543,0.06,0.07,-0.16,0.18
2.585705280303955,-0.14,-0.06,-0.07,0.16
2.596126079559326,-0.07,-0.19,0.03,0.2
2.632308006286621,0.25,-0.25,0.04,0.35
2.6325721740722656,0.45,-0.17,0.12,0.49
2.6328341960906982,0.58,-0.16,0.21,0.63
2.6355412006378174,0.45,-0.04,0.29,0.53
2.6452603340148926,0.06,0.04,0.31,0.31
2.6552510261535645,-0.33,-0.02,0.37,0.49
2.6657862663269043,-0.55,-0.03,0.54,0.77
2.6752591133117676,-0.6,-0.05,0.65,0.88
2.685608148574829,-0.49,-0.2,0.6,0.8
2.6959500312805176,-0.28,-0.27,0.48,0.61
2.7325210571289062,-0.3,-0.21,0.45,0.58
2.732783317565918,-0.4,-0.14,0.37,0.56
2.7330470085144043,-0.14,-0.1,0.24,0.29
2.735342025756836,0.32,-0.23,0.21,0.44
2.7450571060180664,0.25,-0.21,0.02,0.32
2.755106210708618,0.05,-0.03,-0.17,0.17
2.765622138977051,-0.34,0.0,-0.27,0.43
2.7751822471618652,-0.51,-0.15,-0.21,0.57
2.785128116607666,-0.46,-0.23,0.04,0.51
2.7959861755371094,-0.32,-0.13,0.07,0.35
2.832789182662964,-0.34,-0.1,-0.05,0.35
2.833055019378662,-0.26,-0.11,-0.02,0.28
2.833315134048462,0.04,-0.09,0.22,0.24
2.8348922729492188,0.31,-0.21,0.36,0.51
2.844933032989502,-0.4,-0.48,0.15,0.64
2.8548851013183594,-1.01,-0.34,-0.16,1.07
2.8654932975769043,-0.9,-0.16,0.06,0.91
2.8749642372131348,-0.83,-0.15,0.14,0.85
2.884986162185669,-0.94,-0.33,0.21,1.01
2.8956501483917236,-1.38,-0.3,0.33,1.45
2.9328460693359375,-1.36,-0.16,0.36,1.41
2.933112144470215,-0.96,-0.19,0.3,1.02
2.933375120162964,-0.88,-0.22,0.06,0.9
2.934720039367676,-0.87,-0.11,-0.18,0.89
2.9449141025543213,-0.71,0.01,-0.5,0.86
2.9547300338745117,-0.49,0.03,-0.61,0.78
2.9653172492980957,-0.22,0.17,-0.67,0.72
2.974827289581299,0.01,0.24,-0.9,0.93
2.9847991466522217,0.2,0.33,-0.91,0.98
2.995634078979492,0.35,0.02,-0.56,0.66
3.0334372520446777,0.6,-0.04,-0.37,0.7
3.0337071418762207,0.84,0.02,-0.47,0.96
3.033992290496826,0.5,0.1,-0.73,0.89
3.034555196762085,-0.11,0.01,-0.37,0.38
3.0445852279663086,0.06,-0.03,-0.14,0.15
3.0545761585235596,0.69,0.16,-0.24,0.74
3.0651772022247314,0.73,0.16,0.17,0.76
3.0745673179626465,0.85,0.1,0.12,0.86
3.084716320037842,0.92,0.26,0.01,0.95
3.0954501628875732,0.78,0.22,0.14,0.82
3.132369041442871,0.59,0.14,0.19,0.63
3.1326231956481934,0.62,0.13,0.07,0.63
3.132880210876465,0.5,0.15,-0.09,0.52
3.134477138519287,0.31,0.1,-0.02,0.32
3.1444220542907715,0.24,0.06,0.06,0.25
3.1543991565704346,0.23,0.08,0.06,0.25
3.164997100830078,0.21,0.0,0.0,0.21
3.1744213104248047,0.22,-0.04,0.06,0.23
3.1843762397766113,0.23,0.01,0.04,0.23
3.1952590942382812,0.17,-0.01,0.05,0.17
3.2327911853790283,-0.07,-0.03,0.17,0.18
3.2330570220947266,-0.06,-0.02,0.2,0.2
3.2333149909973145,0.1,0.01,0.13,0.16
3.2342841625213623,0.14,0.01,0.01,0.14
3.244295120239258,0.06,0.02,0.05,0.08
3.2542691230773926,0.13,0.03,0.24,0.27
3.2648210525512695,0.18,0.02,0.27,0.32
3.2743330001831055,0.23,0.05,0.12,0.26
3.284337043762207,0.3,0.02,0.18,0.35
3.295086145401001,0.28,-0.03,0.14,0.31
3.3328142166137695,0.22,-0.07,0.25,0.34
3.3330790996551514,0.09,-0.1,0.27,0.3
3.3333373069763184,0.03,-0.07,0.28,0.29
3.3341891765594482,0.02,-0.03,0.18,0.18
3.344114303588867,0.14,-0.04,0.19,0.23
3.3541431427001953,0.29,-0.01,0.26,0.38
3.364732265472412,0.47,-0.02,0.38,0.6
3.374190330505371,0.71,-0.04,0.42,0.82
3.384139060974121,0.8,-0.04,0.45,0.91
3.3949170112609863,0.69,-0.04,0.48,0.84
3.432101249694824,0.57,-0.08,0.43,0.71
3.432366132736206,0.39,-0.09,0.35,0.53
3.4326071739196777,0.22,-0.09,0.19,0.3
3.4340062141418457,0.03,-0.09,-0.15,0.17
3.4439592361450195,0.11,0.02,-0.13,0.17
3.4540300369262695,0.27,0.07,-0.06,0.28
3.464613199234009,0.59,0.15,0.36,0.7
3.4739532470703125,1.12,0.19,0.66,1.31
3.483938217163086,1.59,0.28,0.73,1.77
3.4947643280029297,2.32,0.42,1.19,2.64
3.5320162773132324,2.9,0.52,1.09,3.14
3.532283306121826,3.25,0.47,1.56,3.63
3.532541275024414,3.9,0.54,2.09,4.45
3.533946990966797,3.57,1.11,2.01,4.24
3.5438899993896484,3.37,2.89,0.88,4.52
3.5538442134857178,5.06,2.76,1.16,5.87
3.564462184906006,3.24,2.82,1.97,4.72
3.573841094970703,2.97,4.71,1.53,5.77
3.5839321613311768,3.4,6.25,2.72,7.61
3.5945920944213867,2.83,7.78,3.38,8.94
3.6327431201934814,1.77,9.11,4.58,10.34
3.633047103881836,2.04,9.52,5.03,10.95
3.633334159851074,1.89,9.74,4.75,11.0
3.633769989013672,2.12,10.64,3.94,11.54
3.6437063217163086,2.53,11.08,2.76,11.69
3.6535961627960205,2.37,11.23,2.1,11.66
3.664306163787842,4.44,10.4,3.65,11.88
3.673727035522461,5.94,7.11,1.82,9.44
3.68371319770813,4.02,4.67,0.24,6.16
3.6945011615753174,1.3,5.88,-2.16,6.39
3.7325711250305176,0.73,9.51,-3.91,10.3
3.7328741550445557,0.5,9.0,0.0,9.01
3.7331652641296387,-0.26,5.76,1.97,6.09
3.7335920333862305,-3.5,4.57,-2.5,6.27
3.743525981903076,-0.39,5.52,-3.78,6.7
3.753458023071289,5.72,4.04,2.37,7.39
3.7641730308532715,7.42,2.37,4.16,8.83
3.773574113845825,5.43,1.28,3.3,6.48
3.7835330963134766,3.64,0.35,2.45,4.4
3.7944111824035645,2.93,-0.1,1.89,3.48
3.8334569931030273,2.24,-0.26,1.94,2.97
3.833726167678833,1.53,-0.6,2.15,2.7
3.833984136581421,0.93,-0.94,2.15,2.52
3.8342552185058594,0.51,-1.26,2.05,2.45
3.843362331390381,0.32,-1.59,1.84,2.45
3.8533241748809814,0.35,-1.94,1.7,2.6
3.8639931678771973,0.67,-2.42,1.78,3.07
3.8733971118927,1.23,-2.89,1.94,3.69
3.883364200592041,1.83,-3.29,2.2,4.36
3.8942432403564453,2.25,-3.73,2.39,4.96
3.932478189468384,2.34,-4.27,2.56,5.5
3.932777166366577,2.15,-4.78,2.58,5.84
3.9332022666931152,2.03,-5.3,2.64,6.25
3.9334640502929688,1.97,-5.63,2.68,6.53
3.9431662559509277,1.67,-5.78,2.34,6.45
3.953336238861084,0.86,-6.11,2.07,6.5
3.963860034942627,-0.06,-6.63,1.8,6.87
3.9731922149658203,-0.8,-7.1,1.45,7.29
3.9833712577819824,-1.49,-7.22,0.91,7.42
3.994157314300537,-2.08,-6.97,0.25,7.27
4.033260107040405,-2.61,-6.5,-0.75,7.04
4.033526182174683,-3.42,-5.74,-2.2,7.03
4.033799171447754,-4.42,-4.89,-3.65,7.53
4.034063100814819,-5.54,-4.36,-4.89,8.57
4.043097019195557,-6.76,-4.1,-5.64,9.71
4.053375244140625,-8.53,-3.76,-6.2,11.19
4.063812255859375,-10.12,-3.22,-7.05,12.74
4.075613021850586,-10.65,-2.39,-7.49,13.23
4.083096027374268,-9.99,-1.29,-7.45,12.52
4.093839168548584,-8.63,-0.02,-7.29,11.29
4.132091999053955,-7.32,1.06,-7.13,10.27
4.132399082183838,-6.7,1.37,-6.85,9.67
4.132838249206543,-6.72,0.8,-7.06,9.77
4.1330952644348145,-8.05,2.84,-7.61,11.43
4.142823219299316,-4.42,0.97,-7.36,8.63
4.153245210647583,5.64,0.92,-5.93,8.23
4.163586139678955,23.38,21.67,21.78,38.6
4.173009157180786,15.21,24.5,12.19,31.3
4.1830573081970215,-3.87,8.64,-11.74,15.08
4.193771123886108,-12.19,-3.79,-1.93,12.91
4.203023195266724,-19.07,-8.35,-0.36,20.82
4.230780124664307,-15.34,-4.2,-5.34,16.77
4.231049060821533,-10.38,0.14,-4.46,11.29
4.2327752113342285,-6.74,0.39,-4.55,8.14
4.242835998535156,-1.89,1.07,-3.44,4.06
4.252742290496826,1.23,0.5,-2.65,2.96
4.2633562088012695,3.2,0.83,-2.57,4.18
4.272891998291016,3.99,1.33,-1.24,4.38
4.282827138900757,1.99,0.64,-0.12,2.09
4.2937211990356445,-0.71,0.04,-0.74,1.02
4.302793025970459,-2.6,-0.13,-1.69,3.1
4.331536293029785,-3.24,0.01,-0.89,3.36
4.331818103790283,-2.81,-0.11,0.59,2.87
4.332617282867432,-1.99,-0.3,1.06,2.27
4.34262228012085,-0.33,-0.1,0.47,0.58
4.3526482582092285,1.12,0.19,-0.07,1.13
4.363210201263428,1.88,0.44,-0.44,1.98
4.372704982757568,2.41,0.32,-0.52,2.48
4.382552146911621,2.41,-0.01,-0.56,2.47
4.393468141555786,1.87,-0.15,-0.74,2.01
4.402672290802002,0.93,-0.06,-0.95,1.33
4.433537006378174,0.08,-0.01,-0.73,0.73
4.433813095092773,-0.46,-0.1,-0.14,0.49
4.434082984924316,-0.48,-0.22,0.43,0.68
4.442488193511963,0.21,-0.14,0.6,0.65
4.452473163604736,1.16,0.03,0.57,1.29
4.463184118270874,1.85,0.21,0.77,2.01
4.472594261169434,1.83,0.33,0.76,2.0
4.482482194900513,1.04,0.25,0.46,1.16
4.493296146392822,0.18,0.12,0.51,0.55
4.502512216567993,-0.17,-0.07,0.79,0.81
4.533529281616211,-0.09,-0.19,1.16,1.17
4.533822059631348,0.25,-0.26,1.46,1.5
4.534107208251953,0.78,-0.33,1.71,1.9
4.542328119277954,1.19,-0.38,1.67,2.08
4.552306175231934,1.38,-0.37,1.31,1.93
4.5628931522369385,1.16,-0.27,0.84,1.45
4.572381019592285,0.73,-0.05,0.48,0.87
4.582499027252197,0.38,0.17,0.16,0.44
4.593172073364258,0.74,0.25,0.18,0.8
4.602397203445435,1.52,0.09,0.49,1.59
4.633419036865234,1.75,0.08,0.58,1.84
4.633693218231201,1.37,0.13,0.57,1.48
4.6339592933654785,0.73,0.1,1.26,1.45
4.64222526550293,0.3,0.15,1.98,2.0
4.652166128158569,0.53,0.46,2.22,2.32
4.66285514831543,1.2,0.91,2.17,2.64
4.672299146652222,1.6,1.23,2.03,2.86
4.68215799331665,1.57,1.74,1.74,2.91
4.693019151687622,1.5,2.09,1.62,3.04
4.702252149581909,1.61,2.53,1.92,3.56
4.733921051025391,2.17,3.2,2.44,4.57
4.734191179275513,2.96,4.51,3.16,6.25
4.734457015991211,3.45,6.67,3.28,8.19
4.742011070251465,5.3,8.9,4.48,11.28
4.752026081085205,5.93,9.29,6.43,12.75
4.762683153152466,4.43,9.29,7.56,12.77
4.772187232971191,2.85,10.19,8.7,13.69
4.782209157943726,3.14,11.66,9.93,15.63
4.792875289916992,4.16,11.34,8.59,14.82
4.802141189575195,5.72,9.96,5.61,12.78
4.833078145980835,6.1,8.35,3.06,10.78
4.833357334136963,4.44,7.51,-0.68,8.75
4.8336262702941895,0.19,9.29,-4.48,10.31
4.841870307922363,-7.06,12.3,-4.81,14.97
4.851778984069824,-6.36,12.3,-2.17,14.01
4.862414121627808,1.49,7.31,0.0,7.46
4.871821165084839,3.27,4.51,1.65,5.8
4.88184118270874,-3.52,4.05,-2.22,5.8
4.892737150192261,-3.38,5.62,-5.83,8.77
4.902034282684326,3.25,6.75,-0.82,7.53
4.933798313140869,9.11,4.45,2.87,10.53
4.934088230133057,12.02,2.19,3.68,12.76
4.934375286102295,10.17,0.45,3.58,10.79
4.94170618057251,7.01,-1.04,3.17,7.76
4.9517822265625,5.23,-1.99,2.89,6.29
4.96233606338501,4.18,-1.86,2.9,5.41
4.971719264984131,3.35,-1.37,2.99,4.69
4.981706142425537,2.67,-1.59,2.9,4.25
4.992540121078491,2.4,-2.22,2.55,4.14
5.001783132553101,2.81,-2.74,2.3,4.54
5.033881187438965,3.32,-2.91,2.21,4.93
5.034152030944824,3.27,-2.92,2.0,4.81
5.034442186355591,2.83,-3.11,1.57,4.48
5.041572093963623,2.37,-3.4,1.13,4.29
5.051643133163452,1.79,-3.65,0.52,4.09
5.062173128128052,1.16,-4.09,0.1,4.25
5.071502208709717,0.53,-4.8,0.07,4.82
5.08165717124939,-0.12,-5.53,-0.35,5.54
5.092417240142822,-0.5,-6.31,-0.62,6.36
5.101716995239258,-0.62,-7.24,-0.29,7.27
5.1338911056518555,-1.06,-7.91,-0.29,7.98
5.134181022644043,-1.29,-8.08,-0.43,8.19
5.134468078613281,-1.35,-7.8,-0.93,7.97
5.142376184463501,-2.11,-6.99,-2.12,7.6
5.151342153549194,-3.64,-5.83,-3.64,7.77
5.162048101425171,-4.63,-4.23,-4.96,7.99
5.171346187591553,-5.2,-2.37,-5.68,8.05
5.181467056274414,-5.4,-0.81,-5.99,8.1
5.192291259765625,-5.38,0.28,-6.36,8.33
5.201451301574707,-5.26,0.6,-6.9,8.69
5.2344841957092285,-5.57,0.43,-7.47,9.32
5.234776020050049,-6.86,0.14,-8.5,10.92
5.235061168670654,-8.82,-0.43,-9.95,13.3
5.241260051727295,-10.22,-0.98,-10.87,14.95
5.2513861656188965,-10.16,-1.67,-10.58,14.76
5.261934280395508,-9.63,-2.19,-9.79,13.9
5.271193981170654,-9.21,5.04,-8.27,13.36
5.28125,-3.38,0.38,-4.44,5.59
5.292115211486816,-2.92,-0.8,-4.89,5.75
5.301441192626953,9.9,17.03,21.51,29.16
5.334019184112549,13.34,25.32,5.75,29.19
5.334318161010742,3.47,15.89,-17.05,23.56
5.334589004516602,-3.71,-1.85,-2.0,4.6
5.3410961627960205,-14.01,-9.76,2.56,17.26
5.351109027862549,-12.92,-5.11,-2.73,14.15
5.361783981323242,-10.19,-2.82,-7.79,13.13
5.371208190917969,-8.16,-1.06,-6.5,10.48
5.381125211715698,-4.62,1.28,-5.01,6.93
5.393768310546875,0.32,1.16,-4.24,4.4
5.401223182678223,4.37,1.01,-3.71,5.82
5.433443069458008,4.95,1.12,-1.8,5.38
5.433722019195557,1.83,0.78,-0.93,2.19
5.433991193771362,-1.73,0.38,-2.28,2.88
5.440952301025391,-3.33,0.11,-2.6,4.22
5.451112270355225,-3.21,0.19,-1.69,3.63
5.4615561962127686,-2.17,0.16,-0.93,2.36
5.471267223358154,-1.39,-0.08,-0.91,1.66
5.480943202972412,-1.14,-0.27,-1.01,1.54
5.491847038269043,-0.5,-0.23,-0.85,1.01
5.501073122024536,0.42,-0.1,-0.67,0.79
5.534684181213379,0.75,0.01,-0.31,0.81
5.534974098205566,0.48,-0.04,0.08,0.48
5.535259246826172,0.14,-0.17,0.39,0.44
5.5407631397247314,0.01,-0.19,0.77,0.79
5.550741195678711,0.19,-0.08,0.94,0.96
5.561362266540527,0.6,0.08,1.08,1.23
5.571214199066162,1.01,0.16,1.26,1.62
5.580859184265137,1.43,0.2,1.21,1.88
5.591620206832886,1.68,0.11,1.16,2.04
5.60077428817749,1.71,-0.02,1.22,2.1
5.6342010498046875,1.73,-0.01,1.24,2.12
5.634476184844971,1.71,0.04,1.28,2.13
5.634742259979248,1.37,0.01,1.15,1.78
5.640611171722412,0.84,-0.04,0.99,1.29
5.650633335113525,0.51,-0.1,0.93,1.06
5.661184310913086,0.45,-0.32,0.84,1.0
5.671094179153442,0.39,-0.37,0.56,0.77
5.680630207061768,0.45,-0.11,0.07,0.46
5.691497325897217,0.73,0.29,-0.31,0.84
5.700730323791504,0.85,0.58,-0.37,1.09
5.734049320220947,0.7,0.61,-0.16,0.94
5.734307289123535,0.7,0.43,0.26,0.86
5.734574317932129,0.65,0.37,0.65,0.99
5.740467071533203,0.46,0.47,0.78,1.02
5.75048828125,0.11,0.67,1.04,1.24
5.761051177978516,0.03,0.99,1.23,1.57
5.770520210266113,0.66,1.43,1.12,1.93
5.780519008636475,1.69,2.34,1.56,3.28
5.791280269622803,1.69,2.29,2.15,3.56
5.8005712032318115,2.19,2.69,1.96,3.98
5.834379196166992,2.57,3.07,2.34,4.63
5.834649085998535,2.39,3.13,2.3,4.56
5.834920167922974,2.4,3.44,2.57,4.91
5.840301036834717,2.44,3.78,3.18,5.5
5.850328207015991,2.31,4.93,3.56,6.5
5.860928058624268,2.75,7.55,3.44,8.74
5.87033224105835,5.14,9.4,4.81,11.74
5.880465984344482,6.37,9.41,7.06,13.37
5.891013145446777,6.73,9.83,7.21,13.92
5.900446176528931,7.15,10.87,7.53,15.03
5.934077262878418,6.38,10.98,7.91,14.96
5.934357166290283,5.01,10.49,7.08,13.61
5.934624195098877,4.45,9.73,3.96,11.4
5.940132141113281,4.35,8.87,-2.06,10.09
5.950213193893433,4.35,10.19,-7.91,13.61
5.960721015930176,2.77,13.32,-8.66,16.12
5.97025203704834,-0.94,15.1,-2.33,15.3
5.98020601272583,-2.89,10.36,1.97,10.93
5.990897178649902,0.06,3.51,0.67,3.57
6.000144004821777,0.0,0.82,0.29,0.86
6.034152984619141,-5.95,0.33,-4.5,7.46
6.034427165985107,-4.87,3.47,-5.37,8.03
6.034696102142334,0.64,4.89,0.35,4.94
6.040002107620239,5.78,2.13,3.55,7.1
6.05011510848999,8.46,-0.82,4.73,9.72
6.06049919128418,7.52,-2.13,3.91,8.73
6.070044994354248,5.92,-2.74,2.62,7.02
6.080088138580322,4.27,-2.96,2.29,5.67
6.090692043304443,2.66,-2.95,2.32,4.6
6.100067138671875,1.5,-3.09,2.24,4.1
6.13474702835083,0.41,-3.51,2.24,4.18
6.1350181102752686,-0.52,-3.82,2.01,4.34
6.135285139083862,-0.86,-4.03,2.0,4.58
6.139805316925049,-0.37,-4.18,2.23,4.75
6.149845123291016,0.91,-4.05,2.33,4.76
6.160457134246826,2.22,-3.9,2.46,5.11
6.169861316680908,2.91,-3.92,2.4,5.44
6.180057048797607,2.78,-4.05,2.16,5.36
6.190604209899902,2.2,-4.41,1.85,5.26
6.202048301696777,1.53,-4.92,1.55,5.38
6.234586238861084,0.97,-5.39,1.37,5.64
6.234862327575684,0.63,-5.7,0.99,5.81
6.235133171081543,0.47,-6.09,0.68,6.14
6.239691257476807,0.06,-6.53,0.54,6.55
6.249670028686523,-0.61,-6.68,-0.03,6.7
6.260339260101318,-1.36,-6.55,-0.57,6.71
6.269808292388916,-2.74,-6.2,-1.49,6.94
6.279664993286133,-4.11,-5.54,-2.79,7.44
6.29051399230957,-5.34,-4.63,-4.15,8.19
6.299715995788574,-6.39,-3.25,-5.94,9.31
6.334380149841309,-7.02,-1.81,-7.04,10.1
6.334650039672852,-7.52,-0.86,-7.12,10.39
6.334918022155762,-8.67,-0.04,-7.06,11.18
6.33961820602417,-10.69,0.71,-7.91,13.31
6.34955620765686,-12.41,0.72,-8.6,15.11
6.360170125961304,-12.66,-0.14,-8.43,15.21
6.369537115097046,-11.08,-0.51,-8.16,13.76
6.379565238952637,-8.76,-0.77,-7.4,11.49
6.390252113342285,-7.4,-1.69,-6.24,9.82
6.399572134017944,-7.59,0.16,-6.09,9.73
6.434759140014648,-7.39,5.68,-5.75,10.95
6.435035228729248,-0.83,-3.82,-7.18,8.17
6.435304164886475,11.06,9.3,8.82,16.92
6.4395201206207275,26.61,21.49,24.96,42.34
6.449400186538696,9.78,24.22,-7.4,27.14
6.45995020866394,-1.32,10.79,-14.34,17.99
6.469411134719849,-10.76,-8.48,-6.44,15.13
6.479434013366699,-16.34,-9.38,5.82,19.71
6.490077018737793,-15.37,-5.71,-1.93,16.5
6.499455213546753,-12.33,-3.05,-8.18,15.1
6.531937122344971,-8.24,-0.52,-5.61,9.98
6.532226085662842,-4.5,1.03,-1.52,4.86
6.532494068145752,-1.43,0.82,-0.36,1.68
6.539131164550781,1.64,0.92,-1.52,2.41
6.549211025238037,4.21,0.92,-1.82,4.67
6.561127185821533,3.32,0.67,-1.8,3.83
6.569301128387451,-0.09,0.37,-2.1,2.13
6.579315185546875,-1.48,0.31,-2.16,2.63
6.590026140213013,-1.47,0.16,-1.25,1.93
6.599297046661377,-1.51,-0.15,-0.5,1.59
6.633997201919556,-1.43,-0.17,-0.73,1.61
6.634284019470215,-0.79,-0.06,-1.4,1.6
6.63456916809082,0.09,0.18,-1.73,1.74
6.639036178588867,0.64,0.27,-1.18,1.36
6.64909815788269,0.75,0.21,-0.61,0.98
6.6601831912994385,0.32,0.08,-0.22,0.39
6.669846057891846,-0.28,-0.07,0.06,0.29
6.679074287414551,-0.49,-0.17,0.14,0.53
6.690117120742798,-0.39,-0.11,0.13,0.42
6.699117183685303,-0.13,0.03,0.15,0.2
6.734516143798828,0.19,0.1,0.27,0.34
6.734814167022705,0.53,0.13,0.32,0.63
6.735105037689209,0.78,0.14,0.45,0.91
6.738929271697998,0.91,0.12,0.67,1.13
6.749235153198242,1.07,0.1,0.69,1.27
6.759582996368408,1.0,0.08,0.69,1.21
6.769024133682251,0.6,0.02,0.64,0.87
6.779047012329102,0.3,-0.06,0.73,0.79
6.789967060089111,0.23,-0.08,1.08,1.1
6.799030303955078,0.54,-0.11,1.48,1.57
6.834737300872803,0.95,-0.29,1.46,1.76
6.8350300788879395,1.15,-0.37,1.18,1.68
6.835318088531494,1.58,-0.25,1.05,1.91
6.839069128036499,2.24,-0.05,1.29,2.58
6.848806142807007,2.55,0.26,1.64,3.04
6.859425067901611,2.34,0.48,1.23,2.68
6.8689751625061035,1.83,0.27,1.04,2.12
6.878848075866699,1.58,-0.08,1.89,2.46
6.916321277618408,1.7,-0.11,2.15,2.74
6.9165940284729,1.85,0.14,1.84,2.61
6.916860103607178,2.07,0.52,1.5,2.6
6.918703079223633,2.04,0.96,1.29,2.59
6.928696155548096,1.73,1.42,1.22,2.54
6.938898086547852,1.36,1.83,0.92,2.45
6.948801040649414,1.37,2.67,1.07,3.18
6.959348201751709,1.85,3.4,1.72,4.23
6.968679189682007,1.73,3.66,2.51,4.76
6.978726148605347,2.04,4.06,3.24,5.58
7.017271041870117,2.46,5.86,3.27,7.14
7.0175580978393555,4.26,7.63,3.66,9.47
7.017867088317871,5.49,7.78,5.06,10.78
7.018421173095703,4.41,7.98,5.14,10.46
7.02846622467041,3.72,8.66,6.07,11.21
7.0385050773620605,4.07,10.05,7.58,13.22
7.04856014251709,5.77,10.96,7.45,14.45
7.059219121932983,6.83,10.29,6.15,13.79
7.068548202514648,6.31,8.73,5.01,11.87
7.078551292419434,5.71,7.36,2.81,9.72
7.118540287017822,4.99,6.68,-1.52,8.47
7.118828296661377,2.8,8.05,-5.16,9.96
7.119113206863403,-1.18,11.31,-4.53,12.24
7.119397163391113,-4.47,11.97,-1.22,12.83
7.128342151641846,-3.47,7.89,0.31,8.62
7.138294219970703,1.1,3.36,1.34,3.78
7.148365020751953,-0.12,1.08,1.52,1.86
7.159041166305542,-3.55,1.57,-4.11,5.65
7.168434143066406,-0.09,5.18,-3.53,6.26
7.1784961223602295,4.93,4.84,1.58,7.08
7.218389987945557,8.54,1.87,4.36,9.76
7.218679189682007,8.78,-0.26,5.5,10.36
7.2189671993255615,6.28,-1.19,4.57,7.85
7.219250202178955,4.34,-1.73,3.52,5.84
7.228236198425293,3.06,-2.17,3.46,5.1
7.238119125366211,1.95,-2.33,3.42,4.57
7.248244285583496,0.96,-2.42,3.53,4.38
7.258881092071533,0.25,-2.48,3.4,4.21
7.268294334411621,-0.11,-2.58,2.97,3.93
7.278281211853027,-0.11,-2.7,2.67,3.79
7.3178441524505615,0.16,-2.84,2.42,3.73
7.31813907623291,0.46,-2.99,2.28,3.78
7.318406105041504,0.78,-3.17,2.28,3.98
7.318688154220581,1.12,-3.5,2.24,4.3
7.328062057495117,1.24,-3.93,2.03,4.59
7.337993144989014,0.95,-4.49,1.76,4.91
7.348060131072998,0.17,-5.07,1.36,5.25
7.358798027038574,-0.85,-5.9,0.78,6.01
7.368080139160156,-1.78,-6.83,0.36,7.06
7.378081321716309,-2.44,-7.49,0.23,7.88
7.416957139968872,-2.88,-7.72,-0.04,8.23
7.41775918006897,-3.3,-7.7,-0.79,8.41
7.418045997619629,-4.09,-7.54,-1.89,8.78
7.418334007263184,-4.98,-7.02,-3.13,9.15
7.427905082702637,-5.9,-5.96,-4.86,9.69
7.437978267669678,-6.72,-4.54,-6.21,10.21
7.447850227355957,-6.54,-3.28,-6.29,9.64
7.458600997924805,-6.01,-2.27,-6.08,8.84
7.468850135803223,-6.24,-1.14,-6.96,9.41
7.4779253005981445,-7.36,-0.37,-8.13,10.97
7.488915205001831,-8.32,-0.69,-8.74,12.08
7.518343210220337,-8.24,-0.99,-8.75,12.05
7.518635272979736,-7.72,-0.46,-9.03,11.88
7.518914222717285,-7.11,0.23,-10.03,12.29
7.527770042419434,-6.58,7.46,-7.37,12.38
7.5376973152160645,-2.01,-0.53,-4.75,5.18
7.547713279724121,0.03,1.27,-7.47,7.57
7.558585166931152,12.78,22.5,14.59,29.7
7.567746162414551,11.05,27.73,-0.34,29.85
7.577797174453735,4.31,8.89,-9.94,14.01
7.588682174682617,-7.02,-4.47,2.7,8.74
7.618019104003906,-15.57,-9.82,1.16,18.44
7.618309020996094,-12.14,-7.33,-6.4,15.55
7.61858606338501,-10.1,-2.59,-9.32,13.98
7.627560138702393,-7.77,0.67,-5.47,9.52
7.637606143951416,-4.04,2.28,-3.14,5.6
7.647629261016846,-0.18,1.5,-3.01,3.36
7.658308029174805,2.39,1.06,-2.57,3.66
7.667723178863525,2.88,0.74,-1.42,3.29
7.677610158920288,1.26,0.31,-0.97,1.62
7.688446044921875,-0.18,0.14,-2.53,2.54
7.7183802127838135,-0.43,0.03,-3.06,3.09
7.718669176101685,-0.42,0.31,-2.09,2.15
7.718955993652344,-0.5,0.36,-1.32,1.45
7.728537082672119,-0.69,0.03,-0.98,1.19
7.737333297729492,-0.7,-0.27,-0.87,1.14
7.747374057769775,-0.53,-0.39,-0.67,0.93
7.757984161376953,-0.46,-0.3,-0.49,0.73
7.767531156539917,-0.39,-0.16,-0.15,0.44
7.777468204498291,-0.52,-0.09,0.22,0.57
7.788296222686768,-0.73,-0.03,0.41,0.83
7.819279193878174,-0.73,-0.01,0.61,0.95
7.819571018218994,-0.48,0.06,0.54,0.72
7.819857120513916,-0.03,0.19,0.29,0.34
7.827251195907593,0.45,0.24,0.07,0.51
7.837273120880127,1.02,0.27,0.11,1.06
7.847293138504028,1.5,0.32,0.38,1.58
7.85797119140625,1.7,0.27,0.61,1.82
7.867512226104736,1.33,0.23,0.44,1.41
7.877394199371338,0.43,0.23,0.32,0.58
7.888290166854858,-0.12,0.14,0.85,0.86
7.9198760986328125,0.04,0.08,1.29,1.29
7.920166015625,0.58,0.07,1.61,1.71
7.9204511642456055,1.31,-0.07,1.75,2.18
7.92705512046814,1.87,-0.3,1.67,2.52
7.937051296234131,2.41,-0.3,1.94,3.1
7.947108268737793,3.03,-0.05,1.96,3.6
7.9577412605285645,2.95,0.36,1.54,3.34
7.9672911167144775,2.27,0.56,1.19,2.62
7.977177143096924,1.72,0.38,1.26,2.16
7.9880499839782715,1.7,0.27,1.91,2.57
8.019510269165039,1.85,0.37,2.22,2.91
8.019798278808594,1.88,0.65,1.8,2.68
8.020081996917725,1.85,1.2,1.48,2.65
8.027123212814331,1.68,2.01,1.5,3.01
8.03694200515747,2.01,2.87,1.88,3.97
8.047045230865479,1.67,3.26,2.44,4.4
8.057606220245361,1.83,3.29,2.68,4.62
8.067089080810547,2.26,3.28,3.24,5.13
8.07702922821045,2.44,3.41,3.62,5.53
8.088147163391113,2.28,4.56,3.66,6.27
8.11967420578003,2.68,7.13,3.32,8.3
8.119965076446533,4.76,8.66,4.95,11.05
8.120249271392822,5.8,8.75,6.96,12.59
8.126817226409912,6.08,9.23,7.16,13.16
8.13681411743164,6.23,9.65,7.58,13.76
8.14682412147522,5.67,9.65,7.74,13.6
8.157741069793701,5.03,8.91,6.57,12.15
8.166927099227905,4.3,7.87,3.55,9.64
8.176839113235474,4.56,6.84,-2.07,8.47
8.187744140625,5.29,8.36,-7.53,12.43
8.219224214553833,2.82,11.79,-7.49,14.24
8.219519138336182,-2.09,12.41,-0.86,12.61
8.219804286956787,-3.09,10.02,1.09,10.54
8.226659297943115,-1.47,5.3,-0.09,5.5
8.236775159835815,1.18,1.16,0.29,1.67
8.246725082397461,-1.76,-0.94,-0.55,2.06
8.257699012756348,-3.46,0.16,-5.14,6.19
8.266730308532715,1.1,3.68,-1.3,4.05
8.276691198348999,5.2,3.08,2.42,6.51
8.287631034851074,7.94,0.86,4.08,8.96
8.319226264953613,8.26,-0.91,4.91,9.65
8.319504261016846,6.67,-1.64,4.23,8.06
8.319772243499756,5.07,-1.87,3.86,6.64
8.326590061187744,3.61,-2.29,4.12,5.93
8.336461067199707,2.78,-2.69,3.88,5.47
8.34654712677002,2.01,-3.03,3.64,5.14
8.357664108276367,1.13,-3.1,3.44,4.76
8.366640090942383,-0.09,-2.95,2.85,4.1
8.376573085784912,-1.28,-2.6,2.08,3.56
8.387494087219238,-1.45,-2.44,1.9,3.41
8.41906213760376,-0.67,-2.76,2.11,3.53
8.419325113296509,0.32,-3.03,2.11,3.7
8.41959810256958,0.61,-3.27,1.9,3.83
8.426297187805176,0.66,-3.57,1.41,3.89
8.436307191848755,0.27,-4.04,1.73,4.4
8.446340084075928,-0.64,-4.12,1.48,4.42
8.457425117492676,-1.49,-4.27,0.6,4.56
8.466392993927002,-2.71,-4.17,-0.28,4.98
8.47637128829956,-3.54,-3.76,-2.16,5.59
8.48733901977539,-3.8,-3.16,-4.15,6.45
8.519515037536621,-4.43,-2.9,-3.45,6.31
8.519787311553955,-5.35,-2.96,-2.23,6.5
8.52005410194397,-5.86,-2.38,-3.28,7.12
8.526251316070557,-6.28,-1.39,-5.47,8.44
8.53619909286499,-6.93,-0.68,-7.22,10.03
8.546204090118408,-7.64,-0.54,-7.94,11.03
8.55710220336914,-8.14,-0.72,-8.25,11.61
8.566322326660156,-8.18,-1.23,-8.74,12.03
8.576184272766113,-7.82,-2.0,-9.81,12.7
8.587146282196045,-7.1,-2.5,-10.24,12.7
8.619758129119873,-6.81,-3.39,-9.67,12.3
8.620031118392944,-6.95,-4.43,-8.97,12.18
8.62030029296875,-7.06,-5.14,-8.76,12.36
8.62606430053711,-7.13,-5.23,-9.04,12.64
8.63654613494873,-7.5,3.02,-7.63,11.11
8.646008014678955,-3.61,-0.18,-5.0,6.16
8.657051086425781,5.9,4.71,4.78,8.93
8.666725158691406,19.71,17.04,29.96,39.7
8.676366329193115,9.22,19.75,-4.38,22.23
8.68696117401123,3.35,15.76,-15.19,22.14
8.719120979309082,-4.7,3.55,-4.8,7.59
8.719417095184326,-13.31,-7.62,-3.82,15.8
8.71970510482788,-10.19,-4.65,-2.1,11.39
8.725847244262695,-9.43,-3.1,-4.79,11.02
8.73594331741333,-7.68,-2.03,-9.27,12.2
8.745879173278809,-5.03,0.53,-7.06,8.68
8.756577014923096,-2.87,0.65,-3.95,4.92
8.765984058380127,0.05,0.38,-3.39,3.41
8.77594518661499,2.42,0.82,-2.44,3.53
8.786851167678833,2.91,1.09,0.27,3.11
8.820470333099365,1.38,0.71,0.93,1.8
8.820762157440186,-0.44,0.26,-1.03,1.14
8.821055173873901,-0.94,0.16,-1.61,1.87
8.825703144073486,-0.76,0.39,-1.24,1.5
8.835710048675537,-0.71,0.21,-0.9,1.16
8.845739126205444,-0.69,-0.08,-0.94,1.16
8.856466293334961,-0.4,-0.22,-1.15,1.23
8.86581802368164,-0.11,-0.2,-1.16,1.18
8.875814199447632,-0.17,-0.13,-0.99,1.01
8.886670112609863,-0.51,-0.07,-0.67,0.84
8.91982913017273,-0.93,-0.01,-0.32,0.98
8.920093059539795,-1.13,-0.01,0.15,1.13
8.920363187789917,-1.09,0.03,0.74,1.31
8.9255690574646,-0.88,0.1,1.02,1.35
8.935744285583496,-0.44,0.17,0.96,1.06
8.945679187774658,0.27,0.27,0.7,0.79
8.956215143203735,0.83,0.29,0.38,0.95
8.965766191482544,1.09,0.13,0.01,1.09
8.975687980651855,1.07,-0.03,0.3,1.11
8.986595153808594,1.34,0.07,1.18,1.78
9.0195951461792,1.66,0.32,1.56,2.3
9.019870281219482,1.52,0.44,1.33,2.06
9.020149230957031,1.12,0.23,1.34,1.76
9.025408267974854,1.03,-0.16,1.77,2.05
9.035553216934204,1.59,-0.45,2.01,2.6
9.045483112335205,2.09,-0.38,1.8,2.78
9.056133270263672,2.05,-0.06,1.4,2.48
9.06550121307373,1.91,0.38,0.78,2.09
9.075559139251709,1.55,0.64,0.23,1.69
9.086258172988892,1.1,0.71,0.25,1.33
9.119894027709961,0.88,0.74,0.7,1.34
9.120191097259521,0.69,0.76,0.98,1.41
9.120476245880127,0.75,1.0,1.12,1.67
9.125102043151855,0.9,1.44,1.51,2.27
9.135261058807373,1.23,2.03,1.95,3.07
9.14525032043457,1.04,1.92,2.52,3.33
9.155880212783813,1.45,1.75,2.4,3.3
9.165384292602539,1.81,1.76,2.43,3.5
9.175225257873535,2.11,1.64,2.43,3.61
9.186109066009521,2.58,1.7,2.67,4.08
9.219274044036865,3.03,1.88,3.15,4.75
9.219571113586426,3.33,2.89,3.51,5.63
9.219856262207031,3.75,5.6,3.28,7.49
9.225030183792114,5.18,8.25,3.69,10.41
9.235111236572266,6.22,8.39,5.7,11.89
9.245127201080322,5.5,8.44,6.74,12.12
9.255730152130127,5.03,9.41,8.23,13.47
9.265223979949951,4.62,10.27,9.48,14.72
9.275065183639526,4.13,9.87,8.74,13.81
9.285961151123047,3.5,8.65,5.82,10.99
9.319983005523682,3.9,7.72,0.82,8.68
9.320272207260132,4.85,8.65,-4.66,10.95
9.320564270019531,3.03,11.71,-7.16,14.05
9.32487416267395,-1.03,13.24,-2.65,13.54
9.334922313690186,-3.86,11.03,1.53,11.78
9.345052242279053,-2.77,6.14,0.48,6.75
9.35567021369934,0.49,2.26,1.12,2.56
9.365124225616455,-2.0,0.48,1.16,2.36
9.374847173690796,-5.17,1.77,-3.68,6.58
9.385939121246338,-1.24,5.43,-1.4,5.74
9.420785188674927,3.01,4.9,3.15,6.55
9.42107629776001,6.23,1.9,4.99,8.2
9.42136001586914,7.62,-0.22,5.52,9.41
9.42473816871643,6.93,-1.19,4.33,8.25
9.434784173965454,5.73,-1.53,3.37,6.82
9.444805145263672,4.26,-1.35,3.38,5.6
9.455526113510132,2.92,-1.19,3.53,4.73
9.46495008468628,1.79,-1.3,3.84,4.43
9.474942207336426,0.63,-1.73,3.91,4.32
9.485742092132568,-0.15,-1.88,3.64,4.09
9.521105289459229,-0.4,-1.78,3.28,3.75
9.521375179290771,-0.28,-1.78,2.87,3.38
9.521663188934326,0.29,-2.11,2.86,3.56
9.524769306182861,1.03,-2.57,2.94,4.03
9.534667015075684,1.41,-3.1,2.8,4.4
9.544618129730225,1.1,-3.73,2.46,4.6
9.555306196212769,0.33,-4.3,1.63,4.61
9.5647292137146,-0.52,-4.9,0.99,5.02
9.574989318847656,-1.23,-5.34,0.73,5.52
9.585625171661377,-1.58,-5.61,0.41,5.84
9.62195110321045,-1.76,-5.65,-0.53,5.94
9.622244119644165,-2.11,-5.44,-1.67,6.06
9.62253212928772,-2.9,-5.05,-3.1,6.59
9.624760150909424,-4.38,-4.32,-4.72,7.75
9.634506225585938,-5.91,-3.62,-5.29,8.71
9.644505023956299,-6.58,-3.07,-5.01,8.82
9.655181169509888,-6.44,-2.2,-5.28,8.61
9.66463017463684,-5.87,-0.99,-6.07,8.5
9.674859046936035,-5.22,0.28,-6.91,8.66
9.685501098632812,-5.6,1.08,-8.35,10.11
9.721689224243164,-6.65,0.88,-9.44,11.58
9.721977233886719,-7.73,-0.34,-9.38,12.15
9.72226333618164,-8.36,-1.79,-9.43,12.72
9.724581241607666,-8.22,-3.03,-9.78,13.13
9.734333038330078,-8.17,-3.24,-10.7,13.84
9.744319200515747,-8.57,4.26,-9.2,13.27
9.754971027374268,-5.25,-1.17,-6.1,8.13
9.764448165893555,-5.22,-4.27,-9.18,11.39
9.774777173995972,5.3,11.98,7.49,15.09
9.785237312316895,14.53,29.69,14.88,36.24
9.82082223892212,1.44,27.1,-18.12,32.63
9.821104049682617,4.17,-0.23,-11.03,11.79
9.821376323699951,-2.97,-12.76,11.3,17.3
9.824145317077637,-8.53,-12.34,-0.91,15.02
9.834176063537598,-11.86,-6.62,-10.58,17.21
9.844135284423828,-13.3,-3.52,-7.54,15.68
9.854841232299805,-8.86,0.88,-4.22,9.85
9.864302158355713,-2.74,1.95,-0.18,3.36
9.874141216278076,1.96,0.76,-0.84,2.26
9.885013103485107,3.9,1.34,-3.5,5.4
9.921870231628418,2.92,1.52,-2.74,4.28
9.922149181365967,-0.53,1.07,-1.7,2.07
9.922420024871826,-2.36,0.53,-2.2,3.26
9.924026012420654,-2.36,0.05,-2.67,3.56
9.934057235717773,-2.02,-0.04,-2.47,3.19
9.943881034851074,-1.78,-0.07,-1.89,2.59
9.95465898513794,-1.28,0.02,-1.5,1.97
9.964099168777466,-0.5,0.12,-1.44,1.52
9.974042177200317,0.05,0.19,-1.36,1.37
9.984884262084961,0.18,0.14,-0.95,0.97
10.02206802368164,-0.15,0.11,-0.35,0.39
10.022343158721924,-0.49,0.0,-0.01,0.49
10.02261209487915,-0.63,-0.14,0.25,0.69
10.023895263671875,-0.58,-0.14,0.28,0.65
10.033992290496826,-0.33,-0.06,0.2,0.39
10.043935298919678,0.06,0.05,0.13,0.15
10.054487228393555,0.45,0.14,-0.04,0.47
10.06398630142212,0.73,0.2,0.0,0.75
10.074175119400024,0.89,0.1,0.16,0.9
10.084722995758057,1.07,-0.01,0.2,1.08
10.121950149536133,1.43,0.03,0.46,1.5
10.12221622467041,1.71,0.04,0.65,1.82
10.122480154037476,1.68,0.03,0.75,1.84
10.123752117156982,1.21,0.04,0.94,1.53
10.133711099624634,0.42,0.07,1.04,1.12
10.143685102462769,-0.23,0.05,1.0,1.02
10.154264211654663,-0.4,-0.01,1.04,1.11
10.163824081420898,-0.02,-0.05,1.04,1.04
10.173707008361816,0.45,-0.09,0.97,1.07
10.184588193893433,0.77,-0.09,0.85,1.15
10.220579147338867,1.09,0.03,0.58,1.23
10.220853328704834,1.26,0.21,0.4,1.33
10.221120119094849,1.33,0.39,0.33,1.42
10.223618030548096,1.34,0.42,0.8,1.61
10.233656167984009,1.35,0.41,1.06,1.76
10.243553161621094,1.2,0.36,1.28,1.79
10.254147052764893,1.1,0.39,1.73,2.08
10.263682126998901,1.18,0.72,1.91,2.35
10.27367115020752,1.28,1.21,1.57,2.35
10.284433126449585,1.47,1.91,1.12,2.65
10.320788145065308,1.5,2.09,1.25,2.86
10.32105827331543,1.29,2.43,1.46,3.11
10.32133412361145,1.67,2.46,1.66,3.4
10.323421001434326,1.95,2.44,2.01,3.71
10.333408117294312,2.18,2.56,2.26,4.05
10.343469142913818,2.2,3.24,2.46,4.62
10.353933334350586,2.45,4.86,2.39,5.94
10.363505125045776,4.04,6.45,2.81,8.11
10.373398303985596,5.1,6.64,4.27,9.39
10.38430404663086,4.64,6.83,5.04,9.67
10.421054124832153,4.35,7.57,6.02,10.6
10.421330213546753,4.62,8.71,7.66,12.48
10.421593189239502,5.17,9.57,8.27,13.66
10.423346996307373,5.61,9.83,7.21,13.41
10.433265209197998,5.76,9.31,5.85,12.41
10.443302154541016,6.1,8.48,2.81,10.81
10.453765153884888,6.77,8.21,-1.57,10.75
10.46338415145874,5.85,9.85,-5.33,12.63
10.473379135131836,1.75,12.91,-4.5,13.78
10.48411512374878,-2.31,13.21,-0.3,13.41
10.52156925201416,-3.16,9.84,0.43,10.34
10.521841049194336,-0.01,5.14,0.86,5.21
10.522109031677246,1.19,2.74,1.9,3.54
10.52309799194336,-3.92,2.26,-2.59,5.21
10.533082008361816,-3.45,5.0,-5.46,8.16
10.543090105056763,1.67,6.18,-0.26,6.4
10.553617000579834,5.85,3.23,3.01,7.32
10.563249111175537,7.98,0.24,4.37,9.1
10.573262214660645,7.0,-1.38,4.24,8.29
10.583949089050293,5.38,-2.4,3.82,7.02
10.621384143829346,3.74,-2.89,3.96,6.16
10.621650218963623,2.12,-3.0,3.62,5.15
10.621907234191895,0.68,-2.9,3.4,4.52
10.622951030731201,-0.27,-2.57,3.4,4.27
10.632903099060059,-0.39,-2.21,3.04,3.77
10.642872333526611,-0.16,-2.14,2.92,3.62
10.65354299545288,0.26,-2.16,2.81,3.55
10.663050174713135,0.84,-2.2,2.29,3.28
10.672911167144775,1.18,-2.11,1.89,3.06
10.683742046356201,1.09,-2.26,1.64,2.99
10.722094058990479,0.84,-2.71,1.4,3.16
10.722541332244873,0.78,-3.53,1.3,3.84
10.722814083099365,0.66,-4.43,1.1,4.61
10.723080158233643,0.51,-5.1,0.87,5.19
10.732832193374634,0.3,-5.42,0.78,5.48
10.74273419380188,0.14,-5.55,0.73,5.59
10.753355026245117,0.03,-5.46,0.42,5.47
10.762817144393921,-0.33,-5.18,-0.28,5.19
10.772845268249512,-0.99,-4.81,-1.27,5.07
10.783661127090454,-1.93,-4.34,-2.25,5.25
10.823105335235596,-3.3,-3.79,-3.05,5.87
10.823376178741455,-4.51,-3.2,-4.02,6.83
10.823647022247314,-5.01,-2.32,-5.36,7.69
10.823910236358643,-5.21,-1.3,-6.93,8.76
10.832597255706787,-5.26,-0.54,-7.97,9.56
10.842602252960205,-5.89,-0.05,-8.68,10.48
10.853223323822021,-7.11,0.04,-9.5,11.86
10.862694263458252,-7.95,-0.5,-9.41,12.32
10.87276816368103,-8.01,-1.56,-8.99,12.14
10.883339166641235,-8.21,-2.03,-9.75,12.9
10.922370195388794,-8.71,-1.96,-10.72,13.95
10.922641277313232,-8.64,-2.43,-10.52,13.82
10.922905206680298,-8.26,-3.07,-10.02,13.34
10.923166275024414,-8.05,-3.73,-9.19,12.77
10.932460308074951,-8.37,-2.14,-8.25,11.94
10.942623138427734,-4.62,4.49,-4.0,7.58
10.953014135360718,3.08,-0.17,0.3,3.09
10.962659120559692,12.94,11.19,26.0,31.12
10.97297215461731,20.35,14.05,18.22,30.71
10.983256101608276,6.83,16.15,-14.42,22.7
11.020963191986084,0.46,10.42,-7.93,13.1
11.021236181259155,-8.85,1.67,-5.76,10.69
11.021504163742065,-13.01,-3.88,-4.69,14.36
11.022330284118652,-11.8,-3.02,1.3,12.24
11.032295227050781,-10.17,-4.06,-6.34,12.65
11.042640209197998,-7.24,-1.79,-10.02,12.49
11.052930116653442,-4.82,0.28,-6.52,8.11
11.062458992004395,-2.18,0.29,-4.35,4.87
11.07234525680542,1.33,0.58,-3.08,3.4
11.083002090454102,3.27,1.34,-2.12,4.12
11.122234106063843,2.96,1.4,-0.74,3.35
11.122498989105225,0.52,0.83,-0.54,1.11
11.122757196426392,-1.27,0.23,-1.66,2.1
11.123014211654663,-1.4,0.15,-1.87,2.34
11.132227182388306,-1.3,0.07,-0.85,1.55
11.142587184906006,-1.31,-0.13,-0.37,1.36
11.152762174606323,-1.0,-0.21,-0.83,1.31
11.162283182144165,-0.65,-0.28,-1.02,1.24
11.172316074371338,-0.39,-0.29,-0.7,0.85
11.182974100112915,-0.17,-0.2,-0.33,0.42
11.222007274627686,-0.08,-0.1,-0.14,0.18
11.222657203674316,-0.07,-0.12,0.13,0.19
11.222922325134277,-0.06,-0.07,0.4,0.41
11.223186016082764,0.07,0.02,0.59,0.59
11.231976985931396,0.31,0.09,0.79,0.85
11.242025136947632,0.72,0.12,0.91,1.16
11.252814292907715,1.22,0.18,0.94,1.55
11.262131214141846,1.44,0.17,0.74,1.62
11.27206802368164,1.36,0.09,0.46,1.43
11.282766103744507,1.09,0.03,0.55,1.22
11.29200029373169,0.94,0.06,0.77,1.21
11.322074174880981,0.91,0.04,1.04,1.38
11.322336196899414,0.86,-0.04,1.11,1.4
11.322594165802002,0.79,-0.13,1.09,1.35
11.331878185272217,0.82,-0.22,1.24,1.5
11.341841220855713,1.07,-0.3,1.17,1.61
11.35246229171753,1.39,-0.21,1.0,1.72
11.361935138702393,1.48,-0.02,0.62,1.6
11.371841192245483,1.21,0.2,0.31,1.26
11.382583141326904,0.78,0.33,0.52,0.99
11.39195203781128,0.54,0.32,0.83,1.04
11.421844005584717,0.33,0.31,0.89,0.99
11.422109127044678,0.1,0.38,1.12,1.18
11.422365188598633,0.18,0.5,1.37,1.46
11.431732177734375,0.54,0.71,1.46,1.71
11.441647052764893,0.91,1.1,1.14,1.82
11.452274322509766,1.18,1.37,0.9,2.01
11.461836099624634,1.4,1.96,1.15,2.66
11.471703052520752,1.87,2.2,1.24,3.14
11.482500076293945,2.07,2.5,1.12,3.43
11.491761207580566,2.21,2.69,1.4,3.75
11.522526264190674,2.19,2.63,1.65,3.79
11.522792100906372,2.25,2.73,1.87,4.0
11.523051261901855,2.35,2.88,2.42,4.43
11.531627178192139,2.26,3.48,2.97,5.1
11.541558265686035,2.22,5.58,3.1,6.75
11.552159309387207,3.94,7.83,4.01,9.63
11.561621189117432,5.73,8.05,6.68,11.92
11.571516036987305,6.26,8.4,8.01,13.18
11.582314014434814,7.05,9.44,8.51,14.53
11.591667175292969,7.28,10.27,8.55,15.21
11.622588157653809,7.41,10.55,8.19,15.27
11.622855186462402,6.92,9.64,6.23,13.4
11.623112201690674,6.81,8.69,0.9,11.07
11.631363153457642,7.17,9.92,-5.13,13.27
11.641382217407227,4.5,12.93,-8.28,15.99
11.652032136917114,0.2,14.41,-4.79,15.18
11.661478042602539,-1.67,13.57,-0.02,13.67
11.671361207962036,-2.28,8.11,1.98,8.65
11.682156085968018,0.94,2.39,2.59,3.64
11.691442012786865,0.65,0.03,2.05,2.15
11.72298812866211,-4.55,-0.63,-4.33,6.31
11.72325611114502,-3.17,3.14,-4.95,6.66
11.723522186279297,1.79,4.17,-0.09,4.53
11.731273174285889,4.84,2.26,1.22,5.47
11.741215229034424,6.64,-0.15,3.13,7.34
11.751849174499512,6.07,-2.49,4.27,7.82
11.761372089385986,4.35,-3.38,3.28,6.41
11.771184206008911,3.34,-3.47,2.5,5.42
11.781997203826904,2.58,-3.26,2.93,5.08
11.791315078735352,1.94,-2.84,3.47,4.88
11.823429107666016,1.01,-2.45,3.08,4.06
11.823697090148926,-0.52,-2.17,1.82,2.87
11.82395601272583,-1.71,-1.99,0.94,2.78
11.831023216247559,-1.43,-2.18,0.99,2.78
11.84110403060913,-0.07,-2.36,1.06,2.58
11.851696014404297,1.02,-2.48,1.08,2.89
11.861163139343262,1.62,-2.48,0.95,3.11
11.87105917930603,1.9,-2.48,1.23,3.35
11.881844997406006,1.35,-2.73,1.05,3.22
11.89110803604126,0.22,-3.48,0.43,3.51
11.923485279083252,-1.34,-3.99,-0.54,4.24
11.923750162124634,-1.66,-3.98,-1.88,4.7
11.924008131027222,-2.03,-4.06,-1.92,4.92
11.93088412284851,-2.32,-4.49,-0.7,5.1
11.940876007080078,-2.13,-4.86,-0.21,5.31
11.951480150222778,-2.44,-4.81,-0.89,5.46
11.960762023925781,-3.37,-4.42,-1.99,5.9
11.970908164978027,-4.43,-3.97,-2.94,6.63
11.98170018196106,-4.95,-3.37,-3.43,6.9
11.99100112915039,-4.6,-2.76,-3.99,6.68
12.024123191833496,-4.38,-2.42,-5.29,7.28
12.024391174316406,-5.27,-2.1,-7.04,9.04
12.024654150009155,-7.14,-1.22,-8.75,11.35
12.030757188796997,-9.47,-0.07,-10.43,14.08
12.040714263916016,-12.02,0.32,-11.19,16.42
12.051398277282715,-13.67,-0.93,-10.44,17.22
12.060685157775879,-13.13,-3.04,-9.47,16.47
12.070784091949463,-9.93,-3.85,-8.95,13.91
12.08149003982544,-7.17,-3.55,-8.03,11.33
12.090795993804932,-6.35,-3.67,-7.45,10.45
12.125007152557373,-6.44,-3.86,-6.97,10.24
12.12526798248291,-6.71,-3.99,-6.72,10.3
12.125528335571289,-7.23,-1.61,-7.4,10.47
12.130598068237305,-6.09,8.89,-3.7,11.39
12.141120195388794,10.25,5.59,9.35,14.95
12.151231288909912,28.7,10.21,29.51,42.41
12.160658121109009,17.59,14.62,6.55,23.79
12.170575141906738,1.07,14.49,-15.1,20.95
12.181471109390259,-1.47,8.5,-9.98,13.19
12.190786123275757,-8.36,1.94,-2.26,8.87
12.2243070602417,-10.74,-3.69,2.04,11.53
12.224570274353027,-9.1,-4.29,0.78,10.09
12.224829196929932,-8.54,-4.22,-5.36,10.93
12.230556011199951,-6.79,-2.58,-7.37,10.34
12.24064016342163,-4.31,-0.43,-6.13,7.5
12.25103211402893,-3.22,0.77,-3.2,4.6
12.2605299949646,-1.39,0.88,-1.91,2.52
12.270524978637695,0.94,0.97,-2.34,2.7
12.2812180519104,2.08,1.03,-1.62,2.83
12.29062819480896,0.64,0.89,-0.73,1.31
12.32489013671875,-1.1,0.57,-1.08,1.64
12.325152158737183,-1.5,0.2,-1.55,2.16
12.325425148010254,-1.48,-0.07,-1.31,1.97
12.330320119857788,-1.41,-0.21,-1.05,1.77
12.340296268463135,-1.01,-0.24,-1.0,1.44
12.350880146026611,-0.46,-0.17,-0.81,0.94
12.360555171966553,-0.19,-0.12,-0.79,0.82
12.370328187942505,-0.19,0.05,-0.82,0.84
12.381101131439209,-0.29,0.21,-0.59,0.69
12.390437126159668,-0.35,0.17,-0.24,0.45
12.425443172454834,-0.4,0.03,0.16,0.43
12.425705194473267,-0.52,-0.12,0.55,0.76
12.425965309143066,-0.55,-0.17,0.73,0.92
12.430169105529785,-0.3,-0.12,0.65,0.72
12.44012713432312,0.48,0.01,0.45,0.65
12.450711250305176,1.38,0.16,0.41,1.44
12.460578203201294,1.75,0.25,0.46,1.82
12.470229148864746,1.46,0.19,0.56,1.57
12.480937004089355,1.13,0.06,0.66,1.3
12.490190982818604,0.9,-0.05,0.72,1.15
12.525740146636963,0.74,-0.13,0.82,1.11
12.526003122329712,0.68,-0.14,0.85,1.09
12.526262283325195,0.74,-0.13,1.04,1.28
12.529952049255371,0.92,-0.15,1.23,1.54
12.540013313293457,1.33,-0.18,1.03,1.69
12.550549983978271,1.47,-0.13,0.75,1.65
12.560307025909424,1.42,0.04,0.65,1.56
12.56996202468872,1.29,0.25,0.22,1.33
12.580772161483765,0.98,0.27,0.36,1.07
12.589917182922363,0.93,0.29,0.73,1.21
12.625494003295898,1.07,0.23,0.97,1.46
12.625754117965698,0.94,0.2,1.23,1.56
12.626013278961182,0.91,0.36,1.18,1.53
12.62988018989563,1.0,0.48,1.22,1.64
12.639713287353516,1.06,0.59,1.75,2.12
12.65031909942627,1.78,0.89,1.65,2.58
12.659701108932495,2.34,1.53,1.47,3.15
12.669738292694092,2.63,2.4,1.59,3.89
12.680453300476074,2.13,2.63,1.92,3.89
12.689762115478516,2.1,3.12,2.39,4.45
12.72613000869751,2.4,3.41,2.85,5.05
12.726391315460205,2.27,4.28,3.14,5.77
12.726647138595581,2.47,6.99,2.56,7.84
12.72961711883545,4.64,9.28,3.31,10.89
12.739583015441895,5.88,8.78,5.8,12.05
12.750190258026123,4.52,8.41,6.11,11.33
12.759657144546509,3.66,8.93,7.45,12.19
12.769747257232666,3.68,10.19,8.63,13.85
12.780473232269287,4.63,11.45,7.15,14.27
12.789668083190918,5.09,10.91,5.46,13.21
12.826545238494873,5.46,8.98,3.78,11.16
12.826808214187622,6.6,7.35,-0.55,9.89
12.827373027801514,6.38,8.62,-5.47,12.03
12.829543113708496,1.99,12.5,-5.36,13.74
12.839613199234009,-2.98,13.09,-1.64,13.52
12.850059986114502,-2.39,9.19,-0.91,9.53
12.859470129013062,0.84,4.8,0.12,4.87
12.869560241699219,0.72,1.5,1.98,2.58
12.880311012268066,-3.22,-0.14,-1.93,3.75
12.889559268951416,-2.26,2.75,-3.97,5.33
12.92768120765686,2.13,3.51,-0.05,4.1
12.92794418334961,6.04,1.37,2.1,6.53
12.928202152252197,7.86,-0.62,3.74,8.72
12.929409980773926,6.92,-1.95,4.7,8.58
12.9394211769104,5.48,-2.57,4.02,7.26
12.949908256530762,3.83,-2.57,3.26,5.64
12.95943307876587,2.29,-2.59,3.0,4.57
12.969403266906738,1.15,-2.81,3.08,4.32
12.980154991149902,0.36,-2.81,3.12,4.21
12.989400148391724,-0.2,-2.68,2.98,4.01
13.02698016166687,-0.41,-2.57,2.86,3.86
13.027242183685303,-0.01,-2.44,2.88,3.77
13.027501106262207,0.37,-2.42,2.59,3.56
13.02926516532898,0.05,-2.52,1.91,3.16
13.039234161376953,-0.78,-2.85,1.1,3.15
13.049752235412598,-1.8,-3.38,0.72,3.89
13.059242248535156,-1.96,-3.76,0.6,4.28
13.069278240203857,-1.37,-4.29,1.08,4.63
13.080051183700562,-0.32,-4.95,1.65,5.22
13.08922004699707,0.25,-5.38,2.09,5.77
13.127799034118652,0.45,-5.21,2.35,5.73
13.12806224822998,0.63,-4.64,2.1,5.13
13.128321170806885,-0.4,-3.85,1.05,4.01
13.129253149032593,-2.48,-2.9,-1.09,3.96
13.138995170593262,-4.85,-1.86,-3.82,6.44
13.149699211120605,-6.91,-1.28,-5.08,8.67
13.159181118011475,-7.74,-1.6,-4.92,9.3
13.169133186340332,-7.8,-1.67,-5.23,9.53
13.17985200881958,-8.18,-0.94,-6.64,10.57
13.189112186431885,-8.73,-0.21,-8.03,11.86
13.228966236114502,-9.06,-0.29,-8.98,12.75
13.229233264923096,-9.72,-0.98,-8.85,13.18
13.229494094848633,-10.94,-1.69,-9.01,14.27
13.229753017425537,-11.13,-2.7,-8.79,14.43
13.238896131515503,-9.14,-3.24,-8.14,12.66
13.249422073364258,-7.2,-2.71,-8.11,11.17
13.258889198303223,-6.58,-3.34,-7.8,10.73
13.269113063812256,-6.69,-4.36,-6.95,10.58
13.279625177383423,-6.95,-4.22,-6.58,10.45
13.289129257202148,-8.47,2.31,-6.79,11.09
13.328019142150879,-0.29,1.57,-4.29,4.57
13.328329086303711,13.56,9.38,10.96,19.79
13.328778266906738,25.37,22.5,21.81,40.31
13.329041004180908,6.64,33.37,-13.26,36.51
13.33876919746399,3.43,7.08,-17.11,18.83
13.349332332611084,-5.51,-12.28,7.06,15.19
13.35878610610962,-13.43,-13.76,4.5,19.74
13.368772983551025,-14.17,-7.38,-5.56,16.91
13.379542112350464,-12.32,-3.46,-5.78,14.04
13.388758182525635,-7.65,0.65,-3.95,8.63
13.428966045379639,-3.43,2.86,-1.52,4.71
13.42922830581665,-0.28,1.87,-1.34,2.31
13.429494142532349,1.48,0.51,-1.74,2.34
13.429758071899414,2.01,0.13,-1.83,2.72
13.438539028167725,0.91,0.26,-2.44,2.61
13.449187278747559,-0.88,0.16,-2.46,2.61
13.458675146102905,-1.04,0.51,-2.2,2.48
13.468658208847046,-0.3,0.68,-1.95,2.08
13.479157209396362,-0.3,0.54,-1.85,1.95
13.48864221572876,-0.87,0.34,-1.78,2.01
13.52884817123413,-1.58,0.02,-1.26,2.02
13.529110193252563,-1.84,-0.18,-0.32,1.87
13.529369115829468,-1.15,-0.1,0.08,1.15
13.52962613105774,-0.2,0.05,-0.07,0.21
13.538442134857178,0.46,0.12,-0.16,0.5
13.548969268798828,0.47,0.0,-0.07,0.47
13.55852222442627,0.23,-0.16,0.26,0.38
13.568418025970459,0.03,-0.27,0.49,0.56
13.57902717590332,-0.11,-0.16,0.22,0.29
13.588444232940674,-0.21,0.1,-0.24,0.33
13.629643201828003,-0.25,0.2,-0.4,0.51
13.62990427017212,-0.18,0.18,-0.25,0.35
13.63016128540039,0.07,0.2,0.04,0.21
13.63041615486145,0.42,0.26,0.66,0.82
13.63829231262207,0.76,0.25,1.01,1.28
13.648856163024902,0.65,0.18,0.82,1.06
13.658337116241455,-0.01,0.1,0.62,0.62
13.668282985687256,-0.7,-0.13,0.76,1.04
13.678842067718506,-0.72,-0.28,0.93,1.2
13.688342094421387,0.11,-0.3,0.91,0.96
13.729910135269165,1.38,-0.19,0.9,1.65
13.73017406463623,2.32,0.0,1.24,2.63
13.730445146560669,2.68,0.23,1.58,3.11
13.730703115463257,2.61,0.32,1.97,3.28
13.738109111785889,2.45,0.28,1.91,3.11
13.748679161071777,2.11,0.13,1.87,2.82
13.758327007293701,1.77,0.11,1.89,2.59
13.768129110336304,1.6,0.27,1.68,2.33
13.778921127319336,1.45,0.61,1.38,2.09
13.788179159164429,1.57,0.84,1.36,2.24
13.830562114715576,1.72,1.11,1.39,2.47
13.830824136734009,1.8,1.42,1.29,2.63
13.83108115196228,1.76,1.86,1.6,3.01
13.831337213516235,1.85,2.26,1.57,3.31
13.837953090667725,1.86,2.49,1.8,3.59
13.848555088043213,1.78,2.49,2.16,3.74
13.858020305633545,1.77,2.58,2.4,3.94
13.868085145950317,1.72,3.85,2.45,4.87
13.911763191223145,2.49,6.52,2.17,7.3
13.912028312683105,4.64,7.28,4.18,9.59
13.912293195724487,4.44,6.99,5.48,9.92
13.91255807876587,3.92,7.9,5.8,10.55
13.917893171310425,4.15,9.39,7.78,12.88
13.928225994110107,4.79,10.63,8.71,14.55
13.93786907196045,5.3,10.8,8.36,14.64
13.948582172393799,4.47,9.45,7.64,12.94
13.958010196685791,3.83,7.72,4.97,9.94
13.967902183532715,4.88,6.33,0.36,8.0
14.014586210250854,5.84,6.91,-4.09,9.92
14.014852046966553,4.7,9.55,-6.02,12.22
14.015114307403564,1.09,11.54,-3.62,12.14
14.015376091003418,-1.84,11.32,0.61,11.48
14.01764726638794,-3.2,6.5,2.44,7.64
14.028083324432373,-0.38,2.57,2.46,3.57
14.037763118743896,-1.63,1.16,1.46,2.47
14.04828929901123,-5.77,1.58,-4.04,7.21
14.057748317718506,-2.33,5.03,-2.9,6.25
14.067713260650635,2.97,5.12,2.42,6.39
14.113843202590942,6.89,2.2,4.47,8.5
14.114108085632324,8.38,-0.27,5.57,10.06
14.114366054534912,6.93,-1.49,5.0,8.67
14.11462116241455,5.2,-1.9,4.24,6.97
14.117576122283936,3.76,-2.19,3.96,5.88
14.127551078796387,2.5,-2.28,4.01,5.24
14.137509107589722,0.9,-2.12,3.97,4.58
14.148137092590332,-0.68,-1.96,3.56,4.12
14.157546997070312,-1.56,-1.83,3.22,4.01
14.167582035064697,-1.49,-1.89,3.07,3.9
14.214347124099731,-0.98,-2.22,2.91,3.78
14.214612007141113,-0.48,-2.56,2.5,3.61
14.214864253997803,-0.21,-2.94,2.1,3.61
14.215120315551758,0.17,-3.46,1.87,3.93
14.217419147491455,0.63,-4.01,1.8,4.44
14.22743821144104,0.73,-4.67,1.69,5.01
14.23740530014038,0.12,-5.18,0.86,5.25
14.248100280761719,-0.46,-5.78,0.58,5.82
14.257424116134644,-0.78,-6.33,0.88,6.43
14.267425060272217,-0.84,-6.49,0.75,6.58
14.31413221359253,-1.16,-6.13,-0.26,6.24
14.314403057098389,-2.37,-5.64,-1.5,6.29
14.314666271209717,-3.91,-5.14,-2.65,6.98
14.314925193786621,-5.17,-4.3,-3.61,7.63
14.317168235778809,-6.0,-3.11,-4.67,8.21
14.327195167541504,-6.15,-1.84,-5.76,8.62
14.337209224700928,-5.92,-0.74,-6.77,9.02
14.347856998443604,-6.37,0.06,-7.87,10.12
14.357304096221924,-7.41,0.57,-8.94,11.62
14.367353200912476,-8.7,0.65,-10.04,13.3
14.377952098846436,-9.31,-0.26,-10.51,14.04
14.414635181427002,-8.61,-2.07,-10.01,13.36
14.414899110794067,-7.25,-2.89,-9.21,12.07
14.415160179138184,-6.1,-2.43,-9.28,11.36
14.4173002243042,-6.48,3.92,-8.54,11.41
14.427046298980713,-3.06,-1.16,-5.15,6.1
14.437103271484375,-1.28,-6.23,-9.07,11.07
14.44772219657898,8.26,12.39,11.03,18.53
14.457410335540771,14.97,27.63,16.78,35.62
14.467066287994385,-3.95,23.48,-16.54,28.99
14.477802276611328,-6.61,-6.03,-11.77,14.78
14.515013217926025,-12.41,-11.49,1.99,17.02
14.515276193618774,-17.19,-6.35,-1.84,18.41
14.515534162521362,-12.78,-2.46,-5.24,14.02
14.516974210739136,-7.58,-0.58,-4.15,8.66
14.526936054229736,-2.56,0.76,-1.53,3.07
14.536940097808838,2.26,0.66,-0.63,2.43
14.547531127929688,4.86,0.79,-2.22,5.4
14.557048320770264,3.22,1.33,-3.57,4.98
14.56696605682373,0.05,1.32,-3.81,4.03
14.577645301818848,-1.47,0.38,-2.97,3.33
14.616048336029053,-1.39,0.16,-2.37,2.75
14.616532325744629,-0.91,0.28,-2.48,2.65
14.616796016693115,-0.87,0.34,-2.4,2.57
14.61705732345581,-1.13,0.54,-2.17,2.5
14.626777172088623,-1.22,0.43,-1.55,2.01
14.636783123016357,-1.23,0.23,-0.85,1.51
14.64738130569458,-1.26,0.01,-0.34,1.3
14.656844139099121,-1.0,-0.1,-0.03,1.0
14.666815280914307,-0.65,-0.13,0.14,0.67
14.677496194839478,-0.18,-0.1,0.45,0.49
14.716411113739014,0.35,-0.05,0.76,0.83
14.716679096221924,0.69,-0.04,0.82,1.07
14.71694016456604,0.89,-0.09,0.43,0.99
14.717199325561523,0.92,-0.07,-0.04,0.92
14.726585149765015,0.67,-0.01,-0.08,0.67
14.736597061157227,0.31,0.04,0.05,0.31
14.747250080108643,0.13,0.07,0.39,0.41
14.75675916671753,0.43,0.09,0.86,0.96
14.76668119430542,0.98,0.21,0.96,1.38
14.777414321899414,1.31,0.33,0.68,1.51
14.81666898727417,1.19,0.41,0.47,1.34
14.816941261291504,0.81,0.38,0.5,1.02
14.817198276519775,0.64,0.2,0.55,0.86
14.817455291748047,0.52,-0.05,0.7,0.87
14.826473236083984,0.33,-0.35,1.11,1.2
14.836446285247803,0.27,-0.46,1.35,1.45
14.846980094909668,0.6,-0.42,1.29,1.48
14.856383323669434,1.31,-0.33,1.25,1.84
14.866490125656128,2.19,-0.17,0.87,2.36
14.877142190933228,2.58,-0.05,0.6,2.64
14.917071104049683,2.13,0.06,0.58,2.2
14.917334079742432,1.44,0.12,0.62,1.57
14.917591094970703,1.04,0.26,0.81,1.34
14.917854309082031,1.09,0.5,0.99,1.55
14.926313161849976,1.45,0.9,1.1,2.03
14.93630313873291,1.76,1.19,1.1,2.39
14.946814060211182,1.42,1.55,1.11,2.37
14.95646619796753,0.97,1.54,1.37,2.27
14.966333150863647,1.25,1.91,1.3,2.62
14.977021217346191,2.01,2.48,1.59,3.56
15.017593145370483,1.87,2.47,1.72,3.54
15.017853260040283,1.69,2.65,2.13,3.79
15.018109321594238,1.66,2.78,2.73,4.23
15.018371105194092,1.58,3.72,3.07,5.07
15.026137113571167,2.2,5.79,3.01,6.88
15.036270141601562,4.09,7.58,3.92,9.46
15.04658317565918,5.73,7.86,5.75,11.29
15.05611801147461,6.24,7.82,6.74,12.06
15.066195011138916,6.44,8.21,7.48,12.83
15.076888084411621,6.51,8.74,8.14,13.6
15.117937088012695,6.84,8.97,7.61,13.6
15.11820125579834,7.31,8.53,6.03,12.74
15.118475198745728,6.47,7.52,3.04,10.37
15.11873722076416,5.32,6.84,-1.86,8.86
15.126026153564453,4.51,7.62,-6.39,10.91
15.136022090911865,2.52,10.68,-7.97,13.56
15.146758079528809,-1.54,12.01,-2.78,12.42
15.156089305877686,-3.62,9.83,0.64,10.49
15.166149139404297,-2.05,6.11,-0.02,6.44
15.176773071289062,1.38,2.67,-0.19,3.01
15.218468189239502,-0.25,0.69,0.15,0.74
15.218737125396729,-3.88,0.52,-4.43,5.91
15.218996047973633,-1.22,3.55,-4.24,5.66
15.219268321990967,3.57,3.82,0.27,5.23
15.225868225097656,6.71,1.2,1.96,7.09
15.235825061798096,8.25,-1.31,3.25,8.96
15.24682331085205,7.53,-3.07,3.53,8.86
15.255953311920166,6.34,-3.95,2.83,7.98
15.266051292419434,5.15,-4.1,2.46,7.02
15.27661919593811,3.9,-3.82,2.69,6.08
15.31853723526001,2.24,-3.41,2.85,4.97
15.318801164627075,0.36,-3.04,2.12,3.72
15.319060325622559,-1.2,-2.66,1.12,3.12
15.319302082061768,-1.64,-2.56,1.12,3.24
15.325839042663574,-0.68,-2.74,1.09,3.02
15.33574914932251,0.91,-2.8,1.02,3.11
15.346678256988525,1.88,-2.79,1.37,3.63
15.355773210525513,2.07,-2.51,1.56,3.6
15.36570119857788,1.65,-2.29,0.99,2.99
15.376381158828735,0.69,-2.7,0.03,2.78
15.419164180755615,-0.74,-2.99,-1.55,3.44
15.419426202774048,-1.65,-2.85,-2.59,4.18
15.419684171676636,-2.32,-3.13,-1.82,4.3
15.419939994812012,-2.44,-3.61,-0.58,4.39
15.42566728591919,-1.88,-3.7,-0.3,4.16
15.435790061950684,-1.51,-3.36,-0.57,3.72
15.446422100067139,-1.73,-2.73,-1.15,3.43
15.45563817024231,-2.52,-2.06,-2.1,3.87
15.465635299682617,-3.93,-1.65,-3.13,5.28
15.476253986358643,-5.03,-1.34,-4.1,6.62
15.519136190414429,-5.41,-1.36,-4.58,7.21
15.519397258758545,-5.82,-1.45,-5.31,8.01
15.51966118812561,-6.37,-1.66,-6.29,9.1
15.519917011260986,-6.65,-2.06,-6.47,9.5
15.525382041931152,-6.58,-2.7,-6.11,9.37
15.535449981689453,-6.68,-2.9,-6.15,9.53
15.546398162841797,-6.96,-2.72,-6.47,9.88
15.55553412437439,-7.05,-2.73,-6.9,10.23
15.565369129180908,-6.68,-2.73,-6.96,10.02
15.576098203659058,-5.98,-2.81,-6.69,9.4
15.619690179824829,-5.75,-2.88,-6.37,9.05
15.619951248168945,-6.18,-3.09,-6.3,9.35
15.62021517753601,-7.09,-2.26,-6.75,10.04
15.620473146438599,-6.59,4.36,-5.01,9.35
15.625231266021729,-0.46,-2.98,-4.55,5.45
15.635233163833618,4.76,6.07,5.98,9.76
15.646145105361938,16.04,15.69,24.21,33.0
15.655250072479248,7.02,15.68,-2.06,17.3
15.665270328521729,-3.04,10.3,-12.84,16.73
15.675940990447998,-6.98,1.41,-2.43,7.52
15.720073223114014,-9.54,-4.75,-3.17,11.11
15.720338106155396,-5.83,-2.42,1.06,6.4
15.720600128173828,-5.48,-3.04,-0.68,6.3
15.720855236053467,-5.47,-2.76,-5.81,8.44
15.725049018859863,-4.41,-0.86,-4.83,6.59
15.735072135925293,-3.04,-0.26,-2.62,4.02
15.745623111724854,-0.78,-0.03,-1.71,1.87
15.755184173583984,1.32,0.5,-1.58,2.11
15.765112161636353,2.66,0.73,-1.3,3.04
15.775825023651123,1.81,0.76,-1.5,2.47
15.820505142211914,-0.71,0.63,-2.15,2.35
15.820775985717773,-2.16,0.47,-2.55,3.37
15.821035146713257,-2.59,0.21,-1.7,3.1
15.82129430770874,-2.22,0.04,-1.16,2.5
15.824857234954834,-1.66,-0.07,-1.17,2.03
15.834887981414795,-1.35,-0.3,-1.3,1.89
15.845470190048218,-0.84,-0.15,-1.16,1.44
15.855024099349976,-0.48,0.04,-1.05,1.15
15.864950180053711,-0.32,0.25,-0.97,1.05
15.875685214996338,-0.65,0.3,-0.65,0.96
15.921008110046387,-1.07,0.13,-0.18,1.09
15.921273231506348,-1.13,-0.14,-0.1,1.14
15.921536207199097,-0.63,-0.23,-0.15,0.68
15.921792984008789,0.08,-0.07,-0.07,0.12
15.92507028579712,0.63,0.18,-0.01,0.65
15.934789180755615,0.74,0.26,0.15,0.79
15.945269107818604,0.63,0.22,0.26,0.71
15.954907178878784,0.3,0.11,0.19,0.37
15.964829206466675,-0.24,0.04,0.05,0.24
15.975504159927368,-0.7,0.03,0.04,0.7
16.0209002494812,-0.75,0.06,0.42,0.86
16.02116107940674,-0.25,0.12,0.85,0.89
16.02142310142517,0.62,0.11,1.25,1.39
16.021679162979126,1.42,-0.03,1.56,2.1
16.024603128433228,2.16,-0.14,1.54,2.65
16.03464698791504,2.75,0.02,1.13,2.97
16.04521608352661,2.76,0.16,0.73,2.85
16.054757118225098,1.99,0.35,0.53,2.08
16.06463623046875,1.03,0.5,0.35,1.19
16.075342178344727,0.48,0.66,0.39,0.9
16.121544122695923,0.52,0.73,0.25,0.93
16.12180519104004,0.61,0.81,0.31,1.06
16.122064113616943,0.75,1.09,0.38,1.37
16.122323036193848,1.09,1.53,0.9,2.08
16.124427318572998,1.03,1.17,1.73,2.32
16.134435176849365,1.22,1.35,1.56,2.39
16.144992113113403,1.48,1.66,1.93,2.94
16.15460515022278,2.01,1.81,2.11,3.43
16.164496183395386,2.42,1.94,2.04,3.71
16.175273180007935,2.77,2.06,1.87,3.92
16.222071170806885,3.0,2.27,2.02,4.27
16.222331047058105,3.14,2.52,2.29,4.63
16.222597122192383,2.98,3.41,2.66,5.25
16.222851276397705,2.62,6.11,2.27,7.02
16.22445321083069,4.7,8.05,3.17,9.84
16.234325170516968,5.25,7.36,5.39,10.52
16.244863033294678,4.67,7.9,5.15,10.52
16.254419326782227,4.71,9.01,6.06,11.83
16.264240264892578,4.59,9.9,6.67,12.78
16.275062084197998,5.08,10.99,5.82,13.43
16.322424173355103,5.28,11.43,5.14,13.59
16.322686195373535,5.04,10.26,2.85,11.78
16.322944164276123,4.81,8.76,-2.05,10.2
16.323200225830078,3.78,9.38,-6.01,11.76
16.324138164520264,1.54,12.1,-6.32,13.73
16.334103107452393,0.29,12.42,-1.79,12.55
16.34470510482788,0.51,7.56,1.0,7.64
16.35429811477661,0.99,3.4,0.03,3.54
16.364071130752563,0.13,1.55,1.06,1.88
16.374895095825195,-4.38,0.92,-3.1,5.44
16.422898292541504,-1.9,3.54,-3.62,5.4
16.42316198348999,3.6,3.52,1.44,5.23
16.423447132110596,7.03,0.71,3.69,7.97
16.42387628555298,7.31,-1.26,4.49,8.67
16.424135208129883,5.5,-1.93,3.54,6.81
16.434006214141846,3.79,-2.01,1.91,4.69
16.444531202316284,2.41,-1.95,1.28,3.35
16.454068183898926,1.19,-1.95,1.6,2.78
16.463926315307617,0.42,-2.1,2.03,2.95
16.474804162979126,-0.03,-2.32,2.14,3.15
16.5228910446167,-0.53,-2.53,1.94,3.23
16.523168087005615,-0.86,-2.66,1.87,3.36
16.523581981658936,-0.7,-2.7,1.96,3.4
16.523848056793213,-0.25,-2.65,1.88,3.25
16.524108171463013,0.1,-2.63,1.69,3.12
16.533899307250977,0.38,-2.69,1.5,3.1
16.544435024261475,0.51,-3.1,1.52,3.49
16.5539870262146,0.43,-3.64,1.5,3.96
16.563934326171875,0.17,-4.17,1.55,4.45
16.574610233306885,-0.11,-4.7,1.81,5.03
16.62318515777588,-0.26,-5.23,1.9,5.57
16.623605251312256,-0.26,-5.54,1.88,5.85
16.62386703491211,-0.35,-5.49,1.9,5.82
16.624123096466064,-0.72,-5.03,1.76,5.37
16.62438726425171,-1.22,-4.56,1.19,4.86
16.633662223815918,-2.14,-3.84,-0.01,4.39
16.644230127334595,-2.82,-3.12,-1.81,4.57
16.65375804901123,-3.75,-2.53,-3.17,5.52
16.66395902633667,-5.57,-2.27,-3.42,6.91
16.674429178237915,-7.03,-2.18,-4.09,8.42
16.723689079284668,-7.11,-1.69,-5.16,8.94
16.723952293395996,-6.3,-1.1,-6.16,8.87
16.724217176437378,-6.21,-0.79,-7.43,9.71
16.724472999572754,-7.72,-0.65,-9.03,11.89
16.72472906112671,-9.57,-0.9,-9.75,13.69
16.73347806930542,-10.83,-1.54,-9.94,14.78
16.74410629272461,-10.87,-2.37,-9.88,14.87
16.75371813774109,-9.74,-3.03,-9.46,13.91
16.763926029205322,-8.54,-3.49,-8.98,12.87
16.77421998977661,-7.84,-4.2,-8.5,12.3
16.824072122573853,-7.98,-2.2,-8.39,11.78
16.824337005615234,-6.73,4.45,-5.18,9.58
16.824594020843506,2.63,1.16,-0.99,3.04
16.8248553276062,17.33,12.14,22.79,31.09
16.825112104415894,18.57,16.02,12.14,27.36
16.83340311050415,5.48,17.97,-15.7,24.48
16.84393310546875,3.01,10.81,-9.39,14.63
16.853466033935547,-6.8,-4.13,-5.39,9.6
16.863746166229248,-8.66,-6.89,1.49,11.16
16.874075174331665,-7.45,-4.98,-0.75,8.99
16.924537181854248,-7.94,-3.31,-8.23,11.9
16.924805164337158,-6.55,-0.46,-6.67,9.35
16.92509126663208,-5.22,0.93,-3.19,6.18
16.92534828186035,-2.69,0.91,-2.1,3.53
16.925604104995728,0.0,0.85,-1.31,1.56
16.93319320678711,1.52,0.77,-0.35,1.73
16.943769216537476,0.99,0.48,-0.22,1.12
16.95336627960205,-0.98,0.29,-1.24,1.6
16.963165283203125,-1.63,0.25,-2.12,2.68
16.973924160003662,-1.15,0.31,-1.89,2.23
17.025092124938965,-0.77,0.19,-1.34,1.55
17.025358200073242,-0.58,-0.03,-1.12,1.26
17.02561902999878,-0.49,-0.23,-1.28,1.38
17.025875091552734,-0.63,-0.27,-1.09,1.28
17.026135206222534,-0.5,-0.12,-0.64,0.82
17.03316617012024,-0.29,0.08,-0.17,0.34
17.04365110397339,-0.43,0.04,0.27,0.5
17.05328917503357,-0.74,-0.1,0.73,1.04
17.06307029724121,-0.61,-0.18,0.98,1.16
17.07399010658264,-0.08,-0.12,0.98,0.99
17.125547170639038,0.7,0.03,0.81,1.07
17.125813007354736,1.63,0.18,0.56,1.73
17.12606906890869,2.21,0.3,0.01,2.23
17.126326084136963,1.92,0.35,-0.39,1.99
17.1265811920166,1.1,0.23,0.01,1.12
17.132943153381348,0.43,0.03,0.68,0.8
17.143498182296753,0.19,-0.03,0.97,0.98
17.153022289276123,0.2,0.02,1.01,1.02
17.162918090820312,0.06,0.01,1.0,1.0
17.17366600036621,-0.05,-0.07,0.78,0.78
17.22515630722046,0.08,-0.07,0.51,0.52
17.225419998168945,0.47,-0.03,0.45,0.65
17.225687980651855,1.0,-0.04,0.35,1.06
17.225943088531494,1.42,0.15,0.3,1.45
17.226197242736816,1.49,0.26,0.61,1.63
17.23281216621399,1.18,0.23,0.9,1.5
17.243407249450684,0.99,0.21,1.1,1.49
17.25290298461914,1.12,0.09,1.32,1.73
17.262842178344727,1.28,0.11,1.32,1.84
17.27348017692566,1.18,0.25,0.91,1.51
17.32550621032715,0.84,0.37,0.88,1.27
17.32576608657837,0.85,0.47,1.18,1.52
17.3260281085968,1.18,0.5,1.34,1.85
17.32631015777588,1.78,0.95,1.38,2.44
17.326568126678467,2.13,1.62,1.53,3.08
17.33261203765869,2.43,1.88,1.21,3.3
17.343207120895386,1.99,2.37,1.03,3.26
17.352768182754517,1.61,2.51,1.08,3.17
17.362569332122803,1.23,3.09,1.27,3.56
17.37331199645996,1.34,5.0,1.45,5.37
17.425623178482056,3.27,6.65,2.13,7.71
17.42588210105896,4.79,5.88,3.93,8.54
17.426138162612915,4.61,5.89,4.38,8.66
17.426391124725342,4.37,6.7,5.19,9.53
17.426645278930664,3.75,7.64,6.03,10.43
17.432521104812622,3.7,8.93,7.04,11.95
17.443010330200195,4.17,10.03,7.37,13.12
17.45256519317627,4.13,9.64,6.34,12.25
17.462388038635254,3.51,8.33,5.2,10.42
17.473149299621582,4.03,6.9,2.97,8.52
17.52603316307068,6.14,5.96,-0.79,8.59
17.52629518508911,6.48,7.48,-3.81,10.6
17.52655601501465,1.47,10.39,-3.51,11.06
17.52681303024292,-3.36,10.69,-1.15,11.26
17.52707529067993,-2.72,8.63,-0.34,9.05
17.532345294952393,0.97,5.44,0.88,5.59
17.542909145355225,2.43,2.88,2.12,4.32
17.552406311035156,-1.38,1.71,-0.84,2.35
17.562334060668945,-2.06,3.79,-4.46,6.2
17.57301115989685,2.49,5.47,-1.21,6.13
17.627023220062256,6.85,3.4,1.94,7.88
17.62728214263916,9.51,1.16,3.75,10.28
17.627543210983276,8.62,-0.32,4.22,9.6
17.627798080444336,6.84,-0.9,3.71,7.83
17.62805414199829,5.3,-1.17,3.48,6.44
17.632087230682373,3.72,-1.35,3.26,5.12
17.642646312713623,2.15,-1.25,2.78,3.73
17.65221619606018,0.75,-1.12,2.6,2.92
17.662180185317993,-0.26,-1.05,2.34,2.57
17.672790050506592,-0.86,-0.9,1.72,2.12
17.727379322052002,-0.97,-0.86,1.29,1.82
17.72764015197754,-0.42,-0.96,0.92,1.39
17.727906227111816,0.19,-1.11,0.75,1.35
17.72816514968872,0.42,-1.54,0.97,1.86
17.728424072265625,0.63,-2.16,0.93,2.43
17.73185110092163,1.21,-2.88,1.27,3.37
17.742462158203125,1.43,-3.62,1.71,4.25
17.752031326293945,1.08,-4.2,1.87,4.72
17.761905193328857,0.16,-5.09,1.76,5.38
17.77265501022339,-0.47,-5.67,1.39,5.85
17.827357292175293,-0.61,-5.6,0.08,5.63
17.827620029449463,-1.16,-5.32,-1.1,5.55
17.827882289886475,-2.93,-5.14,-1.62,6.13
17.828148126602173,-4.72,-5.31,-1.8,7.32
17.828405141830444,-5.92,-5.49,-2.42,8.42
17.831712245941162,-6.26,-4.74,-3.95,8.78
17.84235906600952,-5.81,-3.3,-5.38,8.57
17.85195517539978,-5.46,-1.9,-6.66,8.81
17.86182928085327,-5.91,-1.03,-7.69,9.75
17.87250518798828,-7.39,-0.74,-8.56,11.33
17.927879333496094,-9.5,-0.75,-9.52,13.47
17.92814826965332,-11.09,-1.08,-10.31,15.18
17.92840814590454,-11.47,-1.62,-10.6,15.7
17.92866611480713,-10.61,-1.97,-10.26,14.89
17.9289231300354,-9.21,-1.99,-9.76,13.56
17.931706190109253,-8.15,-1.88,-8.99,12.27
17.942139148712158,-7.66,-2.25,-8.16,11.41
17.951727151870728,-7.75,-1.73,-7.76,11.1
17.961766242980957,-6.91,5.16,-6.39,10.73
17.97238516807556,3.18,1.74,-2.68,4.5
18.027667999267578,15.23,10.7,17.99,25.88
18.0279381275177,23.48,15.99,24.32,37.39
18.028199195861816,8.29,10.72,-7.98,15.72
18.028456211090088,-1.73,5.56,-9.26,10.93
18.028714179992676,-7.69,-0.42,-0.23,7.7
18.031827211380005,-12.47,0.81,-0.29,12.49
18.04206132888794,-11.83,-0.76,-3.89,12.47
18.051568031311035,-9.54,1.18,-4.2,10.49
18.061541080474854,-7.83,-0.51,-4.31,8.95
18.072243213653564,-4.77,-1.24,-5.5,7.38
18.127521991729736,-3.41,-0.85,-5.15,6.23
18.12779211997986,-2.32,-1.15,-3.86,4.64
18.128052234649658,-0.93,-0.25,-2.98,3.13
18.12831711769104,0.47,0.87,-2.26,2.46
18.12857413291931,1.03,1.32,-1.87,2.51
18.131690979003906,0.58,1.12,-1.39,1.87
18.14277219772339,-0.15,0.55,-1.06,1.2
18.151442050933838,-0.87,0.24,-0.95,1.31
18.161373138427734,-1.44,0.04,-0.48,1.51
18.172052145004272,-1.62,-0.21,-0.07,1.63
18.227055072784424,-1.33,-0.32,0.09,1.37
18.227789163589478,-0.84,-0.25,0.21,0.9
18.22805118560791,0.05,-0.04,0.09,0.11
18.22831416130066,0.66,0.25,-0.31,0.77
18.228579998016357,0.88,0.33,-0.88,1.28
18.23124599456787,0.92,0.22,-1.23,1.55
18.241766214370728,0.56,0.08,-0.91,1.07
18.251294136047363,0.15,-0.07,-0.18,0.24
18.26124620437622,-0.14,-0.2,0.29,0.37
18.271921157836914,-0.25,-0.12,0.28,0.39
18.326701164245605,-0.01,-0.02,0.18,0.18
18.327420234680176,0.64,0.08,0.21,0.67
18.327680110931396,1.2,0.15,0.54,1.32
18.327937126159668,1.38,0.16,0.9,1.65
18.328193187713623,1.2,0.14,0.93,1.52
18.33098602294922,0.87,0.11,0.83,1.2
18.341629028320312,0.47,0.01,0.64,0.79
18.351109981536865,-0.11,-0.13,0.46,0.49
18.361091136932373,-0.38,-0.24,0.52,0.68
18.371771335601807,0.08,-0.27,0.52,0.59
18.38109517097473,0.62,-0.2,0.35,0.73
18.42777109146118,0.96,-0.09,0.4,1.04
18.42803120613098,1.2,-0.02,0.49,1.29
18.428290128707886,1.42,0.08,0.58,1.53
18.428548336029053,1.35,0.12,0.61,1.48
18.430925130844116,1.23,0.09,0.68,1.4
18.441428184509277,1.31,0.05,1.02,1.66
18.45106029510498,1.28,-0.01,1.2,1.75
18.460950136184692,1.22,-0.04,1.48,1.91
18.471662998199463,1.39,0.01,1.82,2.29
18.4811053276062,1.81,0.11,2.09,2.76
18.527042150497437,2.37,0.37,2.16,3.22
18.52730703353882,2.68,0.71,1.87,3.34
18.527563095092773,2.38,1.04,1.44,2.96
18.527820110321045,1.98,1.43,0.77,2.56
18.530839204788208,1.88,2.09,0.78,2.91
18.541218280792236,2.14,2.9,1.5,3.9
18.550837993621826,1.74,3.29,2.19,4.31
18.56076216697693,1.75,4.98,2.31,5.76
18.571450233459473,2.77,7.53,2.26,8.33
18.580769062042236,4.49,7.9,3.84,9.86
18.627503156661987,4.73,7.57,4.71,10.09
18.62776517868042,4.18,7.89,5.2,10.33
18.62802505493164,3.49,8.74,6.24,11.29
18.628281116485596,3.66,9.78,7.46,12.83
18.6305832862854,4.21,10.39,7.28,13.36
18.641163110733032,4.53,10.19,6.43,12.87
18.650739192962646,4.1,8.7,5.3,10.98
18.66068124771118,4.51,7.02,2.63,8.74
18.67125129699707,5.95,6.17,-1.82,8.76
18.680551052093506,5.38,8.13,-4.82,10.87
18.72718906402588,0.86,10.43,-2.96,10.87
18.727459192276,-2.24,9.9,-0.76,10.17
18.72770404815674,-1.12,7.1,-0.76,7.22
18.727968215942383,0.67,3.31,0.42,3.4
18.730555057525635,-0.93,0.09,1.03,1.39
18.74100923538208,-3.12,0.14,-2.98,4.31
18.750503063201904,0.28,3.37,-2.76,4.36
18.76041603088379,4.95,3.26,0.95,6.0
18.77114510536194,8.54,0.86,2.64,8.98
18.780457019805908,9.88,-0.78,3.41,10.48
18.827444076538086,8.51,-1.63,3.28,9.26
18.82770824432373,6.42,-2.15,2.87,7.35
18.82796621322632,4.51,-2.31,2.65,5.71
18.828229188919067,3.11,-2.46,2.84,4.87
18.830185174942017,2.17,-2.88,3.1,4.75
18.840808153152466,1.8,-3.36,3.25,5.0
18.850309133529663,1.78,-3.5,3.11,5.0
18.86029624938965,1.62,-3.3,2.65,4.53
18.871002197265625,1.29,-2.99,2.06,3.85
18.880327224731445,0.99,-2.73,1.72,3.37
18.927566051483154,0.93,-2.35,1.52,2.94
18.92782711982727,1.08,-2.08,1.3,2.68
18.928091049194336,1.07,-2.14,1.24,2.69
18.92834711074829,0.81,-2.25,1.18,2.66
18.93013310432434,0.48,-2.28,1.05,2.55
18.9406681060791,0.02,-2.23,0.55,2.29
18.9501531124115,-0.6,-1.71,-0.54,1.89
18.96017813682556,-1.69,-1.01,-2.29,3.01
18.970746994018555,-3.37,-0.28,-3.7,5.01
18.980290174484253,-4.47,0.22,-3.95,5.96
19.028377056121826,-4.67,0.1,-3.17,5.64
19.02863311767578,-4.88,0.11,-2.83,5.64
19.028892993927002,-5.68,0.77,-3.71,6.82
19.029155254364014,-6.68,1.54,-5.29,8.65
19.030039310455322,-7.68,2.16,-7.27,10.79
19.040565013885498,-8.55,2.29,-8.52,12.28
19.049928188323975,-9.5,2.08,-8.89,13.17
19.059924125671387,-10.34,1.53,-9.31,13.99
19.070666313171387,-10.37,0.13,-9.66,14.17
19.080010175704956,-9.3,-2.21,-9.19,13.26
19.12791419029236,-8.07,-4.11,-8.16,12.19
19.128178119659424,-7.88,-4.45,-6.85,11.34
19.12844228744507,-8.31,-4.35,-5.85,11.05
19.128698110580444,-8.24,-4.64,-5.68,11.03
19.129887104034424,-7.8,-3.01,-6.44,10.55
19.141229152679443,-5.15,2.96,-5.59,8.15
19.149720191955566,3.74,2.36,-0.46,4.44
19.159788131713867,9.96,5.42,10.83,15.68
19.170478105545044,14.32,7.24,15.78,22.5
19.179847240447998,7.98,6.7,0.41,10.42
19.22783327102661,-0.68,10.54,-9.71,14.34
19.22810125350952,-6.47,11.58,-9.44,16.28
19.228365182876587,-6.21,2.55,-8.88,11.13
19.228623151779175,-7.45,-0.56,1.88,7.7
19.229737281799316,-8.62,-4.76,2.9,10.26
19.24023723602295,-9.01,-4.88,-4.81,11.31
19.2497501373291,-8.5,-3.24,-5.73,10.75
19.259663105010986,-6.36,-1.23,-4.16,7.69
19.270419120788574,-4.08,0.26,-2.72,4.91
19.279685020446777,-1.5,1.03,-2.25,2.89
19.331789016723633,0.92,1.34,-2.06,2.62
19.332050323486328,1.97,1.29,-1.6,2.84
19.332650184631348,0.98,0.9,-0.97,1.64
19.332914113998413,-0.47,0.51,-1.43,1.58
19.333173274993896,-0.83,0.27,-2.17,2.33
19.339969158172607,-0.78,0.01,-2.04,2.18
19.349613189697266,-0.82,-0.04,-1.54,1.74
19.359496116638184,-0.73,0.02,-1.16,1.37
19.370038986206055,-0.58,0.06,-0.99,1.14
19.379520177841187,-0.62,-0.03,-0.88,1.07
19.42809009552002,-0.65,-0.06,-0.87,1.08
19.428353309631348,-0.63,0.02,-0.58,0.85
19.42861318588257,-0.67,0.0,-0.07,0.67
19.428922176361084,-0.6,-0.04,0.32,0.68
19.429344177246094,-0.38,-0.07,0.6,0.71
19.439882278442383,-0.14,-0.06,0.73,0.74
19.449713230133057,0.07,0.0,0.53,0.53
19.459436178207397,0.26,0.08,0.16,0.31
19.47008228302002,0.58,0.14,0.0,0.59
19.479457139968872,0.94,0.16,0.15,0.96
19.529201984405518,1.16,0.11,0.37,1.22
19.52945113182068,1.14,0.11,0.64,1.31
19.529712200164795,0.87,0.05,0.86,1.22
19.529969215393066,0.42,-0.05,0.94,1.03
19.53022527694702,0.13,-0.09,0.89,0.9
19.539793014526367,0.18,-0.1,0.92,0.94
19.54960823059082,0.46,-0.11,1.0,1.1
19.559179306030273,0.85,-0.15,1.02,1.33
19.5699462890625,1.38,-0.13,1.14,1.79
19.579225063323975,1.88,-0.11,0.98,2.12
19.628238201141357,1.91,-0.06,0.69,2.03
19.628533124923706,1.6,0.05,0.67,1.73
19.628972053527832,1.37,0.14,0.81,1.59
19.629226207733154,1.45,0.16,1.13,1.84
19.62947916984558,1.41,0.03,1.36,1.95
19.63966417312622,1.31,-0.02,1.39,1.91
19.649062156677246,1.28,0.02,1.45,1.93
19.66019320487976,1.5,0.23,1.55,2.16
19.67013716697693,1.87,0.57,1.64,2.55
19.67908000946045,2.17,1.01,1.39,2.76
19.72913932800293,2.0,1.29,0.97,2.57
19.72939920425415,1.86,1.67,0.77,2.61
19.729656219482422,1.74,2.4,1.09,3.15
19.72991132736206,1.78,2.87,1.33,3.62
19.73016929626465,1.53,3.62,2.02,4.41
19.739402294158936,1.81,4.99,2.3,5.78
19.74888324737549,3.13,6.53,2.54,7.67
19.75889015197754,4.4,6.46,3.89,8.73
19.769573211669922,3.89,6.6,4.53,8.9
19.778926134109497,3.82,7.47,4.8,9.66
19.829430103302002,3.56,8.08,5.35,10.32
19.82968807220459,2.93,8.65,6.5,11.2
19.829944133758545,3.5,9.44,7.84,12.76
19.8302001953125,4.69,9.56,6.82,12.64
19.83045721054077,4.6,8.52,4.95,10.87
19.839295148849487,4.42,7.22,3.55,9.17
19.84881019592285,5.11,6.17,-0.05,8.01
19.858736038208008,4.87,7.13,-4.35,9.66
19.869466304779053,1.35,10.34,-4.71,11.44
19.8787682056427,-2.75,11.02,-0.66,11.37
19.928824186325073,-2.41,9.21,0.58,9.53
19.929084300994873,1.18,6.03,-0.58,6.17
19.92934012413025,2.3,2.01,0.5,3.09
19.92960023880005,-1.27,-0.41,-0.39,1.39
19.92985725402832,-2.55,0.71,-4.81,5.49
19.939189195632935,1.76,3.52,-1.96,4.39
19.94865131378174,5.88,2.48,1.48,6.55
19.958617210388184,8.95,0.07,3.01,9.44
19.969263076782227,9.52,-1.72,4.46,10.65
19.97857427597046,7.87,-2.75,4.93,9.68
20.02898120880127,6.08,-2.94,4.26,7.98
20.029240131378174,4.36,-2.61,3.33,6.07
20.029500007629395,3.07,-2.34,2.93,4.84
20.029755115509033,2.17,-2.38,2.99,4.39
20.030009269714355,1.53,-2.33,3.13,4.19
20.03896713256836,0.88,-2.09,2.84,3.63
20.04853105545044,0.24,-1.83,2.09,2.78
20.05846405029297,-0.2,-1.84,1.39,2.31
20.0691180229187,-0.15,-1.81,1.05,2.09
20.078452110290527,0.67,-1.75,1.29,2.27
20.1293683052063,1.53,-1.99,1.73,3.04
20.129634141921997,1.86,-2.26,1.89,3.48
20.12989330291748,1.35,-2.32,1.68,3.16
20.130149126052856,0.09,-2.78,1.09,2.98
20.130412101745605,-1.08,-3.03,0.2,3.22
20.138729095458984,-1.79,-2.71,-1.58,3.61
20.1483371257782,-2.45,-2.07,-3.97,5.1
20.158367156982422,-3.4,-1.92,-3.85,5.48
20.168909072875977,-4.53,-2.55,-2.58,5.8
20.17835807800293,-5.18,-2.67,-3.3,6.69
20.229026317596436,-5.26,-2.12,-4.37,7.15
20.229287147521973,-4.98,-1.51,-5.14,7.31
20.229543209075928,-4.45,-1.13,-6.21,7.72
20.229798316955566,-4.77,-0.81,-7.37,8.81
20.230058193206787,-6.82,-0.58,-8.6,10.99
20.238648176193237,-9.75,-1.0,-9.42,13.59
20.248112201690674,-11.17,-2.06,-9.13,14.57
20.258183002471924,-10.56,-3.27,-8.41,13.89
20.26874828338623,-9.42,-3.79,-7.71,12.74
20.278135299682617,-8.56,-3.73,-6.94,11.63
20.32992720603943,-7.86,-3.68,-6.34,10.74
20.33019733428955,-7.37,-3.78,-5.94,10.19
20.330453157424927,-8.05,-0.57,-5.95,10.02
20.3307101726532,-2.72,0.14,-5.56,6.19
20.33096933364868,-2.65,-3.19,-3.41,5.36
20.338510990142822,2.34,11.48,9.45,15.05
20.348583221435547,17.67,19.34,19.53,32.67
20.35806918144226,8.42,22.14,-10.98,26.1
20.368545055389404,1.77,8.13,-10.94,13.74
20.377970218658447,-6.68,-6.88,-1.43,9.69
20.429713249206543,-13.32,-7.3,3.4,15.56
20.429975986480713,-10.36,-5.07,-1.74,11.66
20.430241107940674,-10.63,-4.03,-5.58,12.66
20.430498123168945,-9.67,-1.87,-4.79,10.95
20.4307541847229,-5.74,0.35,-2.88,6.43
20.43831729888916,-1.3,0.45,-1.66,2.15
20.44788932800293,1.78,0.46,-2.29,2.93
20.457848072052002,3.37,1.11,-2.56,4.37
20.468361139297485,2.44,1.22,-1.84,3.29
20.477771282196045,-0.25,1.1,-1.03,1.52
20.52988314628601,-1.61,0.59,-1.33,2.17
20.530147075653076,-1.47,-0.02,-1.84,2.35
20.530404090881348,-1.69,-0.22,-1.74,2.43
20.530663013458252,-2.19,-0.17,-1.52,2.67
20.53092622756958,-1.99,-0.06,-1.47,2.47
20.538166046142578,-1.27,-0.1,-1.31,1.82
20.547770023345947,-0.86,-0.07,-0.94,1.27
20.557650089263916,-0.79,0.13,-0.7,1.06
20.568178176879883,-0.62,0.22,-0.66,0.93
20.5776309967041,-0.45,0.22,-0.56,0.75
20.630043029785156,-0.5,0.13,-0.43,0.67
20.6303071975708,-0.58,0.04,-0.36,0.68
20.630564212799072,-0.4,-0.03,-0.45,0.6
20.630821228027344,0.0,0.03,-0.51,0.51
20.63108205795288,0.56,0.1,-0.35,0.66
20.63805627822876,0.94,0.14,0.01,0.95
20.647578239440918,1.06,0.16,0.42,1.15
20.65755033493042,0.98,0.12,0.72,1.22
20.668188095092773,0.61,0.09,0.9,1.09
20.67747712135315,0.27,0.01,1.01,1.04
20.730185985565186,0.2,-0.05,1.11,1.12
20.73044729232788,0.28,-0.06,1.28,1.31
20.73070526123047,0.66,-0.1,1.19,1.36
20.73096013069153,1.29,-0.16,1.14,1.72
20.731215000152588,1.79,-0.15,1.1,2.1
20.73787021636963,1.99,-0.12,1.03,2.24
20.747413158416748,1.77,-0.09,0.9,1.98
20.757391214370728,1.43,-0.03,0.91,1.69
20.768338203430176,1.49,0.12,1.09,1.85
20.77740716934204,1.59,0.27,1.17,1.99
20.829432010650635,1.65,0.24,1.21,2.06
20.829695224761963,1.66,0.11,1.8,2.45
20.82996129989624,1.88,0.25,1.76,2.58
20.830220222473145,1.99,0.51,1.28,2.42
20.8304762840271,1.76,0.86,1.08,2.23
20.83769130706787,1.38,1.18,0.94,2.04
20.847297191619873,1.32,1.47,1.09,2.25
20.857096195220947,1.89,2.14,1.31,3.14
20.911269187927246,2.02,2.5,1.98,3.77
20.91153120994568,1.82,2.85,2.56,4.24
20.911790132522583,1.84,3.87,2.41,4.91
20.91204810142517,1.91,6.22,1.89,6.77
20.912307262420654,3.69,7.47,2.4,8.67
20.917428016662598,4.42,6.72,3.87,8.92
20.92712926864624,3.94,6.7,4.44,8.95
20.937668323516846,3.51,7.47,5.26,9.78
20.94715118408203,3.68,8.7,6.3,11.35
20.95710802078247,4.39,9.58,6.84,12.56
21.013236045837402,5.01,10.24,6.01,12.88
21.01348114013672,5.01,9.56,5.19,11.97
21.013736248016357,4.76,8.32,3.73,10.28
21.013996124267578,5.75,7.19,0.73,9.23
21.014251232147217,6.02,7.36,-3.4,10.09
21.017067193984985,3.38,9.47,-5.35,11.38
21.026901245117188,-0.54,11.41,-2.72,11.74
21.037456035614014,-1.99,9.92,0.12,10.11
21.04692506790161,-0.18,6.59,-0.3,6.59
21.05697512626648,1.85,3.12,0.22,3.63
21.114075183868408,0.36,0.62,0.45,0.84
21.114341259002686,-0.73,1.63,-3.85,4.24
21.114598274230957,2.98,4.76,-2.57,6.17
21.114853143692017,6.95,3.6,1.11,7.9
21.115110158920288,9.64,1.04,3.15,10.19
21.116820335388184,9.56,-0.48,3.82,10.3
21.126784324645996,7.73,-1.28,3.36,8.52
21.137304306030273,6.22,-1.47,2.8,6.97
21.146860122680664,4.79,-1.35,2.73,5.67
21.156811237335205,3.72,-1.31,2.78,4.82
21.21319818496704,3.05,-1.49,2.7,4.33
21.21346426010132,2.8,-1.72,2.47,4.11
21.213722229003906,2.38,-1.99,2.23,3.82
21.213980197906494,1.39,-2.11,1.74,3.06
21.214235305786133,0.52,-2.24,1.29,2.63
21.216536045074463,-0.05,-2.35,1.29,2.68
21.226633071899414,0.14,-2.37,1.39,2.75
21.237220287322998,0.66,-2.43,1.57,2.96
21.24669313430786,0.47,-2.59,1.35,2.95
21.256575107574463,0.02,-2.63,1.15,2.87
21.26726198196411,-0.44,-2.79,1.34,3.12
21.31371021270752,-1.28,-3.0,0.96,3.4
21.313971042633057,-2.19,-2.71,-0.58,3.53
21.31423020362854,-2.93,-2.14,-2.68,4.51
21.314488172531128,-4.05,-1.59,-3.9,5.84
21.316408157348633,-5.0,-1.71,-2.97,6.06
21.326451301574707,-5.61,-1.93,-2.09,6.29
21.33698606491089,-6.22,-1.29,-2.93,6.99
21.34649920463562,-6.89,-0.29,-4.28,8.11
21.35644006729126,-7.06,0.46,-5.08,8.7
21.3672091960907,-7.34,1.13,-6.11,9.61
21.413613319396973,-8.49,1.68,-7.66,11.55
21.413875102996826,-10.04,1.76,-9.1,13.66
21.41413402557373,-11.08,1.2,-9.97,14.95
21.41439414024353,-10.97,-0.17,-10.03,14.86
21.416272163391113,-9.52,-1.9,-8.65,13.0
21.42629313468933,-8.03,-3.06,-7.37,11.32
21.436864137649536,-7.36,-3.35,-6.7,10.5
21.446369171142578,-7.19,-3.36,-6.25,10.1
21.456286191940308,-7.17,-3.6,-5.98,10.0
21.467027187347412,-7.49,-2.97,-6.34,10.25
21.514026165008545,-7.41,1.05,-6.97,10.22
21.514294147491455,-0.31,-2.25,-6.1,6.5
21.51456618309021,7.05,5.52,5.53,10.52
21.514824151992798,18.98,11.91,21.67,31.17
21.516703128814697,12.48,14.89,1.15,19.46
21.52624225616455,-3.12,15.59,-13.0,20.53
21.536768198013306,-6.28,3.02,-7.71,10.39
21.546258211135864,-9.29,-4.7,-6.04,12.03
21.55620813369751,-10.11,-3.19,2.95,11.0
21.56682515144348,-9.54,-3.69,-0.7,10.25
21.613638162612915,-9.4,-3.09,-6.12,11.63
21.613901138305664,-7.93,-1.24,-5.08,9.49
21.614159107208252,-5.04,0.04,-2.13,5.47
21.614418029785156,-2.0,0.33,-0.82,2.18
21.61593008041382,0.81,0.73,-1.38,1.75
21.626028060913086,2.99,1.24,-1.69,3.65
21.63651704788208,2.34,1.07,-2.21,3.39
21.646066188812256,-0.62,0.79,-2.33,2.53
21.656095027923584,-2.27,0.34,-1.77,2.89
21.666803121566772,-1.92,-0.14,-1.22,2.27
21.71389627456665,-1.34,-0.31,-1.06,1.73
21.71415901184082,-1.26,-0.19,-1.01,1.62
21.71442222595215,-0.97,0.0,-1.25,1.58
21.71466612815857,-0.2,0.09,-1.25,1.26
21.71585512161255,0.44,0.21,-0.97,1.08
21.725826263427734,0.45,0.23,-0.59,0.77
21.736354112625122,0.1,0.17,-0.2,0.28
21.745980262756348,-0.2,0.08,0.16,0.26
21.75594711303711,-0.39,0.03,0.36,0.53
21.766592979431152,-0.16,0.03,0.26,0.3
21.81371307373047,0.38,0.08,-0.01,0.38
21.81397318840027,0.99,0.14,0.09,1.0
21.81423020362854,1.5,0.12,0.28,1.53
21.814484119415283,1.79,0.13,0.42,1.84
21.815770149230957,1.64,0.18,0.71,1.79
21.825683116912842,1.33,0.14,1.05,1.7
21.836100101470947,1.26,0.09,1.31,1.81
21.84566307067871,1.18,0.08,1.33,1.77
21.855672121047974,0.88,0.08,1.24,1.52
21.866404056549072,0.48,0.01,0.87,0.99
21.913710117340088,0.1,-0.13,0.5,0.52
21.91397213935852,-0.12,-0.24,0.35,0.44
21.91423225402832,-0.15,-0.32,0.36,0.5
21.91449213027954,-0.08,-0.24,0.34,0.42
21.915618181228638,0.05,-0.04,0.07,0.09
21.925554275512695,0.08,0.22,-0.19,0.3
21.9358811378479,0.04,0.39,-0.13,0.41
21.94563627243042,0.09,0.4,0.14,0.43
21.955555200576782,0.32,0.26,0.55,0.68
21.966325283050537,0.91,0.13,1.16,1.48
22.013354301452637,1.58,0.22,1.6,2.25
22.01361918449402,1.91,0.3,1.84,2.66
22.013875007629395,1.99,0.47,2.73,3.41
22.014135122299194,2.52,1.15,2.52,3.74
22.01538610458374,2.29,1.35,2.07,3.36
22.025376319885254,1.73,1.82,1.64,2.99
22.03597927093506,1.93,2.34,1.63,3.44
22.04546308517456,2.07,2.56,1.74,3.72
22.055391311645508,2.24,2.69,2.12,4.09
22.06613302230835,2.58,2.84,2.36,4.5
22.113458156585693,2.75,3.04,2.86,4.99
22.113718032836914,2.67,3.45,3.32,5.48
22.113973140716553,2.61,4.96,3.31,6.5
22.114227294921875,3.63,7.39,3.16,8.81
22.115233182907104,5.44,8.36,4.84,11.08
22.125205039978027,5.68,8.07,6.48,11.8
22.136081218719482,5.36,8.62,7.78,12.78
22.145342111587524,5.41,9.61,8.8,14.1
22.15526533126831,5.28,9.56,8.96,14.12
22.16600513458252,5.35,8.67,7.82,12.84
22.215262174606323,5.06,7.29,4.05,9.75
22.21552324295044,5.76,7.18,-2.96,9.66
22.215782165527344,5.42,10.18,-8.16,14.12
22.216042041778564,2.02,13.65,-6.96,15.45
22.216305255889893,-1.3,13.38,-1.72,13.55
22.22512722015381,-2.02,8.94,0.31,9.17
22.23591113090515,-0.2,3.91,0.46,3.94
22.245225191116333,2.59,0.87,1.58,3.15
22.255160331726074,-0.29,-0.72,-0.3,0.83
22.265688180923462,-2.53,1.28,-4.79,5.56
22.315231323242188,0.59,4.57,-1.7,4.91
22.31549620628357,4.29,3.68,1.1,5.75
22.31575918197632,7.02,1.47,2.32,7.53
22.316018104553223,7.85,-0.56,3.87,8.77
22.31627321243286,6.33,-2.08,3.73,7.63
22.32495617866516,4.62,-2.67,2.51,5.89
22.33588218688965,3.56,-2.95,1.99,5.03
22.345038175582886,2.85,-3.01,2.09,4.64
22.35490322113037,2.27,-2.97,2.41,4.44
22.365496158599854,1.37,-2.91,2.51,4.07
22.415309190750122,0.24,-2.73,1.98,3.38
22.415569305419922,-0.5,-2.48,1.43,2.9
22.415826320648193,-0.39,-2.53,1.3,2.87
22.41608214378357,0.18,-2.79,1.25,3.06
22.41633701324463,0.84,-2.96,1.29,3.33
22.424811124801636,1.4,-3.04,1.2,3.55
22.435626983642578,1.71,-3.18,1.16,3.79
22.444908142089844,1.46,-3.46,1.06,3.9
22.454768180847168,0.61,-3.57,0.9,3.73
22.46539306640625,-0.27,-3.66,0.42,3.69
22.515421152114868,-0.91,-3.64,-0.47,3.78
22.515682220458984,-1.72,-3.34,-1.79,4.16
22.51594114303589,-2.82,-2.81,-4.17,5.76
22.516199111938477,-4.03,-2.33,-5.45,7.16
22.516460180282593,-4.74,-2.6,-4.43,6.98
22.524593114852905,-4.95,-2.59,-3.72,6.71
22.53545904159546,-5.45,-1.63,-4.89,7.5
22.54472517967224,-6.34,-0.32,-6.79,9.29
22.554655075073242,-6.7,0.46,-8.22,10.61
22.56530523300171,-7.03,0.95,-9.13,11.56
22.615830183029175,-7.99,1.23,-9.64,12.58
22.61609125137329,-8.93,0.73,-9.77,13.25
22.616348266601562,-9.0,-0.26,-9.58,13.14
22.61660623550415,-7.98,-1.62,-9.4,12.43
22.616862297058105,-6.64,-3.09,-7.7,10.62
22.624508142471313,-5.93,-3.76,-6.37,9.48
22.635022163391113,-6.05,-3.74,-6.2,9.43
22.6446852684021,-6.55,-3.87,-5.95,9.65
22.654468059539795,-7.3,-0.99,-6.17,9.6
22.665180206298828,-3.33,3.54,-4.75,6.79
22.715018272399902,5.07,3.88,1.64,6.59
22.715283155441284,12.12,8.46,17.68,23.04
22.715550184249878,12.58,6.34,14.85,20.46
22.715806007385254,2.35,4.42,-1.85,5.33
22.716065168380737,-5.32,7.27,-8.63,12.47
22.72428798675537,-6.82,6.43,-6.0,11.12
22.73496103286743,-7.93,4.46,-1.87,9.28
22.74446201324463,-6.27,-1.07,-3.02,7.04
22.754289150238037,-5.35,-1.55,-2.32,6.03
22.764978170394897,-6.74,-2.72,-5.07,8.86
22.81502413749695,-6.09,-2.13,-7.48,9.87
22.81528329849243,-5.01,-0.8,-5.82,7.72
22.815540313720703,-3.8,-0.11,-3.27,5.01
22.815800189971924,-1.77,0.79,-2.73,3.34
22.816055297851562,0.37,1.09,-2.32,2.58
22.824056148529053,1.15,0.87,-0.84,1.66
22.83467721939087,-0.19,0.53,0.09,0.57
22.84429407119751,-1.08,0.38,-1.43,1.83
22.854220151901245,-1.2,0.21,-2.09,2.41
22.864821195602417,-1.31,0.07,-1.6,2.06
22.91475820541382,-1.21,0.0,-1.16,1.67
22.915025234222412,-1.09,-0.1,-0.93,1.43
22.915266036987305,-1.01,-0.1,-1.0,1.42
22.91550612449646,-0.92,-0.01,-1.0,1.35
22.915765285491943,-0.68,0.18,-1.19,1.38
22.924015045166016,-0.4,0.28,-1.11,1.21
22.934489250183105,-0.4,0.18,-0.62,0.75
22.944176197052002,-0.64,0.04,0.0,0.64
22.954033136367798,-0.64,-0.05,0.27,0.69
22.96470832824707,-0.22,-0.07,0.59,0.63
23.015076160430908,0.19,0.05,1.02,1.03
23.015345096588135,0.88,0.08,0.81,1.19
23.015602111816406,1.69,0.21,0.48,1.76
23.01585626602173,1.9,0.28,0.39,1.95
23.01611018180847,1.45,0.08,0.33,1.48
23.02387809753418,1.02,-0.08,0.75,1.26
23.034313201904297,0.98,-0.11,1.4,1.71
23.043888092041016,1.21,-0.11,1.59,2.0
23.05391216278076,1.33,0.01,1.62,2.09
23.0645170211792,1.33,0.04,1.52,2.02
23.11463212966919,1.49,-0.02,1.53,2.13
23.114878177642822,1.49,-0.14,1.23,1.93
23.11513900756836,1.37,-0.2,0.83,1.61
23.11539912223816,1.17,-0.12,0.6,1.32
23.115658283233643,0.84,0.07,0.34,0.9
23.123690128326416,0.41,0.22,0.36,0.58
23.134291172027588,0.21,0.33,0.42,0.57
23.143615245819092,0.23,0.41,0.64,0.79
23.153674125671387,0.45,0.28,0.94,1.07
23.16439914703369,0.8,0.27,1.08,1.37
23.214980125427246,1.07,0.29,1.63,1.97
23.215241193771362,1.35,0.53,2.28,2.7
23.21549916267395,1.5,1.19,2.01,2.77
23.21575403213501,1.08,1.81,1.08,2.36
23.216010093688965,0.69,2.66,0.71,2.83
23.223506212234497,0.59,2.73,0.94,2.94
23.234127044677734,0.79,2.59,1.32,3.01
23.243624210357666,1.2,2.46,1.6,3.17
23.253435134887695,1.4,2.77,1.99,3.68
23.264196157455444,1.51,3.82,2.07,4.59
23.3147292137146,2.54,5.54,2.13,6.45
23.31498908996582,4.4,6.44,3.35,8.48
23.315246105194092,5.01,6.69,4.36,9.42
23.315500259399414,5.14,7.44,5.06,10.36
23.31576633453369,5.25,8.47,6.71,12.01
23.32337212562561,5.75,9.38,7.86,13.52
23.333985328674316,6.59,9.63,8.06,14.18
23.343477249145508,6.39,8.91,7.04,13.03
23.35333013534546,5.89,7.7,5.47,11.13
23.36406707763672,5.79,7.2,2.23,9.5
23.415482997894287,5.81,8.56,-2.03,10.54
23.415752172470093,2.55,12.05,-4.62,13.15
23.41601014137268,-3.06,13.33,-1.18,13.72
23.41626811027527,-3.5,10.81,1.54,11.46
23.41652512550354,0.27,7.44,1.81,7.66
23.423156261444092,2.3,4.29,2.28,5.37
23.43373417854309,-1.3,1.86,0.69,2.37
23.443259239196777,-4.43,2.86,-4.77,7.11
23.453298091888428,-0.08,6.39,-2.98,7.05
23.46390724182129,4.7,6.01,1.09,7.7
23.515167236328125,8.02,3.0,3.18,9.13
23.515427112579346,9.12,0.4,4.49,10.17
23.515686988830566,7.39,-1.06,4.23,8.58
23.515949249267578,5.78,-1.61,3.63,7.01
23.516205310821533,4.57,-1.84,3.85,6.25
23.523028135299683,3.17,-1.86,3.89,5.35
23.533629179000854,1.72,-1.75,3.37,4.16
23.543188095092773,0.5,-1.73,3.0,3.49
23.55333423614502,-0.11,-1.98,2.77,3.4
23.56372618675232,-0.01,-2.5,2.78,3.73
23.615715980529785,0.58,-3.02,2.45,3.93
23.615979194641113,1.17,-3.36,2.11,4.13
23.616236209869385,1.48,-3.63,2.0,4.4
23.61649227142334,1.64,-3.98,2.13,4.8
23.6167471408844,1.45,-4.38,1.96,5.01
23.622854232788086,0.85,-4.87,1.7,5.22
23.633416175842285,0.14,-5.06,1.37,5.24
23.642940044403076,-0.28,-5.26,1.17,5.39
23.65314221382141,-0.51,-5.34,0.65,5.4
23.663554191589355,-1.2,-4.94,-0.69,5.13
23.715346097946167,-2.64,-4.41,-2.58,5.75
23.7156081199646,-3.96,-3.86,-3.85,6.73
23.715867042541504,-4.82,-3.47,-3.74,7.01
23.716127157211304,-5.6,-2.93,-3.9,7.42
23.716382026672363,-6.0,-1.66,-4.87,7.9
23.722825050354004,-5.93,-0.22,-5.84,8.32
23.73326826095581,-5.17,0.85,-6.36,8.24
23.742841243743896,-4.91,1.68,-7.2,8.87
23.753124237060547,-6.1,2.42,-8.9,11.05
23.76348304748535,-8.21,2.48,-10.39,13.47
23.81506109237671,-10.39,1.67,-11.42,15.52
23.815324306488037,-10.98,-0.93,-11.14,15.66
23.81558322906494,-10.26,-2.22,-9.89,14.42
23.815850257873535,-8.61,2.13,-6.58,11.04
23.81610631942749,-5.22,-4.31,-7.83,10.35
23.822576999664307,-7.1,-4.09,-8.71,11.95
23.8330340385437,-3.36,5.76,-2.53,7.13
23.843160152435303,10.7,14.96,19.11,26.52
23.852668285369873,9.88,17.7,-0.36,20.27
23.863306045532227,2.08,10.09,-10.64,14.81
23.915728092193604,-6.08,0.13,1.94,6.38
23.915993213653564,-13.4,-4.2,-1.19,14.09
23.9162540435791,-7.65,-4.7,-7.89,11.95
23.916513204574585,-6.56,-1.46,-10.02,12.06
23.91676902770996,-7.7,-0.21,-8.02,11.12
23.92254400253296,-4.47,1.33,-5.75,7.4
23.932998180389404,-1.0,0.85,-4.25,4.44
23.942503213882446,1.14,0.17,-3.36,3.55
23.95248031616211,1.95,0.14,-2.24,2.97
23.96311616897583,1.61,0.29,-0.53,1.71
24.015511989593506,0.45,0.59,-0.84,1.12
24.015793323516846,-0.5,0.47,-1.52,1.66
24.0160551071167,-0.91,0.25,-1.11,1.45
24.016310214996338,-1.2,0.2,-0.41,1.28
24.016566276550293,-1.14,-0.01,-0.07,1.14
24.022269248962402,-0.66,-0.19,-0.51,0.85
24.032843112945557,-0.09,-0.24,-0.92,0.95
24.04235816001892,0.26,-0.2,-0.98,1.03
24.052297115325928,0.22,-0.14,-0.62,0.67
24.062995195388794,-0.06,-0.12,-0.37,0.39
24.115158081054688,-0.18,-0.09,-0.2,0.28
24.11542010307312,-0.11,0.06,-0.12,0.17
24.11567711830139,-0.06,0.16,0.27,0.31
24.115933179855347,0.08,0.19,0.92,0.94
24.116191148757935,0.4,0.23,1.04,1.13
24.122170209884644,0.48,0.26,0.69,0.87
24.132787227630615,0.24,0.17,0.54,0.61
24.142284154891968,0.12,-0.04,0.61,0.62
24.15217399597168,0.43,-0.14,0.65,0.79
24.16286611557007,0.66,-0.07,0.66,0.93
24.21490716934204,0.85,0.06,0.62,1.05
24.21516704559326,0.96,0.26,0.51,1.11
24.215426206588745,0.63,0.37,0.39,0.82
24.215681076049805,0.05,0.31,0.29,0.42
24.215938091278076,-0.37,0.15,0.16,0.43
24.222058296203613,-0.58,-0.05,0.07,0.58
24.23259925842285,-0.41,-0.13,0.01,0.43
24.2419753074646,0.02,-0.04,-0.09,0.1
24.252114295959473,0.15,0.15,-0.24,0.32
24.262670040130615,0.08,0.23,-0.23,0.33
24.3146710395813,0.13,0.16,-0.04,0.21
24.31493616104126,0.4,0.09,0.44,0.6
24.31519317626953,1.06,0.05,1.19,1.59
24.31545114517212,1.87,0.04,1.98,2.72
24.315706253051758,2.47,0.16,2.43,3.46
24.321869134902954,2.76,0.72,2.19,3.59
24.332458019256592,2.61,1.29,2.02,3.54
24.341896057128906,2.06,1.29,1.81,3.03
24.351936101913452,1.93,1.75,1.63,3.07
24.36254119873047,1.94,2.15,1.47,3.24
24.415239334106445,1.89,2.43,1.65,3.49
24.415500164031982,2.36,2.55,2.08,4.04
24.415759086608887,2.93,2.72,2.45,4.68
24.416014194488525,3.23,3.02,2.75,5.2
24.416276216506958,3.33,3.77,2.81,5.76
24.421736240386963,3.43,5.66,2.51,7.07
24.432284116744995,4.49,7.69,3.0,9.39
24.441725254058838,5.16,8.21,4.68,10.76
24.45169711112976,4.41,8.35,5.97,11.17
24.46241807937622,4.49,9.01,7.43,12.51
24.516003131866455,5.22,9.55,7.83,13.4
24.51626205444336,4.97,9.38,6.63,12.51
24.516521215438843,4.61,8.8,5.24,11.23
24.516784191131592,5.13,8.25,1.98,9.91
24.517046213150024,5.97,8.53,-3.17,10.88
24.521615982055664,4.55,10.47,-6.53,13.15
24.532153129577637,-0.7,13.05,-5.3,14.1
24.541683197021484,-3.61,11.67,-2.08,12.39
24.551542282104492,-0.73,7.11,-0.74,7.18
24.56226921081543,1.75,3.02,0.39,3.51
24.61566400527954,-0.75,0.39,0.69,1.09
24.615933179855347,-4.19,0.84,-4.32,6.07
24.616191148757935,0.49,3.76,-2.61,4.6
24.616446018218994,5.66,2.98,2.21,6.76
24.616700172424316,8.97,0.63,4.03,9.85
24.62135410308838,9.55,-0.6,4.8,10.7
24.63193702697754,7.84,-1.15,3.97,8.86
24.641452312469482,6.51,-1.41,2.7,7.18
24.65140724182129,5.26,-1.53,2.0,5.83
24.662081241607666,4.09,-1.53,2.21,4.89
24.715986251831055,3.43,-1.78,2.99,4.88
24.716248989105225,2.89,-2.08,3.09,4.71
24.716509103775024,2.31,-2.34,2.72,4.26
24.71677303314209,1.5,-2.36,2.44,3.71
24.717029094696045,0.61,-2.22,2.03,3.06
24.72111701965332,0.11,-2.03,1.73,2.66
24.731789112091064,-0.15,-1.77,1.46,2.29
24.741350173950195,-0.05,-1.48,1.02,1.79
24.751230239868164,0.4,-1.37,1.04,1.76
24.76192808151245,0.59,-1.35,1.07,1.82
24.81632900238037,0.38,-1.34,0.6,1.51
24.816591262817383,-0.5,-1.96,0.12,2.02
24.816850185394287,-1.87,-2.35,-0.84,3.11
24.817127227783203,-2.2,-2.5,-2.35,4.07
24.817383289337158,-2.57,-2.67,-1.95,4.18
24.820956230163574,-2.62,-3.08,-0.44,4.06
24.83153510093689,-2.34,-3.31,-0.03,4.05
24.841182231903076,-2.68,-3.08,-0.52,4.11
24.850999116897583,-3.14,-2.51,-1.23,4.2
24.861752033233643,-3.51,-2.04,-1.61,4.36
24.915897130966187,-4.35,-1.75,-2.5,5.31
24.916157245635986,-5.96,-1.18,-4.42,7.51
24.916418075561523,-7.59,-0.79,-5.96,9.68
24.91668128967285,-8.86,-0.6,-7.16,11.4
24.916938304901123,-9.81,-0.84,-8.05,12.71
24.920772075653076,-11.05,-1.64,-8.55,14.06
24.93147110939026,-12.66,-2.81,-9.0,15.78
24.94096326828003,-13.44,-3.93,-9.17,16.73
24.95085310935974,-12.38,-4.07,-9.17,15.93
24.961583137512207,-10.19,-3.28,-8.89,13.91
25.015488147735596,-8.28,-3.1,-8.06,11.96
25.01575016975403,-7.55,-3.06,-7.72,11.22
25.016008138656616,-8.13,3.14,-8.55,12.2
25.016265153884888,-2.16,0.94,-7.95,8.29
25.016521215438843,1.58,2.7,-2.05,3.74
25.021099090576172,14.49,13.27,15.64,25.11
25.031278133392334,22.2,14.7,16.57,31.36
25.040844202041626,9.39,15.5,-8.77,20.13
25.050780296325684,3.25,6.12,-8.66,11.09
25.061453104019165,-6.33,-3.6,-0.96,7.34
25.116316318511963,-13.15,-5.48,-2.52,14.46
25.1165771484375,-13.07,-4.35,-2.81,14.05
25.116835117340088,-10.7,-1.97,-5.11,12.02
25.11709213256836,-7.74,0.2,-6.0,9.79
25.117348194122314,-5.89,1.47,-3.64,7.07
25.120870113372803,-3.46,0.5,-2.82,4.49
25.13103723526001,-0.33,-0.05,-2.55,2.57
25.141096115112305,1.41,0.4,-1.77,2.29
25.15054416656494,0.95,0.76,-1.07,1.62
25.161227226257324,-0.36,0.74,-1.14,1.4
25.21640419960022,-0.56,0.57,-1.62,1.8
25.216668128967285,-0.48,0.46,-1.49,1.63
25.21692705154419,-0.71,0.18,-0.94,1.19
25.21718716621399,-0.85,-0.01,-0.98,1.29
25.217451095581055,-0.66,-0.19,-1.22,1.4
25.220839023590088,-0.29,-0.23,-1.13,1.18
25.23097801208496,-0.04,-0.04,-0.91,0.91
25.2405002117157,-0.03,0.08,-0.69,0.69
25.250493049621582,-0.26,0.06,-0.37,0.45
25.261163234710693,-0.58,-0.03,-0.06,0.58
25.314727306365967,-0.67,-0.05,0.37,0.76
25.315458297729492,-0.46,-0.07,0.65,0.79
25.31572198867798,-0.15,-0.04,0.85,0.86
25.31598424911499,0.17,0.01,0.84,0.85
25.316240310668945,0.66,0.07,0.73,0.98
25.320245265960693,0.97,0.2,0.68,1.2
25.33086109161377,0.98,0.2,0.61,1.17
25.340360164642334,0.71,0.12,0.56,0.91
25.350321292877197,0.59,-0.01,0.67,0.89
25.361032009124756,0.63,-0.06,1.06,1.23
25.37028932571411,0.82,-0.06,1.45,1.66
25.415607213974,1.15,-0.07,1.72,2.07
25.415868282318115,1.28,-0.13,1.67,2.1
25.41613006591797,1.54,-0.26,1.6,2.23
25.41639018058777,2.23,-0.25,1.55,2.72
25.4201340675354,2.8,-0.02,1.4,3.13
25.43064832687378,2.53,0.3,0.81,2.67
25.44024109840393,1.74,0.35,0.29,1.79
25.450181007385254,1.31,0.22,0.74,1.52
25.46088218688965,1.38,0.27,1.38,1.97
25.47012209892273,1.53,0.51,1.37,2.11
25.514737129211426,1.63,0.91,1.19,2.21
25.514997005462646,1.39,1.19,1.12,2.14
25.515260219573975,1.32,1.4,0.88,2.11
25.515544176101685,1.7,2.16,0.79,2.86
25.52000617980957,1.87,2.5,1.27,3.37
25.530551195144653,1.46,2.89,1.61,3.61
25.540034294128418,2.1,3.2,2.2,4.41
25.54997420310974,2.56,3.24,2.79,4.98
25.560715198516846,2.67,3.48,3.2,5.42
25.569984197616577,2.85,5.08,2.93,6.52
25.615163326263428,4.18,7.17,2.81,8.76
25.615427017211914,5.47,7.65,4.37,10.37
25.615687131881714,4.77,7.89,5.43,10.69
25.615949153900146,4.52,8.83,6.66,11.94
25.61996603012085,5.63,9.69,7.34,13.39
25.630356311798096,7.08,10.08,6.84,14.08
25.639937162399292,7.85,10.16,5.98,14.16
25.649859189987183,7.82,8.89,5.55,13.07
25.660527229309082,7.05,7.44,2.64,10.58
25.71503520011902,5.02,6.93,-1.74,8.73
25.71576714515686,1.42,8.69,-5.63,10.45
25.716028213500977,-1.22,12.17,-5.17,13.27
25.71628999710083,-2.53,12.54,0.65,12.8
25.71655011177063,-2.26,8.11,2.81,8.87
25.719630241394043,1.13,3.58,0.72,3.82
25.730195999145508,0.73,0.73,0.68,1.23
25.739821195602417,-3.63,-0.76,-3.5,5.09
25.74968910217285,-2.25,2.98,-5.07,6.29
25.760393142700195,2.63,4.94,0.15,5.59
25.76966428756714,5.73,3.06,2.09,6.82
25.815823078155518,7.6,0.45,4.08,8.63
25.81608819961548,7.05,-1.69,5.47,9.08
25.816376209259033,5.69,-2.43,4.4,7.59
25.816633224487305,4.41,-2.21,3.14,5.84
25.819469213485718,2.97,-2.12,2.79,4.59
25.83008313179016,1.86,-2.14,2.73,3.93
25.839595317840576,0.93,-2.07,2.81,3.61
25.849647045135498,-0.22,-1.88,2.52,3.15
25.86015820503235,-1.21,-1.7,1.88,2.8
25.8694851398468,-1.44,-1.95,1.53,2.86
25.915980100631714,-0.99,-2.36,1.31,2.87
25.91624116897583,-0.28,-2.67,1.06,2.88
25.91650414466858,0.32,-2.72,0.84,2.86
25.91676425933838,0.62,-2.55,0.89,2.77
25.919432163238525,0.23,-2.61,0.39,2.64
25.929896116256714,-0.6,-3.34,-0.26,3.4
25.939472198486328,-1.49,-3.92,-0.84,4.27
25.9493989944458,-1.78,-4.08,-1.89,4.83
25.96009612083435,-1.74,-3.97,-2.08,4.8
25.969415187835693,-2.25,-4.18,-1.15,4.88
26.015924215316772,-2.69,-4.45,-1.05,5.3
26.016207218170166,-3.05,-4.39,-1.86,5.65
26.016465187072754,-3.85,-4.26,-2.69,6.34
26.016727209091187,-4.63,-3.91,-3.48,6.98
26.019376277923584,-5.07,-3.35,-4.53,7.57
26.029749155044556,-5.34,-2.8,-5.8,8.36
26.039133071899414,-5.99,-2.33,-7.08,9.56
26.049252033233643,-7.51,-1.95,-8.43,11.45
26.05990219116211,-9.36,-1.54,-9.59,13.48
26.06937026977539,-10.64,-1.48,-9.87,14.58
26.115806102752686,-10.8,-1.91,-9.73,14.66
26.11607027053833,-10.1,-2.41,-9.34,13.96
26.116328239440918,-9.13,-2.35,-8.62,12.77
26.116584300994873,-8.25,-2.13,-7.87,11.59
26.118991136550903,-7.84,-2.45,-7.36,11.02
26.12953805923462,-8.62,1.15,-7.54,11.5
26.138894081115723,-5.9,3.69,-4.79,8.44
26.14911413192749,0.37,-4.38,-5.83,7.3
26.15976119041443,12.36,11.09,16.77,23.6
26.16964316368103,21.24,18.57,21.05,35.2
26.2168869972229,6.8,15.35,-9.41,19.24
26.21716022491455,-0.45,6.06,-8.07,10.1
26.217422008514404,-8.02,-2.27,-0.33,8.34
26.21768021583557,-13.55,-3.0,-0.68,13.89
26.218846321105957,-8.98,-3.55,-3.59,10.3
26.229457139968872,-6.48,-1.56,-6.55,9.34
26.23884630203247,-7.06,-0.81,-7.03,9.99
26.248889207839966,-5.32,0.68,-6.09,8.11
26.259584188461304,-3.95,0.9,-4.31,5.91
26.268925189971924,-1.36,0.49,-3.04,3.36
26.31631898880005,1.57,0.91,-2.32,2.94
26.31658411026001,1.93,1.35,-0.95,2.53
26.316845178604126,-0.27,0.95,-0.36,1.05
26.317100048065186,-1.88,0.31,-1.01,2.15
26.318772315979004,-2.23,-0.06,-1.28,2.57
26.329261302947998,-2.21,-0.13,-0.83,2.36
26.338780164718628,-1.75,-0.16,-0.51,1.82
26.34880018234253,-1.01,-0.23,-0.6,1.19
26.359392166137695,-0.31,-0.25,-0.73,0.83
26.368849277496338,-0.05,-0.18,-0.77,0.79
26.41669011116028,-0.05,-0.08,-0.9,0.9
26.416950225830078,0.14,0.05,-0.97,0.98
26.41721200942993,0.25,0.12,-0.75,0.79
26.417452335357666,0.06,0.12,-0.28,0.31
26.41860818862915,-0.17,0.05,0.17,0.24
26.42913317680359,-0.24,0.02,0.39,0.45
26.438857078552246,-0.07,0.06,0.53,0.53
26.44856023788452,0.44,0.1,0.54,0.7
26.459254264831543,1.07,0.13,0.46,1.17
26.4685959815979,1.33,0.19,0.48,1.42
26.516732215881348,1.23,0.19,0.52,1.34
26.51698923110962,0.84,0.1,0.46,0.96
26.51724410057068,0.44,0.04,0.6,0.74
26.51750111579895,0.32,-0.01,0.87,0.92
26.51849603652954,0.42,0.0,1.11,1.18
26.52894926071167,0.7,-0.14,1.38,1.55
26.538758277893066,1.06,-0.24,1.47,1.82
26.548428058624268,1.54,-0.27,1.39,2.09
26.559162139892578,2.0,-0.18,1.57,2.54
26.56846809387207,2.4,-0.12,1.61,2.89
26.615864276885986,2.77,-0.03,1.57,3.18
26.61610698699951,2.9,-0.03,1.64,3.33
26.616364002227783,2.67,-0.02,1.54,3.08
26.616623163223267,2.33,-0.12,1.44,2.74
26.61828327178955,2.05,-0.09,1.14,2.34
26.628803253173828,1.8,0.15,0.96,2.04
26.63867712020874,1.77,0.41,1.26,2.21
26.648330211639404,2.2,0.67,1.52,2.75
26.659579277038574,2.69,1.04,1.68,3.33
26.66911220550537,2.45,1.43,1.51,3.21
26.715973138809204,1.95,1.96,1.3,3.05
26.716236114501953,1.74,2.91,1.39,3.66
26.716498136520386,1.45,3.52,2.21,4.4
26.716755151748657,0.95,3.62,3.11,4.86
26.718111038208008,1.36,5.01,3.08,6.03
26.728652000427246,2.39,7.23,2.99,8.18
26.738245010375977,3.96,8.09,3.93,9.82
26.748164176940918,3.72,8.15,4.92,10.22
26.758830070495605,3.19,8.62,6.18,11.07
26.768152236938477,3.74,9.8,7.52,12.9
26.81655716896057,5.63,10.53,7.76,14.24
26.816818237304688,6.91,10.36,7.1,14.33
26.817087173461914,6.4,8.71,6.45,12.58
26.81735110282898,5.67,6.71,4.64,9.93
26.81797218322754,5.29,5.24,0.51,7.46
26.828396320343018,4.02,5.53,-4.63,8.25
26.838077068328857,0.75,8.87,-7.1,11.38
26.847976207733154,-2.07,11.95,-3.7,12.67
26.85869812965393,-3.47,10.98,0.22,11.51
26.868102073669434,-2.22,6.34,0.22,6.72
26.917375087738037,1.28,1.8,0.42,2.24
26.917824268341064,-1.12,-0.66,0.79,1.52
26.9180850982666,-4.53,0.46,-4.86,6.65
26.918341159820557,-1.0,4.78,-3.19,5.83
26.918599128723145,3.32,4.71,1.95,6.08
26.928444147109985,6.8,1.95,4.97,8.64
26.937875270843506,7.64,0.15,5.28,9.28
26.94782519340515,5.85,-0.31,3.17,6.66
26.95849609375,3.9,-0.78,2.35,4.61
26.96780824661255,1.93,-1.45,2.82,3.71
27.017649173736572,0.36,-1.79,2.72,3.27
27.017908096313477,-0.9,-1.98,2.46,3.28
27.01816415786743,-1.83,-2.16,1.96,3.44
27.018420219421387,-1.73,-2.34,1.68,3.36
27.018676280975342,-0.96,-2.6,1.84,3.32
27.028257131576538,0.0,-2.58,1.54,3.0
27.03773307800293,0.72,-2.64,1.39,3.06
27.04767417907715,1.09,-3.02,1.31,3.46
27.058370113372803,1.43,-3.46,1.19,3.92
27.06766700744629,1.54,-4.07,1.26,4.53
27.117897987365723,1.29,-4.85,1.2,5.16
27.118162155151367,0.93,-5.69,1.14,5.87
27.118420124053955,0.57,-6.54,1.1,6.65
27.11867904663086,0.14,-7.31,1.16,7.4
27.118934154510498,0.13,-7.79,1.29,7.89
27.12802219390869,0.34,-8.01,1.34,8.12
27.137591123580933,0.59,-7.92,1.23,8.03
27.1475830078125,0.02,-7.51,0.66,7.53
27.158112049102783,-0.97,-6.94,-0.12,7.0
27.167460203170776,-2.4,-6.19,-1.48,6.8
27.217751026153564,-4.27,-4.89,-3.4,7.32
27.218011140823364,-5.82,-3.21,-6.07,9.0
27.218271255493164,-6.63,-1.43,-8.37,10.77
27.218536138534546,-7.17,0.14,-9.15,11.62
27.218793153762817,-7.92,0.81,-9.39,12.31
27.227917194366455,-8.99,1.06,-9.96,13.45
27.23744821548462,-10.27,0.96,-11.3,15.29
27.24740719795227,-9.91,-0.27,-11.33,15.05
27.25799012184143,-7.44,-1.18,-10.15,12.63
27.267354011535645,-5.57,-1.33,-9.63,11.2
27.317796230316162,-5.05,-2.35,-9.13,10.69
27.3180570602417,-5.88,-2.58,-9.08,11.12
27.318324089050293,-7.14,6.11,-5.9,11.09
27.318589210510254,0.01,4.18,-0.14,4.18
27.318847179412842,17.62,11.32,25.56,33.04
27.32783031463623,20.24,14.52,18.79,31.2
27.33724021911621,1.37,17.42,-15.89,23.61
27.347207069396973,-7.85,12.84,-11.63,19.01
27.35786008834839,-13.89,-6.12,-3.24,15.52
27.367221117019653,-11.2,-7.62,1.37,13.61
27.41826820373535,-9.69,-3.8,-3.93,11.12
27.418532133102417,-7.35,-2.18,-8.31,11.3
27.4187912940979,-3.97,0.35,-6.39,7.53
27.419058322906494,-1.95,1.29,-3.63,4.31
27.419321060180664,0.79,1.07,-3.02,3.29
27.427664279937744,3.58,1.13,-3.56,5.17
27.437108039855957,3.81,1.01,-2.66,4.75
27.44718027114868,0.97,0.67,-1.28,1.74
27.457624197006226,-1.55,0.29,-1.36,2.08
27.467190265655518,-1.92,0.06,-1.56,2.47
27.518561124801636,-1.63,-0.04,-0.82,1.82
27.518826007843018,-1.56,-0.18,0.08,1.57
27.519087314605713,-1.22,-0.34,0.3,1.3
27.5193452835083,-0.33,-0.36,0.05,0.49
27.519607067108154,0.25,-0.21,-0.29,0.43
27.527451992034912,0.32,-0.09,-0.41,0.52
27.53696918487549,0.2,-0.01,-0.42,0.46
27.546900272369385,0.18,0.09,-0.36,0.41
27.557406187057495,0.06,0.12,-0.11,0.17
27.566851139068604,-0.07,0.12,0.07,0.15
27.617773056030273,-0.13,0.11,0.29,0.33
27.618037223815918,-0.02,0.14,0.46,0.48
27.61830425262451,0.45,0.15,0.38,0.6
27.618560314178467,1.28,0.17,0.51,1.38
27.618820190429688,2.04,0.18,0.77,2.18
27.62730598449707,2.31,0.15,0.87,2.47
27.636824131011963,2.05,0.14,0.91,2.24
27.646818161010742,1.42,0.12,0.86,1.66
27.657366275787354,0.68,0.08,0.78,1.03
27.666784286499023,0.27,0.03,0.74,0.78
27.71837329864502,0.51,-0.06,0.69,0.86
27.718635082244873,0.75,-0.08,0.82,1.11
27.71889305114746,0.83,-0.11,1.19,1.45
27.719141006469727,1.25,-0.18,1.19,1.73
27.719396114349365,1.97,-0.12,1.18,2.29
27.727056980133057,2.28,-0.03,1.46,2.7
27.73665714263916,2.28,0.03,1.35,2.64
27.74661922454834,1.89,0.12,1.14,2.21
27.75727605819702,1.36,0.16,1.23,1.84
27.76663303375244,0.91,0.19,1.2,1.51
27.817673206329346,0.61,0.39,1.29,1.47
27.81793713569641,0.76,0.69,1.49,1.8
27.818194150924683,0.96,0.99,1.47,2.01
27.818449020385742,1.23,1.28,1.5,2.32
27.818706035614014,1.26,1.89,1.71,2.84
27.82689118385315,1.84,2.5,1.8,3.58
27.836388111114502,1.96,3.13,2.13,4.26
27.846446990966797,1.98,3.22,2.45,4.5
27.85736608505249,2.12,3.46,2.8,4.93
27.866450309753418,2.2,4.45,2.9,5.74
27.918606281280518,3.12,6.46,2.77,7.69
27.918865203857422,4.68,7.35,3.91,9.55
27.919121265411377,4.79,7.83,4.82,10.36
27.919376134872437,4.66,8.82,5.35,11.31
27.91963005065918,5.17,9.84,7.28,13.28
27.92677617073059,5.9,10.18,8.34,14.42
27.936286211013794,5.84,9.5,7.3,13.32
27.946343183517456,4.76,8.52,6.01,11.46
28.000723123550415,3.82,7.42,3.17,8.92
28.000983238220215,4.67,7.19,-1.79,8.75
28.001240253448486,5.53,9.46,-6.05,12.51
28.001498222351074,1.64,12.69,-4.94,13.71
28.00175428390503,-2.23,12.74,0.12,12.93
28.0064640045166,-1.84,9.84,0.46,10.02
28.016162157058716,0.89,5.27,-0.87,5.41
28.026623249053955,0.4,1.69,1.01,2.0
28.036229133605957,-3.99,-0.24,-1.14,4.15
28.04612398147583,-4.22,1.72,-4.56,6.44
28.103007316589355,0.83,4.4,-0.79,4.54
28.103267192840576,5.39,2.84,1.9,6.38
28.103524208068848,8.55,0.33,3.34,9.18
28.103780269622803,9.33,-1.35,4.41,10.4
28.104036331176758,7.98,-2.18,4.05,9.21
28.105942249298096,6.15,-2.46,3.65,7.56
28.11613416671753,4.4,-2.55,3.28,6.05
28.12652826309204,3.09,-2.48,3.01,4.97
28.136066198349,1.88,-2.58,3.02,4.39
28.146143198013306,0.9,-2.7,2.93,4.08
28.202284336090088,0.33,-2.57,2.63,3.69
28.202550172805786,0.32,-2.4,2.07,3.18
28.20279812812805,0.64,-2.4,1.57,2.93
28.203055143356323,1.05,-2.48,1.04,2.88
28.20331621170044,1.41,-2.69,0.83,3.14
28.206054210662842,1.59,-2.95,0.96,3.48
28.215878009796143,1.63,-3.24,0.8,3.71
28.226338148117065,1.27,-3.57,0.97,3.91
28.235840320587158,0.29,-3.7,0.94,3.82
28.24588108062744,-0.54,-4.08,0.46,4.14
28.302179098129272,-1.56,-4.17,-0.65,4.49
28.30245018005371,-2.67,-3.72,-2.32,5.13
28.302709102630615,-4.06,-3.46,-4.44,6.94
28.302966117858887,-5.73,-3.24,-4.65,8.05
28.303223133087158,-6.58,-3.7,-2.88,8.07
28.305710315704346,-6.68,-3.73,-2.91,8.18
28.315657138824463,-6.89,-2.59,-4.96,8.87
28.32624316215515,-6.76,-1.31,-6.09,9.19
28.33575201034546,-6.2,-0.58,-6.23,8.8
28.345697164535522,-6.78,-0.24,-6.52,9.4
28.401730060577393,-8.64,0.03,-7.39,11.36
28.402475118637085,-10.88,-0.11,-8.37,13.72
28.402741193771362,-12.09,-0.96,-8.89,15.03
28.403003215789795,-11.58,-2.06,-9.02,14.82
28.4032621383667,-10.39,-2.43,-8.05,13.36
28.405534267425537,-9.64,-2.29,-7.01,12.13
28.415505170822144,-8.76,-2.84,-6.18,11.09
28.426109313964844,-8.07,-3.77,-5.93,10.7
28.43553924560547,-7.54,-3.79,-5.89,10.29
28.445555210113525,-9.41,1.24,-6.52,11.51
28.456260204315186,-2.93,5.09,-1.91,6.17
28.5024311542511,17.81,4.59,11.07,21.46
28.502700328826904,37.24,15.34,29.89,50.15
28.50295925140381,11.97,23.39,-3.66,26.52
28.503217220306396,-6.04,19.24,-19.85,28.29
28.505388259887695,-8.69,-3.14,-16.36,18.78
28.515376091003418,-14.32,-8.28,4.23,17.07
28.525991201400757,-16.56,-8.01,7.9,20.02
28.535466194152832,-14.89,-5.33,-6.22,16.99
28.545440196990967,-11.57,-2.39,-7.55,14.02
28.556196212768555,-6.03,-0.21,-2.52,6.53
28.6016902923584,-1.36,0.63,0.01,1.49
28.60196018218994,2.54,1.1,-0.49,2.81
28.60221815109253,5.76,1.81,-2.16,6.41
28.6024751663208,5.55,1.74,-2.83,6.46
28.605220317840576,1.19,0.85,-2.58,2.96
28.615236282348633,-2.09,0.26,-2.7,3.42
28.625822067260742,-2.49,0.11,-2.16,3.29
28.635329246520996,-1.94,-0.13,-1.6,2.51
28.64527916908264,-1.75,-0.29,-0.78,1.93
28.656023025512695,-1.25,-0.23,-0.27,1.29
28.702314138412476,-0.1,0.14,-0.62,0.64
28.702574253082275,0.85,0.39,-0.91,1.3
28.702831268310547,0.79,0.29,-0.47,0.96
28.703091144561768,0.0,0.12,-0.05,0.13
28.70514726638794,-0.51,-0.04,0.08,0.51
28.71510124206543,-0.47,-0.13,0.16,0.51
28.725579261779785,-0.17,-0.09,0.08,0.2
28.735105991363525,0.12,0.03,-0.08,0.14
28.745046138763428,0.33,0.09,-0.07,0.34
28.755866050720215,0.3,0.18,0.09,0.36
28.80236005783081,0.36,0.32,0.28,0.55
28.80262017250061,0.78,0.4,0.75,1.15
28.802877187728882,1.44,0.34,1.29,1.96
28.80313205718994,2.05,0.19,1.62,2.61
28.80492401123047,2.1,-0.09,1.77,2.74
28.81492018699646,1.87,-0.31,2.06,2.79
28.825404167175293,1.75,-0.45,2.31,2.93
28.83493709564209,1.82,-0.5,2.02,2.76
28.844964027404785,1.84,-0.33,1.5,2.39
28.85567021369934,1.54,0.03,0.79,1.73
28.902401208877563,0.96,0.49,0.43,1.16
28.902663230895996,0.45,0.74,0.6,1.05
28.902920246124268,0.47,0.8,1.07,1.41
28.90317416191101,0.83,0.69,1.53,1.87
28.904714107513428,1.11,0.7,1.59,2.06
28.914780139923096,1.17,0.74,1.28,1.88
28.925166130065918,1.02,0.94,0.98,1.69
28.934860229492188,0.78,1.47,0.9,1.89
28.9447922706604,0.87,1.73,0.74,2.07
28.955578327178955,0.53,2.12,0.97,2.39
29.00239324569702,1.14,2.41,1.43,3.02
29.002652168273926,1.78,2.47,2.18,3.74
29.00290822982788,2.31,2.56,2.61,4.32
29.003162145614624,2.65,2.68,2.85,4.72
29.00458812713623,2.81,2.98,3.03,5.09
29.01460027694702,3.05,4.0,2.95,5.83
29.025050163269043,3.47,5.91,2.61,7.33
29.03476119041443,4.51,7.49,3.6,9.45
29.044669151306152,4.5,8.19,5.65,10.92
29.05535316467285,4.77,8.91,7.23,12.42
29.102941036224365,5.63,9.62,8.24,13.86
29.10320210456848,5.38,10.05,8.44,14.18
29.10346221923828,3.66,9.77,8.1,13.2
29.103716135025024,2.69,8.48,5.67,10.54
29.104530334472656,4.34,7.14,0.01,8.35
29.11450719833374,6.53,8.71,-4.83,11.9
29.12496519088745,5.32,12.74,-5.95,15.03
29.13459825515747,0.19,14.29,-1.1,14.33
29.144453048706055,-1.98,11.39,0.86,11.59
29.155144214630127,-0.59,6.29,0.39,6.32
29.20301914215088,1.94,3.13,1.43,3.95
29.203282117843628,-2.59,1.97,-0.96,3.39
29.203540325164795,-5.02,3.21,-5.83,8.33
29.203829288482666,-0.44,6.11,-1.85,6.39
29.204426288604736,4.49,4.77,2.75,7.1
29.214332103729248,8.27,1.59,4.78,9.68
29.22498607635498,8.49,-0.16,5.21,9.96
29.234395027160645,6.73,-0.68,4.22,7.97
29.244296073913574,5.2,-1.21,3.21,6.22
29.255061149597168,3.56,-1.71,2.92,4.91
29.303609132766724,2.15,-2.06,2.71,4.02
29.304054260253906,1.17,-2.22,2.69,3.67
29.304312229156494,0.36,-2.35,2.81,3.68
29.304562091827393,0.16,-2.55,2.66,3.68
29.30482006072998,0.62,-2.93,2.73,4.05
29.31415820121765,1.26,-3.34,2.75,4.5
29.32492733001709,1.67,-3.51,2.43,4.58
29.334290981292725,1.65,-3.68,2.05,4.52
29.344152212142944,1.31,-4.14,1.58,4.62
29.354884147644043,0.85,-4.66,1.07,4.85
29.4031662940979,0.52,-5.03,0.76,5.11
29.403449058532715,0.01,-5.47,0.53,5.49
29.403892040252686,-0.56,-6.1,0.38,6.13
29.404155254364014,-0.94,-6.65,0.45,6.73
29.404422283172607,-0.81,-6.95,0.68,7.03
29.41398525238037,-0.61,-7.14,0.78,7.2
29.424970149993896,-1.38,-6.85,0.72,7.02
29.434141159057617,-1.8,-6.13,-0.35,6.39
29.444069147109985,-3.39,-4.85,-1.79,6.18
29.454654216766357,-6.46,-2.87,-4.42,8.33
29.503783226013184,-8.34,-0.52,-7.58,11.28
29.504051208496094,-8.86,1.97,-8.67,12.55
29.50433111190796,-8.76,3.69,-8.41,12.69
29.504594326019287,-8.98,4.55,-8.92,13.45
29.504850149154663,-9.79,4.29,-10.43,14.93
29.513832092285156,-10.05,2.95,-10.86,15.08
29.52473020553589,-9.42,1.39,-9.92,13.75
29.533874034881592,-8.59,-0.31,-8.58,12.14
29.543843269348145,-7.87,-0.82,-7.9,11.18
29.55464220046997,-7.14,4.77,-6.77,10.93
29.602986335754395,-2.44,-2.3,-6.81,7.59
29.603429317474365,-5.12,-5.36,-8.61,11.36
29.603705167770386,1.05,6.72,2.94,7.4
29.60396909713745,11.92,12.62,25.44,30.79
29.604226112365723,7.65,8.6,3.67,12.08
29.61379313468933,0.35,7.1,-8.27,10.9
29.624573230743408,-4.59,3.66,-0.56,5.89
29.63375425338745,-8.65,0.09,-4.0,9.53
29.643681049346924,-6.44,-1.67,-3.47,7.5
29.654442310333252,-6.83,-0.96,-2.81,7.44
29.703270196914673,-7.26,-1.83,-6.7,10.04
29.703540325164795,-5.13,-0.6,-7.12,8.79
29.703797101974487,-3.51,0.23,-5.51,6.53
29.704053163528442,-2.75,0.27,-3.43,4.4
29.70430898666382,-1.64,0.4,-2.41,2.94
29.713590145111084,-0.39,0.73,-1.87,2.04
29.72439217567444,0.0,1.0,-1.13,1.5
29.733643054962158,-0.49,0.83,-1.11,1.47
29.743601322174072,-0.69,0.49,-1.27,1.52
29.754199028015137,-0.43,0.33,-0.98,1.11
29.803489208221436,-0.17,0.07,-0.71,0.73
29.803750038146973,-0.15,-0.02,-0.68,0.69
29.804006099700928,-0.34,-0.04,-0.62,0.7
29.804246187210083,-0.33,-0.04,-0.85,0.91
29.804501056671143,-0.24,-0.01,-0.83,0.86
29.813348293304443,-0.26,-0.03,-0.6,0.65
29.823869228363037,-0.34,-0.08,-0.36,0.5
29.83352017402649,-0.19,-0.09,0.01,0.21
29.843424320220947,0.03,-0.08,0.43,0.43
29.85408115386963,0.23,0.01,0.6,0.64
29.903441190719604,0.58,0.11,0.64,0.87
29.90368413925171,0.76,0.23,0.64,1.01
29.903940200805664,0.63,0.24,0.55,0.87
29.90419316291809,0.52,0.2,0.44,0.7
29.90444803237915,0.43,0.11,0.36,0.57
29.913230180740356,0.35,0.03,0.49,0.6
29.923761129379272,0.45,0.01,0.68,0.81
29.933329105377197,0.66,0.0,0.56,0.86
29.94326114654541,0.84,-0.08,0.98,1.29
29.953901290893555,1.17,-0.32,1.9,2.25
30.00324010848999,1.83,-0.48,2.35,3.01
30.003501176834106,2.78,-0.43,2.15,3.54
30.003758192062378,3.16,-0.28,1.43,3.47
30.004014015197754,2.69,0.11,1.12,2.91
30.004269123077393,1.77,0.41,0.83,1.99
30.01313829421997,1.1,0.32,0.95,1.48
30.023568153381348,1.14,0.2,1.44,1.84
30.03323221206665,1.64,0.23,1.8,2.44
30.043074131011963,1.91,0.6,1.8,2.69
30.053856134414673,1.6,0.9,1.54,2.39
30.102917194366455,1.08,1.22,1.25,2.05
30.103175163269043,0.77,1.56,0.99,2.0
30.103431224822998,0.69,2.08,1.21,2.5
30.10368514060974,0.68,2.75,1.47,3.19
30.103938102722168,1.16,2.93,1.68,3.57
30.112938165664673,1.38,2.98,2.24,3.97
