time,ax,ay,az,atotal
0.020931720733642578,0.22,-0.16,-0.59,0.64
0.022566795349121094,0.14,-0.69,-0.88,1.12
0.02395486831665039,-0.44,0.14,0.78,0.9
0.03311967849731445,0.06,0.77,0.51,0.92
0.03467679023742676,0.27,0.13,0.41,0.5
0.051448822021484375,0.12,0.0,0.09,0.15
0.05295276641845703,0.16,0.23,-0.34,0.44
0.06833171844482422,0.09,0.31,-0.31,0.44
0.0719609260559082,-0.06,-0.16,-0.2,0.26
0.08447265625,-0.05,-0.37,0.14,0.39
0.1124567985534668,0.03,-0.18,-0.03,0.18
0.11430788040161133,-0.03,0.03,-0.14,0.14
0.11576485633850098,-0.17,0.04,-0.02,0.17
0.13463783264160156,-0.19,0.01,0.14,0.23
0.136199951171875,0.03,-0.06,0.12,0.13
0.15135478973388672,0.09,-0.06,0.03,0.11
0.15274477005004883,0.04,0.1,-0.06,0.12
0.1685328483581543,-0.04,0.13,-0.13,0.18
0.1715388298034668,-0.09,0.1,-0.13,0.18
0.18539786338806152,-0.06,0.14,-0.11,0.18
0.21279287338256836,-0.09,0.2,-0.03,0.22
0.21474480628967285,-0.17,0.1,0.03,0.19
0.21621084213256836,-0.2,-0.01,0.08,0.21
0.23442697525024414,-0.11,-0.09,0.21,0.25
0.2360067367553711,0.05,-0.2,0.38,0.43
0.25108766555786133,0.14,-0.21,0.32,0.4
0.2525467872619629,0.04,-0.19,0.22,0.29
0.2608146667480469,0.01,-0.17,0.14,0.22
0.2706148624420166,0.04,-0.1,0.01,0.1
0.2805798053741455,0.17,-0.01,-0.01,0.17
0.31551384925842285,0.15,0.07,-0.05,0.17
0.31697583198547363,-0.02,0.12,-0.14,0.18
0.3184328079223633,-0.1,0.08,-0.08,0.15
0.33501672744750977,-0.08,0.02,-0.01,0.08
0.3364686965942383,0.02,-0.02,0.07,0.07
0.35091495513916016,0.1,-0.05,0.06,0.12
0.3523688316345215,0.13,-0.09,0.18,0.23
0.36660289764404297,0.16,-0.23,0.3,0.41
0.36963987350463867,0.15,-0.31,0.37,0.5
0.38347578048706055,0.26,-0.39,0.41,0.62
0.39249372482299805,0.35,-0.48,0.4,0.71
0.4248697757720947,0.45,-0.52,0.2,0.71
0.42635178565979004,0.52,-0.63,-0.05,0.81
0.4280698299407959,0.5,-1.21,-0.74,1.5
0.43126773834228516,0.3,-1.08,0.19,1.13
0.45150089263916016,-0.25,-0.8,0.64,1.05
0.4529578685760498,0.11,-0.88,0.22,0.91
0.46650171279907227,0.67,-0.45,0.93,1.23
0.4689168930053711,-0.11,1.06,0.36,1.12
0.48362064361572266,-0.54,0.92,0.02,1.06
0.4892578125,-0.47,1.01,0.07,1.11
0.5246129035949707,-0.77,1.7,-0.93,2.08
0.5263497829437256,-0.76,1.29,-0.37,1.54
0.5279808044433594,-0.23,0.37,0.22,0.48
0.5308799743652344,0.2,-0.48,0.53,0.74
0.5515527725219727,0.23,-0.71,0.85,1.13
0.553001880645752,0.02,-0.47,0.7,0.84
0.5667257308959961,-0.13,-0.11,0.27,0.31
0.5681958198547363,-0.17,0.09,-0.01,0.19
0.582467794418335,-0.12,0.12,-0.04,0.17
0.5880236625671387,-0.06,0.09,0.0,0.1
0.6254439353942871,-0.04,0.08,0.07,0.11
0.627112865447998,-0.07,0.02,0.06,0.09
0.6284627914428711,-0.12,-0.01,-0.03,0.12
0.6307568550109863,-0.17,-0.02,-0.16,0.23
0.6514019966125488,-0.17,0.04,-0.11,0.2
0.652714729309082,-0.18,0.11,0.05,0.21
0.6671867370605469,-0.19,0.11,0.26,0.34
0.6685657501220703,-0.12,0.02,0.22,0.25
0.6833529472351074,-0.06,-0.11,0.13,0.18
0.6871709823608398,-0.03,-0.12,0.03,0.12
0.7247576713562012,0.01,-0.04,0.01,0.04
0.7264368534088135,0.12,0.07,0.03,0.14
0.727996826171875,0.18,0.06,0.05,0.19
0.7305688858032227,0.16,0.05,0.22,0.27
0.7514476776123047,0.08,-0.03,0.34,0.35
0.7528786659240723,-0.04,-0.18,0.3,0.35
0.7668538093566895,-0.19,-0.24,0.33,0.45
0.7683238983154297,-0.23,-0.17,0.4,0.49
0.7826919555664062,-0.24,-0.12,0.42,0.49
0.7864727973937988,-0.17,-0.04,0.45,0.48
0.8274438381195068,-0.07,-0.04,0.35,0.35
0.8288898468017578,-0.04,-0.04,0.27,0.27
0.8302738666534424,-0.06,-0.03,0.13,0.14
0.831852912902832,-0.13,-0.03,-0.09,0.16
0.8364176750183105,-0.11,0.07,-0.21,0.24
0.8462698459625244,-0.08,0.19,-0.27,0.33
0.8562958240509033,-0.04,0.12,-0.43,0.44
0.8660027980804443,0.07,0.05,-0.46,0.46
0.8758139610290527,0.18,0.08,-0.33,0.38
0.8859529495239258,0.15,0.05,-0.23,0.27
0.9175629615783691,-0.02,-0.01,-0.1,0.1
0.9190847873687744,-0.1,-0.01,0.03,0.1
0.9202919006347656,-0.13,0.01,0.09,0.15
0.9353456497192383,-0.14,0.01,0.15,0.2
0.9367146492004395,-0.1,0.0,0.2,0.22
0.9510927200317383,-0.06,-0.03,0.22,0.23
0.9554808139801025,0.04,-0.07,0.23,0.24
0.9668238162994385,0.13,-0.13,0.08,0.2
0.9753258228302002,0.15,-0.1,0.04,0.18
0.9880146980285645,0.07,0.04,0.02,0.08
1.021000862121582,-0.05,0.09,0.0,0.1
1.022838830947876,-0.1,0.14,0.1,0.19
1.024169921875,-0.13,0.12,0.1,0.2
1.0360558032989502,-0.15,0.03,-0.03,0.15
1.037477970123291,-0.14,-0.02,-0.06,0.15
1.051299810409546,-0.14,0.05,0.03,0.15
1.0544209480285645,-0.15,0.04,-0.01,0.15
1.065093994140625,-0.15,0.01,-0.08,0.17
1.0744447708129883,-0.08,0.03,-0.07,0.11
1.0847487449645996,-0.05,0.0,-0.15,0.15
1.1191387176513672,-0.05,0.02,-0.08,0.09
1.1209497451782227,-0.04,0.08,0.05,0.1
1.1223318576812744,-0.04,0.1,0.03,0.11
1.1352238655090332,-0.11,0.07,0.03,0.13
1.1365528106689453,-0.26,0.07,0.1,0.28
1.1440329551696777,-0.49,0.03,0.21,0.53
1.1540069580078125,-0.43,0.04,0.16,0.46
1.1639478206634521,-0.1,0.06,-0.06,0.13
1.1736388206481934,0.13,0.09,-0.02,0.15
1.1836299896240234,0.06,0.18,0.11,0.21
1.1939077377319336,-0.23,0.0,0.14,0.26
1.2213249206542969,-0.28,-0.12,-0.23,0.38
1.222975730895996,-0.05,0.01,-0.41,0.41
1.224275827407837,0.04,0.13,-0.23,0.26
1.2361907958984375,0.04,0.2,-0.33,0.38
1.2433898448944092,-0.04,0.14,-0.38,0.4
1.2530007362365723,-0.23,0.06,-0.18,0.29
1.263068675994873,-0.19,0.06,-0.17,0.26
1.272758960723877,0.04,-0.04,-0.16,0.16
1.282918930053711,0.15,0.05,0.22,0.27
1.2962408065795898,0.09,0.25,0.68,0.73
1.320936679840088,0.02,0.26,0.65,0.7
1.3225648403167725,0.02,-0.02,0.34,0.34
1.3241658210754395,0.03,-0.13,0.14,0.19
1.3363089561462402,-0.07,-0.09,0.15,0.18
1.342667818069458,-0.17,0.03,0.22,0.27
1.3522276878356934,-0.03,0.11,0.03,0.11
1.3623747825622559,0.16,0.05,-0.19,0.25
1.371938705444336,0.21,-0.03,-0.32,0.38
1.3822617530822754,0.3,-0.08,-0.39,0.49
1.3949668407440186,0.44,-0.07,-0.34,0.56
1.418367862701416,0.49,-0.07,-0.23,0.54
1.4198179244995117,0.42,-0.07,-0.13,0.44
1.4218297004699707,0.34,-0.05,-0.1,0.35
1.4363808631896973,0.28,-0.02,-0.09,0.29
1.4417908191680908,0.26,0.02,-0.02,0.26
1.4514198303222656,0.38,0.02,0.05,0.38
1.4615817070007324,0.51,-0.03,0.05,0.51
1.4713828563690186,0.45,-0.07,-0.09,0.46
1.4822516441345215,0.31,-0.01,-0.21,0.37
1.494163990020752,0.2,0.05,-0.25,0.32
1.516197681427002,0.11,0.05,-0.22,0.25
1.5176098346710205,0.11,0.03,-0.13,0.17
1.5212438106536865,0.23,-0.04,-0.07,0.24
1.536186695098877,0.35,-0.08,-0.03,0.36
1.5409049987792969,0.32,-0.06,-0.02,0.32
1.550583839416504,0.09,-0.05,-0.02,0.1
1.5608978271484375,-0.2,0.08,0.08,0.22
1.5704669952392578,-0.27,0.26,0.17,0.41
1.581305980682373,-0.12,0.32,0.14,0.36
1.5927319526672363,0.08,0.21,-0.04,0.22
1.6226859092712402,0.19,0.04,-0.22,0.29
1.6243009567260742,0.16,0.0,-0.25,0.29
1.6258606910705566,0.06,0.14,-0.21,0.25
1.636030673980713,-0.12,0.28,-0.21,0.37
1.640082836151123,-0.34,0.28,-0.25,0.5
1.6509268283843994,-0.38,0.24,-0.21,0.49
1.6601808071136475,-0.31,0.13,-0.17,0.37
1.669754981994629,-0.26,0.02,-0.19,0.32
1.679912805557251,-0.25,0.03,-0.07,0.26
1.6921987533569336,-0.17,0.12,-0.02,0.2
1.7218289375305176,-0.17,0.07,-0.07,0.19
1.7235958576202393,-0.06,0.09,-0.08,0.13
1.7250127792358398,0.19,0.04,-0.04,0.19
1.7292346954345703,0.34,-0.01,-0.14,0.36
1.7395739555358887,0.22,0.06,-0.22,0.31
1.7494518756866455,-0.08,0.16,-0.14,0.22
1.7592628002166748,-0.4,0.17,-0.1,0.44
1.7692279815673828,-0.54,0.09,-0.05,0.54
1.7790889739990234,-0.55,-0.03,-0.08,0.55
1.7889738082885742,-0.37,-0.05,-0.07,0.37
1.8244919776916504,-0.12,0.0,-0.12,0.16
1.8262786865234375,0.01,0.1,-0.27,0.28
1.8273258209228516,-0.12,0.17,-0.41,0.45
1.8319528102874756,-0.34,0.27,-0.48,0.64
1.8385539054870605,-0.47,0.27,-0.59,0.8
1.8517169952392578,-0.56,0.27,-0.61,0.87
1.8586328029632568,-0.66,0.29,-0.61,0.94
1.8684167861938477,-0.8,0.34,-0.6,1.05
1.8784189224243164,-0.93,0.44,-0.59,1.18
1.888481855392456,-1.02,0.5,-0.6,1.28
1.9226737022399902,-1.08,0.52,-0.59,1.33
1.9243907928466797,-1.13,0.53,-0.58,1.37
1.9258928298950195,-1.16,0.58,-0.6,1.42
1.9347796440124512,-1.19,0.64,-0.84,1.59
1.9378588199615479,-1.36,0.77,-0.95,1.82
1.9507617950439453,-1.61,1.21,-1.02,2.25
1.9576208591461182,-1.75,1.6,-1.29,2.69
1.9675967693328857,-1.66,1.89,-1.69,3.03
1.9776668548583984,-1.06,2.32,-2.85,3.82
1.987292766571045,-0.46,2.59,-4.41,5.13
2.0002498626708984,0.38,2.65,-5.66,6.26
2.0234458446502686,1.69,3.14,-6.22,7.16
2.0250039100646973,1.69,3.62,-6.08,7.27
2.0269598960876465,0.51,4.16,-5.35,6.79
2.0370748043060303,-0.39,4.89,-4.02,6.34
2.047207832336426,-0.8,4.21,-3.3,5.4
2.056936740875244,-1.57,1.94,-3.49,4.29
2.0670177936553955,-2.44,1.04,-3.17,4.13
2.076941967010498,-2.19,2.6,-1.38,3.66
2.0868659019470215,-2.3,1.75,-2.09,3.56
2.096799850463867,-3.45,0.39,-3.62,5.01
2.1249589920043945,-4.73,0.35,-3.6,5.95
2.126659870147705,-5.57,0.92,-2.28,6.08
2.1284258365631104,-5.75,0.65,-1.14,5.89
2.136091709136963,-5.42,-0.27,-0.26,5.43
2.146315813064575,-5.17,-1.29,0.44,5.34
2.1564478874206543,-5.31,-1.98,0.76,5.71
2.166306972503662,-5.52,-2.25,0.85,6.02
2.1762828826904297,-5.71,-2.17,0.78,6.15
2.186060905456543,-5.77,-2.05,0.63,6.15
2.1962976455688477,-5.65,-2.06,0.49,6.03
2.224327802658081,-5.35,-2.32,0.35,5.84
2.225937843322754,-4.94,-2.67,0.28,5.62
2.227688789367676,-4.5,-2.98,0.24,5.4
2.235567808151245,-4.13,-2.99,0.22,5.1
2.2455878257751465,-3.67,-2.79,0.12,4.61
2.255701780319214,-3.17,-2.72,-0.15,4.17
2.2655539512634277,-2.91,-2.93,-0.35,4.14
2.2754368782043457,-2.9,-3.04,-0.44,4.22
2.285228729248047,-2.76,-2.92,-0.5,4.04
2.295686721801758,-2.27,-2.9,-0.62,3.73
2.3259329795837402,-1.78,-3.08,-0.7,3.62
2.327533721923828,-1.37,-3.2,-0.58,3.52
2.328789710998535,-0.78,-3.06,-0.2,3.16
2.334798812866211,0.02,-2.79,0.14,2.79
2.3506808280944824,0.62,-2.7,0.21,2.77
2.354576826095581,0.72,-2.55,0.46,2.68
2.3678297996520996,0.45,-2.22,0.79,2.39
2.374647855758667,0.53,-1.74,1.3,2.23
2.384352684020996,1.08,-1.42,1.75,2.49
2.3949928283691406,1.64,-1.27,2.11,2.95
2.4311347007751465,2.07,-1.06,2.34,3.29
2.432715892791748,2.37,-0.62,2.35,3.39
2.4341349601745605,3.19,0.31,2.7,4.19
2.4526896476745605,4.43,1.04,2.8,5.34
2.454169750213623,5.78,1.48,3.12,6.73
2.468573808670044,6.87,1.64,3.28,7.78
2.4700746536254883,7.18,1.53,3.33,8.06
2.4842448234558105,6.86,1.33,3.53,7.82
2.485715866088867,6.64,0.86,4.0,7.79
2.501018762588501,6.82,0.19,4.47,8.15
2.5276198387145996,6.95,-0.63,4.84,8.49
2.5290699005126953,6.55,-1.67,5.0,8.4
2.5301008224487305,5.63,-2.99,5.17,8.2
2.5329999923706055,4.75,-4.64,5.51,8.62
2.543259859085083,4.18,-6.36,6.08,9.74
2.5534048080444336,3.11,-8.21,6.65,11.01
2.5631866455078125,1.68,-9.24,6.43,11.38
2.573265790939331,-2.26,-5.68,-2.91,6.77
2.583157777786255,-10.36,2.95,-25.92,28.06
2.593005657196045,-9.83,36.66,-15.62,41.04
2.6239218711853027,-1.8,66.04,19.46,68.87
2.6258058547973633,-10.42,18.88,-12.7,25.02
2.627380847930908,-3.96,-8.08,-7.6,11.77
2.633842945098877,3.23,-17.01,5.93,18.3
2.6427688598632812,7.8,-19.61,11.11,23.85
2.65244197845459,10.32,-19.26,10.1,24.07
2.6624526977539062,5.15,-11.11,3.66,12.78
2.67256498336792,1.12,-2.42,1.27,2.95
2.682776927947998,-0.38,2.85,-2.1,3.56
2.695265769958496,-0.71,6.78,-5.68,8.87
2.721876859664917,-0.04,8.09,-5.32,9.68
2.723533868789673,0.28,4.86,-2.41,5.43
2.725261688232422,0.47,-0.19,0.86,0.99
2.7320709228515625,0.82,-2.32,3.5,4.27
2.7418668270111084,1.09,-3.04,2.6,4.14
2.7519588470458984,1.1,-1.86,0.16,2.16
2.7617459297180176,0.65,0.46,-1.26,1.49
2.7716498374938965,0.12,1.45,-1.82,2.33
2.7817418575286865,-0.09,0.85,-1.05,1.35
2.792268753051758,-0.15,-0.08,0.36,0.39
2.803745746612549,0.08,-0.46,1.05,1.14
2.8281447887420654,0.3,-0.45,0.93,1.07
2.8297598361968994,0.25,-0.21,0.41,0.52
2.8311808109283447,0.04,0.05,0.06,0.08
2.8412766456604004,-0.16,0.21,0.19,0.32
2.851162910461426,-0.23,0.12,0.47,0.53
2.860928773880005,-0.1,-0.09,0.36,0.38
2.8709487915039062,0.08,-0.12,-0.16,0.21
2.8808908462524414,0.1,0.06,-0.45,0.46
2.8907628059387207,-0.09,0.24,-0.49,0.55
2.901035785675049,-0.31,0.29,-0.27,0.5
2.9291586875915527,-0.38,0.23,0.17,0.47
2.930698871612549,-0.38,0.14,0.53,0.66
2.9321188926696777,-0.44,0.15,0.55,0.72
2.9404077529907227,-0.54,0.19,0.23,0.61
2.9505996704101562,-0.57,0.27,-0.22,0.66
2.960242748260498,-0.58,0.4,-0.55,0.89
2.9701967239379883,-0.6,0.47,-0.87,1.15
2.9801278114318848,-0.58,0.5,-1.26,1.47
2.989957809448242,-0.6,0.62,-1.2,1.47
3.0026488304138184,-0.84,0.67,-0.98,1.45
3.027920722961426,-1.4,0.75,-0.81,1.78
3.029348850250244,-1.98,0.91,-0.85,2.33
3.0305819511413574,-2.21,1.18,-0.8,2.62
3.039827823638916,-1.89,1.21,-0.97,2.44
3.0497117042541504,-1.47,1.01,-1.1,2.09
3.0593819618225098,-1.15,0.81,-0.79,1.61
3.0693726539611816,-0.93,0.67,-0.54,1.26
3.0792088508605957,-0.68,0.69,-0.52,1.09
3.089160919189453,-0.54,0.82,-0.66,1.18
3.1022748947143555,-0.57,1.01,-0.72,1.36
3.125593662261963,-0.78,1.15,-0.72,1.56
3.1269428730010986,-1.24,1.44,-0.83,2.07
3.128349781036377,-1.36,2.0,-0.29,2.43
3.1387648582458496,-1.4,2.21,-1.02,2.8
3.1489648818969727,-1.69,2.73,-1.1,3.39
3.1587986946105957,-2.28,3.37,-1.05,4.2
3.1685638427734375,-2.86,3.75,-0.91,4.8
3.1784749031066895,-3.18,4.06,-1.09,5.27
3.188518762588501,-3.45,4.5,-1.35,5.82
3.19901180267334,-4.35,5.71,-1.01,7.24
3.2324676513671875,-5.75,7.55,-1.52,9.61
3.2340779304504395,-7.06,9.1,-3.39,12.0
3.2357637882232666,-8.05,10.59,-4.96,14.19
3.2383947372436523,-9.33,11.85,-5.83,16.16
3.24895977973938,-10.83,12.68,-7.25,18.18
3.2586748600006104,-11.35,12.62,-9.23,19.32
3.2678158283233643,-10.63,11.41,-10.26,18.66
3.27761173248291,-9.36,10.02,-10.07,17.01
3.2879528999328613,-7.64,9.97,-6.94,14.35
3.2982449531555176,-3.84,11.89,-2.94,12.83
3.3352956771850586,0.96,12.29,-1.32,12.39
3.3371667861938477,3.39,8.51,-2.73,9.55
3.338643789291382,1.46,2.52,-5.94,6.61
3.3526458740234375,-2.54,-1.84,-7.02,7.68
3.354142665863037,-0.84,1.98,-0.66,2.24
3.3691108226776123,2.12,1.05,3.31,4.06
3.3706188201904297,-0.69,-3.67,-2.42,4.44
3.386047840118408,-4.11,-4.64,-3.35,7.04
3.3875348567962646,-6.33,-3.92,-2.0,7.7
3.406824827194214,-8.01,-3.36,-1.26,8.77
3.4323368072509766,-8.83,-3.65,-0.53,9.56
3.43422269821167,-8.07,-4.5,0.23,9.24
3.4354088306427,-6.35,-5.94,1.28,8.78
3.4532737731933594,-5.14,-7.41,1.68,9.17
3.454838752746582,-4.97,-7.87,1.35,9.4
3.471115827560425,-5.18,-7.31,0.64,8.98
3.4726147651672363,-5.07,-6.45,-0.43,8.21
3.476125717163086,-4.86,-5.91,-1.04,7.72
3.4863438606262207,-4.65,-5.97,-1.44,7.7
3.496234893798828,-4.11,-6.47,-2.11,7.95
3.528815746307373,-3.66,-7.06,-2.51,8.33
3.5304417610168457,-3.56,-7.55,-2.43,8.69
3.5318527221679688,-4.14,-6.86,-2.27,8.32
3.535512924194336,-4.1,-7.29,-1.97,8.59
3.545872688293457,-3.8,-7.84,-1.47,8.83
3.555741786956787,-3.86,-8.21,-0.75,9.1
3.565699815750122,-4.21,-8.56,-0.03,9.53
3.575533866882324,-4.5,-8.52,0.83,9.67
3.585477828979492,-4.63,-8.06,1.45,9.4
3.5951929092407227,-4.35,-7.2,2.04,8.65
3.605963706970215,-3.18,-5.95,2.25,7.11
3.6348538398742676,-0.89,-4.75,1.48,5.05
3.636603832244873,1.75,-3.57,1.31,4.18
3.637617826461792,4.31,-2.09,1.93,5.16
3.653395652770996,6.73,-0.3,3.05,7.39
3.654822826385498,8.9,1.34,3.93,9.82
3.6689438819885254,10.15,2.79,4.25,11.35
3.674820899963379,10.68,4.56,4.71,12.53
3.6846067905426025,11.71,6.38,5.28,14.34
3.6947269439697266,12.91,7.85,5.6,16.11
3.705000877380371,14.64,9.2,6.12,18.34
3.733045816421509,16.16,9.86,6.26,19.93
3.7348477840423584,16.98,8.98,6.03,20.13
3.7363028526306152,17.18,7.4,6.24,19.71
3.7441048622131348,15.35,5.82,5.82,17.41
3.754276752471924,9.5,6.25,0.94,11.41
3.764582872390747,-1.8,-1.95,-12.38,12.66
3.7741637229919434,-16.35,2.87,-31.25,35.38
3.784296989440918,-21.46,49.77,-6.99,54.64
3.794510841369629,-15.12,49.01,15.34,53.53
3.803593873977661,-6.24,3.58,-2.96,7.77
3.830028772354126,1.83,-10.42,3.25,11.06
3.8320767879486084,7.17,-12.8,9.68,17.57
3.8335988521575928,10.82,-11.35,8.41,17.79
3.853543758392334,11.31,-10.3,2.54,15.5
3.85501766204834,9.77,-6.11,1.19,11.58
3.869509696960449,5.77,-0.91,1.58,6.05
3.8732478618621826,1.95,2.47,-0.38,3.16
3.8851428031921387,-0.19,3.96,-3.17,5.07
3.893197774887085,-0.51,4.41,-2.92,5.31
3.9053239822387695,0.38,2.57,-0.65,2.67
3.930616855621338,1.12,-0.39,1.16,1.65
3.932405948638916,1.06,-2.01,2.3,3.23
3.9335169792175293,0.37,-2.17,2.18,3.09
3.953746795654297,-0.22,-1.04,1.48,1.82
3.955237865447998,-0.17,0.27,0.39,0.5
3.969313859939575,0.2,0.74,-0.65,1.0
3.9724206924438477,0.33,0.52,-0.94,1.12
3.982898712158203,0.23,0.27,-0.56,0.66
3.992677688598633,0.0,0.16,-0.1,0.18
4.002205848693848,-0.08,0.25,0.02,0.26
4.039162874221802,-0.15,0.3,-0.2,0.39
4.041027784347534,-0.18,0.41,-0.15,0.47
4.042035818099976,-0.17,0.35,-0.2,0.43
4.053428649902344,-0.21,0.17,-0.3,0.4
4.054898738861084,-0.39,0.05,-0.26,0.47
4.069339752197266,-0.6,0.02,-0.31,0.67
4.0716166496276855,-0.63,0.16,-0.43,0.77
4.084911823272705,-0.4,0.35,-0.56,0.77
4.091772794723511,-0.14,0.48,-0.65,0.82
4.101463794708252,-0.07,0.52,-0.63,0.81
4.135196685791016,-0.31,0.42,-0.57,0.77
4.136730670928955,-0.73,0.35,-0.38,0.89
4.137743949890137,-0.92,0.37,-0.2,1.01
4.153491973876953,-1.04,0.33,-0.19,1.1
4.154962778091431,-1.32,0.25,-0.6,1.47
4.169533729553223,-1.54,0.33,-0.9,1.81
4.1710288524627686,-1.53,0.48,-0.89,1.83
4.1850128173828125,-1.23,0.48,-1.22,1.79
4.190640926361084,-1.0,0.41,-1.5,1.84
4.201111793518066,-1.07,0.55,-1.46,1.89
4.236437797546387,-1.21,0.75,-1.13,1.81
4.237717866897583,-1.19,0.78,-0.74,1.6
4.2387237548828125,-1.07,0.69,-0.75,1.47
4.240135669708252,-1.0,0.53,-0.84,1.4
4.250258922576904,-0.98,0.5,-0.7,1.3
4.260440826416016,-1.14,0.63,-0.5,1.39
4.270453929901123,-1.41,0.86,-0.56,1.74
4.280114650726318,-1.79,1.12,-0.98,2.32
4.290175914764404,-2.08,1.59,-1.24,2.89
4.300240993499756,-2.04,2.31,-1.56,3.45
4.335590839385986,-1.88,3.09,-1.81,4.04
4.337232828140259,-1.76,3.62,-1.76,4.39
4.338664770126343,-2.54,4.48,-1.97,5.51
4.353506803512573,-3.43,5.18,-2.05,6.54
4.355020999908447,-4.93,5.88,-1.9,7.9
4.369427680969238,-6.25,7.55,-1.7,9.94
4.370917797088623,-7.05,9.79,-2.47,12.31
4.384981870651245,-7.89,11.72,-4.25,14.75
4.389941692352295,-9.59,12.83,-6.91,17.44
4.399740695953369,-11.07,13.98,-7.51,19.34
4.409054756164551,-11.72,14.3,-8.12,20.19
4.444134712219238,-11.64,12.23,-10.51,19.88
4.445367813110352,-10.7,9.83,-11.03,18.24
4.446591854095459,-9.26,10.24,-8.63,16.28
4.449123859405518,-5.87,12.91,-4.36,14.83
4.46986198425293,-0.07,13.32,-2.8,13.61
4.471325874328613,3.84,8.96,-2.72,10.12
4.482484817504883,2.55,1.72,-3.75,4.85
4.488574981689453,-0.99,-3.63,-5.92,7.01
4.501511812210083,-0.49,-2.16,-2.56,3.38
4.508501768112183,3.33,0.82,6.48,7.33
4.547416687011719,0.77,-4.09,0.97,4.27
4.549085855484009,-4.14,-6.17,-3.63,8.26
4.550232887268066,-6.78,-5.21,-2.41,8.88
4.570588827133179,-7.95,-3.59,-1.13,8.79
4.572083950042725,-8.2,-2.93,-0.31,8.71
4.5864176750183105,-7.42,-3.58,0.01,8.23
4.587929725646973,-5.91,-4.57,0.52,7.48
4.601715803146362,-4.77,-5.67,1.17,7.5
4.603185653686523,-4.71,-6.38,1.53,8.07
4.618210792541504,-5.07,-7.15,1.29,8.85
4.644821643829346,-4.76,-7.59,0.54,8.97
4.646076679229736,-4.33,-7.37,-0.06,8.54
4.647098779678345,-3.99,-7.44,-1.17,8.52
4.649521827697754,-3.84,-7.38,-2.11,8.58
4.657625675201416,-3.68,-7.38,-2.73,8.68
4.667419910430908,-3.5,-7.48,-2.91,8.75
4.677335739135742,-3.42,-7.68,-2.62,8.8
4.687173843383789,-3.47,-8.06,-2.29,9.06
4.6970438957214355,-3.49,-8.5,-1.97,9.39
4.706915855407715,-3.46,-8.96,-1.86,9.78
4.734644889831543,-3.42,-9.4,-1.65,10.13
4.736485958099365,-3.42,-9.51,-1.19,10.17
4.737475872039795,-3.44,-9.21,-0.66,9.85
4.75554895401001,-3.49,-8.66,-0.07,9.33
4.756977796554565,-3.26,-7.71,-0.01,8.37
4.769759654998779,-2.09,-6.46,-0.51,6.8
4.776386737823486,0.12,-5.35,-0.16,5.35
4.786244869232178,2.63,-4.01,1.09,4.91
4.796338796615601,4.65,-2.62,2.38,5.84
4.808612823486328,5.58,-1.07,3.28,6.56
4.841408729553223,5.89,0.92,3.7,7.01
4.842801809310913,6.61,3.17,3.94,8.32
4.843776702880859,8.19,5.57,3.94,10.65
4.8537516593933105,10.11,7.85,3.71,13.32
4.855756759643555,12.14,9.15,3.2,15.53
4.869887828826904,14.04,10.25,3.12,17.66
4.876346826553345,15.47,11.0,3.18,19.24
4.885512828826904,17.06,10.93,4.03,20.65
4.896342754364014,18.6,10.07,4.39,21.6
4.905264854431152,18.63,8.91,4.72,21.18
4.941149711608887,12.2,9.24,2.76,15.55
4.942495822906494,0.49,1.39,-5.73,5.91
4.943532943725586,-12.94,1.0,-18.4,22.51
4.950860977172852,-25.27,43.24,-12.65,51.65
4.955111980438232,-20.75,46.7,9.09,51.9
4.966695785522461,-7.26,7.47,3.74,11.06
4.975024700164795,1.88,-8.24,2.41,8.78
4.985353946685791,5.59,-13.61,7.96,16.72
4.994878768920898,8.36,-12.6,6.6,16.49
5.004481792449951,10.26,-7.86,3.35,13.35
5.040838718414307,8.98,-5.28,0.73,10.44
5.042324781417847,5.61,-1.51,-0.41,5.82
5.043317794799805,2.39,4.21,-0.91,4.92
5.04961085319519,0.28,6.3,-4.77,7.9
5.054128646850586,0.69,1.31,-4.04,4.3
5.066088676452637,1.85,-0.38,0.32,1.91
5.074362754821777,1.37,0.13,3.77,4.01
5.0836358070373535,-0.31,-0.37,3.86,3.89
5.0936808586120605,-0.97,-0.84,1.31,1.83
5.103366851806641,0.12,-0.44,0.05,0.45
5.142992973327637,1.2,-0.13,-0.42,1.27
5.144335746765137,1.12,-0.2,-0.35,1.19
5.14539098739624,0.3,-0.1,0.38,0.49
5.149950981140137,-0.22,0.12,0.34,0.42
5.167317867279053,0.18,0.25,-0.49,0.57
5.168814659118652,0.97,0.19,-1.22,1.57
5.185332775115967,1.26,0.0,-1.29,1.8
5.186821937561035,0.71,-0.21,-0.67,0.99
5.201360702514648,-0.2,-0.21,0.4,0.49
5.203242778778076,-0.76,-0.05,1.32,1.52
5.218606948852539,-0.74,0.04,1.25,1.45
5.244821786880493,-0.29,0.06,0.29,0.41
5.246557712554932,0.2,0.11,-0.4,0.46
5.247617721557617,0.19,0.24,-0.45,0.54
5.252851963043213,-0.21,0.26,-0.53,0.62
5.262780666351318,-0.48,0.36,-0.75,0.96
5.2729668617248535,-0.46,0.52,-0.5,0.85
5.282740831375122,-0.58,0.6,-0.01,0.83
5.292619705200195,-0.9,0.59,0.25,1.1
5.3024797439575195,-1.06,0.51,0.26,1.2
5.312617778778076,-0.99,0.39,-0.19,1.08
5.343443870544434,-0.86,0.33,-0.58,1.08
5.3445658683776855,-0.89,0.37,-0.78,1.23
5.345839977264404,-0.84,0.45,-0.99,1.37
5.351718902587891,-0.47,0.46,-1.0,1.19
5.3621368408203125,-0.11,0.39,-0.83,0.92
5.371981859207153,-0.11,0.4,-0.64,0.76
5.38205099105835,-0.37,0.48,-0.78,0.98
5.391693830490112,-0.68,0.63,-1.0,1.36
5.401732921600342,-0.99,0.88,-0.97,1.64
5.411930799484253,-1.25,1.1,-1.0,1.94
5.442869663238525,-1.51,1.2,-1.3,2.32
5.444049835205078,-1.8,1.5,-0.96,2.53
5.4453208446502686,-2.09,1.76,-0.92,2.88
5.4510087966918945,-2.3,2.3,-0.64,3.31
5.461110830307007,-2.67,2.85,-0.67,3.96
5.471115827560425,-3.06,3.27,-0.92,4.57
5.481193780899048,-3.31,3.74,-1.22,5.14
5.491189956665039,-3.53,4.12,-2.0,5.78
5.500934839248657,-3.69,4.44,-2.45,6.27
5.510995864868164,-3.97,5.05,-2.47,6.88
5.540451765060425,-4.76,6.42,-2.36,8.33
5.541794776916504,-6.1,8.6,-2.66,10.87
5.5428078174591064,-7.59,10.9,-3.97,13.86
5.553947925567627,-9.07,12.62,-6.0,16.65
5.561211824417114,-10.87,13.51,-7.92,19.06
5.570418834686279,-11.73,13.45,-9.25,20.1
5.580213785171509,-11.31,12.03,-10.11,19.36
5.590475797653198,-10.7,10.23,-10.92,18.39
5.600327968597412,-9.11,12.31,-7.35,16.98
5.610192775726318,-4.9,15.68,-2.85,16.67
5.646047830581665,1.11,15.36,-2.82,15.65
5.647564888000488,4.24,9.6,-4.34,11.35
5.648544788360596,1.56,1.11,-8.03,8.25
5.650810718536377,-2.83,-2.92,-7.94,8.92
5.6592137813568115,0.2,2.39,1.04,2.61
5.66982889175415,1.89,0.69,4.22,4.67
5.679484844207764,-2.19,-4.47,-2.58,5.6
5.689596652984619,-4.68,-5.39,-3.24,7.83
5.699648857116699,-6.05,-4.13,-1.93,7.57
5.709450721740723,-7.28,-3.17,-1.58,8.09
5.745211839675903,-7.79,-3.43,-0.9,8.55
5.746731758117676,-7.27,-4.44,-0.4,8.52
5.747712850570679,-6.55,-5.87,0.24,8.79
5.750162839889526,-6.39,-7.28,0.86,9.72
5.758623838424683,-6.63,-8.08,1.22,10.52
5.769437789916992,-6.83,-8.41,1.14,10.89
5.778982877731323,-6.42,-8.36,0.71,10.56
5.788845777511597,-5.94,-7.74,0.53,9.77
5.798867702484131,-5.68,-7.64,-0.56,9.53
5.808743000030518,-5.7,-7.34,-1.13,9.36
5.844991683959961,-5.63,-7.3,-2.06,9.44
5.846923828125,-5.44,-7.09,-2.27,9.22
5.84831976890564,-4.99,-7.12,-2.09,8.94
5.849950790405273,-4.38,-7.02,-1.83,8.47
5.858092784881592,-3.87,-7.34,-1.67,8.46
5.868173837661743,-3.56,-7.74,-1.58,8.66
5.878169775009155,-3.36,-8.16,-1.44,8.94
5.888060808181763,-3.24,-8.33,-1.06,9.0
5.897946834564209,-3.24,-8.14,-0.45,8.77
5.90792179107666,-3.37,-7.63,0.37,8.34
5.943703651428223,-3.12,-6.69,0.82,7.42
5.94509482383728,-1.7,-5.51,0.39,5.77
5.946126937866211,0.63,-4.49,0.25,4.54
5.950049877166748,2.87,-3.09,1.57,4.49
5.957388877868652,4.75,-1.24,3.45,6.0
5.9702959060668945,6.34,0.55,4.84,7.99
5.97756290435791,8.1,2.58,6.15,10.49
5.987131834030151,10.06,5.01,7.72,13.63
5.997091770172119,11.58,7.07,8.48,15.99
6.0071868896484375,12.83,8.05,7.51,16.9
6.017067909240723,13.43,9.26,6.31,17.49
6.046945810317993,13.87,10.69,5.73,18.42
6.048159837722778,15.07,11.38,4.63,19.44
6.049145698547363,16.31,11.47,3.74,20.28
6.056361675262451,16.4,11.75,3.12,20.41
6.0663368701934814,12.77,10.02,-4.71,16.9
6.076733827590942,-1.67,-2.49,-18.82,19.05
6.086557865142822,-18.78,24.46,-26.28,40.51
6.097017765045166,-21.96,57.14,0.09,61.21
6.106429815292358,-12.21,20.69,6.98,25.01
6.116484880447388,-0.22,-5.93,2.68,6.51
6.14762282371521,6.07,-11.12,8.41,15.2
6.148785829544067,9.04,-12.0,10.66,18.42
6.149795770645142,11.59,-7.29,4.96,14.56
6.171341896057129,10.83,-4.52,0.83,11.76
6.172846794128418,8.02,1.36,-0.37,8.14
6.186994791030884,2.66,4.27,-3.14,5.93
6.188472747802734,0.28,1.33,-1.96,2.38
6.202547788619995,0.13,-0.96,-0.54,1.1
6.205528736114502,1.21,0.02,1.14,1.66
6.21885871887207,1.62,0.79,1.48,2.33
6.246885776519775,1.18,0.28,1.15,1.67
6.248254776000977,0.49,-0.64,1.14,1.39
6.249225854873657,0.16,-0.85,1.15,1.43
6.254962921142578,0.41,-0.57,0.8,1.06
6.264991760253906,0.7,-0.45,0.43,0.93
6.2752978801727295,0.62,-0.48,0.49,0.92
6.285245895385742,0.65,-0.28,0.48,0.85
6.294911861419678,0.69,-0.02,0.17,0.71
6.305017948150635,0.44,0.25,-0.13,0.52
6.31483268737793,0.22,0.43,-0.22,0.53
6.345738887786865,0.12,0.26,-0.36,0.46
6.3469109535217285,0.08,0.15,-0.47,0.49
6.348270893096924,-0.13,0.21,-0.26,0.35
6.354048728942871,-0.65,0.25,-0.09,0.7
6.364013671875,-0.97,0.25,-0.2,1.02
6.3746337890625,-0.91,0.31,-0.4,1.04
6.384464740753174,-0.55,0.28,-0.64,0.88
6.3943257331848145,-0.02,0.23,-0.55,0.59
6.404210805892944,0.15,0.17,-0.51,0.55
6.413972854614258,-0.17,0.19,-0.56,0.61
6.451679706573486,-0.62,0.37,-0.45,0.85
6.45301079750061,-1.01,0.54,-0.46,1.23
6.4539899826049805,-1.36,0.74,-0.4,1.59
6.471367835998535,-1.45,0.83,-0.36,1.7
6.472836971282959,-1.34,0.66,-0.49,1.57
6.486937999725342,-1.18,0.4,-0.82,1.49
6.488456726074219,-1.21,0.31,-1.26,1.77
6.50251579284668,-1.14,0.48,-1.3,1.79
6.504055976867676,-0.84,0.62,-1.08,1.5
6.518860816955566,-0.44,0.6,-0.77,1.07
6.550374984741211,-0.22,0.47,-0.5,0.72
6.551766872406006,-0.29,0.33,-0.53,0.68
6.552847862243652,-0.48,0.28,-0.49,0.74
6.571521759033203,-0.53,0.38,-0.34,0.73
6.573003768920898,-0.61,0.43,-0.23,0.78
6.5873236656188965,-0.75,0.58,-0.13,0.95
6.588813781738281,-0.95,0.8,-0.26,1.26
6.602871894836426,-1.24,1.08,-0.6,1.75
6.604336738586426,-1.57,1.59,-0.53,2.29
6.61884069442749,-1.64,2.1,-0.37,2.69
6.650086879730225,-2.0,2.59,-0.94,3.4
6.651365756988525,-2.19,3.02,-1.15,3.9
6.652309894561768,-2.53,3.37,-1.27,4.4
6.670799732208252,-2.99,3.66,-1.56,4.97
6.67184591293335,-3.4,3.99,-1.85,5.55
6.687020778656006,-3.86,4.68,-1.84,6.33
6.688412666320801,-4.73,6.24,-1.84,8.04
6.7027528285980225,-6.12,8.6,-2.51,10.84
6.704202651977539,-7.8,10.67,-4.44,13.94
6.719908714294434,-9.21,11.97,-6.31,16.36
6.748349666595459,-10.69,12.89,-7.14,18.2
6.749705791473389,-11.68,13.0,-7.86,19.16
6.750709772109985,-11.9,11.87,-8.54,18.85
6.77119779586792,-11.59,10.4,-8.8,17.88
6.7722296714782715,-10.45,10.96,-7.34,16.82
6.786881923675537,-6.82,13.73,-4.36,15.93
6.788339853286743,-0.69,15.01,-3.79,15.49
6.802949905395508,3.47,12.63,-2.92,13.41
6.804442882537842,2.34,5.19,-4.51,7.26
6.819079875946045,-1.89,-1.31,-7.43,7.77
6.820838928222656,-2.45,-1.27,-5.79,6.41
6.866405963897705,3.05,4.47,1.94,5.74
6.867543697357178,2.93,-0.25,-0.16,2.94
6.868515968322754,-1.59,-3.31,-4.24,5.6
6.8876566886901855,-4.86,-3.2,-3.24,6.66
6.88910984992981,-7.11,-2.48,-2.22,7.85
6.904043674468994,-8.42,-2.36,-1.88,8.94
6.90544581413269,-8.16,-3.11,-0.87,8.77
6.9196577072143555,-6.74,-4.64,0.67,8.21
6.921076774597168,-5.82,-6.32,1.78,8.77
6.936244964599609,-6.11,-7.57,2.58,10.06
6.968576908111572,-6.7,-7.92,2.49,10.66
6.969883918762207,-6.77,-7.36,1.65,10.13
6.9709107875823975,-5.92,-6.51,0.52,8.81
6.988090991973877,-4.84,-6.15,-0.81,7.86
6.989606857299805,-4.43,-5.92,-1.69,7.58
7.004196643829346,-4.62,-5.83,-2.1,7.72
7.005654811859131,-4.58,-6.24,-2.99,8.29
7.019582748413086,-4.32,-6.65,-3.15,8.53
7.021047830581665,-4.03,-7.32,-2.95,8.86
7.03578782081604,-3.71,-7.86,-2.58,9.06
7.064643859863281,-3.39,-8.38,-2.12,9.28
7.065969944000244,-3.19,-8.96,-1.82,9.68
7.0669779777526855,-3.21,-9.51,-1.8,10.19
7.087819814682007,-3.55,-9.87,-1.55,10.6
7.088838815689087,-3.84,-9.97,-1.08,10.73
7.104177951812744,-3.9,-9.28,-0.22,10.06
7.105679988861084,-3.65,-8.31,0.44,9.08
7.119690895080566,-2.79,-7.46,0.33,7.97
7.121139764785767,-1.07,-6.31,-0.42,6.41
7.135954856872559,0.92,-4.9,-0.36,4.99
7.166768789291382,2.91,-3.09,1.12,4.38
7.168045997619629,5.04,-1.14,2.54,5.75
7.169060707092285,7.16,0.95,3.51,8.03
7.188049793243408,9.0,3.55,4.6,10.71
7.189529895782471,10.49,6.51,5.66,13.58
7.204362869262695,12.18,9.21,6.8,16.71
7.205850839614868,13.34,10.37,6.33,18.04
7.217584848403931,14.19,11.47,5.94,19.18
7.219085693359375,15.6,13.5,6.6,21.66
7.233619689941406,17.05,14.78,6.92,23.6
7.263688802719116,18.73,14.35,8.19,24.97
7.265152931213379,18.4,12.57,5.49,22.95
7.266193866729736,10.96,5.07,-4.97,13.05
7.268675804138184,-6.43,-2.72,-22.06,23.13
7.270105838775635,-23.74,34.38,-27.29,49.9
7.277273654937744,-26.38,55.25,3.64,61.33
7.287323951721191,-12.66,15.14,10.53,22.36
7.297217845916748,0.62,-7.22,6.58,9.78
7.307430744171143,5.15,-13.98,10.06,17.97
7.317403793334961,7.84,-15.42,8.27,19.17
7.354277849197388,11.54,-9.64,2.68,15.27
7.355453968048096,11.47,-5.56,0.37,12.75
7.356489658355713,9.98,0.6,0.69,10.02
7.3715667724609375,5.05,7.11,-3.88,9.54
7.372626781463623,1.22,2.7,-5.41,6.16
7.387171745300293,0.46,-0.81,-2.16,2.35
7.388166904449463,0.6,0.32,1.09,1.28
7.403186798095703,0.28,0.76,2.92,3.03
7.40635871887207,-0.36,-0.45,2.73,2.79
7.4193549156188965,-0.58,-1.24,1.87,2.31
7.453467845916748,0.24,-0.95,1.15,1.51
7.454877853393555,0.86,-0.34,0.65,1.13
7.455931663513184,0.5,-0.08,0.4,0.64
7.471259832382202,0.35,-0.05,0.05,0.35
7.472359657287598,0.76,-0.14,-0.33,0.84
7.487311840057373,0.95,-0.12,-0.18,0.97
7.488348960876465,0.81,0.1,0.12,0.82
7.502968788146973,0.55,0.05,-0.22,0.59
7.505542755126953,0.41,0.02,-0.32,0.52
7.519276857376099,0.29,0.09,-0.42,0.51
7.5548529624938965,0.04,0.11,-0.33,0.35
7.556246757507324,-0.07,0.14,0.06,0.16
7.557268857955933,-0.12,0.11,0.28,0.32
7.571574687957764,-0.18,0.08,0.08,0.21
7.5726118087768555,-0.23,0.15,-0.38,0.46
7.58748197555542,-0.26,0.29,-0.64,0.74
7.588545799255371,-0.23,0.36,-0.67,0.79
7.603267669677734,-0.17,0.35,-0.51,0.64
7.604780673980713,-0.38,0.28,-0.22,0.52
7.619456768035889,-0.76,0.33,0.01,0.82
7.624713897705078,-1.06,0.42,0.03,1.14
7.6649909019470215,-1.14,0.49,-0.21,1.25
7.666150808334351,-1.1,0.51,-0.76,1.43
7.667133808135986,-0.98,0.52,-1.22,1.64
7.688111782073975,-1.0,0.55,-1.46,1.85
7.6891608238220215,-1.13,0.57,-1.37,1.86
7.705230712890625,-1.25,0.61,-1.06,1.74
7.706699848175049,-1.24,0.67,-0.93,1.68
7.720191955566406,-1.0,0.68,-0.85,1.47
7.721678733825684,-0.82,0.59,-0.7,1.22
7.736098766326904,-0.82,0.46,-0.65,1.14
7.765528678894043,-0.94,0.41,-0.69,1.23
7.766847848892212,-0.99,0.57,-0.38,1.2
7.767859935760498,-1.28,0.78,-0.2,1.51
7.788157939910889,-1.7,1.01,-0.33,2.0
7.78917384147644,-1.63,1.24,-0.76,2.18
7.804389953613281,-1.14,1.31,-1.73,2.45
7.805858850479126,-0.73,1.47,-1.91,2.51
7.82003378868103,-1.07,2.26,-1.81,3.08
7.821530818939209,-1.81,3.07,-2.11,4.14
7.835967779159546,-2.51,3.96,-1.83,5.03
7.864405870437622,-3.38,4.75,-1.58,6.04
7.865829944610596,-4.16,5.3,-1.66,6.93
7.866774797439575,-5.0,5.84,-1.56,7.84
7.869083881378174,-6.07,7.32,-1.11,9.57
7.872868776321411,-7.84,9.93,-1.88,12.79
7.882813930511475,-9.84,12.03,-4.58,16.2
7.893388748168945,-11.49,13.79,-6.91,19.23
7.90318489074707,-12.6,15.18,-8.39,21.43
7.913164854049683,-13.37,15.49,-10.65,23.06
7.922472953796387,-13.62,14.37,-12.25,23.28
7.951666831970215,-12.52,13.25,-11.6,21.6
7.95294976234436,-8.29,14.83,-8.0,18.77
7.953768730163574,-2.0,15.68,-5.29,16.66
7.971966743469238,3.84,14.36,-3.76,15.33
7.973013877868652,4.63,8.28,-4.41,10.46
7.987634658813477,-0.16,0.47,-8.03,8.04
7.9918389320373535,-2.26,-1.59,-6.27,6.85
8.00291395187378,3.65,4.72,2.98,6.66
8.01216173171997,4.8,-0.22,2.11,5.24
8.021769762039185,-0.38,-4.51,-4.43,6.33
8.058783769607544,-4.2,-4.45,-3.66,7.13
8.060109853744507,-6.5,-3.36,-2.36,7.68
8.061192989349365,-7.85,-3.44,-2.24,8.85
8.07166576385498,-8.05,-4.22,-1.93,9.29
8.072723865509033,-7.22,-5.12,-1.22,8.93
8.087804794311523,-6.15,-6.58,0.01,9.0
8.09105396270752,-5.81,-7.99,0.72,9.9
8.101259708404541,-5.96,-9.23,0.86,11.02
8.111589908599854,-6.35,-10.05,0.35,11.89
8.121167659759521,-6.57,-10.45,-0.4,12.35
8.156418800354004,-6.63,-10.58,-1.55,12.58
8.157701969146729,-6.65,-9.99,-2.34,12.22
8.158751964569092,-6.43,-9.24,-2.81,11.6
8.171680927276611,-5.95,-8.99,-3.16,11.23
8.172782897949219,-5.44,-9.22,-3.05,11.13
8.187612771987915,-5.03,-9.56,-2.79,11.15
8.190246820449829,-4.88,-9.76,-2.47,11.18
8.203333854675293,-4.97,-9.69,-2.07,11.08
8.210537910461426,-4.88,-9.24,-1.68,10.58
8.220204830169678,-4.48,-8.74,-1.33,9.91
8.259432792663574,-3.86,-8.42,-1.22,9.34
8.260806798934937,-3.45,-7.98,-1.02,8.75
8.261801719665527,-3.06,-6.82,-0.84,7.52
8.271501779556274,-1.8,-5.15,-1.55,5.67
8.272572994232178,0.92,-3.8,-1.87,4.33
8.287795782089233,4.11,-2.39,-0.91,4.84
8.289553880691528,6.62,-0.63,0.49,6.66
8.303371906280518,7.59,1.64,2.04,8.02
8.309749841690063,7.24,4.32,3.53,9.14
8.319647789001465,7.19,7.08,4.77,11.16
8.359383821487427,8.19,8.98,5.08,13.17
8.36071491241455,9.97,10.07,5.11,15.06
8.36174488067627,12.2,10.14,5.26,16.71
8.368078708648682,13.77,9.91,4.65,17.59
8.369140863418579,15.55,10.61,5.17,19.52
8.384499788284302,17.82,10.49,5.61,21.42
8.388805866241455,18.97,9.69,5.99,22.12
8.403376817703247,18.3,8.99,6.95,21.54
8.408570766448975,13.56,9.95,4.32,17.36
8.419638872146606,2.68,0.19,-6.42,6.95
8.42892599105835,-13.29,6.89,-20.4,25.3
8.4652738571167,-23.5,51.76,-15.03,58.79
8.466481685638428,-18.75,41.34,6.5,45.85
8.467517852783203,-3.79,3.14,3.64,6.12
8.488649845123291,6.49,-5.54,4.72,9.75
8.489678859710693,8.88,-12.61,10.73,18.78
8.504862785339355,9.62,-15.12,6.93,19.21
8.50636076927185,10.25,-10.97,-0.11,15.01
8.520411968231201,9.16,-5.29,-0.73,10.6
8.52187967300415,5.9,1.59,1.25,6.23
8.536471843719482,1.29,6.97,-2.54,7.52
8.56748080253601,-1.16,3.02,-4.54,5.57
8.568824768066406,-0.15,-0.26,-1.3,1.33
8.569821834564209,1.39,-0.4,1.29,1.93
8.588168859481812,1.52,-0.14,2.52,2.94
8.589213848114014,0.61,-0.77,1.89,2.13
8.60444974899292,0.2,-0.79,1.1,1.36
8.605459690093994,0.41,-0.19,0.61,0.75
8.620173931121826,0.66,0.07,0.27,0.71
8.621623992919922,0.64,-0.12,0.56,0.85
8.636661767959595,0.32,-0.55,1.24,1.39
8.667035818099976,0.32,-0.82,0.89,1.25
8.668412685394287,0.73,-0.52,-0.19,0.91
8.669421672821045,0.56,0.18,-0.92,1.09
8.68961477279663,-0.3,0.73,-1.13,1.37
8.690640926361084,-0.93,0.8,-0.77,1.44
8.704746723175049,-1.03,0.48,-0.24,1.16
8.705875873565674,-0.76,0.05,-0.07,0.76
8.720318794250488,-0.42,-0.08,-0.3,0.52
8.721808910369873,-0.43,0.12,-0.61,0.75
8.73647165298462,-0.72,0.5,-0.65,1.09
8.76765775680542,-1.05,0.7,-0.71,1.44
8.769014835357666,-0.94,0.71,-0.63,1.33
8.77003288269043,-0.55,0.56,-0.26,0.82
8.788455963134766,-0.23,0.37,-0.18,0.47
8.789512872695923,-0.66,0.31,-0.43,0.84
8.804609775543213,-1.21,0.55,-0.86,1.58
8.805640697479248,-1.35,0.75,-1.29,2.01
8.820376873016357,-1.36,0.88,-1.12,1.96
8.82184386253357,-1.13,0.8,-0.91,1.65
8.83651065826416,-0.88,0.68,-0.58,1.25
8.865979671478271,-0.81,0.71,-0.88,1.39
8.86727786064148,-0.92,0.86,-1.43,1.9
8.868282794952393,-1.06,1.18,-1.47,2.16
8.888439655303955,-0.97,1.54,-1.26,2.21
8.889479875564575,-1.05,1.74,-1.09,2.3
8.90459680557251,-1.49,2.35,-0.48,2.82
8.905640840530396,-1.99,2.85,-0.3,3.48
8.920595645904541,-2.65,3.45,-0.14,4.35
8.922071933746338,-3.48,3.62,-0.27,5.02
8.936777830123901,-3.9,3.94,-0.2,5.54
8.96421766281128,-3.78,4.09,-1.09,5.67
8.96558666229248,-3.37,3.98,-2.24,5.67
8.966424942016602,-3.35,4.09,-2.82,5.99
8.968557834625244,-4.01,4.69,-3.03,6.87
8.974240779876709,-5.26,6.08,-2.93,8.55
8.984541893005371,-6.8,8.59,-2.82,11.31
8.994369983673096,-8.66,11.89,-3.74,15.17
9.004264831542969,-10.52,13.99,-7.94,19.22
9.014782905578613,-11.09,14.46,-11.05,21.31
9.024664878845215,-10.52,13.24,-11.66,20.54
9.059908866882324,-9.9,11.96,-11.56,19.35
9.06106185913086,-8.5,13.59,-8.23,18.01
9.061883926391602,-4.64,16.14,-4.2,17.31
9.072354793548584,0.99,16.46,-2.71,16.71
9.073488712310791,4.08,11.72,-4.41,13.17
9.087707996368408,1.03,3.13,-9.03,9.61
9.093337774276733,-3.12,-0.7,-8.56,9.13
9.103663921356201,0.06,5.11,0.86,5.18
9.113531827926636,1.28,1.17,2.14,2.75
9.12338399887085,-1.96,-4.37,-3.09,5.69
9.160815715789795,-4.43,-5.08,-3.17,7.44
9.16200590133667,-6.75,-3.93,-2.19,8.11
9.162879943847656,-8.44,-3.11,-1.68,9.15
9.171798706054688,-8.49,-3.45,-1.16,9.23
9.172843933105469,-7.4,-4.47,-0.6,8.66
9.188247680664062,-6.76,-5.65,0.42,8.82
9.192673683166504,-7.37,-6.76,1.39,10.09
9.203413963317871,-8.14,-7.82,1.93,11.45
9.212652683258057,-8.62,-8.53,1.72,12.24
9.222680807113647,-8.43,-8.36,1.43,11.95
9.23286771774292,-7.75,-7.93,0.63,11.1
9.264758825302124,-7.4,-7.11,-0.01,10.26
9.265928745269775,-6.98,-7.07,-1.07,9.99
9.266904830932617,-6.51,-7.04,-2.02,9.79
9.272244930267334,-6.06,-6.87,-2.08,9.39
9.281953811645508,-5.45,-7.07,-1.93,9.13
9.29214882850647,-4.67,-7.47,-1.94,9.02
9.30214786529541,-4.18,-7.94,-1.72,9.13
9.31165599822998,-4.06,-8.54,-1.57,9.58
9.322122812271118,-4.25,-9.02,-1.14,10.03
9.331885814666748,-4.64,-8.94,-0.18,10.07
9.364144802093506,-4.69,-8.46,0.86,9.71
9.36529278755188,-4.3,-7.93,1.57,9.15
9.366598844528198,-3.72,-6.96,1.87,8.11
9.371358871459961,-2.45,-5.57,1.32,6.22
9.381418704986572,-0.19,-4.09,1.16,4.25
9.391488790512085,2.45,-2.33,2.36,4.12
9.401153802871704,5.36,-0.03,3.88,6.61
9.411256790161133,8.23,2.32,4.69,9.75
9.421350955963135,10.02,4.91,4.83,12.15
9.431108951568604,10.9,7.98,4.79,14.33
9.463545799255371,12.35,11.07,5.17,17.37
9.46470594406128,14.1,12.79,4.76,19.62
9.465979814529419,15.65,12.96,3.54,20.62
9.470710754394531,17.06,12.21,3.69,21.3
9.485381841659546,17.8,11.37,3.42,21.39
9.49041485786438,18.42,10.24,4.37,21.52
9.503565788269043,18.61,7.75,6.1,21.06
9.510189771652222,15.03,8.15,4.52,17.68
9.52047085762024,4.86,0.97,-4.37,6.6
9.530484676361084,-10.28,-4.54,-21.24,24.02
9.562267780303955,-24.07,35.84,-23.92,49.35
9.563410758972168,-20.97,55.28,9.2,59.83
9.564505815505981,-8.15,13.04,7.93,17.3
9.569644927978516,0.53,-9.52,1.87,9.71
9.580013751983643,6.24,-12.43,9.43,16.8
9.589815855026245,11.46,-9.73,9.83,17.96
9.599757671356201,12.66,-8.64,1.2,15.37
9.609394788742065,12.41,-4.09,0.55,13.07
9.619818687438965,8.14,3.77,0.33,8.97
9.629548788070679,2.42,3.18,-3.11,5.06
9.667903900146484,0.1,-0.11,-3.15,3.15
9.669254779815674,-0.15,-0.07,-1.52,1.52
9.670207977294922,0.79,0.96,0.56,1.36
9.689704895019531,0.97,0.52,1.02,1.5
9.690781831741333,0.5,-0.66,1.38,1.6
9.70518684387207,0.39,-1.42,1.58,2.15
9.706224918365479,0.6,-1.09,1.47,1.92
9.720634937286377,0.44,-0.42,1.19,1.33
9.722119808197021,0.23,-0.08,0.52,0.57
9.73674488067627,0.25,-0.06,0.02,0.25
9.766512870788574,0.23,-0.04,0.04,0.23
9.767697811126709,0.34,0.03,-0.02,0.34
9.76849365234375,0.41,0.07,-0.13,0.43
9.788779735565186,0.31,0.1,-0.39,0.5
9.789813995361328,0.09,0.18,-0.51,0.54
9.8050217628479,-0.16,0.33,-0.28,0.46
9.80604887008667,-0.36,0.26,-0.21,0.49
9.820774793624878,-0.5,0.15,-0.24,0.57
9.821814775466919,-0.4,0.12,-0.15,0.44
9.837149858474731,-0.26,0.07,-0.17,0.31
9.867364883422852,-0.27,0.08,-0.26,0.38
9.868692874908447,-0.45,0.22,-0.37,0.62
9.869707822799683,-0.68,0.46,-0.53,0.97
9.888882875442505,-0.84,0.68,-0.61,1.24
9.889931678771973,-0.97,0.79,-0.81,1.49
9.904936790466309,-1.32,0.81,-0.83,1.75
9.905961990356445,-1.62,0.84,-0.61,1.92
9.920870780944824,-1.47,0.77,-0.46,1.72
9.922343730926514,-1.12,0.58,-0.53,1.36
9.936968803405762,-0.9,0.49,-0.87,1.34
9.966005802154541,-0.96,0.56,-1.37,1.76
9.967455863952637,-1.16,0.79,-1.59,2.12
9.968448877334595,-1.23,1.08,-1.32,2.1
9.988902807235718,-1.09,1.17,-0.88,1.82
9.989948749542236,-0.89,1.05,-0.77,1.57
10.005217790603638,-0.54,0.99,-1.03,1.52
10.006227970123291,-0.61,1.04,-1.46,1.89
10.020955801010132,-1.25,1.67,-0.88,2.26
10.02243685722351,-1.98,2.48,-0.54,3.21
10.037107944488525,-2.58,3.42,-0.65,4.33
10.038587808609009,-3.03,3.82,-1.04,4.98
10.08406376838684,-3.31,4.35,-1.06,5.56
10.085282802581787,-3.55,4.62,-1.62,6.04
10.086292743682861,-3.85,4.81,-2.37,6.6
10.105871677398682,-4.4,5.25,-2.98,7.47
10.106905937194824,-5.3,6.2,-3.14,8.74
10.121955871582031,-6.83,8.08,-2.96,10.98
10.123434782028198,-9.04,11.04,-3.72,14.74
10.137978792190552,-11.09,13.61,-6.67,18.78
10.139489650726318,-12.2,14.46,-9.04,20.96
10.151649951934814,-12.39,13.66,-10.11,21.03
10.180593967437744,-11.95,11.9,-10.88,20.06
10.18192195892334,-11.25,11.35,-10.82,19.29
10.182923793792725,-8.15,14.76,-6.81,18.18
10.185287952423096,-2.26,17.33,-4.44,18.03
10.20551872253418,3.52,15.64,-4.17,16.56
10.206514835357666,3.7,7.54,-6.45,10.58
10.220892906188965,-1.26,-0.4,-9.49,9.58
10.221936702728271,-3.17,-0.76,-6.19,6.99
10.2374587059021,2.01,4.71,3.03,5.95
10.238969802856445,1.62,-0.91,0.26,1.87
10.282965660095215,-2.68,-4.37,-4.37,6.73
10.284157752990723,-5.27,-4.19,-3.44,7.56
10.285136699676514,-7.22,-2.97,-2.68,8.25
10.305832862854004,-8.4,-2.44,-2.27,9.03
10.306837797164917,-8.03,-2.8,-1.23,8.59
10.322020769119263,-6.83,-4.02,0.02,7.92
10.323109865188599,-6.22,-6.03,0.83,8.7
10.33754587173462,-6.7,-7.51,1.55,10.18
10.339058876037598,-7.53,-8.32,1.75,11.35
10.341113805770874,-7.95,-8.59,0.86,11.73
10.367127895355225,-7.54,-7.93,0.43,10.95
10.368338823318481,-6.86,-7.7,-0.7,10.33
10.369132995605469,-6.36,-7.55,-1.96,10.06
10.389586925506592,-6.38,-6.75,-2.25,9.55
10.390564918518066,-6.22,-6.55,-2.74,9.43
10.40346097946167,-5.49,-6.69,-2.89,9.12
10.404507875442505,-4.48,-7.3,-2.85,9.02
10.420477867126465,-4.49,-6.88,-2.65,8.63
10.423250675201416,-4.18,-7.45,-2.64,8.94
10.436920642852783,-3.65,-8.06,-2.66,9.23
10.46988296508789,-3.26,-8.46,-2.69,9.45
10.471031665802002,-2.89,-8.48,-2.19,9.22
10.471848964691162,-2.43,-8.07,-1.37,8.53
10.48934268951416,-1.91,-7.57,-0.63,7.83
10.490405797958374,-1.19,-6.7,-0.72,6.84
10.505095958709717,0.3,-5.22,-1.15,5.35
10.506127834320068,2.57,-3.79,-0.31,4.58
10.521152973175049,4.93,-2.13,1.73,5.64
10.522572994232178,6.77,0.11,4.19,7.96
10.537182807922363,8.07,2.68,6.21,10.52
10.571023941040039,9.25,5.45,7.89,13.32
10.572447776794434,10.81,8.22,9.23,16.42
10.573500871658325,13.19,9.4,9.55,18.8
10.589128971099854,15.17,8.91,7.82,19.25
10.59019684791565,15.95,9.62,6.66,19.78
10.605318784713745,17.19,11.02,6.28,21.36
10.606398820877075,19.44,10.58,6.22,22.98
10.618476867675781,19.65,11.0,5.35,23.14
10.621694803237915,15.2,12.96,-2.76,20.16
10.637142658233643,0.22,7.3,-17.01,18.51
10.670338869094849,-15.31,46.85,-20.09,53.22
10.671826839447021,-18.11,56.87,-5.43,59.93
10.672882795333862,-7.59,6.59,2.45,10.34
10.689791679382324,1.59,-10.76,2.55,11.17
10.690834999084473,5.93,-15.6,11.83,20.45
10.705217838287354,10.88,-12.63,13.83,21.66
10.706247806549072,11.67,-9.85,5.42,16.2
10.720876693725586,9.6,-5.69,0.29,11.16
10.721908807754517,5.06,3.88,1.44,6.53
10.737594842910767,-0.17,6.72,-3.68,7.66
10.76996374130249,-1.95,1.67,-5.6,6.16
10.771138668060303,-0.17,-0.52,-2.18,2.24
10.771958827972412,2.52,-0.89,1.87,3.26
10.789728879928589,3.13,-0.97,3.64,4.89
10.790774822235107,1.23,-1.12,2.51,3.01
10.805223941802979,-0.09,-0.42,0.39,0.58
10.80626392364502,0.57,0.43,-0.58,0.91
10.820926666259766,1.61,0.12,-0.15,1.62
10.821964740753174,1.57,-0.73,0.4,1.77
10.837397813796997,0.71,-0.83,0.7,1.29
10.840467929840088,0.06,-0.3,0.98,1.02
10.885273933410645,0.02,0.12,0.87,0.87
10.886480808258057,0.21,0.13,0.3,0.38
10.887502670288086,0.28,0.1,-0.55,0.62
10.905954837799072,-0.03,0.32,-1.08,1.12
10.906994819641113,-0.65,0.64,-0.64,1.11
10.921112775802612,-1.07,0.66,0.0,1.25
10.92255187034607,-0.94,0.37,0.19,1.02
10.938103675842285,-0.63,0.14,-0.39,0.75
10.939595699310303,-0.33,0.19,-1.02,1.08
10.954193830490112,-0.2,0.44,-1.03,1.13
10.984435796737671,-0.41,0.54,-0.79,1.04
10.9858717918396,-0.75,0.64,-0.5,1.1
10.986884832382202,-0.91,0.76,-0.14,1.19
11.005924701690674,-0.82,0.69,-0.21,1.09
11.006953716278076,-0.86,0.58,-0.55,1.17
11.022374868392944,-0.95,0.65,-0.59,1.29
11.023319721221924,-0.85,0.65,-0.81,1.34
11.038538932800293,-0.69,0.44,-0.86,1.18
11.0399808883667,-0.65,0.36,-0.69,1.01
11.054336786270142,-0.71,0.44,-0.55,1.0
11.08506178855896,-0.92,0.67,-0.65,1.31
11.086385726928711,-1.02,1.07,-0.82,1.69
11.08738088607788,-0.99,1.4,-1.07,2.02
11.106175899505615,-1.24,1.76,-0.9,2.33
11.10723066329956,-1.66,2.01,-0.62,2.67
11.12160873413086,-2.16,2.56,-0.26,3.35
11.122642993927002,-2.42,2.88,-0.12,3.76
11.13813066482544,-2.7,3.03,-0.26,4.06
11.139545917510986,-2.88,3.18,-0.61,4.33
11.154289722442627,-3.11,3.37,-1.15,4.72
11.182761669158936,-3.28,3.76,-1.63,5.24
11.184130668640137,-3.61,4.13,-2.41,5.99
11.184922695159912,-4.21,4.68,-3.18,7.05
11.206361770629883,-5.12,5.62,-3.42,8.33
11.207417964935303,-6.47,7.19,-3.23,10.19
11.222521781921387,-8.19,9.88,-3.01,13.18
11.223522663116455,-10.11,12.95,-5.09,17.19
11.236635684967041,-11.44,14.21,-8.87,20.28
11.23772382736206,-11.86,13.67,-9.98,20.66
11.25258493423462,-11.96,12.64,-9.56,19.85
11.280651807785034,-11.31,13.12,-8.34,19.22
11.281770706176758,-8.36,15.5,-5.82,18.54
11.282639980316162,-2.49,16.54,-5.0,17.45
11.286336898803711,2.84,15.33,-3.92,16.07
11.30623984336853,3.33,8.51,-4.77,10.3
11.307260990142822,-1.01,1.07,-8.13,8.26
11.321210861206055,-2.66,-0.11,-6.71,7.21
11.322252750396729,2.85,6.33,1.27,7.05
11.337143898010254,3.48,1.36,0.98,3.86
11.3381187915802,-1.26,-2.27,-3.07,4.02
11.385609865188599,-4.86,-1.96,-2.17,5.67
11.38676381111145,-7.57,-1.1,-1.56,7.8
11.387755870819092,-9.39,-1.35,-1.68,9.63
11.389931678771973,-9.45,-2.63,-0.86,9.84
11.391342878341675,-8.09,-4.5,0.8,9.29
11.395834922790527,-7.1,-6.71,2.08,9.98
11.406368732452393,-7.27,-8.39,2.57,11.39
11.416047811508179,-8.36,-9.33,2.35,12.74
11.426092863082886,-8.81,-8.97,1.63,12.67
11.436248779296875,-8.44,-7.59,1.18,11.41
11.475818872451782,-7.88,-6.95,0.17,10.5
11.476990699768066,-7.22,-6.99,-0.85,10.08
11.477998733520508,-7.11,-6.75,-1.12,9.86
11.489803791046143,-6.97,-7.02,-1.81,10.05
11.490855693817139,-6.36,-7.17,-2.29,9.85
11.50573182106018,-5.37,-7.54,-2.34,9.54
11.506779670715332,-4.33,-8.07,-2.21,9.42
11.521752834320068,-4.15,-7.71,-2.31,9.05
11.52498197555542,-3.92,-8.31,-2.65,9.56
11.537661790847778,-3.12,-9.25,-2.74,10.13
11.573502779006958,-2.23,-9.75,-2.16,10.23
11.574832916259766,-1.58,-9.82,-1.06,10.0
11.57583475112915,-1.38,-9.38,-0.03,9.48
11.589610815048218,-1.1,-8.4,0.26,8.47
11.590650796890259,0.42,-7.03,-0.01,7.04
11.605684757232666,2.95,-5.25,0.85,6.08
11.60671877861023,4.83,-2.97,3.08,6.45
11.621664762496948,5.76,-0.64,5.16,7.75
11.624645709991455,6.64,1.39,6.62,9.47
11.638891696929932,8.6,3.57,8.36,12.51
11.64443588256836,11.41,5.8,9.84,16.14
11.68464469909668,13.85,7.54,9.98,18.66
11.68586277961731,15.95,8.75,8.97,20.28
11.686898708343506,16.66,9.65,6.95,20.46
11.70312786102295,17.08,10.87,5.89,21.08
11.704221725463867,18.21,11.02,5.26,21.92
11.719705820083618,17.74,11.97,3.28,21.65
11.720746994018555,13.04,11.44,-8.97,19.52
11.738733768463135,-4.91,4.88,-26.75,27.63
11.740251779556274,-20.25,52.63,-27.24,62.62
11.754726886749268,-19.94,55.89,-2.87,59.4
11.780402660369873,-5.84,3.8,-0.2,6.97
11.781897783279419,4.38,-10.54,3.49,11.93
11.782967805862427,9.58,-13.09,17.29,23.7
11.785801887512207,11.12,-13.86,14.08,22.67
11.80594778060913,10.9,-12.06,2.28,16.41
11.80701494216919,9.16,-6.58,0.73,11.3
11.82110071182251,5.32,0.57,2.09,5.74
11.8226957321167,0.98,7.9,-1.11,8.03
11.837727785110474,-1.91,4.03,-4.81,6.55
11.843126773834229,-1.16,-0.12,-2.56,2.81
11.881680965423584,0.96,-0.41,0.25,1.07
11.88281774520874,2.25,0.07,1.01,2.46
11.884026765823364,2.32,-0.49,0.73,2.48
11.885848999023438,1.31,-1.2,0.82,1.95
11.892314910888672,0.55,-0.88,1.1,1.51
11.902418851852417,0.4,-0.22,1.03,1.12
11.912388801574707,0.29,-0.06,0.49,0.57
11.922214984893799,0.22,-0.22,0.14,0.34
11.9319429397583,0.35,-0.21,0.18,0.44
11.942331790924072,0.32,-0.08,0.05,0.33
11.972320795059204,0.12,0.23,-0.17,0.31
11.973597764968872,-0.13,0.49,-0.42,0.65
11.974586963653564,-0.38,0.56,-0.6,0.9
11.990348815917969,-0.33,0.5,-0.72,0.93
11.991391658782959,-0.11,0.28,-0.73,0.78
12.00467586517334,0.1,0.04,-0.47,0.48
12.011528968811035,0.06,-0.14,-0.09,0.17
12.021575927734375,-0.13,-0.19,-0.03,0.23
12.03165578842163,-0.34,-0.02,0.03,0.34
12.041638851165771,-0.62,0.28,-0.02,0.68
12.07877779006958,-0.61,0.46,-0.23,0.79
12.080241680145264,-0.47,0.55,-0.12,0.73
12.08130168914795,-0.44,0.52,-0.02,0.68
12.090274810791016,-0.61,0.47,-0.05,0.77
12.091344833374023,-0.8,0.52,-0.35,1.01
12.1060209274292,-0.81,0.53,-0.7,1.19
12.110560894012451,-0.83,0.53,-0.83,1.28
12.121935844421387,-0.93,0.52,-0.76,1.3
12.130896806716919,-0.97,0.52,-0.69,1.29
12.14073371887207,-0.95,0.69,-0.64,1.33
12.179017782211304,-1.0,0.84,-0.91,1.59
12.180335998535156,-1.13,0.97,-1.2,1.91
12.181374788284302,-1.25,1.13,-1.26,2.1
12.186823844909668,-1.33,1.22,-1.15,2.14
12.190396785736084,-1.12,1.24,-1.16,2.03
12.206125736236572,-0.98,1.26,-1.12,1.94
12.209873676300049,-1.16,1.8,-0.7,2.25
12.220223903656006,-1.63,2.3,-0.92,2.96
12.230117797851562,-2.02,3.12,-0.54,3.75
12.23973798751831,-2.64,3.49,-0.73,4.43
12.276841878890991,-3.18,3.64,-0.87,4.91
12.278197765350342,-3.35,3.83,-1.22,5.23
12.279277801513672,-3.16,3.89,-1.88,5.35
12.290408849716187,-3.03,3.97,-2.38,5.53
12.291430950164795,-3.58,4.48,-2.36,6.2
12.306102752685547,-5.11,6.28,-1.97,8.33
12.309103965759277,-6.98,8.92,-2.48,11.59
12.32206678390503,-8.73,11.14,-4.57,14.87
12.329092979431152,-10.27,12.52,-7.05,17.66
12.339139938354492,-11.11,13.16,-8.62,19.25
12.375893831253052,-11.13,12.81,-9.72,19.55
12.377262830734253,-10.83,11.29,-10.91,19.07
12.378345966339111,-10.11,10.8,-10.65,18.22
12.390418767929077,-7.72,13.29,-7.15,16.95
12.391495704650879,-2.82,15.59,-4.57,16.48
12.40417766571045,2.7,14.94,-3.88,15.66
12.408348798751831,3.53,8.02,-5.5,10.34
12.422017812728882,-0.54,0.77,-8.1,8.15
12.428637981414795,-3.48,-1.71,-6.19,7.3
12.438561916351318,1.49,4.77,2.09,5.41
12.448479652404785,4.08,1.89,2.87,5.33
12.480879783630371,-0.01,-2.78,-3.52,4.48
12.482032775878906,-3.29,-2.47,-3.44,5.36
12.48328185081482,-5.81,-1.07,-2.3,6.33
12.487668991088867,-7.67,-0.67,-2.19,8.0
12.506465911865234,-7.59,-1.66,-1.52,7.91
12.50752878189087,-6.26,-3.44,-0.28,7.14
12.521934986114502,-5.25,-5.73,0.67,7.8
12.527831792831421,-5.33,-7.76,1.57,9.54
12.538452863693237,-6.18,-8.85,2.06,10.98
12.547784805297852,-6.72,-8.8,1.38,11.15
12.580461978912354,-6.52,-7.8,0.33,10.17
12.581674814224243,-5.82,-6.82,-0.65,8.98
12.58294677734375,-5.38,-6.2,-1.41,8.32
12.587096691131592,-5.25,-6.14,-2.0,8.32
12.606228828430176,-5.46,-6.27,-2.28,8.62
12.607234954833984,-5.28,-6.58,-2.99,8.95
12.622904777526855,-4.76,-6.76,-2.88,8.75
12.627286911010742,-4.43,-7.32,-2.3,8.85
12.638980865478516,-4.44,-7.34,-1.84,8.77
12.646896839141846,-4.11,-7.91,-1.95,9.12
12.679077863693237,-3.73,-8.55,-1.82,9.5
12.680226802825928,-3.57,-9.15,-1.47,9.93
12.68143892288208,-3.48,-9.66,-0.91,10.3
12.687933921813965,-3.36,-9.73,-0.32,10.29
12.696672916412354,-3.04,-9.0,0.39,9.5
12.706571817398071,-2.38,-8.0,0.63,8.37
12.716322898864746,-1.08,-6.73,0.05,6.81
12.726087808609009,0.85,-5.4,-0.45,5.48
12.73642086982727,3.02,-4.2,0.49,5.19
12.746221780776978,4.88,-2.49,2.61,6.06
12.776465892791748,6.52,-0.42,4.4,7.87
12.777835845947266,7.92,1.41,5.38,9.67
12.778872966766357,9.08,3.57,6.2,11.55
12.79071569442749,10.55,5.96,7.15,14.06
12.79555892944336,12.31,7.61,7.71,16.39
12.806337833404541,14.5,8.22,7.62,18.32
12.815699815750122,15.6,8.98,6.66,19.19
12.825127840042114,16.21,10.44,6.25,20.26
12.83591365814209,17.36,11.35,6.68,21.79
12.845326900482178,18.16,11.29,6.25,22.27
12.88224172592163,14.84,13.08,0.79,19.79
12.883533954620361,2.05,2.28,-15.68,15.97
12.884582996368408,-18.38,26.23,-28.78,43.05
12.88683795928955,-25.99,66.81,-10.4,72.43
12.894798755645752,-15.85,24.68,6.39,30.01
12.904932975769043,-0.65,-7.27,2.98,7.88
12.914877891540527,7.85,-10.85,9.94,16.67
12.924659729003906,10.75,-13.01,14.79,22.44
12.93455696105957,10.9,-13.11,4.38,17.6
12.944686889648438,10.68,-8.52,-0.07,13.66
12.980125904083252,8.58,-0.67,1.86,8.8
12.981417655944824,3.51,4.83,-1.54,6.16
12.982416868209839,-0.19,3.11,-3.33,4.56
12.986682891845703,-1.14,-0.22,-2.02,2.32
13.006361961364746,-0.13,-0.23,-0.34,0.43
13.007402896881104,1.47,0.53,1.18,1.95
13.021840810775757,1.86,0.15,2.66,3.24
13.023644924163818,0.85,-0.94,2.63,2.91
13.038474798202515,0.11,-1.2,0.87,1.48
13.044069766998291,0.46,-0.19,-0.28,0.57
13.083418846130371,0.93,0.28,-0.5,1.09
13.084584712982178,0.89,-0.23,-0.23,0.94
13.085770845413208,0.4,-0.44,0.18,0.62
13.087265968322754,0.07,-0.06,0.24,0.25
13.093267917633057,0.28,0.29,-0.21,0.45
13.10335087776184,0.72,0.37,-0.58,0.99
13.11331582069397,0.77,0.15,-0.71,1.05
13.123127937316895,0.39,0.02,-0.51,0.64
13.133108854293823,-0.09,0.04,-0.13,0.16
13.143268823623657,-0.36,0.06,0.41,0.54
13.178746700286865,-0.43,0.06,0.68,0.8
13.179991722106934,-0.32,-0.02,0.37,0.48
13.180994987487793,-0.18,0.02,0.13,0.22
13.186676979064941,-0.23,0.18,-0.15,0.32
13.192776679992676,-0.18,0.3,-0.46,0.57
13.206763744354248,-0.17,0.37,-0.61,0.73
13.21238899230957,-0.29,0.47,-0.65,0.85
13.222254753112793,-0.51,0.56,-0.55,0.93
13.232763767242432,-0.88,0.69,-0.45,1.2
13.242365837097168,-1.33,0.82,-0.47,1.63
13.252539873123169,-1.51,0.8,-0.72,1.85
13.284581661224365,-1.26,0.73,-0.92,1.72
13.285768985748291,-0.87,0.53,-1.08,1.48
13.286834716796875,-0.72,0.46,-1.3,1.55
13.307175874710083,-0.8,0.54,-1.46,1.75
13.308188915252686,-1.12,0.73,-1.32,1.87
13.322947978973389,-1.18,1.0,-1.07,1.88
13.323964834213257,-0.89,1.16,-0.65,1.6
13.33899188041687,-0.71,1.11,-0.58,1.43
13.341591835021973,-0.87,1.1,-0.61,1.52
13.355247974395752,-1.38,1.52,-0.14,2.05
13.38210391998291,-1.85,1.97,-0.18,2.7
13.383363723754883,-2.01,2.72,-0.14,3.38
13.384394645690918,-2.18,2.93,-0.6,3.7
13.390902996063232,-2.32,3.07,-0.9,3.95
13.400912761688232,-2.57,3.15,-1.41,4.3
13.41110372543335,-2.93,3.35,-1.91,4.84
13.42113184928894,-3.26,3.84,-2.2,5.49
13.430954933166504,-3.89,4.49,-2.55,6.46
13.441029787063599,-4.8,5.57,-2.78,7.86
13.450779914855957,-5.92,7.22,-2.92,9.78
13.481253862380981,-7.17,9.71,-3.2,12.48
13.482457876205444,-8.51,11.36,-5.5,15.22
13.48377275466919,-9.92,11.97,-8.06,17.51
13.490341663360596,-10.67,12.44,-8.73,18.56
13.505996704101562,-10.85,11.75,-9.06,18.38
13.509971857070923,-10.79,10.6,-10.3,18.29
13.522056818008423,-10.22,10.83,-9.23,17.51
13.529889822006226,-7.29,14.13,-5.58,16.85
13.54005479812622,-1.69,15.85,-3.7,16.36
13.5502028465271,3.08,12.75,-4.14,13.75
13.580038785934448,2.26,5.12,-6.77,8.78
13.58121395111084,-2.86,-1.0,-7.55,8.13
13.582458972930908,-5.21,-2.67,-4.95,7.66
13.589724779129028,0.55,3.06,3.0,4.32
13.599419832229614,3.24,-0.25,2.52,4.11
13.609376907348633,-1.08,-4.59,-4.07,6.22
13.61944580078125,-4.73,-4.36,-3.85,7.49
13.629278659820557,-7.04,-2.79,-2.48,7.96
13.639501810073853,-8.48,-1.97,-2.32,9.0
13.649550914764404,-7.96,-1.94,-1.43,8.31
13.685948848724365,-5.87,-2.69,0.1,6.45
13.68730878829956,-4.36,-3.85,1.49,6.0
13.68831491470337,-4.2,-5.09,2.2,6.95
13.707279682159424,-4.67,-6.39,2.76,8.38
13.708349704742432,-4.99,-6.59,2.72,8.7
13.723567962646484,-5.07,-5.71,2.01,7.89
13.724620819091797,-4.48,-4.88,0.66,6.65
13.739019870758057,-3.5,-4.27,-0.69,5.56
13.74042272567749,-2.86,-3.93,-1.4,5.05
13.755743980407715,-2.46,-4.11,-2.3,5.31
13.785607814788818,-2.04,-4.59,-2.92,5.81
13.78703784942627,-2.06,-5.06,-2.9,6.18
13.78804087638855,-2.28,-5.99,-2.49,6.87
13.807361841201782,-2.6,-7.0,-1.9,7.7
13.80837082862854,-2.89,-7.71,-1.16,8.31
13.823517799377441,-3.24,-8.31,-0.59,8.93
13.824532985687256,-3.61,-8.99,-0.12,9.68
13.839294910430908,-3.93,-9.43,0.21,10.21
13.840786933898926,-4.0,-9.62,0.63,10.43
13.855493783950806,-3.76,-9.56,0.81,10.3
13.883042812347412,-3.29,-9.09,1.08,9.72
13.884306907653809,-2.47,-8.32,1.15,8.75
13.88536286354065,-0.77,-7.23,0.56,7.29
13.887752771377563,1.69,-5.95,0.26,6.19
13.8973069190979,4.17,-4.39,1.07,6.14
13.907436847686768,6.43,-2.55,2.18,7.25
13.917136669158936,8.39,-0.48,3.26,9.01
13.927099704742432,10.07,1.9,4.52,11.2
13.937374830245972,11.33,4.33,5.9,13.48
13.947306871414185,11.65,5.86,6.18,14.43
13.984208822250366,11.42,7.51,5.93,14.89
13.985489845275879,12.42,10.16,5.98,17.12
13.98655366897583,14.91,12.32,6.65,20.45
14.004148960113525,17.33,13.49,6.29,22.84
14.005234718322754,18.55,12.92,6.47,23.51
14.020748853683472,17.37,10.42,5.85,21.08
14.021769762039185,9.09,6.12,-1.81,11.1
14.039345741271973,-6.57,-0.21,-17.95,19.11
14.040876865386963,-21.23,40.55,-25.89,52.58
14.055158853530884,-21.35,62.95,0.68,66.47
14.056586742401123,-9.53,13.0,7.52,17.78
14.101716995239258,0.42,-9.28,4.39,10.27
14.102910995483398,6.02,-14.62,10.25,18.84
14.103926658630371,10.37,-14.34,11.82,21.28
14.124353885650635,11.28,-10.94,4.1,16.23
14.125397682189941,10.58,-5.23,0.78,11.82
14.140485763549805,7.23,4.08,0.41,8.31
14.141953945159912,2.33,6.12,-5.69,8.67
14.155996799468994,0.88,0.66,-5.2,5.31
14.157473802566528,1.24,-1.38,-1.77,2.56
14.172271728515625,1.21,-0.36,1.68,2.1
14.20173978805542,0.23,-0.18,3.98,3.99
14.20309066772461,-0.37,-0.72,3.56,3.65
14.204147815704346,0.03,-0.62,0.82,1.02
14.22433876991272,0.67,0.22,-0.43,0.82
14.225387811660767,0.95,0.32,0.19,1.02
14.24056887626648,0.8,-0.58,0.93,1.35
14.242029666900635,0.53,-1.0,0.92,1.45
14.256004810333252,0.45,-0.45,0.24,0.68
14.257459878921509,0.38,0.29,-0.6,0.76
14.272355794906616,0.44,0.56,-1.25,1.43
14.302144765853882,0.55,0.39,-1.47,1.61
14.303574800491333,0.41,0.22,-1.19,1.27
14.30456280708313,-0.17,0.18,-0.45,0.51
14.32418179512024,-0.86,0.31,0.27,0.95
14.32526683807373,-1.08,0.37,0.52,1.25
14.340381860733032,-0.91,0.35,0.33,1.02
14.341344833374023,-0.45,0.31,-0.4,0.67
14.356287956237793,0.08,0.25,-0.71,0.75
14.357802867889404,0.29,0.11,-0.66,0.72
14.37231183052063,0.0,0.1,-0.45,0.46
14.401335716247559,-0.54,0.33,-0.32,0.7
14.403459787368774,-0.8,0.72,-0.19,1.09
14.40447187423706,-0.88,0.92,-0.11,1.27
14.424303770065308,-0.98,0.93,-0.29,1.38
14.425378799438477,-1.22,0.85,-0.46,1.55
14.440884828567505,-1.47,0.79,-0.67,1.79
14.442391872406006,-1.49,0.62,-1.16,1.98
14.456275939941406,-1.36,0.52,-1.51,2.09
14.457752704620361,-0.98,0.56,-1.55,1.91
14.472413778305054,-0.48,0.59,-1.4,1.59
14.503941774368286,-0.3,0.7,-1.31,1.51
14.50526475906372,-0.47,0.8,-1.42,1.69
14.506281852722168,-0.95,0.99,-1.22,1.83
14.52434492111206,-1.39,1.3,-0.63,2.0
14.525389671325684,-1.67,1.44,-0.38,2.23
14.540589809417725,-1.97,1.57,-0.13,2.52
14.542023658752441,-2.27,2.31,-0.04,3.23
14.555746793746948,-2.25,2.66,-0.46,3.51
14.557177782058716,-2.29,2.91,-0.68,3.76
14.572423934936523,-2.56,3.06,-1.4,4.22
14.601995944976807,-2.9,3.34,-2.07,4.88
14.60333776473999,-3.16,3.94,-2.43,5.6
14.604320764541626,-3.62,4.61,-3.06,6.61
14.624542713165283,-4.43,5.31,-3.43,7.71
14.625563859939575,-5.77,6.61,-3.09,9.3
14.641045808792114,-7.72,8.89,-2.87,12.11
14.642555713653564,-9.85,11.75,-3.88,15.81
14.656921863555908,-11.76,14.21,-7.05,19.74
14.658378839492798,-12.77,14.76,-9.95,21.9
14.671112775802612,-12.85,13.67,-10.45,21.47
14.699878692626953,-12.69,12.04,-10.87,20.59
14.701323986053467,-11.55,13.44,-9.26,19.99
14.702364921569824,-7.28,16.84,-6.0,19.3
14.704606771469116,-0.59,17.7,-5.57,18.56
14.706098794937134,3.72,13.53,-5.73,15.15
14.71108078956604,2.12,4.66,-7.04,8.7
14.72118091583252,-2.41,-1.63,-7.74,8.26
14.73088788986206,-1.51,-0.61,-3.99,4.3
14.740891933441162,4.39,3.64,4.33,7.16
14.750950813293457,3.18,-2.14,0.3,3.84
14.787862777709961,-2.34,-4.45,-4.69,6.87
14.789171695709229,-5.85,-3.75,-3.17,7.63
14.79026174545288,-8.25,-2.45,-2.78,9.04
14.80788779258728,-9.36,-2.03,-2.61,9.92
14.808943748474121,-8.23,-3.0,-1.6,8.9
14.823783874511719,-5.65,-4.97,-0.59,7.54
14.82484769821167,-4.29,-6.76,0.69,8.03
14.83966064453125,-4.79,-7.71,0.92,9.12
14.841187000274658,-5.6,-8.25,0.93,10.01
14.855836868286133,-5.73,-8.26,0.24,10.05
14.860102653503418,-5.37,-8.06,-0.4,9.69
14.901564836502075,-5.01,-7.97,-1.23,9.49
14.902746677398682,-4.79,-8.09,-2.48,9.72
14.903743743896484,-4.7,-7.92,-3.12,9.72
14.924951791763306,-4.56,-7.84,-3.16,9.6
14.925983905792236,-4.29,-7.83,-2.94,9.39
14.940518856048584,-4.04,-7.83,-2.57,9.17
14.941848754882812,-3.93,-7.92,-2.25,9.12
14.956745862960815,-3.89,-7.95,-1.78,9.02
14.958257675170898,-3.82,-8.0,-1.31,8.96
14.972687721252441,-3.67,-8.26,-1.15,9.11
15.003016948699951,-3.46,-8.38,-0.91,9.11
15.004198789596558,-3.09,-8.14,-0.35,8.71
15.00524377822876,-2.64,-7.52,0.39,7.97
15.024600982666016,-1.53,-6.73,0.87,6.95
15.025638818740845,0.3,-5.62,0.68,5.66
15.0410737991333,2.42,-4.12,0.76,4.83
15.042523860931396,4.78,-2.54,1.85,5.72
15.05658483505249,6.95,-0.87,3.25,7.72
15.058059692382812,8.73,1.0,4.05,9.67
15.07269287109375,10.35,3.15,4.68,11.78
15.101578712463379,11.9,5.18,5.24,13.99
15.102880954742432,13.8,6.8,6.48,16.69
15.103883743286133,16.25,7.66,7.08,19.3
15.124810695648193,18.04,7.11,7.18,20.67
15.125856876373291,18.99,6.99,7.45,21.56
15.140860795974731,18.72,7.64,6.78,21.32
15.141920804977417,17.87,7.54,6.22,20.36
15.156704902648926,16.41,6.45,6.11,18.66
15.158163785934448,11.93,6.89,3.88,14.31
15.17296576499939,0.25,2.18,-7.0,7.33
15.200156688690186,-20.3,5.99,-31.54,37.98
15.201534748077393,-33.73,61.13,-22.52,73.36
15.20258092880249,-22.63,52.32,14.55,58.83
15.205209732055664,-6.06,0.68,1.5,6.27
15.207266807556152,4.86,-12.19,3.97,13.71
15.21743392944336,11.52,-14.59,14.71,23.7
15.227335929870605,12.81,-15.51,9.11,22.08
15.237060785293579,13.65,-11.78,-0.86,18.05
15.24680781364441,13.61,-5.34,1.31,14.67
15.257320880889893,9.83,0.41,3.96,10.6
15.292755842208862,2.22,4.19,-0.62,4.78
15.293962955474854,-2.5,3.15,-3.65,5.43
15.29497766494751,-3.62,1.91,-2.96,5.05
15.308655738830566,-1.23,1.2,0.78,1.88
15.309740781784058,1.78,-0.53,2.92,3.46
15.324143886566162,2.16,-2.05,2.32,3.77
15.32628083229065,1.19,-1.54,0.2,1.95
15.339555740356445,0.49,-0.01,-0.55,0.73
15.346678733825684,0.51,0.73,-0.3,0.93
15.356413841247559,0.65,0.18,-0.22,0.7
15.394393920898438,0.54,-0.29,0.12,0.62
15.395747661590576,0.21,-0.2,0.2,0.35
15.396732807159424,0.15,0.13,-0.16,0.25
15.40818476676941,0.4,0.31,-0.77,0.92
15.409207820892334,0.44,0.27,-1.0,1.12
15.42415976524353,0.05,0.27,-0.61,0.66
15.425405979156494,-0.47,0.35,0.27,0.64
15.439851760864258,-0.73,0.33,0.65,1.03
15.445679664611816,-0.62,0.26,0.23,0.71
15.456015825271606,-0.36,0.29,-0.35,0.57
15.491913795471191,-0.15,0.34,-0.62,0.72
15.493207931518555,-0.11,0.3,-0.58,0.66
15.494302749633789,-0.3,0.25,-0.39,0.55
15.508567810058594,-0.5,0.32,-0.21,0.62
15.509584903717041,-0.66,0.41,-0.09,0.78
15.524019718170166,-0.76,0.57,0.1,0.95
15.52505874633789,-0.75,0.63,0.03,0.97
15.53963565826416,-0.69,0.61,-0.17,0.93
15.544787883758545,-0.6,0.46,-0.58,0.95
15.55614185333252,-0.46,0.29,-0.75,0.92
15.589986801147461,-0.34,0.18,-0.86,0.94
15.591288805007935,-0.24,0.19,-0.85,0.9
15.592297792434692,-0.31,0.41,-0.81,0.95
15.608532905578613,-0.62,0.87,-0.8,1.33
15.60957384109497,-0.96,1.28,-1.13,1.95
15.624302864074707,-1.49,1.64,-1.0,2.43
15.625358819961548,-2.21,2.01,-0.96,3.13
15.640081882476807,-2.5,2.44,-0.81,3.58
15.644160747528076,-2.31,2.69,-0.76,3.62
15.656295776367188,-2.11,2.8,-0.92,3.62
15.664237976074219,-2.26,2.96,-1.03,3.86
15.700612783432007,-2.55,3.19,-1.21,4.25
15.70176887512207,-2.88,3.42,-1.75,4.8
15.702977657318115,-3.04,3.69,-2.05,5.2
15.704601764678955,-3.25,3.83,-2.31,5.52
15.713622808456421,-3.62,4.1,-2.51,6.01
15.723607778549194,-4.2,4.5,-2.68,6.71
15.733499765396118,-5.22,5.37,-2.74,7.97
15.743725776672363,-6.81,7.39,-2.71,10.4
15.753719806671143,-8.55,9.92,-3.7,13.6
15.763434886932373,-10.05,11.83,-6.4,16.79
15.794837951660156,-11.16,12.62,-9.1,19.14
15.796103954315186,-11.73,12.56,-10.62,20.2
15.797149658203125,-12.34,12.89,-11.19,21.06
15.80871295928955,-11.23,16.78,-8.25,21.81
15.812694787979126,-6.58,18.84,-5.78,20.77
15.822584867477417,-0.01,16.61,-6.15,17.71
15.832304954528809,3.89,11.73,-5.1,13.36
15.842282772064209,1.54,5.37,-7.2,9.11
15.852972984313965,-3.56,0.67,-7.44,8.27
15.862496852874756,-2.71,1.09,-3.76,4.76
15.894024848937988,5.19,7.77,4.02,10.17
15.895363807678223,7.3,1.33,3.37,8.14
15.896354675292969,1.91,-2.93,-3.35,4.84
15.908632755279541,-3.01,-3.1,-3.04,5.28
15.912032842636108,-5.9,-2.42,-2.17,6.73
15.924372673034668,-7.85,-2.37,-3.09,8.76
15.932010650634766,-8.63,-3.41,-3.37,9.87
15.941895961761475,-7.3,-5.2,-2.29,9.25
15.951888799667358,-5.53,-6.9,-0.68,8.86
15.961930751800537,-5.32,-7.97,0.24,9.58
15.992971897125244,-6.16,-8.6,0.85,10.61
15.994300842285156,-7.14,-8.76,0.7,11.32
15.995340824127197,-7.68,-8.84,-0.05,11.71
16.008765697479248,-7.76,-8.58,-0.76,11.59
16.011136770248413,-7.68,-8.05,-1.33,11.2
16.022639751434326,-8.06,-7.07,-1.53,10.83
16.03132677078247,-8.06,-6.8,-2.45,10.82
16.04109477996826,-7.5,-6.54,-2.84,10.34
16.051211833953857,-6.56,-6.68,-2.6,9.71
16.060946941375732,-5.92,-6.89,-2.15,9.33
16.097861766815186,-5.56,-7.35,-2.07,9.44
16.099190711975098,-5.16,-7.66,-2.11,9.47
16.100244998931885,-4.65,-7.86,-2.02,9.35
16.104633808135986,-4.17,-8.21,-2.02,9.42
16.12485384941101,-3.82,-8.42,-1.95,9.44
16.1259126663208,-3.46,-7.75,-1.16,8.56
16.139684677124023,-2.57,-6.47,-0.21,6.96
16.141150951385498,-0.87,-5.21,-0.11,5.28
16.156702995300293,1.61,-4.06,-0.16,4.37
16.16025972366333,4.54,-2.72,0.67,5.33
16.199582815170288,6.65,-0.51,2.55,7.14
16.20078992843628,7.49,2.16,4.13,8.82
16.202032804489136,8.13,4.84,5.09,10.74
16.204392910003662,9.93,7.2,6.04,13.67
16.22487187385559,12.52,8.82,6.75,16.73
16.225929737091064,15.1,9.19,6.04,18.68
16.239969730377197,16.99,9.32,4.94,19.99
16.240960836410522,18.4,9.56,4.59,21.23
16.25646686553955,19.91,8.81,4.42,22.21
16.25948667526245,21.67,8.01,4.95,23.62
16.30190682411194,22.14,6.35,4.6,23.48
16.30308485031128,19.52,4.2,4.39,20.44
16.304075717926025,8.99,3.63,0.45,9.7
16.325713872909546,-4.99,-2.88,-11.05,12.46
16.32681179046631,-22.96,28.5,-25.42,44.55
16.341803789138794,-29.75,69.28,-0.73,75.4
16.343308925628662,-17.35,27.58,6.15,33.15
16.357172966003418,-3.66,-7.17,-2.14,8.32
16.358638763427734,4.92,-15.05,6.65,17.17
16.373329877853394,9.81,-18.56,10.74,23.58
16.402514934539795,12.82,-15.75,4.8,20.86
16.403859853744507,14.28,-9.05,1.08,16.94
16.404886722564697,11.42,-3.32,4.67,12.77
16.42560386657715,4.85,0.41,2.31,5.38
16.426657676696777,-0.17,4.39,-2.84,5.23
16.441579818725586,-2.34,6.36,-4.09,7.91
16.443049907684326,-1.87,2.19,-0.13,2.88
16.457125663757324,1.05,-0.71,2.76,3.03
16.458570957183838,2.39,-1.8,2.02,3.61
16.47335195541382,2.22,-1.64,0.52,2.8
16.47480297088623,1.25,-0.62,-0.09,1.39
16.520904779434204,0.47,-0.14,0.36,0.6
16.5220627784729,0.44,-0.22,0.87,0.99
16.523066997528076,0.71,-0.23,0.38,0.83
16.542264938354492,0.68,0.23,-0.53,0.89
16.54373598098755,0.39,0.68,-1.02,1.28
16.55906867980957,0.32,0.72,-0.71,1.06
16.560539722442627,0.28,0.24,-0.37,0.52
16.574097871780396,0.34,-0.3,0.01,0.45
16.57556390762329,0.51,-0.64,-0.41,0.91
16.589958667755127,0.49,-0.37,-0.47,0.77
16.62175989151001,0.07,0.17,0.13,0.22
16.62318468093872,-0.31,0.42,0.34,0.62
16.62415885925293,-0.49,0.46,0.34,0.75
16.64254879951477,-0.58,0.48,0.36,0.83
16.643939971923828,-0.6,0.48,0.24,0.8
16.658416748046875,-0.49,0.45,-0.11,0.67
16.65990972518921,-0.37,0.49,-0.37,0.71
16.67374587059021,-0.45,0.59,-0.54,0.91
16.675248861312866,-0.61,0.73,-0.61,1.13
16.69006586074829,-0.67,0.8,-0.51,1.16
16.720770835876465,-0.8,0.78,-0.46,1.2
16.72207283973694,-1.03,0.92,-0.12,1.38
16.723082780838013,-1.15,0.76,-0.51,1.46
16.742201805114746,-1.0,0.82,-0.71,1.47
16.743688821792603,-0.73,1.18,-0.8,1.6
16.758432865142822,-0.75,1.31,-1.06,1.84
16.75986886024475,-0.99,1.52,-0.97,2.05
16.774427890777588,-1.43,1.57,-0.96,2.33
16.775890827178955,-1.77,1.68,-0.66,2.52
16.790220737457275,-2.01,1.73,-0.35,2.67
16.820599794387817,-2.11,1.81,-0.33,2.79
16.821793794631958,-2.11,1.99,-0.67,2.97
16.822755813598633,-2.18,2.32,-1.08,3.36
16.842471837997437,-2.27,2.73,-1.21,3.75
16.84398579597473,-2.56,3.01,-1.44,4.2
16.858506679534912,-3.05,3.26,-1.67,4.76
16.859991788864136,-3.61,3.56,-1.97,5.43
16.873802661895752,-4.08,3.85,-2.46,6.12
16.875317811965942,-4.52,4.13,-2.95,6.79
16.88990879058838,-5.08,4.59,-3.14,7.53
16.919047832489014,-5.8,5.53,-2.93,8.53
16.92050576210022,-6.94,7.49,-2.72,10.56
16.921523809432983,-8.66,10.03,-4.38,13.95
16.939889907836914,-10.36,11.72,-7.42,17.31
16.94100284576416,-11.53,12.14,-9.5,19.25
16.956543922424316,-12.31,13.28,-10.26,20.81
16.95802593231201,-11.43,17.47,-8.26,22.45
16.974223852157593,-7.37,20.09,-6.94,22.49
16.975741863250732,-1.03,18.51,-8.53,20.4
16.990213871002197,2.97,14.33,-7.28,16.34
17.019028663635254,1.62,7.2,-8.32,11.12
17.020514965057373,-3.29,1.33,-8.78,9.47
17.021525859832764,-3.92,-0.75,-6.49,7.61
17.04224395751953,3.46,5.98,0.99,6.97
17.04332685470581,6.55,1.42,3.28,7.46
17.05752682685852,0.68,-3.56,-4.03,5.42
17.059009790420532,-4.58,-4.16,-4.44,7.61
17.07408380508423,-7.26,-3.2,-2.61,8.35
17.075580835342407,-8.65,-1.93,-2.39,9.17
17.090308666229248,-8.79,-1.48,-1.96,9.12
17.118897914886475,-7.51,-2.41,-1.01,7.95
17.12031888961792,-5.96,-4.11,0.22,7.24
17.121290683746338,-5.64,-6.09,0.83,8.34
17.142284870147705,-6.27,-7.6,1.05,9.9
17.14329767227173,-6.91,-7.91,1.64,10.63
17.15736484527588,-7.15,-7.46,1.55,10.44
17.15882682800293,-7.05,-6.83,0.62,9.83
17.174264907836914,-6.71,-6.28,0.18,9.19
17.175732851028442,-6.4,-6.02,-0.9,8.83
17.190375804901123,-5.47,-6.13,-2.09,8.47
17.218259811401367,-4.7,-5.59,-2.28,7.65
17.219650745391846,-4.3,-5.38,-2.17,7.22
17.22061777114868,-3.92,-5.93,-2.1,7.41
17.22282886505127,-3.52,-6.77,-2.12,7.91
17.22423481941223,-3.16,-7.69,-2.4,8.65
17.225655794143677,-2.89,-8.46,-2.49,9.28
17.23173475265503,-2.64,-8.77,-2.03,9.38
17.242198944091797,-2.54,-8.66,-0.96,9.07
17.251795768737793,-2.52,-8.3,-0.14,8.67
17.261952877044678,-1.82,-7.56,-0.19,7.77
17.272108793258667,-0.07,-6.41,-0.14,6.41
17.29850196838379,1.94,-5.18,1.07,5.63
17.299705982208252,3.71,-3.58,3.09,6.01
17.301355838775635,5.5,-1.41,5.36,7.8
17.31132483482361,7.43,1.02,7.23,10.41
17.32163381576538,9.65,3.89,8.81,13.63
17.331411838531494,11.82,6.61,9.63,16.61
17.341165781021118,13.95,8.35,9.48,18.82
17.351499795913696,16.22,9.05,8.27,20.33
17.361496925354004,17.63,9.41,6.54,21.02
17.371362686157227,18.58,10.26,5.28,21.87
17.40501070022583,19.91,10.71,4.22,22.99
17.40626096725464,21.21,10.6,3.27,23.93
17.407251834869385,21.1,9.72,3.74,23.53
17.425856828689575,13.95,8.25,-0.83,16.22
17.426931858062744,-1.67,-3.49,-14.99,15.48
17.441603660583496,-21.0,19.29,-29.69,41.16
17.442646980285645,-28.48,65.29,-3.62,71.32
17.45760488510132,-16.52,34.65,10.89,39.9
17.460408687591553,-2.5,-3.19,1.29,4.25
17.47369384765625,3.47,-12.94,5.81,14.6
17.503390789031982,5.84,-18.27,9.66,21.47
17.504724979400635,10.56,-13.36,5.34,17.84
17.505741834640503,12.89,-7.44,1.41,14.94
17.525571823120117,12.63,-3.96,0.95,13.27
17.526631832122803,9.41,6.27,1.89,11.46
17.54307985305786,2.19,5.62,-3.5,6.97
17.544083833694458,-0.34,0.71,-2.54,2.65
17.558026790618896,-0.73,-0.58,-0.64,1.13
17.559753894805908,0.6,0.31,3.11,3.18
17.573766708374023,1.74,-0.24,3.94,4.31
17.605034828186035,1.23,-1.62,2.27,3.04
17.60639476776123,0.54,-1.11,0.78,1.46
17.607402801513672,0.33,0.1,0.2,0.39
17.626680850982666,0.34,0.31,0.12,0.47
17.627673864364624,0.45,-0.14,-0.11,0.48
17.641984939575195,0.62,-0.3,-0.33,0.76
17.643022775650024,0.45,-0.13,-0.26,0.53
17.657745838165283,0.34,0.18,-0.3,0.48
17.65920877456665,0.41,0.29,-0.56,0.75
17.67411470413208,0.42,0.14,-0.96,1.05
17.708967685699463,0.25,0.18,-1.12,1.16
17.710314750671387,-0.05,0.4,-0.56,0.69
17.711305856704712,-0.46,0.44,0.27,0.69
17.725884914398193,-0.88,0.27,0.55,1.07
17.7269287109375,-1.06,0.23,0.28,1.12
17.741662979125977,-0.87,0.39,-0.17,0.96
17.742697715759277,-0.52,0.57,-0.61,0.98
17.75735569000244,-0.37,0.58,-1.01,1.22
17.7584068775177,-0.56,0.64,-0.96,1.28
17.77375364303589,-0.7,0.77,-0.67,1.23
17.807057857513428,-0.78,0.71,-0.52,1.17
17.80831289291382,-1.05,0.67,-0.29,1.27
17.809314727783203,-1.22,0.68,-0.24,1.41
17.825905799865723,-1.27,0.51,-0.5,1.45
17.82694387435913,-1.23,0.4,-0.61,1.43
17.84194278717041,-1.0,0.37,-0.76,1.3
17.84295678138733,-0.73,0.4,-0.94,1.25
17.857789993286133,-0.43,0.54,-1.04,1.24
17.859267711639404,-0.27,0.79,-1.03,1.32
17.87387776374817,-0.54,0.98,-1.01,1.5
17.90571689605713,-1.11,1.12,-0.77,1.75
17.906957864761353,-1.8,1.31,-0.2,2.23
17.90780782699585,-1.97,1.44,-0.02,2.44
17.926077842712402,-1.8,1.49,-0.33,2.35
17.927117824554443,-1.76,1.99,-0.53,2.7
17.941832780838013,-1.87,2.48,-0.99,3.25
17.94286870956421,-1.81,3.15,-0.81,3.72
17.95707368850708,-2.07,3.4,-0.92,4.08
17.958106994628906,-2.51,3.36,-1.18,4.35
17.974186897277832,-3.06,3.29,-1.28,4.67
18.002970695495605,-3.5,3.35,-1.43,5.05
18.004228830337524,-3.94,3.66,-1.87,5.69
18.00509786605835,-4.76,4.49,-2.38,6.96
18.026182651519775,-6.06,6.39,-2.46,9.14
18.02717685699463,-8.02,9.53,-3.07,12.82
18.042098999023438,-9.81,12.26,-6.0,16.8
18.043165683746338,-11.07,13.42,-9.1,19.63
18.055558681488037,-12.09,13.31,-10.13,20.63
18.056703805923462,-12.59,13.86,-8.89,20.72
18.07199192047119,-11.69,16.13,-6.85,21.06
18.075857877731323,-7.4,17.06,-6.8,19.8
18.117015838623047,-1.29,14.92,-8.24,17.09
18.118010997772217,3.58,14.0,-5.07,15.31
18.118979930877686,3.24,9.08,-4.53,10.65
18.121845722198486,-1.92,1.62,-7.59,7.99
18.14231586456299,-4.07,-1.38,-7.61,8.73
18.143346786499023,2.33,5.83,-1.95,6.57
18.15751576423645,6.1,4.47,1.93,7.8
18.15855073928833,1.02,-1.06,-3.7,3.98
18.174003839492798,-4.39,-1.52,-3.71,5.94
18.175413846969604,-7.42,-0.9,-2.42,7.85
18.218406677246094,-9.29,-0.95,-3.18,9.86
18.219552993774414,-9.15,-2.38,-2.86,9.87
18.2207088470459,-7.12,-4.66,-0.88,8.55
18.22211790084839,-5.48,-7.62,1.01,9.44
18.224342823028564,-5.83,-9.44,1.75,11.23
18.23460078239441,-7.3,-10.06,1.77,12.55
18.244504928588867,-8.46,-9.87,1.46,13.08
18.25463581085205,-8.57,-9.03,0.7,12.46
18.264205932617188,-7.65,-8.38,-0.34,11.35
18.274109840393066,-7.2,-7.36,-1.08,10.35
18.30409574508667,-7.06,-7.49,-2.01,10.48
18.30509090423584,-6.77,-7.59,-2.38,10.44
18.305892944335938,-6.5,-7.27,-2.53,10.07
18.32602286338806,-6.04,-7.38,-2.61,9.88
18.327096939086914,-5.33,-7.8,-2.58,9.79
18.34220576286316,-4.62,-8.31,-2.53,9.83
18.343352794647217,-4.17,-8.78,-2.52,10.04
18.357731819152832,-3.86,-9.23,-2.25,10.25
18.36345672607422,-3.46,-9.49,-1.84,10.26
18.374212741851807,-2.6,-9.32,-1.32,9.76
18.40503692626953,-1.3,-8.85,-0.86,8.98
18.406394958496094,0.14,-8.15,-0.3,8.15
18.40731191635132,1.76,-7.22,-0.53,7.45
18.426061868667603,3.73,-5.77,-0.32,6.87
18.427116870880127,5.83,-3.95,1.37,7.17
18.442242860794067,7.87,-1.82,3.59,8.83
18.443294763565063,9.67,-0.03,4.52,10.67
18.45774269104004,10.82,1.52,4.32,11.74
18.462885856628418,11.6,4.72,4.95,13.46
18.473926782608032,13.56,8.98,6.47,17.5
18.509527683258057,16.32,12.64,6.81,21.73
18.51086688041687,18.72,15.88,6.67,25.43
18.512099742889404,20.93,18.42,6.47,28.62
18.513076782226562,22.84,17.41,5.96,29.33
18.523310661315918,20.12,18.49,5.53,27.87
18.53209686279297,10.07,9.56,-4.75,14.67
18.54242467880249,-7.67,0.5,-20.77,22.14
18.552185773849487,-24.33,38.37,-26.16,52.42
18.562606811523438,-26.59,47.74,3.07,54.73
18.571881771087646,-13.37,8.83,10.9,19.37
18.607547760009766,-0.02,-6.6,9.87,11.87
18.608519792556763,8.68,-7.01,14.18,18.04
18.60931968688965,10.59,-9.67,8.6,16.72
18.626189708709717,10.49,-10.1,-0.37,14.56
18.627246856689453,10.59,-5.05,-3.86,12.35
18.642140865325928,9.75,1.01,-4.01,10.59
18.643110752105713,5.98,1.99,-3.88,7.4
18.657957792282104,2.58,0.33,-2.6,3.67
18.66102170944214,0.28,-0.24,-1.37,1.41
18.674256801605225,-0.64,1.05,0.94,1.54
18.70895290374756,-0.65,1.16,2.46,2.79
18.710272789001465,-0.44,-0.37,3.13,3.18
18.711256980895996,-0.3,-1.5,2.54,2.96
18.72516393661499,-0.09,-1.1,0.93,1.44
18.726208686828613,0.09,0.11,0.08,0.16
18.742207765579224,0.22,0.57,-0.12,0.62
18.74325466156006,0.44,-0.07,0.1,0.45
18.757913827896118,0.79,-0.66,-0.09,1.03
18.76037883758545,1.12,-0.61,-0.7,1.45
18.77425193786621,1.14,-0.11,-1.53,1.91
18.809627771377563,0.72,0.54,-1.48,1.73
18.810800790786743,0.05,0.8,-0.46,0.92
18.81160879135132,-0.64,0.48,0.77,1.11
18.826417922973633,-0.91,0.13,1.15,1.47
18.82747483253479,-0.67,0.04,0.74,0.99
18.842198848724365,-0.16,0.16,0.09,0.24
18.843206882476807,0.25,0.3,-0.49,0.62
18.858184814453125,0.29,0.31,-0.77,0.87
18.859460830688477,0.02,0.47,-0.53,0.7
18.87437868118286,-0.46,0.62,-0.14,0.78
18.87988567352295,-0.84,0.75,0.03,1.12
18.920299768447876,-1.06,0.8,-0.13,1.33
18.921438694000244,-1.17,0.87,-0.35,1.49
18.922440767288208,-1.24,0.82,-0.64,1.61
18.943288803100586,-1.24,0.7,-0.72,1.59
18.944260835647583,-1.18,0.63,-0.87,1.59
18.958844661712646,-0.95,0.68,-1.04,1.56
18.959842681884766,-0.57,0.8,-1.03,1.42
18.974730968475342,-0.4,1.0,-1.12,1.55
18.976093769073486,-0.4,1.3,-1.12,1.76
18.991126775741577,-1.1,1.81,-1.07,2.37
19.02062487602234,-1.87,2.55,-0.75,3.24
19.021768808364868,-2.43,2.58,-0.04,3.54
19.022571802139282,-2.74,2.42,0.77,3.73
19.0431547164917,-2.91,2.12,0.29,3.61
19.04417896270752,-2.8,2.16,-0.47,3.56
19.059297800064087,-2.6,2.51,-1.4,3.87
19.060333728790283,-2.61,2.84,-2.49,4.59
19.074920654296875,-2.8,3.33,-2.9,5.22
19.07638692855835,-3.19,3.82,-3.08,5.85
19.09114980697632,-3.84,4.1,-3.16,6.44
19.12018084526062,-4.66,4.41,-3.02,7.09
19.121453762054443,-5.69,5.17,-2.75,8.16
19.12244176864624,-7.35,6.93,-3.05,10.55
19.143056869506836,-9.05,9.68,-4.16,13.88
19.14414882659912,-10.02,11.7,-6.93,16.89
19.1571307182312,-10.74,11.83,-9.47,18.57
19.158212661743164,-11.69,11.4,-10.95,19.66
19.175405979156494,-11.99,13.35,-10.66,20.87
19.1769278049469,-9.68,17.91,-7.77,21.79
19.190512657165527,-4.45,18.85,-7.21,20.66
19.219817876815796,1.25,16.05,-8.54,18.22
19.221245765686035,2.91,9.79,-7.62,12.74
19.222221851348877,-0.31,2.89,-8.0,8.51
19.243114948272705,-4.06,-1.62,-6.52,7.84
19.244125843048096,-1.06,-0.55,-4.22,4.38
19.259561777114868,7.52,7.29,3.32,10.98
19.260549783706665,8.92,0.23,4.87,10.16
19.274935722351074,3.25,-3.67,-3.18,5.84
19.275962829589844,-2.53,-3.87,-4.13,6.19
19.291385650634766,-6.28,-2.85,-2.33,7.27
19.31947088241577,-8.85,-2.18,-2.37,9.41
19.320708751678467,-9.87,-2.75,-2.12,10.46
19.32154679298401,-8.42,-4.56,-0.51,9.58
19.32415771484375,-6.07,-6.68,1.12,9.09
19.326080799102783,-5.21,-8.85,2.27,10.51
19.33601188659668,-5.79,-10.37,3.04,12.25
19.3464457988739,-6.9,-10.04,2.85,12.51
19.35621166229248,-7.88,-8.39,1.94,11.67
19.36594867706299,-7.88,-7.4,0.38,10.81
19.375738859176636,-7.47,-6.69,-0.72,10.05
19.412827968597412,-6.96,-6.42,-1.68,9.61
19.413983821868896,-6.52,-5.99,-2.43,9.18
19.414936780929565,-6.29,-5.63,-2.84,8.9
19.42689275741577,-5.98,-5.9,-3.0,8.92
19.427977800369263,-5.56,-6.62,-2.89,9.11
19.442948818206787,-5.05,-7.14,-2.52,9.1
19.445218801498413,-4.71,-7.16,-2.2,8.84
19.457498788833618,-4.27,-7.57,-1.91,8.89
19.464934825897217,-3.92,-7.85,-1.73,8.94
19.475099802017212,-3.75,-8.09,-1.52,9.04
19.512695789337158,-3.54,-8.11,-1.2,8.92
19.514538764953613,-3.24,-7.46,-0.56,8.15
19.515553951263428,-2.64,-6.27,0.26,6.8
19.524016857147217,-1.31,-4.99,0.17,5.16
19.525165796279907,1.06,-3.33,-0.84,3.59
19.54299283027649,3.61,-1.1,-0.74,3.84
19.544373989105225,6.09,1.74,1.22,6.45
19.558581829071045,8.76,4.73,3.53,10.56
19.564817905426025,11.28,6.94,4.69,14.04
19.57485294342041,13.56,8.82,5.79,17.18
19.61282777786255,15.22,9.93,6.24,19.21
19.614179849624634,16.72,9.88,7.28,20.74
19.61520290374756,17.86,8.3,7.73,21.15
19.626726865768433,17.86,7.03,8.19,20.86
19.62773585319519,16.82,6.63,8.21,19.85
19.642655849456787,15.61,5.85,7.59,18.31
19.643701791763306,14.57,5.01,6.86,16.86
19.658365726470947,13.16,4.52,6.18,15.22
19.663574695587158,9.14,6.11,1.18,11.05
19.67473793029785,-0.63,-1.14,-10.53,10.61
19.683998823165894,-17.02,-1.04,-35.77,39.62
19.71367597579956,-27.14,50.04,-23.81,61.7
19.714858770370483,-16.98,55.91,16.54,60.72
19.716059684753418,-4.27,6.22,3.43,8.28
19.72792387008667,2.18,-12.17,3.17,12.76
19.733008861541748,6.38,-16.15,12.13,21.18
19.74302887916565,10.44,-13.58,9.12,19.4
19.752991676330566,10.77,-10.14,0.36,14.79
19.763038873672485,10.52,-5.94,-0.98,12.12
19.773252964019775,8.38,1.76,2.58,8.94
19.7831449508667,2.59,7.88,-1.29,8.39
19.813788890838623,-1.06,3.37,-3.22,4.78
19.815135955810547,-1.08,-0.37,-1.17,1.63
19.816144943237305,1.14,-0.46,0.87,1.5
19.82705783843994,2.66,-0.29,2.01,3.34
19.83229398727417,1.68,-1.1,2.23,3.0
19.84250497817993,0.37,-1.26,1.45,1.95
19.85247778892517,0.28,-0.37,0.47,0.66
19.862263679504395,0.84,0.33,-0.42,0.99
19.8724308013916,1.02,0.26,-0.46,1.14
19.882285833358765,0.68,-0.1,-0.03,0.68
19.913586854934692,0.36,-0.31,0.38,0.6
19.914870738983154,0.43,-0.2,0.53,0.71
19.915894985198975,0.56,-0.07,0.31,0.64
19.927198886871338,0.57,-0.05,-0.23,0.61
19.931506872177124,0.44,0.0,-0.56,0.71
19.94244384765625,0.08,0.23,-0.1,0.26
19.95199489593506,-0.26,0.25,0.3,0.46
19.961604833602905,-0.28,0.03,-0.11,0.3
19.971675872802734,-0.18,0.03,-0.29,0.34
19.98137879371643,-0.12,0.23,-0.26,0.36
20.01266384124756,-0.18,0.23,-0.37,0.47
20.013913869857788,-0.39,0.37,-0.15,0.55
20.014927864074707,-0.6,0.57,-0.21,0.85
20.026939868927002,-0.64,0.72,-0.36,1.02
20.030810832977295,-0.67,0.86,-0.35,1.14
20.042791843414307,-1.01,0.87,-0.44,1.4
20.05082368850708,-1.59,0.82,-0.69,1.91
20.060802936553955,-1.86,0.84,-0.9,2.23
20.070741653442383,-1.49,0.77,-1.09,2.0
20.08075189590454,-0.97,0.52,-1.34,1.73
20.11801290512085,-0.81,0.4,-1.57,1.81
20.119479656219482,-0.89,0.6,-1.6,1.92
20.120452880859375,-0.73,0.98,-1.33,1.8
20.12275791168213,-0.34,1.18,-1.05,1.61
20.142935752868652,-0.38,1.17,-0.75,1.44
20.143980979919434,-0.9,1.23,-0.45,1.58
20.158833980560303,-1.71,1.44,-0.12,2.23
20.16029381752014,-2.06,1.77,0.31,2.73
20.174977779388428,-2.46,2.16,-0.11,3.27
20.18005895614624,-2.23,2.48,-0.46,3.36
20.217453956604004,-2.01,2.76,-0.9,3.53
20.21868896484375,-1.86,2.92,-1.57,3.8
20.21983575820923,-1.98,3.12,-1.98,4.19
20.223840713500977,-2.35,3.41,-2.0,4.59
20.243080854415894,-2.92,3.75,-1.84,5.09
20.24456286430359,-3.7,3.99,-1.97,5.78
20.25906991958618,-4.76,4.44,-2.12,6.84
20.260541915893555,-5.82,5.44,-2.2,8.26
20.274878978729248,-7.05,7.27,-2.44,10.41
20.279252767562866,-8.59,9.66,-3.62,13.42
20.318983793258667,-10.1,11.56,-6.28,16.58
20.320141792297363,-11.22,12.31,-8.44,18.67
20.321431875228882,-11.94,11.88,-9.25,19.21
20.323381900787354,-12.35,11.34,-9.7,19.37
20.32853889465332,-11.28,14.12,-7.34,19.5
20.339422702789307,-6.72,18.03,-3.93,19.63
20.348362922668457,-0.56,16.98,-5.19,17.76
20.358263969421387,3.0,11.18,-7.63,13.86
20.368631839752197,1.5,5.87,-9.46,11.23
20.37860083580017,-3.76,1.89,-8.33,9.33
20.412486791610718,-5.03,-1.15,-6.98,8.68
20.413808822631836,2.06,4.61,-1.72,5.33
20.41483974456787,6.84,2.82,3.45,8.16
20.426724910736084,3.12,-3.24,-1.72,4.81
20.427761793136597,-2.75,-4.94,-4.08,6.97
20.44315767288208,-6.65,-4.49,-2.47,8.39
20.44752788543701,-9.09,-3.61,-2.55,10.1
20.458862781524658,-10.33,-3.26,-2.58,11.13
20.467862844467163,-9.52,-3.6,-1.58,10.29
20.477555751800537,-7.42,-4.78,-0.14,8.82
20.487950801849365,-5.91,-6.73,1.0,9.01
20.51838183403015,-5.74,-8.2,1.67,10.14
20.519568920135498,-6.65,-8.39,1.69,10.83
20.52079677581787,-7.04,-7.94,0.92,10.65
20.527068853378296,-6.66,-6.95,-0.17,9.62
20.54338264465332,-6.13,-6.17,-1.15,8.77
20.546926975250244,-5.35,-6.1,-2.78,8.57
20.558860778808594,-4.63,-5.53,-3.61,8.06
20.567065715789795,-4.18,-4.99,-3.85,7.56
20.576854705810547,-3.72,-5.28,-3.74,7.46
20.58669877052307,-3.14,-5.89,-3.39,7.48
20.61730670928955,-2.36,-6.52,-3.14,7.61
20.618496894836426,-1.55,-7.2,-3.16,8.01
20.619762897491455,-0.82,-7.99,-3.46,8.74
20.62625789642334,-0.37,-8.73,-3.45,9.39
20.636351823806763,-0.23,-8.98,-2.72,9.38
20.64626693725586,-0.23,-8.38,-1.36,8.49
20.656484842300415,0.07,-7.38,-0.77,7.42
20.66653871536255,1.46,-6.41,-0.78,6.62
20.67625880241394,3.06,-5.18,0.14,6.01
20.68620491027832,4.0,-3.48,2.08,5.69
20.717941761016846,4.72,-1.05,4.32,6.48
20.719138860702515,5.99,1.6,6.09,8.69
20.72034978866577,7.67,4.43,7.34,11.5
20.72555184364319,9.42,7.3,8.09,14.4
20.743231773376465,11.67,9.42,8.71,17.34
20.745370864868164,13.69,9.79,7.92,18.6
20.759053707122803,15.43,10.24,7.17,19.85
20.766204833984375,16.98,11.25,7.26,21.62
20.77536392211914,18.74,11.6,7.96,23.43
20.78592586517334,19.33,10.85,7.63,23.44
20.815874814987183,18.06,8.46,8.42,21.64
20.817054748535156,14.35,6.27,7.28,17.26
20.818272829055786,7.47,3.13,-1.24,8.19
20.825639724731445,-7.27,-6.81,-17.65,20.26
20.834921836853027,-27.92,14.56,-36.28,48.03
20.844711780548096,-29.45,60.78,3.68,67.63
20.854583740234375,-10.84,36.55,18.57,42.4
20.864421844482422,1.23,-0.24,2.32,2.63
20.874943733215332,4.2,-11.83,3.66,13.07
20.884726762771606,7.29,-15.24,7.9,18.64
20.920945644378662,9.94,-13.04,3.33,16.73
20.922313690185547,10.46,-8.63,-2.72,13.83
20.923402786254883,10.53,-2.78,0.31,10.89
20.94400978088379,7.92,5.44,1.33,9.69
20.945058822631836,2.05,4.34,-3.4,5.88
20.959208965301514,-0.13,-0.28,-2.07,2.09
20.96066665649414,-0.52,-0.66,0.91,1.23
20.975815773010254,0.24,0.07,4.97,4.97
20.97728681564331,0.35,-0.23,4.16,4.18
20.992153644561768,0.27,-0.51,0.72,0.92
21.020120859146118,0.67,-0.01,-0.64,0.92
21.021363735198975,1.19,0.23,-0.53,1.32
21.022369861602783,1.01,-0.29,0.02,1.05
21.0238299369812,0.6,-0.64,0.12,0.88
21.033443927764893,0.56,-0.5,-0.17,0.76
21.043214797973633,0.82,-0.27,-0.44,0.96
21.053319931030273,1.02,-0.15,-0.74,1.26
21.063178777694702,0.95,-0.01,-0.7,1.18
21.073360919952393,0.52,0.1,-0.55,0.76
21.083144664764404,0.03,0.24,-0.05,0.24
21.11867380142212,-0.35,0.38,0.55,0.75
21.120055675506592,-0.61,0.39,0.74,1.03
21.121020793914795,-0.51,0.27,0.31,0.65
21.12371587753296,-0.08,0.14,-0.19,0.24
21.14380168914795,0.22,0.03,-0.58,0.62
21.144834995269775,0.04,0.09,-0.72,0.72
21.159515857696533,-0.46,0.36,-0.64,0.86
21.162413835525513,-0.68,0.58,-0.48,1.01
21.175477981567383,-0.56,0.63,-0.38,0.92
21.18252182006836,-0.46,0.57,-0.22,0.76
21.21770191192627,-0.58,0.45,-0.2,0.76
21.21881079673767,-0.76,0.33,-0.25,0.86
21.220200777053833,-0.91,0.31,-0.37,1.03
21.224037647247314,-0.95,0.38,-0.61,1.19
21.23177480697632,-0.91,0.55,-0.72,1.28
21.24326467514038,-0.7,0.7,-0.8,1.27
21.25184679031372,-0.5,0.75,-0.88,1.25
21.261730670928955,-0.45,0.74,-0.88,1.23
21.27189588546753,-0.69,0.82,-0.76,1.31
21.28172278404236,-1.05,0.97,-0.72,1.6
21.29184579849243,-1.36,1.05,-0.79,1.89
21.323631763458252,-1.64,1.56,-0.18,2.27
21.324814796447754,-1.82,2.04,-0.19,2.74
21.325851917266846,-1.9,2.24,-0.64,3.0
21.34452986717224,-1.73,2.54,-0.46,3.1
21.345557689666748,-1.85,2.39,-1.04,3.19
21.360363960266113,-1.74,2.37,-1.63,3.36
21.36181378364563,-1.62,2.42,-1.95,3.5
21.37589693069458,-1.79,2.66,-2.14,3.85
21.381027698516846,-2.23,3.13,-2.09,4.37
21.39192771911621,-2.94,3.68,-2.12,5.16
21.422740936279297,-3.87,4.34,-2.31,6.25
21.424068927764893,-5.06,5.15,-2.43,7.61
21.42508888244629,-6.64,6.79,-2.39,9.79
21.44401788711548,-8.39,9.28,-2.89,12.83
21.44550895690918,-9.97,11.56,-5.01,16.06
21.458971977233887,-11.21,12.47,-7.41,18.33
21.460452795028687,-12.04,12.13,-8.33,19.01
21.476749897003174,-12.46,11.06,-8.79,18.83
21.480381965637207,-12.09,12.87,-7.21,19.07
21.491159915924072,-8.52,16.48,-4.9,19.18
21.52170991897583,-2.19,16.23,-6.7,17.69
21.523148775100708,2.99,14.14,-6.93,16.02
21.524152755737305,3.48,8.71,-6.52,11.42
21.54399085044861,-1.66,2.2,-8.52,8.95
21.545023918151855,-5.85,-1.92,-7.78,9.92
21.56052589416504,-2.4,0.11,-6.07,6.52
21.5619797706604,4.57,4.28,0.58,6.28
21.575992822647095,3.2,-1.0,-0.87,3.46
21.57913875579834,-2.46,-3.25,-4.69,6.21
21.592296838760376,-6.53,-3.49,-3.35,8.12
21.620556831359863,-9.45,-2.71,-2.92,10.25
21.621932983398438,-11.5,-2.41,-3.27,12.19
21.622894763946533,-11.51,-2.92,-2.29,12.09
21.62877082824707,-8.87,-3.87,0.02,9.67
21.638661861419678,-6.26,-5.62,1.56,8.55
21.649062871932983,-4.96,-7.93,2.18,9.6
21.658947944641113,-5.01,-8.56,1.56,10.04
21.668860912322998,-5.44,-7.56,0.97,9.36
21.67869782447815,-5.38,-6.53,-0.25,8.46
21.6887788772583,-4.66,-6.05,-1.85,7.85
21.72558879852295,-3.93,-5.45,-2.97,7.34
21.726844787597656,-3.34,-4.86,-3.46,6.83
21.72787880897522,-2.6,-4.72,-3.68,6.52
21.74446988105774,-1.95,-5.01,-3.8,6.58
21.745526790618896,-1.7,-5.65,-3.66,6.94
21.760416984558105,-1.77,-6.59,-3.36,7.6
21.76189088821411,-1.72,-7.5,-3.05,8.27
21.77613592147827,-1.34,-8.12,-2.51,8.6
21.777641773223877,-1.01,-8.44,-1.58,8.64
21.79250192642212,-0.88,-8.23,-0.58,8.29
21.824087858200073,-0.66,-7.3,-0.32,7.33
21.825390815734863,0.7,-5.91,-0.21,5.95
21.82643175125122,3.01,-4.5,0.6,5.44
21.84450387954712,5.45,-3.06,1.86,6.52
21.845552921295166,7.41,-1.43,3.04,8.13
21.860636711120605,8.31,0.4,3.77,9.13
21.862088680267334,8.53,2.63,4.45,9.97
21.876161813735962,9.1,5.01,5.18,11.6
21.87765598297119,10.73,7.12,6.19,14.28
21.892380714416504,12.97,8.38,6.77,16.86
21.923929691314697,14.56,8.85,7.05,18.43
21.925214767456055,15.57,8.82,6.83,19.15
21.926283836364746,15.77,8.57,6.71,19.16
21.944669723510742,15.97,8.64,7.04,19.47
21.9461669921875,16.31,7.54,7.13,19.33
21.960702896118164,15.59,5.74,7.27,18.13
21.962167739868164,12.62,5.73,5.47,14.9
21.976179838180542,5.02,3.54,-1.38,6.29
21.977688789367676,-8.3,-6.31,-16.4,19.43
21.99231767654419,-24.34,20.78,-31.0,44.55
22.02345585823059,-23.8,60.5,0.33,65.01
22.02480387687683,-8.8,30.51,13.27,34.41
22.025832653045654,0.98,-3.65,1.31,3.99
22.04438877105713,7.24,-9.55,6.77,13.76
22.045408725738525,10.83,-11.47,10.23,18.8
22.061014652252197,11.02,-12.04,4.49,16.92
22.062501907348633,10.87,-8.06,0.38,13.53
22.076294898986816,9.45,-1.0,1.58,9.63
22.077793836593628,4.84,3.22,-1.17,5.92
22.09247398376465,0.99,2.0,-1.92,2.94
22.095374822616577,-0.38,-0.32,-1.15,1.25
22.139505863189697,0.11,0.0,0.13,0.17
22.14067792892456,1.2,0.92,0.66,1.64
22.14168071746826,1.72,0.78,0.41,1.93
22.16167187690735,1.43,-0.29,0.28,1.48
22.163165807724,0.76,-0.87,0.48,1.25
22.17731785774231,0.24,-0.69,0.58,0.93
22.178805828094482,0.16,-0.38,0.48,0.63
22.192960739135742,0.26,-0.22,0.27,0.43
22.1944637298584,0.12,-0.06,0.24,0.27
22.209229946136475,-0.17,0.17,0.43,0.49
22.239604949951172,-0.19,0.14,0.24,0.33
22.240924835205078,0.32,-0.09,-0.44,0.55
22.24192976951599,0.83,-0.15,-0.97,1.28
22.260613918304443,0.66,0.02,-1.09,1.27
22.262048721313477,0.17,0.18,-0.44,0.5
22.277836799621582,-0.26,0.15,0.58,0.65
22.27933692932129,-0.47,0.06,1.09,1.18
22.293043851852417,-0.5,-0.01,1.0,1.11
22.294517993927002,-0.49,0.05,0.38,0.62
22.309237957000732,-0.67,0.2,-0.35,0.78
22.338985919952393,-1.05,0.42,-0.72,1.34
22.340245723724365,-0.95,0.65,-1.07,1.57
22.34126091003418,-0.45,0.69,-1.15,1.41
22.36157989501953,0.0,0.53,-0.91,1.05
22.36303997039795,0.1,0.23,-0.84,0.87
22.377484798431396,-0.17,0.23,-0.67,0.72
22.37886381149292,-0.68,0.38,-0.74,1.07
22.392996788024902,-1.2,0.52,-0.91,1.59
22.39439296722412,-1.54,0.71,-0.91,1.92
22.409175872802734,-1.3,0.75,-1.07,1.84
22.439483880996704,-0.7,0.72,-0.93,1.36
22.440775871276855,-0.24,0.68,-0.51,0.88
22.44189476966858,-0.09,0.59,-0.37,0.7
22.46320676803589,-0.17,0.41,-0.67,0.8
22.464671850204468,-0.49,0.48,-0.49,0.84
22.47758197784424,-0.83,0.79,-0.42,1.22
22.479065895080566,-1.11,1.05,-0.75,1.7
22.49298095703125,-1.21,1.45,-0.98,2.12
22.494468688964844,-1.35,1.88,-1.06,2.54
22.509334802627563,-1.34,2.28,-0.91,2.79
22.538004875183105,-1.75,2.89,-0.91,3.49
22.539373874664307,-2.22,3.5,-0.84,4.22
22.540374755859375,-2.86,3.86,-0.94,4.89
22.562649726867676,-3.36,4.16,-1.15,5.46
22.56415367126465,-3.47,4.27,-1.91,5.82
22.57787275314331,-3.45,4.44,-2.49,6.14
22.579343795776367,-4.03,5.13,-2.71,7.06
22.59350872039795,-5.33,6.68,-2.64,8.94
22.59494972229004,-7.26,9.27,-2.62,12.06
22.60944676399231,-9.38,12.26,-3.98,15.94
22.638121843338013,-11.09,14.35,-7.46,19.61
22.639420986175537,-12.19,14.79,-10.52,21.86
22.64049196243286,-12.13,14.07,-11.09,21.63
22.65813970565796,-11.76,12.29,-12.11,20.88
22.65922975540161,-10.76,12.19,-10.6,19.4
22.677889823913574,-7.4,15.13,-6.38,18.01
22.679393768310547,-1.66,16.28,-4.46,16.96
22.693359851837158,3.05,14.03,-4.28,14.98
22.694745779037476,2.16,6.34,-6.48,9.31
22.709614753723145,-2.48,-0.5,-8.5,8.86
22.73818874359131,-3.09,-1.24,-5.35,6.3
22.739585876464844,3.2,4.51,4.05,6.85
22.740570783615112,4.81,-0.54,3.67,6.07
22.76131582260132,0.13,-5.23,-3.07,6.06
22.76268482208252,-4.37,-5.5,-3.08,7.67
22.778093814849854,-7.09,-4.39,-1.87,8.54
22.779570817947388,-8.63,-3.96,-1.89,9.68
22.793343782424927,-8.52,-4.36,-1.68,9.71
22.794832706451416,-6.81,-5.38,-0.87,8.72
22.809379816055298,-5.17,-6.8,0.44,8.55
22.838595867156982,-5.14,-7.85,1.11,9.44
22.83988380432129,-6.06,-8.38,1.42,10.43
22.840901851654053,-6.61,-8.3,0.93,10.65
22.861931800842285,-6.63,-7.85,0.56,10.29
22.863377809524536,-6.25,-7.51,-0.5,9.78
22.877948760986328,-5.69,-7.08,-1.46,9.19
22.879395961761475,-5.26,-6.55,-2.31,8.71
22.893711805343628,-4.91,-5.95,-2.78,8.19
22.895187854766846,-4.64,-5.77,-3.02,7.99
22.909464836120605,-4.28,-6.04,-2.75,7.89
22.91090178489685,-3.92,-6.36,-2.29,7.81
22.961652755737305,-3.58,-6.85,-2.17,8.02
22.962854862213135,-3.24,-7.54,-2.19,8.49
22.963860988616943,-2.8,-8.34,-2.41,9.12
22.97824788093567,-2.23,-8.84,-2.29,9.4
22.97926092147827,-1.88,-8.78,-1.54,9.11
22.994374752044678,-2.11,-8.08,-0.68,8.37
22.995850801467896,-2.28,-6.78,-0.49,7.16
23.009777784347534,-1.22,-5.46,-0.42,5.61
23.01124882698059,0.94,-4.24,1.07,4.47
23.0260808467865,3.26,-2.27,3.93,5.58
23.05494785308838,4.77,-0.63,5.65,7.42
23.056309700012207,5.22,1.01,5.77,7.84
23.057292938232422,6.3,3.9,6.46,9.83
23.078266859054565,8.65,6.97,6.88,13.06
23.079307794570923,11.3,8.71,5.91,15.44
23.09471368789673,13.96,9.34,4.97,17.51
23.096176862716675,16.24,9.45,4.29,19.27
23.11035394668579,18.12,9.37,4.31,20.84
23.111894845962524,19.59,9.5,4.63,22.25
23.126222848892212,21.01,8.84,5.3,23.4
23.154754877090454,20.98,7.24,5.27,22.81
23.156147956848145,16.16,8.03,3.29,18.34
23.15723991394043,4.61,4.15,-3.72,7.23
23.159384727478027,-12.17,1.21,-16.75,20.73
23.16068696975708,-29.05,45.17,-24.08,58.85
23.16212272644043,-24.71,56.77,6.13,62.21
23.166935920715332,-7.71,12.69,10.0,17.9
23.177096843719482,1.94,-7.86,3.02,8.64
23.1869637966156,5.51,-14.62,8.36,17.71
23.19724464416504,9.21,-15.28,9.74,20.32
23.225899696350098,10.82,-11.0,3.79,15.88
23.227195739746094,10.68,-6.65,-1.29,12.64
23.228084802627563,9.81,1.48,0.83,9.95
23.244905948638916,4.56,6.72,-2.35,8.45
23.24639081954956,0.59,1.91,-3.03,3.63
23.26075792312622,-0.55,-1.27,-2.75,3.07
23.26661968231201,0.16,-0.05,-0.54,0.56
23.276583671569824,1.31,0.93,1.94,2.51
23.286619663238525,1.1,0.07,3.27,3.45
23.29644775390625,0.17,-1.17,2.68,2.92
23.33227777481079,0.22,-1.11,1.17,1.62
23.333626747131348,0.91,-0.37,0.39,1.05
23.334643840789795,1.12,-0.15,0.15,1.13
23.34533381462097,0.62,-0.25,0.0,0.66
23.34639883041382,0.02,-0.04,-0.04,0.06
23.361031770706177,0.14,0.32,-0.13,0.37
23.3655948638916,0.76,0.13,-0.4,0.86
23.376884937286377,1.14,-0.3,-0.77,1.4
23.385795831680298,0.98,-0.44,-0.99,1.46
23.395548820495605,0.4,-0.26,-0.75,0.88
23.43107581138611,-0.11,0.05,0.01,0.12
23.432382822036743,-0.44,0.21,0.87,0.99
23.43339776992798,-0.63,0.3,1.17,1.36
23.446340799331665,-0.54,0.26,0.97,1.14
23.44742774963379,-0.16,0.07,0.21,0.27
23.461392879486084,0.3,0.01,-0.42,0.51
23.464873790740967,0.4,0.15,-0.41,0.59
23.47568678855896,-0.01,0.27,-0.35,0.44
23.48509979248047,-0.37,0.4,-0.55,0.77
23.494841814041138,-0.39,0.54,-0.47,0.81
23.531787872314453,-0.37,0.55,-0.35,0.74
23.533137798309326,-0.57,0.62,-0.26,0.88
23.534225940704346,-0.84,0.69,-0.61,1.24
23.545174837112427,-0.95,0.78,-1.06,1.62
23.546228885650635,-0.84,0.84,-1.24,1.71
23.5618097782135,-0.76,0.8,-1.34,1.73
23.56437873840332,-0.67,0.85,-1.17,1.59
23.577030658721924,-0.66,0.87,-1.2,1.62
23.584330797195435,-0.82,0.98,-1.31,1.83
23.594024658203125,-1.07,1.25,-1.27,2.07
23.629660844802856,-1.3,1.5,-1.18,2.3
23.631435871124268,-1.23,1.64,-1.08,2.31
23.632452964782715,-1.49,2.07,-1.1,2.77
23.645503997802734,-1.94,2.45,-0.77,3.21
23.646553993225098,-2.46,2.78,-0.26,3.72
23.66180181503296,-2.77,2.93,-0.13,4.03
23.663400650024414,-2.99,2.93,-0.6,4.22
23.676708698272705,-2.96,3.16,-1.2,4.49
23.683247804641724,-2.92,3.54,-1.98,4.99
23.693456649780273,-2.98,3.9,-2.78,5.64
23.703543663024902,-3.4,4.28,-3.08,6.27
23.73503279685974,-4.4,5.09,-3.04,7.38
23.736220836639404,-6.06,7.03,-2.46,9.6
23.73747682571411,-7.81,10.22,-2.24,13.05
23.742711782455444,-9.31,12.73,-5.66,16.75
23.7536518573761,-10.04,13.44,-9.62,19.33
23.762571811676025,-9.92,12.91,-10.59,19.42
23.772857666015625,-9.8,11.54,-11.49,19.0
23.782707691192627,-9.92,12.34,-10.98,19.26
23.792816877365112,-8.08,16.36,-7.02,19.55
23.802507877349854,-3.05,17.98,-5.96,19.18
23.832456827163696,2.27,16.91,-6.26,18.17
23.83381676673889,2.63,8.71,-7.1,11.54
23.83482599258423,-1.46,1.16,-8.68,8.87
23.8453848361969,-3.72,-2.51,-7.17,8.45
23.85212469100952,1.01,1.95,-1.3,2.55
23.86212968826294,4.79,1.94,4.32,6.73
23.872065782546997,0.34,-3.2,-1.68,3.63
23.882078647613525,-5.08,-4.46,-3.83,7.76
23.89207172393799,-8.42,-3.47,-2.36,9.4
23.901959896087646,-10.71,-2.0,-2.3,11.13
23.93292784690857,-11.02,-1.44,-1.69,11.24
23.934253692626953,-8.86,-2.71,-0.64,9.28
23.935290813446045,-6.14,-4.96,0.48,7.9
23.945565700531006,-4.82,-7.15,1.11,8.69
23.95119285583496,-5.28,-8.52,1.54,10.14
23.961514949798584,-6.22,-8.48,1.58,10.63
23.9715518951416,-6.51,-7.97,0.89,10.32
23.981196880340576,-6.0,-7.43,-0.26,9.55
23.991368770599365,-5.41,-7.16,-1.89,9.17
24.001007795333862,-5.15,-6.38,-2.63,8.61
24.032224655151367,-4.92,-5.97,-3.34,8.42
24.03355383872986,-4.43,-5.65,-3.5,7.98
24.034523963928223,-3.72,-5.7,-3.2,7.52
24.04262065887451,-2.92,-6.32,-2.68,7.45
24.050418853759766,-2.28,-6.96,-2.32,7.68
24.061293840408325,-1.97,-7.55,-2.22,8.11
24.070700645446777,-1.91,-8.07,-2.25,8.59
24.080261707305908,-2.02,-8.36,-2.05,8.84
24.090571880340576,-2.16,-8.24,-1.45,8.64
24.100499868392944,-2.32,-7.84,-0.62,8.19
24.137935876846313,-2.21,-7.15,0.21,7.48
24.13989496231079,-1.29,-6.23,0.31,6.36
24.14093780517578,0.53,-5.55,0.22,5.57
24.143398761749268,2.63,-4.49,1.51,5.41
24.14965295791626,4.74,-2.46,3.8,6.55
24.15965485572815,6.77,-0.35,5.63,8.81
24.16990900039673,8.32,1.46,6.4,10.59
24.179810762405396,9.33,3.71,6.94,12.2
24.18979787826538,10.28,6.18,7.04,13.9
24.199659824371338,11.67,8.53,6.69,15.92
24.239725828170776,14.04,11.1,7.06,19.23
24.241163730621338,16.74,13.82,7.78,23.05
24.2422137260437,19.01,15.41,6.97,25.44
24.262813806533813,21.03,14.52,7.52,26.63
24.26432466506958,21.88,13.23,8.41,26.91
24.27841567993164,18.29,11.83,0.56,21.78
24.279915809631348,5.09,-3.5,-14.9,16.12
24.294217824935913,-15.03,10.23,-33.3,37.94
24.295738697052002,-26.68,60.27,-13.49,67.27
24.3086838722229,-21.12,36.29,10.84,43.36
24.34017777442932,-4.88,-1.71,7.73,9.3
24.341575860977173,3.46,-10.91,8.01,13.96
24.34259271621704,8.14,-13.12,11.25,19.1
24.362262725830078,10.29,-13.37,4.65,17.5
24.363740921020508,11.41,-9.84,-0.51,15.07
24.37827181816101,11.32,-2.08,1.91,11.66
24.379721879959106,7.41,4.39,0.02,8.61
24.39398193359375,1.9,2.48,-3.0,4.33
24.395431995391846,-0.29,-0.36,-1.58,1.64
24.410106658935547,-0.33,-0.37,0.98,1.09
24.43896770477295,0.96,0.35,3.05,3.21
24.440448760986328,1.26,0.16,1.96,2.33
24.44142770767212,1.06,-0.29,0.13,1.1
24.462166786193848,1.05,-0.38,-0.17,1.12
24.463191986083984,1.05,-0.44,0.1,1.14
24.478404998779297,1.05,-0.67,0.18,1.25
24.479792833328247,0.81,-0.64,0.2,1.05
24.49391269683838,0.43,-0.28,0.17,0.54
24.49541187286377,0.32,0.01,0.34,0.46
24.509870767593384,0.37,0.08,0.35,0.51
24.511241912841797,0.37,0.09,0.06,0.38
24.563987731933594,0.3,0.09,-0.44,0.54
24.565086841583252,0.08,0.24,-0.75,0.79
24.566068649291992,-0.12,0.41,-0.56,0.7
24.57913589477539,-0.17,0.37,-0.11,0.42
24.580187797546387,-0.03,0.14,0.12,0.18
24.595345973968506,0.11,-0.16,-0.08,0.21
24.596784830093384,0.1,-0.2,-0.19,0.29
24.61045265197754,-0.09,0.0,-0.12,0.15
24.61194086074829,-0.38,0.2,-0.13,0.44
24.62672185897827,-0.62,0.45,-0.1,0.77
24.655520915985107,-0.72,0.6,-0.08,0.94
24.657744884490967,-0.69,0.62,-0.38,1.0
24.658750772476196,-0.7,0.63,-0.46,1.04
24.679492950439453,-0.65,0.59,-0.44,0.98
24.680535793304443,-0.67,0.45,-0.33,0.87
24.6940598487854,-0.67,0.29,-0.17,0.74
24.695435762405396,-0.7,0.21,-0.53,0.9
24.711025714874268,-0.72,0.34,-0.82,1.14
24.712496757507324,-0.8,0.58,-1.07,1.45
24.72716784477234,-0.8,0.85,-1.3,1.74
24.755703926086426,-0.93,1.03,-1.32,1.91
24.757080793380737,-1.09,1.1,-1.2,1.95
24.758055686950684,-1.22,1.03,-1.03,1.9
24.77918577194214,-1.39,0.94,-0.84,1.87
24.780651807785034,-1.38,1.06,-1.03,2.02
24.795552730560303,-1.15,1.39,-1.6,2.41
24.797016859054565,-0.89,1.78,-2.13,2.91
24.810938835144043,-0.88,2.68,-1.96,3.43
24.81241464614868,-1.37,3.36,-1.95,4.11
24.82717275619507,-1.82,3.83,-1.43,4.47
24.855944871902466,-2.6,3.96,-1.04,4.85
24.85724186897278,-3.32,4.01,-0.85,5.27
24.85822081565857,-3.85,4.21,-1.03,5.79
24.8794846534729,-4.47,4.9,-1.28,6.75
24.880534648895264,-5.62,6.74,-1.2,8.85
24.894370794296265,-7.09,9.63,-1.7,12.07
24.89589285850525,-8.67,11.4,-5.17,15.22
24.90894365310669,-10.12,11.79,-7.89,17.42
24.910456657409668,-11.05,11.96,-8.05,18.16
24.927109718322754,-11.48,11.26,-9.05,18.45
24.954545974731445,-11.57,10.08,-9.85,18.23
24.955902814865112,-10.77,11.22,-8.33,17.64
24.956939697265625,-7.08,13.96,-6.13,16.81
24.9595627784729,-1.32,14.58,-6.14,15.87
24.960960865020752,3.44,13.84,-4.39,14.92
24.9635968208313,3.14,7.86,-4.11,9.4
24.973703861236572,-1.92,0.85,-6.84,7.15
24.98354196548462,-4.75,-2.37,-7.44,9.13
24.993499755859375,-0.45,2.79,-3.52,4.51
25.00362777709961,3.45,3.56,0.53,4.98
25.037444829940796,-0.49,-1.11,-3.75,3.94
25.038704872131348,-4.73,-1.61,-4.19,6.52
25.039495944976807,-7.69,-0.95,-3.06,8.33
25.04271697998047,-9.88,-0.65,-3.11,10.37
25.052900791168213,-10.25,-1.4,-2.56,10.65
25.063111782073975,-8.8,-2.89,-0.94,9.3
25.072771787643433,-7.18,-4.92,0.88,8.74
25.08282470703125,-6.37,-7.38,2.0,9.95
25.092625856399536,-6.06,-9.72,2.56,11.73
25.103006839752197,-6.37,-9.7,2.62,11.89
25.135934829711914,-6.43,-8.63,1.88,10.92
25.137357711791992,-6.0,-7.52,0.4,9.62
25.138346672058105,-6.01,-6.42,-1.01,8.85
25.142329692840576,-5.99,-5.92,-2.25,8.71
25.16226887702942,-5.68,-5.51,-2.93,8.43
25.16333770751953,-5.13,-5.41,-3.42,8.2
25.177361965179443,-4.49,-5.54,-3.58,7.97
25.181809902191162,-3.97,-6.06,-3.33,7.97
25.193564891815186,-3.62,-6.58,-2.89,8.04
25.202159881591797,-3.25,-7.12,-2.63,8.25
25.236764907836914,-2.74,-7.61,-2.6,8.49
25.237931728363037,-2.27,-8.13,-2.63,8.84
25.23913288116455,-2.06,-8.72,-2.65,9.34
25.24182367324829,-2.04,-9.08,-2.57,9.65
25.262061834335327,-1.94,-8.31,-1.76,8.71
25.263120651245117,-1.37,-6.68,-0.77,6.86
25.278132915496826,0.53,-5.26,-0.79,5.34
25.281298875808716,3.32,-3.92,-0.54,5.16
25.293807983398438,5.95,-1.77,1.26,6.33
25.301410675048828,8.23,1.41,3.63,9.1
25.31108784675598,10.03,4.86,5.37,12.37
25.342408657073975,11.83,8.34,6.86,16.01
25.343666791915894,14.22,11.41,8.14,19.96
25.344712734222412,16.37,13.0,8.53,22.57
25.361174821853638,17.56,13.5,7.69,23.44
25.36223077774048,18.82,14.19,7.54,24.74
25.37572479248047,20.29,14.03,8.3,26.02
25.380562782287598,21.33,12.88,10.15,26.9
25.392250776290894,19.02,14.62,5.87,24.69
25.400277853012085,9.8,2.58,-7.68,12.71
25.411756992340088,-8.08,-5.02,-26.25,27.92
25.443261861801147,-24.13,36.19,-28.1,51.78
25.44465398788452,-25.33,52.73,6.09,58.81
25.445684909820557,-11.45,11.32,9.47,18.67
25.462702751159668,0.07,-8.13,5.15,9.62
25.46377468109131,7.71,-9.54,10.82,16.35
25.479116916656494,11.45,-10.77,8.22,17.73
25.480612754821777,12.53,-9.76,0.46,15.88
25.49439787864685,13.12,-3.06,-0.92,13.5
25.49973964691162,10.59,2.06,0.07,10.78
25.510581970214844,4.63,0.08,-1.05,4.74
25.542199850082397,0.56,-0.76,-0.83,1.25
25.54349994659424,-1.4,0.23,0.41,1.47
25.544503688812256,-0.94,1.36,2.18,2.73
25.562556743621826,0.71,0.58,1.94,2.14
25.56370186805725,1.59,-0.91,0.96,2.06
25.579075813293457,1.33,-1.3,0.32,1.88
25.58053970336914,0.9,-0.75,0.08,1.17
25.594562768936157,0.6,-0.16,0.35,0.71
25.598902702331543,0.55,-0.27,0.61,0.86
25.610561847686768,0.68,-0.62,0.45,1.02
25.64133381843567,0.6,-0.42,0.39,0.82
25.642688751220703,0.23,0.08,0.37,0.44
25.643696784973145,-0.06,0.31,-0.1,0.33
25.66290783882141,-0.17,0.46,-0.55,0.73
25.66394281387329,-0.23,0.52,-0.7,0.9
25.679043769836426,-0.42,0.45,-0.7,0.93
25.68040180206299,-0.59,0.42,-0.59,0.93
25.6943416595459,-0.72,0.32,-0.7,1.05
25.698140859603882,-0.69,0.37,-0.8,1.11
25.70982599258423,-0.43,0.38,-0.92,1.08
25.746877670288086,-0.22,0.37,-0.99,1.07
25.74817681312561,-0.28,0.43,-0.89,1.02
25.749189853668213,-0.72,0.51,-0.56,1.04
25.763202667236328,-0.94,0.63,-0.18,1.14
25.764261722564697,-0.81,0.61,-0.05,1.01
25.77863597869873,-0.53,0.5,-0.19,0.75
25.779967784881592,-0.31,0.41,-0.38,0.63
25.794530868530273,-0.39,0.31,-0.44,0.66
25.797513961791992,-0.57,0.16,-0.47,0.75
25.810649871826172,-0.56,0.1,-0.33,0.65
25.845390796661377,-0.47,0.09,-0.16,0.5
25.8467059135437,-0.39,0.2,-0.22,0.49
25.847715854644775,-0.37,0.36,-0.57,0.76
25.863098859786987,-0.42,0.63,-0.98,1.23
25.86416983604431,-0.65,0.94,-0.87,1.43
25.879352807998657,-0.83,1.17,-0.71,1.6
25.880815982818604,-0.98,1.2,-0.76,1.72
25.894619941711426,-1.34,1.56,-0.48,2.11
25.896695852279663,-1.7,1.91,-0.81,2.68
25.910674810409546,-1.7,2.49,-0.95,3.16
25.944225788116455,-1.71,3.11,-0.84,3.64
25.945663928985596,-1.99,3.29,-1.03,3.98
25.94662570953369,-2.38,3.47,-1.27,4.39
25.962811946868896,-2.67,3.56,-1.73,4.77
25.96388578414917,-2.78,3.8,-2.15,5.17
25.979044914245605,-2.89,4.13,-2.47,5.61
25.98051691055298,-3.37,4.38,-2.7,6.15
25.99477982521057,-4.34,5.23,-2.34,7.18
25.996274948120117,-5.74,7.07,-2.07,9.33
26.010653972625732,-7.35,9.36,-3.02,12.27
26.044067859649658,-9.0,11.1,-5.61,15.35
26.045371770858765,-9.96,11.8,-8.23,17.49
26.04635190963745,-9.82,11.78,-9.85,18.22
26.06296682357788,-9.67,10.51,-10.98,18.01
26.06402587890625,-9.53,9.63,-11.32,17.65
26.079163789749146,-8.43,11.81,-8.41,16.77
26.080602645874023,-4.99,14.96,-4.49,16.39
26.092516899108887,0.53,14.95,-3.67,15.4
26.09521985054016,2.98,9.95,-5.41,11.71
26.11095881462097,0.26,3.63,-7.52,8.35
26.11498785018921,-4.24,-0.87,-6.34,7.67
26.15575075149536,-3.5,-0.8,-3.18,4.79
26.156921863555908,3.14,3.36,3.71,5.9
26.15787696838379,3.44,-1.69,1.33,4.05
26.159926891326904,-1.7,-4.18,-3.45,5.68
26.1644549369812,-5.6,-3.73,-2.65,7.23
26.17459487915039,-7.97,-2.4,-2.03,8.56
26.184346675872803,-9.52,-1.56,-2.51,9.96
26.194703817367554,-9.44,-1.75,-1.87,9.78
26.204580783843994,-7.49,-2.77,-0.53,8.0
26.214677810668945,-5.67,-4.28,0.56,7.12
26.245506763458252,-5.3,-5.8,1.22,7.95
26.246665954589844,-5.85,-7.05,1.9,9.35
26.24767279624939,-6.01,-7.7,1.85,9.94
26.263226985931396,-5.51,-7.62,1.05,9.46
26.26426887512207,-5.09,-6.57,0.0,8.31
26.278827667236328,-5.21,-5.33,-1.01,7.52
26.28355598449707,-5.37,-4.96,-2.17,7.62
26.293635845184326,-5.23,-4.7,-2.6,7.49
26.303611755371094,-4.97,-4.71,-2.63,7.33
26.31378173828125,-4.55,-5.19,-2.34,7.28
26.344115734100342,-4.33,-5.75,-1.74,7.4
26.34541368484497,-4.46,-6.24,-0.97,7.73
26.3464298248291,-4.61,-6.64,-0.22,8.08
26.36302375793457,-4.62,-7.11,0.43,8.49
26.364043712615967,-4.64,-7.59,1.03,8.95
26.379374980926514,-4.59,-7.74,1.39,9.1
26.38295269012451,-4.32,-7.18,1.52,8.51
26.394591808319092,-3.3,-5.65,1.52,6.71
26.403013706207275,-0.98,-4.06,1.15,4.33
26.412693977355957,1.89,-2.91,1.34,3.71
26.443747997283936,4.93,-1.63,2.22,5.64
26.445095777511597,7.9,-0.13,2.89,8.41
26.446099758148193,10.19,1.73,3.37,10.87
26.463228702545166,11.71,4.31,3.86,13.06
26.464309692382812,13.51,7.07,5.29,16.13
26.47963786125183,14.97,9.03,6.01,18.48
26.48231792449951,16.64,10.31,7.94,21.12
26.493714809417725,17.78,9.92,8.46,22.04
26.50219964981079,17.5,8.09,8.14,20.92
26.512210845947266,16.13,6.96,7.27,19.01
26.549712657928467,14.8,5.94,6.3,17.14
26.551040649414062,13.23,10.31,4.17,17.28
26.552060842514038,11.09,8.85,-4.99,15.04
26.563235759735107,-1.46,0.16,-18.63,18.68
26.5643048286438,-12.0,36.39,-20.33,43.37
26.57879877090454,-12.26,54.62,-2.91,56.05
26.581499814987183,-5.14,9.03,1.6,10.51
26.594920873641968,2.9,-6.39,1.69,7.21
26.601268768310547,6.24,-11.76,10.01,16.65
26.61129665374756,7.22,-15.42,9.23,19.36
26.649345874786377,9.05,-11.12,4.29,14.96
26.65073871612549,8.36,-4.63,2.49,9.87
26.651814937591553,4.53,1.7,2.46,5.42
26.66368079185486,-0.85,5.5,-2.43,6.07
26.664692878723145,-2.3,2.42,-4.02,5.22
26.679227828979492,0.46,-0.49,0.72,0.98
26.68071985244751,2.53,-1.41,3.22,4.33
26.695172786712646,2.17,-0.49,2.15,3.09
26.700565814971924,1.57,0.54,-0.66,1.78
26.711344718933105,1.8,0.72,-1.32,2.34
26.750433921813965,1.97,-0.13,-0.04,1.97
26.751747846603394,1.39,-1.13,1.07,2.08
26.752757787704468,0.73,-1.19,1.13,1.79
26.763548851013184,0.43,-0.49,0.38,0.75
26.76463270187378,0.64,0.13,-0.29,0.71
26.779610872268677,0.83,0.22,-0.44,0.96
26.781088829040527,0.71,0.09,-0.33,0.78
26.795166969299316,0.37,-0.04,-0.19,0.41
26.79979372024536,0.05,0.03,-0.2,0.2
26.810901880264282,-0.19,0.22,-0.09,0.3
26.84864377975464,-0.39,0.3,-0.2,0.53
26.849949836730957,-0.44,0.3,-0.39,0.66
26.85090970993042,-0.37,0.34,-0.11,0.51
26.863464832305908,-0.25,0.27,0.03,0.36
26.864545822143555,-0.14,0.09,-0.22,0.27
26.879291772842407,-0.06,0.12,-0.44,0.46
26.88028573989868,-0.05,0.25,-0.57,0.62
26.895471811294556,-0.22,0.4,-0.43,0.62
26.899127960205078,-0.54,0.57,-0.18,0.8
26.91134786605835,-0.81,0.65,-0.2,1.05
26.919211864471436,-0.89,0.75,-0.24,1.18
26.95504093170166,-0.9,0.89,-0.11,1.27
26.95618176460266,-0.88,0.76,-0.3,1.2
26.957417964935303,-0.73,0.56,-0.52,1.05
26.95943784713745,-0.46,0.4,-0.78,0.98
26.968684673309326,-0.42,0.52,-0.69,0.96
26.978473663330078,-0.49,0.66,-0.78,1.13
26.988463878631592,-0.81,0.83,-0.9,1.46
26.998544692993164,-1.15,1.36,-0.8,1.95
27.008586883544922,-1.28,1.65,-0.63,2.18
27.018390655517578,-1.35,1.62,-0.2,2.11
27.048962831497192,-1.5,1.44,-0.18,2.08
27.050190925598145,-1.55,1.44,-0.23,2.12
27.051151752471924,-1.62,1.54,-0.65,2.32
27.063729763031006,-1.79,1.83,-0.91,2.71
27.067494869232178,-1.89,2.14,-1.1,3.05
27.077431678771973,-1.89,2.3,-1.59,3.37
27.087549686431885,-1.76,2.39,-1.95,3.55
27.0975399017334,-1.77,2.45,-2.2,3.73
27.10775089263916,-2.09,2.73,-2.45,4.22
27.11753273010254,-2.7,3.21,-2.38,4.82
27.148483753204346,-3.6,3.74,-2.29,5.67
27.14979386329651,-4.59,4.47,-2.26,6.79
27.150805950164795,-5.64,5.53,-2.23,8.2
27.163538932800293,-6.63,7.35,-2.45,10.19
27.167091846466064,-7.45,8.78,-4.66,12.42
27.17961883544922,-8.52,9.62,-6.94,14.6
27.186985969543457,-9.55,10.55,-7.89,16.27
27.196805000305176,-10.69,10.67,-9.24,17.7
27.206859827041626,-11.58,10.89,-10.03,18.79
27.216665744781494,-10.72,14.49,-7.45,19.5
27.247914791107178,-7.05,17.8,-5.99,20.06
27.249268770217896,-1.16,15.97,-7.68,17.75
27.250305652618408,3.11,12.98,-6.24,14.73
27.26397681236267,2.29,7.46,-7.89,11.09
27.26614785194397,-3.26,2.4,-9.4,10.23
27.279631853103638,-6.6,-1.49,-7.21,9.88
27.28618097305298,-1.48,3.75,-2.59,4.79
27.296042919158936,5.7,4.89,3.89,8.45
27.30622386932373,4.32,-2.83,1.11,5.28
27.31596279144287,-1.74,-4.81,-3.72,6.32
27.35430669784546,-6.35,-4.49,-2.76,8.25
27.355650901794434,-9.07,-3.62,-2.81,10.16
27.356653690338135,-10.59,-2.62,-3.27,11.38
27.35958766937256,-10.1,-2.47,-2.58,10.71
27.380995750427246,-7.54,-3.78,-0.88,8.48
27.382465839385986,-5.38,-5.45,0.75,7.69
27.395514965057373,-4.78,-7.03,1.7,8.66
27.396987915039062,-5.25,-8.37,2.5,10.19
27.411609649658203,-5.53,-8.84,2.29,10.67
27.415029764175415,-5.56,-7.73,1.26,9.6
27.45748281478882,-5.42,-6.14,0.1,8.19
27.458614826202393,-5.13,-4.97,-1.34,7.26
27.459590911865234,-4.57,-4.28,-2.3,6.67
27.4807767868042,-3.8,-4.14,-2.6,6.19
27.482232809066772,-3.19,-4.58,-2.49,6.11
27.496333837509155,-3.01,-5.28,-2.38,6.52
27.497806787490845,-2.72,-5.96,-2.19,6.9
27.511709690093994,-1.92,-6.46,-1.88,6.99
27.513206958770752,-1.06,-6.86,-1.59,7.12
27.52853775024414,-0.73,-7.44,-1.55,7.63
27.55790686607361,-0.93,-7.98,-1.51,8.17
27.559228897094727,-1.35,-7.73,-0.97,7.9
27.560231685638428,-1.21,-6.66,-0.5,6.78
27.580307960510254,0.21,-5.39,-0.92,5.47
27.58133578300476,2.59,-4.77,-0.96,5.51
27.596298694610596,4.35,-4.07,0.57,5.98
27.597754955291748,4.93,-2.53,2.54,6.09
27.612380981445312,5.52,-0.52,4.36,7.05
27.613889694213867,6.81,1.68,5.87,9.14
27.628500938415527,7.93,3.35,6.22,10.62
27.657739877700806,8.62,4.95,6.73,12.0
27.6590518951416,9.99,6.51,8.29,14.52
27.66006898880005,11.76,6.1,8.05,15.5
27.680168867111206,12.61,5.57,6.59,15.27
27.681240797042847,12.6,7.31,5.52,15.57
27.696618795394897,13.08,9.26,5.03,16.79
27.698107719421387,15.29,10.86,5.46,19.53
27.712278842926025,18.1,10.28,6.92,21.93
27.713716983795166,19.04,8.53,7.63,22.21
27.72845983505249,14.13,6.89,4.04,16.23
27.72992777824402,1.05,-2.72,-8.74,9.21
27.776582717895508,-14.53,17.08,-24.82,33.44
27.777779817581177,-24.76,63.95,-11.47,69.52
27.778822898864746,-20.13,33.33,8.27,39.8
27.797252655029297,-4.49,-2.88,5.69,7.79
27.798287868499756,3.57,-13.3,5.26,14.74
27.81353187561035,6.65,-19.32,8.78,22.23
27.81504774093628,10.58,-16.56,6.34,20.64
27.828948974609375,12.02,-9.3,2.57,15.41
27.830429792404175,10.21,-2.82,2.79,10.95
27.84514284133911,6.3,5.55,0.89,8.44
27.876375675201416,0.9,6.06,-6.89,9.21
27.877723693847656,-0.15,1.31,-5.35,5.51
27.878711700439453,0.57,-0.8,0.12,0.98
27.896974802017212,0.93,-0.49,4.53,4.65
27.89798378944397,0.33,-0.76,4.25,4.33
27.913386821746826,0.27,-0.75,0.99,1.27
27.91486167907715,0.92,-0.11,-0.72,1.17
27.928764820098877,1.4,0.1,-0.78,1.6
27.93028974533081,1.08,-0.37,-0.04,1.14
27.945368766784668,0.33,-0.59,0.49,0.83
27.975963830947876,0.18,-0.37,0.53,0.67
27.9773268699646,0.52,-0.08,0.39,0.65
27.97837781906128,0.57,0.07,0.26,0.63
27.997105836868286,0.29,0.05,-0.05,0.29
27.998109817504883,0.04,0.1,-0.39,0.4
28.013397693634033,-0.08,0.22,-0.86,0.89
28.01487970352173,-0.09,0.34,-0.61,0.7
28.028791904449463,0.1,0.29,-0.01,0.3
28.03022289276123,0.18,-0.03,0.1,0.2
28.045100688934326,0.09,-0.12,0.15,0.21
28.074753761291504,-0.22,-0.06,-0.01,0.22
28.076042652130127,-0.61,0.22,-0.11,0.65
28.076985836029053,-0.73,0.56,-0.11,0.92
28.093469858169556,-0.45,0.55,-0.35,0.79
28.094440937042236,-0.07,0.43,-0.31,0.53
28.110248804092407,0.07,0.31,-0.15,0.35
28.111385822296143,-0.18,0.22,0.04,0.28
28.129395961761475,-0.71,0.32,0.02,0.77
28.13088893890381,-1.12,0.51,-0.31,1.26
28.145846843719482,-1.08,0.61,-0.84,1.49
28.175599813461304,-0.53,0.68,-0.96,1.29
28.1769437789917,-0.16,0.59,-0.73,0.95
28.177928924560547,-0.25,0.5,-0.65,0.85
28.19725799560547,-0.65,0.57,-0.76,1.15
28.198266983032227,-1.11,0.77,-0.94,1.64
28.21289587020874,-1.4,1.06,-1.09,2.06
28.21434187889099,-1.58,1.28,-1.11,2.31
28.229326725006104,-1.56,1.61,-0.74,2.36
28.230792999267578,-1.23,1.7,-1.03,2.33
28.245163917541504,-1.11,1.66,-1.38,2.42
28.27352786064148,-1.37,2.32,-1.32,3.0
28.274964809417725,-1.73,2.93,-1.42,3.68
28.27593684196472,-2.02,3.28,-1.39,4.09
28.278477668762207,-2.27,3.39,-1.6,4.38
28.280099868774414,-2.58,3.42,-1.97,4.71
28.281720876693726,-2.86,3.69,-2.35,5.22
28.288386821746826,-3.05,4.08,-2.75,5.78
28.298820972442627,-3.28,4.46,-2.88,6.24
28.308215856552124,-3.91,5.14,-2.65,6.98
28.31825065612793,-5.39,6.59,-2.51,8.87
28.352471828460693,-7.33,8.61,-2.85,11.66
28.354008674621582,-9.23,10.47,-4.01,14.52
28.355079650878906,-10.53,11.58,-5.82,16.69
28.36497187614441,-11.02,11.92,-8.01,18.1
28.367875814437866,-11.03,11.04,-9.96,18.51
28.380295753479004,-11.06,10.33,-11.52,19.01
28.38755989074707,-10.37,12.02,-9.61,18.55
28.39744997024536,-7.21,15.4,-5.5,17.87
28.408390998840332,-1.45,15.96,-4.06,16.53
28.417553901672363,3.02,11.34,-5.7,13.04
28.45414686203003,2.28,4.48,-8.03,9.47
28.455495834350586,-2.76,-0.42,-7.5,8.0
28.4564688205719,-5.25,-3.47,-4.93,7.99
28.460306644439697,0.22,0.72,1.02,1.26
28.4670467376709,5.94,0.51,5.33,7.99
28.480087757110596,2.89,-4.55,-0.94,5.47
28.487162828445435,-2.61,-5.52,-3.77,7.17
28.496792793273926,-6.14,-4.52,-2.31,7.96
28.507048845291138,-8.29,-3.3,-2.09,9.16
28.51692485809326,-9.39,-2.61,-1.94,9.93
28.52711772918701,-8.9,-2.99,-1.16,9.46
28.557191848754883,-6.62,-4.29,-0.02,7.88
28.55834674835205,-4.73,-5.69,0.85,7.44
28.55943775177002,-4.3,-7.08,1.53,8.42
28.566632747650146,-4.78,-7.99,1.57,9.44
28.57662868499756,-5.14,-7.85,0.9,9.42
28.58638882637024,-5.24,-7.04,0.2,8.77
28.596189975738525,-5.15,-6.47,-0.76,8.3
28.606098651885986,-4.62,-6.06,-1.69,7.8
28.616410732269287,-3.86,-5.65,-2.36,7.23
28.62629985809326,-3.39,-5.69,-2.59,7.11
28.655735969543457,-3.31,-6.14,-2.44,7.38
28.656925678253174,-3.35,-6.7,-2.11,7.78
28.658111810684204,-3.27,-7.24,-1.75,8.13
28.665637969970703,-2.97,-7.65,-1.53,8.34
28.67562484741211,-2.69,-8.0,-1.38,8.55
28.685398817062378,-2.78,-8.08,-1.07,8.61
28.69549798965454,-3.08,-7.68,-0.36,8.28
28.705354690551758,-3.07,-6.55,0.27,7.23
28.715576648712158,-2.04,-5.37,0.58,5.77
28.725477695465088,0.03,-4.51,1.23,4.67
28.75607180595398,2.16,-3.58,2.22,4.73
28.757239818572998,3.51,-1.88,3.52,5.31
28.759408950805664,4.45,0.4,4.68,6.47
28.764713764190674,5.96,2.96,5.53,8.65
28.774765968322754,8.04,5.7,6.05,11.56
28.78482675552368,9.82,8.05,5.9,14.0
28.79491090774536,11.52,10.05,5.82,16.35
28.804755687713623,13.18,11.78,5.81,18.6
28.815510749816895,15.17,12.69,5.64,20.56
28.824450969696045,16.46,11.64,5.58,20.91
28.854354858398438,16.94,10.12,6.59,20.8
28.85554075241089,15.81,8.68,6.83,19.28
28.856839656829834,13.92,9.57,5.4,17.73
28.864056825637817,12.29,11.18,0.67,16.62
28.873962879180908,4.55,-1.55,-9.37,10.53
28.88375997543335,-10.2,3.73,-18.64,21.57
28.89405584335327,-18.82,40.8,-11.95,46.49
28.904712677001953,-15.34,38.55,5.84,41.89
28.914016723632812,-3.58,4.02,6.02,8.07
28.923873901367188,3.39,-8.36,3.28,9.59
28.961116790771484,6.32,-13.04,6.51,15.88
28.962539672851562,9.91,-10.53,6.22,15.74
28.963554859161377,11.29,-5.38,4.61,13.32
28.980830669403076,9.51,0.19,1.2,9.58
28.981883764266968,4.99,2.78,-0.46,5.73
28.99669885635376,1.37,0.67,-0.18,1.53
28.997732877731323,0.04,-1.24,-0.24,1.26
29.01274299621582,0.68,-0.35,0.03,0.76
29.014224767684937,1.24,0.88,0.59,1.63
29.0288188457489,0.98,0.59,1.12,1.6
29.061896800994873,0.77,-0.25,0.6,1.0
29.063272953033447,0.73,-0.51,0.2,0.91
29.0642728805542,0.7,-0.34,0.19,0.8
29.0810489654541,0.75,-0.29,0.08,0.8
29.081989765167236,0.62,-0.39,0.01,0.73
29.097360849380493,0.55,-0.33,0.0,0.64
29.098840713500977,0.56,-0.17,-0.17,0.6
29.11128878593445,0.64,0.08,-0.35,0.73
29.11280083656311,0.7,0.16,-0.45,0.84
29.12888765335083,0.54,0.16,-0.3,0.63
29.161762714385986,0.22,0.16,-0.1,0.28
29.16298770904541,-0.13,0.23,-0.02,0.26
29.16397786140442,-0.43,0.32,-0.19,0.56
29.180957794189453,-0.6,0.41,-0.27,0.77
29.182042837142944,-0.49,0.37,-0.37,0.71
29.197213649749756,-0.07,0.18,-0.65,0.67
29.19872784614563,0.28,0.03,-0.73,0.78
29.21264886856079,0.08,0.02,-0.34,0.34
29.21411681175232,-0.41,0.13,-0.11,0.44
29.22912287712097,-0.57,0.24,-0.02,0.61
29.259058952331543,-0.37,0.31,0.24,0.53
29.260941982269287,-0.03,0.22,0.34,0.4
29.261905670166016,0.06,0.03,0.19,0.2
29.280802726745605,-0.21,0.07,0.19,0.29
29.281778812408447,-0.34,0.25,0.16,0.45
29.29735565185547,-0.36,0.33,0.09,0.49
29.298786878585815,-0.28,0.3,-0.1,0.42
29.312691688537598,-0.14,0.18,-0.31,0.38
29.314137935638428,-0.03,0.14,-0.41,0.43
29.328924655914307,-0.05,0.22,-0.57,0.61
29.33062171936035,-0.38,0.42,-0.75,0.93
29.377492904663086,-0.94,0.75,-0.83,1.46
29.378652811050415,-1.43,1.03,-0.93,1.99
29.37967872619629,-1.67,1.18,-1.14,2.34
29.39836287498474,-1.7,1.26,-1.28,2.47
29.399818897247314,-1.72,1.38,-1.12,2.47
29.413535833358765,-1.8,1.57,-0.97,2.57
29.415000915527344,-1.83,1.71,-1.25,2.79
29.429552793502808,-1.58,2.1,-1.26,2.91
29.430997848510742,-1.66,2.75,-1.49,3.54
29.4460928440094,-1.88,3.42,-1.98,4.37
29.475788831710815,-2.36,3.93,-2.17,5.07
