time,ax,ay,az,atotal
0.006526947021484375,-0.09,-0.38,-0.71,0.81
0.03478097915649414,0.35,-0.07,-0.79,0.86
0.036228179931640625,0.8,0.07,-0.58,0.99
0.03722715377807617,0.57,-0.06,-0.27,0.63
0.04925823211669922,0.25,-0.1,-0.18,0.32
0.05574321746826172,0.15,-0.09,-0.14,0.22
0.06659603118896484,0.09,0.02,-0.18,0.2
0.07606911659240723,-0.09,0.05,-0.19,0.21
0.08556795120239258,-0.15,-0.02,-0.09,0.17
0.0954141616821289,-0.04,0.0,-0.02,0.04
0.10903406143188477,0.0,0.04,0.07,0.08
0.13567209243774414,-0.05,0.0,0.14,0.14
0.13729310035705566,-0.09,-0.03,0.11,0.14
0.13888311386108398,-0.01,0.04,0.1,0.1
0.1504201889038086,0.05,0.06,0.03,0.08
0.15514516830444336,0.03,0.01,-0.01,0.03
0.16634798049926758,0.01,0.0,0.02,0.02
0.17530608177185059,0.07,0.0,0.04,0.08
0.18490910530090332,0.12,-0.03,0.02,0.12
0.19495296478271484,0.14,-0.06,0.01,0.15
0.20730805397033691,0.13,-0.07,0.0,0.14
0.2397000789642334,0.09,-0.07,-0.04,0.12
0.24129295349121094,0.11,-0.03,-0.08,0.13
0.24288511276245117,0.11,0.01,-0.08,0.13
0.24431705474853516,0.01,0.03,0.03,0.04
0.25474023818969727,-0.04,0.01,0.07,0.08
0.2671189308166504,-0.04,0.01,0.05,0.06
0.2741270065307617,-0.05,-0.01,0.0,0.05
0.28400111198425293,-0.09,0.0,-0.03,0.09
0.2940371036529541,-0.1,0.06,-0.05,0.12
0.30400514602661133,-0.12,0.07,-0.03,0.14
0.3372640609741211,-0.15,0.05,0.02,0.15
0.3387112617492676,-0.02,0.03,-0.13,0.13
0.3397331237792969,0.05,0.01,-0.23,0.23
0.35051822662353516,0.09,-0.04,-0.24,0.25
0.353452205657959,0.09,0.01,-0.1,0.13
0.36658620834350586,0.06,0.03,-0.01,0.06
0.37353515625,0.1,0.0,-0.03,0.1
0.38341808319091797,0.16,-0.02,-0.03,0.16
0.39336299896240234,0.17,0.01,0.03,0.17
0.40302610397338867,0.13,0.02,0.06,0.14
0.4354081153869629,0.11,-0.05,0.09,0.15
0.4371471405029297,0.04,0.0,0.13,0.13
0.4384040832519531,0.07,-0.01,0.09,0.11
0.4506411552429199,0.14,-0.01,0.04,0.14
0.4528040885925293,0.15,0.01,-0.03,0.15
0.4664902687072754,0.08,0.01,-0.09,0.12
0.47270727157592773,-0.01,-0.02,-0.11,0.11
0.48316192626953125,0.01,0.04,-0.11,0.11
0.49275922775268555,0.09,0.06,-0.06,0.12
0.5029182434082031,0.1,-0.04,0.02,0.1
0.5149221420288086,0.06,-0.05,0.05,0.09
0.542726993560791,-0.01,0.01,0.04,0.04
0.544356107711792,-0.1,0.04,0.02,0.1
0.5457639694213867,-0.2,0.0,0.01,0.2
0.5520639419555664,-0.22,0.03,-0.05,0.22
0.5622110366821289,-0.19,0.1,-0.07,0.22
0.5719871520996094,-0.16,0.05,-0.1,0.19
0.5820341110229492,-0.12,0.0,-0.18,0.21
0.592041015625,-0.07,0.03,-0.21,0.22
0.6016192436218262,0.0,0.08,-0.13,0.15
0.6120309829711914,0.01,0.01,-0.04,0.04
0.6382541656494141,-0.05,-0.02,-0.05,0.07
0.639869213104248,-0.09,0.05,-0.08,0.13
0.6415841579437256,-0.03,0.01,-0.08,0.08
0.6513321399688721,0.07,-0.03,-0.04,0.08
0.6612529754638672,0.12,-0.06,-0.01,0.13
0.6714382171630859,0.15,-0.04,0.0,0.15
0.6813359260559082,0.19,-0.01,0.03,0.19
0.6911430358886719,0.27,-0.01,0.09,0.28
0.7016041278839111,0.32,-0.06,0.21,0.38
0.7136850357055664,0.24,-0.12,0.24,0.36
0.738184928894043,0.08,-0.09,0.11,0.16
0.739861011505127,-0.03,0.04,-0.03,0.05
0.7411842346191406,-0.08,0.1,-0.15,0.19
0.7506332397460938,-0.11,0.22,-0.14,0.28
0.7605481147766113,-0.24,0.19,-0.03,0.3
0.7703630924224854,-0.44,0.02,-0.03,0.44
0.7805919647216797,-0.35,0.12,-0.05,0.37
0.7904810905456543,-0.25,0.05,-0.16,0.3
0.8002610206604004,-0.25,-0.03,-0.49,0.55
0.8101029396057129,-0.23,0.03,-0.59,0.63
0.8385491371154785,-0.12,0.01,-0.49,0.5
0.840217113494873,0.03,0.0,-0.51,0.51
0.8419332504272461,0.14,0.08,-0.46,0.48
0.849879264831543,0.21,0.1,-0.26,0.34
0.8596141338348389,0.36,-0.06,-0.12,0.38
0.8699202537536621,0.46,-0.14,-0.14,0.5
0.879845142364502,0.38,-0.01,-0.17,0.41
0.8895261287689209,0.19,0.1,-0.18,0.28
0.899428129196167,0.01,0.1,-0.18,0.2
0.9098551273345947,0.01,0.02,-0.15,0.15
0.9481801986694336,0.12,0.01,-0.06,0.13
0.949955940246582,0.1,0.02,-0.04,0.1
0.9513850212097168,0.04,0.04,-0.11,0.12
0.9688529968261719,-0.01,0.12,-0.16,0.2
0.9703311920166016,-0.1,0.15,-0.27,0.32
0.9836750030517578,-0.1,0.09,-0.27,0.3
0.9849720001220703,-0.11,0.02,-0.3,0.32
0.9997591972351074,-0.19,0.06,-0.4,0.44
1.0012459754943848,-0.22,0.13,-0.41,0.48
1.0193591117858887,-0.17,0.02,-0.33,0.37
1.0450830459594727,-0.21,-0.11,-0.2,0.31
1.0468480587005615,-0.29,-0.07,-0.09,0.31
1.0478100776672363,-0.27,0.01,-0.1,0.28
1.0673022270202637,-0.23,0.0,-0.03,0.23
1.068796157836914,-0.13,-0.08,0.21,0.25
1.083665132522583,-0.05,-0.12,0.45,0.46
1.0851669311523438,-0.11,-0.17,0.46,0.5
1.1001372337341309,-0.27,-0.19,0.16,0.36
1.1016261577606201,-0.51,0.06,-0.13,0.52
1.1165740489959717,-0.61,0.25,-0.41,0.77
1.1403250694274902,-0.31,0.31,-0.58,0.72
1.142199993133545,0.21,0.29,-0.6,0.69
1.1432909965515137,0.38,0.16,-0.68,0.79
1.1472859382629395,0.28,0.13,-0.75,0.81
1.1672770977020264,0.16,0.16,-0.73,0.76
1.168769121170044,-0.06,0.21,-0.63,0.66
1.1838040351867676,-0.31,0.35,-0.64,0.79
1.1872351169586182,-0.58,0.55,-0.89,1.19
1.1971890926361084,-0.7,0.59,-1.33,1.61
1.2071561813354492,-0.54,0.5,-1.67,1.82
1.2430000305175781,-0.21,0.63,-1.68,1.8
1.2445759773254395,-0.08,0.8,-1.6,1.79
1.246063232421875,-0.07,0.58,-1.5,1.6
1.247622013092041,0.18,0.59,-1.32,1.45
1.2566111087799072,0.69,0.23,-1.38,1.55
1.266848087310791,1.1,0.14,-1.57,1.92
1.276637077331543,1.25,0.24,-1.96,2.33
1.2867732048034668,1.29,0.35,-2.15,2.53
1.2967162132263184,1.14,0.15,-2.01,2.31
1.3065409660339355,0.32,-1.03,-1.79,2.08
1.3164019584655762,-0.91,-0.38,-0.68,1.19
1.3437910079956055,-1.88,-0.36,-0.18,1.92
1.3453822135925293,-3.23,-1.43,-0.36,3.55
1.3468742370605469,-4.07,-1.0,-0.12,4.19
1.356234073638916,-3.62,-0.85,0.51,3.75
1.3661260604858398,-2.61,-1.63,1.42,3.38
1.3758749961853027,-2.0,-2.33,2.38,3.88
1.3860249519348145,-1.64,-2.36,2.83,4.03
1.3959369659423828,-0.79,-1.98,2.81,3.52
1.405790090560913,0.09,-1.13,2.5,2.74
1.4160561561584473,0.81,-0.7,2.22,2.46
1.4468622207641602,1.22,-0.89,2.71,3.1
1.4484901428222656,2.0,-0.31,2.49,3.2
1.4495491981506348,9.12,4.86,0.92,10.37
1.4678020477294922,10.94,2.48,1.79,11.35
1.469313144683838,6.15,-2.65,3.34,7.48
1.4838781356811523,-1.61,-2.7,2.65,4.11
1.4853250980377197,-5.54,-0.29,0.3,5.55
1.4999771118164062,-3.08,2.14,-0.44,3.77
1.5049729347229004,0.27,1.07,0.1,1.1
1.5165610313415527,0.82,0.28,0.39,0.95
1.544917106628418,0.01,-0.11,0.24,0.26
1.5465540885925293,-0.28,-0.26,-0.22,0.44
1.5475890636444092,0.23,-0.17,-0.55,0.61
1.568188190460205,0.58,-0.14,-0.45,0.74
1.5696821212768555,0.29,-0.04,-0.35,0.45
1.5840401649475098,-0.21,0.45,0.03,0.49
1.5854692459106445,-1.44,1.69,0.63,2.3
1.6006221771240234,-1.5,0.95,0.95,2.01
1.6041951179504395,-0.6,0.18,1.06,1.23
1.6178112030029297,-0.12,0.24,0.81,0.85
1.6427831649780273,-0.19,0.4,0.59,0.73
1.644625186920166,-0.45,0.24,0.5,0.71
1.6459169387817383,-0.66,0.13,0.34,0.75
1.6537561416625977,-0.75,0.2,-0.08,0.78
1.6639962196350098,-0.59,0.19,-0.36,0.71
1.6738760471343994,-0.3,0.09,-0.24,0.39
1.6835570335388184,-0.26,-0.02,0.04,0.26
1.693641185760498,-0.31,-0.07,0.17,0.36
1.703545093536377,-0.21,-0.06,0.24,0.32
1.7136602401733398,0.0,0.06,0.17,0.18
1.7495250701904297,0.28,0.17,-0.08,0.33
1.7509222030639648,0.43,0.14,-0.1,0.46
1.751880168914795,0.34,0.02,-0.05,0.34
1.7639801502227783,0.23,0.01,-0.02,0.23
1.7656311988830566,0.12,0.02,-0.01,0.12
1.7803881168365479,-0.05,-0.02,0.13,0.14
1.782872200012207,-0.19,0.08,0.2,0.28
1.8008289337158203,-0.07,0.06,0.24,0.25
1.8026151657104492,0.13,-0.02,0.19,0.23
1.8160161972045898,0.22,0.01,0.01,0.22
1.849113941192627,0.24,0.04,-0.13,0.27
1.8508310317993164,0.18,0.0,-0.1,0.2
1.851837158203125,0.08,0.0,0.08,0.11
1.8677330017089844,-0.08,-0.01,0.13,0.15
1.869218111038208,-0.25,-0.03,0.12,0.27
1.8831660747528076,-0.35,-0.01,0.08,0.35
1.8845601081848145,-0.35,0.02,-0.05,0.35
1.9003782272338867,-0.26,0.02,-0.17,0.31
1.9017362594604492,-0.16,0.04,-0.28,0.32
1.916288137435913,-0.15,0.08,-0.42,0.45
1.9471311569213867,-0.16,0.15,-0.45,0.5
1.9489750862121582,-0.17,0.18,-0.35,0.42
1.9504921436309814,-0.09,0.11,-0.24,0.27
1.9686341285705566,-0.04,0.06,-0.18,0.19
1.9701220989227295,-0.05,0.14,-0.38,0.4
1.9841861724853516,-0.14,0.22,-0.76,0.8
1.9856419563293457,-0.28,0.36,-0.69,0.82
2.000699996948242,-0.25,0.34,-0.39,0.57
2.00217604637146,-0.18,0.35,-0.39,0.55
2.0199031829833984,-0.17,0.59,-0.57,0.83
2.047636032104492,-0.11,0.67,-0.75,1.01
2.0493879318237305,0.01,0.53,-0.85,1.0
2.050469160079956,0.59,0.35,-0.87,1.1
2.0680389404296875,1.39,0.01,-1.11,1.77
2.069627046585083,1.67,-0.52,-1.38,2.22
2.0840511322021484,1.85,-0.9,-1.6,2.6
2.0855090618133545,1.83,-1.12,-1.79,2.79
2.100522041320801,1.52,-0.96,-1.54,2.36
2.1020240783691406,1.18,-1.01,-0.86,1.77
2.117293119430542,1.03,-1.27,-0.23,1.65
2.120666980743408,0.93,-1.35,0.25,1.65
2.158003091812134,0.77,-1.28,0.72,1.65
2.1595211029052734,0.52,-1.39,1.17,1.88
2.161252021789551,0.18,-1.52,1.38,2.06
2.163504123687744,0.12,-1.38,1.51,2.04
2.184415102005005,0.3,-1.01,1.78,2.06
2.185883045196533,0.32,-0.95,2.18,2.39
2.200740098953247,-0.01,-1.0,2.5,2.69
2.2021820545196533,-0.33,-0.87,2.86,3.0
2.2162270545959473,-0.43,-0.54,3.46,3.52
2.2195141315460205,-0.75,1.11,4.12,4.33
2.2575201988220215,-1.86,3.79,3.96,5.78
2.25870418548584,-2.83,2.32,2.42,4.38
2.2600512504577637,-3.35,0.84,0.14,3.45
2.263700008392334,-3.03,0.78,-1.99,3.7
2.269160270690918,-1.51,1.29,-2.18,2.94
2.2844252586364746,0.47,0.91,-1.01,1.43
2.2890400886535645,1.69,-0.12,-0.24,1.71
2.3006460666656494,1.49,-0.7,-0.09,1.64
2.3090851306915283,0.5,-0.9,-0.25,1.05
2.318686008453369,-0.23,-0.85,-0.66,1.1
2.3450241088867188,-0.49,-0.36,-0.95,1.12
2.346980094909668,-0.64,0.37,-0.68,1.0
2.348581075668335,-0.77,0.87,-0.03,1.16
2.3683340549468994,-1.01,0.97,0.41,1.45
2.3698339462280273,-1.33,0.79,0.28,1.57
2.3846402168273926,-1.4,0.47,-0.29,1.5
2.388169050216675,-1.2,0.38,-0.8,1.49
2.398329257965088,-0.9,0.48,-1.23,1.59
2.4087650775909424,-0.69,0.44,-1.65,1.84
2.420300006866455,-0.93,0.26,-1.81,2.05
2.4450430870056152,-0.52,-0.05,-1.5,1.58
2.44681715965271,1.11,-0.08,-0.47,1.2
2.447848081588745,2.22,0.08,0.05,2.22
2.4682021141052246,2.65,0.05,0.3,2.66
2.4696969985961914,2.09,-0.31,0.41,2.15
2.4834351539611816,1.17,-0.34,0.47,1.3
2.487460136413574,0.47,-0.12,0.57,0.74
2.499680995941162,0.27,-0.04,0.86,0.9
2.507406234741211,0.02,-0.07,0.64,0.64
2.5176820755004883,-0.25,0.12,-0.17,0.32
2.5546622276306152,-0.21,0.23,-0.71,0.77
2.5565061569213867,-0.11,0.12,-0.98,0.99
2.5578842163085938,-0.25,0.12,-1.19,1.22
2.568094253540039,-0.02,0.17,-1.04,1.05
2.5695509910583496,0.01,0.22,-0.9,0.92
2.584050178527832,-0.47,0.22,-0.81,0.96
2.5867562294006348,-0.9,0.23,-0.65,1.13
2.600677967071533,-1.01,0.31,-0.51,1.17
2.6065680980682373,-0.77,0.37,-0.44,0.96
2.6165599822998047,-0.4,0.31,-0.34,0.6
2.648855209350586,-0.43,0.2,-0.48,0.67
2.650726079940796,-0.67,0.17,-0.72,0.99
2.6518349647521973,-0.66,0.22,-0.71,0.99
2.6681389808654785,-0.38,0.23,-0.48,0.65
2.6696391105651855,0.13,0.09,-0.22,0.27
2.684299945831299,0.48,-0.09,0.01,0.48
2.6857810020446777,0.39,-0.2,0.14,0.46
2.701019048690796,-0.15,-0.18,0.13,0.26
2.7058491706848145,-0.82,-0.07,0.0,0.82
2.7170310020446777,-1.15,0.21,-0.09,1.17
2.7514541149139404,-1.1,0.38,-0.11,1.16
2.753296136856079,-0.86,0.26,-0.03,0.89
2.754779100418091,-0.66,0.08,-0.14,0.67
2.767879009246826,-0.55,0.01,-0.15,0.57
2.769318103790283,-0.68,0.03,-0.23,0.71
2.7844882011413574,-0.96,0.16,-0.72,1.21
2.785975933074951,-0.86,0.09,-0.97,1.29
2.800806999206543,-0.47,0.13,-0.56,0.74
2.80517315864563,-0.18,0.07,-0.11,0.22
2.8173160552978516,-0.14,-0.07,-0.12,0.19
2.8520801067352295,-0.1,-0.12,-0.3,0.33
2.8539352416992188,0.13,-0.11,-0.43,0.46
2.855163097381592,0.35,0.03,-0.49,0.6
2.8681702613830566,0.33,0.35,-0.85,0.97
2.8696670532226562,0.02,0.91,-1.21,1.51
2.8842902183532715,-0.08,1.18,-1.07,1.59
2.8857531547546387,0.07,1.05,-0.56,1.19
2.9009642601013184,-0.02,0.66,-0.35,0.74
2.904330253601074,-0.24,0.57,-0.1,0.62
2.914795160293579,-0.48,1.07,0.26,1.2
2.9246270656585693,-0.65,1.47,-0.06,1.6
2.9584290981292725,-0.74,1.73,-0.16,1.88
2.96012806892395,-0.75,1.84,-0.31,2.01
2.9619030952453613,-0.6,1.83,-0.58,2.01
2.9641342163085938,-0.32,1.72,-0.73,1.89
2.984546184539795,-0.19,1.81,-0.95,2.05
2.98602294921875,-0.02,1.75,-0.94,1.98
3.0012259483337402,0.17,1.63,-0.83,1.83
3.0036051273345947,0.07,1.72,-0.89,1.93
3.0165271759033203,-0.28,1.79,-1.04,2.08
3.0242199897766113,-0.57,2.05,-1.32,2.5
3.0561110973358154,-0.74,2.45,-1.61,3.02
3.057837963104248,-0.89,2.79,-1.69,3.38
3.0595650672912598,-1.2,2.83,-1.85,3.58
3.065059185028076,-1.72,3.06,-1.95,4.01
3.0730600357055664,-2.16,3.16,-2.02,4.32
3.0846261978149414,-2.5,2.99,-2.26,4.5
3.093261241912842,-2.62,2.61,-2.34,4.37
3.1028079986572266,-2.38,2.38,-2.16,3.99
3.112997055053711,-1.9,2.41,-2.19,3.77
3.122690200805664,-1.13,1.95,-2.34,3.24
3.1490211486816406,-0.54,1.55,-2.46,2.95
3.1508631706237793,0.01,2.1,-2.06,2.94
3.1523499488830566,1.89,3.53,-1.57,4.3
3.1685872077941895,3.71,5.19,-2.07,6.7
3.172426223754883,1.43,3.43,-3.47,5.08
3.18241024017334,-0.73,1.39,-3.95,4.25
3.192413091659546,-2.02,0.2,-4.27,4.72
3.2020301818847656,-3.92,-1.6,-4.59,6.24
3.2120351791381836,-3.57,-2.69,-4.22,6.14
3.222100257873535,-0.72,-3.03,-3.21,4.47
3.2516579627990723,-2.66,-3.19,-2.89,5.06
3.253509998321533,-5.91,-2.47,-3.24,7.17
3.254984140396118,-8.43,-1.71,-3.16,9.16
3.2679152488708496,-9.07,-1.11,-2.38,9.44
3.2716591358184814,-8.33,-1.15,-1.78,8.59
3.2848472595214844,-7.1,-1.48,-1.85,7.48
3.291667938232422,-6.19,-1.27,-2.04,6.64
3.30163311958313,-5.79,-0.61,-2.1,6.18
3.311291217803955,-5.62,-0.16,-1.87,5.92
3.3217051029205322,-5.51,-0.36,-1.6,5.74
3.3576812744140625,-5.41,-0.78,-1.34,5.62
3.35955810546875,-5.01,-1.16,-1.12,5.26
3.3609840869903564,-4.42,-1.25,-1.03,4.7
3.363821029663086,-3.73,-1.2,-1.09,4.06
3.3706412315368652,-3.06,-1.21,-1.07,3.46
3.3850021362304688,-2.6,-1.39,-0.76,3.04
3.3909871578216553,-2.28,-1.57,-0.18,2.77
3.4012451171875,-1.62,-1.31,0.72,2.2
3.410823106765747,-0.72,-0.8,1.65,1.97
3.4204890727996826,-0.03,-0.34,2.29,2.31
3.452651023864746,0.46,0.01,2.48,2.52
3.454508066177368,1.15,0.51,2.61,2.89
3.455655097961426,2.26,1.21,2.93,3.89
3.4597620964050293,3.51,1.69,3.48,5.22
3.470391273498535,4.68,1.98,3.94,6.43
3.480225086212158,5.55,2.04,3.83,7.04
3.4902329444885254,6.11,2.37,3.57,7.46
3.5000972747802734,6.72,2.65,3.3,7.94
3.510066032409668,7.4,2.35,3.28,8.42
3.519753932952881,8.0,1.96,3.78,9.06
3.5554709434509277,8.63,1.43,4.02,9.62
3.5570201873779297,9.14,0.94,3.87,9.96
3.5580430030822754,9.21,0.51,3.62,9.9
3.568511962890625,8.34,0.1,3.68,9.11
3.5700161457061768,7.06,-0.08,4.0,8.11
3.58498215675354,6.78,0.2,4.47,8.12
3.589233160018921,11.09,2.83,3.02,11.83
3.601076126098633,13.41,2.29,1.94,13.74
3.6092190742492676,16.5,3.09,4.72,17.43
3.6190690994262695,12.45,-2.71,7.02,14.54
3.6546192169189453,1.62,-5.32,3.16,6.39
3.65645694732666,-4.87,-0.31,0.45,4.9
3.6576051712036133,-3.52,0.49,-0.77,3.63
3.668489933013916,-0.4,1.74,-0.34,1.81
3.669997215270996,0.34,3.41,0.7,3.49
3.6847729682922363,-0.94,2.96,0.58,3.15
3.6884522438049316,-1.04,1.29,0.28,1.68
3.7003769874572754,-0.23,-0.17,-0.13,0.31
3.708606243133545,0.39,-0.07,-0.25,0.46
3.718140125274658,0.41,-0.22,-0.31,0.55
3.731508255004883,0.31,-0.47,-0.34,0.65
3.759140968322754,0.3,-0.23,-0.06,0.38
3.760374069213867,0.04,0.17,-0.31,0.35
3.7616419792175293,-0.17,0.34,-0.59,0.7
3.767641067504883,-0.29,0.13,-0.4,0.51
3.7850842475891113,-0.5,0.05,0.54,0.73
3.7877302169799805,-0.8,0.14,0.93,1.23
3.8011879920959473,-1.31,0.26,0.07,1.33
3.807781219482422,-0.95,0.19,-0.09,0.97
3.8174619674682617,-0.11,-0.03,-0.1,0.15
3.8273661136627197,0.69,-0.23,-0.24,0.76
3.855989933013916,1.29,-0.34,-0.05,1.33
3.8576202392578125,1.49,-0.19,0.41,1.55
3.8593249320983887,1.24,0.15,0.39,1.3
3.869019031524658,0.74,0.12,0.16,0.76
3.8772330284118652,0.36,0.18,0.02,0.4
3.886791229248047,0.11,0.33,-0.28,0.44
3.8970260620117188,-0.01,0.33,-0.42,0.53
3.9067161083221436,-0.11,0.3,-0.57,0.65
3.9171509742736816,-0.08,0.43,-0.67,0.8
3.9301681518554688,-0.01,0.4,-0.59,0.71
3.957763195037842,-0.07,0.27,-0.47,0.54
3.958940029144287,-0.15,0.14,-0.45,0.49
3.960374116897583,-0.25,-0.07,-0.52,0.58
3.9659831523895264,-0.39,-0.14,-0.56,0.69
3.976128101348877,-0.58,-0.18,-0.24,0.65
3.9861502647399902,-0.78,0.04,-0.18,0.8
3.9961681365966797,-0.82,0.21,-0.14,0.85
4.006044149398804,-0.59,0.14,0.06,0.6
4.016177177429199,-0.26,0.09,0.1,0.29
4.025997161865234,0.25,-0.07,0.05,0.26
4.054737091064453,0.69,-0.28,0.14,0.75
4.056596279144287,0.81,-0.36,-0.05,0.88
4.058043956756592,0.75,-0.3,-0.29,0.85
4.0689191818237305,0.69,-0.18,-0.33,0.78
4.075569152832031,0.66,-0.19,-0.2,0.71
4.085522174835205,0.74,-0.35,0.04,0.81
4.0953381061553955,0.76,-0.52,0.25,0.95
4.105272054672241,0.73,-0.6,0.29,0.98
4.115433216094971,0.64,-0.65,0.3,0.96
4.1282172203063965,0.48,-0.52,0.38,0.8
4.163908004760742,0.3,-0.3,0.13,0.44
4.165757179260254,0.03,-0.14,-0.09,0.16
4.167212963104248,-0.24,0.01,-0.21,0.31
4.185642242431641,-0.29,0.03,-0.16,0.33
4.187148094177246,-0.34,0.06,-0.27,0.43
4.202188014984131,-0.37,0.18,-0.49,0.63
4.203702926635742,-0.29,0.27,-0.46,0.6
4.218430995941162,-0.36,0.36,-0.53,0.73
4.219943046569824,-0.64,0.61,-0.51,1.02
4.23419713973999,-0.79,0.64,-0.47,1.12
4.264553070068359,-0.88,0.53,-0.56,1.17
4.2663490772247314,-1.08,0.53,-0.98,1.55
4.267711162567139,-1.01,0.5,-1.05,1.54
4.285606145858765,-0.73,0.51,-0.97,1.31
4.287090063095093,-0.81,0.48,-1.1,1.44
4.3016581535339355,-1.16,0.36,-1.34,1.8
4.303086280822754,-1.43,0.38,-1.34,1.99
4.318464279174805,-1.35,0.43,-1.22,1.86
4.319864273071289,-1.18,0.48,-1.09,1.67
4.3344480991363525,-1.01,0.3,-1.03,1.47
4.36125111579895,-0.84,0.23,-1.07,1.37
4.362664222717285,-0.48,0.37,-0.83,1.02
4.363688945770264,0.12,0.4,-0.46,0.62
4.365544080734253,0.52,0.4,-0.34,0.73
4.37299108505249,0.59,0.39,-0.59,0.92
4.383264064788818,0.66,0.43,-0.81,1.12
4.393425941467285,0.62,0.56,-0.82,1.17
4.403332233428955,0.66,0.87,-0.69,1.29
4.4130330085754395,0.33,1.47,-0.02,1.5
4.423036098480225,-0.08,1.65,0.76,1.81
4.456653118133545,-0.05,2.01,0.51,2.07
4.458053112030029,0.01,2.0,0.12,2.0
4.459015130996704,-0.27,2.53,0.19,2.55
4.46763801574707,-0.53,2.56,-0.07,2.61
4.472592115402222,-0.79,2.58,-0.55,2.75
4.482789993286133,-1.01,2.66,-1.08,3.04
4.49238395690918,-1.21,2.85,-1.81,3.58
4.502252101898193,-1.35,2.98,-2.11,3.89
4.512195110321045,-1.45,3.26,-2.37,4.28
4.521937131881714,-1.49,3.57,-2.54,4.62
4.535182952880859,-1.52,3.71,-2.47,4.7
4.5629050731658936,-1.46,3.4,-2.37,4.39
4.564104080200195,-1.16,3.35,-2.07,4.1
4.565113067626953,-1.11,3.25,-1.99,3.96
4.5857319831848145,-1.58,2.09,-2.45,3.58
4.587262153625488,-1.24,0.5,-2.63,2.95
4.601501941680908,-0.44,0.42,-2.18,2.26
4.602925062179565,0.51,1.2,-1.88,2.28
4.618680000305176,2.14,2.07,-1.49,3.32
4.621374130249023,4.16,3.02,-1.35,5.31
4.634606122970581,4.12,2.58,-2.61,5.51
4.663305044174194,1.25,0.23,-3.19,3.43
4.664651155471802,-0.53,-1.91,-2.76,3.39
4.66566014289856,-2.67,-3.9,-2.48,5.33
4.685685157775879,-1.54,-2.41,-0.84,2.98
4.687187194824219,-2.25,-2.38,-0.7,3.34
4.701717138290405,-6.31,-2.76,-1.98,7.16
4.703209161758423,-9.27,-2.02,-1.65,9.62
4.718738079071045,-8.56,-1.31,0.16,8.66
4.720597267150879,-6.02,-1.8,0.6,6.31
4.734556198120117,-4.43,-1.91,-0.23,4.82
4.764783143997192,-4.03,-1.42,-1.06,4.4
4.766211986541748,-4.02,-0.83,-1.54,4.38
4.767237186431885,-3.83,-0.67,-1.43,4.14
4.785998106002808,-3.46,-0.96,-1.16,3.77
4.787491083145142,-2.98,-1.24,-1.09,3.4
4.8016252517700195,-2.53,-1.15,-1.28,3.05
4.803105115890503,-2.48,-0.97,-1.47,3.04
4.81860613822937,-2.46,-0.66,-1.35,2.88
4.820008277893066,-2.2,-0.55,-1.12,2.52
4.837623119354248,-2.06,-0.65,-1.01,2.38
4.866300106048584,-1.99,-0.58,-0.9,2.25
4.867632150650024,-1.77,-0.31,-0.82,1.97
4.868641138076782,-1.57,-0.07,-0.77,1.75
4.885793209075928,-1.54,-0.1,-0.68,1.68
4.887293100357056,-1.71,-0.25,-0.5,1.79
4.903030157089233,-1.99,-0.21,-0.07,2.0
4.904417991638184,-2.22,-0.21,0.36,2.25
4.91886305809021,-2.22,0.1,0.67,2.32
4.920177936553955,-2.17,0.58,0.73,2.36
4.933361053466797,-2.25,1.01,0.6,2.53
4.9641499519348145,-2.11,1.1,0.53,2.43
4.965453147888184,-1.69,0.67,0.83,1.99
4.966472148895264,-1.24,0.28,1.33,1.83
4.985803127288818,-0.92,0.22,1.63,1.88
4.987237930297852,-0.68,0.51,1.64,1.84
5.001795053482056,-0.36,0.65,1.49,1.66
5.003188133239746,-0.09,0.65,1.35,1.5
5.018726110458374,0.37,0.77,1.23,1.49
5.020185947418213,0.97,0.9,1.13,1.74
5.033871173858643,1.47,0.82,1.08,1.99
5.0649590492248535,1.85,0.62,0.99,2.18
5.066226959228516,2.2,0.65,0.99,2.49
5.067234992980957,2.64,0.86,0.96,2.93
5.0861780643463135,3.19,1.02,0.85,3.45
5.08766508102417,3.73,1.32,0.83,4.04
5.10188102722168,4.35,1.37,0.74,4.62
5.103348255157471,4.9,1.15,0.56,5.06
5.118777275085449,5.36,0.81,0.58,5.45
5.120206117630005,5.71,0.26,0.86,5.78
5.134119033813477,6.01,-0.19,1.15,6.12
5.16303825378418,6.11,0.63,1.18,6.25
5.164490222930908,6.13,1.93,0.68,6.46
5.165493965148926,8.28,0.22,0.87,8.32
5.185932159423828,9.36,0.22,2.46,9.68
5.1873390674591064,8.92,-0.06,3.06,9.43
5.201756954193115,8.54,-0.51,2.77,8.99
5.203161239624023,9.93,-0.76,2.67,10.31
5.218713045120239,10.33,-0.77,2.56,10.67
5.220210075378418,8.69,-0.17,2.26,8.98
5.23411226272583,7.0,-0.59,2.34,7.4
5.2632081508636475,4.53,-2.85,2.68,5.98
5.2650580406188965,0.14,-2.02,4.15,4.61
5.266215085983276,-1.41,-0.82,5.62,5.85
5.2860801219940186,-0.8,-1.11,5.27,5.44
5.287549018859863,-0.11,0.14,3.17,3.17
5.302031993865967,-0.66,1.82,-0.04,1.93
5.303504943847656,-1.41,2.66,-1.3,3.27
5.318786144256592,-0.42,2.17,-0.28,2.22
5.320275068283081,0.71,0.38,0.51,0.95
5.334612131118774,1.06,-0.17,-0.24,1.1
5.336935997009277,0.81,-0.03,-1.0,1.28
5.382049083709717,0.27,-0.06,-0.86,0.9
5.383227109909058,-0.16,-0.31,-0.29,0.45
5.384251117706299,-0.22,-0.07,0.12,0.26
5.403079032897949,0.05,0.09,-0.02,0.1
5.404568195343018,0.49,0.03,-0.31,0.58
5.418545246124268,0.62,0.04,-0.35,0.71
5.420053005218506,0.28,0.14,-0.37,0.48
5.435479164123535,-0.04,0.38,-0.82,0.9
5.436943054199219,-0.03,0.37,-1.31,1.36
5.451017141342163,0.17,0.26,-1.68,1.7
5.478507995605469,0.23,0.22,-1.59,1.62
5.479886054992676,0.2,0.17,-1.11,1.14
5.480867147445679,0.03,0.07,-0.65,0.65
5.482954025268555,-0.22,0.07,-0.32,0.39
5.4846351146698,-0.51,0.13,-0.07,0.53
5.494708061218262,-0.69,0.12,-0.02,0.7
5.505049228668213,-0.58,0.0,-0.04,0.58
5.514886140823364,-0.37,-0.09,-0.04,0.38
5.524661064147949,-0.37,-0.09,-0.25,0.45
5.534634113311768,-0.21,-0.2,-0.36,0.46
5.563537120819092,0.29,-0.25,-0.1,0.39
5.564715147018433,0.83,-0.17,0.11,0.85
5.5657429695129395,1.16,-0.22,0.08,1.18
5.585466146469116,1.14,-0.25,0.08,1.16
5.586432933807373,0.93,-0.13,0.19,0.95
5.601699113845825,0.74,-0.1,0.17,0.76
5.603870153427124,0.62,-0.09,0.07,0.63
5.6188881397247314,0.85,-0.12,0.14,0.86
5.623940944671631,1.27,-0.18,0.36,1.33
5.634372234344482,1.03,-0.04,0.51,1.15
5.664673089981079,0.34,0.01,0.32,0.46
5.666083097457886,-0.31,0.04,0.16,0.35
5.667084217071533,-0.78,0.14,0.12,0.8
5.685790061950684,-0.82,0.22,-0.05,0.85
5.686844110488892,-0.82,0.34,-0.33,0.94
5.702113151550293,-1.01,0.41,-0.56,1.22
5.703546047210693,-1.34,0.37,-0.6,1.51
5.719162940979004,-1.61,0.38,-0.67,1.78
5.723170280456543,-1.65,0.36,-0.72,1.83
5.732933044433594,-1.58,0.47,-0.67,1.77
5.770350933074951,-1.54,0.54,-0.86,1.84
5.77167010307312,-1.53,0.5,-1.18,1.99
5.772684097290039,-1.5,0.37,-1.44,2.11
5.786412239074707,-1.5,0.21,-1.43,2.08
5.787801265716553,-1.48,0.12,-1.23,1.92
5.802045106887817,-1.37,0.24,-1.0,1.71
5.803494930267334,-1.04,0.36,-0.96,1.46
5.81886625289917,-0.57,0.31,-1.07,1.25
5.822745084762573,-0.31,0.01,-1.03,1.07
5.832505226135254,0.06,-0.18,-0.58,0.61
5.870906114578247,0.37,-0.36,-0.23,0.56
5.8722450733184814,0.54,-0.22,-0.2,0.61
5.8732171058654785,1.05,-0.22,0.08,1.07
5.887795925140381,1.47,-0.31,0.42,1.55
5.888814926147461,1.22,-0.23,0.12,1.24
5.902050018310547,0.94,0.0,-0.26,0.97
5.903557062149048,0.69,0.36,-0.57,0.96
5.9193971157073975,0.33,0.67,-1.05,1.28
5.921555042266846,-0.32,0.93,-1.44,1.74
5.934491157531738,-0.38,1.39,-1.84,2.33
5.967687129974365,0.69,1.9,-1.43,2.47
5.968961238861084,0.49,1.75,-1.13,2.13
5.969961166381836,-0.15,2.05,-0.87,2.23
5.971063137054443,-0.68,3.0,-0.92,3.21
5.9812891483306885,-1.18,4.46,-0.94,4.7
5.9912190437316895,-1.37,4.7,-0.27,4.9
6.001317977905273,-0.95,4.39,0.09,4.49
6.011228084564209,-1.07,3.96,-0.3,4.11
6.02118706703186,-1.53,4.19,-0.27,4.46
6.031001091003418,-1.53,4.34,0.03,4.6
6.066236972808838,-1.97,4.12,-0.41,4.58
6.067420959472656,-2.3,3.79,-0.72,4.49
6.068402051925659,-2.63,3.16,-0.9,4.2
6.086942195892334,-3.1,2.33,-1.04,4.01
6.087937116622925,-2.94,1.91,-1.06,3.66
6.100031137466431,-2.54,1.97,-1.26,3.45
6.101404190063477,-2.26,2.23,-1.36,3.45
6.119234085083008,-1.9,1.88,-1.3,2.97
6.1206581592559814,-0.18,1.07,-1.33,1.71
6.13477897644043,2.15,1.46,-1.54,3.02
6.139966011047363,4.48,3.63,-2.14,6.15
6.182596206665039,2.65,3.29,-3.4,5.42
6.183777093887329,-0.55,1.07,-3.44,3.64
6.184762001037598,-2.02,-1.14,-2.75,3.59
6.203406095504761,-3.23,-2.79,-3.06,5.25
6.204980134963989,-3.85,-2.51,-3.61,5.84
6.218483924865723,-2.05,-1.34,-3.25,4.06
6.219911098480225,-3.68,-1.37,-3.87,5.51
6.235775947570801,-6.77,-1.13,-4.55,8.23
6.2372870445251465,-8.28,-0.74,-4.38,9.39
6.251191139221191,-7.72,-0.63,-3.41,8.46
6.2799460887908936,-6.3,-1.25,-2.84,7.02
6.281382083892822,-5.02,-1.58,-2.7,5.91
6.282421112060547,-4.03,-1.45,-2.68,5.05
6.303231239318848,-3.53,-1.39,-2.74,4.67
6.304714202880859,-3.59,-1.55,-2.52,4.65
6.319260120391846,-3.67,-1.64,-1.96,4.47
6.32072114944458,-3.38,-1.72,-1.28,4.0
6.335950136184692,-3.17,-1.76,-0.79,3.71
6.3374481201171875,-3.43,-1.43,-0.62,3.76
6.351321220397949,-3.89,-0.92,-0.67,4.05
6.379305124282837,-4.09,-0.53,-0.62,4.17
6.380699157714844,-3.65,-0.39,-0.43,3.69
6.381699085235596,-2.67,-0.49,-0.13,2.71
6.402987957000732,-1.67,-0.43,0.05,1.72
6.404483079910278,-1.1,-0.15,0.1,1.11
6.419579029083252,-0.99,0.28,0.2,1.04
6.421061038970947,-1.04,0.68,0.37,1.29
6.435975074768066,-0.84,0.95,0.46,1.34
6.437480926513672,-0.17,1.19,0.44,1.28
6.451381206512451,0.56,1.38,0.54,1.58
6.480253219604492,1.05,1.44,0.8,1.95
6.481603145599365,1.47,1.49,1.08,2.35
6.482656955718994,1.91,1.4,1.2,2.65
6.503169059753418,2.25,1.42,1.27,2.94
6.504632949829102,2.49,1.48,1.3,3.17
6.51920223236084,2.62,1.59,1.34,3.34
6.520685195922852,2.92,1.62,1.53,3.67
6.536016941070557,3.22,1.52,1.94,4.05
6.537455081939697,3.2,1.41,2.62,4.36
6.551478147506714,2.93,1.38,3.32,4.63
6.5800299644470215,2.73,1.46,3.97,5.03
6.581459999084473,2.79,1.51,4.55,5.54
6.582465171813965,3.07,1.44,4.63,5.73
6.602745056152344,3.28,1.18,4.17,5.43
6.603772163391113,3.35,0.97,3.77,5.13
6.619352102279663,3.56,0.83,3.54,5.08
6.6208250522613525,3.99,0.61,3.36,5.25
6.635944128036499,4.6,0.47,3.06,5.54
6.637412071228027,5.37,0.1,2.58,5.95
6.651491165161133,5.99,-0.41,2.1,6.36
6.678612232208252,6.36,-0.8,1.82,6.66
6.679979085922241,6.56,-1.16,1.76,6.89
6.680959224700928,6.73,-1.25,1.73,7.06
6.683173179626465,6.91,-1.06,1.49,7.14
6.6856231689453125,6.86,-0.83,1.08,6.99
6.695497035980225,6.32,-0.79,0.66,6.4
6.705702066421509,5.43,-0.67,0.49,5.49
6.715726137161255,4.34,0.98,0.41,4.46
6.725773096084595,5.36,1.82,0.42,5.67
6.735579967498779,10.82,1.61,0.92,10.97
6.769952058792114,11.39,-1.26,0.68,11.47
6.771140098571777,4.39,-1.18,-0.31,4.55
6.7721662521362305,-2.93,0.64,0.26,3.01
6.786564111709595,-5.64,0.72,1.82,5.96
6.787619113922119,-4.0,0.48,3.91,5.61
6.802056074142456,-1.44,-0.3,4.89,5.1
6.804650068283081,0.31,-0.43,4.31,4.34
6.8197102546691895,0.39,0.76,2.02,2.19
6.824733257293701,0.37,1.29,0.85,1.58
6.834939002990723,1.35,0.42,1.2,1.85
6.870683193206787,1.86,-0.19,0.77,2.02
6.872076034545898,1.36,-0.08,-0.69,1.52
6.873044967651367,1.32,0.0,-2.15,2.52
6.885851144790649,1.71,-0.05,-2.95,3.41
6.886842250823975,1.02,0.24,-2.4,2.61
6.899657249450684,-0.03,0.28,-0.76,0.81
6.903730154037476,-0.46,0.0,0.73,0.86
6.91845703125,-0.57,-0.05,1.0,1.15
6.924020051956177,-0.41,0.14,0.74,0.85
6.93513298034668,-0.1,0.39,0.75,0.85
6.944147109985352,0.01,0.44,0.68,0.81
6.975114107131958,0.03,0.18,-0.26,0.31
6.976211071014404,0.27,0.2,-1.05,1.1
6.977359056472778,0.39,0.25,-1.56,1.62
6.983320236206055,0.31,0.33,-1.84,1.89
6.993377208709717,0.13,0.31,-1.76,1.79
7.003247261047363,0.0,0.36,-1.24,1.29
7.013392925262451,0.08,0.27,-0.7,0.75
7.023373126983643,0.12,0.1,-0.23,0.27
7.033668041229248,-0.03,-0.04,-0.11,0.12
7.0432891845703125,-0.1,-0.1,0.04,0.14
7.075236082077026,-0.03,-0.02,-0.05,0.06
7.076516151428223,0.03,-0.02,-0.2,0.2
7.077439069747925,0.09,-0.04,-0.2,0.22
7.083570957183838,0.15,-0.06,-0.13,0.2
7.092655181884766,0.25,-0.14,-0.03,0.28
7.102715015411377,0.41,-0.31,-0.02,0.51
7.112920045852661,0.39,-0.37,-0.05,0.53
7.122554063796997,0.09,-0.18,-0.21,0.29
7.132709980010986,-0.28,0.06,-0.27,0.39
7.142585277557373,-0.45,0.17,-0.03,0.48
7.174543142318726,-0.34,0.13,0.21,0.42
7.175905227661133,-0.26,0.03,0.14,0.29
7.176875114440918,-0.18,-0.04,-0.08,0.2
7.185431957244873,0.02,-0.07,-0.12,0.14
7.19173002243042,0.04,-0.07,-0.15,0.17
7.201587200164795,0.0,-0.07,-0.04,0.08
7.212206125259399,0.15,-0.16,0.06,0.22
7.221868991851807,0.2,-0.2,0.24,0.37
7.23191499710083,0.12,-0.25,0.23,0.36
7.2415771484375,-0.16,-0.42,-0.24,0.5
7.273827075958252,-0.7,-0.14,-0.85,1.11
7.2751500606536865,-1.36,0.64,-1.04,1.82
7.2761781215667725,-1.44,1.0,-0.69,1.88
7.2865800857543945,-1.14,0.84,-0.35,1.45
7.29105806350708,-1.08,0.53,-0.27,1.23
7.302351951599121,-1.05,0.25,-0.24,1.1
7.311283111572266,-1.01,0.13,-0.44,1.1
7.321141242980957,-1.16,0.11,-0.87,1.45
7.331143140792847,-1.29,0.09,-1.1,1.69
7.340857982635498,-1.36,0.14,-1.15,1.78
7.379640102386475,-1.43,0.19,-1.58,2.13
7.381015062332153,-0.59,0.34,-1.16,1.34
7.3820130825042725,0.03,0.41,-0.68,0.79
7.384122133255005,0.34,0.54,-0.73,0.96
7.390273094177246,0.39,0.76,-0.65,1.07
7.400461196899414,0.17,0.85,-0.81,1.18
7.41048526763916,-0.28,0.59,-1.14,1.31
7.421555995941162,-0.44,0.33,-1.26,1.37
7.430284023284912,-0.28,0.12,-1.34,1.37
7.440314054489136,-0.23,0.22,-0.78,0.84
7.477915048599243,-0.45,0.63,-0.42,0.88
7.4792070388793945,-1.0,1.21,-0.53,1.65
7.4801740646362305,-1.38,1.98,-0.39,2.44
7.482650279998779,-0.83,3.08,0.17,3.19
7.489474058151245,0.14,3.23,-0.33,3.24
7.4997570514678955,0.74,3.06,-0.69,3.22
7.509628057479858,0.72,2.78,-0.78,2.97
7.519673109054565,0.29,2.83,-0.63,2.91
7.529685020446777,-0.27,2.7,-0.45,2.75
7.539622068405151,-0.92,2.75,-0.52,2.94
7.576308250427246,-1.21,2.79,-0.79,3.14
7.577713966369629,-1.24,2.97,-1.03,3.37
7.578792095184326,-1.3,3.22,-1.21,3.67
7.582513093948364,-1.46,3.21,-1.53,3.84
7.589075088500977,-1.43,2.96,-1.92,3.8
7.602653980255127,-1.39,2.58,-2.12,3.61
7.608804225921631,-1.56,2.41,-2.17,3.59
7.619729995727539,-1.59,2.14,-2.2,3.45
7.628849029541016,-1.53,1.7,-2.21,3.18
7.63859224319458,-1.28,1.6,-2.04,2.89
7.675446033477783,-0.69,1.7,-1.65,2.46
7.676850080490112,0.18,1.84,-1.67,2.49
7.67790412902832,1.69,1.8,-1.81,3.06
7.686223030090332,4.43,3.21,-1.45,5.65
7.68795108795166,3.86,3.41,-2.41,5.68
7.702389240264893,0.76,1.22,-3.46,3.74
7.708177089691162,-1.15,-0.5,-3.11,3.35
7.71839714050293,-1.92,-1.46,-2.54,3.5
7.728054046630859,-2.94,-2.41,-2.39,4.49
7.7378151416778564,-1.32,-2.24,-1.8,3.16
7.748030185699463,-0.33,-2.41,-1.37,2.79
7.78020715713501,-3.54,-2.36,-2.09,4.74
7.781377077102661,-7.08,-2.09,-2.83,7.9
7.782377243041992,-8.68,-1.91,-2.23,9.16
7.803708076477051,-7.39,-2.03,-1.15,7.74
7.804711103439331,-4.89,-2.71,-0.86,5.65
7.820057153701782,-3.4,-3.03,-0.99,4.66
7.821510076522827,-3.21,-2.69,-1.33,4.39
7.836188077926636,-3.46,-2.16,-1.62,4.38
7.8375959396362305,-3.67,-1.83,-1.46,4.35
7.853192090988159,-3.79,-1.66,-1.01,4.25
7.881408214569092,-3.84,-1.56,-0.6,4.18
7.882883071899414,-3.9,-1.33,-0.51,4.15
7.883883953094482,-4.09,-0.8,-0.69,4.22
7.90313196182251,-4.12,-0.26,-0.71,4.18
7.904206275939941,-3.82,0.04,-0.52,3.85
7.919974088668823,-3.34,0.31,-0.29,3.36
7.921462059020996,-2.77,0.63,-0.01,2.84
7.936676025390625,-2.32,1.02,0.08,2.53
7.938112258911133,-1.99,1.48,0.03,2.48
7.952291011810303,-1.76,1.83,-0.1,2.54
7.981449127197266,-1.5,1.96,-0.08,2.46
7.982722043991089,-1.08,1.72,0.09,2.03
7.983723163604736,-0.66,1.15,0.28,1.35
8.003639221191406,-0.45,0.67,0.41,0.9
8.00511121749878,-0.38,0.4,0.53,0.76
8.019253253936768,-0.46,0.29,0.68,0.87
8.020713090896606,-0.63,0.39,0.99,1.23
8.0366849899292,-0.93,0.55,1.38,1.75
8.038143157958984,-1.08,0.8,1.56,2.05
8.052181243896484,-0.71,0.94,1.59,1.97
8.081508159637451,-0.16,0.99,1.63,1.91
8.082868099212646,0.56,1.03,1.61,1.99
8.083868980407715,1.22,0.78,1.44,2.04
8.103305101394653,1.65,0.44,1.28,2.13
8.104328155517578,1.95,0.16,1.15,2.26
8.12005615234375,2.25,0.16,1.05,2.48
8.121407985687256,2.61,0.46,1.16,2.89
8.136538028717041,2.97,0.67,1.33,3.32
8.138014078140259,3.11,0.75,1.32,3.46
8.152269124984741,3.13,0.92,1.37,3.53
8.184392929077148,3.44,0.97,1.41,3.84
8.185728073120117,3.99,0.84,1.31,4.28
8.186705112457275,4.57,0.74,1.23,4.79
8.204179048538208,5.21,0.65,1.2,5.38
8.205621242523193,5.62,0.37,1.35,5.79
8.22032117843628,5.61,0.27,1.59,5.83
8.221840143203735,4.23,2.74,1.72,5.32
8.236677169799805,4.53,2.46,1.57,5.38
8.238110065460205,7.53,0.72,2.27,7.89
8.252181053161621,8.98,0.66,2.9,9.45
8.284039974212646,8.77,0.32,2.41,9.1
8.285336971282959,7.5,-0.1,2.16,7.8
8.286303997039795,6.12,-0.1,2.14,6.48
8.303665161132812,5.25,-0.41,2.14,5.68
8.305079936981201,5.38,-0.76,2.43,5.95
8.320028066635132,7.43,-0.95,2.68,7.95
8.321514129638672,8.11,-1.62,2.51,8.64
8.336812973022461,6.23,-1.42,2.34,6.8
8.338268280029297,3.9,-2.12,2.44,5.06
8.352196216583252,1.64,-2.81,1.98,3.8
8.381347179412842,0.13,-2.09,1.46,2.55
8.38282299041748,-1.2,-0.5,1.35,1.87
8.383828163146973,-1.57,2.14,1.75,3.17
8.40344524383545,-1.81,3.41,0.81,3.94
8.404527187347412,-2.71,3.31,-0.97,4.38
8.4203200340271,-1.81,2.07,-0.63,2.82
8.421815156936646,0.91,-0.24,0.77,1.21
8.436655044555664,2.05,-0.62,1.07,2.39
8.438124179840088,1.4,-0.23,0.27,1.44
8.452434062957764,0.63,-0.08,-0.36,0.73
8.4812650680542,0.48,-0.24,-0.73,0.9
8.482499122619629,0.67,-0.1,-0.91,1.13
8.483482122421265,0.75,0.03,-0.39,0.84
8.50336217880249,0.81,-0.21,0.45,0.95
8.504361152648926,0.84,-0.42,1.2,1.52
8.52060317993164,0.48,-0.3,1.23,1.35
8.522096157073975,-0.18,-0.13,0.76,0.79
8.53695011138916,-0.67,-0.01,0.19,0.69
8.538411140441895,-0.71,0.12,-0.53,0.89
8.55239200592041,-0.31,0.13,-0.93,0.98
8.553807258605957,-0.14,0.17,-1.01,1.03
8.599520206451416,-0.14,0.3,-0.99,1.04
8.600632190704346,-0.06,0.45,-0.77,0.89
8.601631164550781,-0.1,0.5,-0.66,0.83
8.621053218841553,-0.15,0.38,-0.81,0.9
8.622538089752197,-0.1,0.33,-0.89,0.95
8.636782169342041,-0.09,0.3,-0.82,0.87
8.63819694519043,-0.13,0.29,-0.82,0.87
8.653326034545898,-0.27,0.27,-0.69,0.78
8.654806137084961,-0.37,0.26,-0.46,0.64
8.672260046005249,-0.4,0.2,-0.33,0.55
8.702991008758545,-0.47,0.19,-0.36,0.62
8.704211235046387,-0.58,0.2,-0.36,0.71
8.705150127410889,-0.58,0.03,-0.45,0.73
8.72088098526001,-0.58,-0.1,-0.64,0.86
8.721842050552368,-0.58,-0.08,-0.45,0.73
8.736696243286133,-0.45,-0.08,-0.28,0.53
8.738062143325806,-0.32,-0.1,-0.31,0.45
8.753384113311768,0.1,-0.17,-0.11,0.22
8.754882097244263,0.62,-0.22,0.15,0.67
8.76904821395874,0.86,-0.17,0.03,0.87
8.798789978027344,0.9,-0.13,-0.16,0.92
8.800127983093262,0.84,-0.05,-0.12,0.84
8.801139116287231,0.62,0.01,-0.05,0.62
8.82017207145691,0.35,-0.02,-0.02,0.35
8.821218967437744,0.18,-0.06,0.1,0.21
8.837817192077637,-0.05,0.01,0.28,0.28
8.83929705619812,-0.28,0.03,0.24,0.37
8.853639125823975,-0.42,0.04,0.17,0.45
8.855154991149902,-0.39,-0.01,0.18,0.42
8.869009017944336,-0.21,-0.05,0.11,0.24
8.897995948791504,-0.09,-0.03,-0.18,0.2
8.899362087249756,-0.28,-0.15,-0.46,0.55
8.900371074676514,-0.66,-0.16,-0.51,0.84
8.920269012451172,-1.41,0.05,-0.35,1.45
8.921337127685547,-1.29,0.57,-0.46,1.48
8.93591594696045,-0.73,0.79,-0.22,1.09
8.937394142150879,-0.67,0.61,-0.28,0.94
8.953647136688232,-0.7,0.5,-0.3,0.91
8.955127239227295,-0.6,0.15,-0.31,0.69
8.969138145446777,-0.5,-0.04,-0.62,0.79
8.99769401550293,-0.28,-0.15,-0.9,0.95
8.99894905090332,-0.12,-0.04,-1.28,1.28
8.999926090240479,-0.24,0.07,-1.68,1.69
9.020740032196045,-0.58,0.24,-1.68,1.79
9.021736145019531,-1.29,0.46,-1.62,2.12
9.037350177764893,-1.49,0.79,-1.61,2.33
9.038798093795776,-0.54,1.14,-1.13,1.69
9.054107189178467,-0.06,1.04,-1.02,1.45
9.055511951446533,0.06,0.79,-1.39,1.59
9.068974018096924,0.33,0.88,-1.25,1.56
9.09639024734497,0.54,1.23,-1.25,1.83
9.097676277160645,0.34,1.85,-1.18,2.22
9.098673105239868,0.26,2.82,-0.61,2.89
9.100825071334839,-0.35,3.99,-0.39,4.02
9.102242946624756,-1.29,4.56,-0.78,4.8
9.107243061065674,-1.29,4.81,-0.68,5.02
9.11732006072998,-0.67,4.77,-0.7,4.86
9.127354145050049,-0.36,4.75,-0.55,4.79
9.137580156326294,-0.43,4.61,-0.46,4.65
9.147308111190796,-0.69,4.18,-0.25,4.24
9.182679176330566,-1.38,3.44,-0.45,3.73
9.1840341091156,-1.83,3.0,-0.44,3.54
9.185044050216675,-2.18,2.46,-0.4,3.31
9.203705072402954,-2.61,1.52,-0.81,3.12
9.204727172851562,-2.61,1.25,-1.06,3.08
9.220669269561768,-2.3,1.45,-1.35,3.03
9.22209119796753,-1.98,1.38,-1.85,3.04
9.237061977386475,-1.2,1.01,-2.05,2.58
9.238538265228271,-0.25,1.51,-2.22,2.69
9.252665042877197,0.69,2.51,-2.51,3.61
9.283785104751587,3.01,3.86,-1.74,5.19
9.28514814376831,4.77,4.85,-1.83,7.04
9.286144256591797,1.62,1.86,-3.26,4.08
9.304196119308472,-1.3,-0.72,-3.71,3.99
9.305219173431396,-3.28,-2.96,-3.7,5.76
9.320563077926636,-4.42,-5.32,-2.84,7.47
9.32202410697937,-0.95,-4.64,-1.02,4.84
9.337217092514038,-0.79,-2.27,-0.68,2.49
9.338674068450928,-3.95,-2.96,-2.08,5.35
9.352882146835327,-6.81,-3.48,-2.58,8.07
9.355520248413086,-8.26,-3.24,-2.3,9.16
9.397205114364624,-7.05,-2.55,-1.82,7.71
9.398364067077637,-4.5,-1.7,-1.1,4.93
9.399353981018066,-3.18,-1.56,-1.33,3.78
9.421267032623291,-2.73,-1.22,-2.04,3.61
9.422299146652222,-1.96,-0.64,-1.77,2.71
9.437029123306274,-1.33,-0.47,-0.78,1.61
9.438502073287964,-1.48,-0.33,0.33,1.55
9.454124927520752,-2.26,-0.08,1.24,2.57
9.45561408996582,-3.18,0.15,1.53,3.53
9.469578266143799,-3.6,0.31,1.37,3.86
9.499230146408081,-3.3,0.29,1.27,3.54
9.50053596496582,-2.55,-0.09,1.4,2.91
9.501552104949951,-1.64,-0.55,1.44,2.25
9.520928144454956,-0.97,-0.98,1.08,1.75
9.521985054016113,-0.73,-1.25,0.71,1.61
9.537402153015137,-0.46,-1.35,0.5,1.51
9.53883409500122,0.07,-1.44,0.31,1.47
9.554057121276855,0.8,-1.46,0.16,1.67
9.555516242980957,1.23,-1.43,0.01,1.88
9.569536209106445,0.93,-1.31,-0.27,1.62
9.597949981689453,0.16,-1.03,-0.37,1.1
9.599359035491943,-0.5,-0.81,-0.17,0.96
9.600407123565674,-0.87,-0.73,0.16,1.14
9.621242046356201,-0.98,-0.37,0.58,1.19
9.622244119644165,-0.74,-0.02,0.91,1.17
9.637155055999756,-0.38,0.11,1.05,1.12
9.638617038726807,-0.3,0.26,1.09,1.16
9.65411114692688,-0.39,0.43,1.1,1.24
9.655601024627686,-0.22,0.51,1.15,1.27
9.669741153717041,0.29,0.66,1.31,1.49
9.698791980743408,0.78,0.85,1.55,1.93
9.700204133987427,0.79,0.82,1.68,2.02
9.701265096664429,0.42,0.86,1.76,2.0
9.721137046813965,0.23,0.87,1.8,2.01
9.722166061401367,0.35,0.69,1.7,1.86
9.73746395111084,0.58,0.53,1.65,1.82
9.738944053649902,1.0,0.71,1.83,2.2
9.753940105438232,1.81,0.82,1.76,2.65
9.755393028259277,2.74,0.88,1.37,3.18
9.769468069076538,3.47,1.04,0.92,3.73
9.797955989837646,3.86,1.11,0.8,4.09
9.799255132675171,4.15,0.9,0.87,4.33
9.800217151641846,4.58,0.49,0.98,4.7
9.822466135025024,5.14,0.3,1.0,5.24
9.823512077331543,5.47,0.24,0.78,5.53
9.837745189666748,5.21,0.16,0.58,5.24
9.83919620513916,4.78,0.26,0.54,4.81
9.854328155517578,4.63,0.18,0.71,4.68
9.855778217315674,4.57,-0.06,0.89,4.65
9.869648933410645,4.31,-0.15,0.96,4.41
9.898114204406738,3.9,-0.34,1.1,4.06
9.899463176727295,3.48,-0.62,1.22,3.73
9.900452136993408,3.17,-0.81,1.32,3.52
9.921146154403687,2.95,-1.08,1.37,3.42
9.922238111495972,2.87,-1.31,1.38,3.44
9.937218189239502,2.76,-1.52,1.36,3.43
9.938252925872803,2.78,-1.17,1.17,3.23
9.954321146011353,3.31,-1.12,0.78,3.58
9.955774068832397,3.79,-0.58,0.67,3.89
9.969769954681396,4.16,0.38,1.04,4.3
9.997660160064697,4.49,0.43,1.05,4.63
9.999074935913086,3.75,-0.49,0.69,3.84
10.000026226043701,1.07,-1.75,0.02,2.05
10.0210599899292,-0.95,-1.22,0.85,1.76
10.022149085998535,-0.45,-1.58,2.68,3.14
10.03731107711792,1.23,-2.22,3.49,4.31
10.03832197189331,2.25,-1.02,3.46,4.25
10.054063081741333,1.5,1.12,3.96,4.38
10.055524110794067,-0.47,2.3,3.08,3.87
10.069780111312866,-1.87,2.79,1.19,3.56
10.096566200256348,-1.87,2.64,-0.38,3.25
10.097881078720093,-1.02,1.88,-0.66,2.23
10.098901271820068,0.13,0.64,-0.13,0.66
10.100994110107422,0.91,-0.45,-0.04,1.01
10.102450132369995,0.91,-0.22,-0.08,0.93
10.109909057617188,0.45,0.13,-0.3,0.55
10.119922161102295,0.35,-0.1,-0.47,0.59
10.129776000976562,0.68,-0.49,-0.47,0.96
10.13994812965393,0.86,-0.51,-0.47,1.1
10.150043964385986,0.8,-0.38,-0.62,1.08
10.159752130508423,0.42,-0.33,-0.44,0.69
10.190794944763184,0.05,-0.32,-0.48,0.57
10.19214415550232,-0.17,-0.02,-0.38,0.41
10.193164110183716,-0.16,0.18,-0.11,0.26
10.204180240631104,0.04,0.09,0.03,0.1
10.208964109420776,0.12,0.1,0.0,0.15
10.22078013420105,-0.13,0.16,-0.43,0.47
10.229177951812744,-0.37,0.29,-0.72,0.85
10.239169120788574,-0.46,0.45,-0.93,1.13
10.249163150787354,-0.45,0.43,-0.64,0.89
10.258832931518555,-0.16,0.49,-0.31,0.6
10.290120124816895,-0.01,0.41,-0.31,0.51
10.29140305519104,0.01,0.18,-0.46,0.49
10.292410135269165,-0.05,0.05,-0.49,0.49
10.30478310585022,-0.11,0.1,-0.36,0.38
10.308285236358643,0.15,-0.05,-0.23,0.27
10.320703029632568,0.19,-0.15,-0.18,0.3
10.328391075134277,-0.19,0.1,-0.43,0.48
10.338263034820557,-0.21,0.1,-0.19,0.3
10.34821105003357,-0.15,-0.04,0.07,0.17
10.358102083206177,-0.3,0.02,0.1,0.31
10.388387203216553,-0.36,0.1,-0.07,0.38
10.389816045761108,-0.39,0.17,-0.34,0.54
10.390821933746338,-0.33,0.21,-0.5,0.63
10.404727935791016,-0.21,0.18,-0.46,0.53
10.407547950744629,-0.18,0.07,-0.39,0.43
10.420698165893555,-0.14,-0.03,-0.2,0.24
10.427823066711426,-0.31,-0.07,-0.1,0.33
10.437678098678589,-0.31,-0.04,-0.12,0.33
10.447583198547363,-0.07,0.06,0.03,0.09
10.457603931427002,0.06,0.13,0.0,0.14
10.489736080169678,0.11,0.13,-0.18,0.24
10.491030216217041,0.12,0.15,-0.28,0.33
10.492000102996826,0.18,0.14,-0.3,0.37
10.50485897064209,0.16,0.06,-0.3,0.34
10.506814956665039,0.07,0.05,-0.25,0.26
10.521013259887695,0.14,0.01,-0.34,0.36
10.526963233947754,0.38,-0.05,-0.3,0.48
10.53766393661499,0.29,0.0,-0.24,0.37
10.54698896408081,-0.11,0.1,-0.35,0.38
10.556763172149658,-0.56,0.23,-0.53,0.8
10.594792127609253,-0.8,0.31,-0.67,1.08
10.596476078033447,-0.94,0.38,-0.68,1.22
10.597471237182617,-1.14,0.4,-0.81,1.45
10.600383281707764,-1.21,0.31,-1.02,1.61
10.620922088623047,-0.95,0.33,-0.96,1.39
10.621961116790771,-0.77,0.34,-0.63,1.05
10.637640953063965,-0.81,0.31,-0.58,1.04
10.639108180999756,-0.89,0.3,-0.92,1.31
10.653418064117432,-0.96,0.22,-1.18,1.53
10.655910015106201,-0.95,0.21,-1.35,1.66
10.697628021240234,-1.23,0.32,-1.59,2.03
10.698787212371826,-1.41,0.46,-2.03,2.51
10.6997709274292,-1.28,0.52,-1.79,2.26
10.701972007751465,-0.97,0.45,-1.38,1.74
10.70541000366211,-0.51,0.19,-1.13,1.25
10.715305089950562,-0.49,0.12,-1.34,1.43
10.72535514831543,-0.44,0.48,-1.68,1.8
10.735604047775269,0.21,1.16,-1.47,1.88
10.745323181152344,0.6,1.73,-1.7,2.49
10.7552330493927,0.85,2.27,-1.69,2.95
10.79056715965271,0.75,3.26,-1.41,3.63
10.791707992553711,-0.35,4.18,-0.52,4.22
10.792723178863525,-1.51,4.9,-0.75,5.18
10.805662155151367,-1.35,4.56,-1.47,4.97
10.80670714378357,-0.58,4.14,-0.63,4.22
10.820308208465576,-0.95,3.6,-0.75,3.79
10.824701070785522,-1.38,3.18,-0.36,3.48
10.83781909942627,-1.55,2.94,0.11,3.32
10.844532012939453,-1.89,2.89,-0.1,3.45
10.85433316230774,-1.92,2.59,-0.31,3.23
10.891377925872803,-1.5,2.31,-0.18,2.76
10.892699241638184,-1.11,1.85,-0.4,2.19
10.893737077713013,-0.4,1.0,-0.57,1.21
10.90473222732544,0.35,0.32,-0.68,0.82
10.905821084976196,0.54,-0.03,-1.09,1.21
10.921385049819946,0.61,-0.07,-1.09,1.25
10.924041271209717,0.95,-0.09,-0.89,1.3
10.93797492980957,1.31,-0.31,-1.04,1.7
10.943987131118774,1.77,-0.73,-1.38,2.36
10.95362901687622,2.74,-0.34,-1.35,3.07
10.963627099990845,3.82,1.05,-1.41,4.2
10.995276927947998,2.66,0.97,-2.05,3.49
10.996493101119995,0.91,-0.25,-2.54,2.7
10.997694969177246,-0.26,-1.39,-2.5,2.87
11.00307321548462,-0.91,-1.92,-2.54,3.31
11.021672248840332,-1.11,-1.77,-2.79,3.48
11.02315902709961,-1.31,-1.9,-2.91,3.71
11.03792405128479,-1.7,-2.84,-3.02,4.48
11.043076992034912,-1.64,-2.58,-2.87,4.19
11.053436279296875,0.16,-1.21,-1.92,2.27
11.063037157058716,-0.38,-1.64,-1.67,2.37
11.095166206359863,-2.18,-2.41,-1.86,3.74
11.096371173858643,-4.13,-2.88,-1.64,5.29
11.097527980804443,-5.55,-2.89,-0.94,6.32
11.102319240570068,-6.11,-2.38,-0.12,6.55
11.121286153793335,-6.0,-1.69,0.43,6.24
11.12233304977417,-5.59,-1.12,0.56,5.72
11.138229131698608,-4.79,-0.57,0.49,4.84
11.142298221588135,-3.53,-0.16,0.41,3.55
11.153404235839844,-2.17,-0.1,0.1,2.17
11.162276268005371,-1.1,-0.28,-0.32,1.17
11.195019245147705,-0.49,-0.33,-0.62,0.85
11.1962571144104,-0.23,-0.26,-0.79,0.86
11.197422981262207,-0.03,-0.17,-0.79,0.8
11.20177698135376,0.22,-0.18,-0.72,0.77
11.211578130722046,0.36,-0.18,-0.49,0.63
11.221519947052002,0.3,-0.04,0.1,0.31
11.231548070907593,0.17,0.11,0.86,0.88
11.241568088531494,0.04,0.14,1.48,1.48
11.251698970794678,-0.28,-0.05,1.84,1.86
11.26140809059143,-0.76,-0.18,2.0,2.14
11.293832063674927,-1.2,-0.17,1.88,2.23
11.295226097106934,-1.16,0.2,1.71,2.07
11.296294212341309,-0.58,0.27,1.54,1.66
11.303953170776367,-0.09,-0.03,1.24,1.24
11.310747146606445,0.01,-0.18,1.15,1.16
11.320685148239136,-0.21,-0.16,1.59,1.61
11.330880165100098,-0.6,-0.16,1.85,1.95
11.340760231018066,-0.83,0.13,1.9,2.07
11.350933074951172,-0.75,0.37,2.04,2.2
11.360758066177368,-0.57,0.32,2.15,2.24
11.398506164550781,-0.36,0.24,1.96,2.0
11.399930000305176,-0.21,0.17,1.41,1.43
11.40093994140625,-0.02,0.05,0.96,0.96
11.421862125396729,0.44,-0.13,0.73,0.86
11.422888278961182,1.01,-0.22,0.53,1.16
11.43814992904663,1.41,-0.27,0.39,1.48
11.439640045166016,1.51,-0.23,0.23,1.54
11.454806089401245,1.39,-0.09,0.1,1.39
11.456226110458374,1.21,0.07,0.02,1.21
11.47061824798584,1.02,0.27,-0.03,1.05
11.49778699874878,0.89,0.51,-0.02,1.02
11.499237060546875,0.88,0.45,0.1,0.99
11.500285148620605,0.8,0.28,0.22,0.87
11.502608060836792,0.63,0.38,0.32,0.8
11.509314060211182,0.39,0.47,0.44,0.75
11.519285202026367,0.12,0.47,0.68,0.83
11.529152154922485,-0.08,0.37,0.83,0.91
11.539168119430542,-0.14,0.3,0.85,0.91
11.549369096755981,-0.03,0.33,0.79,0.85
11.559181213378906,0.02,0.52,0.79,0.94
11.594499111175537,0.09,0.59,1.05,1.2
11.5957670211792,0.17,0.46,1.27,1.36
11.596763134002686,0.27,0.37,1.29,1.36
11.60196304321289,0.47,0.39,1.2,1.34
11.621077060699463,0.74,0.4,0.93,1.25
11.622116088867188,1.0,0.33,0.75,1.29
11.638153076171875,1.27,0.06,0.73,1.46
11.6395902633667,1.54,-0.23,0.79,1.74
11.65420913696289,1.75,-0.5,0.84,2.0
11.658432006835938,1.76,-0.62,0.79,2.02
11.69604206085205,1.6,-0.63,0.64,1.83
11.697198152542114,1.52,-0.63,0.54,1.73
11.698379039764404,1.61,-0.57,0.49,1.77
11.701539039611816,1.75,-0.53,0.42,1.87
11.72116208076477,1.85,-0.45,0.35,1.93
11.722187995910645,1.98,-0.35,0.28,2.03
11.738245964050293,2.01,-0.28,0.15,2.03
11.739549160003662,1.88,-0.22,-0.05,1.89
11.753736972808838,1.82,-0.11,-0.27,1.84
11.757520198822021,1.83,-0.11,-0.45,1.88
11.769914150238037,1.77,-0.18,-0.53,1.85
11.797975063323975,1.71,-0.16,-0.51,1.79
11.79938793182373,1.66,-0.12,-0.38,1.7
11.800411224365234,1.63,-0.05,-0.27,1.65
11.807031154632568,1.66,-0.1,-0.27,1.68
11.817141056060791,1.61,-0.28,-0.17,1.64
11.827093124389648,1.58,-0.31,-0.06,1.61
11.837264060974121,1.69,-0.15,-0.05,1.69
11.847174167633057,1.82,-0.04,-0.12,1.82
11.856893062591553,1.9,-0.05,-0.16,1.9
11.867041110992432,1.83,0.08,-0.13,1.83
11.896979093551636,1.56,0.22,-0.14,1.58
11.898154258728027,1.22,0.33,-0.09,1.26
11.899380207061768,1.03,0.4,0.1,1.1
11.906301975250244,0.97,0.21,0.33,1.04
11.916333198547363,0.93,-0.07,0.47,1.04
11.92636513710022,0.81,-0.15,0.54,0.98
11.93662714958191,0.71,-0.2,0.57,0.93
11.94634199142456,0.58,-0.28,0.58,0.86
11.956303119659424,0.32,-0.4,0.5,0.71
11.966247081756592,0.02,-0.53,0.39,0.65
11.996143102645874,-0.31,-0.52,0.33,0.68
11.997322082519531,-0.58,-0.43,0.32,0.78
11.998579978942871,-0.66,-0.42,0.36,0.86
12.005589008331299,-0.63,-0.56,0.31,0.89
12.022132158279419,-0.59,-0.72,0.31,0.98
12.025650978088379,-0.56,-0.69,0.35,0.95
12.03854513168335,-0.58,-0.64,0.44,0.96
12.045506954193115,-0.73,-0.72,0.5,1.14
12.055355072021484,-0.83,-0.68,0.52,1.19
12.06529712677002,-0.69,-0.52,0.56,1.02
12.097121238708496,-0.34,-0.36,0.52,0.71
12.098276138305664,-0.04,-0.26,0.41,0.48
12.09938907623291,-0.28,0.42,-0.17,0.53
12.104786157608032,1.52,0.77,-0.41,1.75
12.114768028259277,4.37,2.04,0.1,4.82
12.125116109848022,5.49,2.85,1.24,6.3
12.13508415222168,4.74,1.65,1.22,5.16
12.144657135009766,2.72,0.03,1.19,2.96
12.154860019683838,0.64,-0.86,1.3,1.68
12.164666175842285,-0.66,-1.07,1.05,1.63
12.202503204345703,-1.14,-0.98,0.66,1.64
12.203818082809448,-1.23,-1.0,0.28,1.6
12.204822063446045,-0.46,-1.1,0.01,1.19
12.222661018371582,0.19,-0.92,-0.35,1.0
12.224195003509521,0.5,0.01,-0.26,0.56
12.238310098648071,0.81,0.64,0.71,1.25
12.239826202392578,1.05,1.13,2.07,2.58
12.255036115646362,1.22,1.21,2.48,3.01
12.25648021697998,0.99,0.67,1.26,1.73
12.270681142807007,0.88,0.29,0.2,0.94
12.301583051681519,0.7,0.13,0.25,0.75
12.302894115447998,0.28,0.02,0.92,0.96
12.303905963897705,-0.65,0.03,0.59,0.87
12.322598934173584,-1.09,0.22,-0.16,1.12
12.324005126953125,-0.87,-0.27,-0.16,0.92
12.338304996490479,-0.31,-0.55,0.19,0.65
12.339745998382568,-0.12,-0.32,0.17,0.38
12.35523796081543,-0.4,-0.09,-0.62,0.74
12.356691122055054,-0.44,0.3,-1.06,1.18
12.374756097793579,-0.17,0.6,-1.4,1.53
12.404001235961914,-0.13,0.58,-1.41,1.53
12.405219078063965,-0.3,0.45,-1.31,1.41
12.40623426437378,-0.47,0.63,-1.33,1.54
12.422666072845459,-0.64,0.58,-1.46,1.69
12.4236581325531,-0.47,0.43,-1.25,1.4
12.43849515914917,-0.02,0.43,-1.1,1.18
12.439874172210693,0.21,0.24,-0.94,0.99
12.454821109771729,0.47,0.11,-0.55,0.73
12.45628809928894,0.64,-0.09,-0.09,0.65
12.470823049545288,0.5,-0.16,0.35,0.63
12.498157024383545,0.22,0.06,0.33,0.4
12.499574184417725,0.08,0.17,0.24,0.3
12.500617027282715,0.23,0.1,0.32,0.4
12.502825260162354,0.32,-0.02,0.08,0.33
12.511799097061157,0.41,-0.22,-0.12,0.48
12.52173113822937,0.42,-0.26,-0.21,0.53
12.531604051589966,0.35,-0.18,-0.24,0.46
12.541752099990845,0.31,-0.23,-0.2,0.43
12.55192518234253,0.22,-0.34,-0.13,0.42
12.561889171600342,0.09,-0.29,-0.1,0.31
12.571474075317383,-0.1,-0.22,0.04,0.24
12.602030277252197,-0.34,-0.22,0.11,0.41
12.603147983551025,-0.44,-0.08,0.15,0.47
12.604091167449951,-0.2,-0.08,0.12,0.24
12.622779130935669,0.39,-0.33,0.15,0.53
12.624213218688965,0.85,-0.59,0.25,1.06
12.638484001159668,0.76,-0.65,0.35,1.05
12.640928268432617,0.25,-0.62,0.27,0.72
12.654879093170166,-0.28,-0.33,0.09,0.44
12.660942077636719,-0.62,0.02,0.1,0.62
12.67086124420166,-0.44,0.24,0.07,0.5
12.702507972717285,0.1,0.19,0.05,0.22
12.703761100769043,0.56,0.07,0.07,0.56
12.7047700881958,0.52,0.15,-0.11,0.55
12.722519159317017,0.01,0.29,-0.26,0.38
12.723985195159912,-0.44,0.34,-0.45,0.71
12.73880910873413,-0.6,0.43,-0.68,1.0
12.740272998809814,-0.89,0.59,-0.85,1.36
12.755396127700806,-1.29,0.67,-0.98,1.75
12.76001501083374,-1.61,0.82,-0.82,1.98
12.771499156951904,-1.75,1.04,-0.88,2.21
12.803346157073975,-1.9,1.0,-1.22,2.46
12.804734230041504,-2.39,1.16,-1.84,3.23
12.805791139602661,-2.62,1.05,-2.29,3.63
12.82296109199524,-2.34,0.5,-2.39,3.38
12.824429988861084,-1.94,0.29,-2.18,2.93
12.838779926300049,-1.44,0.25,-1.65,2.2
12.840253114700317,-0.52,0.04,-0.93,1.06
12.855483055114746,0.75,0.24,0.05,0.78
12.859445095062256,1.07,0.31,0.27,1.14
12.871017932891846,1.19,0.27,0.07,1.22
12.903168201446533,1.3,0.25,-0.18,1.33
12.904459953308105,0.89,0.18,-0.45,1.01
12.905465126037598,0.25,0.51,-0.94,1.09
12.922680139541626,-0.23,1.01,-0.9,1.37
12.92418098449707,-0.53,1.64,0.09,1.72
12.938873052597046,-0.72,2.01,0.93,2.32
12.940349102020264,-0.26,1.75,1.09,2.07
12.955402135848999,-0.33,1.84,0.95,2.09
12.95852518081665,-0.89,2.18,1.18,2.63
12.970617055892944,-0.66,2.19,0.78,2.41
13.00581693649292,0.19,1.96,0.53,2.03
13.0071439743042,0.56,1.9,0.08,1.98
13.008132934570312,0.32,2.05,-0.28,2.09
13.023338079452515,-0.47,2.28,-0.76,2.44
13.024801254272461,-1.03,2.5,-0.73,2.8
13.03883695602417,-0.89,2.6,-0.62,2.81
13.04029893875122,-0.38,2.28,-1.01,2.52
13.055130958557129,0.18,1.93,-1.32,2.34
13.05776596069336,0.43,1.76,-1.32,2.24
13.070652961730957,0.54,1.75,-1.41,2.31
13.105630159378052,0.48,1.09,-1.38,1.82
13.106925010681152,0.19,0.57,-1.24,1.37
13.107954978942871,0.4,1.0,-1.21,1.61
13.122624158859253,0.6,1.82,-1.42,2.38
13.123680114746094,0.19,0.59,-2.18,2.26
13.138895988464355,0.49,-0.9,-1.9,2.15
13.14032793045044,1.3,-0.55,-1.63,2.15
13.155641078948975,2.22,0.77,-1.73,2.91
13.157066106796265,4.02,2.35,-1.72,4.96
13.171040058135986,3.68,1.55,-2.93,4.95
13.20451307296753,1.32,-0.41,-3.64,3.89
13.205839157104492,-0.69,-1.78,-3.72,4.18
13.206829071044922,-2.48,-3.52,-3.45,5.51
13.223114013671875,-4.27,-4.43,-2.42,6.61
13.224605083465576,-4.54,-2.58,-0.73,5.27
13.238855123519897,-4.45,-1.36,-0.36,4.66
13.240340232849121,-5.51,-1.04,-1.11,5.71
13.255635261535645,-5.55,-0.13,-1.37,5.71
13.256927013397217,-4.63,0.19,-1.64,4.91
13.270888090133667,-4.17,0.24,-2.1,4.67
13.303479194641113,-4.41,0.46,-2.54,5.1
13.304964065551758,-4.64,0.75,-2.59,5.36
13.305943012237549,-4.5,0.75,-2.06,5.0
13.32311725616455,-4.04,0.3,-1.15,4.21
13.32459807395935,-3.71,-0.12,-0.39,3.73
13.338693141937256,-3.64,-0.32,-0.25,3.66
13.340174198150635,-3.55,-0.45,-0.71,3.64
13.355931282043457,-3.33,-0.61,-1.04,3.54
13.357341051101685,-2.81,-0.91,-1.05,3.13
13.371158123016357,-2.21,-1.09,-1.05,2.67
13.375443935394287,-1.65,-1.07,-1.11,2.25
13.419554233551025,-1.37,-0.93,-1.42,2.18
13.420728206634521,-1.49,-0.58,-1.69,2.32
13.421730995178223,-1.65,-0.06,-1.18,2.02
13.439678192138672,-1.7,0.13,-0.21,1.71
13.440706253051758,-1.84,0.47,0.53,1.97
13.455595016479492,-1.82,1.1,0.97,2.33
13.457082271575928,-1.54,1.27,1.29,2.37
13.472296237945557,-1.33,1.13,1.4,2.23
13.473797082901001,-1.36,1.04,1.22,2.1
13.488015174865723,-1.29,0.92,1.19,1.98
13.51625919342041,-0.87,0.85,1.37,1.83
13.517576217651367,-0.34,0.64,1.57,1.72
13.518588066101074,0.11,0.35,1.63,1.67
13.539621114730835,0.45,0.37,1.47,1.58
13.54112720489502,0.59,0.8,1.31,1.64
13.555671215057373,0.6,1.24,1.36,1.93
13.557106018066406,0.48,1.43,1.09,1.86
13.572623252868652,0.45,1.65,0.81,1.89
13.574097156524658,0.51,1.71,0.72,1.92
13.588068008422852,0.62,1.23,0.78,1.58
13.616353988647461,0.98,0.44,1.03,1.48
13.617738246917725,1.47,-0.17,1.17,1.88
13.61872911453247,1.87,-0.53,1.04,2.2
13.639856100082397,2.12,-0.66,0.77,2.35
13.641383171081543,2.14,-0.48,0.53,2.25
13.65576696395874,1.83,-0.27,0.74,1.99
13.657255172729492,1.18,-0.04,1.53,1.93
13.672794103622437,0.5,-0.1,2.46,2.51
13.67426609992981,0.28,-0.13,3.45,3.46
13.687339067459106,0.7,-0.15,4.18,4.24
13.7152841091156,1.21,-0.57,4.44,4.63
13.716667175292969,1.42,-0.91,4.47,4.77
13.71766996383667,1.52,-0.94,4.48,4.82
13.719768047332764,1.91,-0.77,4.49,4.93
13.722512245178223,3.01,-0.35,4.08,5.08
13.73239517211914,4.42,-0.1,3.41,5.58
13.742822170257568,4.97,-0.51,2.54,5.6
13.75291109085083,4.19,2.22,1.25,4.9
13.762794017791748,4.37,2.85,-0.75,5.27
13.772565126419067,9.41,2.19,0.25,9.66
13.808702945709229,20.76,2.13,2.05,20.96
13.809914112091064,24.79,1.71,3.02,25.03
13.810995101928711,13.87,0.84,0.49,13.9
13.8231840133667,0.76,-4.75,-5.24,7.11
13.824267148971558,-4.75,-1.69,-4.24,6.58
13.839219093322754,-2.92,3.5,2.51,5.2
13.841996192932129,-1.5,3.44,5.82,6.92
13.855693101882935,-1.62,2.19,3.91,4.76
13.861790180206299,-1.37,0.77,1.65,2.27
13.871744155883789,-0.84,-0.54,1.22,1.57
13.907231092453003,-0.65,0.15,0.45,0.8
13.908610105514526,-0.15,0.18,-1.02,1.04
13.909622192382812,0.82,-0.31,-2.13,2.3
13.922869205474854,1.61,-0.17,-2.65,3.1
13.923927068710327,1.45,0.09,-2.28,2.7
13.939423084259033,0.45,0.09,-1.29,1.36
13.941072940826416,-0.69,0.14,-0.24,0.74
13.955811023712158,-1.45,0.17,0.54,1.55
13.96100902557373,-1.72,0.04,0.98,1.97
13.971357107162476,-1.68,-0.06,0.79,1.85
14.009632110595703,-1.25,0.08,0.39,1.31
14.010915279388428,-0.43,0.04,0.24,0.49
14.011973142623901,0.5,-0.18,0.11,0.54
14.023340225219727,1.2,-0.35,-0.29,1.28
14.024352073669434,1.35,-0.35,-0.64,1.53
14.03909707069397,1.14,-0.36,-0.57,1.32
14.040578126907349,0.98,-0.27,-0.17,1.03
14.055917263031006,0.85,-0.07,0.18,0.87
14.060244083404541,0.71,0.22,0.3,0.8
14.070218086242676,0.38,0.32,0.22,0.54
14.107592105865479,0.08,0.18,0.37,0.41
14.108951091766357,0.44,-0.03,0.4,0.59
14.109951972961426,0.76,-0.06,0.16,0.77
14.123163223266602,0.76,-0.01,-0.09,0.76
14.124150276184082,0.5,0.01,-0.27,0.56
14.139028072357178,0.48,0.09,-0.34,0.59
14.140405178070068,0.83,0.04,-0.34,0.89
14.15619421005249,1.04,-0.04,-0.3,1.08
14.159812927246094,0.93,0.06,-0.07,0.93
14.171594142913818,0.29,0.08,0.01,0.3
14.179317951202393,-0.46,0.01,0.12,0.47
14.215916156768799,-0.83,-0.01,-0.05,0.83
14.217051029205322,-0.61,0.08,-0.28,0.67
14.21806526184082,-0.21,0.06,-0.31,0.37
14.220393180847168,-0.07,-0.06,-0.36,0.37
14.228858947753906,-0.04,-0.09,-0.51,0.51
14.239068031311035,-0.16,-0.09,-0.46,0.49
14.248878955841064,-0.12,-0.09,-0.28,0.31
14.259047985076904,-0.09,0.01,-0.29,0.3
14.268954277038574,0.01,0.05,-0.28,0.28
14.278645038604736,0.21,0.07,-0.16,0.27
14.310887098312378,0.15,0.08,-0.26,0.31
14.312159061431885,-0.16,0.1,-0.38,0.42
14.313168048858643,-0.51,0.17,-0.31,0.62
14.32098913192749,-0.67,0.21,-0.29,0.75
14.328221082687378,-0.62,0.22,-0.32,0.73
14.339035034179688,-0.41,0.19,-0.41,0.61
14.348093032836914,-0.25,0.19,-0.6,0.67
14.3579421043396,-0.26,0.19,-0.77,0.83
14.368088245391846,-0.34,0.19,-0.81,0.89
14.377686977386475,-0.37,0.22,-0.66,0.78
14.408137083053589,-0.48,0.28,-0.55,0.78
14.409353256225586,-0.78,0.32,-0.58,1.02
14.410396099090576,-1.18,0.36,-0.79,1.46
14.423486232757568,-1.57,0.39,-0.94,1.87
14.427322149276733,-1.32,0.24,-0.92,1.62
14.43693208694458,-0.92,0.18,-0.84,1.25
14.447648048400879,-0.83,0.07,-1.06,1.34
14.457289218902588,-0.72,0.0,-0.99,1.22
14.467294216156006,-0.66,-0.06,-0.61,0.9
14.477189064025879,-0.62,-0.03,-0.16,0.64
14.507397174835205,-0.61,0.07,0.06,0.61
14.508764266967773,-0.68,0.13,-0.07,0.69
14.50979208946228,-0.88,0.13,-0.27,0.92
14.523680210113525,-0.93,0.18,-0.48,1.06
14.526303052902222,-0.94,0.36,-0.66,1.2
14.539499044418335,-0.95,0.39,-0.97,1.41
14.546844959259033,-0.91,0.3,-1.05,1.42
14.556571960449219,-0.86,0.21,-1.03,1.35
14.566457271575928,-0.99,0.01,-0.58,1.14
14.576537132263184,-0.75,-0.14,0.17,0.78
14.613916158676147,-0.11,-0.14,0.57,0.59
14.615429162979126,0.36,0.19,0.34,0.53
14.616380214691162,0.74,0.26,-0.23,0.81
14.618962049484253,1.19,0.22,-0.6,1.35
14.63948106765747,1.38,0.01,-0.94,1.66
14.640940189361572,0.84,0.01,-1.35,1.59
14.656371116638184,0.06,0.06,-1.3,1.3
14.657812118530273,-0.33,0.51,-1.05,1.21
14.671572208404541,0.76,0.5,-0.32,0.96
14.675718069076538,1.79,-0.47,0.44,1.9
14.714138984680176,1.78,-0.47,0.94,2.06
14.715261936187744,1.15,0.27,1.08,1.6
14.71647596359253,0.4,0.83,1.0,1.35
14.718839168548584,0.27,1.17,0.94,1.52
14.740715980529785,0.14,0.99,0.33,1.05
14.742198944091797,-0.23,1.94,-0.18,1.96
14.756655216217041,-0.48,2.28,0.07,2.33
14.758191108703613,-0.58,2.24,0.39,2.34
14.77182912826538,-0.87,2.31,0.38,2.49
14.774923086166382,-1.19,2.26,0.2,2.56
14.816296100616455,-1.24,2.2,-0.04,2.52
14.81744909286499,-1.17,2.02,0.04,2.33
14.818455219268799,-1.05,1.83,-0.15,2.11
14.840474128723145,-1.11,1.69,-0.45,2.07
14.841975212097168,-1.09,1.8,-0.48,2.15
14.856276988983154,-0.91,1.85,-0.65,2.16
14.857789993286133,-0.8,1.68,-0.84,2.04
14.873074054718018,-0.93,1.47,-1.15,2.08
14.87451696395874,-0.96,1.45,-1.33,2.18
14.888548135757446,-0.74,1.81,-1.21,2.29
14.920111179351807,-0.37,1.91,-1.51,2.46
14.92146110534668,-0.14,1.82,-1.88,2.62
14.922461032867432,0.02,1.9,-1.93,2.7
14.939981937408447,-0.34,1.24,-2.29,2.62
14.941046237945557,-0.43,0.54,-2.04,2.15
14.956282138824463,0.42,1.32,-1.75,2.23
14.95774507522583,2.1,3.25,-1.85,4.28
14.97301721572876,3.07,3.64,-2.51,5.38
14.974489212036133,0.63,1.72,-3.46,3.91
14.98861813545227,-1.32,0.44,-3.55,3.81
14.990073204040527,-2.83,-1.6,-3.02,4.43
15.035064220428467,-3.03,-1.73,-1.21,3.69
15.036216259002686,-2.03,-1.67,-0.91,2.78
15.03724193572998,-4.36,-2.21,-2.63,5.55
15.059225082397461,-6.89,-1.61,-3.61,7.94
15.060681104660034,-7.19,-1.22,-3.32,8.01
15.069230079650879,-5.49,-1.4,-2.67,6.26
15.070655107498169,-3.51,-1.92,-2.43,4.68
15.090382099151611,-2.34,-2.12,-2.57,4.07
15.09183406829834,-1.96,-1.77,-2.92,3.93
15.105184078216553,-2.07,-1.49,-2.98,3.92
15.135317087173462,-2.43,-1.35,-2.4,3.67
15.136576175689697,-2.98,-1.35,-1.35,3.53
15.137521266937256,-3.56,-1.3,-0.27,3.79
15.157005071640015,-4.08,-0.92,0.51,4.21
15.158512115478516,-4.52,-0.39,0.88,4.62
15.173121929168701,-4.93,0.07,1.07,5.04
15.174546241760254,-5.01,0.22,1.15,5.14
15.189922094345093,-4.65,0.22,1.14,4.79
15.191325187683105,-3.9,0.48,0.92,4.03
15.205089092254639,-2.91,0.71,0.53,3.04
15.232780933380127,-2.09,0.72,0.16,2.21
15.234729051589966,-1.64,0.94,-0.04,1.89
15.235748052597046,-1.65,0.92,0.0,1.88
15.237908124923706,-1.69,0.67,0.08,1.81
15.239505052566528,-1.08,0.66,0.28,1.29
15.241040229797363,-0.13,0.6,0.55,0.82
15.251176118850708,0.32,0.6,0.66,0.94
15.261312007904053,0.36,0.71,0.53,0.95
15.271430969238281,0.32,0.81,0.39,0.95
15.281208038330078,0.37,0.78,0.46,0.97
15.310848236083984,0.54,0.73,0.64,1.11
15.312166213989258,0.78,0.69,0.79,1.3
15.313162088394165,0.84,0.64,0.84,1.34
15.320405006408691,0.72,0.68,0.82,1.28
15.330574035644531,0.59,0.78,0.74,1.22
15.340434074401855,0.79,0.97,0.79,1.47
15.350663185119629,1.44,0.81,0.7,1.79
15.360430240631104,1.94,0.4,0.68,2.09
15.370635032653809,2.14,0.02,0.83,2.29
15.380422115325928,2.36,-0.27,0.96,2.56
15.419122219085693,2.74,-0.54,1.1,3.0
15.420496940612793,3.23,-0.8,1.21,3.54
15.421511173248291,3.69,-0.96,1.44,4.07
15.440650939941406,4.03,-0.94,1.88,4.54
15.442145109176636,4.26,-0.78,2.38,4.94
15.456700086593628,4.35,-0.68,2.68,5.15
15.458215236663818,4.26,-0.48,2.73,5.08
15.47330093383789,4.33,-0.35,2.6,5.06
15.47472620010376,4.49,-0.47,2.62,5.21
15.488949060440063,4.71,-0.69,2.82,5.53
15.519166946411133,5.05,-0.85,3.04,5.95
15.520500183105469,5.31,-0.77,3.02,6.15
15.521537065505981,5.05,-0.46,2.57,5.68
15.540106058120728,3.81,2.64,1.43,4.85
15.541341066360474,4.38,1.9,0.9,4.85
15.556790113449097,8.03,1.72,2.27,8.52
15.558264255523682,14.54,2.83,4.45,15.46
15.573186159133911,15.53,1.22,4.18,16.12
15.57461404800415,5.83,-0.62,2.11,6.23
15.589206218719482,-3.42,-1.28,0.92,3.76
15.617149114608765,-5.92,-1.41,1.43,6.25
15.618412017822266,-2.77,-0.31,2.56,3.78
15.619413137435913,0.65,0.46,2.81,2.92
15.640213966369629,1.63,1.11,1.13,2.27
15.641241073608398,1.05,1.97,-0.44,2.27
15.656805992126465,0.86,1.23,-0.06,1.5
15.658252239227295,0.67,-0.28,0.43,0.84
15.673383235931396,0.24,-0.29,0.41,0.55
15.674839973449707,0.52,-0.23,-0.33,0.65
15.68897294998169,1.45,-0.44,-0.98,1.8
15.717499256134033,1.65,-0.46,-0.8,1.89
15.718884944915771,0.73,-0.09,-0.2,0.76
15.71986722946167,-0.38,0.27,0.47,0.66
15.741072177886963,-0.83,0.16,0.81,1.17
15.742114067077637,-0.65,-0.06,0.75,0.99
15.756989002227783,-0.29,-0.21,0.61,0.7
15.75846004486084,-0.31,-0.23,0.23,0.44
15.773714065551758,-0.49,-0.1,-0.25,0.55
15.775172233581543,-0.53,0.14,-0.28,0.61
15.789379119873047,-0.47,0.13,-0.33,0.58
15.79087495803833,-0.51,0.22,-0.54,0.77
15.833086967468262,-0.48,0.26,-0.71,0.89
15.834237098693848,-0.45,0.21,-0.73,0.88
15.83512806892395,-0.69,0.23,-0.73,1.03
15.837314128875732,-0.76,0.36,-0.81,1.16
15.8387451171875,-0.36,0.34,-0.67,0.83
15.846410274505615,0.03,0.29,-0.67,0.73
15.856673240661621,0.06,0.3,-0.87,0.92
15.8668532371521,0.04,0.23,-0.85,0.88
15.876852989196777,0.38,0.05,-0.62,0.72
15.886733055114746,0.95,-0.09,-0.39,1.03
15.916742086410522,1.33,-0.27,-0.03,1.35
15.917843103408813,1.37,-0.26,0.38,1.44
15.918828010559082,1.16,-0.07,0.45,1.24
15.925846099853516,0.79,-0.04,0.46,0.91
15.936097145080566,0.57,-0.1,0.56,0.8
15.946085929870605,0.43,-0.11,0.51,0.67
15.955671072006226,0.08,-0.06,0.35,0.36
15.965692043304443,-0.27,0.03,0.12,0.29
15.975786209106445,-0.41,0.08,-0.11,0.43
15.985668182373047,-0.37,0.13,-0.29,0.48
16.0168719291687,-0.39,0.14,-0.51,0.65
16.018085956573486,-0.55,0.18,-0.62,0.84
16.01909112930298,-0.5,0.27,-0.52,0.77
16.0404691696167,-0.35,0.17,-0.48,0.61
16.04149627685547,-0.49,0.17,-0.68,0.85
16.056745052337646,-0.46,0.0,-0.47,0.65
16.058138132095337,-0.25,-0.05,0.3,0.39
16.072219133377075,0.02,0.16,-0.13,0.2
16.075331211090088,0.2,0.28,-0.87,0.93
16.08951425552368,0.18,0.22,-1.01,1.04
16.1187481880188,0.17,0.01,-1.08,1.09
16.120092153549194,-0.05,0.0,-1.2,1.2
16.12113308906555,-0.47,0.22,-1.19,1.29
16.140459060668945,-0.92,0.33,-1.06,1.44
16.141499996185303,-1.16,0.39,-0.64,1.38
16.157083988189697,-1.25,0.37,-0.08,1.3
16.158589124679565,-1.49,0.29,-0.07,1.51
16.173588275909424,-1.75,0.19,-0.62,1.86
16.175034046173096,-1.75,0.24,-1.11,2.08
16.188961029052734,-1.61,0.28,-1.14,1.99
16.222849130630493,-1.15,0.05,-0.8,1.4
16.224189281463623,-0.79,-0.13,-0.46,0.92
16.22518515586853,-0.79,-0.22,-0.29,0.86
16.24137806892395,-0.72,-0.1,-0.28,0.77
16.24239206314087,-0.62,0.14,-0.49,0.8
16.256983280181885,-0.6,0.28,-0.71,0.97
16.258501052856445,-0.61,0.13,-0.8,1.01
16.273730278015137,-0.24,-0.16,-0.58,0.64
16.275217056274414,0.24,-0.31,-0.1,0.4
16.289289951324463,0.46,-0.34,0.18,0.59
16.32106614112854,0.6,-0.03,0.48,0.76
16.322387218475342,0.74,-0.17,0.87,1.15
16.323401927947998,0.93,-0.26,1.1,1.46
16.340813159942627,1.33,-0.23,0.85,1.59
16.341920137405396,1.88,-0.26,0.55,1.97
16.35680103302002,2.26,-0.33,0.63,2.36
16.358241081237793,1.83,-0.5,0.63,1.99
16.373411178588867,1.0,-0.53,0.32,1.17
16.37485909461975,0.49,-0.26,-0.03,0.55
16.389119148254395,0.44,0.18,-0.23,0.52
16.42002820968628,0.13,0.64,-0.8,1.03
16.421463012695312,-0.05,0.76,-1.26,1.47
16.42248296737671,0.04,0.78,-1.38,1.58
16.440535068511963,0.06,0.52,-1.09,1.2
16.441585063934326,0.05,0.24,-0.35,0.42
16.457067012786865,0.1,0.23,0.43,0.49
16.458535194396973,-0.26,0.17,0.82,0.87
16.47373914718628,-1.09,0.61,0.88,1.52
16.475239276885986,-1.16,1.69,1.11,2.33
16.489333152770996,-1.76,1.74,0.86,2.62
16.520267963409424,-1.62,1.77,0.47,2.44
16.521566152572632,-0.48,1.85,0.66,2.02
16.522576093673706,-0.56,1.79,0.19,1.88
16.5411319732666,-1.06,2.09,-0.57,2.41
16.542624950408936,-0.88,2.6,-0.18,2.75
16.55678415298462,-0.26,2.41,0.33,2.44
16.558255195617676,-0.12,2.0,-0.17,2.01
16.57396912574768,-0.67,1.73,-0.63,1.95
16.575457096099854,-0.83,1.71,-0.24,1.91
16.589320182800293,-1.09,1.89,-0.18,2.18
16.59105110168457,-1.34,2.01,-0.64,2.49
16.638049125671387,-1.45,2.19,-0.98,2.8
16.639220237731934,-1.47,2.18,-1.27,2.91
16.640226125717163,-1.39,1.87,-1.37,2.7
16.657552242279053,-1.38,1.46,-1.53,2.52
16.659001111984253,-1.28,1.06,-1.49,2.23
16.67374014854431,-0.92,1.04,-1.18,1.82
16.675193071365356,-0.78,1.4,-1.24,2.02
16.690453052520752,-0.63,1.91,-1.42,2.46
16.691920280456543,-0.68,1.61,-1.82,2.52
16.706725120544434,-0.49,0.77,-1.9,2.1
16.735571146011353,-0.09,0.35,-1.78,1.81
16.736894130706787,0.41,0.5,-1.67,1.79
16.73787808418274,1.12,1.12,-1.37,2.09
16.75743293762207,1.75,2.3,-1.12,3.09
16.758463144302368,0.86,2.12,-1.61,2.79
16.774052143096924,0.11,1.21,-1.67,2.06
16.775546073913574,0.24,0.98,-1.18,1.55
16.7904851436615,0.58,0.94,-0.77,1.34
16.791948080062866,0.4,0.33,-0.84,0.98
16.80594301223755,-1.22,-1.24,-1.6,2.36
16.834342002868652,-3.68,-3.53,-1.84,5.42
16.83579707145691,-2.88,-2.86,-1.34,4.27
16.836760997772217,-3.27,-1.5,-1.34,3.83
16.85797119140625,-5.54,-1.63,-2.08,6.13
16.859435081481934,-6.94,-1.81,-2.3,7.53
16.873987197875977,-6.69,-2.15,-1.95,7.29
16.87540912628174,-5.06,-2.85,-1.86,6.09
16.8907470703125,-3.66,-3.64,-1.87,5.49
16.892178058624268,-2.98,-4.07,-1.73,5.33
16.906063079833984,-2.6,-4.01,-1.57,5.03
16.935440063476562,-2.32,-3.66,-1.36,4.54
16.93683910369873,-2.27,-3.27,-1.21,4.16
16.93784999847412,-2.58,-2.62,-1.16,3.85
16.95754313468933,-3.02,-1.47,-1.17,3.55
16.958595275878906,-3.21,-0.33,-1.42,3.52
16.97422695159912,-3.44,0.58,-1.8,3.92
16.975714206695557,-3.61,1.71,-1.74,4.35
16.990922927856445,-3.32,2.67,-1.34,4.46
16.992383003234863,-2.85,2.95,-0.94,4.2
17.00607204437256,-2.5,2.86,-0.62,3.84
17.03384494781494,-2.28,2.73,-0.43,3.58
17.03527593612671,-1.94,2.53,-0.29,3.2
17.036259174346924,-1.47,2.34,-0.07,2.76
17.03872013092041,-1.05,2.37,0.14,2.59
17.04012393951416,-0.89,2.44,0.16,2.6
17.047333240509033,-0.92,2.42,-0.02,2.58
17.05755114555359,-0.77,2.16,-0.09,2.29
17.067320108413696,-0.32,1.53,0.07,1.56
17.07772922515869,0.14,0.86,0.36,0.94
17.087736129760742,0.48,0.52,0.67,0.97
17.123183250427246,0.73,0.38,0.92,1.23
17.12435817718506,0.83,0.2,1.08,1.37
17.125335216522217,1.01,-0.03,1.42,1.74
17.141343116760254,1.33,-0.29,1.95,2.37
17.142428159713745,1.57,-0.44,2.63,3.09
17.156978130340576,1.5,-0.46,3.39,3.73
17.158034086227417,1.37,-0.36,4.14,4.37
17.174020051956177,1.34,-0.05,4.7,4.88
17.17686104774475,1.56,0.49,4.83,5.09
17.187639236450195,2.16,0.69,4.64,5.16
17.22278594970703,2.81,0.63,4.5,5.34
17.224119186401367,3.22,0.74,4.31,5.43
17.22510313987732,3.6,1.09,3.9,5.41
17.2415132522583,4.23,1.18,3.28,5.48
17.24254322052002,4.99,0.79,2.62,5.69
17.25702404975891,5.17,2.61,1.91,6.09
17.258091926574707,5.08,2.8,1.15,5.91
17.27422523498535,7.75,0.61,0.88,7.82
17.27592897415161,13.46,0.22,1.79,13.58
17.289584159851074,16.79,-0.16,2.06,16.91
17.32296323776245,14.77,0.85,1.44,14.86
17.32425308227539,10.73,-1.61,0.98,10.89
17.325271129608154,3.32,-3.71,-0.14,4.98
17.341259956359863,-2.3,-1.79,0.12,2.91
17.342321157455444,-1.47,-1.09,1.11,2.14
17.357044219970703,1.17,-0.77,2.06,2.49
17.358407974243164,1.88,0.59,1.86,2.7
17.374245166778564,0.81,1.92,0.55,2.15
17.37572717666626,-0.74,2.43,0.01,2.54
17.38965892791748,-1.18,1.35,0.65,1.9
17.395132064819336,-0.64,-0.24,0.94,1.16
17.433471202850342,-0.2,-0.32,0.37,0.52
17.434630155563354,0.17,-0.01,-0.5,0.52
17.435489177703857,0.56,-0.06,-0.99,1.13
17.437551021575928,0.51,-0.06,-1.07,1.18
17.444513082504272,0.04,0.03,-0.66,0.66
17.45495104789734,-0.21,-0.14,0.23,0.34
17.4648380279541,-0.11,-0.33,0.99,1.04
17.474661111831665,0.06,-0.36,1.41,1.45
17.484418153762817,0.04,-0.32,1.29,1.32
17.494532108306885,0.14,-0.15,1.2,1.21
17.52558708190918,0.26,0.01,1.1,1.13
17.52699899673462,0.06,-0.07,0.6,0.6
17.5280122756958,-0.07,-0.16,-0.09,0.19
17.5412540435791,-0.07,0.0,-0.67,0.67
17.54385995864868,-0.14,0.14,-0.96,0.98
17.55739402770996,-0.14,0.32,-0.53,0.63
17.56417226791382,-0.3,0.27,-0.39,0.56
17.57411813735962,-0.6,0.16,-0.21,0.65
17.583856105804443,-0.77,0.32,-0.19,0.85
17.59356713294983,-0.72,0.19,-0.55,0.92
17.62602996826172,-0.44,0.26,-0.77,0.92
17.627211093902588,-0.34,0.41,-0.58,0.78
17.628252029418945,0.01,0.3,-0.55,0.62
17.64140009880066,0.55,0.03,-0.59,0.8
17.64292621612549,0.83,0.05,-0.6,1.02
17.657276153564453,0.83,0.12,-0.85,1.19
17.663095951080322,0.6,0.25,-0.81,1.03
17.673891067504883,0.26,0.3,-0.75,0.84
17.683195114135742,0.04,0.23,-0.54,0.58
17.692947149276733,0.01,0.18,-0.14,0.22
17.725566148757935,-0.13,0.12,0.02,0.17
17.726916074752808,-0.2,0.17,0.15,0.3
17.72788715362549,-0.29,0.17,0.22,0.4
17.741186141967773,-0.36,0.15,0.08,0.39
17.742245197296143,-0.3,0.09,-0.1,0.32
17.757471084594727,-0.23,-0.02,-0.19,0.29
17.762465953826904,-0.14,-0.1,-0.36,0.39
17.774198055267334,-0.29,-0.04,-0.68,0.74
17.782376050949097,-0.5,0.05,-0.97,1.09
17.79216194152832,-0.57,0.07,-0.68,0.89
17.8301260471344,-0.24,0.08,-0.36,0.44
17.831573009490967,0.17,-0.09,0.04,0.19
17.832674026489258,0.3,-0.33,0.18,0.48
17.833763122558594,0.24,-0.37,-0.1,0.45
17.841536045074463,0.17,-0.19,-0.32,0.4
17.857635974884033,0.07,-0.05,-0.34,0.35
17.861706256866455,0.01,-0.02,-0.39,0.39
17.874203205108643,-0.03,-0.11,-0.55,0.56
17.88149118423462,-0.12,-0.18,-0.6,0.63
17.89130401611328,-0.12,-0.18,-0.47,0.51
17.92922616004944,-0.1,0.0,-0.19,0.21
17.930577278137207,-0.19,0.22,-0.07,0.29
17.93156409263611,-0.19,0.41,-0.02,0.45
17.94135808944702,-0.09,0.4,0.12,0.42
17.942355155944824,0.0,0.24,0.15,0.28
17.957975149154663,0.15,-0.06,0.1,0.19
17.96086311340332,0.39,-0.17,-0.2,0.47
17.974544048309326,0.51,-0.11,-0.5,0.72
17.981065273284912,0.33,0.06,-0.56,0.65
17.990609169006348,0.01,0.3,-0.49,0.57
18.028756141662598,-0.43,0.46,-0.4,0.74
18.030149936676025,-0.74,0.32,-0.13,0.81
18.031163215637207,-0.79,0.13,-0.11,0.8
18.041237115859985,-0.64,0.11,-0.22,0.68
18.04232120513916,-0.58,0.02,-0.46,0.74
18.05790901184082,-0.6,-0.13,-0.73,0.95
18.060115098953247,-0.62,-0.4,-0.64,0.97
18.07449507713318,-0.73,-0.51,-0.46,1.0
18.079867124557495,-0.94,-0.4,-0.51,1.14
18.08984112739563,-0.49,0.01,-0.29,0.56
18.12700915336609,0.29,0.28,0.04,0.4
18.128334045410156,0.36,0.32,-0.24,0.53
18.129416942596436,-0.08,0.27,-0.53,0.6
18.141736030578613,-0.73,0.21,-0.66,1.0
18.1427960395813,-1.26,0.22,-1.04,1.64
18.157493114471436,-1.31,0.07,-1.07,1.69
18.15900707244873,-1.08,0.01,-0.4,1.15
18.17454195022583,-0.89,-0.09,0.1,0.9
18.179344177246094,-0.9,-0.04,0.25,0.93
18.18998908996582,-0.92,0.23,0.33,1.0
18.199283123016357,-0.82,0.35,0.15,0.9
18.22943615913391,-0.31,0.36,-0.22,0.52
18.23063611984253,0.69,0.34,-0.28,0.81
18.23178005218506,0.9,0.23,-0.84,1.25
18.24239706993103,1.05,0.47,-1.13,1.61
18.248449087142944,1.52,0.75,-0.65,1.81
18.258490085601807,1.4,0.78,-0.44,1.66
18.26863408088684,0.98,1.17,-0.31,1.55
18.278512001037598,0.17,1.84,-0.2,1.85
18.288679122924805,-0.72,2.23,-0.3,2.36
18.298474073410034,-0.93,2.72,-0.62,2.94
18.330849170684814,-0.55,3.09,-0.39,3.16
18.33228826522827,-0.7,2.76,-0.41,2.87
18.333393096923828,-0.89,2.56,-0.25,2.72
18.33765411376953,-1.0,2.26,-0.03,2.47
18.358156204223633,-0.93,1.96,0.44,2.21
18.359628200531006,-0.72,1.76,0.99,2.14
18.374759197235107,-0.37,1.51,1.17,1.94
18.377828121185303,-0.19,1.5,1.02,1.82
18.390220165252686,0.05,0.98,0.85,1.29
18.397765159606934,0.15,0.25,0.6,0.66
18.433774948120117,0.0,-0.4,0.39,0.55
18.43490695953369,0.26,-0.5,0.3,0.63
18.4360830783844,0.52,-0.02,0.39,0.65
18.437912940979004,0.33,0.13,0.16,0.38
18.447032928466797,0.1,-0.12,0.01,0.15
18.457414150238037,-0.29,-0.5,-0.37,0.68
18.467227935791016,-0.25,-0.4,-0.38,0.6
18.477241039276123,-0.06,0.21,-0.63,0.66
18.487077236175537,0.05,0.47,-1.45,1.52
18.49672794342041,0.39,0.46,-1.72,1.82
18.529601097106934,0.5,0.13,-1.66,1.73
18.531001091003418,0.36,-0.03,-1.61,1.65
18.53201913833618,0.02,-0.09,-1.68,1.68
18.54132604598999,-0.28,0.07,-1.68,1.7
18.54621410369873,-0.25,0.65,-1.3,1.47
18.557579040527344,0.06,1.07,-1.03,1.48
18.566524028778076,0.28,1.33,-0.91,1.63
18.576256275177002,0.56,2.02,-0.69,2.2
18.586388111114502,0.75,2.35,-0.67,2.55
18.596083164215088,-0.04,1.26,-0.98,1.59
18.632943153381348,-1.1,0.24,-1.34,1.75
18.634361267089844,-1.83,0.08,-1.55,2.39
18.635334014892578,-1.9,0.39,-1.44,2.41
18.637782096862793,-1.65,0.71,-1.54,2.36
18.645398139953613,-1.62,0.67,-1.88,2.57
18.655867099761963,-1.66,0.51,-1.9,2.57
18.66552495956421,-1.73,0.7,-1.65,2.49
18.6757390499115,-1.78,1.09,-1.53,2.58
18.685492038726807,-2.02,0.97,-1.77,2.85
18.69542908668518,-1.76,1.48,-1.96,3.02
18.732017993927002,-1.67,1.46,-2.29,3.18
18.7332820892334,-3.47,0.8,-3.2,4.78
18.734282970428467,-5.52,0.88,-3.55,6.62
18.737470149993896,-6.44,1.09,-2.99,7.18
18.757750988006592,-5.94,0.8,-2.17,6.37
18.758849143981934,-4.53,0.15,-1.64,4.82
18.774599075317383,-3.18,-0.59,-1.47,3.55
18.77607297897339,-2.62,-0.96,-1.56,3.19
18.790260076522827,-2.72,-0.88,-1.69,3.32
18.794687271118164,-3.12,-0.63,-1.62,3.57
18.83274793624878,-3.34,-0.5,-1.34,3.63
18.833943128585815,-3.19,-0.51,-0.95,3.36
18.835191249847412,-2.98,-0.45,-0.65,3.08
18.83758807182312,-3.15,-0.31,-0.55,3.21
18.85830807685852,-3.58,-0.03,-0.54,3.62
18.859811067581177,-3.93,0.2,-0.32,3.94
18.874731063842773,-3.84,0.26,0.16,3.85
18.876212120056152,-3.35,0.13,0.72,3.42
18.8904390335083,-2.89,-0.12,1.08,3.08
18.8939790725708,-2.55,-0.13,1.17,2.8
18.9326810836792,-2.23,0.08,1.12,2.49
18.933921098709106,-1.89,0.38,1.06,2.2
18.935137271881104,-1.39,0.67,0.9,1.78
18.937486171722412,-0.77,0.76,0.68,1.27
18.956850051879883,-0.08,0.61,0.56,0.83
18.958389282226562,0.56,0.44,0.57,0.91
18.975080013275146,1.21,0.2,0.44,1.3
18.976535081863403,1.8,-0.08,0.02,1.8
18.99059295654297,2.04,-0.3,-0.32,2.08
18.992983102798462,1.87,-0.39,-0.34,1.94
19.00636911392212,1.39,-0.41,-0.15,1.45
19.034305095672607,0.8,-0.44,0.22,0.93
19.035638093948364,0.46,-0.28,0.77,0.93
19.036499977111816,0.41,-0.16,1.23,1.3
19.04270911216736,0.51,0.1,1.5,1.58
19.052485942840576,0.76,0.21,1.68,1.85
19.062539100646973,0.97,0.23,1.73,1.99
19.07275915145874,1.14,0.38,1.71,2.09
19.082699060440063,1.45,0.56,1.65,2.26
19.09252905845642,1.96,0.81,1.47,2.58
19.10237693786621,2.41,0.97,1.13,2.83
19.132669925689697,2.47,1.12,0.93,2.86
19.13388705253601,2.43,1.34,0.95,2.93
19.135129928588867,2.73,1.6,1.08,3.34
19.141715049743652,3.58,1.73,1.49,4.24
19.158196926116943,4.55,1.36,1.78,5.07
19.161607265472412,5.01,0.94,1.89,5.43
19.175178050994873,4.91,0.87,1.86,5.32
19.18180012702942,4.71,0.6,1.68,5.03
19.191540241241455,4.65,0.04,1.52,4.89
19.201642990112305,4.36,-0.23,1.12,4.5
19.232100009918213,4.16,-0.29,0.73,4.23
19.23335027694702,4.5,-0.42,0.72,4.57
19.23459005355835,4.96,-0.79,0.73,5.07
19.241019248962402,4.94,-1.36,0.4,5.13
19.258132934570312,4.66,-1.74,0.29,4.98
19.260825157165527,4.48,-1.97,0.69,4.94
19.274930953979492,4.19,-2.32,1.09,4.91
19.280949115753174,3.61,-2.67,1.26,4.66
19.29084300994873,3.44,-2.3,1.94,4.57
19.300865173339844,7.48,2.38,2.61,8.27
19.331552028656006,10.8,4.34,2.18,11.84
19.33273696899414,11.95,1.34,1.93,12.17
19.334057092666626,8.17,-3.34,3.73,9.58
19.340187072753906,1.03,-3.34,3.17,4.71
19.350225925445557,-2.3,-1.37,1.7,3.17
19.36065101623535,-1.71,0.12,1.52,2.29
19.370711088180542,-1.02,1.16,0.36,1.58
19.380479097366333,-1.45,1.72,-0.88,2.41
19.39035701751709,-1.86,2.7,-1.07,3.44
19.400140047073364,-2.12,3.26,-1.13,4.04
19.438765048980713,-1.72,2.45,-0.54,3.04
19.440065145492554,-0.15,0.24,0.49,0.56
19.44107723236084,0.89,-0.47,1.1,1.49
19.459180116653442,0.48,-0.24,0.68,0.86
19.460674047470093,-0.28,-0.12,0.22,0.37
19.47503113746643,-0.36,-0.12,-0.02,0.38
19.476393222808838,-0.08,-0.02,-0.28,0.29
19.491775035858154,0.28,0.02,-0.7,0.75
19.493240118026733,0.32,0.05,-0.96,1.01
19.50778818130493,-0.42,0.16,-0.71,0.84
19.537649154663086,-0.98,0.19,-0.16,1.01
19.53905415534973,-0.59,0.12,0.96,1.13
19.540038108825684,-0.2,-0.22,1.09,1.12
19.5590341091156,-0.18,-0.31,0.66,0.75
19.560548067092896,-0.09,-0.28,0.44,0.52
19.57524013519287,0.09,-0.3,0.17,0.35
19.576694011688232,0.39,-0.27,0.05,0.47
19.591735124588013,0.81,-0.31,-0.14,0.87
19.593148231506348,0.87,-0.16,-0.21,0.9
19.607055187225342,0.59,0.1,-0.16,0.61
19.63692617416382,0.27,0.25,-0.2,0.41
19.638286113739014,0.01,0.34,-0.33,0.47
19.639337062835693,-0.1,0.29,-0.43,0.52
19.660600185394287,-0.01,0.17,-0.36,0.39
19.66209316253662,0.31,0.1,-0.3,0.44
19.673423051834106,0.62,0.07,-0.31,0.69
19.674899101257324,0.7,0.12,-0.47,0.85
19.69181513786316,0.63,0.22,-0.69,0.95
19.693191051483154,0.3,0.23,-0.69,0.78
19.710814952850342,-0.18,0.28,-0.48,0.58
19.741291046142578,-0.48,0.22,-0.53,0.74
19.742563247680664,-0.66,0.2,-0.78,1.04
19.74353313446045,-0.91,0.31,-0.78,1.23
19.75881004333496,-1.12,0.28,-0.75,1.37
19.759844064712524,-1.1,0.1,-0.52,1.22
19.775164127349854,-0.93,0.3,-0.53,1.11
19.776655197143555,-0.54,0.31,-0.68,0.92
19.79159116744995,0.06,-0.11,-0.45,0.46
19.79305911064148,0.45,-0.18,-0.05,0.48
19.807170152664185,0.41,-0.18,-0.05,0.45
19.80845594406128,0.48,-0.22,-0.16,0.55
19.854140281677246,0.34,0.06,-0.2,0.39
19.855288982391357,0.31,0.17,-0.21,0.41
19.85627317428589,0.39,0.13,-0.09,0.42
19.875901222229004,0.46,0.0,-0.12,0.47
19.87739324569702,0.37,-0.05,-0.21,0.42
19.891973972320557,0.11,0.05,-0.38,0.39
19.893442153930664,-0.15,0.06,-0.72,0.73
19.908367156982422,-0.38,0.08,-1.0,1.07
19.909841060638428,-0.46,0.2,-0.8,0.94
19.92425513267517,-0.71,0.21,-0.65,0.98
19.95305299758911,-1.17,0.19,-0.62,1.33
19.954421997070312,-1.39,0.24,-0.55,1.51
19.95542812347412,-1.15,0.22,-0.57,1.3
19.975576162338257,-0.71,0.15,-0.44,0.84
19.977077960968018,-0.13,0.02,-0.13,0.18
19.992103099822998,0.07,-0.08,0.0,0.1
19.99355697631836,-0.05,-0.1,-0.01,0.11
20.0084810256958,-0.39,0.02,-0.23,0.45
20.009993076324463,-0.67,0.26,-0.37,0.8
20.024782180786133,-0.68,0.32,-0.3,0.8
20.055519104003906,-0.41,0.08,-0.24,0.48
20.056888103485107,-0.34,-0.17,-0.32,0.49
20.057842254638672,-0.34,-0.48,-0.28,0.65
20.076009273529053,-0.54,-0.86,0.05,1.01
20.077476978302002,-0.67,-1.03,0.11,1.23
20.091771125793457,-0.51,-1.03,0.23,1.17
20.093157052993774,-0.7,-0.76,0.43,1.11
20.10840606689453,-1.3,-0.22,0.3,1.35
20.10982322692871,-1.09,0.79,-0.22,1.36
20.12439727783203,-0.21,1.27,-0.15,1.29
20.153395175933838,0.49,0.81,-0.08,0.95
20.154839992523193,0.48,0.56,-0.42,0.84
20.15585422515869,0.01,0.63,-0.84,1.05
20.175803184509277,-0.41,0.7,-1.38,1.6
20.177308082580566,-0.65,0.41,-1.72,1.88
20.1923611164093,-0.49,0.04,-1.15,1.25
20.193836212158203,-0.12,-0.23,-0.39,0.46
20.208488941192627,-0.35,-0.23,-0.27,0.49
20.209809064865112,-0.77,0.07,-0.43,0.88
20.224284172058105,-0.33,0.42,-0.6,0.8
20.253565073013306,0.06,0.5,-0.83,0.97
20.254884243011475,0.71,0.23,-0.8,1.09
20.255887985229492,1.47,0.19,-0.85,1.7
20.275411128997803,1.57,0.22,-1.08,1.91
20.27647304534912,1.26,-0.02,-0.85,1.52
20.29214310646057,1.09,0.22,-0.34,1.16
20.293625116348267,0.87,0.51,0.26,1.04
20.308784008026123,0.38,0.16,0.69,0.8
20.31023597717285,0.16,0.76,0.79,1.1
20.32425308227539,0.29,1.15,1.3,1.75
20.351941108703613,0.54,0.69,1.29,1.55
20.353322982788086,0.42,0.37,1.15,1.27
20.354337215423584,-0.18,0.32,0.77,0.85
20.35622501373291,-0.15,0.78,0.7,1.05
20.35768222808838,-0.2,0.9,0.63,1.11
20.36253309249878,-0.38,0.83,0.05,0.91
20.37266492843628,-0.07,0.71,-0.47,0.85
20.38266897201538,0.38,0.5,-0.86,1.06
20.392837047576904,0.64,0.43,-1.02,1.27
20.402472019195557,0.74,0.49,-0.99,1.32
20.437888145446777,0.91,0.43,-0.66,1.2
20.43926215171814,0.95,0.59,-0.44,1.2
20.440160274505615,0.59,0.79,-0.6,1.15
20.458885192871094,0.11,0.84,-0.73,1.11
20.459938049316406,-0.12,1.14,-0.58,1.28
20.475399017333984,-0.41,1.18,0.01,1.24
20.476802110671997,-0.23,1.02,0.6,1.2
20.492282152175903,-0.29,1.09,0.85,1.41
20.49376606941223,-0.75,1.02,0.68,1.43
20.507734060287476,-1.47,1.07,0.47,1.87
20.53829312324524,-2.52,1.24,0.47,2.84
20.53956699371338,-2.82,1.51,0.5,3.23
20.54058027267456,-2.67,1.8,0.47,3.25
20.559468269348145,-2.13,1.76,-0.26,2.77
20.560518264770508,-1.46,1.86,-0.64,2.44
20.57502317428589,-1.26,1.65,-1.11,2.35
20.576475143432617,-1.16,1.4,-1.65,2.45
20.59213399887085,-0.64,1.46,-1.94,2.51
20.593613147735596,-0.25,1.26,-2.01,2.38
20.607705116271973,0.0,0.92,-2.2,2.38
20.61088800430298,0.45,1.37,-2.03,2.49
20.65493607521057,1.16,2.43,-1.8,3.23
20.656098127365112,2.1,3.52,-1.37,4.32
20.65704607963562,2.65,4.33,-0.74,5.13
20.676321029663086,1.3,2.9,-1.2,3.39
20.677825927734375,-0.38,1.2,-2.05,2.4
20.69226312637329,-1.56,0.31,-2.64,3.08
20.693732261657715,-2.38,-0.31,-3.01,3.84
20.708949089050293,-2.96,-0.84,-2.81,4.16
20.710405111312866,-3.27,-1.95,-2.49,4.54
20.72447395324707,-1.19,-1.45,-1.93,2.69
20.753714084625244,-1.49,-1.51,-2.16,3.02
20.75522518157959,-4.04,-1.38,-3.15,5.3
20.75623106956482,-5.99,-0.93,-3.5,6.99
20.776185035705566,-6.56,-0.81,-3.16,7.32
20.777668952941895,-6.07,-0.85,-2.52,6.62
20.79245901107788,-5.24,-0.87,-2.05,5.69
20.79387903213501,-4.45,-0.88,-2.22,5.05
20.809004068374634,-3.76,-0.44,-2.44,4.5
20.81045627593994,-3.19,0.25,-2.29,3.93
20.8252911567688,-3.06,0.55,-1.92,3.65
20.85721206665039,-3.46,0.38,-1.49,3.78
20.85852813720703,-3.77,0.07,-0.89,3.87
20.859527111053467,-3.63,-0.05,-0.37,3.64
20.87625026702881,-3.34,-0.05,-0.15,3.34
20.877198219299316,-3.09,-0.01,-0.27,3.1
20.89245104789734,-2.94,0.15,-0.43,2.97
20.893939971923828,-2.67,0.23,-0.56,2.73
20.908899068832397,-2.05,0.29,-0.49,2.12
20.910386085510254,-1.35,0.38,-0.33,1.44
20.92460012435913,-0.85,0.52,-0.25,1.02
20.953134059906006,-0.71,0.75,-0.22,1.05
20.954463005065918,-0.84,0.81,-0.15,1.17
20.95542621612549,-0.97,0.73,0.02,1.21
20.973684072494507,-0.95,0.76,0.29,1.25
20.975022077560425,-0.38,0.65,0.48,0.89
20.988928079605103,0.48,0.52,0.61,0.93
20.990421056747437,0.92,0.32,0.68,1.18
21.009173154830933,0.93,0.15,0.6,1.11
21.010614156723022,0.92,0.07,0.59,1.09
21.0247802734375,0.99,0.06,0.71,1.21
21.054031133651733,1.05,0.17,0.89,1.38
21.0553081035614,1.11,0.3,1.11,1.59
21.056344985961914,1.09,0.49,1.33,1.78
21.07617712020874,0.96,0.59,1.51,1.88
21.077608108520508,0.8,0.61,1.63,1.91
21.092514991760254,0.75,0.73,1.73,2.02
21.09399127960205,0.9,1.04,2.13,2.53
21.10894012451172,1.27,1.09,2.4,2.92
21.11035394668579,1.76,0.75,2.36,3.03
21.124778270721436,2.08,0.46,2.33,3.15
21.15271306037903,2.48,0.23,2.23,3.34
21.154057025909424,3.18,0.1,2.19,3.86
21.15505814552307,4.0,-0.12,2.23,4.58
21.176033973693848,4.51,-0.34,2.23,5.04
21.17700719833374,4.43,-0.44,2.17,4.95
21.19295310974121,4.15,-0.48,2.18,4.71
21.194435119628906,4.16,-0.39,2.15,4.69
21.20931911468506,4.42,-0.31,2.1,4.9
21.21076202392578,4.71,-0.39,1.91,5.09
21.22482204437256,4.82,-0.48,1.58,5.09
21.255012035369873,4.9,-0.36,1.29,5.07
21.256375074386597,5.4,-0.19,1.01,5.49
21.257390022277832,6.21,-0.33,0.74,6.26
21.276566982269287,6.46,-0.82,0.51,6.53
21.27802801132202,5.71,-1.15,0.36,5.83
21.292335987091064,4.66,-1.34,0.51,4.87
21.29380226135254,4.01,-1.65,0.65,4.38
21.30917716026306,3.65,-1.91,0.54,4.15
21.31065011024475,3.53,-1.69,0.31,3.92
21.324855089187622,5.89,1.55,-0.45,6.1
21.35533094406128,7.38,1.56,-1.32,7.65
21.356714248657227,8.54,1.08,-0.11,8.6
21.357712268829346,5.47,0.07,2.25,5.91
21.376333236694336,-0.73,-0.38,3.3,3.4
21.37781524658203,-3.69,1.39,5.22,6.54
21.3927321434021,-3.68,1.92,6.0,7.29
21.394164085388184,-2.94,1.38,3.72,4.93
21.409253120422363,-2.64,1.48,0.1,3.02
21.41071915626526,-1.52,1.57,-0.83,2.33
21.424907207489014,1.09,-0.01,0.89,1.4
21.426371097564697,2.22,-0.66,1.82,2.94
21.475244998931885,1.57,-0.14,0.68,1.71
21.47641897201538,0.93,-0.1,-1.4,1.68
21.477444171905518,1.01,-0.21,-2.7,2.89
21.493382930755615,1.36,-0.16,-2.65,2.98
21.49440312385559,0.83,0.03,-1.63,1.82
21.50836420059204,-0.3,0.25,-0.22,0.44
21.509854078292847,-0.84,0.28,0.83,1.21
21.526130199432373,-0.76,0.24,1.03,1.3
21.527599096298218,-0.34,0.07,0.57,0.66
21.541388988494873,-0.08,0.08,0.05,0.12
21.568310260772705,-0.13,0.18,-0.1,0.24
21.569753170013428,-0.28,0.3,-0.09,0.42
21.570722103118896,-0.13,0.46,-0.49,0.68
21.572840213775635,0.16,0.44,-0.92,1.03
21.574332237243652,-0.14,0.15,-1.34,1.35
21.575637102127075,-0.86,0.15,-1.32,1.58
21.5833580493927,-1.31,0.37,-1.16,1.78
21.593393087387085,-1.12,0.46,-0.84,1.47
21.60351014137268,-0.49,0.21,-0.38,0.65
21.613530158996582,-0.25,0.03,-0.28,0.37
21.642051219940186,-0.19,-0.21,-0.23,0.36
21.643336057662964,0.2,-0.4,0.01,0.44
21.64434003829956,0.43,-0.32,0.05,0.53
21.65815019607544,0.33,-0.19,-0.33,0.5
21.662786960601807,0.1,0.01,-0.4,0.41
21.675443172454834,0.04,0.15,-0.12,0.19
21.682884216308594,0.43,0.1,0.26,0.51
21.692811012268066,0.88,-0.13,0.42,0.98
21.70274305343628,0.92,-0.38,0.31,1.04
21.712489128112793,0.75,-0.34,0.25,0.86
21.742974281311035,0.45,-0.07,0.11,0.46
21.744283199310303,0.14,0.02,-0.01,0.14
21.7453191280365,0.01,0.09,-0.02,0.09
21.759754180908203,-0.04,0.12,-0.13,0.18
21.761881113052368,0.15,-0.01,-0.2,0.25
21.77630615234375,0.4,-0.13,-0.36,0.55
21.782462120056152,0.51,-0.12,-0.54,0.75
21.79292607307434,0.44,-0.04,-0.34,0.55
21.802138090133667,0.18,0.05,-0.21,0.28
21.811999082565308,-0.04,0.06,-0.1,0.12
21.849603176116943,-0.02,-0.02,0.02,0.03
21.85087823867798,0.11,-0.1,0.2,0.24
21.851864099502563,0.32,-0.21,0.38,0.53
21.85630702972412,0.45,-0.28,0.51,0.73
21.876244068145752,0.46,-0.24,0.63,0.81
21.877727031707764,0.29,-0.28,0.33,0.52
21.89291214942932,0.1,-0.35,-0.11,0.38
21.894381046295166,0.04,-0.33,-0.14,0.36
21.908348083496094,-0.02,-0.28,0.05,0.28
21.911052227020264,-0.06,0.01,0.2,0.2
21.952795028686523,-0.04,0.19,0.09,0.21
21.953931093215942,-0.13,0.22,-0.12,0.28
21.954923152923584,-0.33,0.28,-0.4,0.58
21.957107067108154,-0.51,0.25,-0.75,0.94
21.96056604385376,-0.59,0.24,-0.96,1.15
21.970806121826172,-0.54,0.18,-0.96,1.11
21.98077917098999,-0.65,0.18,-1.05,1.24
21.99091100692749,-1.08,0.28,-1.3,1.71
22.000620126724243,-1.22,0.56,-1.47,1.99
22.01054096221924,-0.8,0.78,-1.05,1.53
22.04975700378418,-0.6,0.55,-0.24,0.84
22.050933122634888,-0.61,0.21,-0.25,0.69
22.051924228668213,-0.54,-0.09,-0.36,0.65
22.055623054504395,-0.21,-0.27,-0.18,0.38
22.076627254486084,0.13,-0.32,-0.23,0.41
22.078102111816406,0.12,-0.08,-0.75,0.76
22.092974185943604,-0.3,0.06,-1.37,1.4
22.094457149505615,-0.72,0.21,-1.51,1.68
22.108366012573242,-0.75,0.29,-1.11,1.37
22.109844207763672,-0.65,0.32,-0.69,1.0
22.15250015258789,-0.69,0.28,-0.36,0.82
22.15367317199707,-0.75,0.26,-0.11,0.8
22.154632091522217,-0.7,0.32,-0.08,0.77
22.156134128570557,-0.8,0.41,-0.31,0.95
22.158936977386475,-0.15,0.57,-0.53,0.79
22.168911933898926,1.01,0.31,-0.53,1.18
22.179126262664795,1.14,0.02,-1.25,1.69
22.189221143722534,1.16,0.39,-1.77,2.15
22.199127197265625,0.75,0.91,-2.12,2.42
22.208917140960693,0.64,1.12,-2.2,2.55
22.218672275543213,0.78,1.22,-1.72,2.24
22.251174926757812,0.33,1.13,-1.44,1.85
22.252336978912354,-0.65,1.38,-0.9,1.77
22.253594160079956,-1.02,1.76,0.2,2.04
22.25826406478882,-1.36,2.52,0.41,2.89
22.276721954345703,-1.77,2.69,0.18,3.22
22.27821397781372,-1.88,2.67,0.93,3.39
22.293386936187744,-1.36,2.04,1.65,2.95
22.29823112487793,-1.39,1.87,1.28,2.65
22.308529138565063,-1.37,1.86,1.13,2.57
22.31818413734436,-0.95,1.87,1.12,2.37
22.349265098571777,-0.79,2.12,0.51,2.31
22.35044002532959,-0.19,2.09,-0.1,2.1
22.351752281188965,0.55,1.4,-0.5,1.58
22.357409954071045,1.0,0.83,-0.9,1.58
22.36754608154297,0.83,0.9,-1.24,1.74
22.377650260925293,0.3,1.1,-1.58,1.94
22.38760209083557,-0.17,1.14,-1.61,1.98
22.39729404449463,-0.57,1.04,-1.5,1.91
22.407573223114014,-0.89,0.88,-1.56,2.0
22.417366981506348,-0.98,0.77,-1.7,2.1
22.44818925857544,-1.02,0.7,-1.7,2.1
22.44933319091797,-0.73,0.96,-1.61,2.01
22.450369119644165,-0.09,1.42,-1.76,2.26
22.459277153015137,0.7,1.46,-2.06,2.62
22.466633081436157,2.0,1.38,-1.99,3.14
22.476913928985596,3.53,1.84,-1.87,4.39
22.48669719696045,3.02,1.63,-2.38,4.17
22.49674701690674,0.71,0.62,-2.71,2.86
22.50661015510559,-0.65,0.06,-2.63,2.7
22.51655912399292,-1.61,-0.6,-2.81,3.29
22.546857118606567,-2.5,-1.37,-2.94,4.09
22.548232078552246,-3.28,-1.91,-3.06,4.87
22.549256086349487,-1.93,-0.51,-2.62,3.29
22.56002902984619,-2.4,-0.55,-2.94,3.83
22.56601309776306,-5.04,-1.04,-3.74,6.36
22.57652997970581,-6.92,-0.81,-3.56,7.82
22.58615016937256,-6.49,-0.48,-2.54,6.98
22.59591817855835,-4.68,-1.06,-1.85,5.14
22.60623598098755,-3.18,-1.7,-1.65,3.96
22.61587405204773,-2.57,-1.69,-1.81,3.56
22.654136180877686,-2.66,-1.31,-1.89,3.51
22.655617237091064,-3.08,-1.15,-1.33,3.54
22.656618118286133,-3.62,-1.23,-0.46,3.85
22.677293062210083,-4.04,-1.13,0.25,4.2
22.67875909805298,-4.03,-0.84,0.5,4.14
22.693450927734375,-3.71,-0.5,0.56,3.78
22.694961071014404,-3.27,-0.21,0.48,3.31
22.709832191467285,-2.96,0.03,0.28,2.97
22.711287021636963,-2.94,0.12,0.18,2.94
22.729180097579956,-3.01,0.24,0.23,3.02
22.7640700340271,-2.89,0.45,0.42,2.95
22.765411138534546,-2.5,0.58,0.58,2.63
22.76638698577881,-2.06,0.76,0.46,2.24
22.775989055633545,-1.66,1.09,0.18,1.99
22.777055263519287,-1.38,1.46,-0.1,2.01
22.79339909553528,-1.27,1.63,-0.32,2.09
22.794881105422974,-1.21,1.75,-0.45,2.17
22.809844970703125,-1.01,1.77,-0.39,2.07
22.81134796142578,-0.62,1.56,-0.17,1.68
22.825616121292114,-0.12,1.11,-0.01,1.11
22.85035800933838,0.21,0.8,-0.05,0.82
22.85178804397583,0.49,0.82,-0.17,0.97
22.852900981903076,0.73,0.87,-0.25,1.16
22.85676097869873,0.72,0.8,-0.21,1.09
22.876188278198242,0.59,0.54,-0.08,0.8
22.877556085586548,0.64,0.2,0.2,0.69
22.89339303970337,1.03,-0.08,0.47,1.13
22.894834995269775,1.54,-0.27,0.6,1.67
22.908672094345093,1.9,-0.32,0.78,2.07
22.91365623474121,2.11,-0.17,1.04,2.35
22.952482223510742,2.39,-0.1,1.05,2.61
22.953622102737427,2.66,-0.18,1.17,2.91
22.9547860622406,2.84,-0.09,1.39,3.16
22.95630121231079,2.99,0.13,1.55,3.37
22.962934017181396,3.07,0.42,1.76,3.56
22.972994089126587,3.15,0.68,2.07,3.83
22.982993125915527,3.18,0.84,2.45,4.1
22.993025064468384,3.07,0.92,3.06,4.43
23.002901077270508,2.86,0.64,3.67,4.69
23.012850046157837,2.71,0.34,4.09,4.91
23.022980213165283,2.88,0.23,4.28,5.16
23.054187059402466,3.36,-0.09,4.22,5.39
23.055336952209473,3.75,-0.52,3.87,5.41
23.05629301071167,3.75,-0.74,3.27,5.03
23.07698392868042,3.06,0.85,3.18,4.49
23.078034162521362,2.89,1.23,2.76,4.18
23.09319305419922,4.91,-0.49,2.59,5.57
23.094658136367798,7.34,-0.43,1.91,7.59
23.110153198242188,9.72,0.76,0.31,9.75
23.112024068832397,14.52,3.19,-0.21,14.86
23.125858068466187,15.94,2.59,-0.02,16.14
23.15519404411316,8.41,0.25,-0.69,8.44
23.15660309791565,-1.01,-0.96,-1.03,1.73
23.157599925994873,-4.97,-1.14,0.0,5.09
23.177021026611328,-2.87,-0.12,1.86,3.42
23.178341150283813,-0.04,0.86,2.77,2.9
23.193490982055664,0.5,1.15,2.62,2.9
23.194794178009033,0.08,0.94,1.73,1.97
23.209911108016968,0.0,0.39,1.1,1.16
23.21139097213745,0.07,-0.08,1.03,1.03
23.225630044937134,0.06,-0.15,0.99,1.0
23.255259037017822,0.08,-0.13,0.26,0.3
23.256705045700073,0.52,-0.1,-0.74,0.9
23.257652044296265,1.32,-0.24,-1.41,1.94
23.27727699279785,1.86,-0.36,-1.38,2.34
23.278779983520508,1.61,-0.18,-0.64,1.74
23.293540954589844,0.72,-0.12,0.08,0.73
23.295029163360596,-0.25,-0.07,0.41,0.48
23.310038089752197,-0.83,0.02,0.57,1.0
23.311502933502197,-0.7,0.04,0.86,1.1
23.325894117355347,-0.23,-0.08,1.09,1.11
23.35379910469055,0.12,-0.16,0.95,0.97
23.355188131332397,0.08,-0.1,0.75,0.76
23.356168270111084,-0.17,-0.11,0.46,0.5
23.377089023590088,-0.23,-0.05,0.05,0.24
23.378135204315186,-0.07,0.07,-0.44,0.45
23.393802165985107,-0.22,0.13,-0.81,0.84
23.39523220062256,-0.34,0.09,-0.78,0.85
23.410155057907104,-0.13,0.03,-0.29,0.31
23.41156315803528,0.0,0.03,0.17,0.17
23.425804138183594,-0.08,0.04,0.05,0.1
23.45634698867798,-0.27,0.11,-0.26,0.39
23.457929134368896,-0.5,0.24,-0.2,0.58
23.45901393890381,-0.51,0.23,-0.24,0.6
23.477060079574585,-0.38,0.26,-0.3,0.54
23.478157997131348,-0.13,0.1,-0.6,0.62
23.49359893798828,0.06,0.1,-1.09,1.09
23.494991064071655,0.02,0.21,-1.28,1.29
23.509963989257812,0.01,0.28,-1.37,1.39
23.51138401031494,-0.02,0.39,-1.29,1.34
23.5261549949646,0.02,0.4,-1.03,1.1
23.547938108444214,0.15,0.35,-0.56,0.67
23.548991203308105,-0.07,0.18,-0.2,0.27
23.549818992614746,-0.3,0.12,0.21,0.38
23.558297157287598,-0.11,0.03,0.28,0.3
23.568979263305664,0.08,0.08,0.0,0.11
23.578853130340576,0.32,0.16,-0.12,0.37
23.58897304534912,0.5,-0.04,-0.07,0.5
23.598480224609375,0.45,-0.13,-0.1,0.47
23.608991146087646,0.41,-0.21,0.02,0.46
23.62194514274597,0.32,-0.3,0.04,0.44
23.660683155059814,0.13,-0.11,-0.18,0.24
23.66203808784485,0.02,0.15,-0.28,0.31
23.663058280944824,-0.08,0.19,-0.17,0.26
23.677439212799072,-0.19,0.15,-0.19,0.3
23.67891502380371,-0.23,0.08,-0.42,0.48
23.693775177001953,-0.28,-0.01,-0.65,0.7
23.695205211639404,-0.26,-0.02,-0.73,0.77
23.710642099380493,-0.17,0.19,-0.69,0.73
23.71214008331299,-0.16,0.3,-0.56,0.65
23.725860118865967,-0.17,0.27,-0.51,0.6
23.756978034973145,-0.13,0.04,-0.41,0.43
23.75823402404785,-0.18,-0.19,-0.25,0.36
23.759209156036377,-0.41,-0.08,-0.39,0.57
23.77786922454834,-0.48,0.22,-0.42,0.67
23.779405117034912,-0.36,0.36,-0.23,0.55
23.79388427734375,-0.05,0.3,0.09,0.31
23.79543399810791,0.17,-0.04,0.21,0.27
23.810254096984863,0.19,-0.49,0.13,0.54
23.811758995056152,0.23,-1.05,0.0,1.07
23.826673984527588,0.33,-1.44,0.01,1.47
23.828984260559082,0.45,-1.3,0.24,1.39
23.873613119125366,0.4,-0.98,0.39,1.12
23.874799251556396,0.32,-0.63,0.23,0.74
23.875847101211548,0.06,-0.34,0.19,0.39
23.894755125045776,-0.34,-0.04,0.06,0.34
23.896202087402344,-0.65,0.25,-0.36,0.78
23.910065174102783,-1.09,0.58,-0.5,1.33
23.911550998687744,-1.32,0.99,-0.81,1.83
23.92728304862976,-1.05,1.38,-1.03,2.01
23.92876410484314,-0.93,1.4,-1.04,1.97
23.942681074142456,-1.16,1.18,-1.23,2.06
23.97097611427307,-1.52,0.97,-1.62,2.42
23.972958087921143,-1.64,0.77,-1.88,2.61
23.97399616241455,-1.62,0.52,-1.77,2.45
23.994595050811768,-1.66,0.23,-1.63,2.33
23.996017932891846,-1.6,0.34,-1.46,2.19
24.01027202606201,-1.33,0.48,-1.2,1.85
24.01170301437378,-0.52,0.54,-0.63,0.97
24.027351140975952,-0.06,0.46,-0.35,0.58
24.028892993927002,0.83,0.31,-0.18,0.9
24.04336404800415,1.51,0.39,0.04,1.56
24.07317614555359,1.53,0.25,-0.03,1.55
24.07454824447632,1.49,0.42,0.36,1.58
24.075557231903076,1.71,0.54,1.05,2.07
24.094090938568115,1.59,0.61,1.09,2.02
24.095126152038574,1.2,0.65,0.3,1.39
24.11026096343994,0.53,1.29,0.03,1.39
24.11158013343811,-0.28,1.37,-0.24,1.41
24.127297163009644,-0.81,1.48,-0.58,1.78
24.128787994384766,-1.12,1.31,-0.88,1.93
24.1425621509552,-1.04,0.81,-0.98,1.64
24.171764135360718,-0.77,0.5,-0.96,1.32
24.173116207122803,-0.49,0.41,-0.89,1.09
24.174118995666504,-0.3,0.61,-0.82,1.06
24.19455099105835,-0.07,0.62,-0.64,0.89
24.19604516029358,0.07,0.7,-0.52,0.87
24.21036720275879,-0.05,0.74,-0.51,0.9
24.2118182182312,-0.13,0.66,-0.4,0.78
24.22729206085205,0.21,0.84,0.01,0.86
24.228734970092773,0.54,1.05,0.54,1.29
24.24268913269043,0.59,0.89,0.74,1.29
24.27413320541382,0.36,0.69,0.68,1.03
24.275591135025024,-0.02,0.6,0.7,0.92
24.276618003845215,-0.6,0.59,0.52,0.98
24.294894218444824,-1.15,0.95,0.26,1.51
24.296353101730347,-1.29,1.5,0.64,2.07
24.310527086257935,-1.35,1.82,0.44,2.3
24.31204319000244,-1.27,2.01,-0.05,2.37
24.327331066131592,-1.05,2.17,-0.3,2.42
24.328808069229126,-0.93,2.25,-0.53,2.49
24.34274911880493,-1.11,1.95,-1.05,2.47
24.375285148620605,-0.96,1.52,-1.56,2.38
24.376622200012207,-0.35,1.39,-1.69,2.21
24.37764024734497,0.63,1.64,-1.88,2.57
24.39424204826355,2.08,2.42,-1.85,3.68
24.39531111717224,2.59,3.18,-2.16,4.63
24.410769939422607,0.42,2.07,-2.59,3.34
24.412206172943115,-1.05,0.93,-2.24,2.64
24.427489280700684,-1.56,0.72,-2.35,2.91
24.42895007133484,-1.79,0.35,-2.64,3.2
24.442819118499756,-2.19,-0.86,-2.46,3.4
24.471357107162476,-3.11,-2.52,-2.53,4.73
24.47271203994751,-2.08,-1.85,-2.33,3.63
24.473690032958984,-2.02,-1.26,-2.52,3.46
24.49429416656494,-4.26,-1.45,-3.23,5.53
24.495365142822266,-6.18,-1.23,-3.35,7.13
24.510228157043457,-6.36,-0.84,-2.87,7.02
24.511693000793457,-5.41,-0.68,-2.59,6.03
24.527349948883057,-4.48,-0.69,-2.61,5.23
24.52878713607788,-3.76,-0.41,-2.65,4.61
24.542948246002197,-3.4,0.1,-2.52,4.23
24.5693781375885,-3.51,0.41,-2.14,4.13
24.57093095779419,-3.95,0.46,-1.59,4.28
24.571972131729126,-4.47,0.45,-1.15,4.63
24.573792934417725,-4.71,0.53,-0.9,4.82
24.57524013519287,-4.67,0.71,-0.83,4.79
24.580717086791992,-4.59,0.99,-0.88,4.77
24.590886116027832,-4.64,1.23,-0.94,4.89
24.600528240203857,-4.49,1.21,-0.98,4.75
24.61074709892273,-3.84,0.93,-0.92,4.05
24.620913982391357,-2.91,0.33,-0.86,3.05
24.63072395324707,-2.04,-0.25,-0.95,2.26
24.658889055252075,-1.53,-0.46,-1.01,1.89
24.660168170928955,-1.39,-0.16,-1.02,1.73
24.661189079284668,-1.49,0.38,-1.06,1.86
24.677711009979248,-1.71,0.69,-1.06,2.12
24.679821014404297,-1.92,0.9,-0.85,2.28
24.69270896911621,-1.95,1.24,-0.4,2.34
24.69980525970459,-1.64,1.62,0.13,2.3
24.710601091384888,-0.91,1.67,0.53,1.97
24.720133066177368,0.1,1.35,0.65,1.5
24.729653120040894,1.17,0.81,0.52,1.51
24.759895086288452,1.93,0.52,0.55,2.07
24.761232137680054,2.28,0.36,0.84,2.45
24.76225996017456,2.41,0.23,1.2,2.7
24.777952194213867,2.55,0.26,1.48,2.95
24.779064178466797,2.8,0.45,1.88,3.4
24.794219970703125,3.37,0.8,2.46,4.24
24.799617052078247,4.17,0.95,2.98,5.21
24.8107271194458,4.73,0.88,3.27,5.81
24.819435119628906,4.98,0.85,3.3,6.03
24.828962087631226,5.16,0.78,3.26,6.15
24.860507011413574,5.47,0.71,3.35,6.45
24.86178207397461,5.97,0.69,3.44,6.92
24.862770080566406,6.53,0.35,3.26,7.3
24.878232955932617,6.95,0.03,3.04,7.58
24.8792941570282,7.19,0.07,2.95,7.77
24.89429807662964,7.22,0.17,2.86,7.76
24.898577213287354,6.98,0.15,2.73,7.49
24.91064214706421,6.61,0.19,2.45,7.05
24.918370246887207,6.23,0.33,2.06,6.57
24.928328037261963,5.3,1.78,2.07,5.96
24.95942497253418,5.03,1.67,1.84,5.61
24.960772037506104,6.38,-0.04,1.52,6.55
24.961788177490234,8.74,1.52,1.77,9.04
24.977860927581787,11.4,1.66,1.69,11.64
24.978918075561523,9.29,0.09,1.6,9.42
24.994404077529907,4.12,-1.48,1.21,4.54
24.997849941253662,-1.83,-1.6,0.79,2.55
25.01084613800049,-3.97,-1.01,0.76,4.16
25.01789617538452,-1.92,-0.79,0.96,2.28
25.027632236480713,0.35,-1.05,1.01,1.49
25.064298152923584,1.05,-0.62,0.94,1.53
25.065648078918457,0.67,0.2,0.82,1.07
25.066651105880737,0.08,0.85,0.93,1.26
25.077603101730347,-0.28,0.96,0.88,1.33
25.078650951385498,-0.42,0.58,0.42,0.83
25.094537258148193,-0.33,0.34,-0.34,0.58
25.09703302383423,-0.05,0.41,-1.06,1.13
25.111025094985962,0.12,0.49,-1.21,1.31
25.11686110496521,0.16,0.28,-0.72,0.78
25.12681818008423,0.25,0.03,0.1,0.27
25.162407159805298,0.28,-0.15,0.87,0.92
25.163735151290894,0.38,-0.36,1.24,1.34
25.16476607322693,0.62,-0.59,1.17,1.44
25.17802405357361,0.69,-0.61,0.65,1.12
25.17908525466919,0.54,-0.32,0.11,0.63
25.194693088531494,0.22,0.13,0.03,0.25
25.19617795944214,0.2,0.38,0.39,0.58
25.210958003997803,0.42,0.16,0.79,0.9
25.21618127822876,0.43,-0.17,0.54,0.71
25.226725101470947,0.35,-0.14,0.12,0.39
25.26304292678833,0.29,0.03,-0.02,0.29
25.26430106163025,0.05,0.12,-0.06,0.14
25.265274047851562,-0.36,0.1,0.01,0.37
25.278335094451904,-0.59,0.03,-0.02,0.59
25.279396057128906,-0.69,-0.07,-0.46,0.83
25.2941951751709,-0.67,-0.06,-0.45,0.8
25.295619010925293,-0.42,-0.04,-0.31,0.52
25.311066150665283,-0.32,0.01,-0.29,0.43
25.315465927124023,-0.32,0.02,-0.24,0.4
25.326696157455444,-0.33,0.11,-0.22,0.41
25.361492156982422,-0.36,0.26,-0.23,0.5
25.36288022994995,-0.48,0.34,-0.47,0.75
25.364044189453125,-0.54,0.38,-0.95,1.15
25.378477096557617,-0.47,0.29,-1.36,1.46
25.37954807281494,-0.07,0.33,-1.46,1.49
25.394562244415283,0.42,0.33,-1.3,1.4
25.395915985107422,0.52,0.24,-1.02,1.16
25.41048526763916,0.48,0.14,-0.74,0.89
25.41464900970459,0.51,0.07,-0.39,0.64
25.42663812637329,0.33,0.07,-0.09,0.34
25.434757232666016,0.05,0.09,0.07,0.12
25.470506191253662,0.0,0.1,0.09,0.13
25.47162628173828,0.35,0.03,0.19,0.39
25.472612142562866,0.83,-0.17,0.18,0.86
25.474780082702637,1.05,-0.26,0.2,1.1
25.484050273895264,0.91,-0.32,0.11,0.97
25.494306087493896,0.72,-0.28,0.1,0.77
25.50403904914856,0.55,-0.17,0.16,0.59
25.514116048812866,0.38,-0.08,0.17,0.42
25.524156093597412,0.28,-0.03,0.07,0.29
25.533854961395264,0.25,-0.05,0.0,0.25
25.566527128219604,0.29,-0.08,0.05,0.3
25.567827224731445,0.24,-0.02,0.02,0.24
25.568889141082764,0.09,0.06,-0.18,0.21
25.577513217926025,-0.15,0.08,-0.44,0.47
25.583150148391724,-0.47,0.12,-0.5,0.69
25.59345507621765,-0.64,0.16,-0.39,0.76
25.60344696044922,-0.67,0.18,-0.04,0.69
25.613218069076538,-0.6,0.14,0.21,0.65
25.623358249664307,-0.36,0.22,0.31,0.52
25.632951259613037,-0.34,0.34,-0.02,0.48
25.665892124176025,-0.47,0.36,-0.66,0.88
25.667197227478027,-0.59,0.32,-1.51,1.65
25.66822099685669,-0.68,0.31,-2.29,2.4
25.677917003631592,-0.75,0.35,-2.4,2.53
25.682291984558105,-0.96,0.26,-2.04,2.26
25.694164276123047,-1.19,0.04,-1.19,1.68
25.70273208618164,-1.15,0.07,-0.11,1.15
25.712450981140137,-0.92,0.36,0.27,1.02
25.722512245178223,-1.06,0.39,0.07,1.13
25.732230186462402,-0.89,0.1,-0.14,0.9
25.76375102996826,-0.29,-0.15,-0.12,0.34
25.76513409614563,0.0,-0.17,-0.08,0.18
25.7661452293396,-0.02,0.01,-0.19,0.19
25.777868270874023,-0.43,0.24,-0.49,0.69
25.781657218933105,-0.82,0.39,-0.84,1.23
25.792362213134766,-1.01,0.17,-0.96,1.4
25.801990032196045,-0.93,-0.08,-0.73,1.18
25.811705112457275,-0.68,-0.22,-0.41,0.82
25.821670055389404,-0.41,-0.08,-0.05,0.42
25.83158016204834,-0.24,0.21,0.19,0.37
25.86832904815674,-0.27,0.26,0.06,0.37
25.869585037231445,-0.32,0.14,-0.35,0.49
25.870602130889893,-0.03,0.05,-0.59,0.59
25.87403917312622,0.59,0.12,-0.82,1.01
25.88127899169922,0.76,-0.17,-0.76,1.08
25.894197940826416,0.32,-0.2,-0.6,0.7
25.90132212638855,-0.32,0.05,-0.56,0.64
25.91106104850769,-0.54,0.27,-0.37,0.7
25.920947074890137,-0.27,0.57,-0.33,0.71
25.930950164794922,0.53,0.41,-0.2,0.69
25.966082096099854,1.37,-0.01,0.27,1.39
25.967438220977783,1.27,-0.42,0.36,1.38
25.968433141708374,0.91,-0.1,0.26,0.95
25.978673934936523,0.21,0.65,0.19,0.7
25.98000407218933,-0.46,0.77,0.31,0.94
25.994599103927612,-0.52,0.97,0.56,1.23
26.0004301071167,-0.35,1.1,0.51,1.26
26.011248111724854,-0.57,1.22,0.25,1.36
26.02039098739624,-1.06,1.3,0.17,1.68
26.03015112876892,-1.24,1.57,0.14,2.0
26.067188262939453,-0.66,1.69,0.28,1.83
26.068498134613037,0.18,1.45,0.1,1.46
26.06946611404419,0.58,1.32,-0.25,1.46
26.077826023101807,0.43,1.41,-0.74,1.64
26.07937002182007,0.26,1.62,-0.69,1.77
26.094751119613647,0.04,1.76,-0.72,1.9
26.09953212738037,-0.13,1.71,-0.89,1.93
26.109461069107056,-0.37,1.7,-1.02,2.01
26.119502067565918,-0.61,1.9,-1.18,2.31
26.129459142684937,-0.49,2.03,-1.13,2.37
26.166519165039062,-0.22,2.09,-0.75,2.23
26.167986154556274,-0.58,2.0,-0.58,2.16
26.168986082077026,-0.92,2.09,-0.67,2.37
26.17842197418213,-1.04,2.27,-0.62,2.57
26.179451942443848,-1.09,2.07,-0.53,2.39
26.194931983947754,-1.34,1.73,-0.69,2.29
26.19881010055542,-1.69,1.53,-0.82,2.42
26.21133804321289,-1.52,1.49,-0.95,2.33
26.218980073928833,-1.2,1.22,-1.1,2.03
26.228477954864502,-0.36,1.0,-1.41,1.76
26.23849606513977,0.43,1.45,-1.76,2.32
26.270750999450684,1.08,2.37,-2.17,3.39
26.271892070770264,2.23,2.65,-1.9,3.95
26.272865056991577,2.89,2.37,-1.78,4.13
26.27796506881714,1.08,1.14,-2.41,2.87
26.287786960601807,-0.87,0.31,-2.93,3.07
26.298311233520508,-2.61,-0.83,-3.12,4.15
26.30823016166687,-3.33,-1.5,-2.76,4.57
26.318099975585938,-3.81,-2.24,-2.27,4.96
26.327850103378296,-3.92,-1.89,-1.56,4.62
26.337746143341064,-3.63,-0.51,-1.31,3.89
26.369983196258545,-4.34,-1.01,-2.37,5.04
26.371158123016357,-5.48,-1.51,-3.1,6.47
26.372384071350098,-5.96,-1.56,-2.83,6.77
26.377182006835938,-5.1,-1.26,-2.3,5.73
26.38725709915161,-4.02,-1.25,-2.22,4.75
26.397534132003784,-3.49,-1.13,-2.32,4.34
26.40746307373047,-3.27,-0.59,-2.54,4.18
26.417174100875854,-3.16,-0.04,-2.69,4.15
26.427213191986084,-3.15,0.31,-2.42,3.98
26.437111139297485,-3.08,0.34,-1.78,3.57
26.468220233917236,-3.06,0.14,-1.16,3.27
26.469333171844482,-3.41,0.14,-0.81,3.5
26.470545053482056,-4.0,0.33,-0.65,4.06
26.47631025314331,-4.44,0.44,-0.51,4.49
26.486354112625122,-4.54,0.44,-0.1,4.56
26.496222019195557,-4.1,0.27,0.38,4.12
26.506709098815918,-3.42,0.07,0.56,3.46
26.51655912399292,-2.84,0.16,0.36,2.86
26.52654218673706,-2.36,0.45,0.01,2.4
26.536256074905396,-1.83,0.68,-0.23,1.96
26.565876960754395,-1.46,0.62,-0.38,1.63
26.567230224609375,-1.27,0.43,-0.41,1.4
26.568194150924683,-0.71,0.34,-0.39,0.87
26.57875108718872,0.27,0.33,-0.36,0.55
26.585833072662354,1.31,0.36,-0.46,1.43
26.5955171585083,2.08,0.56,-0.54,2.22
26.60597801208496,2.34,0.67,-0.33,2.45
26.61578893661499,2.19,0.54,0.04,2.25
26.625869274139404,1.98,0.61,0.49,2.12
26.63561725616455,2.01,0.84,0.92,2.36
26.674052238464355,2.15,0.92,1.25,2.65
26.675333976745605,2.2,0.85,1.61,2.85
26.67630910873413,2.23,0.69,2.11,3.14
26.695654153823853,2.1,0.48,2.36,3.19
26.69706416130066,1.97,0.48,2.53,3.24
26.71157217025757,2.0,0.54,2.73,3.42
26.712950229644775,2.23,0.66,3.0,3.79
26.72859001159668,2.86,0.73,3.24,4.38
26.73004412651062,3.57,0.3,3.08,4.72
26.744598150253296,3.9,-0.12,2.7,4.74
26.775252103805542,3.97,-0.3,2.32,4.6
26.776620149612427,4.16,-0.36,2.13,4.68
26.77758502960205,4.5,-0.46,2.13,4.99
26.795773029327393,4.84,-0.69,2.26,5.38
26.797237157821655,4.94,-0.86,2.36,5.54
26.81167697906494,4.94,-0.75,2.23,5.47
26.81311011314392,5.01,-0.61,1.98,5.42
26.828350067138672,5.0,-0.67,1.86,5.37
26.829854011535645,4.87,-0.58,1.97,5.28
26.843913078308105,4.82,-0.32,2.11,5.27
26.872586250305176,4.39,0.25,2.15,4.89
26.87398910522461,2.31,2.97,2.09,4.3
26.874995231628418,3.83,1.29,1.28,4.23
26.895472049713135,7.4,0.51,1.92,7.66
26.896963119506836,11.94,1.47,2.46,12.27
26.911579132080078,12.6,1.21,2.46,12.89
26.912933111190796,4.78,0.16,0.96,4.87
26.92838716506958,-3.0,-0.37,-0.58,3.07
26.929840087890625,-5.19,-0.31,-0.38,5.21
26.943892002105713,-2.41,0.41,0.48,2.49
26.973891258239746,0.62,1.25,0.42,1.45
26.97536015510559,2.13,1.51,0.48,2.65
26.976373195648193,1.99,0.77,0.84,2.29
26.995756149291992,1.16,-0.51,1.59,2.03
26.997185230255127,0.47,-0.6,2.28,2.4
27.011552095413208,0.0,-0.33,1.66,1.69
27.012994050979614,0.05,-0.25,0.39,0.46
27.028622150421143,0.51,-0.26,-0.56,0.8
27.030120134353638,0.95,-0.25,-0.96,1.37
27.04381012916565,1.08,-0.06,-0.56,1.21
27.045271158218384,0.75,0.18,0.23,0.8
27.093181133270264,0.15,0.08,0.8,0.81
27.094340085983276,-0.28,-0.19,0.54,0.63
27.09539222717285,-0.5,-0.16,-0.13,0.54
27.112245082855225,-0.36,0.08,-0.28,0.46
27.113323211669922,0.13,0.11,-0.01,0.17
27.128186225891113,0.34,0.02,0.11,0.35
27.12970209121704,0.13,0.06,-0.08,0.16
27.145142078399658,0.01,0.1,-0.51,0.51
27.146538257598877,-0.09,0.18,-0.8,0.82
27.160912036895752,-0.27,0.19,-0.84,0.9
27.188241004943848,-0.22,0.08,-0.6,0.64
27.189648151397705,0.0,-0.04,0.01,0.04
27.190596103668213,0.05,-0.09,0.43,0.44
27.192159175872803,-0.1,-0.07,0.53,0.54
27.193536281585693,-0.23,-0.03,0.58,0.62
27.200932025909424,-0.27,0.0,0.26,0.37
27.211047172546387,-0.26,0.01,-0.09,0.27
27.221062183380127,-0.25,0.08,-0.22,0.34
27.230993270874023,-0.25,0.1,-0.47,0.54
27.241207122802734,-0.05,0.12,-0.66,0.67
27.266584157943726,0.32,0.13,-0.78,0.85
27.26774024963379,0.69,0.21,-0.55,0.9
27.2704861164093,0.77,0.21,-0.23,0.83
27.280506134033203,0.27,0.19,-0.36,0.48
27.290502071380615,-0.38,0.26,-0.71,0.84
27.30060625076294,-0.29,0.19,-0.58,0.67
27.310359954833984,0.24,0.06,-0.24,0.34
27.320570945739746,0.29,0.04,-0.14,0.32
27.330387115478516,-0.15,0.07,-0.05,0.17
27.340381145477295,-0.42,0.09,0.0,0.42
27.368942260742188,-0.47,0.07,-0.19,0.51
27.370147228240967,-0.41,0.06,-0.62,0.74
27.371379137039185,-0.4,0.04,-0.77,0.86
27.37961506843567,-0.12,-0.04,-0.54,0.55
27.389702081680298,-0.1,-0.05,-0.3,0.32
27.39952516555786,-0.22,0.01,-0.17,0.27
27.40978193283081,-0.12,0.09,-0.15,0.21
27.419798135757446,-0.07,0.1,-0.12,0.17
27.429707050323486,0.0,0.04,-0.06,0.07
27.439563274383545,0.23,0.07,-0.07,0.25
27.473656177520752,0.4,0.07,-0.27,0.48
27.474743127822876,0.33,-0.06,-0.33,0.47
27.475511074066162,0.16,-0.01,-0.33,0.36
27.49172019958496,0.0,0.04,-0.29,0.29
27.492871046066284,-0.05,0.07,-0.26,0.27
27.509549140930176,-0.05,0.03,-0.26,0.26
27.511048078536987,-0.17,0.0,-0.25,0.3
27.52981996536255,-0.41,0.01,-0.15,0.43
27.531328201293945,-0.56,0.07,-0.11,0.57
27.544300079345703,-0.5,0.11,-0.03,0.51
27.57565402984619,-0.42,0.08,0.01,0.42
27.577226161956787,-0.31,0.08,-0.1,0.33
27.57813310623169,-0.13,0.18,-0.21,0.3
27.596094131469727,-0.07,0.23,-0.27,0.36
27.597196102142334,-0.11,0.22,-0.47,0.53
27.612006187438965,-0.22,-0.04,-0.67,0.7
27.6134991645813,-0.43,-0.24,-0.43,0.65
27.6288480758667,-0.4,-0.12,-0.39,0.57
27.630345106124878,-0.22,-0.01,-0.31,0.38
27.64428997039795,-0.27,0.04,-0.23,0.35
27.673203945159912,-0.54,0.13,-0.41,0.69
27.674565076828003,-0.79,0.23,-0.64,1.04
27.675588130950928,-1.13,0.19,-0.6,1.29
27.695961952209473,-1.4,0.35,-0.48,1.52
27.697495937347412,-1.56,0.47,-0.71,1.77
27.711874961853027,-1.98,0.61,-1.11,2.35
27.713375091552734,-2.18,0.82,-1.64,2.84
27.72871494293213,-1.76,0.98,-1.76,2.67
27.730200052261353,-0.99,0.81,-1.75,2.16
27.744460105895996,-0.42,0.39,-1.47,1.57
27.773555278778076,0.01,-0.13,-0.64,0.65
27.77499508857727,-0.17,-0.33,-0.28,0.46
27.776042938232422,-0.4,0.07,-0.33,0.52
27.795985221862793,-0.14,0.26,-0.34,0.45
27.79746103286743,0.53,0.38,-0.38,0.75
27.81217312812805,1.38,0.25,-0.43,1.46
27.813645124435425,2.16,-0.02,-0.41,2.19
27.828973054885864,2.09,-0.04,-0.46,2.14
27.83044195175171,1.35,0.25,-0.33,1.41
27.84439992904663,0.44,0.56,-0.29,0.76
27.84627103805542,-0.29,1.47,-0.11,1.5
27.89162015914917,-0.31,1.29,-0.29,1.35
27.892796993255615,-0.13,1.1,-0.41,1.18
27.893787145614624,0.16,1.08,0.03,1.09
27.913126945495605,0.0,1.19,0.01,1.19
27.91461420059204,0.19,1.42,0.2,1.44
27.92894697189331,0.02,1.37,0.63,1.5
27.9304621219635,-0.04,1.39,1.07,1.75
27.945518970489502,-0.03,1.41,1.45,2.02
27.947010040283203,-0.39,1.52,1.39,2.09
27.96094512939453,-1.0,1.88,1.05,2.37
27.98757314682007,-1.27,2.11,0.55,2.52
27.988871097564697,-1.1,2.26,0.09,2.51
27.98991823196411,-0.71,2.37,-0.3,2.49
27.99223518371582,-0.34,2.39,-0.72,2.51
27.995075225830078,-0.22,2.04,-1.05,2.3
28.00500726699829,-0.23,1.56,-1.33,2.06
28.014970064163208,-0.52,1.38,-1.51,2.11
28.02530813217163,-1.02,1.48,-1.52,2.35
28.03497815132141,-1.53,1.24,-1.92,2.75
28.044989109039307,-1.51,1.23,-2.32,3.02
28.072715044021606,-1.06,1.59,-2.29,2.98
28.073870182037354,-0.67,1.53,-2.55,3.04
28.07484006881714,-0.35,1.42,-2.86,3.21
28.096031188964844,-0.24,1.61,-2.69,3.14
28.097089052200317,-0.28,2.13,-2.48,3.28
28.112154960632324,0.88,3.46,-2.18,4.18
28.11429214477539,2.6,4.06,-2.53,5.44
28.12921905517578,1.43,2.56,-3.64,4.67
28.134243965148926,-1.1,1.08,-4.09,4.37
28.14461326599121,-2.91,-0.45,-3.42,4.51
28.17390727996826,-3.59,-1.34,-2.35,4.49
28.175333976745605,-4.14,-1.53,-1.14,4.55
28.176319122314453,-2.68,0.42,0.07,2.71
28.195914268493652,-3.78,0.14,-0.85,3.87
28.197021007537842,-6.69,-1.09,-2.37,7.18
28.212428092956543,-8.53,-1.12,-2.69,9.01
28.21392297744751,-7.79,-0.83,-2.25,8.15
28.2294602394104,-5.51,-0.97,-2.01,5.94
28.2335262298584,-3.75,-1.51,-2.21,4.6
28.24457597732544,-2.68,-1.79,-2.62,4.15
28.27905011177063,-2.1,-1.54,-2.81,3.83
28.280447959899902,-1.97,-1.22,-2.34,3.29
28.281474113464355,-2.15,-1.4,-1.43,2.93
28.296200275421143,-2.32,-1.72,-0.57,2.94
28.29726219177246,-2.38,-1.84,0.13,3.01
28.312135219573975,-2.6,-1.81,0.68,3.24
28.313624143600464,-3.02,-1.7,1.07,3.62
28.329315185546875,-3.49,-1.45,1.36,4.01
28.332744121551514,-3.77,-0.96,1.69,4.24
28.342552185058594,-3.53,-0.4,2.02,4.08
28.37895917892456,-2.95,0.03,2.2,3.68
28.380247116088867,-2.34,0.38,2.31,3.31
28.381312131881714,-1.84,0.68,2.31,3.03
28.396647930145264,-1.5,0.96,2.04,2.7
28.398105144500732,-1.14,1.35,1.57,2.36
28.412278175354004,-0.66,1.66,1.01,2.05
28.413732051849365,-0.09,1.8,0.28,1.82
28.429234981536865,0.53,1.79,-0.4,1.9
28.431880950927734,1.0,1.79,-0.66,2.15
28.444422245025635,1.14,1.88,-0.58,2.27
28.480436086654663,0.97,1.68,-0.37,1.97
28.481810092926025,0.74,1.43,-0.2,1.62
28.48283815383911,0.65,1.19,-0.03,1.35
28.496973037719727,0.62,0.88,0.11,1.08
28.49842405319214,0.64,0.72,0.28,1.0
28.51299524307251,0.93,0.41,0.27,1.05
28.514467239379883,1.2,0.12,0.19,1.22
28.529548168182373,1.28,-0.06,0.2,1.29
28.531161069869995,1.24,-0.11,0.29,1.27
28.544590950012207,1.08,-0.03,0.47,1.17
28.578765153884888,0.96,-0.02,0.72,1.2
28.580053091049194,1.11,-0.05,0.95,1.46
28.58109712600708,1.4,0.04,1.29,1.9
28.596517086029053,1.68,0.12,1.77,2.44
28.597562074661255,1.65,0.22,2.3,2.83
28.612229108810425,1.45,0.39,2.61,3.01
28.613713264465332,1.5,0.44,2.6,3.03
28.629384994506836,1.9,0.27,2.42,3.08
28.63082504272461,2.57,0.11,2.25,3.41
28.64457893371582,3.3,-0.06,2.23,3.98
28.65040397644043,3.82,-0.22,2.12,4.37
28.688467025756836,4.26,-0.45,1.75,4.62
28.68965196609497,4.73,-0.81,1.3,4.97
28.69083595275879,5.28,-1.28,0.9,5.5
28.692389011383057,5.8,-1.79,0.58,6.09
28.699785232543945,6.06,-2.3,0.51,6.5
28.7100830078125,5.95,-2.86,0.49,6.61
28.719962120056152,5.01,-1.18,0.57,5.17
28.729990005493164,4.25,0.49,0.61,4.32
28.739582061767578,9.03,1.5,1.83,9.33
28.749683141708374,16.52,3.61,5.51,17.78
28.77864408493042,19.02,3.18,7.68,20.75
28.780039072036743,9.72,-0.32,6.64,11.77
28.78102707862854,-2.32,-2.73,3.68,5.13
28.795515060424805,-7.0,-2.12,0.6,7.33
28.798909187316895,-5.11,0.24,-2.03,5.5
28.80972194671631,-1.82,2.49,-2.09,3.72
28.81924605369568,0.47,2.84,-0.21,2.88
28.82926893234253,1.79,0.23,0.91,2.02
28.838906049728394,1.84,-0.74,0.51,2.04
28.848863124847412,1.08,0.01,-0.35,1.13
28.879507064819336,0.55,-0.12,-0.64,0.85
28.880900144577026,0.71,-0.29,-0.57,0.95
28.88187599182129,0.94,-0.26,-0.02,0.97
28.896584033966064,0.77,-0.24,0.57,0.98
28.898061275482178,0.39,0.03,0.91,0.99
28.91264820098877,-0.03,0.09,1.07,1.07
28.918480157852173,-0.22,-0.05,1.03,1.05
28.92948627471924,-0.14,-0.1,0.93,0.94
28.93845510482788,0.03,-0.08,0.48,0.48
28.948194980621338,0.02,-0.1,-0.2,0.22
28.979698181152344,0.02,0.0,-0.65,0.65
28.980995178222656,-0.01,-0.04,-0.86,0.86
28.982007026672363,-0.29,-0.03,-0.9,0.94
28.996852159500122,-0.35,0.08,-0.7,0.78
28.998384952545166,-0.2,0.05,-0.46,0.5
29.0126531124115,-0.28,0.14,-0.59,0.66
29.017584085464478,-0.57,0.34,-0.89,1.11
29.02946901321411,-0.87,0.33,-0.93,1.31
29.037548065185547,-0.9,0.43,-0.8,1.27
29.04728412628174,-0.59,0.44,-0.62,0.96
29.086188077926636,-0.4,0.36,-0.81,0.97
29.08764410018921,-0.11,0.28,-0.87,0.92
29.088645935058594,0.43,0.14,-0.6,0.75
29.092250108718872,0.88,-0.02,-0.39,0.96
29.096662998199463,1.04,-0.06,-0.1,1.04
29.112962245941162,0.77,0.01,0.15,0.78
29.116887092590332,0.54,0.05,0.25,0.59
29.127365112304688,0.26,0.06,0.29,0.39
29.13674807548523,0.09,0.12,0.25,0.29
29.146544933319092,0.2,0.01,0.17,0.26
29.183298110961914,0.14,-0.09,-0.01,0.16
29.18461513519287,0.03,-0.04,-0.27,0.27
29.185688018798828,-0.07,-0.01,-0.43,0.43
29.196776151657104,-0.27,0.16,-0.35,0.47
29.19779920578003,-0.41,0.29,-0.55,0.74
29.212329149246216,-0.57,0.3,-0.68,0.93
29.21605110168457,-0.69,0.34,-0.64,1.0
29.229620933532715,-0.63,0.29,-0.67,0.96
29.23630404472351,-0.55,0.14,-0.62,0.84
29.245615005493164,-0.34,0.06,-0.52,0.62
29.28249502182007,-0.26,-0.03,-0.43,0.5
29.283772945404053,-0.31,-0.04,-0.41,0.51
29.284773111343384,-0.34,-0.01,-0.32,0.46
29.296579122543335,-0.56,-0.09,-0.37,0.67
29.297653198242188,-0.72,-0.1,-0.56,0.91
29.31285524368286,-0.45,-0.06,-0.42,0.61
29.31544303894043,-0.12,0.0,-0.21,0.24
29.329620122909546,0.27,0.02,-0.12,0.29
29.33537721633911,0.34,0.09,-0.07,0.35
29.345003128051758,0.21,0.11,-0.25,0.34
29.381972074508667,0.04,0.14,-0.29,0.32
29.383231163024902,-0.06,0.16,-0.29,0.33
29.384148120880127,-0.1,0.13,-0.29,0.33
29.397035121917725,-0.17,0.03,-0.28,0.32
29.39846706390381,-0.1,-0.09,-0.39,0.41
29.412291049957275,-0.01,-0.18,-0.51,0.54
29.414416074752808,-0.06,-0.28,-0.51,0.58
29.429702281951904,-0.1,-0.49,-0.31,0.58
29.43440008163452,-0.39,-0.7,-0.11,0.8
29.444826126098633,-0.6,-0.86,-0.18,1.06
29.454355239868164,-0.91,-0.92,-0.18,1.3
29.487035274505615,-1.21,-0.58,-0.71,1.51
29.48824119567871,-0.93,0.18,-0.54,1.09
29.489400148391724,-0.79,0.62,0.02,1.0
29.493643045425415,-0.19,0.98,0.28,1.03
29.513038158416748,0.37,1.21,0.19,1.27
29.51451015472412,0.3,1.38,-0.84,1.64
29.52994203567505,0.04,0.84,-1.78,1.96
29.533658027648926,0.1,-0.23,-1.38,1.4
29.54506015777588,0.24,-1.02,-0.43,1.13
29.553586959838867,-0.34,-0.89,-0.05,0.95
29.583971977233887,-1.19,-0.31,-0.17,1.24
29.58513593673706,-1.47,0.39,-0.13,1.52
29.58635902404785,-1.26,0.86,-0.12,1.53
29.597715139389038,-1.02,1.1,-0.65,1.63
29.603182077407837,-0.52,1.13,-1.25,1.76
29.612998962402344,0.08,0.79,-1.58,1.76
29.62297821044922,0.58,0.37,-1.76,1.88
29.63286018371582,0.94,0.28,-1.57,1.85
29.6430881023407,1.24,0.09,-1.06,1.63
29.65294122695923,1.46,0.03,-0.13,1.46
29.683772087097168,1.31,-0.16,0.34,1.36
29.685131072998047,1.16,-0.46,0.66,1.41
29.686113119125366,0.83,-0.42,0.92,1.3
29.6964111328125,0.5,-0.29,0.96,1.12
29.702270030975342,0.28,-0.25,0.81,0.89
29.712404251098633,0.09,-0.1,0.87,0.88
29.722447156906128,0.22,0.2,0.88,0.92
29.732298135757446,0.13,0.6,0.83,1.03
29.74234914779663,-0.06,0.95,0.84,1.26
29.751991271972656,-0.16,1.26,0.6,1.4
29.78409194946289,-0.53,1.59,0.39,1.72
29.785571098327637,-1.3,1.92,-0.17,2.32
29.786580085754395,-1.08,2.56,-0.26,2.79
29.796678066253662,-0.65,2.73,0.03,2.8
29.80168604850769,-0.39,2.2,-0.08,2.23
29.812435150146484,-0.59,1.94,-0.3,2.04
29.8217830657959,-1.0,1.83,-0.41,2.12
29.83161497116089,-1.19,1.9,-0.49,2.29
29.841554164886475,-1.29,2.2,-0.84,2.68
29.85107707977295,-0.92,2.56,-0.72,2.81
29.894515991210938,-0.66,2.74,-0.38,2.84
29.896076202392578,-0.32,2.56,-0.46,2.62
29.897069931030273,0.35,2.55,-0.5,2.62
29.913410186767578,0.51,2.34,-0.62,2.47
29.914875030517578,0.17,1.72,-0.74,1.88
29.929719924926758,-0.07,1.09,-0.62,1.25
29.931220054626465,0.15,0.71,-0.22,0.75
29.946367263793945,0.14,0.43,-0.16,0.47
29.947793006896973,-0.3,0.45,-0.5,0.73
29.961825132369995,-0.47,0.76,-1.0,1.34
29.98982000350952,-0.08,0.84,-1.47,1.69
29.991177082061768,0.88,1.68,-1.41,2.36
29.992187976837158,1.89,3.13,-0.96,3.78
30.013379096984863,1.04,2.74,-0.99,3.09
30.01492214202881,-0.47,1.23,-1.45,1.95
30.030131101608276,-1.53,0.03,-1.8,2.36
