time,ax,ay,az,atotal
0.006470203399658203,0.3,-0.43,0.31,0.6
0.0090179443359375,0.15,-0.38,0.03,0.4
0.03277397155761719,-0.21,-0.08,-0.08,0.23
0.03467702865600586,-0.17,0.15,-0.18,0.28
0.03719520568847656,-0.26,0.21,-0.11,0.35
0.047675132751464844,-0.07,-0.07,0.07,0.12
0.05712604522705078,0.09,-0.17,0.16,0.25
0.06725215911865234,0.08,-0.14,0.1,0.18
0.07723426818847656,0.06,-0.1,-0.04,0.12
0.087738037109375,0.1,-0.1,-0.11,0.17
0.09972715377807617,0.16,-0.05,-0.09,0.19
0.10984325408935547,0.15,-0.03,-0.11,0.18
0.1317601203918457,0.1,-0.01,-0.03,0.1
0.1333770751953125,-0.01,0.1,0.1,0.14
0.13661527633666992,-0.09,0.07,0.11,0.15
0.14775705337524414,-0.12,0.01,0.16,0.2
0.1566152572631836,-0.09,-0.07,0.22,0.24
0.16634702682495117,-0.03,-0.06,0.21,0.22
0.17960214614868164,0.03,-0.01,0.06,0.06
0.18848800659179688,0.02,0.05,-0.04,0.06
0.19644594192504883,0.04,-0.01,-0.07,0.08
0.20937609672546387,0.1,-0.09,-0.08,0.15
0.23746299743652344,0.17,-0.1,-0.06,0.2
0.23914623260498047,0.22,-0.06,-0.05,0.23
0.2408299446105957,0.21,-0.04,-0.03,0.21
0.2457561492919922,0.13,-0.05,0.1,0.17
0.2646012306213379,0.03,-0.09,0.15,0.17
0.2659001350402832,-0.04,-0.13,0.21,0.25
0.28088998794555664,-0.08,-0.17,0.34,0.38
0.28594303131103516,-0.02,-0.09,0.24,0.25
0.2998981475830078,0.09,0.12,-0.01,0.15
0.3087801933288574,0.14,0.17,-0.26,0.34
0.3179330825805664,0.11,0.13,-0.33,0.37
0.340482234954834,0.03,-0.01,-0.23,0.23
0.34230518341064453,-0.05,-0.15,-0.12,0.19
0.34504127502441406,-0.27,-0.01,0.07,0.27
0.3551039695739746,-0.49,0.16,0.1,0.52
0.36485910415649414,-0.34,0.08,0.08,0.35
0.3749051094055176,-0.03,-0.02,0.09,0.09
0.3848421573638916,0.05,-0.09,0.07,0.12
0.3948521614074707,-0.08,-0.11,0.19,0.23
0.40800905227661133,-0.06,-0.1,0.26,0.28
0.4163980484008789,0.01,-0.1,0.24,0.26
0.43851709365844727,0.06,-0.07,0.2,0.22
0.4403700828552246,0.13,-0.06,0.2,0.24
0.44439697265625,0.12,-0.07,0.11,0.17
0.4541192054748535,0.03,-0.04,0.11,0.12
0.46443796157836914,-0.01,-0.02,0.06,0.06
0.4739522933959961,-0.02,-0.03,-0.04,0.05
0.48426103591918945,-0.04,-0.04,-0.05,0.07
0.4946479797363281,-0.05,-0.05,0.0,0.07
0.5078482627868652,-0.09,-0.01,0.07,0.11
0.5143411159515381,-0.08,-0.05,0.03,0.09
0.5379941463470459,0.0,-0.05,0.0,0.05
0.5397241115570068,0.06,-0.08,0.06,0.11
0.5435409545898438,0.08,-0.14,0.18,0.24
0.5535621643066406,0.1,-0.11,0.19,0.24
0.5635509490966797,0.08,-0.07,0.16,0.19
0.5734431743621826,-0.01,-0.01,0.24,0.24
0.5832099914550781,-0.04,-0.01,0.27,0.27
0.5933990478515625,0.04,-0.05,0.2,0.21
0.6064331531524658,0.04,-0.06,0.11,0.13
0.6135540008544922,0.0,0.01,0.1,0.1
0.6399259567260742,-0.03,0.01,0.09,0.09
0.6416680812835693,-0.11,0.03,0.12,0.16
0.6430461406707764,-0.15,-0.02,0.07,0.16
0.6528692245483398,-0.13,-0.02,0.1,0.16
0.6628270149230957,0.03,-0.02,0.03,0.04
0.6727471351623535,0.18,-0.02,-0.05,0.18
0.6827690601348877,0.17,0.0,0.02,0.17
0.6923291683197021,0.08,0.0,0.02,0.08
0.7026541233062744,0.04,0.02,-0.08,0.09
0.7149991989135742,0.02,0.06,-0.11,0.12
0.7452521324157715,-0.04,0.0,-0.08,0.08
0.7468900680541992,-0.06,-0.03,0.06,0.09
0.7482881546020508,-0.01,-0.06,0.1,0.11
0.7644171714782715,-0.01,-0.06,0.11,0.12
0.7656230926513672,-0.09,-0.05,0.11,0.15
0.7798991203308105,-0.06,-0.06,0.1,0.13
0.7816531658172607,-0.06,0.02,0.12,0.13
0.7918200492858887,0.01,0.04,-0.13,0.13
0.8044509887695312,0.09,0.02,-0.3,0.31
0.8143701553344727,0.05,0.05,-0.17,0.18
0.8435461521148682,0.05,-0.01,0.01,0.05
0.8453760147094727,0.07,-0.07,0.14,0.17
0.8468170166015625,0.03,-0.05,0.23,0.23
0.8647651672363281,-0.04,-0.03,0.13,0.13
0.8662209510803223,-0.08,0.04,-0.04,0.09
0.8806099891662598,-0.13,0.05,-0.14,0.19
0.8821110725402832,-0.21,0.04,-0.16,0.26
0.897341251373291,-0.25,0.08,-0.15,0.3
0.900914192199707,-0.09,0.08,-0.02,0.12
0.9156701564788818,0.03,-0.04,0.09,0.1
0.9377222061157227,0.04,-0.07,0.17,0.18
0.9396090507507324,0.07,-0.09,0.12,0.16
0.9410829544067383,0.11,-0.03,0.05,0.12
0.9504489898681641,0.14,0.03,0.04,0.14
0.9641151428222656,0.09,0.02,0.03,0.09
0.9704911708831787,0.0,0.02,-0.05,0.05
0.9808170795440674,-0.07,0.05,-0.12,0.14
0.9904341697692871,-0.08,0.1,-0.06,0.14
1.0030779838562012,-0.03,0.01,-0.03,0.04
1.0124640464782715,0.09,-0.03,0.0,0.09
1.037722110748291,0.17,-0.02,-0.02,0.17
1.039445161819458,0.07,-0.03,0.04,0.08
1.041128158569336,-0.21,-0.01,0.15,0.25
1.049842119216919,-0.39,0.04,0.22,0.44
1.0644702911376953,-0.41,0.05,0.1,0.42
1.0696361064910889,-0.36,0.08,-0.11,0.38
1.0810480117797852,-0.32,0.01,-0.19,0.37
1.090266227722168,-0.21,-0.05,-0.1,0.23
1.1022162437438965,-0.08,-0.04,0.01,0.09
1.1126480102539062,0.06,0.03,-0.03,0.07
1.1214070320129395,0.15,0.04,-0.14,0.2
1.1401162147521973,0.09,0.01,-0.11,0.14
1.1421310901641846,-0.09,-0.04,0.09,0.13
1.148911952972412,-0.2,-0.12,0.25,0.34
1.1591591835021973,-0.2,-0.1,0.23,0.32
1.169161081314087,-0.11,0.02,0.18,0.21
1.1791372299194336,0.01,0.21,0.01,0.21
1.1889171600341797,0.15,0.13,-0.13,0.23
1.2014811038970947,0.2,-0.14,-0.17,0.29
1.2116832733154297,0.14,-0.17,-0.11,0.24
1.220804214477539,-0.02,-0.05,0.07,0.08
1.2411820888519287,-0.11,0.03,0.27,0.29
1.2431511878967285,-0.03,0.0,0.16,0.16
1.2485861778259277,0.12,-0.08,-0.05,0.15
1.2584400177001953,0.27,-0.04,-0.23,0.35
1.268273115158081,0.31,0.03,-0.3,0.43
1.2783212661743164,0.19,0.04,-0.13,0.23
1.2882442474365234,0.05,-0.02,0.14,0.15
1.2986750602722168,-0.06,-0.09,0.17,0.2
1.310676097869873,0.02,-0.07,0.08,0.1
1.3206510543823242,0.14,-0.06,-0.25,0.29
1.34299898147583,0.16,0.03,-0.45,0.47
1.3446180820465088,0.05,0.07,-0.33,0.34
1.3474812507629395,-0.18,-0.03,0.02,0.18
1.365530014038086,-0.25,-0.09,0.31,0.4
1.3672490119934082,-0.11,-0.06,0.31,0.33
1.3809170722961426,0.03,-0.04,-0.04,0.06
1.3873100280761719,0.06,0.04,-0.34,0.34
1.397348165512085,-0.06,0.06,-0.38,0.38
1.4105031490325928,-0.26,-0.05,-0.14,0.29
1.4171710014343262,-0.36,-0.07,0.21,0.42
1.4402310848236084,-0.27,-0.06,0.36,0.45
1.4422402381896973,-0.07,-0.04,0.19,0.2
1.4468340873718262,0.11,0.05,-0.06,0.13
1.4568862915039062,0.13,0.05,-0.17,0.21
1.466935157775879,0.02,0.04,-0.12,0.12
1.4769041538238525,-0.15,0.06,-0.08,0.18
1.4867310523986816,-0.27,0.03,-0.1,0.28
1.4993910789489746,-0.26,0.04,-0.19,0.32
1.5070221424102783,-0.24,0.09,-0.32,0.41
1.5189111232757568,-0.22,0.09,-0.36,0.43
1.5490360260009766,-0.24,0.08,-0.37,0.44
1.5508170127868652,-0.2,0.13,-0.27,0.36
1.552217960357666,0.0,0.13,-0.08,0.15
1.5651302337646484,0.22,0.05,0.05,0.23
1.5666122436523438,0.26,-0.04,0.08,0.27
1.5808041095733643,0.15,-0.08,0.08,0.18
1.5857720375061035,0.06,-0.02,0.13,0.14
1.5963401794433594,0.06,-0.03,0.11,0.12
1.609334945678711,0.07,-0.08,0.12,0.16
1.6160249710083008,0.14,0.0,0.12,0.18
1.6500201225280762,0.21,0.05,-0.02,0.21
1.6518030166625977,0.19,-0.06,-0.19,0.27
1.6531929969787598,0.11,-0.08,-0.12,0.18
1.665121078491211,0.06,-0.04,0.01,0.07
1.6665961742401123,0.04,-0.02,-0.02,0.04
1.6812829971313477,0.02,0.04,-0.12,0.12
1.685014247894287,-0.01,0.08,-0.17,0.18
1.6962571144104004,-0.03,0.06,-0.14,0.15
1.70552396774292,0.0,-0.01,-0.08,0.08
1.717522144317627,0.04,-0.05,-0.08,0.1
1.7476091384887695,0.11,0.01,-0.08,0.13
1.7493720054626465,0.13,0.05,-0.07,0.15
1.7508039474487305,0.02,0.01,-0.06,0.06
1.7650480270385742,-0.07,-0.02,-0.01,0.07
1.7663822174072266,-0.07,-0.02,0.0,0.07
1.7808880805969238,-0.04,0.01,-0.02,0.04
1.784346103668213,0.0,-0.02,0.01,0.02
1.797147274017334,0.01,-0.04,0.04,0.05
1.8070430755615234,0.05,-0.04,0.0,0.06
1.8164141178131104,0.1,-0.01,-0.04,0.1
1.8467650413513184,0.11,0.02,-0.06,0.12
1.8486042022705078,0.09,0.03,-0.12,0.15
1.849998950958252,0.08,0.05,-0.1,0.13
1.8651061058044434,0.07,0.05,-0.08,0.11
1.8664779663085938,0.04,0.01,-0.05,0.06
1.8811240196228027,0.02,-0.02,0.01,0.03
1.883716106414795,-0.02,-0.03,0.03,0.04
1.9015202522277832,-0.04,-0.01,0.03,0.05
1.907958984375,-0.06,0.0,0.0,0.06
1.913228988647461,-0.06,-0.02,-0.02,0.06
1.9267339706420898,-0.03,0.01,-0.04,0.05
1.9454281330108643,0.04,0.02,-0.08,0.09
1.9470219612121582,0.07,-0.01,-0.07,0.09
1.9531781673431396,0.06,-0.03,-0.08,0.1
1.96500825881958,0.04,-0.04,-0.09,0.1
1.973297119140625,0.03,-0.05,-0.12,0.13
1.9828271865844727,0.02,-0.03,-0.12,0.12
1.9929909706115723,0.0,-0.01,-0.08,0.08
2.005019187927246,0.0,-0.01,-0.03,0.03
2.0153021812438965,0.0,0.0,-0.01,0.01
2.025498151779175,0.05,0.0,0.0,0.05
2.0460572242736816,0.05,-0.04,-0.01,0.06
2.0476300716400146,0.04,-0.06,-0.04,0.08
2.0524892807006836,0.09,-0.07,-0.07,0.13
2.065385103225708,0.12,-0.07,-0.13,0.19
2.072327136993408,0.12,-0.05,-0.15,0.19
2.0821120738983154,0.14,0.03,-0.11,0.18
2.092245101928711,0.22,0.04,-0.09,0.24
2.102642059326172,0.28,-0.04,-0.11,0.3
2.1151580810546875,0.23,-0.04,-0.06,0.24
2.1248559951782227,0.13,-0.02,0.08,0.15
2.146038055419922,0.05,-0.06,0.13,0.15
2.1474809646606445,0.09,-0.05,0.08,0.13
2.1517791748046875,0.13,0.0,0.14,0.19
2.165771007537842,0.09,0.02,0.19,0.21
2.1715140342712402,-0.01,0.0,0.17,0.17
2.1815342903137207,-0.2,0.03,0.07,0.21
2.191411018371582,-0.44,0.1,-0.07,0.45
2.201181173324585,-0.4,0.11,-0.24,0.47
2.2137341499328613,-0.13,0.08,-0.26,0.3
2.221729278564453,0.08,0.02,-0.14,0.16
2.2471652030944824,0.13,-0.05,-0.01,0.13
2.2488901615142822,0.0,-0.04,0.05,0.06
2.2508692741394043,-0.01,-0.03,-0.11,0.11
2.2653369903564453,0.08,0.0,-0.24,0.25
2.270738124847412,0.13,0.02,-0.18,0.22
2.2814581394195557,0.11,0.0,-0.01,0.11
2.2912051677703857,0.05,-0.04,0.22,0.22
2.3030261993408203,-0.06,-0.08,0.2,0.22
2.313591957092285,-0.18,-0.04,0.03,0.18
2.320986270904541,-0.23,0.02,-0.05,0.23
2.356344223022461,-0.22,0.06,-0.12,0.25
2.3581371307373047,-0.12,0.1,-0.15,0.21
2.3594770431518555,0.02,0.1,-0.12,0.15
2.361340045928955,0.17,0.01,-0.09,0.19
2.3701629638671875,0.26,-0.04,-0.07,0.27
2.380160093307495,0.25,-0.05,-0.03,0.25
2.389946937561035,0.12,-0.02,0.01,0.12
2.399868965148926,-0.05,0.01,-0.01,0.05
2.409999132156372,-0.16,0.05,-0.04,0.17
2.420016288757324,-0.06,0.04,-0.04,0.08
2.450817108154297,0.08,-0.06,0.05,0.11
2.4526960849761963,0.15,-0.15,0.07,0.22
2.4541501998901367,0.13,-0.12,0.06,0.18
2.4654150009155273,0.13,0.0,0.07,0.14
2.46940016746521,0.22,0.02,0.07,0.23
2.481235980987549,0.28,-0.08,0.02,0.29
2.4892959594726562,0.21,-0.1,-0.02,0.23
2.498997211456299,0.08,-0.02,0.03,0.08
2.50905704498291,0.0,0.02,0.02,0.02
2.521183967590332,0.0,0.01,0.04,0.04
2.546165943145752,0.03,-0.02,0.03,0.04
2.5478692054748535,0.02,-0.05,-0.06,0.08
2.5493931770324707,0.01,-0.01,-0.15,0.15
2.565603256225586,0.03,0.02,-0.23,0.23
2.568634033203125,0.0,0.05,-0.12,0.13
2.581576108932495,0.01,0.01,-0.02,0.02
2.588408946990967,0.06,-0.04,0.04,0.08
2.59816312789917,0.09,-0.04,0.09,0.13
2.608680248260498,0.07,-0.04,0.04,0.09
2.620528221130371,0.01,-0.03,-0.03,0.04
2.64902925491333,-0.04,0.0,-0.07,0.08
2.650757074356079,-0.1,0.0,-0.01,0.1
2.6520841121673584,-0.03,-0.01,0.07,0.07
2.6654162406921387,0.14,-0.04,0.07,0.16
2.667832136154175,0.21,-0.06,0.04,0.22
2.681732177734375,0.17,-0.07,-0.06,0.19
2.687946081161499,0.06,0.0,-0.08,0.1
2.6980671882629395,-0.04,0.02,-0.08,0.09
2.708214282989502,-0.05,0.04,0.01,0.06
2.719625949859619,-0.05,0.01,0.05,0.07
2.729976177215576,-0.07,-0.02,0.07,0.1
2.751768112182617,-0.04,0.02,0.05,0.06
2.7534079551696777,-0.02,0.01,0.01,0.02
2.756974220275879,0.02,-0.03,0.0,0.03
2.76707124710083,0.04,-0.04,-0.04,0.06
2.7771971225738525,0.07,-0.02,-0.08,0.1
2.7869350910186768,0.09,-0.01,-0.11,0.14
2.797027111053467,0.09,-0.02,-0.07,0.11
2.807573080062866,0.09,-0.03,0.02,0.09
2.8193411827087402,0.1,-0.06,0.07,0.13
2.829547166824341,0.09,-0.06,0.1,0.14
2.8523261547088623,0.08,-0.06,0.08,0.12
2.853903293609619,0.07,-0.04,0.05,0.09
2.8562021255493164,0.06,-0.03,-0.01,0.06
2.866364002227783,0.08,-0.06,-0.09,0.13
2.8764352798461914,0.04,-0.08,-0.02,0.09
2.8861732482910156,0.09,-0.11,0.05,0.15
2.8962900638580322,0.21,-0.09,0.0,0.22
2.9062561988830566,0.19,-0.03,0.02,0.19
2.916388988494873,0.08,-0.02,0.11,0.13
2.928563117980957,0.02,-0.03,0.14,0.14
2.9515700340270996,-0.02,0.0,0.07,0.07
2.953184127807617,-0.08,0.04,0.04,0.09
2.955425262451172,-0.09,0.06,0.05,0.11
2.965670108795166,0.02,-0.02,0.02,0.03
2.9755420684814453,0.05,-0.05,0.0,0.07
2.9854612350463867,0.01,-0.04,-0.05,0.06
2.9955592155456543,0.1,-0.04,-0.1,0.14
3.0054941177368164,0.16,-0.03,-0.1,0.19
3.0155282020568848,0.06,0.01,-0.04,0.07
3.028419017791748,-0.05,0.0,0.02,0.05
3.051420211791992,-0.09,0.01,0.02,0.09
3.0529069900512695,-0.09,0.03,-0.02,0.09
3.054780960083008,-0.1,0.05,-0.02,0.11
3.0649940967559814,-0.11,0.04,-0.05,0.12
3.0747251510620117,-0.12,0.05,-0.04,0.13
3.08469820022583,-0.09,0.03,-0.02,0.09
3.094771146774292,-0.03,-0.02,-0.02,0.04
3.1048741340637207,0.0,-0.03,-0.04,0.05
3.1151041984558105,-0.02,0.0,-0.02,0.02
3.1283891201019287,-0.03,0.02,-0.01,0.03
3.1545872688293457,-0.05,0.03,-0.02,0.06
3.1561951637268066,-0.12,0.04,-0.03,0.13
3.158048152923584,-0.16,0.06,-0.01,0.17
3.1641430854797363,-0.1,0.04,0.08,0.13
3.1739161014556885,-0.04,-0.05,0.11,0.12
3.184295177459717,-0.01,-0.07,0.08,0.1
3.1940391063690186,0.02,-0.03,0.04,0.05
3.2040810585021973,0.03,-0.02,-0.03,0.04
3.214574098587036,0.0,0.01,-0.04,0.04
3.22762393951416,-0.05,0.03,-0.02,0.06
3.2545430660247803,-0.04,0.0,-0.01,0.04
3.2561941146850586,0.0,-0.01,0.0,0.01
3.2578670978546143,-0.02,0.0,0.01,0.02
3.2634191513061523,-0.04,0.02,0.06,0.07
3.273344039916992,-0.02,-0.02,0.09,0.09
3.28322696685791,0.03,-0.07,0.06,0.09
3.2932541370391846,0.02,-0.03,0.03,0.04
3.303115129470825,0.05,0.03,0.01,0.05
3.313751220703125,0.12,0.05,-0.05,0.13
3.3264222145080566,0.02,0.0,-0.08,0.08
3.3557629585266113,-0.15,-0.01,-0.06,0.16
3.3573622703552246,-0.25,0.19,-0.06,0.31
3.358919143676758,-0.31,0.29,-0.07,0.43
3.362795114517212,-0.23,0.16,-0.13,0.3
3.3819642066955566,-0.08,0.14,-0.03,0.16
3.3834500312805176,-0.45,0.21,0.11,0.5
3.398632049560547,-0.82,0.29,0.26,0.9
3.402630090713501,-0.85,0.26,0.22,0.91
3.418436050415039,-0.71,0.01,-0.09,0.71
3.4229140281677246,-0.47,-0.04,-0.37,0.59
3.4517030715942383,-0.22,0.04,-0.52,0.56
3.4532480239868164,-0.08,0.04,-0.51,0.51
3.454677104949951,-0.04,0.01,-0.19,0.19
3.4625861644744873,0.11,-0.11,0.31,0.34
3.4723010063171387,0.4,-0.38,0.66,0.86
3.4825491905212402,0.7,-0.6,0.75,1.18
3.491978168487549,0.72,-0.54,0.57,1.06
3.5016732215881348,0.41,-0.29,0.37,0.62
3.5144951343536377,0.06,-0.04,0.26,0.26
3.5219311714172363,-0.13,-0.04,0.03,0.13
3.5339889526367188,-0.07,-0.07,-0.02,0.1
3.557504177093506,-0.02,-0.11,0.06,0.12
3.559061050415039,0.06,-0.17,0.06,0.19
3.561126232147217,0.19,-0.22,0.05,0.29
3.5711090564727783,0.16,-0.19,-0.02,0.24
3.5812461376190186,0.01,-0.07,-0.06,0.09
3.5910041332244873,-0.25,-0.04,-0.05,0.25
3.601102113723755,-0.41,-0.03,0.13,0.43
3.610997200012207,-0.33,-0.06,0.34,0.47
3.6237759590148926,-0.06,-0.18,0.35,0.39
3.6311380863189697,0.05,-0.21,0.32,0.38
3.6565380096435547,0.16,-0.17,0.5,0.55
3.658390998840332,0.13,-0.26,0.56,0.63
3.660438060760498,-0.2,-0.26,0.23,0.4
3.6705002784729004,-0.15,-0.05,-0.08,0.17
3.681265115737915,0.07,0.2,-0.3,0.36
3.6902921199798584,0.25,0.25,-0.12,0.37
3.700221061706543,0.24,-0.07,0.14,0.28
3.710203170776367,0.26,-0.21,0.27,0.42
3.722492218017578,0.21,-0.02,-0.01,0.21
3.7302801609039307,-0.04,0.26,-0.21,0.33
3.7559101581573486,-0.1,0.18,-0.41,0.45
3.7575721740722656,0.22,0.02,-0.19,0.29
3.75958514213562,0.29,-0.09,0.13,0.33
3.7699151039123535,0.2,-0.11,0.16,0.27
3.782222270965576,0.24,0.11,0.04,0.26
3.7894601821899414,0.19,0.18,-0.19,0.32
3.799325942993164,0.09,0.13,-0.33,0.36
3.8097972869873047,0.14,0.19,-0.33,0.4
3.8219940662384033,0.37,0.27,-0.39,0.6
3.8314199447631836,0.32,0.13,-0.47,0.58
3.855173110961914,-0.06,-0.04,-0.23,0.24
3.8570070266723633,-0.29,-0.04,-0.01,0.29
3.858768939971924,-0.24,0.08,0.02,0.25
3.86891508102417,-0.16,0.11,-0.02,0.19
3.879080057144165,-0.26,0.04,0.05,0.26
3.888871192932129,-0.39,0.01,0.14,0.41
3.8988840579986572,-0.32,0.05,0.12,0.34
3.9086570739746094,-0.17,0.09,-0.08,0.2
3.919140100479126,-0.24,0.14,-0.26,0.38
3.930864095687866,-0.35,0.2,-0.27,0.48
3.960576057434082,-0.06,0.06,-0.34,0.35
3.962254047393799,0.33,-0.12,-0.19,0.39
3.963693141937256,0.43,-0.2,-0.03,0.47
3.9826722145080566,0.36,-0.17,0.1,0.41
3.984135150909424,0.13,-0.12,0.13,0.21
3.9984991550445557,-0.02,-0.05,0.17,0.17
3.999995231628418,-0.03,0.0,0.14,0.14
4.016178131103516,0.02,0.06,0.05,0.08
4.018555164337158,-0.12,0.04,0.08,0.14
4.03428316116333,-0.01,-0.05,0.02,0.05
4.057110071182251,0.18,-0.07,-0.06,0.2
4.059051990509033,0.14,0.07,-0.03,0.15
4.060431003570557,-0.08,0.09,-0.05,0.13
4.067301273345947,-0.52,0.15,0.01,0.54
4.077523231506348,-0.75,0.2,-0.13,0.78
4.087435245513916,-0.66,0.19,-0.16,0.7
4.097427129745483,-0.59,0.27,-0.06,0.65
4.107011079788208,-0.54,0.27,-0.46,0.75
4.117207050323486,-0.78,0.36,-0.41,0.95
4.127629280090332,-1.07,0.45,-0.06,1.16
4.161712169647217,-1.3,0.36,0.01,1.34
4.1635661125183105,-1.47,0.33,-0.18,1.51
4.165027141571045,-1.32,0.47,-0.38,1.45
4.1827170848846436,-0.95,0.65,-0.43,1.22
4.184185981750488,-0.67,0.58,-0.27,0.92
4.197920083999634,-0.65,0.48,-0.03,0.8
4.19940710067749,-0.6,0.6,0.01,0.84
4.215683937072754,-0.47,0.63,-0.09,0.79
4.217099189758301,-0.45,0.58,-0.09,0.73
4.232284069061279,-0.48,0.53,-0.01,0.71
4.2553629875183105,-0.47,0.52,0.05,0.7
4.257215976715088,-0.44,0.61,0.04,0.75
4.258730173110962,-0.45,0.88,0.19,1.0
4.265912055969238,-0.52,1.24,0.34,1.38
4.282508134841919,-0.62,1.31,0.17,1.45
4.285786151885986,-0.67,1.49,0.18,1.64
4.298582077026367,-0.9,1.88,0.3,2.1
4.305551052093506,-1.15,2.33,0.28,2.61
4.315960168838501,-1.4,2.69,0.24,3.04
4.328474998474121,-1.53,2.61,-0.1,3.02
4.338006019592285,-1.82,2.47,-0.12,3.07
4.360502243041992,-2.32,2.64,0.01,3.51
4.362277984619141,-3.01,2.96,0.29,4.23
4.365062236785889,-3.77,3.5,0.44,5.16
4.382899284362793,-4.32,4.15,0.37,6.0
4.384994029998779,-4.78,5.41,0.66,7.24
4.4001312255859375,-5.57,7.38,0.81,9.28
4.404987096786499,-6.65,9.14,0.22,11.3
4.41540002822876,-7.62,10.55,-0.02,13.01
4.4279091358184814,-8.42,11.71,0.24,14.42
4.435275077819824,-9.09,12.38,1.15,15.4
4.460072994232178,-9.76,12.21,1.74,15.72
4.4619011878967285,-10.23,11.0,1.81,15.13
4.464399099349976,-9.48,10.57,1.19,14.24
4.4830732345581055,-6.08,11.63,-0.94,13.15
4.484601020812988,-0.59,13.37,-3.79,13.9
4.498897075653076,3.89,12.04,-4.59,13.45
4.504700183868408,4.98,7.61,-3.79,9.85
4.519140243530273,1.38,2.11,-3.6,4.39
4.524285078048706,-2.62,0.18,-3.02,4.0
4.536545276641846,-0.44,1.22,-0.8,1.52
4.556924104690552,1.11,-2.06,0.89,2.5
4.558772087097168,-1.7,-2.9,-1.75,3.78
4.563690185546875,-5.09,-1.6,-0.13,5.33
4.573886156082153,-7.91,-1.52,0.92,8.1
4.583535194396973,-10.44,-2.49,0.46,10.74
4.593559265136719,-12.44,-3.47,-0.07,12.91
4.603636264801025,-13.56,-4.27,0.14,14.21
4.61364221572876,-13.6,-4.74,1.34,14.46
4.623883247375488,-11.38,-4.56,2.95,12.6
4.635662078857422,-7.53,-4.38,2.95,9.19
4.660984992980957,-5.06,-4.2,1.78,6.81
4.662755966186523,-3.88,-3.94,0.98,5.61
4.664153099060059,-3.88,-3.79,0.55,5.45
4.68309211730957,-4.27,-3.89,0.1,5.77
4.68455696105957,-3.84,-3.92,-0.57,5.51
4.699116230010986,-3.03,-3.64,-1.46,4.95
4.702606201171875,-2.34,-3.38,-2.01,4.57
4.716470241546631,-1.7,-3.45,-2.33,4.49
4.72587513923645,-0.99,-3.6,-2.43,4.45
4.7348222732543945,-0.02,-3.58,-2.12,4.16
4.766911029815674,1.12,-3.37,-1.75,3.95
4.768716096878052,2.13,-3.09,-2.33,4.41
4.770174980163574,3.08,-3.16,-3.39,5.56
4.783465147018433,4.12,-3.12,-3.74,6.37
4.784948110580444,5.08,-2.7,-2.88,6.43
4.799239158630371,5.68,-2.21,-1.75,6.34
4.801897048950195,5.91,-1.79,-0.64,6.2
4.815726280212402,6.17,-1.11,0.72,6.31
4.821780204772949,6.73,-0.41,1.14,6.83
4.832283020019531,7.11,0.35,0.74,7.15
4.866831064224243,7.15,1.71,0.66,7.38
4.868593215942383,7.71,3.08,0.41,8.31
4.870030164718628,9.09,3.43,-0.27,9.71
4.88343620300293,10.59,3.04,-0.64,11.03
4.884852170944214,11.79,2.68,-0.49,12.1
4.899226188659668,12.69,2.19,-0.38,12.88
4.901109218597412,13.29,1.36,-0.05,13.35
4.916197061538696,13.76,0.51,0.36,13.77
4.921048164367676,13.81,-0.67,1.06,13.86
4.931477069854736,12.09,-0.82,1.3,12.18
4.962364196777344,8.35,3.58,1.57,9.21
4.9642510414123535,6.18,1.24,-1.95,6.59
4.965727090835571,0.27,-0.77,-3.38,3.47
4.983136177062988,-5.71,10.27,-1.09,11.8
4.984617233276367,-4.43,24.25,5.28,25.21
4.998672962188721,-4.32,22.25,2.83,22.84
5.000370025634766,-3.27,7.54,-3.57,8.96
5.015684127807617,2.48,0.22,-2.76,3.71
5.023231029510498,5.06,-5.99,-0.59,7.86
5.03236722946167,7.39,-7.55,1.14,10.62
5.065929174423218,8.71,-6.82,1.88,11.22
5.067768096923828,8.35,-4.16,1.96,9.53
5.0692830085754395,5.42,-1.13,1.0,5.62
5.083614110946655,2.34,0.35,-0.29,2.38
5.085081100463867,0.31,1.42,-1.5,2.08
5.0991950035095215,-1.11,2.13,-2.11,3.19
5.100680112838745,-1.85,2.05,-1.44,3.11
5.1162261962890625,-1.16,1.27,-0.08,1.72
5.1195759773254395,0.38,0.03,0.59,0.7
5.1331892013549805,1.17,-0.82,0.54,1.52
5.142032146453857,0.99,-0.73,0.22,1.24
5.166275978088379,0.3,0.06,-0.06,0.31
5.167819023132324,-0.26,0.58,-0.2,0.66
5.1695661544799805,-0.42,0.47,-0.15,0.64
5.184081077575684,-0.2,-0.22,-0.32,0.43
5.189133167266846,0.11,-0.75,-0.36,0.83
5.198929071426392,0.73,-0.54,-0.25,0.94
5.209157943725586,1.12,-0.22,0.31,1.18
5.218841075897217,0.77,-0.17,1.05,1.31
5.229088068008423,0.17,-0.3,1.47,1.5
5.238755226135254,0.02,-0.34,1.13,1.18
5.266359090805054,0.15,-0.26,0.28,0.41
5.268167018890381,-0.03,0.03,-0.44,0.44
5.2696709632873535,-0.52,0.53,-0.71,1.02
5.283696174621582,-1.1,0.74,-0.64,1.47
5.288358211517334,-1.45,0.64,-0.36,1.62
5.298254013061523,-1.19,0.48,-0.02,1.28
5.308179140090942,-0.7,0.13,0.0,0.71
5.318012237548828,-0.44,-0.28,-0.4,0.65
5.328772068023682,-0.48,-0.33,-0.6,0.83
5.3404271602630615,-0.89,-0.09,-0.68,1.12
5.365349292755127,-1.4,0.32,-0.79,1.63
5.367008209228516,-1.44,0.63,-1.0,1.86
5.368399143218994,-1.33,0.74,-1.08,1.86
5.3856871128082275,-1.39,0.86,-0.77,1.8
5.387460231781006,-1.61,0.79,-0.14,1.79
5.39833402633667,-2.01,0.66,0.34,2.14
5.407807111740112,-2.15,0.7,0.35,2.28
5.417379140853882,-1.85,0.83,0.02,2.02
5.427573204040527,-1.5,0.93,-0.47,1.82
5.437769174575806,-1.27,0.98,-0.77,1.77
5.464752197265625,-1.03,0.99,-0.49,1.51
5.466606140136719,-0.74,0.78,-0.26,1.1
5.468062162399292,-0.28,0.62,-0.18,0.7
5.483777046203613,-0.18,0.85,-0.03,0.86
5.48699426651001,-0.71,1.65,0.05,1.79
5.499309062957764,-1.42,2.74,0.07,3.08
5.507094144821167,-1.58,2.84,-1.23,3.47
5.516637086868286,-1.51,3.29,-1.65,3.97
5.5297532081604,-2.08,4.19,-0.45,4.69
5.538768291473389,-3.19,4.84,1.25,5.92
5.5727620124816895,-4.27,5.44,1.78,7.14
5.574710130691528,-4.9,6.77,1.71,8.53
5.576122283935547,-5.35,8.19,1.37,9.87
5.5792412757873535,-6.08,9.67,1.21,11.48
5.599408149719238,-7.26,11.46,1.3,13.62
5.6009581089019775,-9.22,13.32,0.54,16.2
5.61456823348999,-11.16,14.75,-0.56,18.5
5.6160359382629395,-12.17,15.23,-1.84,19.58
5.631637096405029,-12.68,14.81,-3.24,19.76
5.636555194854736,-12.98,14.14,-3.88,19.58
5.666563034057617,-11.88,14.51,-2.5,18.91
5.668186187744141,-7.46,15.13,-3.15,17.16
5.669962167739868,-1.1,12.76,-7.93,15.06
5.684305191040039,3.38,8.65,-7.41,11.88
5.685789108276367,3.26,3.25,-5.09,6.86
5.6976189613342285,1.71,0.03,-2.84,3.31
5.705334186553955,3.9,0.45,1.92,4.37
5.716423034667969,5.56,-4.46,6.04,9.34
5.725702285766602,1.9,-7.37,-0.12,7.61
5.737576007843018,-3.51,-4.72,-0.87,5.94
5.770292282104492,-6.7,-2.64,0.56,7.22
5.772123098373413,-9.11,-2.86,-0.78,9.58
5.773625135421753,-10.71,-4.06,-1.41,11.54
5.7838592529296875,-11.61,-5.55,-1.24,12.92
5.785387992858887,-11.62,-6.73,0.62,13.44
5.799415111541748,-9.94,-7.91,1.98,12.85
5.804592132568359,-7.02,-8.49,2.36,11.26
5.816291093826294,-5.41,-7.94,1.54,9.73
5.824713230133057,-5.61,-6.87,0.8,8.9
5.836894989013672,-6.55,-6.47,0.53,9.22
5.867701053619385,-7.01,-6.19,0.43,9.36
5.8694541454315186,-6.72,-5.88,0.21,8.93
5.870865106582642,-6.05,-5.65,-0.16,8.27
5.884035110473633,-4.98,-5.29,-0.61,7.29
5.88554310798645,-3.88,-5.06,-1.0,6.45
5.899409055709839,-3.05,-5.1,-1.31,6.08
5.903779983520508,-2.43,-5.21,-1.43,5.92
5.916405200958252,-1.83,-5.18,-1.58,5.71
5.923695087432861,-1.26,-5.0,-1.67,5.42
5.933932065963745,-0.63,-4.69,-1.68,5.02
5.94638729095459,0.2,-4.35,-1.25,4.53
5.97351598739624,1.02,-4.07,-0.93,4.29
5.975129127502441,1.52,-3.57,-0.99,4.0
5.976678133010864,2.52,-2.69,-1.12,3.85
5.982962131500244,4.67,-1.61,-1.47,5.15
5.99946403503418,7.13,0.52,-0.37,7.15
6.0032429695129395,8.98,3.03,1.52,9.59
6.016138076782227,9.32,4.88,2.84,10.89
6.022922039031982,8.02,5.81,2.97,10.33
6.032716274261475,6.69,6.18,2.28,9.38
6.042762279510498,6.31,7.12,1.66,9.65
6.070003032684326,7.31,8.72,1.58,11.48
6.071714162826538,9.27,9.51,0.64,13.29
6.073371171951294,11.28,8.12,-0.91,13.92
6.082931041717529,12.99,5.9,-1.47,14.34
6.092504978179932,14.31,3.95,-1.17,14.89
6.102337121963501,15.0,2.3,-0.1,15.17
6.112421035766602,13.91,4.2,0.84,14.55
6.122339248657227,9.77,1.64,-1.08,9.96
6.132167100906372,0.89,-2.35,-1.88,3.13
6.1423890590667725,-7.51,1.67,-0.13,7.69
6.173403263092041,-7.17,13.28,4.17,15.65
6.1750781536102295,-4.18,22.32,6.01,23.48
6.176478147506714,-4.4,16.89,0.43,17.45
6.181457996368408,-2.8,4.01,-4.94,6.95
6.199903964996338,3.2,0.36,-4.06,5.18
6.201414108276367,8.01,0.47,-1.47,8.15
6.216578006744385,8.61,-3.57,0.86,9.36
6.221528053283691,8.87,-5.61,1.05,10.54
6.231415271759033,8.36,-5.29,1.09,9.95
6.241862058639526,5.87,-3.13,0.28,6.65
6.270472049713135,3.33,-0.36,-0.3,3.36
6.2716240882873535,1.45,1.6,-1.05,2.4
6.272813081741333,-0.04,2.3,-1.06,2.53
6.2822911739349365,-1.02,1.39,-0.09,1.72
6.2909791469573975,-0.7,0.09,1.09,1.29
6.300769090652466,0.39,-0.87,1.33,1.63
6.310793161392212,1.04,-1.08,0.55,1.59
6.320639133453369,0.91,-0.47,-0.28,1.06
6.330804109573364,0.47,0.33,-0.82,1.0
6.341145992279053,0.14,0.65,-1.0,1.2
6.378341197967529,0.13,0.27,-0.54,0.61
6.379784107208252,0.28,-0.33,0.27,0.51
6.380760192871094,0.28,-0.63,0.41,0.8
6.400125980377197,0.42,-0.39,0.36,0.67
6.401595115661621,0.53,-0.02,0.56,0.77
6.416332244873047,0.53,-0.09,0.83,0.98
6.417731285095215,0.48,-0.39,1.0,1.17
6.4330010414123535,0.46,-0.43,1.04,1.21
6.434466123580933,0.36,-0.31,0.49,0.68
6.453097105026245,0.15,-0.05,-0.47,0.49
6.47859001159668,-0.03,0.33,-1.26,1.3
6.480412006378174,-0.23,0.65,-1.43,1.58
6.481565952301025,-0.53,0.66,-0.85,1.19
6.5001630783081055,-0.91,0.39,-0.04,0.99
6.5016491413116455,-1.35,0.23,0.4,1.42
6.51674222946167,-1.93,0.17,0.22,1.94
6.518235206604004,-2.49,0.31,-0.72,2.61
6.533306121826172,-2.84,0.65,-1.51,3.28
6.534787178039551,-3.12,1.01,-1.75,3.71
6.549568176269531,-3.17,1.18,-1.48,3.69
6.575338125228882,-3.02,1.09,-0.74,3.29
6.576919078826904,-2.57,0.99,-0.11,2.75
6.57788610458374,-2.0,0.8,-0.04,2.15
6.580264091491699,-1.17,0.78,0.03,1.4
6.588251113891602,-0.46,0.6,0.06,0.75
6.598907947540283,-0.27,0.33,-0.05,0.42
6.608617067337036,-0.45,0.11,0.04,0.46
6.618728160858154,-0.88,0.24,0.28,0.95
6.628563165664673,-1.29,0.71,0.3,1.5
6.638437271118164,-1.5,1.45,0.41,2.12
6.6721251010894775,-1.67,2.55,0.53,3.09
6.673730134963989,-1.69,2.85,-0.2,3.31
6.6747941970825195,-1.66,3.4,-0.32,3.79
6.681433200836182,-1.91,4.08,-0.49,4.53
6.688096046447754,-2.56,4.27,-0.4,4.99
6.699885129928589,-3.5,4.65,-0.19,5.82
6.70774507522583,-4.67,5.65,0.11,7.33
6.717810153961182,-5.86,6.96,-0.07,9.09
6.727762222290039,-6.74,8.72,-0.3,11.02
6.737543106079102,-7.36,11.01,-0.38,13.24
6.750539064407349,-8.03,12.47,-1.22,14.88
6.777155160903931,-9.16,13.4,-1.91,16.34
6.778326034545898,-10.7,13.8,-2.67,17.66
6.779330253601074,-11.8,13.21,-3.11,17.98
6.797112941741943,-12.34,12.25,-3.84,17.8
6.7986321449279785,-12.47,12.74,-3.26,18.12
6.813967227935791,-10.81,15.26,-0.93,18.72
6.817089080810547,-6.28,16.39,-1.78,17.64
6.833595275878906,-1.48,12.52,-6.79,14.31
6.836884021759033,1.48,7.17,-6.98,10.11
6.848964214324951,0.72,1.15,-4.57,4.76
6.875222206115723,0.34,-0.39,-1.31,1.4
6.876930236816406,3.39,0.35,4.34,5.51
6.877984046936035,4.13,-4.68,7.1,9.45
6.886792182922363,-0.39,-6.42,1.1,6.52
6.8967461585998535,-4.88,-3.04,1.78,6.01
6.90662407875061,-7.56,-0.9,2.78,8.1
6.91636323928833,-9.58,-1.3,0.85,9.7
6.926233291625977,-10.39,-2.83,-0.37,10.77
6.936241149902344,-9.72,-4.42,-0.17,10.67
6.946741104125977,-7.45,-5.19,2.08,9.31
6.978049278259277,-5.02,-6.03,2.64,8.27
6.979247093200684,-3.79,-6.24,2.58,7.74
6.980253219604492,-3.56,-5.9,2.57,7.35
7.000442981719971,-3.91,-5.72,2.12,7.24
7.001867055892944,-4.55,-5.66,1.66,7.44
7.01667594909668,-5.18,-5.54,1.37,7.7
7.018169164657593,-5.6,-5.2,1.3,7.75
7.0333311557769775,-5.79,-4.73,1.28,7.58
7.035394191741943,-5.74,-4.62,1.2,7.46
7.048434257507324,-5.44,-4.93,1.22,7.44
7.074337959289551,-4.88,-5.42,1.38,7.42
7.07620096206665,-4.36,-5.85,1.84,7.52
7.07737398147583,-3.76,-6.34,1.82,7.59
7.084923267364502,-3.07,-6.44,1.53,7.29
7.100326061248779,-2.53,-6.0,1.38,6.65
7.104859113693237,-2.02,-5.2,1.64,5.81
7.116891145706177,-1.38,-4.02,1.79,4.61
7.124741077423096,-0.15,-2.81,1.13,3.03
7.134641170501709,2.01,-1.95,-0.1,2.8
7.144695281982422,4.83,-0.86,-1.55,5.14
7.183855056762695,7.88,0.85,-2.03,8.18
7.185503959655762,10.46,3.06,-1.41,10.98
7.186550140380859,12.07,4.83,-0.95,13.03
7.200994968414307,12.84,5.85,-0.46,14.11
7.202475070953369,13.5,6.95,0.44,15.19
7.21687126159668,14.45,7.71,1.36,16.43
7.218354225158691,15.44,6.88,1.73,16.99
7.2336061000823975,15.87,5.61,1.19,16.87
7.235089063644409,15.9,5.08,1.13,16.73
7.249152183532715,15.73,3.8,0.77,16.2
7.278864145278931,15.17,5.04,-0.72,16.0
7.280681133270264,14.5,5.07,-4.18,15.91
7.282016277313232,8.94,-4.8,-10.93,14.91
7.297080993652344,-1.11,-3.15,-9.69,10.24
7.298539161682129,-5.41,18.93,-2.88,19.89
7.314192056655884,-5.13,36.25,6.38,37.16
7.315673112869263,-8.82,24.25,0.95,25.82
7.333673000335693,-7.53,2.72,-3.71,8.82
7.3351030349731445,-1.63,-3.81,-1.57,4.43
7.3492591381073,3.98,-6.17,-0.39,7.35
7.3802430629730225,7.88,-8.59,1.45,11.74
7.381510257720947,11.11,-7.64,3.85,14.02
7.382528066635132,11.91,-4.76,3.64,13.33
7.40076208114624,8.73,-2.2,2.62,9.37
7.40224027633667,3.61,-0.76,0.94,3.8
7.4170122146606445,0.18,0.71,-0.83,1.1
7.418460130691528,-1.62,2.38,-2.1,3.56
7.433531284332275,-2.32,3.05,-2.03,4.33
7.435024261474609,-1.64,1.8,-0.86,2.58
7.449117183685303,0.3,-0.24,0.34,0.51
7.477066993713379,1.9,-1.63,0.36,2.52
7.478523254394531,2.31,-1.94,0.25,3.02
7.479616165161133,1.37,-1.11,-0.21,1.77
7.500976085662842,0.34,0.1,-0.66,0.74
7.502478122711182,0.14,0.53,-0.73,0.91
7.504449129104614,0.66,0.15,-0.08,0.68
7.511918067932129,1.04,-0.11,0.89,1.37
7.522017955780029,0.79,-0.28,0.88,1.21
7.532034158706665,0.13,-0.23,-0.06,0.27
7.541851997375488,-0.4,0.19,-0.75,0.87
7.551717281341553,-0.49,0.46,-0.67,0.94
7.585758209228516,-0.29,0.25,-0.46,0.59
7.586910247802734,0.03,-0.21,-0.46,0.5
7.587855100631714,0.14,-0.28,-0.37,0.48
7.6011152267456055,0.02,-0.04,-0.41,0.41
7.602577209472656,-0.09,0.18,-0.24,0.31
7.617211103439331,-0.12,0.36,0.18,0.42
7.621039152145386,-0.13,0.44,0.67,0.81
7.6315741539001465,-0.2,0.35,0.92,1.0
7.641059160232544,-0.42,0.3,0.83,0.97
7.650735139846802,-0.81,0.28,0.53,1.0
7.685209274291992,-1.32,0.31,-0.07,1.35
7.686505079269409,-1.94,0.31,-0.41,2.0
7.687451124191284,-2.52,0.2,-0.95,2.7
7.701143264770508,-2.77,0.27,-1.25,3.05
7.702631950378418,-2.51,0.73,-1.06,2.82
7.717273235321045,-1.94,1.03,-0.77,2.32
7.720317125320435,-1.42,0.89,-0.48,1.74
7.733765125274658,-1.32,0.78,0.21,1.54
7.74015998840332,-1.61,0.9,0.61,1.94
7.749925136566162,-1.91,1.07,0.3,2.2
7.7815101146698,-1.86,1.68,-0.04,2.5
7.782762050628662,-1.59,2.05,-0.62,2.66
7.783817291259766,-1.25,2.53,-0.06,2.82
7.800638198852539,-1.2,3.28,0.46,3.52
7.80167818069458,-1.66,3.55,0.85,4.01
7.817384243011475,-2.3,3.68,0.84,4.42
7.819546222686768,-3.0,4.03,0.75,5.07
7.8336310386657715,-3.58,4.5,0.34,5.76
7.839323997497559,-4.38,5.48,0.34,7.02
7.849427223205566,-5.39,6.9,0.53,8.77
7.880136013031006,-6.47,8.84,0.92,10.99
7.881491184234619,-7.98,11.14,0.69,13.72
7.882544040679932,-10.02,12.64,-0.29,16.13
7.897495269775391,-11.72,13.64,-0.7,17.99
7.89890193939209,-13.26,13.69,-1.12,19.09
7.914289951324463,-14.49,13.67,-1.28,19.96
7.91894006729126,-14.98,14.9,-0.91,21.14
7.933096170425415,-12.63,17.1,-1.05,21.28
7.9391069412231445,-6.11,16.48,-5.57,18.43
7.948550224304199,1.21,13.58,-10.21,17.03
7.985159158706665,5.16,10.55,-5.89,13.13
7.986976146697998,3.94,5.53,-3.23,7.51
7.988058090209961,-0.14,0.79,-2.1,2.24
8.000777244567871,1.77,2.27,-0.76,2.97
8.001785278320312,5.66,-0.17,2.82,6.32
8.017395973205566,4.29,-3.82,0.2,5.74
8.018883228302002,-1.11,-2.85,-2.19,3.76
8.033448219299316,-5.29,-0.81,1.43,5.53
8.038150072097778,-8.29,-1.83,1.13,8.56
8.049321174621582,-10.14,-3.84,0.32,10.84
8.085292100906372,-11.19,-5.36,0.27,12.41
8.086720943450928,-11.53,-6.24,1.15,13.16
8.087718963623047,-10.89,-6.67,3.15,13.15
8.100744247436523,-8.31,-6.59,4.34,11.45
8.101791143417358,-5.79,-6.35,3.58,9.3
8.117300987243652,-4.69,-6.0,2.23,7.93
8.118795156478882,-4.99,-5.7,1.53,7.72
8.133952140808105,-6.05,-5.51,1.59,8.33
8.137172222137451,-6.53,-5.39,1.56,8.6
8.149227142333984,-6.25,-5.39,1.1,8.32
8.183925151824951,-5.63,-5.32,0.49,7.76
8.185307025909424,-5.03,-5.37,0.0,7.35
8.186361074447632,-4.51,-5.57,-0.15,7.16
8.201188087463379,-3.94,-6.01,-0.08,7.18
8.202192068099976,-3.37,-6.46,0.07,7.28
8.216866970062256,-2.69,-6.85,-0.01,7.35
8.218116283416748,-1.89,-6.93,-0.2,7.18
8.233920097351074,-0.99,-6.42,0.13,6.49
8.236438274383545,-0.09,-5.56,0.2,5.56
8.249478101730347,1.02,-4.79,-0.57,4.93
8.28250503540039,2.61,-3.82,-1.21,4.78
8.28390908241272,4.81,-2.11,-1.64,5.5
8.285006999969482,7.4,0.18,-1.45,7.54
8.300701141357422,9.83,2.75,-0.8,10.23
8.301761150360107,11.53,5.04,-0.12,12.58
8.317384243011475,12.65,6.29,0.3,14.13
8.318854093551636,13.54,6.59,0.13,15.05
8.335188150405884,14.03,6.63,-0.66,15.53
8.336648941040039,14.07,6.44,-1.77,15.57
8.349897146224976,14.57,6.25,-2.68,16.07
8.35569715499878,15.94,5.4,-3.75,17.24
8.39461898803711,17.41,3.96,-3.75,18.24
8.395726203918457,18.31,2.38,-2.56,18.64
8.396739959716797,17.4,2.58,-0.9,17.61
8.41794204711914,13.05,5.18,0.3,14.04
8.41933822631836,4.18,-2.42,-1.73,5.13
8.433979988098145,-6.39,-1.83,-2.06,6.95
8.435484170913696,-9.93,12.62,-3.7,16.47
8.448527097702026,-8.84,28.65,1.97,30.04
8.450026035308838,-11.02,25.7,-0.12,27.96
8.466088056564331,-9.74,8.53,-6.76,14.6
8.495941162109375,-2.39,0.25,-1.64,2.9
8.497823238372803,3.27,-2.67,1.55,4.49
8.498841285705566,5.85,-7.62,2.61,9.95
8.518218040466309,8.68,-9.61,1.39,13.02
8.519237995147705,10.81,-8.35,1.27,13.71
8.53442096710205,10.8,-4.23,0.92,11.63
8.535890102386475,7.62,0.19,-0.47,7.63
8.550858974456787,3.51,2.23,-1.07,4.29
8.552328109741211,0.16,2.65,-1.52,3.05
8.566367149353027,-1.91,2.18,-1.88,3.45
8.595654964447021,-2.68,1.35,-1.04,3.17
8.59715223312378,-1.39,0.43,-0.2,1.46
8.598148107528687,0.7,-0.37,-0.24,0.82
8.617599964141846,1.74,-0.7,-0.04,1.87
8.618665218353271,1.42,-0.72,0.25,1.61
8.634145259857178,0.68,-0.63,0.09,0.93
8.635656118392944,0.4,-0.4,-0.34,0.66
8.650930166244507,0.34,-0.02,0.05,0.34
8.652409076690674,0.22,0.12,0.87,0.9
8.666344165802002,0.3,-0.25,0.72,0.81
8.695611000061035,0.35,-0.4,0.52,0.74
8.697144031524658,0.15,-0.19,0.22,0.32
8.698150157928467,-0.08,0.1,-0.2,0.23
8.717820167541504,-0.22,0.22,-0.61,0.68
8.718876123428345,-0.33,0.31,-0.53,0.69
8.733726024627686,-0.4,0.26,-0.37,0.6
8.734760284423828,-0.41,0.2,0.03,0.45
8.751029968261719,-0.51,0.16,0.38,0.65
8.752483129501343,-0.45,0.09,0.41,0.61
8.766359090805054,-0.31,0.04,0.51,0.59
8.795155048370361,-0.34,0.19,0.6,0.71
8.796565055847168,-0.54,0.1,0.18,0.57
8.797574043273926,-0.85,0.18,-0.3,0.91
8.817959070205688,-1.18,0.43,-0.65,1.41
8.818989276885986,-1.74,0.55,-1.0,2.08
8.833884239196777,-2.32,0.76,-1.17,2.7
8.834948062896729,-2.65,1.04,-0.95,3.0
8.850982189178467,-2.56,1.18,-0.55,2.87
8.852468013763428,-2.07,1.11,-0.23,2.36
8.866556167602539,-1.63,0.87,-0.18,1.85
8.896603107452393,-1.48,0.64,-0.3,1.64
8.897947072982788,-1.42,0.63,-0.35,1.59
8.898957252502441,-1.33,0.85,-0.3,1.6
8.917935132980347,-1.23,1.02,-0.43,1.65
8.918966293334961,-1.2,1.18,-0.53,1.76
8.933884143829346,-1.25,1.45,-0.35,1.94
8.934904098510742,-1.53,2.09,0.21,2.59
8.950988292694092,-1.77,2.74,0.09,3.26
8.952439069747925,-1.79,3.04,-0.21,3.53
8.966670989990234,-2.03,3.33,-0.18,3.9
8.99617314338684,-2.47,3.82,0.06,4.54
8.997547149658203,-3.08,4.39,0.15,5.36
8.998557090759277,-3.96,5.61,0.61,6.89
9.018046140670776,-4.96,7.49,0.82,9.02
9.01908016204834,-6.07,9.34,0.31,11.14
9.033467292785645,-7.42,11.11,-0.29,13.36
9.034531116485596,-9.03,12.54,-0.64,15.46
9.048012256622314,-10.83,13.44,-0.75,17.27
9.049533128738403,-12.19,13.91,-1.34,18.54
9.064198970794678,-12.77,13.34,-2.47,18.63
9.092672109603882,-13.19,11.77,-3.54,18.02
9.093940258026123,-13.38,11.67,-2.93,17.99
9.094978094100952,-10.47,14.22,-0.7,17.67
9.097431182861328,-4.31,15.4,-2.14,16.13
9.099662065505981,0.88,9.69,-7.01,11.99
9.110007286071777,3.48,4.71,-5.46,8.0
9.119944095611572,2.2,0.02,-3.37,4.02
9.12971019744873,0.84,-1.36,-0.92,1.84
9.139830112457275,3.78,0.0,2.9,4.76
9.149479150772095,4.78,-3.8,4.88,7.81
9.159502983093262,1.01,-5.49,-0.83,5.64
9.190546035766602,-3.27,-3.26,0.11,4.61
9.191648006439209,-6.5,-1.77,1.53,6.9
9.192458152770996,-8.84,-2.78,0.51,9.28
9.19889497756958,-9.74,-4.42,-0.44,10.7
9.209074974060059,-9.49,-5.78,-0.37,11.11
9.218868255615234,-8.15,-6.4,1.23,10.43
9.229002952575684,-5.89,-6.87,2.42,9.36
9.239045143127441,-3.97,-7.1,2.43,8.48
9.248847961425781,-3.23,-6.56,2.1,7.6
9.258947134017944,-3.58,-6.08,1.78,7.27
9.28937315940857,-4.4,-5.76,1.67,7.43
9.290510177612305,-4.97,-5.54,1.46,7.58
9.291306018829346,-5.0,-5.51,1.13,7.52
9.301372051239014,-4.79,-5.41,0.86,7.27
9.308377265930176,-4.58,-5.21,0.88,6.99
9.318566083908081,-4.5,-5.34,0.93,7.04
9.328060150146484,-4.38,-5.57,1.13,7.17
9.33814001083374,-4.09,-5.81,1.34,7.23
9.348324060440063,-3.72,-6.06,1.39,7.24
9.358346939086914,-3.2,-6.3,1.17,7.16
9.391571044921875,-2.61,-6.05,1.0,6.66
9.392937183380127,-1.92,-5.33,1.29,5.81
9.393901109695435,-1.18,-4.46,1.28,4.78
9.397308111190796,-0.05,-3.42,0.71,3.49
9.417626142501831,1.72,-2.26,-0.21,2.84
9.418680191040039,4.01,-0.8,-1.18,4.25
9.434130191802979,6.66,1.21,-1.63,6.96
9.437371253967285,8.95,3.37,-1.52,9.68
9.449457168579102,10.23,5.23,-0.74,11.51
9.457594156265259,10.63,6.1,-0.04,12.25
9.495191097259521,10.84,5.87,-0.21,12.32
9.49629807472229,11.27,5.1,-0.98,12.4
9.497300148010254,12.1,5.09,-1.78,13.24
9.518489122390747,13.31,5.68,-2.15,14.63
9.519549131393433,14.63,5.66,-2.51,15.88
9.534317970275879,15.41,5.3,-2.64,16.5
9.53535795211792,14.59,9.51,-1.57,17.48
9.55092716217041,14.21,7.39,-3.31,16.35
9.55197525024414,10.8,0.18,-7.71,13.27
9.567010164260864,0.93,0.07,-4.92,5.0
9.598892211914062,-5.31,12.32,-1.64,13.51
9.600098133087158,-4.52,24.43,2.99,25.02
9.600979089736938,-6.5,16.34,-0.1,17.58
9.618343114852905,-5.32,1.36,-3.73,6.63
9.619400024414062,0.77,-1.72,0.1,1.88
9.634105205535889,4.82,-5.12,1.94,7.29
9.635136127471924,8.03,-7.52,1.37,11.08
9.650788068771362,10.71,-6.1,2.2,12.52
9.65183711051941,10.86,-2.74,2.84,11.55
9.667097091674805,7.08,-0.82,0.7,7.16
9.697416067123413,2.67,-0.12,-0.68,2.75
9.698634147644043,-0.24,0.97,-1.75,2.01
9.699454069137573,-2.09,1.67,-2.05,3.37
9.718194961547852,-2.6,1.67,-1.15,3.29
9.719174146652222,-1.18,0.57,0.25,1.33
9.73399019241333,0.77,-0.8,0.76,1.34
9.735044002532959,1.63,-1.41,0.73,2.27
9.750799179077148,1.14,-1.09,0.04,1.57
9.751830101013184,0.3,-0.09,-0.83,0.88
9.767001152038574,-0.22,0.73,-1.27,1.48
9.795493125915527,-0.39,0.76,-1.31,1.56
9.796634197235107,-0.24,0.43,-0.95,1.07
9.797430038452148,0.3,0.1,-0.49,0.58
9.818075180053711,0.82,-0.15,-0.16,0.84
9.819129943847656,0.84,-0.22,0.09,0.87
9.83427619934082,0.55,-0.17,0.25,0.62
9.835309028625488,0.17,-0.04,0.27,0.32
9.85118293762207,-0.08,0.09,0.08,0.14
9.8522629737854,-0.2,0.14,-0.12,0.27
9.866902112960815,-0.2,0.21,-0.14,0.32
9.897861957550049,-0.13,0.21,-0.09,0.26
9.899047136306763,-0.03,0.1,-0.08,0.13
9.899856090545654,0.06,0.03,-0.06,0.09
9.918638229370117,0.11,0.02,0.1,0.15
9.919652938842773,0.0,0.03,0.44,0.44
9.93436312675476,-0.25,0.11,0.73,0.77
9.935407161712646,-0.45,0.12,0.71,0.84
9.95135498046875,-0.5,0.16,0.36,0.63
9.952386140823364,-0.42,0.28,-0.03,0.5
9.966974258422852,-0.48,0.37,-0.21,0.64
9.968449115753174,-0.75,0.35,-0.34,0.89
10.01326322555542,-1.03,0.35,-0.46,1.18
10.014361143112183,-1.17,0.49,-0.46,1.34
10.015326023101807,-1.33,0.65,-0.32,1.51
10.034716129302979,-1.47,0.77,-0.24,1.67
10.035737037658691,-1.62,0.84,-0.07,1.82
10.051171064376831,-1.84,0.86,0.03,2.03
10.052267074584961,-2.13,0.81,0.11,2.28
10.06833028793335,-2.36,0.93,0.23,2.54
10.069745063781738,-2.43,1.17,0.14,2.7
10.083739280700684,-2.27,1.49,-0.3,2.73
10.114455223083496,-2.02,1.98,-0.84,2.95
10.11571717262268,-1.79,2.32,-0.82,3.04
10.11673617362976,-1.65,2.43,-0.74,3.02
10.135126113891602,-1.67,2.82,-0.32,3.29
10.136189937591553,-1.89,3.24,-0.23,3.75
10.151092052459717,-2.32,3.79,0.19,4.44
10.15211820602417,-2.92,4.46,0.38,5.34
10.168357133865356,-3.64,5.54,0.61,6.65
10.169830083847046,-4.4,6.96,0.59,8.25
10.183868169784546,-5.03,8.92,0.14,10.24
10.212478160858154,-5.93,9.96,-1.48,11.68
10.213725090026855,-7.36,11.0,-2.01,13.38
10.214540958404541,-9.28,12.15,-1.36,15.34
10.232845067977905,-11.12,12.85,-0.81,17.01
10.233934164047241,-12.29,13.32,-0.86,18.14
10.251184940338135,-13.11,12.53,-1.63,18.2
10.252165079116821,-13.75,11.46,-2.39,18.05
10.268166065216064,-12.73,12.43,-1.08,17.82
10.269182205200195,-7.81,13.49,-0.66,15.6
10.28393006324768,-1.53,10.91,-4.95,12.07
10.312278270721436,2.66,5.62,-6.45,8.95
10.313383102416992,3.67,2.0,-3.43,5.4
10.314188957214355,1.02,-2.0,-0.68,2.34
10.335423946380615,1.69,-1.39,1.92,2.91
10.336452960968018,5.36,-2.31,5.67,8.13
10.35107707977295,5.37,-5.33,2.86,8.08
10.352118968963623,0.85,-3.57,-2.03,4.19
10.368000984191895,-3.43,-0.2,0.05,3.43
10.369009971618652,-6.84,-0.3,-0.09,6.84
10.384207248687744,-9.27,-1.54,-1.06,9.45
10.413968086242676,-10.59,-2.9,-1.18,11.04
10.415218114852905,-10.65,-4.54,-0.86,11.6
10.416041135787964,-8.72,-5.42,0.47,10.27
10.434927940368652,-5.74,-5.69,1.66,8.25
10.435985088348389,-3.51,-5.88,1.7,7.05
10.451134204864502,-2.79,-6.0,1.42,6.76
10.452155113220215,-3.38,-6.05,1.25,7.04
10.467913150787354,-4.53,-6.05,1.18,7.64
10.46907114982605,-5.38,-5.91,0.98,8.05
10.48380422592163,-5.55,-5.71,0.61,7.98
10.514673233032227,-5.41,-5.55,0.28,7.75
10.51596713066101,-5.15,-5.51,0.22,7.54
10.51697301864624,-4.86,-5.64,0.51,7.46
10.535096168518066,-4.58,-6.06,0.8,7.63
10.536153078079224,-4.27,-6.44,0.95,7.78
10.551241159439087,-3.77,-6.43,0.86,7.5
10.552224159240723,-3.02,-6.12,0.65,6.85
10.568943977355957,-2.28,-5.59,0.51,6.05
10.570448160171509,-1.65,-4.73,0.26,5.01
10.584200143814087,-0.63,-3.99,-0.16,4.04
10.614837169647217,1.33,-3.4,-0.85,3.74
10.616167068481445,3.7,-2.68,-1.69,4.87
10.61720895767212,5.79,-1.64,-2.01,6.34
10.635391235351562,7.43,-0.06,-1.76,7.63
10.63644027709961,8.66,1.55,-1.31,8.89
10.651252269744873,9.57,2.56,-1.03,9.95
10.652294158935547,10.4,3.47,-0.86,10.99
10.66831922531128,11.22,4.06,-1.08,11.98
10.66934609413147,11.97,4.16,-1.33,12.74
10.684178113937378,12.73,4.24,-1.48,13.49
10.715012073516846,13.42,4.19,-1.78,14.17
10.716316223144531,13.96,4.19,-2.26,14.74
10.717170238494873,14.5,4.05,-2.37,15.24
10.735417127609253,14.49,3.54,-2.22,15.08
10.736428260803223,11.22,8.02,-0.5,13.8
10.751398086547852,7.11,8.42,-1.0,11.06
10.752425193786621,0.17,2.67,-2.48,3.64
10.768064022064209,-6.65,10.33,-1.13,12.33
10.769132137298584,-4.16,24.24,4.21,24.95
10.784025192260742,-3.77,19.34,3.48,20.0
10.785483121871948,-5.09,2.45,-3.21,6.49
10.829694271087646,-0.78,-2.09,-2.39,3.26
10.830878257751465,5.9,-0.68,1.42,6.1
10.831837177276611,8.22,-4.56,2.99,9.86
10.852270126342773,9.3,-5.75,0.93,10.97
10.853331089019775,9.62,-3.11,1.06,10.16
10.867924213409424,7.11,-0.86,0.34,7.16
10.868961095809937,3.21,-0.45,-0.86,3.35
10.884981155395508,0.52,0.7,-1.31,1.57
10.886003971099854,-1.15,1.85,-1.7,2.76
10.900582075119019,-1.77,1.8,-0.86,2.66
10.92980408668518,-0.61,0.5,0.51,0.93
10.930983066558838,1.24,-0.97,1.06,1.89
10.931770086288452,2.01,-1.56,1.1,2.77
10.951903104782104,1.45,-1.28,0.45,1.98
10.952934265136719,0.55,-0.38,-0.3,0.73
10.968201160430908,0.09,0.34,-0.82,0.89
10.969223976135254,0.1,0.5,-0.82,0.96
10.98506498336792,0.38,0.23,-0.26,0.51
10.986104965209961,0.58,-0.06,0.16,0.6
11.000456094741821,0.6,-0.24,0.18,0.67
11.029083251953125,0.44,-0.21,-0.2,0.52
11.0302152633667,0.17,0.05,-0.31,0.35
11.031033039093018,-0.14,0.19,-0.05,0.24
11.052361965179443,-0.29,0.12,0.31,0.44
11.053362131118774,-0.39,-0.03,0.47,0.61
11.068365097045898,-0.49,-0.04,0.1,0.5
11.069414138793945,-0.37,0.27,-0.41,0.61
11.085170269012451,-0.1,0.46,-0.62,0.77
11.086205005645752,-0.02,0.29,-0.46,0.54
11.100746154785156,-0.05,0.11,-0.01,0.12
11.128579139709473,-0.16,0.05,0.37,0.4
11.129812240600586,-0.35,0.1,0.51,0.62
11.130564212799072,-0.5,0.1,0.35,0.61
11.152250289916992,-0.52,0.23,0.06,0.57
11.153290271759033,-0.69,0.37,-0.24,0.81
11.168187141418457,-1.16,0.47,-0.36,1.3
11.169174194335938,-1.63,0.47,-0.61,1.8
11.18529224395752,-1.91,0.56,-0.81,2.14
11.186296939849854,-1.87,0.82,-0.75,2.17
11.200828075408936,-1.64,0.88,-0.69,1.98
11.228533267974854,-1.46,0.75,-0.45,1.7
11.229705095291138,-1.48,0.64,-0.11,1.61
11.230471134185791,-1.54,0.62,0.12,1.66
11.232611179351807,-1.56,0.71,0.11,1.71
11.233855247497559,-1.57,0.92,0.08,1.82
11.235028266906738,-1.55,1.18,0.12,1.95
11.2361741065979,-1.48,1.48,0.12,2.09
11.24389123916626,-1.32,1.99,0.12,2.39
11.253947257995605,-1.02,1.91,-0.24,2.17
11.263959169387817,-0.96,2.2,0.05,2.4
11.296805143356323,-1.41,2.74,0.04,3.08
11.297816276550293,-1.74,3.27,-0.14,3.7
11.298569202423096,-2.36,3.73,-0.24,4.42
11.317263126373291,-3.26,4.68,0.24,5.7
11.318088054656982,-4.36,5.8,0.38,7.26
11.334880113601685,-5.25,7.07,0.68,8.83
11.335705280303955,-6.14,9.15,1.21,11.08
11.351928234100342,-7.38,11.03,0.66,13.28
11.353000164031982,-8.61,11.8,-0.35,14.61
11.367011070251465,-10.17,12.77,-0.17,16.32
11.39738416671753,-11.72,13.41,0.75,17.82
11.398616075515747,-12.95,12.84,0.61,18.24
11.39945125579834,-13.83,11.69,-0.64,18.12
11.419031143188477,-13.7,12.11,-0.69,18.29
11.419885158538818,-9.84,14.45,-1.19,17.52
11.432123184204102,-2.86,14.91,-5.31,16.08
11.433184146881104,3.27,12.12,-7.71,14.73
11.451872110366821,5.49,7.16,-4.74,10.19
11.452916145324707,2.44,1.15,-2.8,3.88
11.467267036437988,-0.59,-0.81,-0.77,1.26
11.497795104980469,2.46,0.5,2.09,3.26
11.498926162719727,4.03,-3.61,4.25,6.88
11.499755144119263,0.08,-4.57,-1.08,4.69
11.518933057785034,-4.3,-1.23,0.11,4.47
11.519956111907959,-7.4,-0.13,1.59,7.57
11.534914016723633,-9.94,-1.75,0.3,10.09
11.535970211029053,-11.72,-3.06,-0.34,12.11
11.551872253417969,-12.52,-4.16,-0.26,13.19
11.552886009216309,-12.37,-4.98,1.03,13.37
11.567817211151123,-10.34,-5.17,2.55,11.83
11.571761131286621,-7.44,-5.43,3.4,9.81
11.612550258636475,-5.33,-6.14,2.9,8.63
11.613523006439209,-4.29,-6.35,2.34,8.01
11.614315032958984,-4.65,-6.1,1.97,7.91
11.636030197143555,-5.56,-5.81,1.67,8.21
11.637063026428223,-5.84,-5.59,0.99,8.14
11.651522159576416,-5.32,-5.14,0.16,7.39
11.652588129043579,-4.4,-4.79,-0.55,6.52
11.66877794265747,-3.51,-4.87,-0.87,6.06
11.669846057891846,-2.69,-5.32,-0.94,6.03
11.68462610244751,-2.0,-5.72,-0.44,6.07
11.714182138442993,-1.53,-5.97,0.03,6.16
11.715330123901367,-0.97,-5.59,0.56,5.7
11.716133117675781,-0.23,-4.73,0.6,4.77
11.735607147216797,0.8,-4.0,0.06,4.07
11.736624240875244,2.18,-3.06,-0.51,3.79
11.75160813331604,3.76,-1.66,-0.87,4.2
11.752649068832397,5.57,0.16,-0.37,5.58
11.768617153167725,7.52,2.14,0.44,7.83
11.769626140594482,9.23,3.47,0.84,9.89
11.78449821472168,10.4,4.1,0.72,11.2
11.813004970550537,11.37,4.63,-0.11,12.27
11.814154148101807,12.67,5.55,-1.38,13.9
11.814954280853271,14.53,6.51,-2.38,16.09
11.835816144943237,16.68,6.82,-3.47,18.35
11.836804151535034,18.6,6.17,-4.18,20.03
11.850768089294434,19.91,4.96,-3.37,20.79
11.85181212425232,20.08,2.96,-2.4,20.43
11.86851716041565,18.6,0.16,-0.82,18.61
11.869534969329834,14.58,-0.35,0.1,14.58
11.884607076644897,8.53,0.57,0.3,8.55
11.91333818435669,-0.76,-4.52,-1.4,4.79
11.914377212524414,-9.73,-1.41,-5.01,11.03
11.91518497467041,-11.38,15.79,-5.97,20.35
11.932721138000488,-8.99,31.74,3.85,33.21
11.933796167373657,-9.97,27.55,2.25,29.38
11.95189094543457,-5.39,9.26,-1.82,10.86
11.952932119369507,1.3,-0.14,1.31,1.85
11.968711137771606,3.22,-7.45,0.58,8.13
11.969744205474854,6.11,-10.01,1.81,11.86
11.984708070755005,8.83,-9.66,2.57,13.33
12.012645244598389,10.52,-7.33,1.83,12.95
12.013827085494995,9.97,-3.12,0.49,10.45
12.014628171920776,6.45,0.85,-1.38,6.65
12.035950183868408,2.05,2.18,-2.88,4.15
12.036986112594604,-1.49,2.47,-3.36,4.42
12.05190896987915,-3.33,2.66,-1.84,4.64
12.05293607711792,-2.93,1.79,0.08,3.43
12.068541049957275,-0.58,-0.06,0.53,0.78
12.069566249847412,1.68,-1.02,0.02,1.96
12.084901094436646,2.52,-1.15,-0.14,2.77
12.114330291748047,1.71,-0.94,-0.08,1.95
12.11542010307312,0.58,-0.24,-0.02,0.62
12.116228103637695,0.26,0.23,-0.04,0.34
12.135848999023438,0.49,0.27,-0.01,0.55
12.136894226074219,0.74,-0.02,-0.23,0.77
12.151977062225342,0.72,-0.14,-0.36,0.81
12.1530122756958,0.33,0.09,-0.05,0.34
12.168560981750488,-0.35,0.38,0.48,0.7
12.169579982757568,-0.95,0.39,0.63,1.2
12.184790134429932,-1.25,0.24,0.62,1.41
12.21346116065979,-1.1,0.22,0.25,1.14
12.214577198028564,-0.56,0.21,-0.28,0.66
12.215407133102417,-0.11,0.04,-0.71,0.71
12.23585319519043,-0.11,0.01,-0.53,0.54
12.236828088760376,-0.34,0.22,0.08,0.41
12.251842975616455,-0.47,0.31,0.49,0.74
12.252876281738281,-0.3,0.24,0.62,0.72
12.269586086273193,-0.05,0.2,0.5,0.54
12.270601272583008,-0.04,0.21,0.26,0.33
12.284955978393555,-0.37,0.37,-0.01,0.52
12.31578516960144,-0.8,0.48,-0.18,0.95
12.316882133483887,-0.96,0.49,-0.27,1.11
12.317703247070312,-0.93,0.38,-0.33,1.05
12.336449146270752,-0.87,0.39,-0.34,1.01
12.337477207183838,-0.96,0.55,-0.24,1.13
12.352396011352539,-1.24,0.91,-0.02,1.53
12.353438138961792,-1.68,1.24,0.19,2.09
12.368877172470093,-2.44,1.67,0.65,3.02
12.369925022125244,-3.04,1.85,0.67,3.62
12.384806156158447,-3.22,1.59,0.13,3.59
12.386277198791504,-3.12,1.69,-0.65,3.6
12.431312084197998,-2.62,2.09,-1.49,3.66
12.432551145553589,-2.06,2.76,-1.62,3.8
12.433557987213135,-1.76,3.16,-1.43,3.88
12.45259714126587,-1.9,3.25,-0.83,3.85
12.453654289245605,-2.44,3.39,-0.02,4.17
12.468709945678711,-3.18,3.72,0.47,4.91
12.469726085662842,-3.92,3.99,0.41,5.6
12.485963106155396,-4.6,4.73,0.7,6.63
12.487413167953491,-5.33,6.27,1.17,8.31
12.501319169998169,-6.47,8.23,1.29,10.54
12.531813144683838,-8.12,10.78,1.04,13.53
12.533191204071045,-9.96,12.85,-0.31,16.26
12.534203052520752,-11.52,13.31,-2.09,17.72
12.55003023147583,-12.81,13.24,-2.32,18.56
12.551082134246826,-14.42,13.38,-1.83,19.75
12.567434072494507,-15.59,14.76,-0.82,21.48
12.56845211982727,-13.66,17.74,1.22,22.42
12.585590124130249,-7.5,17.54,-0.92,19.09
12.586617946624756,-1.67,11.33,-8.59,14.31
12.60108995437622,1.44,5.48,-10.69,12.09
12.62888216972351,1.03,2.12,-6.14,6.57
12.630098104476929,-1.2,-1.72,-1.95,2.86
12.630882263183594,2.63,-0.44,-0.32,2.68
12.633028984069824,7.64,-1.23,4.09,8.75
12.634292125701904,7.56,-6.17,4.23,10.63
12.635436058044434,2.3,-7.18,-1.86,7.76
12.643115997314453,-3.87,-5.34,-0.51,6.61
12.653634071350098,-7.77,-3.54,2.19,8.81
12.663433074951172,-10.02,-3.25,1.26,10.6
12.67360806465149,-11.52,-4.05,-0.21,12.21
12.701779127120972,-12.22,-5.37,-1.61,13.44
12.702956199645996,-12.12,-5.76,-1.77,13.53
12.703770160675049,-10.17,-4.9,-0.56,11.3
12.718088150024414,-7.28,-4.93,0.45,8.8
12.722766160964966,-4.94,-5.76,0.81,7.63
12.734792232513428,-3.36,-6.45,0.93,7.33
12.74259614944458,-2.63,-6.87,1.0,7.42
12.752760171890259,-2.9,-6.71,0.56,7.33
12.762551069259644,-3.4,-6.06,-0.24,6.95
12.772398948669434,-3.42,-5.14,-1.07,6.26
12.806718111038208,-3.03,-4.48,-1.8,5.7
12.807813167572021,-2.43,-4.23,-1.99,5.26
12.80863618850708,-1.73,-4.45,-1.59,5.03
12.819658279418945,-0.95,-5.19,-1.43,5.46
12.822404146194458,-0.1,-5.69,-1.42,5.86
12.83580493927002,0.75,-5.4,-1.18,5.57
12.842127084732056,1.56,-4.56,-0.94,4.91
12.852415084838867,2.54,-3.76,-1.39,4.74
12.862078189849854,3.94,-3.18,-2.41,5.6
12.871987104415894,5.78,-2.33,-3.37,7.08
12.906915187835693,7.94,-1.01,-3.53,8.74
12.908060073852539,10.03,0.5,-2.94,10.46
12.908897161483765,11.65,1.77,-2.27,12.0
12.919974088668823,12.76,2.69,-1.46,13.12
12.921157121658325,13.73,3.3,-0.63,14.13
12.935723066329956,14.24,3.37,0.02,14.63
12.941211223602295,13.56,3.35,-0.28,13.97
12.95242714881897,12.32,4.02,0.1,12.95
12.961169242858887,12.92,5.04,0.65,13.88
12.971140146255493,14.75,4.62,0.41,15.46
13.009116172790527,15.77,3.87,1.35,16.29
13.010144233703613,15.09,2.78,2.87,15.61
13.010999202728271,12.42,1.1,3.78,13.02
13.015666007995605,8.4,2.11,3.0,9.16
13.020692110061646,0.47,-0.14,1.7,1.76
13.035767078399658,-7.83,-5.37,-3.12,9.99
13.040503978729248,-13.57,2.38,-8.83,16.36
13.052459239959717,-11.91,22.52,-2.74,25.62
13.060594081878662,-11.38,35.12,8.98,37.99
13.070554256439209,-8.61,26.26,4.35,27.97
13.106954097747803,-0.6,8.52,-1.09,8.61
13.108128070831299,1.75,-4.21,-3.0,5.45
13.108950138092041,4.28,-8.39,-0.93,9.46
13.120073080062866,7.27,-9.2,1.87,11.87
13.121135234832764,9.23,-9.02,1.66,13.01
13.136052131652832,10.37,-7.66,0.96,12.92
13.139838218688965,9.62,-4.1,0.65,10.47
13.150306224822998,6.09,0.42,-0.04,6.1
13.1596040725708,2.05,2.41,-1.1,3.34
13.16987419128418,-0.94,3.02,-1.91,3.69
13.179693222045898,-2.78,2.58,-2.08,4.32
13.212406158447266,-3.17,1.63,-0.82,3.65
13.213521957397461,-1.63,0.41,0.53,1.76
13.214495182037354,-0.06,-0.65,0.68,0.94
13.219155073165894,0.77,-0.81,0.5,1.22
13.228969097137451,0.9,-0.67,-0.11,1.12
13.239212989807129,0.45,-0.59,-0.93,1.18
13.249174118041992,-0.23,-0.32,-1.37,1.42
13.259148120880127,-0.31,0.17,-1.34,1.38
13.268813133239746,0.43,0.31,-0.51,0.73
13.278643131256104,0.93,0.18,0.76,1.21
13.3074631690979,0.92,-0.02,1.54,1.79
13.30864405632019,0.5,-0.32,1.43,1.54
13.309895038604736,0.0,-0.24,0.65,0.69
13.31835126876831,-0.31,0.15,-0.13,0.36
13.32866096496582,-0.5,0.41,-0.67,0.93
13.338426113128662,-0.66,0.58,-0.99,1.32
13.348353147506714,-0.86,0.61,-0.7,1.26
13.358630180358887,-0.88,0.52,-0.28,1.05
13.368447065353394,-0.56,0.35,0.02,0.66
13.378376007080078,-0.23,0.23,0.39,0.5
13.411574125289917,-0.3,0.14,0.64,0.72
13.41279411315918,-0.77,0.04,0.47,0.9
13.413994073867798,-1.33,0.11,-0.04,1.33
13.41771411895752,-1.61,0.34,-0.61,1.75
13.427929162979126,-1.6,0.49,-0.83,1.86
13.437812089920044,-1.45,0.58,-0.77,1.74
13.447783946990967,-1.22,0.56,-0.57,1.45
13.457705020904541,-0.93,0.55,-0.4,1.15
13.467640161514282,-0.73,0.65,-0.27,1.01
13.477679252624512,-0.73,0.67,-0.15,1.0
13.509343147277832,-0.84,0.63,-0.02,1.05
13.510701179504395,-0.97,0.54,0.07,1.11
13.511661052703857,-1.02,0.61,0.43,1.26
13.516777038574219,-1.04,1.07,0.63,1.61
13.52707314491272,-0.93,1.38,-0.02,1.66
13.536884069442749,-1.08,1.58,-0.34,1.94
13.546932220458984,-1.48,2.39,0.0,2.81
13.556678056716919,-2.0,2.57,-0.33,3.27
13.566702127456665,-2.37,2.95,-0.52,3.81
13.577044010162354,-2.65,3.14,-0.91,4.2
13.615024089813232,-3.04,3.57,-0.87,4.76
13.61639928817749,-3.67,4.64,-0.69,5.95
13.617422103881836,-4.69,5.96,-0.74,7.62
13.636682987213135,-5.84,8.28,-0.29,10.13
13.637740135192871,-7.19,10.34,-0.8,12.61
13.651226043701172,-8.59,11.0,-2.0,14.09
13.652311086654663,-9.46,11.7,-1.4,15.11
13.666561126708984,-10.26,12.25,-0.9,16.0
13.667598247528076,-11.29,12.27,-1.43,16.73
13.683245182037354,-12.18,11.23,-2.57,16.76
13.713008165359497,-13.14,9.89,-4.54,17.06
13.71443223953247,-12.75,11.19,-3.63,17.34
13.715503215789795,-8.51,15.84,-1.09,18.01
13.717432975769043,-2.61,17.0,-3.91,17.63
13.725412130355835,1.37,11.04,-7.1,13.19
13.735450267791748,2.23,4.21,-6.43,8.0
13.745398998260498,-0.99,-1.0,-4.49,4.7
13.75542402267456,-0.51,1.18,-1.14,1.71
13.765526056289673,2.69,1.23,4.33,5.24
13.775163173675537,1.96,-3.24,3.66,5.26
13.81155514717102,-1.79,-4.69,-1.29,5.18
13.812777042388916,-5.25,-2.74,0.79,5.97
13.813560009002686,-8.43,-1.69,0.86,8.64
13.816055059432983,-10.51,-2.12,0.2,10.72
13.824724197387695,-11.19,-3.12,-0.33,11.62
13.835055112838745,-10.48,-4.54,-0.15,11.42
13.844772100448608,-8.23,-5.27,1.23,9.84
13.854801177978516,-5.87,-5.92,2.22,8.62
13.86464810371399,-4.48,-6.71,2.19,8.36
13.874420166015625,-3.99,-7.09,1.81,8.33
13.912289142608643,-4.2,-6.89,1.32,8.17
13.9134521484375,-4.82,-6.46,0.92,8.11
13.914236068725586,-5.26,-6.11,0.48,8.07
13.91648006439209,-5.23,-5.85,-0.09,7.84
13.924056053161621,-4.9,-5.75,-0.54,7.57
13.9341139793396,-4.5,-5.84,-0.73,7.4
13.944022178649902,-4.08,-6.15,-0.63,7.4
13.954069137573242,-3.59,-6.58,-0.34,7.5
13.9638352394104,-2.97,-7.12,-0.36,7.72
13.97399616241455,-2.57,-7.36,-0.27,7.8
13.984082221984863,-2.49,-7.02,0.13,7.44
14.016025066375732,-2.62,-6.07,0.85,6.66
14.017223119735718,-2.52,-5.05,0.86,5.7
14.018238067626953,-1.31,-4.44,0.48,4.65
14.036736965179443,0.34,-3.89,0.12,3.9
14.03780221939087,1.6,-2.63,0.41,3.1
14.052947998046875,2.76,-0.75,1.56,3.25
14.053995132446289,4.2,0.87,2.45,4.93
14.069950103759766,5.84,2.02,2.52,6.67
14.073276042938232,7.53,3.5,1.92,8.52
14.084051132202148,9.24,5.54,1.01,10.82
14.114943981170654,10.79,7.49,-0.61,13.14
14.116327285766602,12.19,9.2,-2.09,15.41
14.117346286773682,13.59,10.47,-3.46,17.5
14.136734008789062,15.05,10.87,-3.78,18.94
14.137804985046387,16.6,10.31,-3.75,19.89
14.152879238128662,17.73,7.94,-3.59,19.75
14.153937101364136,17.94,6.46,-2.89,19.28
14.169880151748657,16.7,6.89,-1.7,18.14
14.172315120697021,13.67,3.25,-1.62,14.14
14.185456275939941,2.98,-2.59,-1.31,4.15
14.215764999389648,-8.09,3.25,0.44,8.72
14.217173099517822,-7.91,20.54,6.34,22.9
14.218183994293213,-6.36,27.75,12.18,30.96
14.238119125366211,-7.23,13.88,1.79,15.75
14.239143133163452,-1.37,2.92,-3.59,4.82
14.25312328338623,1.9,-4.91,-3.75,6.46
14.254155158996582,5.54,-6.96,-2.02,9.12
14.26962423324585,8.72,-6.67,0.56,10.99
14.271526098251343,10.64,-5.4,2.49,12.18
14.285754203796387,10.0,-3.39,1.77,10.7
14.315673112869263,6.26,-1.63,0.02,6.46
14.31714916229248,2.36,-0.26,-1.54,2.82
14.318166255950928,-0.42,1.39,-2.91,3.25
14.336956024169922,-1.95,2.82,-1.73,3.84
14.337988138198853,-2.05,2.34,0.76,3.2
14.352046966552734,-0.51,0.12,1.94,2.0
14.353062152862549,0.81,-1.64,1.41,2.3
14.370069026947021,1.11,-1.61,0.51,2.02
14.371538162231445,0.8,-0.41,-0.54,1.04
14.385688066482544,0.36,0.51,-0.73,0.96
14.420765161514282,0.45,0.62,-0.32,0.83
14.422091007232666,0.95,-0.13,-0.02,0.95
14.423072099685669,1.23,-0.67,-0.13,1.4
14.436897277832031,1.16,-0.51,-0.68,1.43
14.437970161437988,0.74,0.01,-0.78,1.07
14.452928066253662,0.26,0.37,-0.16,0.47
14.454010009765625,-0.02,0.2,0.68,0.7
14.469572067260742,-0.11,0.01,1.28,1.28
14.47062611579895,-0.01,-0.04,0.94,0.94
14.485626220703125,0.0,-0.02,-0.08,0.08
14.518537044525146,-0.13,0.27,-0.62,0.68
14.519967079162598,-0.43,0.5,-0.58,0.87
14.520992279052734,-0.66,0.57,-0.27,0.91
14.537837982177734,-0.66,0.47,0.05,0.81
14.538828134536743,-0.59,0.32,0.28,0.72
14.5526762008667,-0.58,0.27,0.36,0.73
14.55370306968689,-0.7,0.28,0.25,0.79
14.570186138153076,-0.97,0.27,0.02,1.0
14.571639060974121,-1.32,0.3,-0.32,1.39
14.585865020751953,-1.54,0.46,-0.55,1.69
14.615971088409424,-1.58,0.61,-0.72,1.84
14.617249965667725,-1.47,0.71,-0.74,1.79
14.618091106414795,-1.43,0.69,-0.58,1.69
14.636973142623901,-1.73,0.56,-0.37,1.85
14.638062000274658,-2.17,0.58,-0.1,2.24
14.653277158737183,-2.44,0.72,0.11,2.54
14.654324054718018,-2.45,1.02,0.07,2.65
14.669744968414307,-1.99,1.45,-0.31,2.48
14.670782089233398,-1.01,1.83,-0.71,2.2
14.686272144317627,-0.44,2.29,-0.54,2.39
14.714843273162842,-0.71,2.76,-0.04,2.85
14.71609115600586,-1.63,3.06,0.5,3.5
14.716992139816284,-2.65,3.36,0.6,4.32
14.73725700378418,-3.34,3.71,0.23,4.99
14.738326072692871,-3.7,4.18,-0.31,5.59
14.753078937530518,-3.97,4.82,-0.78,6.29
14.754137992858887,-4.47,5.78,-0.91,7.36
14.769911289215088,-5.24,7.16,-0.55,8.88
14.770930290222168,-6.44,9.12,0.13,11.16
14.78624415397644,-8.49,10.85,-0.1,13.77
14.787739276885986,-10.71,11.93,-1.05,16.06
14.831269264221191,-12.34,12.34,-1.47,17.51
14.83243703842163,-13.15,12.08,-1.95,17.96
14.833460092544556,-13.6,11.01,-3.05,17.76
14.854032039642334,-13.96,11.04,-3.42,18.12
14.855100154876709,-11.86,14.69,-1.28,18.92
14.870090961456299,-6.37,17.42,-2.09,18.66
14.871140003204346,-0.87,13.93,-7.15,15.68
14.887187957763672,2.37,8.56,-7.67,11.73
14.888655185699463,1.42,3.36,-5.01,6.19
14.90238618850708,-1.65,-1.26,-2.59,3.31
14.931046962738037,0.38,-0.07,-1.02,1.09
14.932475090026855,4.2,-0.81,3.21,5.34
14.933413028717041,2.88,-4.88,1.98,6.0
14.954147100448608,-2.13,-5.15,-1.72,5.83
14.955204963684082,-6.34,-3.01,1.38,7.15
14.96987009048462,-9.22,-2.38,2.05,9.74
14.970921039581299,-11.31,-3.31,0.9,11.81
14.987250089645386,-12.37,-4.19,0.25,13.06
14.988749027252197,-12.28,-5.13,0.53,13.31
15.002587080001831,-10.14,-5.28,1.44,11.52
15.030282020568848,-6.97,-4.95,2.45,8.89
15.031581163406372,-4.71,-5.2,2.39,7.41
15.032371997833252,-3.6,-5.5,1.93,6.85
15.034640073776245,-3.53,-5.45,1.52,6.66
15.035851001739502,-4.17,-5.3,1.29,6.86
15.045794010162354,-4.64,-5.02,0.81,6.88
15.055874109268188,-4.61,-4.62,0.16,6.52
15.06579303741455,-4.19,-4.37,-0.6,6.08
15.075747966766357,-3.65,-4.28,-1.16,5.74
15.085377216339111,-3.2,-4.37,-1.42,5.59
15.114410161972046,-2.78,-4.78,-1.3,5.68
15.11533498764038,-2.36,-5.38,-0.99,5.95
15.11612606048584,-1.78,-5.56,-0.33,5.84
15.136990070343018,-1.21,-5.22,0.5,5.38
15.138047218322754,-0.61,-4.62,0.66,4.7
15.153273105621338,0.16,-3.77,-0.07,3.77
15.154754161834717,1.03,-2.82,-0.67,3.07
15.169888973236084,2.32,-1.64,-0.85,2.96
15.174957275390625,4.36,-0.19,-0.5,4.39
15.185766220092773,6.96,1.08,-0.39,7.05
15.223042964935303,9.46,2.03,-0.67,9.69
15.224462032318115,11.25,2.97,-1.31,11.7
15.225296974182129,12.22,3.76,-2.44,13.01
15.226155281066895,13.03,4.74,-3.58,14.32
15.23461627960205,14.23,5.86,-4.77,16.11
15.244479179382324,16.01,6.81,-5.95,18.38
15.254420280456543,18.03,7.04,-6.97,20.57
15.263937950134277,20.18,6.09,-6.58,22.08
15.274216175079346,21.96,4.03,-4.73,22.82
15.284752130508423,22.47,1.21,-1.72,22.56
15.32243013381958,17.68,3.54,3.54,18.37
15.323639154434204,7.42,3.46,6.2,10.26
15.32464599609375,-3.78,-3.46,3.94,6.46
15.337104082107544,-12.7,1.81,1.58,12.92
15.338187217712402,-11.76,18.35,2.5,21.93
15.353517055511475,-10.92,28.94,6.44,31.59
15.35461711883545,-10.66,21.99,-1.95,24.51
15.370316982269287,-1.57,11.03,-6.43,12.86
15.37336015701294,2.34,-0.87,-5.59,6.12
15.386192083358765,5.31,-5.32,-1.47,7.65
15.42238998413086,8.05,-7.63,1.6,11.2
15.423675060272217,9.92,-8.91,1.05,13.37
15.424736022949219,10.91,-8.44,0.7,13.81
15.43753719329834,9.31,-4.65,1.83,10.56
15.438621044158936,4.32,0.15,0.76,4.38
15.453489065170288,0.69,1.5,-0.42,1.7
15.45451307296753,-1.41,2.4,-1.06,2.97
15.470064163208008,-2.59,3.13,-1.29,4.26
15.472588062286377,-1.91,1.97,-0.41,2.77
15.486119270324707,0.4,-0.15,0.17,0.45
15.521909236907959,2.16,-1.18,0.55,2.52
15.523231029510498,2.2,-1.29,1.19,2.81
15.52423095703125,1.06,-0.57,1.01,1.57
15.534188270568848,0.18,0.08,-0.01,0.19
15.535285949707031,-0.32,0.31,-1.71,1.76
15.553555965423584,-0.28,0.54,-2.39,2.46
15.554625034332275,0.01,0.55,-1.31,1.42
15.570281028747559,0.34,0.24,0.44,0.6
15.572039127349854,0.46,-0.33,1.33,1.44
15.58603310585022,0.46,-0.51,0.94,1.16
15.592123031616211,0.18,-0.09,0.31,0.36
15.631816148757935,-0.26,0.55,0.29,0.67
15.63300609588623,-0.53,0.66,0.29,0.89
15.633931159973145,-0.61,0.34,-0.05,0.7
15.654337167739868,-0.63,0.22,-0.3,0.73
15.655408143997192,-0.72,0.39,-0.45,0.93
15.67021894454956,-0.85,0.58,-0.49,1.13
15.671266078948975,-0.91,0.66,-0.4,1.19
15.687068939208984,-0.9,0.6,-0.01,1.08
15.688563108444214,-0.78,0.41,0.46,0.99
15.702790260314941,-0.71,0.18,0.72,1.02
15.732944965362549,-0.73,-0.09,0.42,0.84
15.734310150146484,-0.76,-0.13,-0.14,0.78
15.735318183898926,-0.88,0.14,-0.71,1.13
15.754045963287354,-1.07,0.44,-1.16,1.63
15.755088090896606,-1.22,0.51,-1.34,1.88
15.77037525177002,-1.5,0.74,-0.86,1.88
15.771330118179321,-1.74,1.29,0.01,2.16
15.78751015663147,-2.08,1.64,0.79,2.76
15.788986206054688,-2.29,1.94,1.34,3.28
15.802803039550781,-2.21,2.0,1.16,3.19
15.83341121673584,-1.91,2.07,0.84,2.93
15.834726095199585,-1.85,2.35,0.44,3.02
15.835762023925781,-2.16,2.5,-0.15,3.3
15.85421895980835,-2.54,2.74,-0.58,3.78
15.855314254760742,-2.79,3.01,-0.81,4.18
15.870272159576416,-3.01,3.25,-0.78,4.49
15.871320247650146,-3.4,3.8,-0.57,5.13
15.887638092041016,-4.03,4.55,-0.39,6.09
15.889134168624878,-4.95,6.05,0.2,7.81
15.902698993682861,-6.29,7.85,0.24,10.06
15.932573080062866,-7.9,8.97,-0.9,11.98
15.933903217315674,-9.56,9.88,-1.86,13.87
15.934944152832031,-10.94,10.93,-1.65,15.55
15.952885150909424,-12.08,11.71,-1.78,16.91
15.95396614074707,-13.03,11.8,-2.36,17.73
15.968477249145508,-13.68,12.96,-2.17,18.96
15.96957015991211,-11.73,15.76,-1.0,19.67
15.98557424545288,-5.75,16.74,-3.98,18.14
15.986660957336426,0.49,13.83,-9.15,16.59
16.002886056900024,3.59,9.22,-7.01,12.12
16.031891107559204,1.68,3.81,-4.52,6.14
16.03328013420105,-1.94,-0.94,-2.4,3.22
16.034095287322998,0.5,1.07,-1.46,1.87
16.05437207221985,4.81,0.36,2.78,5.56
16.05545425415039,3.87,-3.56,1.24,5.4
16.07066011428833,-0.88,-3.57,-2.63,4.52
16.071702003479004,-4.97,-1.17,0.5,5.13
16.087541103363037,-8.18,-1.11,0.46,8.26
16.08857297897339,-10.58,-1.99,-0.26,10.76
16.103003978729248,-11.64,-2.67,-0.2,11.94
16.13014316558838,-11.1,-3.79,0.69,11.74
16.13132095336914,-8.72,-4.63,1.86,10.04
16.132105112075806,-6.16,-5.38,2.7,8.61
16.1342830657959,-4.47,-6.07,2.59,7.97
16.13747811317444,-3.65,-6.0,1.79,7.24
16.147703170776367,-3.7,-5.35,0.85,6.56
16.157562255859375,-4.19,-4.94,0.0,6.47
16.167520999908447,-4.4,-4.56,-0.81,6.38
16.177404165267944,-4.2,-4.29,-1.54,6.19
16.18722105026245,-3.86,-4.28,-2.1,6.13
16.222026109695435,-3.66,-4.54,-2.26,6.25
16.222968101501465,-3.61,-5.07,-1.92,6.51
16.223772048950195,-3.51,-5.65,-1.29,6.77
16.237890243530273,-3.26,-6.34,-0.9,7.18
16.238964080810547,-2.89,-6.94,-0.67,7.54
16.25382113456726,-2.48,-7.48,-0.82,7.92
16.25665521621704,-2.1,-7.81,-1.15,8.16
16.270724058151245,-1.81,-7.49,-1.3,7.81
16.276528120040894,-1.65,-6.64,-0.94,6.9
16.286883115768433,-1.41,-5.94,-0.55,6.12
16.323989152908325,-0.45,-5.4,-0.75,5.47
16.32533597946167,1.19,-4.64,-1.16,4.92
16.32620620727539,3.05,-3.13,-1.31,4.56
16.337759971618652,5.34,-0.86,-1.07,5.51
16.33881115913391,7.76,1.47,-0.76,7.93
16.353915214538574,9.62,3.64,-0.64,10.3
16.356009006500244,10.94,5.82,-0.51,12.4
16.370695114135742,12.35,7.4,-0.82,14.42
16.37553119659424,13.98,8.09,-1.46,16.21
16.38632822036743,15.55,8.58,-1.63,17.83
16.3960919380188,17.05,8.87,-1.33,19.26
16.428099155426025,18.36,8.39,-0.98,20.2
16.429232120513916,19.13,7.69,0.59,20.62
16.43028712272644,18.73,6.61,2.59,20.03
16.43512511253357,14.96,8.5,3.36,17.53
16.45418405532837,9.53,8.0,2.73,12.73
16.455234050750732,1.13,-3.65,-2.07,4.34
16.47079110145569,-10.56,-2.58,-3.69,11.47
16.475067138671875,-12.8,14.47,-0.77,19.33
16.48594903945923,-11.45,29.82,8.09,32.95
16.495769023895264,-12.23,24.12,3.41,27.25
16.527268171310425,-7.29,5.77,-1.76,9.46
16.52822709083557,-0.22,-1.39,-0.4,1.46
16.530012130737305,4.99,-2.24,-0.62,5.5
16.53438425064087,6.99,-6.11,-1.24,9.36
16.54473614692688,8.93,-7.43,-2.61,11.9
16.554553031921387,10.46,-5.76,-2.2,12.14
16.56441020965576,10.35,-2.68,-1.21,10.75
16.57439112663269,6.79,0.21,-1.02,6.86
16.584530115127563,2.12,0.82,-0.81,2.41
16.594568252563477,-0.85,1.2,-0.12,1.47
16.629004955291748,-2.09,1.55,1.29,2.9
16.63017511367798,-1.34,0.61,2.95,3.29
16.63098406791687,0.85,-1.16,2.57,2.94
16.633461952209473,2.38,-1.89,1.4,3.34
16.65404510498047,2.32,-1.16,0.41,2.62
16.655107021331787,1.57,-0.15,-0.16,1.58
16.670743942260742,0.69,0.41,-0.33,0.86
16.673434257507324,0.18,0.41,-0.77,0.89
16.68661117553711,0.32,0.24,-1.03,1.1
16.693597078323364,0.76,0.16,-0.88,1.17
16.73164701461792,0.71,-0.06,-0.88,1.13
16.732689142227173,0.34,-0.1,-0.7,0.78
16.733506202697754,0.14,0.05,-0.07,0.16
16.75483012199402,-0.04,0.01,0.77,0.77
16.755887985229492,-0.31,-0.02,1.48,1.51
16.770677089691162,-0.5,-0.09,1.13,1.23
16.771721124649048,-0.21,-0.06,-0.02,0.21
16.787896156311035,-0.01,0.2,-0.58,0.61
16.78936529159546,-0.27,0.45,-0.63,0.81
16.803328037261963,-0.66,0.46,-0.51,0.95
16.833158016204834,-0.63,0.37,-0.3,0.78
16.834314107894897,-0.36,0.22,0.03,0.42
16.83515214920044,-0.15,0.07,0.1,0.19
16.854609966278076,-0.1,0.03,0.24,0.26
16.855651140213013,-0.33,0.22,0.36,0.53
16.87085199356079,-0.73,0.34,0.09,0.81
16.871896266937256,-0.99,0.45,-0.16,1.09
16.88750410079956,-1.06,0.53,-0.37,1.24
16.8885440826416,-1.03,0.58,-0.44,1.26
16.903273105621338,-1.07,0.63,-0.26,1.26
16.932393074035645,-1.14,0.72,-0.23,1.36
16.933434009552002,-1.18,0.8,-0.2,1.43
16.934219121932983,-1.3,0.87,-0.19,1.57
16.954739093780518,-1.62,0.79,-0.04,1.8
16.95574426651001,-2.22,0.79,0.33,2.37
16.970550060272217,-2.75,1.15,0.44,3.01
16.971529006958008,-2.58,1.47,-0.51,3.01
16.98767614364624,-2.06,2.18,-1.16,3.21
16.989137172698975,-1.53,3.01,-1.26,3.6
17.003265142440796,-1.71,3.39,-0.81,3.88
17.0321102142334,-2.37,3.4,-0.05,4.14
17.033535957336426,-3.12,3.36,0.32,4.59
17.034400939941406,-3.62,3.52,0.43,5.06
17.054938077926636,-4.01,4.09,0.23,5.73
17.055991172790527,-4.48,5.05,-0.08,6.75
17.070888996124268,-5.15,6.05,-0.43,7.95
17.07193422317505,-5.85,7.73,-0.31,9.69
17.087756156921387,-6.92,9.55,-0.76,11.81
17.0888032913208,-8.74,10.89,-1.79,14.07
17.103567123413086,-11.14,11.86,-2.7,16.49
17.132509231567383,-13.26,12.62,-2.52,18.47
17.13395118713379,-14.61,12.69,-2.65,19.53
17.13497304916382,-15.23,12.4,-3.3,19.91
17.151999950408936,-14.68,12.95,-2.09,19.68
17.15308427810669,-10.32,15.4,-0.16,18.53
17.170777082443237,-3.67,13.73,-4.59,14.93
17.171775102615356,1.25,8.08,-6.89,10.69
17.188730239868164,2.96,3.68,-5.68,7.38
17.18983221054077,0.77,-2.33,-3.3,4.11
17.20365619659424,1.5,-0.99,0.62,1.9
17.205175161361694,4.91,-0.48,5.62,7.47
17.250160217285156,4.15,-4.75,3.28,7.1
17.251362085342407,0.06,-5.62,-2.48,6.14
17.252357959747314,-3.51,-1.93,0.13,4.0
17.271754264831543,-6.56,-0.19,0.0,6.56
17.27283215522766,-8.7,-0.83,-1.31,8.83
17.28780221939087,-9.2,-1.87,-1.71,9.54
17.28878116607666,-7.71,-2.92,-0.84,8.28
17.30448007583618,-5.43,-4.05,0.58,6.79
17.30594825744629,-4.06,-5.45,1.31,6.92
17.320237159729004,-3.87,-6.52,1.42,7.71
17.351744174957275,-4.25,-6.97,1.58,8.31
17.35308814048767,-4.63,-7.02,1.52,8.54
17.354093074798584,-4.86,-6.93,1.22,8.55
17.371724128723145,-4.94,-6.65,0.76,8.31
17.37276005744934,-4.85,-6.49,0.29,8.1
17.387864112854004,-4.83,-6.32,-0.06,7.95
17.38888120651245,-4.87,-6.23,-0.06,7.9
17.404775142669678,-4.89,-6.25,0.26,7.93
17.406256198883057,-4.75,-6.55,0.54,8.1
17.420244216918945,-4.35,-7.03,0.71,8.29
17.448864936828613,-3.93,-7.25,0.83,8.28
17.4501371383667,-3.72,-6.83,1.18,7.86
17.4509539604187,-3.67,-5.78,1.51,7.01
17.471610069274902,-3.07,-5.09,0.91,6.01
17.47267198562622,-1.3,-4.65,0.27,4.83
17.487810134887695,1.11,-4.1,-0.24,4.25
17.488839149475098,3.66,-3.55,-0.88,5.17
17.50493621826172,5.79,-2.76,-1.11,6.5
17.506452083587646,7.5,-1.74,-1.22,7.79
17.520137071609497,9.0,-0.51,-1.02,9.07
17.5509991645813,10.36,0.72,-0.86,10.42
17.55231809616089,11.37,1.99,-0.98,11.58
17.55336618423462,11.74,3.33,-1.13,12.25
17.571859121322632,11.62,4.54,-1.04,12.51
17.572903156280518,11.88,5.08,-1.1,12.96
17.587635040283203,12.89,4.68,-1.48,13.79
17.58868908882141,14.02,4.01,-1.74,14.68
17.604852199554443,14.99,3.72,-1.84,15.55
17.60639524459839,15.7,3.3,-2.07,16.17
17.62039804458618,16.11,2.56,-1.72,16.4
17.649518966674805,13.91,4.33,-0.07,14.56
17.650856971740723,5.61,8.04,2.61,10.14
17.651644229888916,-5.91,1.0,-0.2,5.99
17.67158794403076,-14.17,8.48,-3.83,16.95
17.67264699935913,-10.79,31.44,3.24,33.39
17.687608242034912,-11.42,32.18,7.73,35.01
17.688663959503174,-10.71,9.61,-4.19,14.98
17.703899145126343,-2.73,-1.54,-2.0,3.71
17.70491909980774,3.93,-3.41,0.67,5.24
17.72077226638794,9.05,-2.23,2.35,9.61
17.75095796585083,11.0,-5.83,2.0,12.6
17.75225019454956,11.94,-6.65,-0.13,13.66
17.75328016281128,11.17,-4.3,-0.49,11.97
17.771725177764893,7.57,-1.34,-1.59,7.85
17.77271604537964,3.24,0.34,-2.68,4.21
17.788229942321777,0.09,1.7,-2.82,3.29
17.789292097091675,-1.82,2.94,-1.07,3.61
17.80446720123291,-2.2,2.07,1.51,3.37
17.805540084838867,-0.82,-0.14,2.5,2.63
17.820987224578857,0.85,-1.71,1.8,2.62
17.850045204162598,1.84,-1.59,1.2,2.71
17.85113525390625,1.47,-0.61,-0.07,1.59
17.85195827484131,0.59,0.26,-0.89,1.09
17.871636152267456,0.09,0.65,-0.81,1.04
17.872636079788208,0.2,0.38,-0.21,0.47
17.887938022613525,0.6,-0.2,-0.25,0.68
17.888978958129883,0.67,-0.37,-0.59,0.96
17.904335975646973,0.26,-0.1,-0.88,0.92
17.90537405014038,-0.23,0.27,-0.66,0.74
17.92072105407715,-0.51,0.37,-0.06,0.63
17.950927257537842,-0.49,0.21,0.54,0.75
17.952281951904297,-0.3,-0.04,0.52,0.6
17.953315258026123,-0.15,-0.09,0.12,0.21
17.971742153167725,-0.22,0.13,-0.36,0.44
17.97278928756714,-0.42,0.27,-0.54,0.73
17.988017082214355,-0.68,0.31,-0.48,0.88
17.98906421661377,-0.91,0.38,-0.08,0.98
18.00459623336792,-0.9,0.43,0.27,1.03
18.005633115768433,-0.68,0.37,0.35,0.84
18.02080202102661,-0.44,0.28,0.39,0.65
18.02226710319519,-0.38,0.19,0.28,0.5
18.065818071365356,-0.56,0.07,0.03,0.56
18.06698513031006,-0.76,-0.05,-0.16,0.77
18.067944049835205,-0.85,-0.07,-0.42,0.95
18.088672161102295,-0.77,0.11,-0.82,1.13
18.089701175689697,-0.73,0.45,-0.97,1.29
18.104417085647583,-0.94,0.75,-0.77,1.42
18.105401039123535,-1.22,0.81,-0.34,1.5
18.121865272521973,-1.35,0.66,0.14,1.5
18.123152256011963,-1.29,0.5,0.43,1.44
18.13713026046753,-1.13,0.41,0.33,1.24
18.167614936828613,-1.1,0.53,0.13,1.22
18.16890525817871,-1.27,0.7,-0.02,1.45
18.16991424560547,-1.37,0.87,-0.32,1.65
18.189504146575928,-1.25,1.07,-0.64,1.76
18.19054412841797,-0.96,1.36,-0.58,1.76
18.204389095306396,-0.65,1.57,-0.12,1.7
18.205406188964844,-0.95,2.09,0.29,2.31
18.221940994262695,-1.53,2.45,0.63,2.95
18.223412036895752,-2.09,2.68,0.47,3.43
18.23726797103882,-2.61,3.36,0.59,4.29
18.267980098724365,-3.31,4.29,0.23,5.42
18.269217014312744,-4.24,5.59,0.19,7.01
18.27023220062256,-5.51,7.78,0.65,9.55
18.286736965179443,-6.89,9.28,-0.17,11.55
18.287843227386475,-8.27,9.98,-1.19,13.01
18.301963090896606,-9.77,11.1,-1.09,14.82
18.303028106689453,-11.17,11.86,-0.87,16.31
18.32204008102417,-12.52,11.88,-0.3,17.26
18.32352614402771,-13.53,11.51,-0.14,17.76
18.337334156036377,-14.12,10.84,-0.55,17.8
18.367263078689575,-13.34,11.41,-0.36,17.55
18.368674278259277,-8.32,14.29,-0.28,16.53
18.369692087173462,-0.44,15.43,-5.2,16.28
18.388702154159546,4.73,11.03,-6.4,13.6
18.38973903656006,5.12,4.45,-5.14,8.51
18.404743194580078,0.92,-0.76,-4.61,4.76
18.405735969543457,0.61,1.97,-2.01,2.87
18.422224044799805,3.66,2.22,2.28,4.84
18.423678159713745,1.5,-2.16,0.99,2.8
18.43751311302185,-2.54,-2.25,-2.13,4.0
18.467371940612793,-5.81,-0.66,0.04,5.84
18.468704223632812,-9.57,-0.97,-0.01,9.61
18.469669103622437,-11.87,-2.07,-0.65,12.06
18.48882508277893,-12.57,-3.38,-0.58,13.02
18.48984718322754,-11.59,-4.33,0.83,12.4
18.504913091659546,-9.22,-5.12,2.52,10.84
18.505960941314697,-7.09,-6.3,3.01,9.95
18.521944046020508,-5.8,-7.64,2.83,10.0
18.52340817451477,-5.21,-8.12,2.5,9.96
18.53753423690796,-5.11,-7.81,2.03,9.55
18.564972162246704,-5.31,-7.15,1.33,9.0
18.566370010375977,-5.51,-6.55,0.6,8.58
18.567148208618164,-5.58,-6.12,-0.15,8.28
18.569468021392822,-5.53,-5.67,-0.61,7.94
18.570664167404175,-5.36,-5.37,-0.77,7.62
18.571877002716064,-4.93,-5.4,-0.8,7.35
18.57305407524109,-3.96,-5.71,-0.9,7.0
18.579094171524048,-2.7,-6.26,-1.11,6.9
18.589691162109375,-1.57,-6.69,-1.22,6.97
18.59938097000122,-0.88,-6.67,-1.02,6.8
18.631922245025635,-0.56,-5.96,-0.26,5.99
18.633103132247925,-0.14,-5.2,0.02,5.2
18.633901119232178,1.0,-4.55,-0.21,4.66
18.653932094573975,2.56,-3.52,-0.49,4.37
18.65478515625,4.13,-1.97,-0.35,4.58
18.671605110168457,5.39,0.16,0.52,5.41
18.67261815071106,6.6,2.63,1.52,7.26
18.68855094909668,7.92,4.8,2.06,9.48
18.689593076705933,9.44,6.38,2.04,11.57
18.703893184661865,11.15,7.74,1.45,13.65
18.73483109474182,12.69,8.32,0.5,15.18
18.73589515686035,14.03,8.46,-0.39,16.38
18.736724138259888,15.75,8.16,-0.79,17.75
18.755563259124756,17.31,7.27,-1.65,18.84
18.756624221801758,18.26,6.12,-2.15,19.37
18.771804094314575,18.53,4.09,-2.36,19.12
18.772837162017822,17.7,3.3,-1.61,18.07
18.788515090942383,14.72,5.83,-2.03,15.96
18.789892196655273,4.04,-4.55,-4.98,7.86
18.804233074188232,-10.18,-5.2,-7.04,13.42
18.808122158050537,-14.38,14.66,-5.41,21.23
18.84793996810913,-12.25,35.95,8.67,38.95
18.84915828704834,-11.45,29.09,4.16,31.53
18.85014009475708,-6.41,6.87,-3.32,9.96
18.85173225402832,0.01,-4.04,-1.98,4.49
18.857440948486328,4.98,-5.79,-1.54,7.79
18.8675479888916,9.4,-5.69,0.54,11.0
18.877506256103516,11.44,-7.41,1.17,13.68
18.887400150299072,12.57,-5.97,0.41,13.92
18.897507190704346,11.28,-2.55,0.45,11.57
18.907485961914062,6.55,-0.06,-0.37,6.56
18.940845012664795,2.07,0.68,-1.11,2.44
18.94202709197998,-0.66,1.75,-1.31,2.28
18.942845106124878,-2.08,2.6,-0.68,3.39
18.955846071243286,-2.07,1.77,0.09,2.72
18.956874132156372,-0.26,-0.08,0.47,0.54
18.971946239471436,1.46,-1.16,0.61,1.96
18.976562976837158,1.88,-1.53,0.72,2.52
18.988521099090576,1.02,-0.98,0.68,1.56
18.99657917022705,-0.05,-0.04,0.33,0.33
19.00671911239624,-0.3,0.44,-0.31,0.61
19.040449142456055,0.15,0.44,-0.65,0.79
19.041741132736206,0.66,0.19,-0.45,0.82
19.04275417327881,0.64,0.03,0.03,0.64
19.0558819770813,0.25,-0.01,0.39,0.46
19.056913137435913,-0.09,-0.01,0.48,0.48
19.071805000305176,-0.2,0.02,0.26,0.32
19.07572317123413,-0.33,0.08,0.07,0.34
19.088181972503662,-0.59,0.14,-0.01,0.6
19.095948219299316,-0.83,0.16,-0.18,0.86
19.105772972106934,-0.91,0.26,-0.37,1.01
19.138116121292114,-0.87,0.37,-0.28,0.98
19.139426231384277,-0.8,0.31,-0.31,0.91
19.140427112579346,-0.67,0.33,-0.3,0.8
19.15717124938965,-0.56,0.34,-0.33,0.73
19.15824007987976,-0.49,0.27,-0.31,0.63
19.171749114990234,-0.56,0.26,0.01,0.61
19.17516016960144,-0.89,0.2,0.14,0.92
19.18899917602539,-1.38,0.11,0.13,1.39
19.195155143737793,-1.75,0.01,-0.2,1.76
19.205042123794556,-1.65,0.1,-0.55,1.74
19.24393320083618,-0.91,0.32,-0.77,1.23
19.245296001434326,-0.22,0.35,-0.68,0.79
19.2463641166687,0.01,0.3,-0.21,0.36
19.255763053894043,-0.25,0.21,0.18,0.37
19.25681495666504,-0.85,0.27,0.4,0.97
19.27184510231018,-1.22,0.47,0.35,1.35
19.274254083633423,-1.28,0.64,0.17,1.44
19.287201166152954,-1.11,0.63,-0.02,1.27
19.294658184051514,-0.82,0.38,-0.12,0.91
19.304293155670166,-0.77,0.24,-0.14,0.81
19.3424870967865,-0.72,0.35,-0.24,0.83
19.343879222869873,-0.67,0.61,-0.27,0.94
19.34485626220703,-0.69,1.02,-0.44,1.3
19.34588623046875,-0.67,1.39,-0.46,1.61
19.353647232055664,-0.67,1.62,-0.35,1.78
19.363746166229248,-1.13,2.08,0.36,2.39
19.37365412712097,-2.04,3.05,0.61,3.71
19.383618116378784,-2.88,4.41,0.91,5.34
19.393537044525146,-3.66,5.74,0.6,6.83
19.4035861492157,-4.59,7.18,0.61,8.54
19.439995288848877,-5.99,8.46,0.3,10.37
19.441152095794678,-7.75,9.72,0.07,12.43
19.442121982574463,-9.3,11.11,-0.22,14.49
19.455235958099365,-10.81,12.21,-0.48,16.31
19.45629906654358,-12.47,12.92,-0.98,17.98
19.469035148620605,-13.83,12.23,-1.4,18.51
19.472742080688477,-15.12,10.85,-1.09,18.64
19.48906898498535,-15.29,10.75,-0.24,18.69
19.492874145507812,-13.0,12.24,0.66,17.86
19.503015995025635,-7.02,13.86,-1.21,15.58
19.54024600982666,0.85,12.81,-6.9,14.57
19.54169511795044,5.49,9.54,-5.27,12.2
19.542715072631836,4.89,3.2,-4.78,7.54
19.556342124938965,0.09,-1.62,-4.32,4.61
19.557414054870605,-0.08,1.06,-1.98,2.24
19.56885814666748,2.76,0.49,1.89,3.38
19.57210922241211,0.56,-3.06,-0.17,3.11
19.589271068572998,-2.85,-2.31,-2.61,4.5
19.592212200164795,-5.61,-0.76,-0.52,5.68
19.604498147964478,-9.11,-1.37,-0.67,9.23
19.61238408088684,-11.26,-2.47,-1.22,11.59
19.65016508102417,-11.78,-3.33,-0.79,12.26
19.651368141174316,-10.51,-3.64,0.77,11.14
19.652371168136597,-8.08,-4.12,2.24,9.34
19.672738075256348,-6.2,-5.3,2.27,8.46
19.673847198486328,-4.92,-6.34,1.94,8.25
19.689021110534668,-4.12,-6.79,1.62,8.1
19.69003415107727,-4.0,-6.96,1.27,8.12
19.705653190612793,-4.37,-6.89,0.75,8.19
19.707149028778076,-4.63,-6.58,0.18,8.04
19.721625089645386,-4.56,-6.3,-0.49,7.79
19.750996112823486,-4.36,-6.09,-0.99,7.55
19.75244903564453,-4.02,-6.12,-1.17,7.41
19.753448963165283,-3.72,-6.51,-0.86,7.54
19.77223014831543,-3.54,-7.05,-0.32,7.89
19.773226261138916,-3.39,-7.62,0.12,8.34
19.787996292114258,-3.13,-8.11,0.41,8.7
19.789037227630615,-2.29,-8.33,0.55,8.65
19.8056161403656,-0.72,-8.01,0.61,8.06
19.807086944580078,1.02,-7.39,0.23,7.46
19.821486949920654,2.35,-6.58,-0.52,7.0
19.849642276763916,3.51,-5.24,-1.0,6.38
19.850983142852783,5.12,-3.62,-1.15,6.37
19.852009057998657,7.24,-2.12,-0.9,7.59
19.872871160507202,9.32,-0.57,-0.23,9.34
19.873868942260742,10.43,0.85,0.12,10.46
19.88937520980835,10.65,2.35,0.58,10.92
19.890406131744385,10.98,4.0,0.7,11.7
19.905927181243896,11.73,6.06,-0.02,13.2
19.907408237457275,12.99,8.43,-0.93,15.51
19.92142915725708,14.13,10.7,-1.92,17.82
19.95021915435791,14.91,12.05,-2.72,19.36
19.95148801803589,15.66,11.07,-3.13,19.43
19.952309131622314,15.16,11.51,-2.8,19.23
19.97285795211792,13.27,9.72,-3.34,16.78
19.97390604019165,2.71,-2.7,-7.5,8.41
19.989004135131836,-10.03,2.02,-6.08,11.9
19.99003314971924,-9.76,24.96,2.95,26.96
20.005953073501587,-7.21,31.94,12.38,35.0
20.007455110549927,-5.84,13.14,1.42,14.44
20.021488189697266,2.29,4.58,-1.36,5.29
20.04969024658203,5.5,-3.66,-1.21,6.71
20.050992965698242,6.76,-8.72,-1.38,11.11
20.051977157592773,8.62,-8.6,-0.33,12.18
20.07268214225769,9.14,-6.12,0.36,11.0
20.073719024658203,7.41,-2.84,0.37,7.94
20.0888671875,3.81,-0.46,-0.89,3.93
20.08991813659668,0.88,1.37,-2.54,3.01
20.105504035949707,-1.07,2.9,-3.04,4.33
20.106526136398315,-1.96,3.49,-1.26,4.19
20.12146306037903,-1.01,1.6,1.27,2.27
20.1494140625,1.01,-1.15,2.17,2.65
20.150856018066406,2.07,-2.56,2.05,3.87
20.151754140853882,1.7,-2.05,1.29,2.95
20.172851085662842,0.91,-0.46,-0.02,1.01
20.173892974853516,0.38,0.72,-1.02,1.3
20.18887209892273,0.1,1.16,-1.03,1.55
20.18991708755493,0.09,0.72,-0.74,1.03
20.205669164657593,0.29,0.09,-0.61,0.68
20.20674705505371,0.34,-0.1,-0.81,0.88
20.221805095672607,-0.03,0.06,-0.75,0.75
20.251456260681152,-0.48,0.35,-0.32,0.67
20.252637147903442,-0.61,0.32,0.2,0.71
20.253448963165283,-0.46,0.13,0.67,0.82
20.272752285003662,-0.24,0.02,0.67,0.71
20.273709058761597,-0.04,-0.08,0.07,0.11
20.28881597518921,0.15,-0.05,-0.51,0.53
20.289855003356934,0.08,0.12,-0.71,0.72
20.30540108680725,-0.15,0.27,-0.44,0.53
20.30642604827881,-0.21,0.31,0.03,0.37
20.321340084075928,-0.07,0.23,0.36,0.43
20.350341081619263,0.04,0.18,0.44,0.47
20.352161169052124,-0.01,0.23,0.31,0.38
20.3531711101532,-0.26,0.25,0.16,0.39
20.372896194458008,-0.6,0.26,0.05,0.65
20.373939037322998,-0.85,0.32,-0.1,0.91
20.3890962600708,-0.92,0.33,-0.33,1.03
20.390368938446045,-0.9,0.4,-0.41,1.06
20.40611696243286,-0.94,0.49,-0.44,1.14
20.407593250274658,-1.03,0.62,-0.41,1.27
20.421782970428467,-1.2,0.75,-0.43,1.47
20.42325210571289,-1.48,0.9,-0.46,1.79
20.46745204925537,-1.73,1.12,-0.24,2.07
20.468639135360718,-1.78,1.09,-0.08,2.08
20.46963906288147,-1.65,1.28,0.3,2.1
20.4896821975708,-1.3,1.52,0.5,2.06
20.49072813987732,-1.27,1.63,0.21,2.07
20.505905151367188,-1.57,1.82,0.19,2.41
20.50741720199585,-2.05,2.11,0.06,2.94
20.522894144058228,-2.28,2.39,-0.22,3.31
20.524394989013672,-2.32,2.52,-0.69,3.49
20.538320064544678,-2.46,2.82,-0.87,3.84
20.570009231567383,-2.92,3.85,-0.58,4.86
20.571320056915283,-3.9,5.12,-0.48,6.45
20.57232904434204,-5.25,7.22,-0.23,8.92
20.59003210067749,-6.81,9.17,-1.0,11.46
20.591134071350098,-8.22,10.35,-2.28,13.41
20.60277509689331,-9.57,11.49,-2.04,15.09
20.603826999664307,-11.19,11.95,-2.16,16.51
20.62297511100769,-12.33,11.58,-2.66,17.12
20.624451160430908,-12.87,10.45,-3.08,16.86
20.63835310935974,-13.11,9.66,-4.25,16.83
20.669182062149048,-12.27,11.12,-3.11,16.84
20.670512199401855,-7.95,15.6,-1.04,17.53
20.671531200408936,-1.78,15.44,-5.17,16.37
20.689788103103638,2.66,10.3,-7.13,12.8
20.690799236297607,2.93,4.78,-6.16,8.32
20.70565915107727,-1.42,-0.99,-3.75,4.13
20.706701278686523,-0.67,1.87,1.18,2.31
20.722902059555054,2.44,1.03,5.03,5.68
20.724364280700684,1.38,-3.51,1.58,4.08
20.738412141799927,-1.4,-3.99,-1.72,4.56
20.768348217010498,-4.65,-1.62,0.07,4.92
20.769687175750732,-8.21,-0.97,-0.24,8.27
20.770677089691162,-9.87,-1.33,0.06,9.95
20.789884090423584,-9.45,-2.45,0.23,9.76
20.790934085845947,-7.23,-3.96,1.13,8.32
20.80556297302246,-5.17,-5.2,2.47,7.73
20.806573152542114,-4.17,-6.42,2.92,8.19
20.823437213897705,-3.95,-7.1,3.12,8.7
20.824900150299072,-4.06,-7.13,2.96,8.72
20.838719129562378,-4.13,-6.57,2.28,8.08
20.868414163589478,-4.21,-5.82,1.32,7.3
20.870253086090088,-4.16,-5.17,0.37,6.64
20.87126612663269,-4.07,-4.81,-0.28,6.3
20.88987922668457,-4.1,-4.9,-0.49,6.4
20.89091396331787,-4.18,-5.15,-0.18,6.63
20.905651092529297,-4.23,-5.58,0.33,7.0
20.90691900253296,-4.13,-6.09,0.7,7.39
20.92303705215454,-3.84,-6.58,0.92,7.67
20.92449426651001,-3.45,-7.0,0.96,7.86
20.938428163528442,-3.16,-7.29,1.07,8.01
20.968425273895264,-3.15,-7.41,1.18,8.13
20.969764232635498,-3.27,-7.05,1.58,7.93
20.970794200897217,-3.24,-6.21,2.2,7.34
20.99001908302307,-2.65,-5.29,2.14,6.29
20.99107599258423,-1.1,-4.41,1.56,4.8
21.005951166152954,0.87,-3.49,0.88,3.7
21.006972074508667,2.74,-2.17,0.52,3.53
21.023041248321533,4.75,-0.46,0.6,4.8
21.024469137191772,6.96,1.11,0.6,7.07
21.03852128982544,8.72,2.2,0.37,9.0
21.067148208618164,9.87,3.44,0.2,10.45
21.068551063537598,10.58,4.76,-0.06,11.6
21.069565057754517,10.96,5.29,-0.86,12.2
21.090057134628296,11.41,5.68,-1.92,12.88
21.091113090515137,12.18,6.19,-2.58,13.9
21.10625696182251,13.1,6.72,-3.09,15.04
21.10771608352661,14.14,7.21,-3.88,16.33
21.124269008636475,15.39,6.81,-4.65,17.45
21.12574815750122,16.89,5.64,-4.48,18.36
21.138899087905884,18.18,4.71,-2.99,19.01
21.16889214515686,14.7,5.73,1.45,15.84
21.170181274414062,3.14,3.52,2.35,5.26
21.171189069747925,-10.43,-2.82,-0.56,10.81
21.190030097961426,-16.31,8.51,-3.15,18.66
21.191091060638428,-14.98,28.65,5.1,32.72
21.205891132354736,-13.73,28.23,4.05,31.65
21.206956148147583,-8.1,10.73,-3.77,13.96
21.223246097564697,1.63,3.2,-3.45,4.97
21.22469997406006,6.27,-2.69,-1.48,6.98
21.238924980163574,8.26,-7.54,0.31,11.18
21.240411281585693,10.16,-8.48,0.03,13.23
21.28528118133545,10.84,-6.97,0.33,12.89
21.286482095718384,9.7,-4.36,0.56,10.64
21.28745126724243,6.0,-1.22,-1.11,6.22
21.306854248046875,2.14,0.75,-2.92,3.69
21.307929039001465,-0.41,2.48,-2.67,3.66
21.32297706604004,-2.01,3.74,-0.5,4.27
21.32449507713318,-2.15,1.94,2.29,3.69
21.339849948883057,-0.43,-1.1,3.48,3.67
21.34131097793579,1.52,-2.59,2.43,3.86
21.355460166931152,2.26,-2.08,0.93,3.2
21.386720180511475,1.74,-0.43,-0.58,1.88
21.38853907585144,0.87,0.79,-1.19,1.67
21.389557123184204,0.13,1.07,-0.85,1.37
21.406740188598633,-0.02,0.48,-0.54,0.72
21.407816171646118,0.42,-0.14,-0.74,0.86
21.423426151275635,0.66,-0.11,-1.02,1.21
21.42487621307373,0.21,0.19,-0.73,0.78
21.439674139022827,-0.57,0.22,-0.1,0.61
21.441111087799072,-0.83,0.14,0.57,1.01
21.45571994781494,-0.45,-0.03,0.82,0.93
21.487775087356567,0.07,-0.14,0.43,0.45
21.489071130752563,0.21,-0.04,-0.17,0.27
21.490100145339966,0.12,0.08,-0.83,0.84
21.506831169128418,-0.18,0.15,-0.94,0.96
21.50782608985901,-0.45,0.39,-0.5,0.77
21.52334499359131,-0.47,0.43,-0.02,0.63
21.52480912208557,-0.27,0.32,0.25,0.48
21.539903163909912,0.01,0.13,0.27,0.29
21.54133915901184,0.14,0.05,0.18,0.23
21.55529022216797,-0.12,0.16,-0.07,0.21
21.58524799346924,-0.69,0.35,-0.19,0.79
21.58658504486084,-1.15,0.52,-0.21,1.27
21.587552070617676,-1.29,0.52,-0.35,1.43
21.606465101242065,-1.17,0.43,-0.5,1.34
21.607478141784668,-0.99,0.41,-0.62,1.23
21.622190952301025,-1.01,0.52,-0.67,1.31
21.623600006103516,-1.17,0.71,-0.67,1.52
21.639889240264893,-1.35,0.88,-0.61,1.72
21.641311168670654,-1.5,1.12,-0.2,1.88
21.655424118041992,-1.59,1.17,-0.08,1.97
21.684510231018066,-1.85,1.18,0.07,2.19
21.685906171798706,-1.82,1.37,-0.05,2.27
21.686926126480103,-1.59,1.63,-0.18,2.28
21.706714153289795,-1.36,2.27,0.28,2.66
21.70769500732422,-1.57,2.46,0.34,2.93
21.72341823577881,-2.19,2.7,0.65,3.53
21.72440814971924,-2.96,3.07,0.49,4.29
21.73991107940674,-3.57,3.63,0.06,5.09
21.74138307571411,-4.07,4.6,-0.42,6.15
21.75565528869629,-4.71,5.57,-0.97,7.35
21.784464120864868,-5.61,7.13,-1.08,9.13
21.785738945007324,-6.88,8.8,-1.7,11.29
21.7867431640625,-8.18,9.8,-3.04,13.12
21.806872129440308,-9.13,11.07,-2.88,14.63
21.807953119277954,-10.7,12.13,-2.46,16.36
21.8233060836792,-12.61,12.4,-3.04,17.94
21.824363231658936,-13.97,11.66,-3.56,18.54
21.84012222290039,-14.57,10.68,-4.73,18.67
21.841601133346558,-14.43,10.88,-4.69,18.67
21.855544090270996,-11.33,14.24,-2.04,18.31
21.886335134506226,-5.12,16.48,-2.95,17.5
21.88762617111206,0.05,11.38,-6.98,13.35
21.88856315612793,2.75,6.17,-6.98,9.71
21.906753063201904,0.62,-0.77,-4.82,4.92
21.907758235931396,0.53,0.19,0.59,0.81
21.922987937927246,4.02,1.62,6.65,7.93
21.924482107162476,3.21,-4.02,4.24,6.66
21.940653085708618,-0.38,-6.39,-1.88,6.67
21.942131996154785,-3.21,-3.55,0.66,4.83
21.955374240875244,-5.55,-1.05,0.81,5.7
21.984986066818237,-6.71,-1.43,-0.59,6.88
21.986305236816406,-5.97,-2.59,-1.33,6.64
21.987272262573242,-4.26,-3.23,-0.06,5.34
22.00666904449463,-3.18,-4.18,1.67,5.51
22.007709980010986,-2.78,-5.51,2.52,6.66
22.023404121398926,-2.74,-6.22,2.79,7.34
22.0244402885437,-2.68,-6.41,2.76,7.47
22.0403151512146,-2.38,-6.18,2.2,6.97
22.041769981384277,-2.24,-5.76,1.33,6.32
22.0555100440979,-2.49,-5.44,0.65,6.01
22.05696201324463,-3.24,-5.52,0.41,6.41
22.095186233520508,-4.48,-5.67,0.76,7.26
22.09608507156372,-5.83,-5.86,1.62,8.42
22.097809076309204,-6.64,-6.27,2.45,9.45
22.10392999649048,-6.88,-6.78,2.95,10.09
22.10488510131836,-6.68,-7.25,3.25,10.38
22.12429714202881,-6.28,-7.72,3.33,10.49
22.125827074050903,-5.8,-8.15,3.14,10.48
22.140600204467773,-5.34,-8.34,2.9,10.31
22.142128944396973,-4.83,-8.49,2.67,10.12
22.155794143676758,-4.06,-8.68,2.19,9.82
22.187278270721436,-3.05,-8.56,1.58,9.22
22.18863010406494,-2.1,-7.99,1.46,8.38
22.189643144607544,-0.94,-7.3,1.36,7.48
22.207016944885254,1.13,-6.53,0.57,6.65
22.20807409286499,3.7,-5.61,-0.56,6.74
22.223511219024658,6.05,-4.73,-1.75,7.87
22.224976062774658,8.26,-3.3,-2.02,9.12
22.240467071533203,10.43,-1.1,-1.47,10.59
22.241981029510498,11.9,1.09,-0.22,11.95
22.25571298599243,12.36,2.84,0.98,12.71
22.287039279937744,12.47,4.5,2.11,13.42
22.28834104537964,12.75,5.87,2.56,14.26
22.289384126663208,13.36,6.98,2.27,15.24
22.30708122253418,14.11,7.74,1.27,16.14
22.308135986328125,14.88,7.58,-0.48,16.7
22.323169231414795,14.05,9.27,-2.31,16.99
22.324226140975952,9.74,12.86,-7.18,17.65
22.340199947357178,-3.25,3.31,-14.65,15.36
22.341695070266724,-11.65,25.54,-14.15,31.43
22.355749130249023,-10.16,49.79,4.58,51.02
22.3808331489563,-11.74,28.13,0.0,30.48
22.382304191589355,-6.13,2.94,-5.39,8.67
22.383347988128662,2.11,-1.21,0.59,2.5
22.386061191558838,5.86,-6.61,3.92,9.66
22.40651512145996,8.57,-11.0,2.9,14.24
22.40753698348999,10.69,-11.87,1.97,16.09
22.423351287841797,11.05,-8.77,2.09,14.26
22.424379110336304,8.26,-3.49,1.91,9.16
22.439504146575928,3.69,-0.42,0.4,3.73
22.440948963165283,0.2,2.03,-1.39,2.46
22.481094121932983,-1.82,4.04,-3.28,5.51
22.4822940826416,-2.83,4.28,-2.91,5.89
22.48347306251526,-2.08,2.34,-1.28,3.38
22.486647129058838,0.34,-0.6,0.25,0.73
22.50673818588257,2.25,-2.13,0.66,3.16
22.507745265960693,2.61,-2.31,0.58,3.53
22.52349328994751,1.21,-0.89,0.14,1.5
22.524847984313965,-0.28,0.58,-0.6,0.88
22.539173126220703,-0.65,1.02,-0.93,1.52
22.540647983551025,0.24,0.52,-0.64,0.85
22.581483125686646,1.18,-0.08,0.02,1.18
22.582674980163574,1.12,-0.26,0.47,1.24
22.58388614654541,0.39,-0.11,0.46,0.61
22.586565017700195,-0.12,0.14,0.25,0.31
22.606778144836426,-0.23,0.29,0.0,0.37
22.6078462600708,-0.22,0.21,-0.25,0.39
22.623478174209595,-0.1,0.06,-0.31,0.33
22.624503135681152,0.03,-0.08,-0.23,0.24
22.639347076416016,0.0,-0.13,-0.09,0.15
22.64080309867859,-0.02,-0.04,0.11,0.11
22.681145191192627,0.02,-0.07,0.18,0.19
22.682335138320923,-0.01,-0.01,0.22,0.22
22.683468103408813,-0.16,0.19,0.17,0.3
22.686326026916504,-0.36,0.32,0.1,0.49
22.706765174865723,-0.49,0.43,0.12,0.66
22.707823276519775,-0.54,0.39,0.21,0.69
22.723783016204834,-0.65,0.25,0.18,0.71
22.725231170654297,-0.75,0.21,0.11,0.78
22.739732265472412,-0.78,0.18,-0.18,0.82
22.7412109375,-0.69,0.27,-0.52,0.9
22.78294610977173,-0.67,0.47,-0.72,1.09
22.784094095230103,-0.78,0.68,-0.62,1.2
22.785223960876465,-1.02,0.83,-0.31,1.35
22.786777019500732,-1.36,0.88,0.04,1.62
22.78821110725403,-1.54,0.78,0.25,1.74
22.789623260498047,-1.6,0.61,0.44,1.76
22.791022062301636,-1.43,0.67,0.55,1.67
22.797996044158936,-1.2,0.56,-0.05,1.32
22.808661937713623,-1.3,0.86,-0.16,1.56
22.81817102432251,-1.64,1.71,-0.13,2.37
22.82815408706665,-1.94,2.54,0.01,3.19
22.85468816757202,-1.76,2.8,-0.21,3.31
22.855764150619507,-1.51,2.47,-0.39,2.92
22.85767412185669,-1.5,2.11,-0.21,2.59
22.872316122055054,-1.92,2.32,0.1,3.01
22.877833127975464,-2.55,2.83,0.06,3.8
22.889681100845337,-3.33,3.97,0.03,5.18
22.897693157196045,-4.35,5.51,0.25,7.02
22.907549142837524,-5.86,7.65,0.39,9.64
22.917546272277832,-7.69,9.16,-0.61,11.97
22.927409172058105,-9.26,10.25,-1.24,13.86
22.955746173858643,-10.43,11.51,-0.91,15.55
22.95713710784912,-11.82,12.06,-1.06,16.91
22.95817995071411,-13.19,11.8,-0.77,17.71
22.97427010536194,-14.56,11.72,-0.38,18.69
22.976808071136475,-15.17,12.05,-0.66,19.38
22.98740816116333,-12.8,13.53,-0.63,18.63
22.99672508239746,-6.05,14.62,-3.98,16.31
23.006943225860596,1.54,13.7,-7.56,15.72
23.016945123672485,5.39,9.79,-5.1,12.28
23.026679039001465,4.15,2.92,-4.8,6.98
23.057029247283936,1.09,-0.92,-3.49,3.77
23.058285236358643,3.57,2.19,-0.64,4.23
23.05930519104004,5.12,-1.02,2.88,5.96
23.07399320602417,1.03,-4.27,-2.55,5.07
23.07611322402954,-3.09,-2.33,-2.42,4.56
23.09101629257202,-6.44,-0.46,-0.2,6.45
23.096588134765625,-9.69,-1.52,-1.29,9.89
23.10697603225708,-11.13,-2.85,-1.38,11.57
23.116360187530518,-10.77,-4.09,-0.51,11.53
23.125888109207153,-8.95,-5.17,1.29,10.41
23.157876014709473,-7.1,-6.09,2.71,9.73
23.159167289733887,-5.97,-7.13,2.97,9.76
23.16014814376831,-5.27,-7.68,2.81,9.72
23.174265146255493,-5.04,-7.59,2.29,9.39
23.17529821395874,-5.06,-6.92,1.51,8.7
23.189129114151,-5.11,-6.25,0.64,8.09
23.19559407234192,-5.05,-5.76,-0.16,7.66
23.20718002319336,-4.84,-5.54,-0.72,7.39
23.21539616584778,-4.57,-5.61,-0.94,7.29
23.225157260894775,-4.18,-5.95,-0.84,7.31
23.26340913772583,-3.78,-6.34,-0.53,7.4
23.264770030975342,-3.35,-6.87,-0.29,7.64
23.265897274017334,-2.89,-7.41,-0.13,7.95
23.271058082580566,-2.42,-7.8,-0.11,8.16
23.29068422317505,-2.03,-7.68,0.16,7.94
23.291799068450928,-1.78,-7.12,0.68,7.37
23.307047128677368,-1.42,-6.64,0.77,6.83
23.308536052703857,-0.54,-6.17,0.45,6.2
23.32301115989685,0.77,-5.53,0.29,5.59
23.32453203201294,2.31,-4.47,0.48,5.05
23.36816120147705,4.05,-3.34,0.87,5.32
23.369274139404297,5.86,-2.08,1.3,6.35
23.370289087295532,7.29,-0.54,1.25,7.41
23.391730070114136,8.19,1.3,0.74,8.32
23.393249034881592,9.03,3.39,0.35,9.65
23.405567169189453,10.42,5.42,0.03,11.74
23.407040119171143,12.5,6.47,-0.42,14.08
23.424405097961426,14.52,6.5,-0.78,15.92
23.42586612701416,15.97,6.33,-0.69,17.19
23.43974494934082,17.12,5.48,-0.2,17.97
23.469948291778564,17.86,3.87,-0.03,18.27
23.47128200531006,18.25,2.61,0.5,18.44
23.4723801612854,16.37,5.22,1.32,17.23
23.49097728729248,7.72,6.1,-1.11,9.9
23.492008209228516,-8.05,-3.98,-7.36,11.61
23.50566005706787,-17.12,17.96,-12.61,27.83
23.507190227508545,-16.06,45.69,5.05,48.69
23.52438712120056,-15.96,33.12,3.06,36.89
23.525915145874023,-8.58,9.68,-7.65,15.02
23.53965425491333,2.61,3.99,-2.71,5.48
23.569868087768555,6.69,-4.52,-0.19,8.07
23.57122015953064,9.7,-9.84,-0.34,13.82
23.57229208946228,11.92,-11.58,0.46,16.62
23.590997219085693,12.43,-9.77,1.49,15.88
23.59204411506653,10.74,-5.69,3.52,12.65
23.607561111450195,5.7,-2.58,1.85,6.52
23.60902500152588,1.39,-0.37,0.99,1.74
23.62422013282776,-0.96,2.9,-0.11,3.05
23.62571620941162,-2.36,4.27,-1.78,5.19
23.63969326019287,-3.04,3.18,-2.05,4.85
23.64118528366089,-1.71,0.96,-0.53,2.03
23.684813022613525,0.56,-0.94,0.89,1.41
23.685943126678467,1.88,-1.91,1.08,2.88
23.68691611289978,1.81,-1.75,0.38,2.54
23.708163261413574,0.72,-0.25,-0.3,0.81
23.70919108390808,-0.06,0.79,-0.74,1.08
23.72433614730835,-0.05,0.64,-0.81,1.03
23.725831985473633,0.41,0.03,-0.85,0.94
23.740926265716553,0.69,-0.32,-0.67,1.01
23.742390155792236,0.38,-0.18,-0.03,0.42
23.75649929046631,-0.02,0.04,0.74,0.74
23.786209106445312,-0.07,0.06,0.99,0.99
23.787482261657715,0.04,0.15,0.99,1.0
23.788430213928223,-0.1,0.25,0.71,0.75
23.807374954223633,-0.37,0.19,0.28,0.5
23.808434009552002,-0.57,0.24,-0.06,0.62
23.824224948883057,-0.74,0.29,-0.77,1.1
23.825682163238525,-0.75,0.41,-1.12,1.4
23.840944290161133,-0.6,0.6,-0.98,1.29
23.84241819381714,-0.4,0.53,-0.59,0.88
23.856343269348145,-0.42,0.32,0.02,0.52
23.88489294052124,-0.67,0.22,0.42,0.82
23.886288166046143,-1.05,0.14,0.33,1.1
23.88726305961609,-1.38,0.12,0.01,1.38
23.907771110534668,-1.53,0.17,-0.5,1.61
23.90881109237671,-1.62,0.36,-0.84,1.86
23.924386978149414,-1.65,0.66,-0.87,1.97
23.925857067108154,-1.58,0.92,-0.74,1.97
23.9411301612854,-1.59,1.13,-0.36,1.98
23.942564964294434,-1.65,1.2,0.08,2.04
23.956555128097534,-1.74,1.2,0.7,2.22
23.983520984649658,-1.88,1.31,1.19,2.58
23.98487615585327,-1.8,1.8,1.17,2.8
23.985886096954346,-1.52,1.86,-0.01,2.4
23.987394094467163,-1.4,2.14,-0.77,2.67
23.98872709274292,-1.76,2.61,-0.68,3.22
23.990103244781494,-2.08,3.17,-0.05,3.79
23.999545097351074,-2.58,3.3,0.39,4.2
24.00944709777832,-3.16,3.54,0.5,4.77
24.019302129745483,-4.07,4.08,0.49,5.78
24.029194116592407,-5.2,5.48,0.76,7.59
24.06355094909668,-6.39,7.61,1.21,10.01
24.064860105514526,-7.78,11.06,1.82,13.64
24.06593108177185,-10.0,13.41,-0.16,16.72
24.070393085479736,-12.05,13.48,-2.24,18.21
24.07860803604126,-13.9,13.25,-1.89,19.29
24.088685035705566,-15.9,13.11,-0.59,20.61
24.09840726852417,-16.66,14.06,0.89,21.81
24.108567237854004,-13.96,16.63,1.59,21.77
24.119563102722168,-5.7,16.72,-4.01,18.11
24.128567218780518,3.04,13.33,-9.42,16.6
24.163190126419067,6.66,8.02,-6.78,12.43
24.164573192596436,3.89,1.21,-6.4,7.58
24.165640115737915,-0.67,-0.5,-4.5,4.57
24.17345428466797,1.47,2.89,-1.37,3.51
24.177971124649048,2.53,-0.28,2.21,3.37
24.190901279449463,-0.99,-2.31,-2.15,3.3
24.19804310798645,-4.02,-0.59,-1.99,4.52
24.2077579498291,-7.75,0.03,-0.5,7.76
24.217953205108643,-11.34,-0.81,-0.76,11.39
24.2280011177063,-12.91,-2.08,-1.13,13.12
24.263862133026123,-12.46,-3.34,-0.28,12.9
24.26514196395874,-9.94,-4.27,1.67,10.94
24.26618194580078,-7.15,-5.34,2.93,9.39
24.271525144577026,-5.32,-6.77,2.77,9.04
24.277152061462402,-4.42,-7.7,2.45,9.21
24.290940284729004,-4.44,-7.76,2.16,9.19
24.297317028045654,-4.99,-7.18,1.38,8.85
24.307703018188477,-5.47,-6.28,0.56,8.34
24.31718611717224,-5.48,-5.59,-0.31,7.83
24.32721519470215,-5.03,-5.32,-0.96,7.38
24.363166093826294,-4.53,-5.59,-1.41,7.33
24.364411115646362,-4.23,-5.94,-1.32,7.41
24.36543107032776,-4.0,-6.32,-1.07,7.55
24.3716082572937,-3.55,-6.86,-1.03,7.79
24.376434087753296,-2.76,-7.32,-1.09,7.89
24.391224145889282,-1.82,-7.59,-1.05,7.87
24.39629817008972,-0.9,-7.61,-0.85,7.71
24.407660007476807,-0.12,-7.18,-0.65,7.21
24.416659116744995,0.44,-6.53,-0.95,6.61
24.426382064819336,1.52,-5.78,-1.08,6.07
24.436540126800537,3.24,-4.85,-1.3,5.97
24.46870994567871,5.08,-3.47,-1.27,6.28
24.46990394592285,7.03,-1.55,-0.75,7.23
24.47091317176819,9.14,0.29,-0.05,9.14
24.49187707901001,11.01,1.89,0.17,11.17
24.492931127548218,12.56,3.27,0.0,12.97
24.507801055908203,13.96,4.18,-0.3,14.57
24.509289264678955,14.88,4.67,-1.26,15.64
24.5247859954834,15.52,5.11,-1.83,16.44
24.52631115913391,16.36,5.46,-2.6,17.44
24.540245056152344,17.58,5.9,-3.43,18.85
24.569022178649902,19.1,5.89,-4.38,20.46
24.570456981658936,20.59,5.19,-3.83,21.57
24.571481227874756,19.93,4.39,-1.3,20.44
24.59164309501648,10.21,5.64,2.65,11.96
24.59272003173828,-5.64,0.31,0.76,5.69
24.607474088668823,-17.56,7.38,-5.88,19.93
24.60900115966797,-18.85,33.52,1.3,38.47
24.62165403366089,-19.13,38.52,7.77,43.7
24.624847173690796,-13.97,16.63,-5.74,22.46
24.640275955200195,-1.29,4.18,-4.64,6.37
24.669027090072632,5.83,-2.88,-1.8,6.74
24.67037010192871,8.87,-9.01,0.23,12.64
24.671359062194824,11.85,-11.86,-0.42,16.77
24.691899061203003,13.7,-11.44,1.36,17.9
24.692922115325928,13.43,-8.0,3.46,16.01
24.70807695388794,9.0,-3.4,3.03,10.08
24.70952320098877,3.22,-1.42,0.65,3.57
24.72486925125122,-0.27,1.1,-1.05,1.54
24.726352214813232,-2.21,4.31,-2.82,5.6
24.740232944488525,-3.53,5.1,-2.97,6.87
24.770454168319702,-3.19,3.11,-1.27,4.63
24.77174425125122,-0.6,-0.05,0.41,0.72
24.772853136062622,1.91,-2.17,1.5,3.25
24.791778087615967,3.27,-2.97,1.54,4.67
24.792816162109375,2.97,-1.95,0.64,3.61
24.807761192321777,1.18,-0.02,-0.31,1.22
24.80923318862915,-0.23,0.89,-0.86,1.25
24.824772119522095,-0.31,0.83,-0.92,1.27
24.826272010803223,0.29,0.2,-0.51,0.61
24.840237140655518,0.56,-0.2,-0.24,0.64
24.87185525894165,0.27,-0.01,-0.01,0.27
24.873141288757324,-0.19,0.27,0.2,0.38
24.874112129211426,-0.47,0.25,0.2,0.56
24.892189979553223,-0.71,0.11,0.29,0.77
24.893630981445312,-1.0,0.18,0.36,1.07
24.907958030700684,-1.05,0.3,-0.03,1.09
24.90942406654358,-0.63,0.34,-0.49,0.86
24.92490315437317,-0.16,0.42,-0.48,0.65
24.926414012908936,-0.1,0.38,-0.15,0.42
24.940170288085938,-0.35,0.21,0.06,0.41
24.97125506401062,-0.58,0.23,0.13,0.63
24.972609043121338,-0.89,0.38,0.06,0.96
24.9736430644989,-1.22,0.53,-0.05,1.33
24.991932153701782,-1.31,0.5,-0.25,1.42
24.993319988250732,-1.2,0.22,-0.33,1.26
25.00792694091797,-1.0,0.08,-0.22,1.02
25.009371280670166,-0.81,0.27,-0.15,0.86
25.02499508857727,-0.67,0.55,-0.31,0.92
25.02643609046936,-0.77,0.85,-0.35,1.19
25.04037094116211,-1.14,1.09,-0.23,1.59
25.06973123550415,-1.63,1.15,0.14,1.99
25.071128129959106,-2.01,1.03,0.47,2.3
25.072143077850342,-2.09,1.14,0.78,2.5
25.09207820892334,-1.42,1.15,0.15,1.83
25.093562126159668,-0.93,0.94,-0.57,1.43
25.107850074768066,-0.96,1.42,-0.88,1.92
25.10933494567871,-1.5,2.04,-0.9,2.68
25.12471103668213,-1.89,2.64,-0.65,3.31
25.126176118850708,-2.34,3.12,-0.27,3.9
25.140233039855957,-2.78,3.57,-0.02,4.52
25.17074203491211,-3.42,4.17,-0.07,5.39
25.17209005355835,-4.43,5.14,0.07,6.78
25.17311716079712,-5.95,7.01,0.67,9.21
25.192248106002808,-7.72,9.56,1.04,12.33
25.193764209747314,-9.68,11.83,-0.09,15.28
25.207557201385498,-11.35,13.23,-1.56,17.5
25.209099292755127,-12.83,13.64,-2.48,18.88
25.222537994384766,-14.32,13.36,-2.53,19.74
25.22402000427246,-15.22,12.53,-2.42,19.86
25.237911224365234,-15.77,12.68,-2.75,20.42
25.240272998809814,-14.0,14.79,-2.1,20.47
25.28388023376465,-7.08,17.21,-4.27,19.09
25.285033226013184,0.5,16.02,-8.74,18.25
25.286306142807007,4.08,11.19,-6.54,13.58
25.287939071655273,2.18,4.18,-6.08,7.69
25.289698123931885,-1.12,0.45,-3.92,4.1
25.299705982208252,1.79,3.82,-0.27,4.22
25.30960512161255,3.52,-0.34,3.25,4.8
25.319611072540283,0.22,-4.11,-2.43,4.77
25.32976198196411,-3.28,-2.21,-1.94,4.4
25.339591026306152,-6.47,-0.37,0.41,6.49
25.368449211120605,-9.43,-1.23,-0.38,9.51
25.36959409713745,-10.54,-2.39,-0.27,10.81
25.370558261871338,-10.16,-3.57,0.73,10.79
25.388718128204346,-8.53,-4.67,2.28,9.98
25.389732122421265,-7.03,-5.72,3.41,9.68
25.40474009513855,-6.22,-6.69,3.92,9.94
25.40919303894043,-5.67,-7.07,4.08,9.93
25.421857118606567,-5.34,-6.84,3.78,9.46
25.429139137268066,-5.21,-6.59,2.84,8.86
25.44071912765503,-5.21,-6.32,1.61,8.34
25.469706058502197,-5.35,-5.92,0.7,8.0
25.471020221710205,-5.48,-5.5,-0.04,7.76
25.47200608253479,-5.28,-5.41,-0.56,7.58
25.491660118103027,-4.77,-5.75,-0.77,7.51
25.492778062820435,-4.23,-6.3,-0.45,7.6
25.505258083343506,-3.81,-7.14,0.03,8.09
25.508461952209473,-3.5,-8.01,0.55,8.75
25.51836609840393,-3.24,-8.78,1.0,9.41
25.528144121170044,-2.93,-9.32,1.3,9.85
25.538356065750122,-2.47,-9.47,1.75,9.94
25.56967306137085,-1.96,-8.81,2.28,9.3
25.570847034454346,-0.97,-7.63,2.04,7.95
25.57187008857727,1.15,-6.42,1.16,6.62
25.591870069503784,3.75,-5.15,0.29,6.37
25.592912197113037,6.02,-3.63,-0.01,7.02
25.608206272125244,8.14,-1.54,0.18,8.28
25.609673023223877,10.5,0.61,0.2,10.51
25.62525224685669,12.99,2.38,0.19,13.2
25.62747097015381,15.19,4.1,0.34,15.73
25.640634059906006,16.6,5.62,0.79,17.54
25.674071073532104,17.06,6.45,0.87,18.25
25.675435066223145,17.07,7.14,0.63,18.51
25.67644715309143,16.99,7.4,-0.21,18.53
25.692200183868408,17.39,7.38,-1.85,18.98
25.693260192871094,18.38,6.99,-3.14,19.91
25.70838499069214,18.15,7.85,-3.15,20.02
25.70989227294922,9.58,4.15,-5.36,11.73
25.725223064422607,-8.44,-4.55,-10.56,14.26
25.726734161376953,-18.45,18.2,-15.08,29.98
25.74055314064026,-17.52,44.16,4.9,47.76
25.775707244873047,-16.51,34.17,1.23,37.96
25.776992082595825,-8.76,10.43,-7.82,15.7
25.778018951416016,1.79,1.89,-1.87,3.2
25.792379140853882,5.8,-6.49,-0.94,8.75
25.793456077575684,9.78,-10.29,-0.3,14.19
25.808163166046143,12.91,-11.66,1.81,17.48
25.80964207649231,14.13,-10.14,3.58,17.75
25.825387954711914,12.65,-6.23,4.42,14.77
25.826903104782104,7.21,-2.23,2.76,8.03
25.84080219268799,1.96,-0.2,1.07,2.24
25.87567114830017,-1.29,2.48,0.03,2.79
25.877037048339844,-3.05,3.96,-2.39,5.54
25.878061056137085,-3.42,3.22,-3.36,5.77
25.892652988433838,-1.34,1.37,-1.79,2.62
25.89372205734253,1.62,-0.55,0.13,1.71
25.90632724761963,3.07,-2.07,1.68,4.06
25.90762209892273,2.81,-2.49,1.92,4.21
25.92550015449524,1.34,-1.24,0.89,2.03
25.926980018615723,0.08,0.29,-0.6,0.67
25.94074296951294,-0.16,1.08,-1.36,1.74
25.973470211029053,0.18,0.89,-0.94,1.3
25.974918127059937,0.46,0.1,-0.06,0.47
25.975927114486694,0.44,-0.43,0.63,0.88
25.99230408668518,0.18,-0.45,0.67,0.82
25.993369102478027,-0.01,-0.2,0.08,0.21
26.008488178253174,-0.15,0.06,-0.53,0.55
26.009953022003174,-0.32,0.32,-0.66,0.8
26.02513313293457,-0.49,0.42,-0.48,0.8
26.02643918991089,-0.61,0.37,-0.18,0.73
26.041490077972412,-0.53,0.28,-0.12,0.61
26.04450798034668,-0.31,0.27,-0.2,0.45
26.08641004562378,-0.32,0.53,0.0,0.61
26.08759593963623,-0.78,0.66,0.01,1.02
26.0886070728302,-1.59,0.7,-0.02,1.73
26.109282970428467,-2.39,0.69,-0.07,2.48
26.110802173614502,-3.07,0.55,-0.23,3.12
26.125291109085083,-3.39,0.37,-0.52,3.44
26.126750946044922,-2.87,0.35,-0.65,2.96
26.141895055770874,-1.72,0.55,-0.83,1.98
26.143351078033447,-0.75,0.78,-0.88,1.39
26.15737509727478,-0.6,0.89,-0.74,1.3
26.185811042785645,-1.18,0.86,-0.46,1.53
26.187148094177246,-1.87,0.92,0.1,2.08
26.188112258911133,-2.11,1.14,0.7,2.49
26.20584011077881,-2.02,1.17,0.87,2.49
26.20673894882202,-1.85,1.39,0.65,2.4
26.222586154937744,-1.48,1.8,-0.02,2.33
26.22400212287903,-0.98,2.41,-0.75,2.7
26.23886728286743,-1.09,3.24,-0.83,3.51
26.240283012390137,-1.55,3.34,-0.43,3.7
26.255004167556763,-2.52,3.4,0.24,4.23
26.28172516822815,-3.47,3.44,0.45,4.9
26.283053159713745,-4.11,4.04,0.57,5.79
26.284106254577637,-4.58,5.51,0.63,7.19
26.288570165634155,-5.61,7.34,0.31,9.24
26.30482316017151,-7.38,9.65,-0.07,12.14
26.3058180809021,-9.33,11.31,-1.36,14.72
26.321866035461426,-11.29,12.44,-2.06,16.92
26.323089122772217,-12.95,13.33,-1.85,18.67
26.338376998901367,-14.13,13.4,-1.78,19.55
26.342214107513428,-15.41,13.13,-1.83,20.32
26.380988121032715,-15.96,14.67,-0.85,21.69
26.38218927383423,-11.93,16.57,-0.56,20.42
26.38347816467285,-3.4,16.38,-6.08,17.79
26.392032146453857,2.66,12.32,-9.05,15.51
26.39309024810791,4.51,6.63,-6.18,10.12
26.408558130264282,1.7,0.97,-4.51,4.91
26.411394119262695,2.37,1.92,-2.57,3.98
26.42406415939331,6.64,2.68,2.42,7.55
26.431772232055664,5.2,-2.7,2.0,6.19
26.44132709503174,-0.39,-3.02,-3.89,4.94
26.478036165237427,-4.76,0.47,-0.01,4.78
26.479323148727417,-8.57,0.66,-0.19,8.59
26.480346202850342,-11.46,-1.0,-1.88,11.65
26.492295265197754,-12.61,-2.69,-1.66,13.0
26.4933762550354,-11.87,-4.16,0.0,12.57
26.50713300704956,-9.4,-5.45,2.25,11.09
26.510705947875977,-7.19,-6.81,3.55,10.52
26.525745153427124,-5.9,-8.06,3.5,10.58
26.53068709373474,-5.11,-8.55,3.01,10.4
26.540552139282227,-4.9,-8.29,2.13,9.86
26.577155113220215,-5.27,-7.58,1.08,9.29
26.578489065170288,-5.87,-6.87,0.33,9.04
26.579487085342407,-6.21,-6.29,-0.35,8.84
26.59259796142578,-6.15,-6.03,-0.84,8.65
26.59362816810608,-5.56,-6.21,-0.91,8.38
26.608520984649658,-4.55,-6.75,-0.76,8.17
26.60977816581726,-3.47,-7.6,-0.57,8.37
26.625555992126465,-2.77,-8.53,-0.42,8.97
26.63010597229004,-2.45,-9.35,-0.51,9.67
26.64087414741516,-2.45,-9.72,-0.51,10.03
26.67593002319336,-2.68,-9.22,0.17,9.6
26.67732310295105,-2.63,-8.23,0.88,8.68
26.678344249725342,-1.53,-7.55,0.85,7.75
26.69260811805725,0.42,-6.77,0.46,6.79
26.693695068359375,2.39,-5.62,0.04,6.1
26.708596229553223,4.34,-3.84,-0.17,5.79
26.709643125534058,6.74,-1.55,0.03,6.91
26.725457191467285,9.21,0.53,0.02,9.22
26.729337215423584,11.09,2.33,-0.19,11.33
26.741021156311035,12.49,4.21,-0.76,13.2
26.776371955871582,13.81,5.89,-1.81,15.12
26.77780294418335,15.18,7.22,-3.05,17.08
26.77881622314453,16.32,8.06,-4.63,18.78
26.792860984802246,17.62,8.71,-5.18,20.32
26.793949127197266,19.15,8.61,-5.64,21.74
26.80850315093994,18.91,9.59,-4.2,21.61
26.809765100479126,13.38,14.39,-1.43,19.7
26.825793266296387,0.24,5.21,-3.73,6.41
26.8286771774292,-11.87,15.61,-5.66,20.41
26.840957164764404,-9.92,38.2,1.59,39.49
26.848438262939453,-8.64,28.62,1.9,29.95
26.88454008102417,-6.3,6.98,-8.17,12.45
26.88570809364319,3.47,4.16,-4.52,7.05
26.886940956115723,7.55,-2.22,0.86,7.91
26.888541221618652,9.72,-6.89,3.13,12.31
26.897866249084473,11.35,-9.01,3.36,14.87
26.90786600112915,11.37,-9.16,2.18,14.76
26.917678117752075,8.34,-6.51,1.92,10.75
26.928102016448975,3.12,-2.68,0.9,4.21
26.937965154647827,-0.25,1.02,-0.43,1.13
26.94762897491455,-1.35,3.79,-1.65,4.34
26.978328227996826,-1.88,4.18,-2.78,5.36
26.979644060134888,-0.76,2.56,-1.61,3.11
26.980648040771484,1.39,-0.32,-0.27,1.45
26.9917950630188,2.57,-1.88,0.78,3.27
26.99700927734375,2.22,-1.82,1.08,3.06
27.008326053619385,0.94,-0.79,0.54,1.34
27.017099142074585,0.12,0.4,-0.55,0.69
27.027008056640625,0.07,0.9,-1.26,1.55
27.037147998809814,0.38,0.66,-1.05,1.29
27.047070026397705,0.44,0.19,-0.34,0.58
27.080762147903442,0.1,-0.07,0.35,0.37
27.082173109054565,-0.29,-0.04,0.65,0.71
27.083226203918457,-0.39,0.04,0.41,0.56
27.09295105934143,-0.2,0.06,0.03,0.21
27.096225261688232,0.07,0.0,-0.25,0.25
27.107952117919922,0.27,-0.08,-0.39,0.48
27.11639714241028,0.33,-0.12,-0.32,0.47
27.126336097717285,0.27,-0.02,-0.24,0.36
27.13618516921997,0.07,0.03,-0.25,0.26
27.146416187286377,-0.23,0.1,-0.13,0.28
27.178349018096924,-0.55,0.27,0.27,0.66
27.179652214050293,-0.81,0.51,0.47,1.06
27.180654048919678,-0.97,0.63,0.4,1.22
27.192785263061523,-1.11,0.68,0.16,1.31
27.19547128677368,-1.28,0.71,0.12,1.46
27.208595275878906,-1.42,0.68,0.03,1.57
27.21599507331848,-1.52,0.53,-0.02,1.6
27.226044178009033,-1.6,0.48,-0.16,1.67
27.23562526702881,-1.58,0.58,-0.6,1.78
27.245691061019897,-1.63,1.08,-0.57,2.03
27.282845973968506,-1.59,1.69,-0.53,2.38
27.284192085266113,-1.77,1.69,-0.65,2.53
27.28516411781311,-2.08,2.0,-0.03,2.88
27.288735151290894,-2.36,2.05,0.42,3.15
27.30857014656067,-2.51,2.15,0.96,3.44
27.309653282165527,-2.31,2.3,0.77,3.34
27.325785160064697,-2.11,2.26,0.13,3.09
27.32724905014038,-2.24,2.62,-0.04,3.44
27.34128212928772,-2.62,2.95,-0.15,3.94
27.344726085662842,-3.14,3.33,-0.4,4.59
27.385457038879395,-3.73,3.73,-0.68,5.31
27.386613130569458,-4.46,4.19,-0.54,6.14
27.387575149536133,-5.43,4.96,-0.04,7.35
27.39010715484619,-6.61,6.51,0.84,9.31
27.39416217803955,-8.21,9.14,1.4,12.36
27.404399156570435,-10.28,11.67,-0.12,15.55
27.414307117462158,-12.04,12.45,-2.95,17.56
27.425137996673584,-13.53,12.54,-4.25,18.93
27.434157133102417,-14.77,12.72,-4.2,19.93
27.444035053253174,-15.26,14.43,-3.43,21.28
27.480770111083984,-13.39,17.71,-2.04,22.29
27.481987953186035,-6.77,18.53,-4.79,20.3
27.483004093170166,0.49,15.6,-9.62,18.33
27.492690086364746,4.04,10.22,-7.98,13.58
27.49371910095215,2.16,4.49,-5.88,7.7
27.508804082870483,-1.12,0.0,-3.08,3.27
27.513180255889893,3.02,3.02,-0.28,4.28
27.52593994140625,6.29,0.14,4.28,7.6
27.53327703475952,1.97,-4.33,-1.08,4.87
27.54324197769165,-3.63,-2.4,-1.29,4.53
27.581478118896484,-6.86,0.92,2.37,7.31
27.58279323577881,-9.62,0.34,0.62,9.64
27.583855152130127,-10.88,-1.22,-0.1,10.94
27.589895248413086,-10.41,-2.87,0.63,10.81
27.592617988586426,-8.6,-4.26,2.43,9.9
27.609042167663574,-7.28,-5.71,3.88,10.03
27.612410068511963,-6.71,-6.95,4.68,10.73
27.625924110412598,-6.33,-7.43,4.79,10.87
27.632912158966064,-5.9,-7.15,4.4,10.26
27.642457008361816,-5.75,-6.85,3.02,9.43
27.652260065078735,-5.87,-6.6,1.46,8.95
27.685582160949707,-6.05,-6.23,0.34,8.69
27.686740159988403,-6.19,-6.04,-0.42,8.65
27.68793511390686,-5.8,-5.98,-0.61,8.35
27.692005157470703,-4.88,-6.23,-0.59,7.93
27.702089071273804,-3.84,-7.14,-0.55,8.12
27.71199107170105,-3.04,-8.32,-0.86,8.89
27.722195148468018,-2.54,-8.95,-0.86,9.34
27.73179817199707,-2.28,-8.66,0.0,8.95
27.741599082946777,-2.05,-7.85,0.55,8.13
27.751769065856934,-1.34,-7.09,0.2,7.21
27.78420114517212,-0.01,-6.13,-0.13,6.13
27.785305976867676,1.55,-4.67,-0.13,4.92
27.78650212287903,3.2,-3.16,-0.08,4.49
27.79115915298462,5.1,-1.57,-0.21,5.34
27.809205055236816,7.36,0.02,-0.41,7.37
27.81082820892334,9.93,1.53,-0.84,10.08
27.8261981010437,12.22,2.94,-1.39,12.64
27.83115005493164,14.06,4.02,-1.97,14.75
27.841639041900635,15.42,4.6,-3.14,16.39
27.851099014282227,16.66,4.56,-3.82,17.69
27.882728099822998,17.88,4.56,-4.22,18.92
27.88390827178955,18.91,4.85,-4.52,20.03
27.88506507873535,20.05,4.64,-4.22,21.0
27.890352249145508,21.04,3.99,-3.82,21.75
27.90049409866333,21.16,3.14,-2.64,21.55
27.910240173339844,13.65,5.51,2.62,14.95
27.920337200164795,-1.78,3.82,4.63,6.26
27.930610179901123,-17.46,4.22,-2.82,18.18
27.940539121627808,-20.22,29.48,-1.02,35.76
27.95096707344055,-17.16,41.37,5.71,45.15
27.98144006729126,-13.93,21.96,-7.97,27.19
27.98284912109375,-5.15,2.97,-7.74,9.75
27.983909130096436,2.71,-4.2,-1.6,5.24
27.990169048309326,8.87,-3.2,0.84,9.46
27.99970507621765,11.48,-6.89,2.13,13.55
28.009489059448242,14.12,-10.76,0.71,17.76
28.019433975219727,14.9,-9.22,0.82,17.54
28.0298330783844,11.84,-4.29,1.34,12.66
28.03979206085205,5.88,-0.88,0.43,5.96
28.049557209014893,1.33,1.26,-0.68,1.95
28.088074207305908,-1.31,3.48,-1.75,4.1
28.08936595916748,-2.94,3.97,-2.6,5.58
28.090378284454346,-2.79,2.49,-1.86,4.17
28.10933208465576,-0.51,0.17,-0.22,0.58
28.110400199890137,1.46,-1.72,1.39,2.64
28.12578511238098,1.7,-2.61,2.08,3.74
28.1268310546875,0.86,-1.85,1.33,2.43
28.142905235290527,0.3,-0.23,-0.4,0.55
28.14439606666565,0.12,1.06,-1.82,2.1
28.158414125442505,0.27,1.29,-1.9,2.31
28.186869144439697,0.65,0.52,-0.57,1.0
28.18812322616577,0.95,-0.36,0.43,1.1
28.18910503387451,0.72,-0.74,0.6,1.19
28.209657192230225,0.15,-0.32,0.28,0.45
28.210742950439453,-0.23,0.25,-0.03,0.34
28.22541618347168,-0.41,0.39,-0.16,0.58
28.226482152938843,-0.56,0.25,-0.05,0.61
28.243194103240967,-0.78,0.13,0.15,0.8
28.244606018066406,-0.94,0.28,0.25,1.01
28.257626056671143,-0.97,0.52,-0.06,1.1
28.285737991333008,-0.72,0.56,-0.44,1.01
28.287168979644775,-0.35,0.54,-0.31,0.71
28.288105964660645,-0.25,0.42,0.15,0.51
28.290266036987305,-0.37,0.34,0.6,0.78
28.297519207000732,-0.44,0.37,0.72,0.92
28.30711793899536,-0.58,0.35,0.16,0.69
28.317500114440918,-0.95,0.37,-0.49,1.13
28.32723307609558,-1.35,0.57,-0.62,1.59
28.337239265441895,-1.5,0.63,-0.56,1.72
28.347307205200195,-1.26,0.55,-0.44,1.44
28.383365154266357,-0.77,0.61,-0.49,1.09
28.38468599319458,-0.48,0.92,-0.48,1.14
28.38566827774048,-0.9,1.27,-0.41,1.6
28.389039039611816,-2.26,1.65,0.35,2.82
28.406352043151855,-3.53,2.3,0.94,4.31
28.407345056533813,-3.55,2.68,0.23,4.45
28.422903060913086,-2.75,2.75,-0.95,4.0
28.426416158676147,-2.11,3.22,-0.99,3.97
28.44204616546631,-2.36,3.72,-0.78,4.47
28.446657180786133,-3.22,3.98,-0.27,5.12
28.458014011383057,-4.17,4.3,0.07,5.99
28.488518238067627,-5.0,4.78,0.21,6.92
28.48983907699585,-5.72,5.63,0.31,8.03
28.490838050842285,-6.74,6.99,0.48,9.72
28.509705066680908,-8.16,9.62,1.32,12.68
28.510761260986328,-9.84,12.73,0.4,16.09
28.524699211120605,-11.7,13.35,-3.28,18.05
28.525771141052246,-13.4,13.05,-5.34,19.45
28.54015016555786,-14.39,12.13,-5.42,19.58
28.54581594467163,-14.97,12.14,-5.35,20.0
28.55623197555542,-14.42,15.34,-3.7,21.37
28.58721399307251,-9.38,20.06,-2.7,22.3
28.588669061660767,-1.76,18.69,-9.22,20.91
28.589684009552002,2.83,11.3,-11.57,16.41
28.6097092628479,2.15,4.58,-8.46,9.85
28.61075711250305,-0.9,-0.06,-5.2,5.27
28.626283168792725,2.47,3.17,0.23,4.02
28.627357006072998,4.55,-0.49,5.38,7.06
28.643519163131714,0.67,-5.82,-0.32,5.86
28.64503312110901,-3.88,-5.11,-1.23,6.53
28.658628940582275,-7.05,-1.7,1.73,7.45
28.685830116271973,-9.87,-0.89,0.33,9.91
28.68699598312378,-11.5,-1.59,-0.77,11.63
28.687777042388916,-11.29,-2.91,-0.63,11.67
28.694526195526123,-8.97,-4.29,1.02,9.99
28.70458698272705,-6.45,-5.81,2.97,9.17
28.71471405029297,-5.26,-7.43,3.95,9.92
28.724467277526855,-5.12,-8.45,4.15,10.71
28.7345552444458,-5.31,-8.52,3.91,10.77
28.744460105895996,-5.39,-7.69,2.81,9.8
28.754443168640137,-5.18,-6.73,1.18,8.57
28.784687995910645,-4.92,-6.13,-0.36,7.86
28.785860061645508,-4.64,-5.76,-1.24,7.49
28.787106037139893,-4.37,-5.74,-1.4,7.34
28.79374122619629,-4.23,-6.16,-1.16,7.56
28.809661149978638,-3.99,-6.65,-0.66,7.78
28.81331515312195,-3.41,-7.08,-0.2,7.86
28.82405710220337,-2.6,-7.64,0.03,8.07
28.833738088607788,-1.82,-8.24,0.06,8.43
28.843482971191406,-1.35,-8.75,-0.15,8.85
28.853576183319092,-1.26,-8.57,-0.05,8.66
28.890424251556396,-1.35,-7.55,0.67,7.69
28.891600131988525,-0.83,-6.5,1.02,6.63
28.892624139785767,0.62,-5.5,0.87,5.6
28.91030502319336,2.05,-4.35,0.63,4.84
28.911384105682373,3.87,-2.42,0.65,4.61
28.926021099090576,6.41,-0.27,0.83,6.46
28.9270761013031,8.83,1.56,1.09,9.03
28.942952156066895,10.44,3.47,1.56,11.11
28.94441795349121,11.32,5.17,1.66,12.55
28.95840811729431,11.97,6.27,0.98,13.54
28.989959239959717,13.14,7.3,0.05,15.03
28.991422176361084,14.92,8.49,-0.19,17.16
28.99243402481079,16.54,9.28,-0.09,18.96
29.010786056518555,17.78,9.41,-0.02,20.11
29.011839151382446,18.59,8.49,0.15,20.43
29.026182174682617,18.6,6.1,0.44,19.57
29.027238130569458,16.59,7.58,-1.09,18.27
29.04251718521118,8.26,0.2,-7.11,10.9
29.043989181518555,-7.63,-8.11,-11.87,16.27
29.05878496170044,-17.29,14.46,-11.68,25.38
29.090249061584473,-15.6,41.75,8.37,45.34
29.091535091400146,-13.78,35.87,7.15,39.08
29.092579126358032,-8.52,10.39,-3.72,13.94
29.110207080841064,-0.52,-0.63,-1.3,1.53
29.111258029937744,5.43,-3.34,-0.78,6.42
29.126283168792725,8.26,-8.68,-0.58,11.99
29.12733006477356,10.54,-10.96,-1.27,15.25
29.143142223358154,12.15,-8.96,-0.25,15.09
29.14463520050049,11.83,-4.65,2.07,12.87
29.15877914428711,7.79,-1.06,2.11,8.14
29.188486099243164,2.82,0.23,0.39,2.85
29.18979811668396,-0.24,1.87,-0.89,2.08
29.190744161605835,-1.74,3.43,-2.35,4.5
29.209968090057373,-2.07,3.04,-1.94,4.15
29.21100616455078,-0.34,0.7,-0.44,0.89
29.22639012336731,1.74,-1.48,0.74,2.4
29.227417945861816,2.45,-2.23,1.81,3.77
29.24328899383545,1.93,-1.76,1.47,2.99
29.244758129119873,1.02,-0.34,0.49,1.18
29.258787155151367,0.48,0.76,-0.16,0.91
29.260329246520996,0.48,0.5,-0.85,1.09
29.304522037506104,0.45,-0.21,-0.96,1.08
29.305673122406006,0.14,-0.25,-0.55,0.62
29.306705951690674,0.1,-0.16,-0.44,0.47
29.32688808441162,0.31,0.0,0.13,0.33
29.32794427871704,0.3,0.13,0.83,0.89
29.343090057373047,-0.06,0.05,1.21,1.21
29.34455108642578,-0.34,0.04,1.22,1.26
29.360209941864014,-0.55,0.05,0.63,0.83
29.36169409751892,-0.69,0.15,-0.46,0.84
29.37564206123352,-0.71,0.52,-0.8,1.18
29.40648603439331,-0.76,0.71,-0.84,1.33
29.407762050628662,-0.66,0.59,-0.94,1.29
29.408756256103516,-0.21,0.36,-0.68,0.79
29.4271981716156,0.03,0.22,-0.09,0.23
29.428280115127563,-0.35,0.19,0.44,0.59
29.44306707382202,-1.12,0.31,0.39,1.22
29.444128036499023,-1.69,0.52,-0.25,1.78
29.459678173065186,-1.84,0.56,-1.09,2.21
29.461151123046875,-1.68,0.69,-1.46,2.33
29.475670099258423,-1.43,0.9,-1.18,2.06
29.50399398803711,-1.4,0.92,-0.67,1.8
29.505316257476807,-1.55,0.85,-0.27,1.78
29.50631308555603,-1.78,0.89,-0.03,1.99
29.52721118927002,-1.9,1.1,0.1,2.19
29.52822709083557,-1.92,1.31,-0.06,2.32
29.543179988861084,-2.31,1.96,0.16,3.03
29.54422426223755,-2.36,2.56,-0.27,3.49
29.56033706665039,-2.22,2.95,-0.38,3.71
29.561866283416748,-2.33,3.15,0.08,3.91
29.575791120529175,-2.57,3.31,0.4,4.2
29.604698181152344,-2.98,3.41,0.12,4.53
29.606160163879395,-3.47,3.6,-0.18,5.0
29.60720705986023,-4.17,4.14,-0.31,5.88
