time,ax,ay,az,atotal
0.008800029754638672,-0.14,-0.83,0.14,0.85
0.019743919372558594,0.38,0.02,0.53,0.65
0.044413089752197266,0.02,1.44,-0.93,1.71
0.045907020568847656,-0.53,1.23,-1.29,1.85
0.04786396026611328,-0.57,0.1,0.2,0.61
0.06592416763305664,-0.04,-0.36,0.66,0.75
0.06789803504943848,0.42,-0.42,-0.29,0.66
0.08319711685180664,0.31,-0.02,-0.54,0.62
0.08794713020324707,-0.08,0.3,-0.11,0.32
0.09984016418457031,-0.14,0.19,-0.04,0.23
0.10765910148620605,0.23,-0.24,-0.27,0.42
0.11806392669677734,0.49,-0.08,-0.04,0.49
0.1545429229736328,0.28,-0.16,0.33,0.46
0.15649104118347168,0.13,-0.18,0.47,0.51
0.15807104110717773,0.1,-0.27,0.4,0.49
0.16598892211914062,0.18,-0.2,0.3,0.4
0.16747403144836426,0.33,-0.09,0.33,0.47
0.18324995040893555,0.35,-0.12,0.47,0.59
0.18711090087890625,0.2,-0.22,0.62,0.68
0.1996469497680664,0.13,-0.34,0.37,0.51
0.20701813697814941,0.25,-0.14,0.06,0.29
0.21730422973632812,0.23,0.1,-0.03,0.25
0.2520132064819336,0.13,0.02,-0.06,0.14
0.2537801265716553,0.06,-0.11,0.0,0.12
0.25519514083862305,0.16,-0.17,0.14,0.27
0.25739407539367676,0.02,-0.17,0.25,0.3
0.2666740417480469,-0.16,-0.13,0.23,0.3
0.2763361930847168,-0.4,-0.09,0.4,0.57
0.2866370677947998,-0.6,-0.02,0.65,0.88
0.29647397994995117,-0.4,-0.09,0.47,0.62
0.3063812255859375,-0.12,-0.13,0.13,0.21
0.3161039352416992,-0.08,0.02,-0.19,0.2
0.34682703018188477,-0.06,0.18,-0.46,0.49
0.3485300540924072,-0.04,0.36,-0.32,0.48
0.349992036819458,-0.16,0.25,-0.03,0.29
0.3669009208679199,-0.46,0.06,0.27,0.53
0.3683960437774658,-0.68,-0.04,0.29,0.74
0.3830442428588867,-0.53,0.08,0.38,0.65
0.38573694229125977,-0.21,0.12,0.15,0.28
0.39858508110046387,-0.02,0.03,-0.04,0.05
0.4058809280395508,-0.05,0.02,0.02,0.05
0.4182760715484619,-0.15,-0.03,-0.03,0.15
0.4498162269592285,-0.24,0.03,0.04,0.24
0.4516172409057617,-0.28,0.09,0.0,0.29
0.45298290252685547,-0.39,0.07,-0.22,0.45
0.4671611785888672,-0.66,0.18,-0.41,0.79
0.46864795684814453,-0.92,0.29,-0.44,1.06
0.48293209075927734,-1.16,0.37,-0.4,1.28
0.4847712516784668,-1.29,0.41,-0.42,1.41
0.49845409393310547,-1.11,0.44,-0.29,1.22
0.5048201084136963,-0.58,0.2,0.1,0.62
0.5181450843811035,-0.04,-0.24,0.77,0.8
0.525115966796875,0.31,-0.6,1.5,1.64
0.5488419532775879,0.21,-0.76,1.76,1.92
0.5504579544067383,0.0,-0.67,1.29,1.45
0.5541620254516602,0.0,-0.45,0.63,0.77
0.5676889419555664,0.13,-0.19,0.27,0.35
0.5739810466766357,0.09,0.02,0.05,0.1
0.5841522216796875,-0.08,0.21,0.1,0.24
0.5942280292510986,-0.2,0.24,0.34,0.46
0.604640007019043,-0.23,-0.02,0.43,0.48
0.6168420314788818,-0.35,-0.21,0.36,0.54
0.6270122528076172,-0.54,-0.04,0.18,0.57
0.6504721641540527,-0.76,0.2,-0.09,0.79
0.6520471572875977,-0.95,0.33,-0.16,1.01
0.6538140773773193,-0.94,0.37,-0.16,1.02
0.6682581901550293,-0.45,0.12,-0.06,0.46
0.6736340522766113,0.21,-0.25,-0.07,0.33
0.6834211349487305,0.78,-0.4,-0.01,0.87
0.6932649612426758,0.95,-0.33,-0.23,1.03
0.7033329010009766,0.96,-0.11,-0.49,1.08
0.71333909034729,0.91,0.09,-0.7,1.15
0.7237861156463623,0.71,0.21,-0.64,0.97
0.7486929893493652,0.29,0.21,-0.52,0.63
0.7504150867462158,-0.07,0.23,-0.37,0.44
0.7527022361755371,-0.12,0.26,-0.37,0.46
0.7673211097717285,-0.21,0.23,-0.37,0.48
0.7727270126342773,-0.3,0.3,-0.52,0.67
0.7829031944274902,-0.06,0.32,-0.9,0.95
0.792788028717041,0.15,0.36,-0.98,1.05
0.8025650978088379,0.3,0.44,-0.74,0.91
0.8151512145996094,0.21,0.45,-0.67,0.83
0.8228390216827393,-0.02,0.52,-0.57,0.77
0.8478951454162598,-0.46,0.61,-0.78,1.09
0.8497140407562256,-0.91,0.71,-0.95,1.49
0.8521280288696289,-1.37,0.98,-0.82,1.87
0.8674020767211914,-1.52,1.17,-0.73,2.05
0.8719720840454102,-1.5,1.08,-0.95,2.07
0.8832471370697021,-1.33,1.26,-1.11,2.14
0.8918509483337402,-0.97,1.72,-0.97,2.2
0.9018590450286865,-1.06,2.22,-1.21,2.74
0.9142780303955078,-1.64,3.2,-1.73,3.99
0.9220981597900391,-2.34,4.0,-2.01,5.05
0.9558470249176025,-3.74,4.79,-0.79,6.12
0.9576549530029297,-4.94,5.49,0.56,7.4
0.959191083908081,-5.18,4.92,-0.17,7.14
0.9631531238555908,-4.66,4.58,-0.66,6.56
0.9712080955505371,-3.89,4.43,-1.42,6.06
0.9833469390869141,-3.36,4.31,-1.87,5.77
0.9910540580749512,-3.39,4.43,-2.31,6.03
1.0008430480957031,-3.31,4.81,-2.98,6.55
1.010836124420166,-2.55,5.2,-3.53,6.78
1.0216400623321533,-1.6,4.72,-3.78,6.25
1.0544052124023438,-0.55,3.65,-3.63,5.17
1.0562009811401367,0.59,2.86,-3.07,4.23
1.0576419830322266,1.6,1.93,-2.34,3.42
1.0661070346832275,2.53,0.63,-2.58,3.66
1.0703959465026855,1.84,-0.94,-3.44,4.01
1.0813169479370117,0.3,-1.68,-2.77,3.25
1.0903120040893555,-0.79,-2.73,-1.92,3.42
1.100275993347168,1.03,-0.71,1.28,1.78
1.1100659370422363,1.67,-3.16,1.14,3.75
1.1205251216888428,-1.84,-5.37,-1.91,5.98
1.1546931266784668,-5.44,-4.76,-1.13,7.31
1.1565332412719727,-7.84,-3.68,-1.02,8.72
1.1580629348754883,-8.02,-2.68,-0.76,8.49
1.1672239303588867,-6.37,-2.69,-0.05,6.91
1.1695919036865234,-4.5,-3.64,1.04,5.88
1.1836941242218018,-3.59,-4.57,1.99,6.14
1.189317226409912,-3.56,-5.08,2.19,6.57
1.1993789672851562,-3.95,-5.14,2.0,6.78
1.2093901634216309,-4.3,-4.73,1.54,6.57
1.2192091941833496,-4.31,-4.07,0.78,5.97
1.250762939453125,-3.81,-3.41,0.93,5.19
1.2526741027832031,-2.97,-2.95,1.63,4.49
1.2541389465332031,-1.9,-2.87,1.92,3.94
1.2675280570983887,-1.0,-3.33,1.75,3.89
1.269024133682251,-0.65,-3.6,1.9,4.12
1.283520221710205,-1.17,-3.29,3.22,4.74
1.2886381149291992,-1.5,-3.29,4.51,5.78
1.2985730171203613,-1.27,-3.12,5.3,6.27
1.3092632293701172,-0.96,-2.72,5.58,6.28
1.3213341236114502,-0.56,-2.22,5.8,6.23
1.3316290378570557,0.25,-1.88,5.74,6.04
1.356344223022461,1.69,-2.04,5.36,5.97
1.3580260276794434,3.08,-2.05,4.58,5.88
1.3593990802764893,4.17,-1.91,3.64,5.85
1.3681092262268066,5.23,-2.16,2.76,6.29
1.3782219886779785,6.2,-2.56,2.02,7.0
1.3879570960998535,6.7,-2.82,1.41,7.4
1.3982250690460205,6.77,-3.09,0.67,7.47
1.4079761505126953,6.68,-3.29,0.23,7.44
1.4179511070251465,6.39,-3.47,0.13,7.27
1.4277229309082031,6.09,-3.31,0.09,6.93
1.455674171447754,5.71,-2.6,0.32,6.28
1.4573159217834473,6.02,-2.42,0.51,6.5
1.4587969779968262,6.83,-2.28,0.56,7.22
1.4672400951385498,7.52,-2.03,0.44,7.8
1.4773039817810059,6.48,-2.4,0.55,6.93
1.4874119758605957,-2.53,-0.84,-3.33,4.26
1.4974679946899414,-14.33,7.38,-14.01,21.35
1.507162094116211,-23.03,37.71,-15.8,46.92
1.5174369812011719,-10.55,65.09,10.72,66.8
1.5281391143798828,-2.7,26.64,-11.88,29.29
1.552016019821167,-0.98,-6.76,-10.34,12.39
1.5536952018737793,2.27,-16.69,1.96,16.95
1.5566349029541016,5.69,-21.33,7.94,23.46
1.5698890686035156,9.55,-20.49,11.96,25.57
1.576889991760254,7.61,-12.84,6.3,16.2
1.5865039825439453,2.65,-3.14,2.98,5.07
1.596769094467163,0.13,3.55,1.07,3.71
1.606356143951416,-0.8,7.17,-3.79,8.14
1.6190080642700195,-0.31,7.7,-5.54,9.49
1.6294069290161133,0.8,3.88,-2.3,4.58
1.6528692245483398,1.62,-0.35,2.52,3.01
1.6545300483703613,1.77,-2.91,4.15,5.36
1.6563670635223389,1.28,-3.33,2.19,4.18
1.6688661575317383,0.99,-1.32,0.19,1.66
1.6762051582336426,1.08,0.52,-1.31,1.77
1.6857531070709229,1.28,0.93,-1.78,2.38
1.6959400177001953,1.16,0.55,-0.95,1.59
1.7054719924926758,0.54,0.04,0.12,0.55
1.7161340713500977,-0.1,-0.06,0.4,0.41
1.7290902137756348,-0.31,0.14,0.25,0.42
1.7604620456695557,-0.1,0.34,0.1,0.36
1.7620980739593506,0.23,0.29,-0.28,0.46
1.7635531425476074,0.35,0.16,-0.68,0.78
1.7656850814819336,0.12,0.15,-0.79,0.81
1.7750182151794434,0.0,0.18,-0.6,0.62
1.78535795211792,0.01,0.14,-0.31,0.34
1.7950971126556396,-0.08,-0.04,-0.39,0.4
1.8047330379486084,-0.16,-0.1,-0.33,0.38
1.8148291110992432,-0.2,-0.06,-0.12,0.24
1.8246922492980957,-0.3,0.06,0.07,0.31
1.8554630279541016,-0.46,0.24,0.06,0.52
1.8573250770568848,-0.44,0.39,-0.06,0.59
1.8588862419128418,-0.35,0.43,-0.23,0.6
1.8675830364227295,-0.22,0.31,-0.37,0.53
1.8745851516723633,-0.16,0.18,-0.23,0.33
1.8843159675598145,-0.35,0.23,0.06,0.42
1.8940749168395996,-0.68,0.24,-0.06,0.72
1.9039011001586914,-0.87,0.24,-0.2,0.92
1.9147520065307617,-0.83,0.37,-0.2,0.93
1.9269180297851562,-0.74,0.47,-0.51,1.01
1.9543070793151855,-0.87,0.51,-0.81,1.29
1.9559712409973145,-1.28,0.64,-1.0,1.74
1.9577231407165527,-1.72,0.71,-1.14,2.18
1.968630075454712,-1.83,0.76,-1.13,2.28
1.973818063735962,-1.48,0.8,-0.89,1.9
1.98353910446167,-1.11,0.8,-0.61,1.49
1.9935789108276367,-1.3,0.73,-0.47,1.56
2.003314971923828,-1.68,0.8,-0.33,1.88
2.013484001159668,-1.68,0.95,-0.34,1.95
2.026113986968994,-1.54,1.09,-0.55,1.96
2.058279037475586,-1.25,1.33,-0.51,1.89
2.0599210262298584,-0.92,1.48,-0.3,1.76
2.061729907989502,-0.75,1.28,-0.58,1.59
2.063870906829834,-0.94,1.56,-0.23,1.83
2.0840182304382324,-1.46,1.92,-0.26,2.42
2.0855460166931152,-2.24,2.34,-0.68,3.3
2.099379062652588,-2.72,3.18,-0.72,4.24
2.1025009155273438,-2.98,3.85,-0.86,4.94
2.115262031555176,-3.59,4.88,-0.6,6.08
2.125263214111328,-4.86,6.27,-1.13,8.01
2.1346890926361084,-6.54,7.97,-1.68,10.44
2.158590078353882,-8.3,9.5,-2.95,12.95
2.1604151725769043,-9.68,10.44,-4.34,14.88
2.1621880531311035,-10.89,10.78,-4.6,15.99
2.1718292236328125,-11.73,11.37,-3.88,16.79
2.1834001541137695,-12.67,11.04,-4.12,17.3
2.1918702125549316,-12.81,10.31,-4.72,17.1
2.2020339965820312,-10.95,10.78,-4.23,15.93
2.212031126022339,-6.54,11.57,-4.21,13.94
2.2217230796813965,-0.69,10.81,-5.26,12.04
2.2319211959838867,4.79,11.0,-2.37,12.22
2.256162166595459,5.38,7.19,-1.87,9.17
2.25783109664917,0.23,-0.02,-7.09,7.09
2.261350154876709,-4.12,-1.3,-6.41,7.72
2.271389961242676,-1.41,4.3,0.11,4.52
2.2814550399780273,0.0,1.69,-0.87,1.9
2.2913870811462402,-2.53,-0.93,-3.99,4.81
2.3012452125549316,-4.72,-1.52,-3.38,6.0
2.311000108718872,-7.23,-2.22,-2.19,7.87
2.321485996246338,-9.61,-2.98,-1.72,10.2
2.3336219787597656,-10.56,-3.95,-1.13,11.33
2.3606181144714355,-9.46,-5.11,0.27,10.75
2.362274169921875,-7.18,-6.63,1.25,9.85
2.363797187805176,-5.44,-8.01,0.72,9.7
2.370540142059326,-5.08,-7.33,-0.22,8.92
2.380739212036133,-5.51,-5.48,-0.87,7.81
2.390522003173828,-6.02,-4.43,-1.52,7.62
2.4004549980163574,-5.99,-4.58,-2.23,7.86
2.4103190898895264,-5.09,-5.36,-2.92,7.94
2.4203150272369385,-4.28,-6.1,-3.38,8.18
2.430270195007324,-4.03,-6.67,-3.78,8.66
2.458095073699951,-4.14,-6.91,-3.81,8.91
2.4598002433776855,-4.08,-7.11,-3.68,8.98
2.46156907081604,-3.69,-7.39,-3.78,9.08
2.469921112060547,-3.06,-7.79,-4.0,9.27
2.484145164489746,-2.17,-8.11,-4.06,9.32
2.4899110794067383,-1.13,-8.23,-3.82,9.14
2.4995150566101074,-0.47,-8.29,-3.57,9.03
2.5095930099487305,-0.22,-8.26,-3.37,8.92
2.5199079513549805,-0.22,-8.11,-3.08,8.67
2.5321500301361084,-0.36,-7.48,-2.32,7.83
2.5620040893554688,-0.25,-6.59,-1.05,6.67
2.5636649131774902,0.59,-5.69,-0.36,5.73
2.565131187438965,1.52,-4.52,-0.63,4.81
2.5847339630126953,2.37,-2.84,-0.28,3.7
2.5862221717834473,3.74,-0.31,1.66,4.1
2.600506067276001,5.79,2.77,4.16,7.64
2.6020491123199463,8.21,5.68,6.04,11.66
2.6168951988220215,10.38,8.25,7.21,15.09
2.6192710399627686,11.82,10.64,7.96,17.78
2.6355042457580566,12.73,12.85,8.29,19.89
2.6606101989746094,13.36,15.08,8.27,21.77
2.662114143371582,15.16,17.25,9.5,24.85
2.663198947906494,16.62,17.51,8.2,25.49
2.668138027191162,16.41,18.63,2.48,24.95
2.6783931255340576,13.3,7.36,-9.62,17.98
2.688488006591797,-1.58,-5.34,-19.71,20.48
2.6982932090759277,-16.45,9.97,-20.23,27.91
2.7081360816955566,-15.31,39.07,15.03,44.57
2.718001127243042,-9.79,32.5,15.66,37.38
2.7277932167053223,-5.73,2.77,2.05,6.68
2.7615561485290527,0.56,-9.63,1.21,9.72
2.7635390758514404,8.54,-10.25,0.85,13.36
2.7649989128112793,12.88,-10.05,1.72,16.42
2.784986972808838,13.71,-7.88,1.64,15.89
2.7864532470703125,11.23,-1.68,1.84,11.5
2.8010261058807373,5.6,1.23,-0.21,5.73
2.8025331497192383,0.88,1.48,-2.27,2.84
2.816390037536621,-1.01,2.77,-1.73,3.41
2.8178601264953613,-0.75,2.56,0.7,2.75
2.833146095275879,0.32,0.11,2.65,2.67
2.863150119781494,0.74,-1.84,2.92,3.52
2.864579200744629,0.48,-2.31,1.95,3.06
2.8656370639801025,0.32,-1.06,0.44,1.19
2.884578227996826,0.6,0.43,-1.04,1.27
2.8860559463500977,0.67,0.98,-1.58,1.97
2.9008002281188965,0.5,0.58,-1.19,1.41
2.902271032333374,0.52,-0.15,-0.46,0.71
2.916511058807373,0.54,-0.56,-0.08,0.78
2.917994976043701,0.08,-0.47,-0.18,0.5
2.9361610412597656,-0.54,0.08,-0.24,0.59
2.9403371810913086,-0.83,0.58,0.27,1.04
2.971626043319702,-0.87,0.73,0.64,1.3
2.9732699394226074,-0.77,0.51,0.27,0.96
2.9745960235595703,-0.53,0.25,-0.3,0.65
2.984941005706787,-0.4,0.16,-0.79,0.89
2.9864420890808105,-0.5,0.22,-1.25,1.36
3.000880241394043,-0.57,0.4,-1.53,1.68
3.00577712059021,-0.6,0.53,-1.34,1.56
3.0156211853027344,-0.68,0.48,-0.92,1.24
3.0256950855255127,-0.98,0.43,-0.27,1.1
3.035651206970215,-1.41,0.46,0.29,1.51
3.065822124481201,-1.76,0.55,0.37,1.88
3.0676469802856445,-1.84,0.64,-0.22,1.96
3.06900691986084,-1.59,0.7,-0.84,1.92
3.0850539207458496,-1.25,0.64,-1.1,1.78
3.086527109146118,-0.64,0.52,-0.92,1.23
3.1008620262145996,-0.08,0.33,-0.6,0.68
3.10508394241333,0.05,0.26,-0.48,0.54
3.116399049758911,-0.22,0.3,-0.48,0.6
3.125030040740967,-0.7,0.49,-0.47,0.97
3.1352601051330566,-1.23,0.82,-0.36,1.52
3.1647000312805176,-1.71,1.23,-0.19,2.11
3.1665639877319336,-2.27,1.79,-0.16,2.89
3.1678860187530518,-2.47,2.46,0.18,3.49
3.1853079795837402,-2.5,3.06,0.17,3.95
3.186845064163208,-2.58,3.54,0.19,4.38
3.201169013977051,-3.1,3.72,0.0,4.84
3.204263210296631,-3.74,3.98,-0.42,5.47
3.2167210578918457,-4.2,4.19,-1.29,6.07
3.2241010665893555,-4.4,4.64,-2.03,6.7
3.234529972076416,-4.74,5.22,-2.48,7.47
3.2643651962280273,-5.42,6.08,-2.67,8.57
3.2662510871887207,-6.62,7.45,-2.75,10.33
3.267374038696289,-8.51,9.94,-1.92,13.22
3.2844691276550293,-10.75,13.06,-2.4,17.08
3.285952091217041,-12.68,14.21,-5.73,19.88
3.3013830184936523,-13.37,13.36,-8.01,20.52
3.303647041320801,-13.44,11.95,-8.28,19.79
3.3149209022521973,-12.96,11.43,-7.89,18.99
3.323521137237549,-9.74,13.59,-4.44,17.29
3.333656072616577,-3.82,14.75,-3.59,15.65
3.3682641983032227,1.25,12.73,-4.89,13.69
3.3699002265930176,1.93,6.84,-4.84,8.59
3.3709192276000977,-0.85,1.07,-5.18,5.35
3.384519100189209,-3.32,-2.72,-5.48,6.96
3.385991096496582,0.3,0.69,-0.69,1.02
3.401273250579834,4.85,-0.78,4.73,6.81
3.4028401374816895,1.84,-5.45,-0.78,5.8
3.4178762435913086,-3.33,-6.14,-3.04,7.61
3.422616958618164,-6.62,-4.55,-0.71,8.06
3.43282413482666,-8.91,-3.31,-0.54,9.52
3.4675111770629883,-10.52,-3.23,-0.61,11.02
3.4689059257507324,-10.59,-3.69,0.04,11.21
3.469933032989502,-8.23,-4.64,1.49,9.56
3.471867084503174,-5.61,-5.93,2.62,8.57
3.482461929321289,-4.5,-7.02,2.75,8.78
3.4921770095825195,-4.65,-7.16,2.23,8.82
3.502470016479492,-5.41,-6.01,1.58,8.23
3.5120201110839844,-5.81,-5.28,0.68,7.88
3.521933078765869,-5.91,-4.9,0.25,7.68
3.532142162322998,-5.18,-4.62,-0.66,6.97
3.5697431564331055,-4.27,-4.18,-1.08,6.07
3.571380138397217,-3.61,-4.18,-1.41,5.7
3.5726680755615234,-3.31,-4.18,-1.27,5.48
3.585937976837158,-2.79,-4.58,-1.02,5.45
3.5873842239379883,-1.82,-5.05,-0.91,5.44
3.600224018096924,-0.81,-5.58,-0.97,5.72
3.601682186126709,-0.19,-6.15,-1.08,6.24
3.6165120601654053,-0.01,-6.73,-1.19,6.83
3.6210601329803467,-0.09,-7.14,-1.01,7.21
3.63259220123291,-0.18,-7.07,-0.38,7.08
3.665220022201538,-0.16,-6.42,0.57,6.44
3.667069911956787,0.24,-5.63,1.27,5.77
3.6685380935668945,1.32,-4.93,1.04,5.2
3.6857872009277344,2.76,-3.91,0.85,4.86
3.6873040199279785,4.12,-2.29,1.52,4.95
3.701200008392334,5.4,-0.4,2.85,6.11
3.702625036239624,6.8,1.24,3.73,7.85
3.71665620803833,8.32,2.8,4.35,9.79
3.720283031463623,9.72,4.38,4.66,11.63
3.7327561378479004,11.13,5.54,4.29,13.15
3.740657091140747,12.98,6.47,3.9,15.01
3.779269218444824,15.3,7.18,3.69,17.29
3.780445098876953,17.58,7.63,3.32,19.44
3.781466007232666,19.2,7.75,2.88,20.9
3.8016700744628906,19.88,7.17,2.51,21.28
3.8031680583953857,18.51,7.73,2.13,20.17
3.817949056625366,12.52,8.88,-2.76,15.59
3.8194479942321777,0.02,-1.71,-12.82,12.93
3.833272933959961,-15.13,9.78,-20.54,27.32
3.8347830772399902,-19.27,52.37,4.97,56.02
3.849648952484131,-15.77,41.21,6.61,44.61
3.87558913230896,-7.3,2.02,-3.79,8.46
3.8769631385803223,1.53,-9.74,3.68,10.52
3.878021240234375,8.36,-13.25,5.59,16.63
3.8808722496032715,11.96,-14.75,5.88,19.87
3.901337146759033,13.27,-12.19,4.65,18.6
3.9028351306915283,10.13,-4.18,4.39,11.8
3.9166312217712402,5.25,0.99,2.65,5.96
3.9187731742858887,1.17,2.91,-1.0,3.29
3.9325480461120605,-1.03,4.19,-3.05,5.28
3.938894033432007,-0.73,3.86,-3.08,4.99
3.9781150817871094,1.39,1.49,-1.53,2.54
3.9793100357055664,2.54,-0.6,-0.16,2.61
3.980309009552002,2.02,-1.43,0.4,2.5
4.0021209716796875,0.9,-1.18,0.66,1.62
4.003605127334595,0.27,-0.53,0.67,0.89
4.017714977264404,0.27,-0.1,0.41,0.5
4.019092082977295,0.4,0.01,0.36,0.53
4.033119201660156,0.23,-0.02,0.32,0.39
4.034584045410156,-0.1,-0.04,0.41,0.42
4.049492120742798,-0.26,0.08,0.75,0.79
4.076779127120972,-0.24,0.14,0.63,0.68
4.078038215637207,-0.12,0.13,0.09,0.19
4.079067230224609,-0.09,0.15,-0.34,0.38
4.081655025482178,-0.22,0.26,-0.52,0.62
4.087334156036377,-0.25,0.35,-0.47,0.63
4.097394943237305,-0.25,0.21,-0.57,0.65
4.107551097869873,-0.37,0.1,-0.82,0.9
4.117424964904785,-0.42,0.21,-0.68,0.82
4.1271960735321045,-0.43,0.36,-0.25,0.61
4.137379169464111,-0.56,0.33,-0.06,0.65
4.17164421081543,-0.74,0.24,0.12,0.78
4.1729350090026855,-0.85,0.23,0.12,0.88
4.173890113830566,-0.98,0.31,0.04,1.02
4.18448805809021,-1.08,0.46,-0.21,1.19
4.1865081787109375,-1.2,0.55,-0.69,1.48
4.20021915435791,-1.34,0.61,-1.0,1.77
4.20684289932251,-1.52,0.58,-1.36,2.12
4.216536045074463,-1.78,0.6,-1.42,2.35
4.2266340255737305,-2.0,0.62,-1.27,2.44
4.236427068710327,-2.04,0.63,-0.9,2.31
4.270705223083496,-1.82,0.58,-0.76,2.05
4.272017955780029,-1.43,0.56,-0.95,1.8
4.273029088973999,-1.03,0.67,-0.9,1.52
4.285243988037109,-0.74,0.66,-0.76,1.24
4.28626823425293,-0.84,0.65,-0.53,1.18
4.301363945007324,-1.14,0.79,-0.27,1.41
4.305918216705322,-1.47,1.04,-0.31,1.82
4.316611051559448,-1.66,1.56,-0.06,2.27
4.325915098190308,-1.74,2.32,0.01,2.9
4.335729122161865,-1.78,2.62,-0.51,3.2
4.37047004699707,-2.19,3.41,-0.45,4.07
4.372302055358887,-3.06,3.75,-1.22,4.99
4.3735761642456055,-3.44,4.33,-1.29,5.67
4.38495397567749,-3.7,5.01,-1.44,6.39
4.386091232299805,-4.88,6.27,-1.65,8.11
4.401605129241943,-6.82,8.33,-1.7,10.89
4.405086994171143,-9.04,10.75,-2.05,14.19
4.416772127151489,-11.05,11.95,-4.12,16.78
4.425086975097656,-12.72,12.2,-5.06,18.33
4.4355010986328125,-13.8,12.45,-5.43,19.36
4.469581127166748,-14.63,11.81,-6.67,19.94
4.471189975738525,-14.55,11.36,-6.36,19.52
4.472209930419922,-11.97,11.83,-4.41,17.39
4.485575199127197,-6.37,12.3,-4.16,14.46
4.487051963806152,0.66,12.02,-5.6,13.27
4.501621246337891,5.22,10.51,-2.94,12.09
4.50432014465332,3.88,3.9,-3.14,6.33
4.516942977905273,-1.44,-2.08,-6.26,6.75
4.5242109298706055,-4.25,-3.88,-6.11,8.39
4.534191131591797,0.34,0.62,-0.65,0.96
4.54407811164856,2.97,-1.5,1.91,3.83
4.574695110321045,-1.42,-4.12,-3.05,5.31
4.575870037078857,-5.34,-4.33,-2.97,7.48
4.5772552490234375,-7.71,-3.38,-1.05,8.48
4.583442211151123,-10.04,-2.89,-1.49,10.55
4.593673229217529,-11.57,-2.96,-1.45,12.03
4.603666067123413,-10.56,-3.62,-0.32,11.16
4.6140711307525635,-7.8,-5.02,1.11,9.34
4.6233971118927,-5.42,-6.49,2.1,8.71
4.633714199066162,-4.81,-6.91,2.01,8.65
4.643465042114258,-5.13,-6.64,1.66,8.55
4.67288613319397,-5.19,-6.11,0.75,8.05
4.674017906188965,-4.99,-5.63,-0.22,7.52
4.67528510093689,-4.37,-5.46,-1.42,7.13
4.686010122299194,-3.83,-5.24,-2.01,6.79
4.693178176879883,-3.62,-5.37,-2.26,6.85
4.702954053878784,-3.61,-5.69,-2.22,7.09
4.713004112243652,-3.46,-6.13,-2.05,7.33
4.722832202911377,-3.04,-6.59,-1.9,7.5
4.733001232147217,-2.52,-7.13,-1.78,7.76
4.742722034454346,-2.18,-7.73,-1.8,8.23
4.773611068725586,-2.15,-8.16,-1.68,8.6
4.774923086166382,-2.17,-7.88,-1.07,8.24
4.77593207359314,-1.85,-6.95,-0.2,7.19
4.782834053039551,-0.59,-6.15,0.06,6.17
4.792540073394775,1.46,-5.53,-0.71,5.76
4.802025079727173,3.21,-4.62,-1.21,5.75
4.81214714050293,4.41,-2.9,-0.85,5.34
4.821977138519287,5.89,-0.59,0.18,5.92
4.832279205322266,8.26,1.79,1.52,8.58
4.84197998046875,10.88,3.8,2.2,11.73
4.872857093811035,13.49,5.7,3.13,14.97
4.874268054962158,15.53,7.28,3.48,17.5
4.875303030014038,16.55,8.21,3.12,18.73
4.885544061660767,17.04,9.26,3.52,19.71
4.891729116439819,17.82,9.73,3.89,20.67
4.901413917541504,19.08,9.33,4.74,21.76
4.911471128463745,19.8,8.41,5.2,22.13
4.9212000370025635,16.97,9.68,3.95,19.93
4.93147611618042,8.8,8.41,0.36,12.17
4.941410064697266,-3.49,-3.3,-8.66,9.9
4.983395099639893,-19.43,4.76,-19.81,28.15
4.9852399826049805,-25.16,38.59,1.29,46.08
4.9862961769104,-16.95,40.44,14.95,46.32
5.002608060836792,-6.31,8.03,-0.94,10.25
5.004065036773682,5.81,-2.15,3.3,7.01
5.018086910247803,10.76,-9.76,3.79,15.01
5.019551038742065,12.8,-12.56,1.31,17.98
5.030354022979736,12.91,-10.5,1.37,16.69
5.031270980834961,9.84,-4.91,3.62,11.57
5.04729700088501,3.91,-1.55,2.55,4.91
5.07492208480835,-0.33,0.38,0.66,0.83
5.077030181884766,-2.17,2.93,-1.16,3.82
5.078526020050049,-2.08,4.05,-1.98,4.96
5.082334041595459,-0.1,2.46,-1.88,3.09
5.101936101913452,1.99,-0.11,-0.56,2.07
5.1034321784973145,2.23,-1.69,0.88,2.93
5.1173930168151855,0.95,-1.8,1.07,2.29
5.119740009307861,-0.18,-0.73,0.63,0.98
5.13348913192749,0.05,0.29,-0.11,0.31
5.139552116394043,0.7,0.33,-0.6,0.97
5.181899070739746,0.95,0.09,-0.23,0.98
5.183067083358765,0.49,-0.01,0.09,0.49
5.1840620040893555,-0.05,0.15,0.28,0.32
5.202491044998169,-0.06,0.22,-0.16,0.27
5.203557968139648,0.22,0.1,-0.35,0.42
5.218282222747803,0.15,0.05,-0.06,0.16
5.2197771072387695,-0.25,0.07,0.12,0.28
5.234102249145508,-0.44,0.17,0.36,0.59
5.23554801940918,-0.28,0.12,0.04,0.3
5.249942064285278,0.0,0.09,-0.57,0.57
5.275938034057617,0.11,0.15,-0.93,0.94
5.277374029159546,-0.05,0.19,-0.79,0.81
5.278422117233276,-0.5,0.34,-0.26,0.65
5.28125,-0.98,0.49,0.12,1.1
5.301486968994141,-1.0,0.52,0.11,1.13
5.3025431632995605,-0.67,0.5,-0.03,0.83
5.317300081253052,-0.47,0.53,-0.1,0.71
5.318780899047852,-0.59,0.54,-0.35,0.87
5.3334290981292725,-0.91,0.5,-0.63,1.21
5.338020086288452,-1.31,0.49,-0.75,1.58
5.35007905960083,-1.55,0.62,-0.74,1.82
5.378032207489014,-1.51,0.77,-0.81,1.87
5.379434108734131,-1.36,0.91,-0.89,1.86
5.380445957183838,-1.24,1.0,-1.19,1.98
5.38756799697876,-1.28,0.98,-1.46,2.17
5.397757053375244,-1.43,1.01,-1.36,2.21
5.407624244689941,-1.91,1.19,-1.03,2.47
5.417596101760864,-2.27,1.59,-0.64,2.84
5.427608966827393,-2.41,2.1,-0.62,3.25
5.437472105026245,-2.2,2.78,-0.21,3.55
5.44755220413208,-2.19,2.89,-0.4,3.64
5.476598024368286,-2.56,2.94,-0.37,3.91
5.4777960777282715,-3.16,3.14,-0.55,4.48
5.479033946990967,-3.75,3.46,-1.19,5.23
5.486702919006348,-4.19,4.02,-1.76,6.06
5.5027031898498535,-4.53,4.82,-2.23,6.98
5.5066680908203125,-5.1,6.24,-2.52,8.44
5.517518043518066,-6.3,8.5,-2.74,10.92
5.527029037475586,-8.11,10.86,-4.06,14.14
5.536700248718262,-10.06,12.14,-6.09,16.9
5.547253131866455,-11.54,12.89,-6.93,18.63
5.577388048171997,-11.8,12.87,-7.64,19.05
5.578574180603027,-11.42,11.54,-8.86,18.49
5.579809188842773,-11.04,10.03,-9.55,17.71
5.586075067520142,-9.49,11.53,-6.66,16.35
5.596062183380127,-5.26,15.12,-2.4,16.18
5.606257915496826,0.67,13.91,-4.91,14.76
5.615973949432373,2.83,6.98,-8.16,11.1
5.62600302696228,0.0,0.68,-7.45,7.48
5.636064052581787,-3.85,-2.65,-4.46,6.46
5.645750045776367,-0.87,1.34,3.02,3.41
5.676650047302246,2.65,-0.85,6.34,6.92
5.677861213684082,-0.78,-6.09,-1.25,6.26
5.679112911224365,-4.82,-6.16,-3.18,8.44
5.685287952423096,-7.76,-3.42,-1.31,8.58
5.701805114746094,-9.99,-1.77,-0.94,10.18
5.705038070678711,-10.74,-1.43,-0.37,10.84
5.717466115951538,-8.79,-2.75,0.02,9.21
5.725609064102173,-5.74,-4.86,0.9,7.57
5.735047101974487,-4.28,-6.47,1.42,7.88
5.745119094848633,-4.62,-7.31,1.75,8.82
5.782388210296631,-5.29,-7.24,1.35,9.06
5.783617973327637,-5.65,-6.6,0.87,8.73
5.784631252288818,-5.5,-6.17,0.12,8.26
5.802654027938843,-5.2,-5.72,-0.03,7.73
5.803735256195068,-4.97,-5.85,-0.63,7.7
5.818178176879883,-4.39,-6.37,-1.32,7.84
5.819669246673584,-4.36,-6.32,-1.29,7.78
5.834139108657837,-4.44,-6.66,-1.12,8.08
5.835607051849365,-4.24,-7.09,-1.0,8.32
5.850268125534058,-3.81,-7.3,-0.86,8.27
5.8817219734191895,-3.33,-7.63,-0.75,8.35
5.883165121078491,-2.94,-8.1,-0.58,8.63
5.884170055389404,-2.69,-8.44,-0.19,8.86
5.902316093444824,-2.54,-8.52,0.42,8.9
5.903346061706543,-2.16,-8.09,0.98,8.43
5.918838024139404,-1.3,-7.0,1.58,7.29
5.920332908630371,0.07,-5.58,1.35,5.74
5.934309005737305,1.97,-4.02,1.25,4.64
5.9357850551605225,4.4,-2.25,1.82,5.26
5.950390100479126,7.37,-0.14,2.81,7.88
5.980129241943359,10.56,2.07,3.76,11.39
5.981472969055176,12.79,4.21,4.47,14.18
5.982510089874268,14.27,6.48,5.43,16.58
6.002362251281738,14.71,8.8,5.35,17.95
6.003446102142334,14.88,11.28,5.24,19.39
6.0178542137146,15.21,13.37,4.82,20.81
6.019392967224121,16.48,13.6,4.57,21.85
6.032351016998291,16.75,12.72,3.19,21.27
6.033936977386475,14.98,15.22,0.19,21.35
6.0508131980896,8.98,5.96,-10.57,15.09
6.081607103347778,-7.92,0.34,-19.43,20.98
6.082963943481445,-18.06,29.84,-6.84,35.54
6.084017038345337,-14.5,46.01,10.72,49.41
6.102598190307617,-6.74,11.56,1.7,13.48
6.1036200523376465,2.22,-4.46,4.98,7.04
6.119064092636108,9.52,-7.05,6.5,13.51
6.120573997497559,11.88,-11.19,3.45,16.68
6.134191036224365,11.93,-10.94,1.0,16.21
6.135666131973267,9.06,-4.62,0.57,10.18
6.150589942932129,4.22,0.13,1.52,4.48
6.15208101272583,0.72,2.01,0.46,2.18
6.1962151527404785,-1.1,2.9,-1.36,3.38
6.197361946105957,-0.91,2.68,-1.47,3.18
6.19835090637207,0.74,1.36,-1.22,1.97
6.219796180725098,2.02,-0.05,-0.82,2.18
6.221320152282715,1.98,-0.91,-0.41,2.21
6.235414028167725,1.26,-0.98,-0.02,1.59
6.236883163452148,0.6,-0.52,0.62,1.0
6.2510881423950195,0.12,-0.27,1.04,1.08
6.252562999725342,-0.01,-0.25,1.12,1.14
6.267436981201172,0.12,-0.29,0.88,0.93
6.297911167144775,0.38,-0.2,0.59,0.72
6.299259185791016,0.51,-0.1,0.45,0.68
6.300342082977295,0.52,-0.03,0.47,0.7
6.319180011749268,0.44,0.01,0.52,0.68
6.320240020751953,0.24,-0.06,0.22,0.33
6.33551025390625,-0.02,0.01,-0.24,0.24
6.336911201477051,-0.24,0.22,-0.63,0.7
6.3509790897369385,-0.39,0.37,-0.97,1.1
6.352435111999512,-0.53,0.43,-1.22,1.39
6.367382049560547,-0.63,0.47,-1.15,1.39
6.396351099014282,-0.65,0.45,-0.9,1.19
6.397627115249634,-0.53,0.42,-0.33,0.75
6.3986711502075195,-0.39,0.32,0.22,0.55
6.419195175170898,-0.36,0.2,0.09,0.42
6.4202189445495605,-0.4,0.18,-0.3,0.53
6.435459136962891,-0.75,0.28,-0.59,0.99
6.436939239501953,-1.15,0.48,-0.7,1.42
6.451030254364014,-1.24,0.56,-0.72,1.53
6.4524431228637695,-1.22,0.47,-0.68,1.47
6.467349052429199,-1.24,0.34,-0.73,1.47
6.498035907745361,-1.32,0.24,-0.89,1.61
6.499418020248413,-1.72,0.41,-0.95,2.0
6.500391960144043,-2.07,0.75,-1.05,2.43
6.519917011260986,-1.99,0.96,-0.92,2.39
6.521335124969482,-1.7,0.9,-0.8,2.08
6.535651206970215,-1.5,0.72,-0.7,1.8
6.537134170532227,-1.38,0.69,-0.69,1.69
6.551074028015137,-1.27,0.87,-0.96,1.81
6.552553176879883,-1.3,1.24,-1.44,2.3
6.567277908325195,-1.47,1.74,-1.72,2.85
6.5980610847473145,-1.49,2.37,-1.95,3.41
6.599358081817627,-1.8,3.08,-1.9,4.04
6.6003241539001465,-2.49,4.14,-1.42,5.03
6.620675086975098,-3.17,5.13,-0.88,6.09
6.622107982635498,-4.17,5.45,-0.93,6.92
6.635804176330566,-5.21,6.01,-0.41,7.96
6.637218952178955,-6.1,7.52,-0.21,9.68
6.651411056518555,-7.17,9.32,-1.28,11.82
6.653025150299072,-8.32,10.86,-3.07,14.02
6.667572975158691,-9.37,11.83,-4.67,15.79
6.698627948760986,-10.67,12.26,-5.81,17.26
6.6999640464782715,-11.86,12.27,-7.14,18.49
6.700973033905029,-12.04,11.72,-9.34,19.22
6.719573974609375,-11.26,10.12,-10.73,18.55
6.7205891609191895,-10.08,9.16,-9.71,16.72
6.73601508140564,-7.23,11.02,-5.43,14.25
6.737488031387329,-2.69,13.34,-2.54,13.84
6.7511820793151855,1.02,10.6,-5.1,11.8
6.752661228179932,0.57,4.07,-6.66,7.82
6.767344951629639,-2.53,-1.25,-5.48,6.16
6.796407222747803,-3.5,-1.69,-2.97,4.89
6.7978129386901855,1.44,2.03,4.6,5.23
6.798798084259033,2.32,-2.9,3.2,4.9
6.819572925567627,-2.11,-6.06,-2.79,6.99
6.820624113082886,-5.53,-4.35,-1.87,7.28
6.836054086685181,-7.86,-2.0,-0.85,8.15
6.837521076202393,-9.11,-0.74,-0.31,9.14
6.851318120956421,-8.0,-0.7,0.12,8.03
6.852797031402588,-5.12,-2.03,0.56,5.53
6.867461204528809,-2.92,-3.36,1.73,4.77
6.896615028381348,-2.32,-4.65,2.37,5.71
6.898003101348877,-2.58,-5.81,2.71,6.91
6.89896297454834,-2.58,-6.84,2.09,7.6
6.919486045837402,-2.39,-7.17,1.01,7.62
6.920501232147217,-2.49,-6.67,-0.21,7.12
6.9355340003967285,-2.89,-6.55,-0.78,7.2
6.936561107635498,-3.22,-6.53,-1.22,7.38
6.951436996459961,-3.47,-6.85,-1.77,7.88
6.952920913696289,-3.62,-7.48,-2.0,8.54
6.9676361083984375,-3.77,-8.24,-1.42,9.17
6.969110012054443,-4.28,-9.01,-0.32,9.98
7.01353907585144,-5.23,-9.52,0.51,10.87
7.014689922332764,-6.52,-8.93,0.55,11.07
7.015684127807617,-6.79,-9.02,0.68,11.31
7.036534070968628,-6.32,-9.52,1.01,11.47
7.037596225738525,-6.05,-9.96,1.33,11.72
7.052609920501709,-5.84,-10.23,1.72,11.9
7.054116249084473,-5.31,-10.22,2.05,11.69
7.068042039871216,-4.36,-9.9,2.07,11.01
7.069508075714111,-2.94,-9.42,1.86,10.04
7.0843141078948975,-1.19,-8.45,1.56,8.67
7.112814903259277,0.59,-6.66,0.92,6.74
7.114196062088013,2.82,-4.47,0.37,5.29
7.1151862144470215,5.67,-1.97,0.67,6.03
7.136490106582642,8.88,1.05,1.13,9.01
7.137576103210449,11.51,4.71,2.22,12.63
7.149612903594971,13.51,8.75,3.61,16.49
7.150660991668701,14.74,12.73,4.29,19.94
7.166130065917969,15.14,15.9,3.81,22.28
7.167684078216553,14.69,17.65,1.81,23.03
7.182115077972412,11.14,22.72,-2.63,25.44
7.209691047668457,9.35,30.61,-9.76,33.46
7.210992097854614,2.33,36.31,-14.56,39.18
7.212078094482422,-5.18,37.4,-9.16,38.85
7.218782901763916,-1.35,17.5,2.2,17.68
7.219836235046387,5.69,1.82,6.27,8.66
7.235702991485596,6.6,-6.36,7.97,12.14
7.236725091934204,3.19,-11.66,7.7,14.33
7.251289129257202,2.84,-10.12,7.45,12.88
7.252310037612915,4.63,-5.0,2.82,7.37
7.267532110214233,4.62,-1.99,-2.71,5.71
7.294340133666992,3.56,1.91,-4.16,5.79
7.295779228210449,1.88,4.3,-4.09,6.22
7.296828031539917,0.46,2.53,-2.39,3.51
7.299276113510132,0.35,-0.25,0.02,0.43
7.303164958953857,1.05,-1.0,1.27,1.92
7.312692165374756,1.03,-0.51,1.77,2.11
7.323051929473877,0.6,-0.15,0.91,1.1
7.333024978637695,0.64,-0.2,0.07,0.67
7.342871189117432,0.8,-0.42,0.55,1.05
7.3530449867248535,0.69,-0.46,0.72,1.09
7.387542247772217,0.52,-0.17,0.44,0.7
7.388727188110352,0.54,0.12,-0.07,0.55
7.389742136001587,0.7,0.17,-0.43,0.83
7.403140068054199,0.6,0.06,-0.47,0.76
7.404186248779297,0.23,-0.05,-0.22,0.32
7.418898105621338,-0.2,-0.01,-0.08,0.21
7.422046184539795,-0.53,0.12,0.31,0.62
7.434366226196289,-0.62,0.24,0.48,0.82
7.442294120788574,-0.35,0.26,0.2,0.47
7.452033996582031,0.07,0.17,-0.56,0.58
7.488263130187988,0.37,0.09,-0.98,1.05
7.490054130554199,0.21,0.11,-0.76,0.79
7.491062164306641,-0.29,0.16,-0.4,0.51
7.499889135360718,-0.63,0.24,-0.39,0.77
7.501327037811279,-0.56,0.25,-0.45,0.76
7.519200086593628,-0.27,0.23,-0.3,0.46
7.521255970001221,-0.23,0.29,0.25,0.44
7.533776044845581,-0.67,0.39,0.38,0.86
7.541649103164673,-1.21,0.51,-0.25,1.33
7.551386117935181,-1.3,0.59,-0.86,1.66
7.589019060134888,-1.05,0.6,-0.97,1.55
7.590333938598633,-0.83,0.48,-0.99,1.37
7.591341018676758,-0.81,0.46,-0.95,1.33
7.603055953979492,-1.04,0.69,-1.05,1.63
7.604095935821533,-1.35,1.07,-1.09,2.03
7.619284152984619,-1.58,1.37,-1.15,2.38
7.620420932769775,-1.67,1.41,-1.47,2.63
7.6349592208862305,-1.84,1.56,-1.1,2.65
7.6406049728393555,-2.04,1.64,-0.83,2.74
7.651205062866211,-2.23,1.89,-0.57,2.97
7.687204122543335,-2.43,2.51,-0.12,3.49
7.688529014587402,-2.65,2.94,-0.25,3.96
7.689600944519043,-2.97,3.28,-0.34,4.43
7.703197002410889,-3.35,3.63,-0.61,4.97
7.704265117645264,-3.61,3.85,-1.08,5.38
7.719358921051025,-3.84,4.17,-1.48,5.85
7.720373153686523,-4.13,4.69,-1.85,6.51
7.735091209411621,-4.79,5.62,-2.1,7.67
7.74001407623291,-5.96,7.96,-1.49,10.05
7.751301050186157,-7.24,9.8,-3.18,12.59
7.759888172149658,-8.3,10.55,-5.55,14.52
7.794713020324707,-9.49,11.0,-7.4,16.3
7.795871019363403,-9.87,10.84,-8.66,17.02
7.797133922576904,-9.57,10.0,-8.91,16.46
7.799320220947266,-9.18,9.31,-9.21,15.99
7.819860935211182,-8.46,10.36,-7.88,15.52
7.821387052536011,-5.92,14.23,-3.99,15.92
7.835008144378662,-1.17,15.61,-3.32,16.0
7.839111089706421,2.1,10.64,-6.67,12.73
7.85127592086792,0.32,4.06,-8.03,9.0
7.859117031097412,-4.23,-0.93,-6.23,7.58
7.895984172821045,-3.98,0.86,-1.29,4.27
7.897140026092529,1.64,2.87,4.59,5.65
7.898457050323486,0.97,-3.22,0.16,3.36
7.900020122528076,-3.01,-4.89,-3.27,6.6
7.9087371826171875,-6.57,-3.08,-1.64,7.43
7.918482065200806,-9.2,-2.12,-1.3,9.53
7.928389072418213,-9.9,-1.87,-0.81,10.1
7.938308238983154,-8.26,-2.59,-0.29,8.66
7.948811054229736,-5.82,-4.05,0.52,7.1
7.958379030227661,-4.93,-5.38,1.24,7.4
7.98813009262085,-5.18,-6.04,1.88,8.17
7.98947811126709,-5.46,-6.02,2.28,8.44
7.990545034408569,-5.31,-5.91,1.78,8.14
8.003901958465576,-4.92,-5.86,0.89,7.7
8.007655143737793,-4.72,-5.34,0.2,7.12
8.01781702041626,-5.1,-4.68,0.13,6.92
8.027831077575684,-5.2,-4.7,-0.22,7.01
8.037708044052124,-4.52,-5.08,-0.96,6.86
8.047863960266113,-4.14,-5.18,-1.16,6.73
8.05743408203125,-4.15,-5.48,-1.0,6.94
8.08916711807251,-4.07,-5.84,-0.64,7.14
8.09044599533081,-3.79,-6.29,-0.23,7.34
8.091447114944458,-3.56,-6.98,-0.03,7.83
8.103425979614258,-3.59,-7.54,0.13,8.35
8.106933116912842,-3.91,-7.82,0.53,8.75
8.11952018737793,-4.24,-7.52,1.09,8.7
8.126965999603271,-4.24,-6.67,1.84,8.11
8.136906147003174,-3.7,-5.59,2.09,7.02
8.146780014038086,-2.37,-4.69,1.77,5.54
8.156689167022705,-0.55,-3.83,1.58,4.17
8.193870067596436,1.56,-2.39,1.81,3.37
8.195276021957397,4.09,-0.44,2.2,4.66
8.196264028549194,6.81,1.49,2.52,7.41
8.199745178222656,9.16,3.37,2.56,10.09
8.219314098358154,10.53,5.51,2.75,12.19
8.22037410736084,11.27,7.51,3.22,13.92
8.234381198883057,12.49,9.23,3.46,15.91
8.235834121704102,14.59,10.55,4.15,18.47
8.25164794921875,16.78,10.72,4.19,20.34
8.256093978881836,17.71,10.27,3.95,20.84
8.292652130126953,17.74,9.91,3.98,20.7
8.293819904327393,17.35,9.1,4.05,20.0
8.295120239257812,15.65,11.22,2.65,19.43
8.302755117416382,11.32,9.2,-2.54,14.8
8.305499076843262,-0.68,-3.61,-12.08,12.62
8.319437980651855,-16.46,4.32,-18.7,25.28
8.325281143188477,-20.37,39.74,3.81,44.81
8.335130214691162,-13.72,36.12,11.74,40.38
8.345506191253662,-5.12,4.09,0.57,6.57
8.355263233184814,2.53,-7.21,2.73,8.11
8.391664028167725,8.18,-8.79,3.22,12.43
8.39304494857788,11.92,-7.79,2.74,14.5
8.3941011428833,12.01,-7.61,1.6,14.3
8.40361499786377,8.82,-2.68,1.05,9.27
8.4046950340271,4.33,0.88,1.12,4.55
8.41954517364502,1.0,1.22,-0.26,1.59
8.424437999725342,-0.41,1.13,-1.5,1.92
8.43531322479248,0.14,1.28,-1.4,1.9
8.444746017456055,0.95,1.47,-0.54,1.83
8.454526901245117,0.98,0.66,0.32,1.22
8.4930100440979,1.26,-0.83,1.8,2.34
8.494388103485107,1.47,-1.81,2.42,3.36
8.495436191558838,0.99,-1.68,1.61,2.52
8.499644041061401,0.64,-0.64,0.23,0.93
8.51976490020752,0.72,0.1,-0.52,0.89
8.520828247070312,0.76,0.28,-0.47,0.93
8.535436153411865,0.64,0.1,-0.01,0.64
8.536911964416504,0.65,-0.04,0.4,0.76
8.551607131958008,0.79,0.03,0.49,0.93
8.553575038909912,0.79,-0.04,0.58,0.98
8.568243980407715,0.74,-0.25,0.56,0.96
8.59846305847168,0.54,-0.51,-0.26,0.78
8.59984803199768,0.08,-0.3,-0.6,0.67
8.60082197189331,-0.39,0.16,0.02,0.42
8.620160102844238,-0.45,0.24,0.6,0.78
8.62120509147644,-0.23,0.13,0.55,0.61
8.636589050292969,-0.11,0.15,-0.09,0.2
8.638008117675781,-0.11,0.29,-0.96,1.0
8.652032136917114,-0.11,0.47,-1.11,1.21
8.653403043746948,-0.3,0.52,-0.65,0.88
8.668513059616089,-0.68,0.48,-0.07,0.83
8.699485063552856,-1.05,0.47,0.28,1.18
8.700762033462524,-1.13,0.42,0.15,1.21
8.701779127120972,-1.02,0.39,-0.34,1.14
8.720128059387207,-0.98,0.54,-0.7,1.31
8.721170902252197,-1.1,0.68,-1.04,1.65
8.73670506477356,-1.28,0.73,-1.24,1.92
8.738184928894043,-1.22,0.67,-1.07,1.75
8.751986980438232,-1.03,0.55,-0.85,1.44
8.75347113609314,-0.94,0.61,-0.88,1.42
8.768186092376709,-1.02,0.78,-1.08,1.67
8.797208070755005,-1.23,0.95,-1.09,1.89
8.798582077026367,-1.36,1.06,-0.85,1.92
8.799577236175537,-1.38,1.05,-0.55,1.81
8.820681095123291,-1.35,1.07,-0.47,1.78
8.821710109710693,-1.5,1.15,-0.76,2.03
8.836778163909912,-2.02,1.72,-0.37,2.67
8.838254928588867,-2.45,2.25,-0.66,3.39
8.852272033691406,-2.65,2.97,-0.84,4.06
8.853723049163818,-2.95,3.39,-0.93,4.58
8.868567943572998,-3.26,3.79,-1.09,5.11
8.898595094680786,-3.55,4.02,-1.58,5.59
8.900074005126953,-3.85,4.29,-1.98,6.09
8.901051044464111,-4.07,4.77,-2.01,6.58
8.92021894454956,-4.56,5.21,-2.03,7.21
8.921256065368652,-5.48,6.07,-1.89,8.39
8.936645030975342,-6.69,7.71,-1.49,10.31
8.938112020492554,-8.7,9.83,-1.73,13.24
8.952429056167603,-11.03,11.84,-2.99,16.45
8.953932046890259,-12.41,12.76,-5.15,18.52
8.967725038528442,-12.57,12.15,-6.91,18.79
8.997847080230713,-12.54,10.95,-8.13,18.52
8.99926209449768,-12.8,11.22,-8.31,18.94
9.000318050384521,-10.37,14.74,-4.65,18.61
9.016958236694336,-4.14,16.85,-3.93,17.79
9.018036127090454,1.48,13.62,-6.53,15.17
9.036476135253906,1.74,6.03,-6.41,8.97
9.037527084350586,-1.87,0.07,-5.91,6.19
9.052401065826416,-4.88,-3.82,-5.43,8.23
9.05388593673706,-1.05,-0.87,-1.91,2.34
9.068440914154053,4.83,0.2,4.93,6.9
9.096039056777954,2.53,-4.98,0.09,5.58
9.097408056259155,-2.93,-6.86,-3.96,8.44
9.09842300415039,-6.56,-5.91,-1.77,9.0
9.100843906402588,-8.93,-4.34,-1.09,9.98
9.109431028366089,-10.34,-3.26,-1.06,10.89
9.119429111480713,-10.02,-2.67,-0.4,10.37
9.129247188568115,-7.78,-3.53,0.44,8.55
9.139324188232422,-5.38,-5.04,1.61,7.54
9.149270057678223,-4.21,-6.33,2.29,7.93
9.159601211547852,-4.21,-7.0,2.41,8.51
9.196455955505371,-4.82,-6.49,1.96,8.31
9.197963237762451,-5.25,-5.57,1.11,7.73
9.19894003868103,-5.26,-4.85,0.61,7.18
9.201155185699463,-4.62,-4.5,-0.35,6.45
9.208558082580566,-3.97,-4.12,-0.92,5.79
9.218914031982422,-3.59,-4.0,-1.24,5.51
9.228414058685303,-3.44,-4.03,-1.13,5.41
9.238767147064209,-3.2,-4.26,-0.86,5.39
9.248549938201904,-2.5,-4.7,-0.58,5.35
9.25852108001709,-1.41,-5.12,-0.58,5.34
9.295542240142822,-0.47,-5.51,-0.84,5.59
9.296966075897217,0.12,-5.98,-1.23,6.1
9.297945976257324,0.46,-6.03,-1.28,6.18
9.300259113311768,0.83,-5.54,-0.84,5.66
9.307806968688965,1.52,-4.92,-0.72,5.19
9.318121910095215,2.91,-4.47,-0.88,5.4
9.327845096588135,4.64,-4.17,-0.68,6.27
9.337979078292847,5.68,-3.82,0.03,6.84
9.347822189331055,5.74,-2.71,1.52,6.52
9.3578782081604,5.73,-0.8,3.02,6.52
9.367918014526367,6.31,1.23,3.76,7.44
9.400135040283203,7.4,3.15,4.23,9.08
9.40129804611206,8.63,5.32,4.99,11.29
9.402305126190186,10.18,7.13,5.81,13.71
9.420576095581055,11.94,8.01,6.66,15.84
9.421613216400146,13.43,8.24,7.2,17.32
9.437901973724365,14.4,7.96,7.7,18.16
9.439301013946533,15.07,6.82,7.51,18.16
9.452706098556519,14.99,5.89,6.84,17.49
9.456930160522461,13.84,4.98,5.61,15.74
9.468323230743408,12.67,3.36,4.64,13.9
9.502385139465332,11.67,3.29,1.9,12.27
9.503708124160767,4.69,0.58,-6.32,7.89
9.50477409362793,-9.58,-7.9,-20.3,23.79
9.520982027053833,-25.97,8.12,-36.26,45.33
9.522090911865234,-20.94,53.98,12.89,59.31
9.526196002960205,-7.83,43.98,18.16,48.22
9.536125183105469,0.76,7.44,-2.23,7.8
9.546312093734741,7.06,-5.33,2.79,9.27
9.556363105773926,8.7,-14.4,3.09,17.1
9.566408157348633,10.45,-15.97,0.26,19.08
9.599756240844727,11.83,-11.22,2.79,16.54
9.600804090499878,9.24,-4.83,4.79,11.47
9.601622104644775,4.03,-0.92,2.91,5.05
9.620639085769653,-0.13,1.75,0.85,1.94
9.621699094772339,-2.09,3.98,-1.47,4.72
9.636672973632812,-1.73,4.14,-2.72,5.24
9.63771390914917,0.47,1.7,-2.18,2.8
9.652410984039307,2.65,-0.61,0.04,2.71
9.655400037765503,2.55,-1.79,1.27,3.36
9.668818950653076,0.86,-1.77,1.02,2.21
9.697925090789795,0.06,-0.54,0.74,0.91
9.699122905731201,0.33,0.29,0.21,0.48
9.699962139129639,0.67,0.24,-0.2,0.73
9.721031188964844,0.36,0.06,0.27,0.45
9.722064018249512,-0.14,0.08,0.91,0.92
9.736809253692627,-0.35,0.07,1.0,1.06
9.737840175628662,-0.25,0.01,0.19,0.31
9.752262115478516,0.1,-0.05,-1.25,1.25
9.754508018493652,0.37,0.2,-1.59,1.64
9.76895809173584,0.42,0.28,-0.95,1.07
9.803307056427002,0.36,0.1,0.19,0.41
9.804681062698364,0.15,-0.13,0.51,0.54
9.805697917938232,-0.11,-0.17,0.12,0.23
9.821028232574463,-0.24,0.09,-0.29,0.38
9.822090148925781,-0.39,0.34,-0.44,0.67
9.836758136749268,-0.62,0.54,-0.01,0.82
9.837789058685303,-0.68,0.49,0.12,0.84
9.852431058883667,-0.34,0.34,-0.33,0.58
9.85355806350708,-0.13,0.32,-0.34,0.48
9.868868112564087,-0.27,0.33,-0.06,0.43
9.902441024780273,-0.59,0.29,0.05,0.65
9.903796195983887,-0.8,0.26,-0.1,0.84
9.904798984527588,-0.91,0.3,-0.41,1.04
9.920924186706543,-1.01,0.4,-0.68,1.28
9.921991109848022,-1.18,0.62,-0.92,1.61
9.936697006225586,-1.34,0.84,-1.08,1.91
9.937735080718994,-1.35,0.97,-1.12,2.0
9.952646255493164,-1.25,0.97,-1.19,1.97
9.954030990600586,-1.22,0.94,-1.0,1.83
9.968688011169434,-1.09,0.97,-0.63,1.58
10.001973152160645,-1.07,0.96,-0.3,1.46
10.003305912017822,-1.29,1.09,0.06,1.68
10.00435495376587,-1.58,1.26,0.07,2.02
10.021209239959717,-1.68,1.38,-0.21,2.18
10.022229194641113,-1.98,1.81,-0.53,2.73
10.036725044250488,-1.91,2.32,-0.82,3.11
10.03772497177124,-1.82,2.62,-0.9,3.31
10.052808046340942,-1.84,2.74,-0.99,3.44
10.054290056228638,-2.07,2.79,-1.24,3.68
10.068957090377808,-2.44,2.9,-1.25,3.99
10.100152015686035,-2.84,3.1,-1.24,4.38
10.101493120193481,-3.27,3.35,-1.26,4.84
10.102481126785278,-3.78,3.91,-0.98,5.52
10.120814085006714,-4.83,5.07,-0.53,7.02
10.121825218200684,-6.61,6.59,-0.95,9.38
10.13703203201294,-8.27,8.08,-1.96,11.72
10.13808012008667,-9.5,9.29,-2.75,13.56
10.1528902053833,-10.39,10.05,-3.72,14.92
10.154345035552979,-11.09,10.16,-5.23,15.92
10.168946027755737,-11.73,10.12,-6.7,16.87
10.17161512374878,-12.47,10.53,-7.76,18.07
10.215110063552856,-11.61,13.52,-5.47,18.64
10.216304063796997,-7.41,15.62,-4.06,17.75
10.217315196990967,-1.26,14.56,-5.98,15.79
10.238158226013184,2.2,10.99,-5.37,12.42
10.239190101623535,1.06,4.73,-5.13,7.05
10.253546237945557,-3.49,0.48,-4.91,6.04
10.254602909088135,-5.59,-2.72,-4.29,7.55
10.269495964050293,0.05,0.38,-3.14,3.16
10.270922183990479,6.76,2.52,2.83,7.74
10.285901069641113,4.92,-2.39,0.35,5.48
10.315354108810425,-1.59,-4.53,-4.05,6.28
10.316599130630493,-6.27,-4.26,-2.2,7.89
10.317623138427734,-8.58,-3.19,-1.43,9.26
10.337767124176025,-9.45,-2.52,-1.71,9.92
10.33880615234375,-8.38,-2.36,-1.49,8.83
10.35352611541748,-6.11,-3.23,-0.65,6.94
10.35454797744751,-4.33,-4.93,0.46,6.57
10.369450092315674,-3.83,-6.61,1.03,7.7
10.370879173278809,-4.36,-7.37,1.5,8.69
10.385706901550293,-5.34,-6.78,1.66,8.78
10.41442608833313,-5.94,-5.91,1.76,8.56
10.415937900543213,-5.91,-5.21,1.3,7.98
10.416903972625732,-5.64,-4.81,0.07,7.41
10.43863296508789,-5.6,-4.44,-0.36,7.15
10.439655065536499,-5.53,-4.37,-0.15,7.04
10.453548908233643,-5.37,-4.84,0.39,7.23
10.454587936401367,-5.3,-5.43,0.97,7.64
10.46949291229248,-5.12,-6.0,1.22,7.98
10.47090196609497,-4.68,-6.45,1.12,8.04
10.485880136489868,-4.0,-6.81,0.83,7.94
10.515639066696167,-3.28,-7.22,0.53,7.94
10.516839027404785,-2.56,-7.74,0.33,8.15
10.517899990081787,-1.79,-7.96,0.13,8.15
10.537745952606201,-0.8,-7.38,0.23,7.42
10.538746118545532,0.73,-6.44,0.25,6.48
10.553466081619263,2.57,-5.42,-0.6,6.02
10.554512977600098,4.3,-4.01,-1.11,5.98
10.569653034210205,5.8,-2.39,-1.11,6.37
10.571015119552612,7.56,-0.27,-0.32,7.57
10.585820198059082,9.98,2.33,1.23,10.32
10.614151954650879,12.43,4.37,2.38,13.38
10.615525245666504,13.9,5.75,3.37,15.41
10.6164870262146,13.96,7.24,3.91,16.2
10.618829250335693,13.48,9.2,4.35,16.89
10.620019912719727,14.0,10.92,4.67,18.35
10.628526210784912,15.38,11.06,3.95,19.35
10.637897968292236,16.78,8.89,3.19,19.25
10.647676944732666,17.13,8.3,3.94,19.43
10.657873153686523,14.08,11.45,1.84,18.24
10.66785192489624,3.68,0.8,-9.52,10.23
10.702916145324707,-11.87,7.33,-24.07,27.82
10.703866958618164,-13.63,53.4,-1.76,55.14
10.704661130905151,-10.33,43.3,4.82,44.77
10.721250057220459,-5.13,2.28,-4.44,7.15
10.722275018692017,-0.5,-11.54,2.29,11.77
10.736639022827148,4.06,-15.5,4.59,16.66
10.737678050994873,9.16,-14.71,6.61,18.54
10.752728939056396,11.66,-11.93,6.78,18.0
10.756853103637695,8.14,-4.03,3.6,9.77
10.768968105316162,4.93,1.61,0.57,5.21
10.802708148956299,2.01,4.38,-4.16,6.36
10.803887128829956,-0.4,4.96,-5.53,7.43
10.804707050323486,-0.44,3.07,-0.03,3.1
10.821353912353516,0.19,-0.39,3.09,3.12
10.82241702079773,1.05,-1.92,3.14,3.82
10.83703899383545,1.93,-1.48,0.82,2.56
10.838085174560547,1.95,-0.23,-0.65,2.06
10.852887153625488,1.54,0.27,-0.26,1.58
10.855998039245605,1.15,-0.37,0.44,1.28
10.869166135787964,0.95,-0.93,0.35,1.37
10.90390920639038,0.93,-0.64,-0.22,1.15
10.905237197875977,0.88,0.09,-0.44,0.98
10.906232118606567,0.76,0.33,-0.3,0.88
10.921366214752197,0.58,0.03,0.1,0.58
10.92241621017456,0.31,-0.11,0.73,0.8
10.93720817565918,0.07,-0.16,0.95,0.96
10.938197135925293,0.07,-0.09,0.59,0.6
10.952786922454834,0.18,0.02,-0.15,0.23
10.95546817779541,0.16,0.17,-0.66,0.7
10.969242095947266,0.14,0.24,-0.66,0.71
10.975505113601685,0.18,0.06,-0.6,0.62
11.015888214111328,0.17,-0.07,-0.52,0.55
11.0170259475708,0.04,-0.01,-0.38,0.38
11.018023014068604,-0.22,0.08,-0.29,0.37
11.037947177886963,-0.46,0.23,0.01,0.51
11.039001941680908,-0.69,0.29,0.14,0.76
11.054066181182861,-0.8,0.34,0.02,0.86
11.05508804321289,-0.81,0.51,-0.16,0.97
11.069737911224365,-0.74,0.65,-0.39,1.05
11.071202039718628,-0.76,0.68,-0.63,1.19
11.086146116256714,-0.91,0.66,-0.62,1.28
11.115210056304932,-0.97,0.65,-0.52,1.27
11.116574048995972,-0.92,0.62,-0.51,1.22
11.117578983306885,-1.02,0.71,-0.55,1.35
11.137998104095459,-1.18,0.92,-0.7,1.65
11.139010906219482,-1.38,1.13,-0.66,1.9
11.1542329788208,-1.63,1.26,-0.72,2.18
11.155256032943726,-1.93,1.23,-0.9,2.45
11.169878005981445,-2.27,1.5,-0.45,2.75
11.171339988708496,-2.38,1.77,-0.42,2.99
11.186211109161377,-2.12,2.25,-0.57,3.14
11.214813232421875,-2.12,2.61,-0.79,3.45
11.216129064559937,-2.23,3.06,-0.81,3.87
11.21712613105774,-2.5,3.24,-1.07,4.22
11.238213062286377,-2.84,3.41,-1.18,4.59
11.239244937896729,-3.16,3.77,-1.58,5.16
11.25408411026001,-3.43,4.09,-2.09,5.73
11.25513219833374,-3.8,4.46,-2.27,6.28
11.270284175872803,-4.33,4.93,-2.33,6.96
11.271718978881836,-5.14,5.7,-2.24,7.99
11.286158084869385,-6.7,6.99,-1.83,9.85
11.313440084457397,-8.71,9.28,-1.73,12.84
11.314794063568115,-10.34,10.52,-4.13,15.31
11.315787076950073,-11.13,10.3,-5.98,16.3
11.318356990814209,-11.42,9.45,-6.74,16.28
11.322484970092773,-11.87,8.46,-7.46,16.37
11.332543134689331,-11.82,9.55,-6.94,16.7
11.34266710281372,-9.57,13.36,-4.43,17.02
11.352432250976562,-4.36,15.11,-4.93,16.48
11.36259913444519,0.93,13.14,-6.92,14.87
11.372246026992798,2.67,8.29,-6.76,11.02
11.407109022140503,-0.24,2.53,-6.74,7.2
11.408271074295044,-4.35,-1.81,-4.88,6.78
11.409265041351318,-3.13,-2.69,-3.78,5.59
11.421808242797852,3.75,1.15,2.15,4.47
11.422868251800537,4.95,-2.59,2.16,5.98
11.437487125396729,-0.44,-5.24,-4.45,6.88
11.44175100326538,-4.79,-4.46,-3.47,7.4
11.453033924102783,-7.17,-2.49,-1.96,7.83
11.462062120437622,-8.65,-1.39,-2.02,8.99
11.47164011001587,-8.49,-1.07,-1.12,8.63
11.509910106658936,-6.35,-2.49,-0.15,6.82
11.511332035064697,-4.7,-4.98,0.75,6.88
11.512367248535156,-4.73,-7.25,1.2,8.73
11.52180290222168,-5.86,-8.53,1.09,10.4
11.522826194763184,-6.7,-8.37,1.17,10.78
11.537980079650879,-6.71,-7.46,0.66,10.05
11.540863990783691,-5.93,-6.17,-0.64,8.58
11.55296802520752,-4.93,-4.75,-1.89,7.1
11.56100606918335,-4.2,-3.87,-2.73,6.33
11.57089614868164,-3.84,-3.71,-3.25,6.25
11.609142065048218,-3.75,-4.17,-3.23,6.47
11.610558032989502,-3.85,-4.68,-2.73,6.64
11.611567974090576,-3.54,-4.81,-2.21,6.36
11.62168002128601,-2.3,-4.91,-2.11,5.81
11.622703075408936,-1.01,-5.32,-2.13,5.81
11.637423992156982,-0.67,-5.87,-1.96,6.22
11.640141010284424,-0.73,-5.97,-1.75,6.26
11.653131008148193,0.14,-5.37,-1.42,5.55
11.660308122634888,2.05,-4.98,-0.88,5.45
11.670120239257812,4.2,-4.77,-0.07,6.35
11.708374977111816,5.99,-4.39,1.07,7.5
11.709721088409424,6.93,-3.44,2.07,8.0
11.710730075836182,7.14,-1.88,2.84,7.91
11.721632957458496,7.62,-0.09,3.22,8.27
11.722712993621826,9.02,1.74,3.4,9.79
11.737739086151123,11.07,3.57,3.83,12.24
11.73940896987915,13.46,4.72,4.61,14.99
11.753530979156494,15.64,4.66,5.21,17.13
11.75942611694336,16.59,4.57,5.2,17.97
11.769751071929932,16.78,5.31,5.59,18.46
11.779530048370361,16.88,6.09,6.05,18.93
11.812772035598755,16.74,6.82,6.12,19.08
11.813957214355469,16.42,7.26,6.15,18.97
11.815173149108887,14.84,7.93,3.43,17.17
11.818734169006348,5.59,4.02,-3.95,7.93
11.837847232818604,-9.64,-3.85,-17.24,20.12
11.838900089263916,-26.26,22.28,-23.72,41.81
11.853553056716919,-23.86,59.32,16.54,66.04
11.858880043029785,-12.01,28.86,10.26,32.89
11.869626998901367,-0.77,0.26,0.98,1.27
11.878801107406616,7.45,-8.01,5.33,12.16
11.913249969482422,10.29,-13.74,5.08,17.9
11.914411067962646,11.11,-13.81,1.74,17.8
11.91564416885376,10.55,-9.16,1.14,14.01
11.91813611984253,7.67,-4.68,1.97,9.19
11.937870025634766,3.02,-1.36,0.76,3.39
11.938899993896484,-0.76,2.29,-0.88,2.56
11.953737020492554,-2.3,4.91,-4.53,7.06
11.95812702178955,-1.03,5.2,-6.27,8.21
11.969778060913086,1.52,2.77,-3.65,4.82
11.978094100952148,2.42,-0.43,0.76,2.57
12.015351057052612,1.76,-2.55,2.59,4.03
12.016515254974365,0.44,-2.93,2.26,3.72
12.01750111579895,-0.24,-1.2,1.55,1.97
12.038557052612305,0.18,0.44,-0.01,0.47
12.03965425491333,0.63,0.72,-0.41,1.04
12.054660081863403,0.4,0.45,0.64,0.87
12.055674076080322,0.03,0.15,1.14,1.15
12.069937229156494,0.25,-0.04,0.54,0.59
12.071431159973145,0.91,-0.15,-0.45,1.02
12.086779117584229,1.0,-0.12,-1.06,1.46
12.116059064865112,0.41,0.01,-0.9,0.98
12.117398023605347,-0.1,0.13,0.03,0.16
12.118409156799316,-0.16,0.03,0.46,0.48
12.138081073760986,0.06,-0.18,0.2,0.27
12.13911509513855,0.3,-0.16,-0.08,0.34
12.153844118118286,0.39,-0.05,-0.28,0.48
12.154873132705688,0.27,0.06,-0.4,0.48
12.170170068740845,0.13,0.16,-0.3,0.36
12.171635150909424,-0.12,0.22,-0.1,0.26
12.18657112121582,-0.28,0.31,0.06,0.42
12.215950012207031,-0.37,0.32,-0.07,0.49
12.217365026473999,-0.56,0.33,-0.35,0.73
12.218362092971802,-0.9,0.43,-0.54,1.13
12.238430976867676,-1.25,0.61,-0.73,1.57
12.239467144012451,-1.41,0.67,-0.93,1.81
12.25484013557434,-1.44,0.69,-0.94,1.85
12.25586223602295,-1.52,0.7,-1.13,2.01
12.270412921905518,-1.79,0.84,-1.23,2.32
12.271905899047852,-1.97,1.11,-1.53,2.73
12.286498069763184,-1.95,1.35,-1.67,2.9
12.315526008605957,-1.7,1.58,-1.61,2.82
12.316885948181152,-1.46,1.62,-1.37,2.57
12.317840099334717,-1.46,1.56,-1.3,2.5
12.338377952575684,-1.88,1.67,-1.46,2.9
12.33939003944397,-2.52,2.42,-1.13,3.67
12.354471206665039,-2.75,3.17,-0.82,4.27
12.355488061904907,-2.96,3.61,-0.85,4.74
12.370491027832031,-3.3,3.69,-1.02,5.05
12.37195611000061,-3.59,4.04,-0.85,5.47
12.388004064559937,-3.82,4.42,-1.35,5.99
12.415509223937988,-3.97,4.65,-2.11,6.46
12.41686725616455,-4.18,5.21,-2.66,7.18
12.417866230010986,-5.15,6.41,-3.29,8.85
12.43870210647583,-6.5,8.75,-3.11,11.33
12.439764976501465,-7.96,10.51,-4.99,14.09
12.45193099975586,-8.56,11.03,-6.74,15.5
12.45297908782959,-9.0,10.77,-7.36,15.84
12.470648050308228,-9.92,9.8,-9.17,16.68
12.472119092941284,-10.13,8.89,-9.96,16.75
12.486802101135254,-9.83,8.78,-9.12,16.02
12.514662027359009,-8.04,11.3,-5.68,14.98
12.515989065170288,-4.04,15.53,-1.63,16.12
12.516959190368652,0.94,13.54,-5.05,14.48
12.518997192382812,2.56,6.22,-9.4,11.55
12.523409128189087,-0.08,-0.21,-8.05,8.05
12.533636093139648,-4.29,-3.58,-4.06,6.9
12.543584108352661,-1.41,0.76,4.81,5.06
12.554655075073242,1.31,-1.36,7.39,7.62
12.563262939453125,-2.55,-6.81,-0.33,7.27
12.573378086090088,-6.0,-6.98,-2.48,9.53
12.583491086959839,-8.38,-3.85,-0.47,9.23
12.613627910614014,-9.8,-1.68,0.24,9.94
12.614788055419922,-9.51,-0.94,0.29,9.56
12.615906238555908,-6.79,-2.37,0.04,7.19
12.622576236724854,-3.76,-4.46,0.6,5.86
12.63823413848877,-2.49,-5.75,1.03,6.35
12.642558097839355,-2.71,-6.22,0.97,6.85
12.652437210083008,-3.27,-6.21,0.63,7.04
12.662467956542969,-3.5,-5.98,0.05,6.92
12.672471046447754,-3.43,-5.82,-0.78,6.8
12.682663917541504,-3.31,-5.71,-1.55,6.77
12.713504076004028,-3.18,-5.68,-2.03,6.81
12.714503049850464,-3.09,-5.73,-2.28,6.89
12.715528964996338,-3.18,-5.76,-2.24,6.95
12.722023963928223,-3.25,-5.96,-1.76,7.01
12.738787174224854,-3.17,-6.42,-1.23,7.26
12.741895198822021,-2.99,-6.87,-0.92,7.54
12.75366497039795,-2.74,-7.26,-0.88,7.8
12.761858940124512,-2.49,-7.42,-0.91,7.87
12.771874904632568,-2.44,-7.3,-0.6,7.72
12.781879901885986,-2.43,-6.89,-0.09,7.3
12.813868999481201,-2.04,-6.14,0.21,6.47
12.815063953399658,-0.91,-5.63,0.16,5.7
12.816718101501465,0.57,-5.46,0.28,5.49
12.821249008178711,1.8,-5.07,0.84,5.44
12.831310033798218,2.97,-4.05,1.84,5.34
12.84133505821228,4.38,-2.48,2.9,5.8
12.851238250732422,5.94,-0.95,3.59,7.0
12.861037254333496,7.37,0.56,4.38,8.59
12.871217250823975,8.54,2.48,5.83,10.63
12.881021976470947,9.31,4.08,6.55,12.09
12.913800239562988,9.93,5.13,6.42,12.88
12.914934158325195,10.83,6.29,6.21,13.97
12.916361093521118,11.89,7.94,6.73,15.8
12.920484066009521,13.25,10.16,7.61,18.34
12.930536031723022,13.96,11.23,7.24,19.32
12.941090106964111,14.3,11.43,6.92,19.57
12.950408935546875,13.47,10.96,6.17,18.42
12.960154056549072,12.95,11.47,1.13,17.33
12.970271110534668,8.25,3.45,-9.16,12.8
12.980261087417603,-6.82,-6.04,-20.59,22.51
13.016314029693604,-21.34,12.65,-19.96,31.84
13.017718076705933,-19.3,46.76,14.14,52.52
13.018764972686768,-10.79,30.62,8.0,33.43
13.039227962493896,-1.68,2.21,0.55,2.83
13.040281057357788,5.27,-5.99,3.11,8.56
13.054943084716797,8.24,-11.94,0.76,14.52
13.056014060974121,10.31,-13.19,-0.62,16.75
13.070460081100464,11.4,-9.17,2.49,14.84
13.071484088897705,8.69,-3.91,4.0,10.33
13.087055206298828,3.7,-0.69,2.14,4.32
13.115585088729858,0.24,2.03,0.3,2.06
13.116722106933594,-1.33,3.94,-1.51,4.42
13.117531061172485,-1.08,3.91,-1.58,4.35
13.138967037200928,0.51,1.74,-0.5,1.88
13.13999891281128,1.79,-0.58,0.92,2.09
13.155247211456299,1.72,-1.82,1.55,2.94
13.156309127807617,0.87,-1.66,1.14,2.19
13.170406103134155,0.3,-0.49,0.4,0.7
13.171452045440674,0.33,0.25,-0.35,0.54
13.18710207939148,0.77,0.24,-0.9,1.2
13.214787006378174,0.83,0.11,-0.54,0.99
13.216105937957764,0.63,0.13,0.23,0.68
13.216937065124512,0.45,0.03,0.67,0.8
13.219889163970947,0.34,-0.22,0.59,0.71
13.228012084960938,0.46,-0.44,0.04,0.63
13.238348007202148,0.64,-0.37,-0.31,0.8
13.24822998046875,0.5,-0.12,0.17,0.54
13.258084058761597,0.12,-0.05,1.05,1.05
13.268139123916626,-0.1,-0.12,1.24,1.24
13.277943134307861,-0.22,-0.09,0.58,0.62
13.313064098358154,-0.31,0.24,-0.29,0.48
13.31432294845581,-0.18,0.63,-1.0,1.19
13.315115928649902,-0.05,0.7,-1.24,1.42
13.318477153778076,-0.27,0.54,-0.8,1.0
13.338548183441162,-0.68,0.33,-0.22,0.78
13.339591026306152,-0.83,0.17,0.06,0.84
13.353851079940796,-0.65,0.1,-0.14,0.67
13.357025146484375,-0.54,0.12,-0.59,0.8
13.371324062347412,-0.75,0.21,-1.02,1.28
13.377609252929688,-1.09,0.4,-1.15,1.63
13.387886047363281,-1.35,0.54,-1.17,1.86
13.420938968658447,-1.46,0.65,-0.97,1.86
13.422220230102539,-1.29,0.67,-0.83,1.67
13.423274993896484,-1.04,0.59,-0.62,1.34
13.43933391571045,-0.91,0.62,-0.55,1.23
13.440403938293457,-0.8,0.76,-0.6,1.25
13.45517110824585,-0.84,0.87,-0.54,1.32
13.456165075302124,-0.77,0.96,-0.42,1.3
13.470890998840332,-0.66,0.89,-0.24,1.13
13.476481914520264,-0.8,0.8,-0.23,1.15
13.487072944641113,-1.03,0.9,-0.37,1.41
13.519066095352173,-1.38,1.18,-0.51,1.88
13.52037525177002,-1.83,1.73,-0.42,2.55
13.5214262008667,-1.73,2.15,-0.7,2.84
13.53917407989502,-1.64,2.06,-1.34,2.95
13.540233135223389,-1.9,2.57,-1.35,3.46
13.555148124694824,-2.1,2.85,-1.71,3.93
13.556193113327026,-2.36,3.15,-1.61,4.25
13.570747137069702,-2.68,3.45,-1.33,4.56
13.57564401626587,-3.17,3.73,-1.12,5.02
13.587244987487793,-3.8,4.25,-0.91,5.77
13.61669921875,-4.64,5.23,-0.68,7.02
13.618069171905518,-5.68,6.75,-0.58,8.84
13.619071960449219,-7.32,8.37,-1.46,11.21
13.625402927398682,-9.38,9.57,-3.19,13.77
13.635335922241211,-10.81,10.71,-3.96,15.72
13.645307064056396,-11.51,11.43,-4.54,16.84
13.655869960784912,-11.8,11.1,-6.02,17.28
13.664912223815918,-11.91,10.09,-7.06,17.13
13.674880027770996,-11.73,9.76,-7.08,16.82
13.685226917266846,-9.49,11.7,-4.32,15.67
13.715096950531006,-4.42,13.17,-3.42,14.3
13.71625804901123,0.9,12.55,-4.25,13.28
13.717350006103516,2.42,7.47,-4.89,9.25
13.72458791732788,-0.76,1.79,-5.6,5.92
13.73464298248291,-5.12,-1.7,-5.08,7.41
13.744555950164795,-5.36,-3.44,-5.01,8.1
13.754155158996582,1.47,1.9,-0.6,2.47
13.764379024505615,5.3,0.51,3.06,6.14
13.774307250976562,0.64,-3.46,-1.96,4.02
13.784627914428711,-4.61,-4.1,-2.77,6.76
13.820383071899414,-8.03,-3.21,-0.85,8.68
13.821590900421143,-10.25,-2.29,-0.4,10.51
13.822576999664307,-11.19,-1.91,-0.32,11.35
13.839600086212158,-9.58,-2.19,0.76,9.85
13.840620994567871,-6.78,-3.27,2.07,7.8
13.852874040603638,-4.61,-4.61,3.18,7.25
13.853976249694824,-3.64,-5.49,3.84,7.62
13.868130207061768,-3.4,-5.4,4.09,7.57
13.874043941497803,-3.31,-4.42,3.26,6.41
13.888429164886475,-2.84,-3.64,2.18,5.1
13.91908597946167,-2.24,-3.4,1.15,4.23
13.920435905456543,-2.01,-3.4,0.27,3.95
13.921415090560913,-1.29,-3.98,-1.41,4.41
13.939473152160645,-0.73,-4.33,-2.09,4.86
13.940556049346924,-0.57,-5.18,-2.14,5.63
13.955361127853394,-0.58,-6.39,-1.77,6.65
13.956393241882324,-0.55,-7.65,-1.34,7.78
13.971113204956055,-0.54,-8.67,-0.95,8.73
13.972753047943115,-0.72,-9.34,-0.6,9.38
13.987377166748047,-1.05,-9.57,-0.03,9.62
14.020637035369873,-1.48,-9.71,0.4,9.83
14.022011041641235,-1.99,-9.69,0.99,9.94
14.0230131149292,-2.42,-9.42,1.43,9.83
14.03925895690918,-2.55,-8.83,2.13,9.43
14.04029107093811,-2.05,-7.83,2.82,8.57
14.055339097976685,-0.59,-6.51,2.94,7.16
14.056394100189209,1.68,-5.14,2.75,6.06
14.071187973022461,4.07,-3.61,3.16,6.29
14.072631120681763,6.39,-1.91,3.92,7.73
14.087399959564209,8.8,-0.18,4.52,9.89
14.119147062301636,11.1,1.65,4.83,12.21
14.12056016921997,12.76,3.65,4.82,14.11
14.121569156646729,14.27,5.91,4.61,16.11
14.123054027557373,15.15,7.73,3.39,17.34
14.131519079208374,16.31,9.08,2.73,18.86
14.141571998596191,17.48,9.8,1.85,20.12
14.151947021484375,15.76,13.74,0.46,20.91
14.161902904510498,9.4,14.09,-11.21,20.31
14.171090126037598,-3.09,20.75,-20.49,29.32
14.181262016296387,-9.86,57.71,-8.43,59.15
14.191045045852661,-7.03,38.86,-6.97,40.1
14.221569061279297,-0.7,-0.25,-6.45,6.49
14.222862243652344,-0.16,-14.19,3.1,14.52
14.223880052566528,3.3,-17.96,7.8,19.85
14.239527225494385,9.65,-16.85,10.07,21.87
14.240554094314575,12.09,-12.5,8.63,19.41
14.255149126052856,7.64,-5.14,5.37,10.65
14.260540008544922,2.39,0.24,2.51,3.47
14.271169185638428,-1.32,3.73,-1.21,4.13
14.280721187591553,-3.17,6.37,-3.21,7.8
14.290507078170776,-2.09,5.72,-2.39,6.54
14.32255506515503,1.11,1.11,-0.42,1.62
14.32387399673462,3.03,-1.99,0.99,3.75
14.324899196624756,2.7,-2.75,1.02,3.98
14.339713096618652,1.05,-1.43,0.32,1.8
14.34073805809021,0.41,0.33,-0.73,0.89
14.356470108032227,0.94,0.51,-1.33,1.7
14.359663009643555,1.42,-0.12,-1.04,1.76
14.371763229370117,1.06,-0.34,-0.18,1.12
14.379889011383057,0.56,-0.16,0.37,0.69
14.389563083648682,0.25,-0.03,0.4,0.47
14.421831130981445,-0.08,0.07,0.51,0.52
14.423119068145752,-0.43,0.25,0.78,0.92
14.424137115478516,-0.58,0.4,0.67,0.97
14.439679145812988,-0.47,0.39,0.07,0.61
14.440738201141357,-0.15,0.31,-0.63,0.71
14.45567011833191,0.16,0.25,-0.89,0.93
14.458869934082031,0.28,0.06,-1.04,1.07
14.471342086791992,0.22,-0.04,-1.09,1.11
14.479193210601807,0.04,-0.05,-0.99,0.99
14.488892078399658,-0.25,0.14,-0.32,0.42
14.520058155059814,-0.47,0.36,0.31,0.66
14.521312236785889,-0.47,0.34,0.37,0.68
14.522222995758057,-0.35,0.35,0.3,0.57
14.539953231811523,-0.32,0.41,0.08,0.52
14.541027069091797,-0.39,0.5,-0.21,0.66
14.555798053741455,-0.55,0.5,-0.58,0.94
14.558131217956543,-0.8,0.52,-0.81,1.25
14.571238040924072,-1.0,0.56,-0.69,1.33
14.578441143035889,-1.02,0.46,-0.59,1.26
14.588020086288452,-0.85,0.35,-0.42,1.01
14.624717235565186,-0.53,0.37,-0.27,0.7
14.62601113319397,-0.4,0.53,-0.13,0.67
14.627066135406494,-0.55,0.74,-0.22,0.94
14.62808108329773,-0.83,0.88,-0.37,1.26
14.63784909248352,-1.16,1.04,-0.31,1.58
14.64772891998291,-1.69,1.26,-0.26,2.12
14.657698154449463,-2.14,1.54,0.04,2.63
14.667426109313965,-2.34,1.51,-0.28,2.79
14.677716255187988,-2.58,1.58,-0.75,3.11
14.687509059906006,-2.48,1.88,-1.35,3.39
14.723214149475098,-2.19,2.22,-1.83,3.61
14.724395036697388,-1.93,2.5,-2.13,3.8
14.725389957427979,-2.03,2.82,-2.23,4.12
14.739765167236328,-2.39,3.16,-1.96,4.42
14.74082612991333,-2.98,3.44,-1.55,4.8
14.755872249603271,-3.5,3.75,-1.3,5.29
14.756916999816895,-4.06,4.15,-0.96,5.88
14.771481990814209,-5.0,5.14,-0.47,7.18
14.776947021484375,-6.32,6.77,-0.69,9.28
14.787499904632568,-7.61,8.47,-2.1,11.57
14.823354244232178,-8.77,9.49,-4.57,13.7
14.824697017669678,-9.51,10.04,-5.45,14.86
14.825675964355469,-10.0,10.32,-5.5,15.38
14.836473941802979,-10.45,9.93,-6.61,15.85
14.837472915649414,-11.05,9.13,-7.78,16.3
14.856548070907593,-11.07,10.53,-6.65,16.66
14.858013153076172,-8.52,13.68,-3.94,16.59
14.871892929077148,-3.17,14.03,-4.98,15.22
14.875882148742676,1.91,12.11,-5.78,13.55
14.887705087661743,2.83,6.26,-4.76,8.35
14.923075199127197,-1.54,0.17,-4.8,5.04
14.924426078796387,-5.55,-3.82,-4.54,8.12
14.925427913665771,-3.59,-3.68,-4.41,6.77
14.93992805480957,3.07,0.1,1.97,3.64
14.94098424911499,2.64,-3.3,1.55,4.5
14.955846071243286,-3.08,-4.9,-2.43,6.27
14.9569091796875,-6.93,-4.72,-1.2,8.47
14.971694946289062,-9.47,-3.97,-0.52,10.28
14.97524905204773,-11.39,-3.48,-0.78,11.93
14.987808227539062,-11.72,-3.29,-0.62,12.18
14.995008945465088,-9.74,-3.6,0.35,10.38
15.03249216079712,-7.4,-4.54,1.67,8.84
15.033635139465332,-5.95,-5.32,2.57,8.38
15.034608125686646,-5.4,-5.57,2.59,8.17
15.036249160766602,-5.29,-5.19,2.03,7.68
15.04461407661438,-5.12,-4.46,0.92,6.85
15.054601192474365,-4.88,-3.64,-0.33,6.09
15.064417123794556,-4.41,-3.13,-1.13,5.52
15.07459020614624,-3.81,-2.94,-1.71,5.1
15.084546089172363,-3.23,-2.91,-2.18,4.86
15.09438705444336,-2.67,-2.98,-2.3,4.61
15.125977039337158,-2.13,-3.55,-2.32,4.74
15.12777304649353,-1.56,-4.6,-2.12,5.29
15.128783226013184,-1.19,-5.47,-1.54,5.8
15.13999605178833,-1.17,-5.96,-0.71,6.11
15.143671989440918,-1.15,-5.96,-0.45,6.08
15.155487060546875,-0.54,-5.7,-0.72,5.77
15.163912057876587,0.63,-5.17,-0.79,5.26
15.173646926879883,1.84,-4.42,-0.15,4.79
15.183692932128906,3.05,-3.71,0.87,4.88
15.193517208099365,4.37,-3.0,2.08,5.69
15.225435018539429,5.6,-2.03,3.16,6.74
15.226723194122314,6.31,-0.84,3.86,7.44
15.227704048156738,6.8,0.63,4.33,8.08
15.240170955657959,7.65,2.36,5.34,9.62
15.242876052856445,9.48,4.17,6.64,12.3
15.255880117416382,12.2,5.25,7.66,15.33
15.262708187103271,14.61,5.02,7.58,17.2
15.272872924804688,15.39,4.82,6.27,17.3
15.282835960388184,15.17,5.62,5.17,16.98
15.292710065841675,15.12,6.36,3.69,16.81
15.323355197906494,13.73,9.72,1.81,16.91
15.32471513748169,13.1,15.27,-2.93,20.33
15.325776100158691,9.57,7.17,-14.75,18.98
15.341783046722412,-4.16,14.72,-18.96,24.36
15.342915058135986,-10.61,46.54,-5.43,48.04
15.355193138122559,-8.21,31.34,-3.41,32.57
15.362113952636719,2.0,4.87,-2.44,5.8
15.372241020202637,5.57,-5.37,4.7,9.05
15.382297039031982,2.88,-13.1,9.09,16.2
15.392032146453857,3.07,-13.9,5.46,15.24
15.430619239807129,7.37,-10.68,5.58,14.12
15.432068109512329,8.5,-4.81,3.68,10.43
15.433067083358765,5.66,0.28,1.94,5.98
15.436047077178955,2.19,2.71,0.28,3.49
15.456415176391602,-0.97,2.79,-1.91,3.51
15.457895040512085,-2.37,1.96,-2.06,3.7
15.471740245819092,-1.42,1.31,-0.85,2.11
15.47321105003357,0.63,0.63,0.47,1.0
15.487892150878906,1.99,-0.29,0.56,2.08
15.49124002456665,1.81,-1.15,-0.56,2.21
15.534862041473389,1.06,-0.95,-0.93,1.7
15.536078929901123,0.77,-0.33,-0.52,0.98
15.537093162536621,0.69,-0.33,0.02,0.76
15.556755065917969,0.41,-0.38,0.55,0.78
15.55776596069336,0.3,-0.1,0.43,0.53
15.572576999664307,0.46,0.24,0.18,0.54
15.57398509979248,0.55,0.39,0.19,0.7
15.588499069213867,0.36,0.21,0.47,0.62
15.589991092681885,0.12,0.04,0.71,0.72
15.60489797592163,0.15,0.02,0.58,0.59
15.635354042053223,0.33,0.03,0.21,0.39
15.637224197387695,0.53,0.01,-0.15,0.55
15.638236999511719,0.49,-0.02,-0.32,0.58
15.656690120697021,0.35,-0.1,-0.61,0.71
15.657725095748901,0.24,-0.07,-0.65,0.69
15.673141956329346,0.21,-0.02,-0.5,0.54
15.674609184265137,0.09,0.03,-0.21,0.23
15.688626050949097,-0.06,0.16,0.17,0.24
15.69007396697998,-0.11,0.26,0.18,0.33
15.704935073852539,-0.02,0.25,0.04,0.25
15.734217166900635,0.02,0.29,0.05,0.29
15.735677242279053,-0.12,0.37,0.12,0.4
15.736654043197632,-0.37,0.37,-0.07,0.52
15.756808042526245,-0.6,0.46,-0.06,0.75
15.757870197296143,-0.66,0.47,-0.22,0.83
15.773071050643921,-0.59,0.4,-0.35,0.79
15.774554252624512,-0.62,0.43,-0.3,0.81
15.788763046264648,-0.89,0.6,-0.37,1.13
15.790242195129395,-1.22,0.8,-0.68,1.6
15.805045127868652,-1.57,0.96,-0.91,2.05
15.806556224822998,-1.88,1.18,-0.73,2.33
15.855822086334229,-1.87,1.13,-0.74,2.3
15.857006072998047,-1.68,1.0,-0.57,2.03
15.858033180236816,-1.51,1.07,-0.43,1.89
15.874485969543457,-1.56,1.38,-0.86,2.25
15.875970125198364,-1.61,1.67,-1.22,2.62
15.88969111442566,-1.85,1.93,-1.09,2.88
15.891142129898071,-2.02,2.08,-1.13,3.11
15.905592918395996,-1.9,2.24,-1.28,3.2
15.907081127166748,-1.78,2.35,-1.51,3.31
15.921601057052612,-1.82,2.47,-1.73,3.52
15.950604915618896,-2.11,2.67,-1.65,3.78
15.95206594467163,-2.63,2.9,-1.58,4.22
15.95306921005249,-3.37,3.42,-1.21,4.95
15.973710060119629,-4.26,4.69,-0.67,6.37
15.974728107452393,-5.34,6.19,-0.94,8.22
15.989109992980957,-6.67,7.37,-2.43,10.23
15.990600109100342,-7.9,8.33,-3.59,12.02
16.005680084228516,-8.66,9.0,-3.93,13.09
16.007164001464844,-9.1,9.05,-4.31,13.53
16.021621227264404,-9.46,8.76,-4.95,13.81
16.050873041152954,-10.16,8.48,-6.02,14.53
16.05220890045166,-10.98,9.1,-6.5,15.67
16.05322790145874,-10.06,12.72,-4.21,16.75
16.073816061019897,-5.95,14.89,-4.14,16.56
16.074870109558105,-0.12,13.63,-6.5,15.1
16.090004920959473,2.85,9.68,-5.28,11.38
16.091506004333496,0.51,3.36,-4.41,5.56
16.10556697845459,-4.83,-0.27,-2.65,5.51
16.107004165649414,-6.65,-3.07,-2.48,7.73
16.121885061264038,-1.24,1.08,-1.13,1.99
16.150180101394653,4.62,3.1,3.46,6.55
16.15248394012451,1.61,-1.32,-0.3,2.1
16.153521060943604,-3.74,-2.54,-1.93,4.91
16.173805236816406,-7.55,-2.59,-0.34,7.98
16.174921989440918,-10.16,-2.71,-0.41,10.52
16.190135955810547,-11.16,-3.14,-0.77,11.61
16.191608905792236,-9.4,-3.7,-0.21,10.1
16.205749034881592,-6.42,-4.69,0.72,7.98
16.207226037979126,-4.48,-5.9,1.25,7.51
16.22172498703003,-3.98,-6.69,1.43,7.91
16.251028060913086,-4.29,-6.82,1.25,8.15
16.252405166625977,-4.55,-6.32,0.81,7.82
16.253437995910645,-4.59,-5.27,-0.21,6.99
16.273661136627197,-4.38,-4.26,-1.36,6.25
16.274682998657227,-3.91,-3.74,-2.12,5.81
16.28998112678528,-3.57,-3.64,-2.61,5.72
16.291440963745117,-3.44,-3.8,-2.8,5.84
16.305542945861816,-3.28,-4.17,-2.7,5.95
16.30698823928833,-3.02,-4.74,-2.39,6.1
16.32266092300415,-2.66,-5.55,-1.95,6.45
16.351584911346436,-2.36,-6.64,-1.79,7.27
16.353008031845093,-2.2,-7.51,-1.76,8.02
16.35402202606201,-2.33,-7.92,-1.56,8.4
16.37343120574951,-2.74,-7.66,-1.03,8.2
16.374435901641846,-2.97,-6.85,-0.4,7.47
16.390181064605713,-2.45,-5.86,-0.04,6.35
16.391651153564453,-0.83,-5.13,0.1,5.19
16.405516147613525,1.1,-4.53,0.76,4.72
16.406983137130737,2.92,-3.32,1.91,4.81
16.421654224395752,4.5,-1.57,2.82,5.53
16.449389934539795,5.81,0.38,3.34,6.71
16.450743198394775,7.14,2.66,3.55,8.4
16.45176601409912,8.81,5.14,3.84,10.89
16.454262018203735,11.05,7.56,4.7,14.18
16.4556622505188,13.77,9.36,5.01,17.38
16.457061052322388,16.18,10.3,5.14,19.85
16.4636812210083,17.98,10.66,5.56,21.62
16.47360897064209,19.0,10.98,5.76,22.68
16.484292030334473,18.67,10.62,5.8,22.24
16.493462085723877,15.3,13.13,4.09,20.57
16.527501106262207,12.87,13.46,0.16,18.62
16.528834104537964,6.18,0.34,-11.84,13.36
16.529661178588867,-8.63,1.54,-19.89,21.73
16.540765047073364,-17.41,34.39,-4.98,38.86
16.543084144592285,-16.61,38.73,5.36,42.48
16.55377507209778,-5.74,8.35,-0.28,10.13
16.563321113586426,5.6,-3.15,2.45,6.87
16.572790145874023,8.92,-11.34,6.76,15.93
16.58290410041809,10.57,-13.56,2.86,17.42
16.593061923980713,12.04,-10.12,2.83,15.98
16.603195190429688,9.01,-3.8,4.46,10.74
16.63266611099243,3.18,-0.56,3.06,4.44
16.633830070495605,-0.81,1.36,1.17,1.96
16.635061025619507,-2.36,2.67,-1.34,3.8
16.642378091812134,-0.73,2.54,-1.88,3.24
16.65221118927002,1.56,1.02,-0.38,1.9
16.662482023239136,1.95,-0.03,0.6,2.04
16.67215609550476,0.9,-0.88,0.45,1.33
16.682054042816162,0.25,-0.88,0.0,0.91
16.69207191467285,0.51,-0.37,-0.66,0.91
16.702428102493286,0.84,-0.19,-0.92,1.26
16.732599020004272,0.8,-0.26,-0.67,1.07
16.73354721069336,0.64,-0.14,-0.27,0.7
16.734787940979004,0.55,0.02,-0.11,0.56
16.741772174835205,0.59,0.12,-0.1,0.61
16.75163698196411,0.66,0.08,0.16,0.68
16.76161813735962,0.45,-0.04,0.64,0.78
16.771549224853516,0.24,-0.12,0.91,0.94
16.781404972076416,0.13,-0.16,0.63,0.66
16.791418075561523,0.12,0.0,0.19,0.22
16.80155897140503,0.1,0.14,-0.41,0.44
16.831825256347656,-0.02,0.28,-0.6,0.66
16.83297300338745,-0.13,0.3,-0.38,0.5
16.83428192138672,0.0,0.08,-0.44,0.44
16.840991973876953,0.21,-0.02,-0.31,0.37
16.856904983520508,0.09,0.0,-0.07,0.11
16.860758066177368,-0.29,0.17,0.24,0.41
16.870543003082275,-0.6,0.35,0.35,0.77
16.88065195083618,-0.63,0.41,0.08,0.75
16.890640020370483,-0.51,0.44,-0.18,0.69
16.900734901428223,-0.44,0.43,-0.2,0.64
16.931008100509644,-0.5,0.42,-0.09,0.65
16.93221402168274,-0.73,0.36,0.06,0.81
16.933457136154175,-0.89,0.37,-0.12,0.97
16.940120220184326,-0.85,0.37,-0.4,1.0
16.95696210861206,-0.81,0.5,-0.47,1.06
16.960218906402588,-0.99,0.58,-0.8,1.39
16.972572088241577,-1.3,0.71,-1.07,1.82
16.980294227600098,-1.38,0.97,-1.02,1.97
16.98990821838379,-1.32,1.08,-0.74,1.85
16.999978065490723,-1.39,1.02,-0.54,1.8
17.037158966064453,-1.64,1.06,-0.29,1.97
17.038350105285645,-1.89,1.19,-0.34,2.25
17.039369106292725,-2.06,1.33,-1.07,2.67
17.057802200317383,-1.97,1.87,-1.47,3.08
17.058829069137573,-2.04,2.7,-1.69,3.78
17.073065042495728,-2.02,3.36,-1.72,4.28
17.074100971221924,-2.27,3.77,-1.42,4.62
17.089176177978516,-2.88,3.82,-1.4,4.98
17.090610027313232,-3.49,3.82,-1.25,5.32
17.105478048324585,-3.82,3.97,-0.8,5.56
17.136148929595947,-4.21,4.44,-0.58,6.14
17.137479066848755,-4.99,5.03,-1.13,7.17
17.138554096221924,-5.93,5.92,-1.61,8.53
17.157352924346924,-7.14,7.25,-2.33,10.43
17.15842604637146,-8.66,8.41,-3.88,12.67
17.173985958099365,-9.8,9.35,-4.64,14.31
17.175487995147705,-10.63,10.5,-4.86,15.71
17.189162254333496,-11.52,10.62,-6.64,17.01
17.190596103668213,-12.27,9.72,-8.37,17.75
17.205689907073975,-11.66,11.35,-7.27,17.82
17.23621416091919,-8.31,14.1,-5.04,17.12
17.237628936767578,-2.56,13.37,-5.99,14.87
17.23863911628723,2.63,11.35,-5.08,12.71
17.257312059402466,3.0,7.15,-4.34,8.88
17.25833797454834,-2.29,2.48,-5.14,6.14
17.27280306816101,-6.21,-0.96,-3.96,7.42
17.274240016937256,-2.49,1.34,-2.63,3.86
17.28954792022705,5.52,5.68,2.08,8.18
17.290991067886353,6.29,0.05,0.15,6.29
17.30651617050171,0.78,-2.76,-4.44,5.28
17.334792137145996,-4.41,-2.72,-2.62,5.8
17.336231231689453,-7.58,-2.46,-1.82,8.17
17.337244033813477,-9.29,-2.6,-2.15,9.88
17.357667922973633,-9.04,-3.3,-1.9,9.8
17.358721256256104,-6.8,-4.31,-0.61,8.07
17.37407112121582,-5.01,-5.98,0.41,7.81
17.37551212310791,-4.52,-7.64,0.84,8.91
17.3888840675354,-4.86,-8.37,1.11,9.74
17.390303134918213,-5.41,-7.89,1.21,9.64
17.40394902229309,-5.51,-7.68,0.79,9.48
17.406702041625977,-5.08,-7.59,0.46,9.14
17.45197820663452,-5.16,-7.23,0.5,8.89
17.453176021575928,-5.18,-7.6,-0.89,9.24
17.45418691635132,-4.95,-7.43,-1.82,9.11
17.474613189697266,-5.0,-6.92,-1.91,8.74
17.47614622116089,-4.98,-6.97,-1.9,8.77
17.490381240844727,-4.59,-7.28,-1.75,8.78
17.49186420440674,-3.85,-7.68,-1.51,8.72
17.506006240844727,-3.11,-8.14,-1.49,8.84
17.50740098953247,-2.71,-8.34,-1.31,8.86
17.52133011817932,-2.68,-8.06,-0.79,8.53
17.551523208618164,-2.91,-7.37,0.07,7.92
17.5528302192688,-2.95,-6.57,0.55,7.22
17.55386710166931,-2.36,-5.62,0.51,6.11
17.5728702545166,-1.21,-4.5,0.41,4.67
17.573883056640625,0.02,-3.1,1.25,3.34
17.591125011444092,1.38,-1.0,2.47,3.0
17.592581033706665,3.36,1.55,3.19,4.88
17.605987071990967,5.91,4.36,3.47,8.12
17.60742712020874,8.68,7.4,3.55,11.94
17.622283935546875,11.64,10.52,3.65,16.1
17.65159797668457,14.88,13.61,3.95,20.54
17.65298891067505,17.76,15.29,3.71,23.72
17.654085159301758,19.82,14.45,3.19,24.73
17.671008110046387,20.9,13.17,2.88,24.87
17.67208504676819,21.21,12.15,3.49,24.69
17.69041109085083,20.21,10.21,3.35,22.88
17.691450119018555,18.21,12.96,1.17,22.38
17.70625400543213,11.16,4.7,-3.68,12.65
17.70773410797119,-2.99,-7.75,-12.52,15.02
17.721930980682373,-20.43,-2.58,-26.26,33.37
17.7502760887146,-29.54,27.89,-2.52,40.7
17.75167417526245,-17.59,41.77,23.52,51.06
17.752662181854248,-5.84,12.32,5.8,14.81
17.754996061325073,2.13,-4.55,2.92,5.81
17.756372928619385,9.01,-7.63,4.77,12.73
17.76394510269165,11.48,-10.65,0.83,15.68
17.77397394180298,12.23,-9.3,-1.45,15.43
17.78371810913086,11.58,-4.74,0.65,12.52
17.794092178344727,7.98,-1.35,1.31,8.19
17.80391812324524,3.13,0.46,-0.25,3.17
17.84013605117798,0.09,2.17,-0.68,2.27
17.841309070587158,-0.92,2.51,-1.14,2.9
17.842387199401855,-0.23,1.68,-0.63,1.8
17.85778307914734,0.83,0.57,0.32,1.05
17.85884714126587,0.95,-0.5,1.35,1.72
17.87364411354065,0.33,-1.21,1.92,2.29
17.874675035476685,-0.16,-1.23,1.54,1.97
17.88958501815796,-0.16,-0.58,0.76,0.96
17.89307713508606,0.12,0.03,-0.15,0.19
17.905357122421265,0.5,0.25,-0.85,1.01
17.940552234649658,0.64,0.24,-0.81,1.05
17.94188690185547,0.54,0.11,-0.65,0.85
17.9429349899292,0.69,0.02,-0.58,0.9
17.957974910736084,0.8,-0.04,-0.16,0.81
17.95900821685791,0.48,-0.08,0.18,0.51
17.973665237426758,0.02,-0.15,0.4,0.42
17.974688053131104,-0.17,-0.07,0.55,0.57
17.989652156829834,-0.16,-0.02,0.6,0.62
17.992435932159424,-0.15,0.04,0.66,0.67
18.005867958068848,-0.05,-0.04,0.26,0.26
18.03985595703125,0.14,-0.04,-0.36,0.38
18.0411319732666,0.34,0.1,-0.82,0.89
18.042108058929443,0.27,0.14,-1.12,1.16
18.05795192718506,-0.02,0.27,-0.69,0.74
18.059032917022705,-0.38,0.36,-0.24,0.57
18.073877096176147,-0.51,0.37,0.36,0.72
18.074921131134033,-0.29,0.27,0.5,0.63
18.08976697921753,-0.25,0.19,0.24,0.39
18.091605186462402,-0.39,0.32,0.01,0.5
18.105690002441406,-0.48,0.44,-0.34,0.73
18.139836072921753,-0.64,0.44,-0.53,0.94
18.1412410736084,-0.74,0.47,-0.73,1.14
18.14226722717285,-0.79,0.57,-0.86,1.29
18.158241033554077,-1.01,0.78,-1.06,1.65
18.159261226654053,-1.4,0.96,-1.26,2.11
18.173753023147583,-1.83,1.12,-1.28,2.49
18.17507791519165,-2.06,1.24,-1.13,2.65
18.189781188964844,-2.32,1.18,-0.94,2.76
18.1912522315979,-2.48,1.22,-0.77,2.86
18.20586919784546,-2.4,1.43,-0.87,2.92
18.21060800552368,-1.85,1.82,-1.08,2.81
18.252004146575928,-1.16,2.08,-1.3,2.71
18.253177165985107,-1.0,2.51,-1.29,2.99
18.25416111946106,-1.61,3.05,-1.15,3.63
18.27490997314453,-2.3,3.37,-0.69,4.13
18.276405096054077,-3.15,3.48,-0.32,4.7
18.29161024093628,-3.74,3.53,-0.42,5.15
18.293088912963867,-4.05,3.78,-0.66,5.57
18.306629180908203,-4.29,4.36,-1.09,6.21
18.308110237121582,-5.13,5.43,-1.42,7.6
18.32258415222168,-6.39,7.69,-1.64,10.13
18.35310697555542,-7.83,9.31,-4.5,12.97
18.35445809364319,-9.0,9.73,-6.24,14.64
18.35548496246338,-9.93,10.14,-5.46,15.2
18.37458610534668,-10.77,9.75,-5.92,15.68
18.37568211555481,-11.37,8.6,-6.35,15.6
18.39094591140747,-11.44,8.43,-5.81,15.35
18.392393112182617,-9.51,10.53,-4.04,14.75
18.407094955444336,-5.08,11.8,-4.39,13.57
18.408534049987793,0.14,12.13,-4.98,13.11
18.422647953033447,2.69,9.81,-3.98,10.92
18.45289707183838,0.5,3.91,-4.71,6.14
18.45424509048462,-3.99,-0.61,-5.07,6.48
18.455256938934326,-5.47,-3.45,-5.23,8.31
18.474649906158447,-0.44,0.84,-1.67,1.92
18.475636959075928,2.91,0.84,2.24,3.76
18.4909930229187,-1.48,-2.98,-2.39,4.09
18.49245810508728,-5.94,-3.18,-3.3,7.5
18.506487131118774,-8.89,-2.01,-1.63,9.25
18.507983207702637,-11.09,-1.63,-1.6,11.32
18.52263903617859,-11.56,-1.95,-1.53,11.82
18.55097723007202,-9.4,-2.8,-0.4,9.81
18.552369117736816,-6.58,-4.29,0.75,7.89
18.55335807800293,-4.97,-6.0,0.93,7.84
18.555583000183105,-4.36,-6.87,0.54,8.15
18.5578031539917,-4.04,-6.53,-0.02,7.67
18.5677809715271,-3.74,-5.66,-0.69,6.81
18.5780029296875,-3.54,-4.81,-1.47,6.15
18.58795690536499,-3.08,-4.51,-2.07,5.84
18.597641944885254,-2.42,-4.6,-2.34,5.7
18.607877254486084,-1.94,-4.83,-2.36,5.71
18.644366025924683,-1.83,-5.23,-2.31,6.0
18.64554214477539,-2.1,-5.75,-2.1,6.47
18.64656400680542,-2.53,-6.45,-1.89,7.18
18.6584050655365,-2.72,-7.07,-1.43,7.7
18.659451961517334,-2.69,-7.49,-0.35,7.96
18.673867225646973,-2.68,-7.77,0.83,8.26
18.676902055740356,-2.86,-7.8,2.07,8.56
18.689815044403076,-2.93,-7.23,2.75,8.27
18.696962118148804,-2.25,-6.1,2.95,7.13
18.70720100402832,-0.75,-4.73,3.71,6.05
18.743951082229614,0.91,-3.13,4.74,5.75
18.74513602256775,2.58,-1.21,5.7,6.37
18.746201992034912,4.48,0.83,6.42,7.87
18.75868010520935,6.51,2.64,6.53,9.59
18.759766101837158,8.89,4.44,6.17,11.69
18.77421998977661,11.31,6.4,5.77,14.21
18.7762131690979,13.9,8.21,5.69,17.11
18.789918899536133,16.46,9.57,4.99,19.68
18.79649019241333,18.5,10.53,4.5,21.75
18.80671215057373,19.58,10.78,4.08,22.72
18.84221911430359,19.94,10.18,4.75,22.88
18.84366512298584,18.15,10.75,5.17,21.71
18.84473204612732,16.1,13.34,-0.3,20.91
18.85844612121582,6.75,-0.43,-14.84,16.3
18.85949993133545,-11.97,-0.74,-27.36,29.87
18.874258041381836,-21.16,37.55,-9.13,44.05
18.875333070755005,-13.49,48.74,7.97,51.19
18.88984513282776,-0.31,16.3,-3.57,16.68
18.895543098449707,4.25,-4.95,1.45,6.68
18.906187057495117,4.34,-15.88,5.65,17.4
18.943443059921265,7.09,-17.38,0.7,18.78
18.94476890563965,11.64,-12.23,3.45,17.23
18.945800065994263,11.77,-6.43,5.7,14.57
18.95841693878174,6.44,-2.21,3.25,7.54
18.959472179412842,0.71,0.85,2.32,2.57
18.97471308708191,-3.27,2.96,0.34,4.42
18.976160049438477,-3.57,4.05,-0.84,5.46
18.98989200592041,-0.53,2.32,-0.14,2.38
18.9949312210083,2.16,0.28,0.42,2.21
19.006196975708008,2.76,-0.85,0.31,2.9
19.014849185943604,1.8,-1.43,0.0,2.29
19.050827026367188,0.86,-0.86,-0.18,1.22
19.051971912384033,0.78,-0.23,-0.17,0.83
19.052935123443604,0.99,-0.25,-0.61,1.18
19.055171012878418,1.06,-0.17,-1.06,1.5
19.06421709060669,0.93,0.14,-0.89,1.29
19.074018001556396,0.73,0.2,-0.37,0.84
19.084497928619385,0.62,0.02,0.23,0.66
19.094182014465332,0.42,-0.18,0.65,0.79
19.10434913635254,0.01,-0.19,0.91,0.92
19.113914012908936,-0.25,0.03,0.77,0.81
19.147446155548096,-0.2,0.15,0.11,0.27
19.14874792098999,0.06,0.3,-0.14,0.33
19.14971923828125,0.21,0.22,-0.25,0.39
19.15463399887085,0.29,0.0,-0.22,0.36
19.163576126098633,0.29,-0.16,-0.24,0.4
19.17355513572693,0.16,-0.18,-0.43,0.49
19.183478116989136,-0.04,0.02,-0.38,0.38
19.193210124969482,-0.35,0.2,-0.25,0.47
19.2035391330719,-0.6,0.31,0.01,0.67
19.21323299407959,-0.49,0.38,0.32,0.69
19.24555206298828,-0.22,0.26,0.3,0.45
19.24692702293396,-0.11,0.18,0.04,0.21
19.24794912338257,-0.29,0.27,-0.19,0.43
19.258382081985474,-0.63,0.45,-0.29,0.82
19.262507915496826,-0.96,0.58,-0.26,1.15
19.275326251983643,-1.06,0.57,-0.19,1.21
19.283019065856934,-1.02,0.5,-0.2,1.15
19.292474031448364,-0.81,0.48,-0.3,0.98
19.30273723602295,-0.8,0.47,-0.66,1.13
19.31228494644165,-1.1,0.69,-0.96,1.61
19.344079971313477,-1.52,0.99,-1.09,2.11
19.345410108566284,-1.8,1.21,-0.85,2.32
19.34644603729248,-1.85,1.23,-0.82,2.36
19.358869075775146,-1.75,1.24,-0.82,2.29
19.36163902282715,-1.52,1.49,-0.84,2.28
19.37424111366272,-1.31,1.78,-1.05,2.44
19.38192892074585,-1.26,2.12,-1.19,2.73
19.391693115234375,-1.66,2.59,-1.46,3.4
19.40179705619812,-2.16,3.39,-1.32,4.23
19.411526203155518,-2.73,3.83,-1.15,4.84
19.451641082763672,-3.02,4.03,-1.14,5.16
19.45310115814209,-3.18,4.06,-1.26,5.3
19.45407199859619,-3.38,4.21,-1.46,5.59
19.456389904022217,-3.96,4.87,-1.54,6.46
19.46114706993103,-4.95,5.91,-1.75,7.9
19.47110891342163,-6.33,7.54,-1.83,10.01
19.481345176696777,-8.17,9.17,-2.77,12.59
19.491124153137207,-9.93,10.09,-4.47,14.84
19.501079082489014,-10.84,10.7,-4.8,15.96
19.51167392730713,-11.23,10.85,-5.75,16.64
19.5483820438385,-11.3,10.13,-7.03,16.72
19.54970908164978,-11.56,9.28,-7.91,16.8
19.550710201263428,-10.59,10.7,-6.26,16.3
19.55457305908203,-6.82,13.4,-3.94,15.54
19.5609769821167,-0.88,13.76,-4.73,14.57
19.571649074554443,2.91,10.13,-5.13,11.72
19.580159187316895,1.44,3.58,-5.59,6.79
19.59022617340088,-3.1,-1.3,-5.47,6.42
19.60030698776245,-5.35,-4.08,-4.9,8.32
19.610065937042236,-0.4,-0.21,-0.89,0.99
19.64666509628296,3.84,-1.07,2.53,4.72
19.647942066192627,0.0,-4.91,-2.58,5.54
19.648977041244507,-4.47,-5.22,-3.68,7.79
19.65797710418701,-7.4,-4.07,-2.08,8.69
19.65944504737854,-9.47,-3.35,-2.06,10.25
19.67487406730652,-10.56,-2.95,-2.14,11.17
19.679445028305054,-9.38,-2.94,-1.36,9.92
19.69039011001587,-7.13,-3.81,-0.11,8.08
19.699965953826904,-5.58,-4.8,1.04,7.43
19.709547996520996,-5.08,-5.66,1.61,7.77
19.74671220779419,-5.0,-6.06,1.65,8.02
19.748188972473145,-4.79,-5.69,1.1,7.51
19.74917697906494,-4.31,-4.97,-0.07,6.57
19.7589750289917,-3.71,-4.27,-1.31,5.8
19.75999903678894,-3.17,-3.62,-2.55,5.44
19.774769067764282,-2.7,-3.08,-3.71,5.52
19.778610229492188,-2.33,-2.82,-4.52,5.81
19.79038715362549,-2.03,-2.77,-4.86,5.95
19.79883909225464,-1.9,-3.06,-4.56,5.81
19.808561086654663,-1.67,-3.44,-3.95,5.49
19.818631172180176,-0.95,-3.67,-4.02,5.52
19.85093402862549,0.48,-4.33,-4.6,6.33
19.852084159851074,2.13,-4.95,-4.49,7.01
19.85325312614441,2.7,-5.16,-3.42,6.75
19.85807204246521,2.11,-5.41,-2.06,6.16
19.86809015274048,1.01,-5.13,-0.87,5.3
19.878140926361084,0.3,-4.08,0.76,4.16
19.88797903060913,0.78,-3.03,2.76,4.17
19.89812207221985,1.99,-2.68,4.58,5.66
19.907992124557495,3.18,-2.32,6.4,7.51
19.91801118850708,4.29,-1.73,8.02,9.25
19.94907808303833,5.65,-1.41,8.25,10.09
19.950232982635498,6.95,-0.6,7.29,10.08
19.95140314102173,8.31,1.25,5.98,10.31
19.957231998443604,10.41,3.13,5.08,11.99
19.972259044647217,12.74,4.99,4.7,14.46
19.97711706161499,15.65,6.61,5.06,17.72
19.990521907806396,17.79,7.8,5.77,20.26
19.99754524230957,18.13,9.07,6.95,21.43
20.00712490081787,17.11,9.89,7.81,21.24
20.017273902893066,15.7,9.08,8.99,20.24
20.047965049743652,15.01,6.43,8.83,18.56
20.0491361618042,13.82,5.05,1.91,14.83
20.050414085388184,2.54,-3.62,-9.99,10.92
20.056734085083008,-12.43,-5.35,-31.64,34.41
20.066576957702637,-26.29,31.93,-27.06,49.42
20.076425075531006,-24.7,61.96,20.7,69.83
20.08631420135498,-10.26,26.02,9.16,29.43
20.096424102783203,2.07,-0.75,5.07,5.52
20.106466054916382,3.92,-13.29,6.57,15.33
20.11638116836548,6.12,-19.16,0.68,20.12
20.148852109909058,10.28,-16.77,0.63,19.68
20.150131225585938,11.64,-10.27,4.1,16.05
20.151155948638916,9.65,-4.29,4.72,11.56
20.15572500228882,5.58,-0.11,2.99,6.33
20.17502498626709,1.07,2.82,-0.47,3.05
20.17606806755066,-1.45,4.38,-3.88,6.02
20.190214157104492,-1.55,4.67,-3.42,5.99
20.195363998413086,-0.38,2.42,0.08,2.45
20.2066011428833,0.91,-0.53,1.72,2.01
20.21570920944214,1.5,-1.86,1.23,2.68
20.251683235168457,1.13,-1.62,0.59,2.06
20.25321102142334,0.76,-0.31,-0.19,0.84
20.254188060760498,0.67,0.34,-0.69,1.02
20.256603240966797,0.82,0.1,-0.3,0.87
20.265160083770752,0.86,-0.32,0.02,0.91
20.274943113327026,0.76,-0.41,0.35,0.93
20.284816026687622,0.75,-0.28,0.59,0.99
20.29483699798584,0.69,-0.27,0.36,0.82
20.30515193939209,0.65,-0.36,-0.24,0.78
20.314932107925415,0.55,-0.3,-0.48,0.78
20.353008031845093,0.2,0.06,0.1,0.23
20.354283094406128,-0.19,0.21,0.47,0.54
20.355300903320312,-0.48,0.26,0.58,0.79
20.375196933746338,-0.64,0.29,0.03,0.7
20.376245975494385,-0.76,0.41,-0.75,1.14
20.39069700241089,-0.71,0.64,-1.05,1.41
20.391703128814697,-0.61,0.64,-1.06,1.38
20.407320022583008,-0.56,0.53,-0.6,0.97
20.408798217773438,-0.59,0.34,-0.22,0.71
20.423553943634033,-0.62,0.25,-0.17,0.68
20.452444076538086,-0.78,0.34,-0.3,0.9
20.453777074813843,-0.98,0.5,-0.41,1.17
20.4547700881958,-0.96,0.63,-0.38,1.2
20.475919246673584,-0.69,0.56,-0.37,0.96
20.47699213027954,-0.6,0.43,-0.36,0.82
20.492109060287476,-0.61,0.43,-0.33,0.81
20.493497133255005,-0.68,0.39,-0.62,0.99
20.507535934448242,-0.75,0.45,-0.84,1.21
20.509011030197144,-0.72,0.57,-0.85,1.25
20.52361011505127,-0.75,0.62,-0.67,1.18
20.55306911468506,-0.92,0.64,-0.64,1.29
20.554572105407715,-1.26,0.67,-0.35,1.46
20.555593967437744,-1.79,0.87,-0.09,1.99
20.57589817047119,-2.04,1.37,-0.35,2.48
20.576930046081543,-1.41,1.74,-0.95,2.43
20.59217119216919,-1.05,2.14,-1.29,2.71
20.593617916107178,-1.31,2.9,-1.02,3.34
20.607332229614258,-2.22,3.38,-1.27,4.23
20.608806133270264,-3.05,3.82,-1.09,5.0
20.62366819381714,-3.43,4.07,-1.22,5.46
20.625141143798828,-3.36,4.15,-1.61,5.57
20.671674251556396,-3.34,4.59,-1.61,5.9
20.67277717590332,-3.76,5.37,-1.81,6.8
20.673759937286377,-4.83,6.36,-2.54,8.38
20.692764043807983,-6.31,7.61,-3.18,10.38
20.69424819946289,-7.95,9.08,-3.08,12.45
20.706818103790283,-9.66,10.44,-3.04,14.54
20.7083261013031,-10.74,11.04,-3.92,15.89
20.724242210388184,-11.04,10.83,-5.24,16.32
20.725697994232178,-11.39,9.83,-6.8,16.51
20.740427017211914,-11.68,9.19,-7.95,16.85
20.7713041305542,-10.35,11.42,-5.27,16.28
20.77260398864746,-6.11,14.39,-2.33,15.8
20.77363920211792,-0.11,13.19,-4.4,13.9
20.792520999908447,2.78,7.61,-5.95,10.05
20.79401206970215,0.53,2.01,-6.01,6.35
20.80897307395935,-3.85,-1.42,-4.39,6.0
20.81044292449951,-4.18,-2.59,-2.85,5.68
20.82430410385132,2.35,1.65,2.74,3.96
20.82579803466797,5.43,-1.36,4.06,6.91
20.84044909477234,0.88,-5.1,-2.82,5.89
20.871490955352783,-4.22,-5.17,-3.66,7.61
20.87275791168213,-7.48,-3.52,-1.88,8.47
20.873759031295776,-9.54,-2.53,-1.91,10.05
20.892471075057983,-10.44,-2.11,-1.86,10.81
20.89350414276123,-8.66,-2.56,-1.0,9.08
20.90895414352417,-5.63,-3.98,0.06,6.89
20.910413026809692,-3.91,-5.26,0.94,6.62
20.924382209777832,-3.67,-6.28,1.4,7.4
20.925894021987915,-4.04,-6.68,1.06,7.87
20.94054913520813,-4.44,-6.54,0.31,7.91
20.969540119171143,-4.56,-6.02,-0.59,7.57
20.970942974090576,-4.49,-5.34,-1.54,7.14
20.97192621231079,-4.29,-4.77,-2.34,6.82
20.992427110671997,-4.07,-4.64,-2.82,6.78
20.993439197540283,-3.9,-4.99,-2.82,6.93
21.008971214294434,-3.69,-5.5,-2.52,7.08
21.010417938232422,-3.31,-6.12,-2.3,7.32
21.02409315109253,-2.87,-6.72,-2.21,7.63
21.02559208869934,-2.53,-7.23,-2.17,7.96
21.04056215286255,-2.37,-7.67,-2.19,8.32
21.069197177886963,-2.33,-7.82,-2.11,8.42
21.070565223693848,-2.29,-7.61,-1.83,8.15
21.071633100509644,-2.25,-7.12,-1.62,7.64
21.09254002571106,-1.88,-6.33,-1.17,6.7
21.093575954437256,-0.86,-5.5,-0.62,5.6
21.108657121658325,0.59,-4.73,-0.13,4.76
21.110105991363525,2.38,-3.21,0.56,4.03
21.124377250671387,4.44,-0.84,1.33,4.71
21.125848054885864,6.46,1.97,1.88,7.01
21.1404390335083,8.16,5.23,2.3,9.96
21.169090032577515,9.91,8.75,2.61,13.47
21.170597076416016,12.23,11.65,2.99,17.15
21.171582221984863,14.87,13.82,3.01,20.52
21.19001293182373,17.32,14.67,2.18,22.8
21.191047191619873,19.32,14.44,2.04,24.2
21.205395221710205,20.69,13.92,3.43,25.17
21.206501007080078,20.86,12.18,5.34,24.73
21.224510192871094,17.2,12.9,6.07,22.34
21.225940227508545,8.28,11.75,6.07,15.6
21.241610050201416,-1.95,-0.84,-1.54,2.62
21.270328998565674,-16.69,-3.72,-11.94,20.85
21.271687030792236,-29.12,15.41,-5.64,33.42
21.27271008491516,-21.09,36.39,17.27,45.46
21.292325973510742,-6.63,19.8,9.58,22.97
21.293363094329834,2.39,-1.14,1.18,2.89
21.30844020843506,7.52,-8.62,1.56,11.54
21.309767246246338,10.6,-9.5,1.24,14.28
21.324467182159424,12.78,-4.7,0.03,13.61
21.325974941253662,12.09,-3.46,-0.74,12.59
21.340795040130615,8.52,-0.59,-2.48,8.89
21.370849132537842,3.38,2.68,-2.65,5.06
21.3721342086792,0.76,2.35,-3.31,4.12
21.373106002807617,0.73,0.46,-1.87,2.05
21.39276123046875,1.17,-0.38,0.66,1.39
21.393822193145752,1.12,-0.54,3.35,3.57
21.40857696533203,0.22,-0.92,4.83,4.92
21.40964412689209,-0.83,-1.18,3.48,3.76
21.424516201019287,-0.43,-0.71,1.26,1.5
21.42597723007202,0.84,-0.04,0.11,0.84
21.44083595275879,1.37,-0.03,-0.35,1.41
21.44231104850769,0.99,-0.13,-0.29,1.03
21.48815608024597,0.5,-0.06,-0.22,0.54
21.489330053329468,0.55,0.1,-0.56,0.79
21.490352153778076,1.13,0.03,-0.98,1.49
21.509257078170776,1.25,-0.13,-1.1,1.67
21.510308027267456,0.83,-0.08,-0.8,1.15
21.525705099105835,0.09,-0.06,-0.08,0.13
21.527194023132324,-0.55,0.0,0.95,1.09
21.541343212127686,-0.87,0.02,1.63,1.84
21.542826175689697,-0.73,0.03,1.33,1.51
21.557435035705566,-0.17,0.08,0.21,0.28
21.58790111541748,0.31,0.15,-0.9,0.96
21.589252948760986,0.44,0.27,-1.18,1.28
21.59027099609375,0.27,0.22,-0.89,0.95
21.609632968902588,-0.14,0.12,-0.43,0.46
21.610657215118408,-0.59,0.25,-0.22,0.67
21.625576972961426,-0.69,0.42,-0.08,0.81
21.62701106071472,-0.65,0.46,0.15,0.81
21.641178131103516,-0.66,0.39,0.17,0.78
21.64263606071472,-0.59,0.29,0.01,0.65
21.657223224639893,-0.53,0.18,-0.39,0.68
21.686110973358154,-0.56,0.23,-0.82,1.01
21.68745517730713,-0.41,0.41,-0.94,1.1
21.688367128372192,-0.29,0.51,-0.94,1.1
21.709469079971313,-0.46,0.55,-1.06,1.27
21.710491180419922,-0.89,0.63,-1.36,1.74
21.725528240203857,-1.41,0.86,-1.31,2.1
21.727042198181152,-1.81,1.13,-1.22,2.45
21.7413649559021,-1.99,1.25,-1.19,2.63
21.742862224578857,-2.15,1.33,-1.35,2.86
21.757484912872314,-2.13,1.43,-1.37,2.9
21.786407947540283,-1.9,1.68,-1.49,2.94
21.78779697418213,-2.04,2.17,-1.35,3.27
21.788798093795776,-2.27,2.8,-1.3,3.83
21.80959415435791,-2.6,3.59,-1.11,4.56
21.810617923736572,-3.22,4.7,-0.79,5.75
21.825822114944458,-3.96,5.41,-1.33,6.83
21.826921939849854,-4.7,6.58,-1.36,8.19
21.839206218719482,-5.65,8.66,-1.41,10.43
21.84074592590332,-6.93,10.23,-3.54,12.85
21.85543203353882,-7.75,10.61,-5.44,14.22
21.8825101852417,-7.96,11.04,-4.83,14.44
21.88382911682129,-9.43,11.1,-5.9,15.71
21.88491201400757,-10.67,11.12,-7.54,17.15
21.889050006866455,-10.24,10.67,-8.26,16.93
21.89011812210083,-9.76,9.4,-9.21,16.38
21.909231185913086,-8.93,9.99,-7.72,15.46
21.910263061523438,-6.2,13.07,-3.98,15.0
21.924370050430298,-1.7,13.01,-3.44,13.56
21.92541003227234,1.46,8.27,-5.48,10.02
21.941376209259033,-0.15,1.66,-6.18,6.4
21.96747922897339,-3.6,-1.98,-4.46,6.06
21.96900224685669,-1.01,2.08,1.18,2.59
21.97002601623535,1.3,0.33,3.66,3.89
21.972590923309326,-2.82,-4.51,-2.24,5.77
21.992413997650146,-6.75,-4.22,-3.49,8.69
21.99346923828125,-9.5,-2.17,-2.67,10.1
22.007863998413086,-10.73,-1.65,-2.33,11.1
22.00889801979065,-9.23,-2.51,-1.46,9.67
22.02413010597229,-6.52,-4.27,-0.54,7.81
22.025609970092773,-5.28,-6.16,0.39,8.12
22.067184925079346,-5.52,-7.9,1.01,9.69
22.068432092666626,-5.75,-9.13,1.5,10.89
22.069642066955566,-5.75,-9.71,1.18,11.34
22.072039127349854,-5.93,-9.03,0.49,10.81
22.092592239379883,-6.11,-7.73,0.05,9.85
22.093650102615356,-6.2,-6.58,-0.58,9.05
22.10796809196472,-6.26,-5.66,-0.91,8.48
22.10903310775757,-6.14,-5.05,-1.01,8.01
22.1244900226593,-5.81,-4.89,-1.08,7.67
22.125958919525146,-5.37,-4.96,-1.25,7.41
22.166326999664307,-4.94,-4.85,-1.52,7.08
22.167535066604614,-4.47,-4.59,-1.66,6.61
22.168790102005005,-3.8,-4.47,-1.71,6.11
22.17256498336792,-3.17,-4.66,-1.83,5.92
22.173623085021973,-3.06,-4.97,-1.72,6.08
22.192234992980957,-3.5,-4.89,-1.25,6.14
22.19330596923828,-3.89,-4.05,-0.33,5.62
22.207991123199463,-3.43,-2.43,0.31,4.21
22.210115909576416,-1.35,-1.08,0.4,1.77
22.225476026535034,1.42,-0.75,0.34,1.64
22.230474948883057,3.42,-0.1,0.72,3.49
22.268414974212646,4.61,1.98,2.22,5.48
22.269554138183594,5.89,4.51,3.47,8.18
22.27075505256653,7.72,6.56,3.84,10.83
22.272406101226807,9.76,7.92,4.02,13.19
22.27971124649048,11.44,8.92,3.9,15.02
22.289772987365723,13.22,10.14,3.61,17.04
22.29988718032837,15.06,11.22,2.77,18.98
22.310282230377197,17.46,11.5,2.73,21.08
22.320292949676514,19.46,11.03,3.18,22.59
22.329955101013184,20.92,9.93,4.57,23.6
22.358994960784912,21.73,7.66,6.2,23.86
22.36035704612732,20.25,6.87,6.71,22.41
22.361236095428467,13.54,6.59,4.19,15.63
22.37672209739685,2.24,-3.31,-2.4,4.66
22.37893009185791,-12.3,-6.38,-15.07,20.47
22.39249897003174,-26.16,15.14,-17.89,35.12
22.399644136428833,-19.51,46.52,13.48,52.21
22.40857219696045,-7.49,24.16,7.44,26.36
22.418764114379883,0.57,-2.31,-2.19,3.23
22.428901195526123,8.53,-7.19,3.51,11.69
22.458763122558594,11.43,-11.26,4.15,16.57
22.460114002227783,12.26,-10.92,0.8,16.43
22.46114706993103,11.49,-6.27,2.2,13.27
22.476748943328857,6.29,-1.82,2.45,6.99
22.478134155273438,1.18,0.43,1.07,1.64
22.49259614944458,-1.29,2.18,-0.65,2.61
22.498171091079712,-1.09,2.58,-1.36,3.11
22.508321046829224,0.97,1.1,0.57,1.57
22.518320083618164,2.02,-0.5,1.09,2.34
22.528088092803955,1.42,-0.93,0.48,1.76
22.560349941253662,0.64,-0.54,0.2,0.86
22.561734199523926,0.79,-0.17,-0.12,0.81
22.56272315979004,1.2,-0.18,0.16,1.22
22.576805114746094,1.17,-0.46,0.4,1.31
22.577855110168457,0.97,-0.56,-0.02,1.12
22.592638969421387,0.86,-0.31,-0.33,0.97
22.5973219871521,0.64,0.0,-0.33,0.72
22.60815191268921,0.53,0.12,-0.18,0.57
22.617635250091553,0.42,0.0,0.21,0.46
22.62725305557251,0.19,-0.05,0.56,0.59
22.666579246520996,-0.03,-0.05,0.57,0.57
22.66786503791809,-0.14,0.09,0.53,0.55
22.66895604133606,-0.16,0.23,0.14,0.31
22.67261505126953,-0.02,0.22,-0.43,0.48
22.676711082458496,0.15,0.18,-0.76,0.79
22.69268012046814,0.15,0.06,-0.96,0.97
22.696534156799316,-0.12,0.05,-0.76,0.77
22.70663809776306,-0.49,0.22,-0.51,0.74
22.71667718887329,-0.73,0.46,-0.28,0.9
22.7263822555542,-0.67,0.65,-0.1,0.93
22.76500105857849,-0.48,0.61,-0.11,0.78
22.766281127929688,-0.45,0.45,-0.05,0.63
22.767269134521484,-0.61,0.4,-0.05,0.73
22.776942253112793,-0.72,0.42,-0.22,0.86
22.777980089187622,-0.73,0.53,-0.35,0.96
22.79253911972046,-0.63,0.56,-0.42,0.94
22.795865058898926,-0.49,0.55,-0.38,0.82
22.80789613723755,-0.5,0.53,-0.4,0.83
22.8158221244812,-0.68,0.64,-0.41,1.01
22.825741052627563,-0.81,0.85,-0.47,1.26
22.864078998565674,-1.08,1.02,-0.63,1.61
22.865381240844727,-1.69,1.28,-0.49,2.17
22.866394996643066,-2.06,1.48,-0.33,2.55
22.8766770362854,-2.34,1.63,-0.5,2.89
22.877749919891357,-2.15,1.96,-0.49,2.95
22.891663074493408,-2.04,2.14,-0.84,3.07
22.894917011260986,-1.94,2.44,-1.07,3.29
22.908375024795532,-2.01,2.67,-1.33,3.59
22.915411949157715,-2.35,2.97,-1.46,4.05
22.924979209899902,-2.75,3.31,-1.45,4.54
22.96234107017517,-3.16,3.55,-1.47,4.97
22.963640213012695,-3.57,3.79,-1.75,5.49
22.96463394165039,-3.97,4.11,-1.93,6.03
22.976962089538574,-4.46,4.82,-2.0,6.86
22.977997064590454,-5.5,5.83,-2.47,8.38
22.99273109436035,-7.33,7.32,-3.11,10.81
22.994193077087402,-9.1,9.33,-3.6,13.52
23.00845193862915,-10.38,10.72,-5.47,15.89
23.014349937438965,-10.98,10.95,-7.29,17.13
23.024147987365723,-11.03,10.27,-7.93,17.02
23.034451961517334,-11.22,9.32,-8.32,16.79
23.06758689880371,-11.22,10.87,-7.12,17.16
23.068753242492676,-8.6,14.95,-3.95,17.69
23.069937229156494,-3.04,16.11,-4.52,17.0
23.073678970336914,1.54,12.92,-6.73,14.64
23.09307622909546,2.24,7.18,-6.82,10.15
23.094114065170288,-1.54,1.4,-6.42,6.74
23.10872793197632,-4.64,-3.06,-6.09,8.24
23.113708019256592,-0.47,-0.26,-3.77,3.8
23.124844074249268,4.68,1.09,2.78,5.55
23.133573055267334,0.81,-3.25,-1.11,3.52
23.16718101501465,-5.26,-4.33,-3.52,7.66
23.168389081954956,-8.89,-3.08,-1.16,9.47
23.169652938842773,-11.47,-1.22,-0.55,11.54
23.173160076141357,-12.84,-0.25,-0.57,12.85
23.19295310974121,-10.96,-0.64,-0.22,10.98
23.193963050842285,-7.36,-2.41,0.51,7.76
23.20979118347168,-4.96,-4.59,1.27,6.87
23.212860107421875,-4.13,-6.24,1.57,7.64
23.22533106803894,-3.72,-6.89,1.27,7.93
23.232707023620605,-3.23,-6.52,0.71,7.31
23.26900625228882,-2.98,-6.32,-0.38,6.99
23.270185947418213,-2.89,-6.74,-1.46,7.47
23.271465063095093,-2.97,-6.7,-1.94,7.58
23.273133039474487,-3.05,-6.75,-2.1,7.69
23.28227710723877,-3.23,-6.99,-2.05,7.96
23.29246997833252,-3.51,-7.16,-1.73,8.15
23.302017211914062,-3.87,-7.42,-0.97,8.42
23.312232971191406,-4.23,-7.85,-0.09,8.91
23.3222599029541,-4.4,-8.25,0.63,9.37
23.332083225250244,-4.51,-8.57,1.06,9.74
23.365140914916992,-4.57,-8.49,1.47,9.75
23.366557121276855,-4.23,-7.72,2.2,9.07
23.3675479888916,-3.29,-6.67,2.63,7.88
23.377188205718994,-1.47,-5.61,2.25,6.22
23.38135004043579,0.7,-4.22,1.96,4.7
23.392927169799805,3.17,-2.52,2.0,4.51
23.40144920349121,6.08,-0.43,1.92,6.39
23.411293029785156,8.97,1.91,1.58,9.3
23.42158794403076,11.41,4.62,1.7,12.42
23.431186199188232,13.64,7.58,2.36,15.78
23.471110105514526,15.39,10.14,2.61,18.61
23.472593069076538,16.25,12.04,2.7,20.4
23.473604202270508,16.84,13.79,3.16,21.99
23.49041509628296,18.1,14.28,3.9,23.38
23.491508960723877,19.08,12.2,3.43,22.9
23.50992512702942,18.71,10.11,3.77,21.59
23.51096510887146,16.37,9.52,3.93,19.34
23.525634050369263,13.12,11.32,1.66,17.4
23.527119159698486,2.83,-1.55,-5.98,6.79
23.541852951049805,-13.35,-5.9,-18.35,23.44
23.57418704032898,-25.81,19.94,-14.51,35.69
23.575549125671387,-18.31,43.69,14.33,49.49
23.57659101486206,-6.53,20.15,7.44,22.45
23.594187021255493,1.52,-2.14,0.19,2.63
23.595223903656006,8.65,-4.92,3.75,10.63
23.609219074249268,12.06,-6.93,2.74,14.17
23.61020803451538,12.04,-8.41,-1.18,14.73
23.625656127929688,10.43,-5.31,-0.92,11.73
23.62706422805786,6.51,-1.43,0.33,6.67
23.641714096069336,2.64,-0.29,-0.27,2.66
23.671250104904175,0.46,1.12,-0.7,1.39
23.67268991470337,-0.49,1.45,-0.61,1.64
23.673640251159668,-0.35,1.02,0.75,1.31
23.693576097488403,0.57,0.49,2.12,2.24
23.694658041000366,1.37,-0.53,2.15,2.6
23.70950698852539,1.57,-1.13,1.0,2.17
23.710544109344482,1.24,-0.89,-0.07,1.52
23.725674152374268,1.12,-0.37,-0.29,1.21
23.727115154266357,0.98,-0.3,0.18,1.04
23.741647243499756,0.75,-0.46,0.7,1.12
23.773838996887207,0.86,-0.4,0.2,0.96
23.775124073028564,1.15,-0.01,-0.53,1.26
23.776123046875,1.08,0.29,-0.66,1.29
23.794008255004883,0.78,0.19,-0.21,0.82
23.795051097869873,0.47,-0.01,0.32,0.56
23.809750080108643,0.08,-0.23,0.1,0.26
23.810751914978027,-0.23,-0.11,0.04,0.25
23.82549524307251,-0.34,0.17,0.42,0.56
23.826991081237793,-0.21,0.18,0.3,0.4
23.841732025146484,0.12,0.07,-0.06,0.15
23.84319806098938,0.38,0.02,-0.5,0.62
23.891334056854248,0.3,0.04,-0.76,0.81
23.892457008361816,-0.13,0.18,-0.64,0.67
23.893418073654175,-0.58,0.36,-0.17,0.7
23.909995079040527,-0.83,0.47,0.16,0.96
23.911065101623535,-0.87,0.49,0.24,1.02
23.926842212677002,-0.8,0.51,0.08,0.95
23.92833113670349,-0.73,0.53,-0.03,0.9
23.942207098007202,-0.86,0.44,-0.29,1.0
23.943652153015137,-1.09,0.42,-0.47,1.25
23.95842218399048,-1.13,0.52,-0.55,1.36
23.991093158721924,-1.01,0.55,-0.78,1.38
23.99230718612671,-1.01,0.61,-0.98,1.53
23.99328112602234,-1.14,0.81,-1.14,1.8
24.010412216186523,-1.29,0.95,-1.26,2.03
24.01148009300232,-1.32,1.0,-1.29,2.09
24.026528120040894,-1.31,1.09,-1.36,2.18
24.027565002441406,-1.28,1.25,-1.45,2.3
24.04227924346924,-1.37,1.62,-1.0,2.34
24.04375696182251,-1.46,2.04,-0.69,2.6
24.058536052703857,-1.78,2.63,-0.77,3.26
24.087872982025146,-2.26,3.32,-0.7,4.07
24.089091062545776,-2.99,3.67,-0.65,4.77
24.089890003204346,-3.47,3.95,-0.63,5.29
24.110557079315186,-3.49,3.98,-1.14,5.41
24.111571073532104,-3.34,4.1,-1.47,5.48
24.126480102539062,-3.73,4.57,-1.75,6.15
24.127501010894775,-5.18,5.62,-2.47,8.03
24.142556190490723,-6.58,7.37,-2.55,10.2
24.14403009414673,-7.82,9.32,-2.26,12.37
24.158682107925415,-9.34,10.71,-3.4,14.61
24.186525106430054,-10.6,11.34,-5.67,16.52
24.188040018081665,-10.97,11.38,-7.9,17.67
24.18890404701233,-10.8,10.63,-10.04,18.17
24.190675020217896,-10.84,9.67,-11.4,18.46
24.191922187805176,-10.6,11.93,-8.77,18.2
24.195048093795776,-7.29,16.32,-3.78,18.26
24.206066131591797,-1.59,15.78,-3.97,16.34
24.21517515182495,2.36,9.44,-6.14,11.5
24.225661039352417,1.35,2.27,-6.02,6.57
24.235013961791992,-2.53,-1.88,-4.56,5.54
24.269999980926514,-3.03,-4.57,-4.88,7.34
24.271233081817627,3.12,0.46,-0.61,3.21
24.272011041641235,7.2,0.67,5.98,9.38
24.27442693710327,1.87,-3.44,0.21,3.92
24.28460121154785,-5.27,-4.51,-2.36,7.32
24.294669151306152,-10.09,-3.87,-0.41,10.81
24.30464506149292,-13.58,-2.78,0.44,13.86
24.31440806388855,-15.29,-1.58,0.83,15.39
24.324560165405273,-12.78,-1.13,1.98,12.98
24.334465980529785,-7.46,-3.19,1.85,8.32
24.370289087295532,-4.38,-4.95,1.59,6.79
24.371474027633667,-3.81,-6.22,1.11,7.37
24.372270107269287,-4.0,-6.38,0.68,7.56
24.37458896636963,-3.64,-6.05,0.23,7.06
24.383867025375366,-3.05,-6.05,-0.61,6.8
24.393736124038696,-2.32,-6.42,-1.78,7.05
24.403640031814575,-1.63,-6.58,-2.54,7.23
24.413649082183838,-1.31,-6.72,-2.77,7.38
24.423816204071045,-1.46,-7.08,-2.83,7.76
24.433585166931152,-1.59,-7.58,-2.6,8.16
24.470379114151,-1.59,-7.9,-1.88,8.27
24.47172212600708,-1.67,-8.13,-1.13,8.37
24.472690105438232,-1.84,-8.33,-0.25,8.53
24.474885940551758,-1.84,-8.65,0.46,8.85
24.483023166656494,-1.57,-8.88,1.09,9.08
24.49298620223999,-1.28,-9.11,1.31,9.29
24.502888202667236,-1.1,-9.0,1.21,9.14
24.512948036193848,-0.95,-7.99,1.55,8.19
24.52297806739807,-0.52,-6.1,1.92,6.41
24.5327250957489,0.86,-4.08,2.08,4.65
24.569425106048584,3.56,-2.37,2.53,4.96
24.570608139038086,6.56,-0.99,2.74,7.17
24.57139301300049,8.45,0.44,2.99,8.97
24.57373309135437,9.64,2.73,4.0,10.78
24.582205057144165,11.12,5.56,4.75,13.3
24.592368125915527,13.32,8.18,5.46,16.55
24.602288246154785,15.0,10.42,4.71,18.86
24.612138032913208,15.54,12.81,3.12,20.37
24.622956037521362,16.27,14.85,2.07,22.12
24.631822109222412,18.07,14.06,1.85,22.97
24.641991138458252,19.49,10.63,2.63,22.35
24.673490047454834,18.2,8.96,3.94,20.66
24.67445421218872,11.32,7.75,-0.76,13.73
24.675281047821045,-1.9,-3.93,-9.83,10.75
24.694353103637695,-18.73,-2.74,-25.55,31.79
24.69544219970703,-28.93,34.72,-10.73,46.44
24.710211038589478,-19.52,45.46,15.79,51.93
24.71128010749817,-5.56,13.92,4.77,15.73
24.72587823867798,4.77,-1.43,2.16,5.42
24.731112003326416,8.56,-10.31,4.9,14.26
24.74230408668518,9.72,-14.35,1.25,17.37
24.773019075393677,10.82,-11.81,-0.92,16.04
24.774152040481567,10.38,-6.52,1.84,12.39
24.774960041046143,6.94,-2.78,1.86,7.7
24.793954133987427,2.56,0.04,0.19,2.56
24.795027256011963,-0.4,3.41,-0.97,3.56
24.810317993164062,-1.88,4.97,-2.28,5.78
24.811338901519775,-1.62,3.2,-1.79,4.0
24.825805187225342,-0.12,0.86,0.44,0.97
24.83026909828186,0.86,-1.0,1.6,2.07
24.842241048812866,0.94,-1.93,0.94,2.34
24.874099254608154,0.58,-1.32,-0.05,1.44
24.875214099884033,0.42,-0.19,-0.41,0.61
24.87605309486389,0.65,0.17,-0.79,1.03
24.894289016723633,0.97,-0.01,-0.78,1.24
24.89531421661377,0.9,-0.05,-0.07,0.9
24.910372018814087,0.51,0.18,0.56,0.77
24.9114031791687,0.2,0.19,0.85,0.89
24.925827026367188,0.29,0.02,0.92,0.96
24.929770946502686,0.43,-0.15,0.64,0.78
24.942315101623535,0.47,-0.19,0.55,0.74
24.972811222076416,0.32,-0.25,0.35,0.53
24.97407102584839,0.02,-0.25,-0.27,0.36
24.975036144256592,-0.07,0.02,-0.76,0.76
24.99415111541748,-0.02,0.26,-0.79,0.83
24.9952130317688,0.0,0.33,-0.39,0.51
25.010353088378906,0.02,0.3,-0.08,0.31
25.011384963989258,0.11,0.17,-0.2,0.28
25.026031970977783,-0.01,0.12,-0.17,0.2
25.02914810180664,-0.25,0.28,0.16,0.4
25.04223608970642,-0.46,0.29,0.1,0.55
25.078525066375732,-0.59,0.32,-0.41,0.78
25.079841136932373,-0.65,0.47,-0.8,1.13
25.080855131149292,-0.71,0.58,-0.94,1.31
25.095092058181763,-0.74,0.63,-1.06,1.43
25.09611415863037,-0.73,0.64,-0.99,1.38
25.110215187072754,-0.76,0.6,-0.71,1.2
25.1112220287323,-0.96,0.55,-0.79,1.35
25.12622308731079,-1.13,0.73,-0.94,1.64
25.128257036209106,-1.2,1.07,-0.84,1.81
25.14249610900879,-1.15,1.31,-0.75,1.89
25.176908016204834,-1.07,1.3,-0.86,1.89
25.178190231323242,-1.29,1.2,-0.8,1.93
25.17921805381775,-1.84,1.37,-0.24,2.3
25.195123195648193,-2.2,1.64,-0.18,2.74
25.1961932182312,-2.09,2.18,0.0,3.02
25.21030306816101,-2.12,2.47,-0.21,3.26
25.211347103118896,-2.3,2.71,-0.55,3.59
25.226062059402466,-2.53,2.92,-0.73,3.93
25.227500915527344,-2.77,3.12,-1.1,4.31
25.242455005645752,-3.01,3.42,-1.59,4.82
25.27667999267578,-3.29,3.82,-2.02,5.43
25.2779860496521,-3.69,4.12,-2.41,6.03
25.27897024154663,-4.35,4.97,-2.41,7.03
25.294589042663574,-5.57,6.88,-2.46,9.18
25.295578956604004,-7.45,9.27,-3.46,12.38
25.31037211418152,-9.32,11.29,-5.22,15.54
25.31145715713501,-10.36,12.51,-6.6,17.53
25.323885917663574,-10.76,12.68,-7.67,18.31
25.326791048049927,-10.85,11.18,-9.46,18.22
25.34248924255371,-10.66,9.64,-10.22,17.63
25.375925064086914,-9.97,11.55,-7.26,16.89
25.37720823287964,-6.53,15.99,-2.8,17.49
25.378232955932617,-0.83,16.61,-3.56,17.0
25.394442081451416,2.72,10.56,-6.77,12.83
25.39550495147705,1.25,2.58,-7.18,7.73
25.410438060760498,-3.19,-2.3,-5.94,7.12
25.411482095718384,-3.25,-2.7,-4.22,5.97
25.42634105682373,3.01,2.09,3.11,4.8
25.42781925201416,3.54,-1.85,3.5,5.31
25.442368030548096,-2.2,-5.17,-2.43,6.12
25.445914030075073,-6.75,-5.13,-1.74,8.65
25.490085124969482,-9.83,-3.84,-0.43,10.56
25.491238117218018,-12.25,-3.15,-0.47,12.65
25.492216110229492,-12.56,-2.96,0.12,12.9
25.511340141296387,-9.72,-3.94,1.08,10.54
25.512399196624756,-6.41,-5.94,1.71,8.9
25.527032136917114,-4.84,-7.62,1.92,9.22
25.528100967407227,-4.95,-8.09,2.01,9.69
25.54297709465027,-5.56,-7.78,1.8,9.73
25.544419050216675,-5.62,-7.5,0.96,9.42
25.55909824371338,-5.51,-6.98,0.27,8.89
25.588346004486084,-5.16,-6.75,-0.72,8.52
25.58964490890503,-4.69,-6.23,-1.17,7.88
25.590641975402832,-4.31,-6.05,-1.41,7.56
25.611571073532104,-4.16,-6.38,-1.57,7.77
25.612633228302002,-4.21,-6.89,-1.46,8.2
25.627376079559326,-4.36,-7.51,-1.16,8.76
25.628418922424316,-4.55,-7.86,-0.51,9.09
25.643081188201904,-4.6,-7.95,0.13,9.18
25.644545078277588,-4.42,-7.83,0.74,9.02
25.659292221069336,-4.01,-7.54,1.15,8.61
25.68827724456787,-3.56,-6.9,1.46,7.9
25.689555168151855,-2.87,-5.68,1.72,6.59
25.690376043319702,-1.38,-4.11,1.43,4.56
25.711368083953857,0.94,-2.08,1.24,2.59
25.712393045425415,3.83,0.11,1.42,4.08
25.727339029312134,6.83,2.58,1.56,7.46
25.728394031524658,9.02,5.15,1.84,10.54
25.743331909179688,10.56,7.91,2.16,13.36
25.744757175445557,12.15,11.12,2.22,16.61
25.759583950042725,14.56,14.16,2.86,20.51
25.78749108314514,16.95,16.03,3.55,23.59
25.788856029510498,18.84,15.78,3.55,24.83
25.78959012031555,20.35,13.94,4.37,25.05
25.791646003723145,20.28,11.47,5.53,23.94
25.792957067489624,17.47,9.06,5.58,20.45
25.80316925048828,15.25,11.63,3.91,19.57
25.81304407119751,10.66,3.98,-1.95,11.54
25.823047161102295,-2.63,-8.01,-11.58,14.32
25.832818031311035,-19.78,-3.74,-25.93,32.82
25.842947006225586,-26.47,27.71,-2.3,38.39
25.874451160430908,-14.44,41.88,19.64,48.45
25.87545919418335,-2.96,13.83,5.71,15.25
25.876272201538086,2.9,-5.28,0.86,6.08
25.89470911026001,6.72,-11.4,3.37,13.65
25.8957781791687,9.9,-10.52,1.77,14.55
25.910715103149414,11.99,-5.59,0.73,13.24
25.912161111831665,10.98,-2.89,1.09,11.4
25.925951957702637,7.52,1.43,-0.25,7.65
25.932621002197266,2.73,4.03,-2.23,5.35
25.942788124084473,0.49,1.43,-2.35,2.79
25.98027992248535,0.82,-0.11,-0.59,1.01
25.98163890838623,1.3,0.06,0.87,1.56
25.982654094696045,0.96,0.01,1.35,1.65
25.99468207359314,0.38,-0.41,1.08,1.21
25.99575901031494,0.1,-0.51,0.71,0.87
26.0105562210083,0.16,-0.24,0.34,0.44
26.011595249176025,0.46,-0.04,0.19,0.49
26.026677131652832,0.7,-0.15,0.1,0.72
26.031606197357178,0.73,-0.1,0.04,0.73
26.042335033416748,0.48,0.2,0.08,0.52
26.07758402824402,0.05,0.37,-0.04,0.37
26.078898906707764,-0.15,0.42,-0.32,0.54
26.07993507385254,-0.17,0.39,-0.59,0.72
26.09477210044861,-0.26,0.3,-0.69,0.79
26.09581995010376,-0.52,0.25,-0.52,0.77
26.110799074172974,-0.78,0.11,-0.34,0.85
26.111812114715576,-0.6,-0.01,-0.15,0.61
26.126235008239746,-0.32,-0.1,-0.03,0.33
26.130661964416504,-0.37,-0.08,-0.03,0.37
26.142784118652344,-0.36,0.03,-0.28,0.45
26.175880908966064,-0.29,0.13,-0.45,0.55
26.177205085754395,-0.21,0.25,-0.22,0.39
26.17820906639099,-0.08,0.21,-0.09,0.24
26.194855213165283,-0.16,0.01,0.05,0.16
26.195895195007324,-0.25,-0.07,0.08,0.27
26.21067190170288,-0.25,-0.07,0.16,0.3
26.211568117141724,-0.38,0.02,0.37,0.53
26.226468086242676,-0.56,0.09,0.2,0.6
26.230067253112793,-0.59,0.24,0.04,0.63
26.242722034454346,-0.52,0.4,-0.21,0.68
26.24992322921753,-0.79,0.55,-0.54,1.1
26.285364151000977,-1.43,0.79,-0.65,1.75
26.286631107330322,-2.08,1.01,-0.74,2.42
26.287771224975586,-2.28,0.99,-1.1,2.71
26.290854930877686,-2.06,0.83,-1.23,2.53
26.310790061950684,-1.62,0.74,-1.3,2.2
26.311827182769775,-1.25,0.73,-1.33,1.96
26.326746940612793,-1.14,0.86,-1.24,1.89
26.329246997833252,-1.04,1.2,-1.13,1.94
26.34284806251526,-1.01,1.58,-0.89,2.07
26.34935712814331,-1.36,2.04,-0.55,2.51
26.38472318649292,-1.76,2.66,-0.48,3.22
26.385950088500977,-2.07,3.07,-0.94,3.82
26.38714599609375,-2.43,3.58,-1.06,4.45
26.392024040222168,-2.63,4.14,-1.08,5.02
26.39851999282837,-2.76,4.55,-1.3,5.47
26.410799980163574,-3.55,4.99,-1.47,6.29
26.418780088424683,-5.18,6.27,-1.25,8.22
26.42852020263672,-7.09,8.48,-1.18,11.11
26.438347101211548,-8.88,10.81,-1.8,14.1
26.44857692718506,-10.76,12.24,-3.53,16.67
26.47938823699951,-12.25,12.6,-4.9,18.24
26.480660915374756,-13.68,12.19,-5.95,19.26
26.481751918792725,-14.94,11.1,-7.71,20.14
26.49456810951233,-15.45,11.46,-7.14,20.51
26.497807025909424,-12.46,13.97,-4.42,19.23
26.508347034454346,-5.77,13.54,-6.0,15.89
26.517364978790283,1.48,11.48,-7.71,13.9
26.527987957000732,4.67,8.79,-4.44,10.89
26.537781238555908,1.36,1.85,-5.14,5.62
26.547601222991943,-4.06,-2.76,-6.31,7.99
26.57801914215088,-4.79,-4.06,-6.5,9.03
26.579416036605835,1.79,1.35,-2.58,3.41
26.58042311668396,5.36,-0.05,1.22,5.49
26.595151901245117,0.71,-3.64,-3.85,5.34
26.59694504737854,-4.4,-4.25,-4.02,7.32
26.6112961769104,-8.02,-3.86,-2.04,9.13
26.617215156555176,-10.76,-3.08,-2.27,11.42
26.627175092697144,-12.51,-3.1,-2.58,13.14
26.63710308074951,-11.69,-3.51,-1.48,12.29
26.64706516265869,-9.05,-4.51,0.47,10.12
26.684571027755737,-6.89,-6.29,1.77,9.49
26.68600606918335,-5.98,-7.85,1.9,10.04
26.687026023864746,-5.93,-8.09,1.7,10.17
26.69254493713379,-6.33,-6.95,1.53,9.52
26.696272134780884,-6.45,-6.25,0.08,8.98
26.711119174957275,-5.94,-5.85,-0.97,8.39
26.716331005096436,-5.44,-5.63,-1.64,7.99
26.726880073547363,-4.94,-5.74,-2.09,7.85
26.736382961273193,-4.51,-5.92,-2.21,7.76
26.74599003791809,-4.03,-6.18,-2.21,7.7
26.783550024032593,-3.39,-6.52,-2.29,7.69
26.78493595123291,-2.53,-6.86,-2.48,7.72
26.785967111587524,-1.57,-7.2,-2.91,7.92
26.795225143432617,-0.78,-7.43,-3.46,8.23
26.79626703262329,-0.22,-7.28,-3.52,8.08
26.811487197875977,0.49,-6.78,-2.99,7.42
26.815639972686768,1.93,-5.83,-2.65,6.68
26.826925039291382,3.86,-4.87,-2.66,6.75
26.835612058639526,5.53,-3.7,-1.92,6.92
26.845458984375,6.72,-1.3,-0.29,6.85
26.88441801071167,7.75,2.35,1.79,8.29
26.88570809364319,8.99,6.5,3.53,11.64
26.88684892654419,10.78,10.85,4.82,16.03
26.88794994354248,12.72,14.7,4.89,20.04
26.894843101501465,14.3,17.24,4.02,22.75
26.90806007385254,15.61,18.48,2.94,24.36
26.914541244506836,17.58,17.41,2.98,24.92
26.924643993377686,20.31,14.2,5.24,25.32
26.9353609085083,21.65,10.96,7.42,25.37
26.94460105895996,20.28,9.51,8.72,24.03
26.98001194000244,12.9,9.52,5.72,17.02
26.981318950653076,2.13,1.57,0.52,2.69
26.98232412338257,-9.5,-6.69,-9.31,14.88
26.995441913604736,-25.01,-0.01,-23.42,34.26
26.996495246887207,-24.08,31.45,0.0,39.6
27.009387016296387,-8.25,30.82,16.39,35.86
27.01377010345459,0.27,3.57,5.78,6.79
27.027101039886475,6.67,-5.92,2.47,9.25
27.034127235412598,12.68,-5.95,2.44,14.21
27.043856143951416,13.59,-5.48,1.03,14.68
27.05387806892395,11.88,-2.76,-1.22,12.25
27.08546805381775,6.47,-0.77,-1.16,6.61
27.086668968200684,1.83,-0.03,-2.91,3.43
27.08792495727539,0.24,0.65,-3.67,3.73
27.093183994293213,0.78,0.98,-0.43,1.32
27.10320520401001,1.29,-0.45,2.67,2.99
27.113076210021973,0.68,-1.36,3.9,4.18
27.123223066329956,-0.35,-0.7,1.62,1.79
27.13305401802063,-0.32,0.4,-0.13,0.52
27.143646240234375,0.34,0.75,-0.19,0.84
27.153244018554688,0.9,0.06,-0.01,0.9
27.185265064239502,1.07,-0.56,0.52,1.31
27.18655490875244,1.03,-0.63,0.29,1.24
27.187559127807617,1.02,-0.3,-0.25,1.09
27.19243097305298,0.85,-0.07,-0.69,1.09
27.211615085601807,0.53,0.09,-0.8,0.96
27.212646007537842,0.15,0.21,-0.5,0.56
27.22674322128296,-0.14,0.21,-0.03,0.25
27.232365131378174,-0.31,0.11,0.45,0.55
27.242287158966064,-0.35,0.0,0.6,0.69
27.25240421295166,-0.13,0.0,0.26,0.29
27.288437128067017,0.32,0.03,-0.29,0.43
27.289597034454346,0.58,-0.01,-0.8,0.98
27.2905330657959,0.34,0.04,-0.64,0.72
27.292761087417603,-0.21,0.16,-0.3,0.39
27.301852226257324,-0.67,0.27,-0.22,0.75
27.31181311607361,-0.79,0.43,-0.45,1.0
27.32175922393799,-0.7,0.69,-0.55,1.12
27.33179807662964,-0.64,0.8,-0.48,1.13
27.34195113182068,-0.69,0.77,-0.61,1.2
27.351506233215332,-0.69,0.69,-0.74,1.22
27.383117198944092,-0.69,0.58,-0.63,1.09
27.38447403907776,-0.75,0.48,-0.37,0.96
27.38554811477661,-0.79,0.39,-0.28,0.92
27.391136169433594,-0.79,0.49,-0.26,0.96
27.401216983795166,-0.64,0.61,-0.64,1.09
27.410949230194092,-0.59,0.69,-1.0,1.35
27.421521186828613,-0.99,1.0,-0.72,1.58
27.431108951568604,-1.84,1.24,-0.67,2.31
27.44122314453125,-2.21,1.87,0.09,2.89
27.45094609260559,-2.46,2.13,0.57,3.3
27.488236904144287,-2.55,2.17,0.44,3.37
27.489645957946777,-2.27,2.31,0.16,3.24
27.49065923690796,-2.18,2.45,-0.41,3.3
27.49308490753174,-2.4,2.77,-1.07,3.81
27.5001060962677,-2.73,3.08,-1.43,4.35
27.510406017303467,-3.26,3.41,-1.57,4.97
27.52032208442688,-3.86,3.9,-1.85,5.79
27.530312061309814,-4.38,4.51,-2.13,6.63
27.540514945983887,-4.8,5.14,-2.56,7.48
27.550139904022217,-5.48,6.21,-2.75,8.72
27.588199138641357,-6.93,7.42,-3.9,10.87
27.589587211608887,-8.49,8.58,-5.13,13.11
27.590566158294678,-9.46,9.51,-6.15,14.75
27.59289813041687,-9.78,9.68,-7.13,15.49
27.599603176116943,-9.9,8.86,-7.85,15.43
27.609544038772583,-10.49,8.38,-8.72,16.0
27.6195011138916,-10.41,11.76,-6.17,16.87
27.629629135131836,-7.51,16.52,-2.23,18.28
27.639976978302002,-1.93,15.8,-4.26,16.47
27.649208068847656,2.05,10.46,-7.17,12.84
27.68672800064087,1.65,4.42,-7.32,8.7
27.688103199005127,-2.76,0.12,-5.48,6.13
27.68907117843628,-5.12,-3.12,-4.99,7.8
27.69135308265686,0.57,0.35,-3.61,3.67
27.711449146270752,6.23,1.89,2.44,6.95
27.712491989135742,1.98,-2.55,-1.02,3.38
27.726633071899414,-4.77,-3.97,-3.16,6.96
27.728305101394653,-9.02,-3.38,-0.82,9.66
27.74375009536743,-12.13,-2.46,-0.29,12.38
27.748493194580078,-13.83,-2.11,0.07,13.99
27.787463188171387,-12.53,-2.32,1.33,12.81
27.788609981536865,-8.79,-3.66,2.63,9.87
27.789841175079346,-5.83,-5.64,2.54,8.5
27.791534900665283,-4.62,-7.1,1.82,8.66
27.79786205291748,-4.51,-7.21,1.09,8.57
27.807882070541382,-4.53,-6.56,0.26,7.97
27.817986965179443,-4.31,-6.06,-0.87,7.48
27.82768201828003,-3.8,-6.21,-2.24,7.61
27.837918043136597,-3.02,-6.5,-3.02,7.77
27.84798312187195,-2.37,-6.85,-3.47,8.03
27.85795497894287,-2.23,-7.35,-3.7,8.52
27.889738082885742,-2.42,-7.97,-3.52,9.04
27.890918254852295,-2.6,-8.44,-3.04,9.33
27.891910076141357,-2.57,-8.77,-2.43,9.45
27.91219711303711,-2.37,-8.96,-1.81,9.44
27.913252115249634,-2.22,-9.06,-1.2,9.4
27.928504943847656,-2.27,-8.95,-0.59,9.25
27.929991245269775,-2.36,-8.54,-0.03,8.86
27.944133043289185,-1.98,-7.61,0.79,7.9
27.947026252746582,-0.88,-6.36,1.38,6.56
27.96018409729004,0.84,-4.87,1.03,5.04
27.99030113220215,2.97,-2.98,1.27,4.39
27.991656064987183,5.19,-0.67,2.09,5.63
27.99268913269043,7.31,2.16,2.8,8.12
28.012022972106934,9.38,5.32,3.7,11.4
28.013090133666992,11.55,8.65,4.72,15.18
28.02881097793579,13.34,11.95,5.14,18.63
28.03026008605957,14.52,14.25,5.15,20.98
28.044250965118408,14.73,15.66,4.94,22.05
28.046401977539062,14.91,16.13,5.87,22.73
28.05777597427368,15.46,14.08,6.91,22.02
28.081881046295166,15.76,12.06,6.82,20.98
28.082946062088013,14.34,14.34,4.83,20.84
28.085509061813354,9.75,8.12,-0.67,12.7
28.095709085464478,-1.54,-5.06,-10.75,11.98
28.10588812828064,-15.66,1.33,-21.11,26.31
28.115724086761475,-18.86,37.15,-3.47,41.8
28.127058029174805,-12.54,34.28,15.63,39.7
28.135738134384155,-2.22,8.41,8.04,11.84
28.145668983459473,6.8,-5.47,2.42,9.05
28.15561819076538,9.95,-11.54,2.84,15.49
28.190245151519775,10.86,-12.2,0.41,16.33
28.191561222076416,10.91,-8.42,1.79,13.89
28.192585945129395,7.4,-3.62,3.23,8.84
28.212294101715088,2.13,-1.07,1.63,2.88
28.213338136672974,-1.2,1.9,-0.19,2.25
28.228617191314697,-2.13,4.07,-2.35,5.15
28.230111122131348,-0.27,2.02,-1.68,2.64
28.244368076324463,2.22,0.0,0.88,2.38
28.245811939239502,2.51,-0.68,1.04,2.8
28.260447025299072,1.27,-0.87,0.6,1.65
28.29489517211914,0.43,-0.26,0.27,0.57
28.296255111694336,0.69,-0.04,-0.12,0.7
28.297272205352783,0.92,-0.21,0.13,0.95
28.31269407272339,0.66,-0.2,0.23,0.72
28.31374216079712,0.26,0.04,0.03,0.26
28.32890796661377,0.18,0.19,-0.45,0.52
28.330374240875244,0.58,0.08,-1.02,1.17
28.344418048858643,1.06,-0.21,-1.14,1.57
28.34586811065674,0.98,-0.31,-0.53,1.15
28.360575199127197,0.45,-0.18,0.32,0.58
28.3938889503479,-0.07,-0.02,0.57,0.57
28.395191192626953,-0.38,0.19,0.37,0.56
28.39619207382202,-0.38,0.37,0.04,0.53
28.412761211395264,-0.19,0.32,-0.38,0.53
28.413710117340088,-0.04,0.26,-0.59,0.64
28.428643226623535,-0.06,0.24,-0.75,0.78
28.43013310432434,-0.17,0.29,-0.95,1.0
28.44407606124878,-0.3,0.36,-0.72,0.85
28.445560932159424,-0.6,0.41,-0.23,0.76
28.46046209335327,-1.0,0.53,0.31,1.17
28.490825176239014,-1.22,0.58,0.2,1.36
28.492178916931152,-1.17,0.47,-0.3,1.29
28.49315309524536,-0.97,0.47,-0.6,1.23
28.512423992156982,-0.89,0.51,-0.65,1.21
28.51346492767334,-0.97,0.63,-0.72,1.36
28.528293132781982,-0.99,0.81,-0.8,1.5
28.529348134994507,-1.04,1.01,-0.87,1.69
28.544182062149048,-1.27,1.18,-0.96,1.98
28.545630931854248,-1.73,1.32,-1.13,2.45
28.56060791015625,-1.92,1.54,-0.89,2.61
28.58721923828125,-1.89,1.65,-0.88,2.65
28.58866810798645,-1.6,2.04,-0.61,2.66
28.589709043502808,-1.65,2.35,-0.73,2.96
28.592989921569824,-2.08,2.62,-0.79,3.43
28.601745128631592,-2.56,3.18,-0.95,4.19
28.612051010131836,-3.02,3.7,-1.49,5.0
28.621809005737305,-3.39,4.21,-1.86,5.71
28.631770133972168,-3.81,4.66,-2.26,6.42
28.642022132873535,-4.35,4.99,-2.62,7.11
28.65188694000244,-4.92,5.6,-2.54,7.87
28.66173791885376,-5.71,6.79,-2.49,9.21
28.692636966705322,-7.04,8.42,-3.44,11.5
28.69381618499756,-8.76,10.07,-4.52,14.09
28.694863080978394,-10.63,11.46,-5.46,16.55
28.711692094802856,-11.62,12.18,-6.55,18.06
28.712769985198975,-11.76,11.57,-7.82,18.25
28.7258460521698,-11.85,10.24,-9.56,18.34
28.730849027633667,-11.63,11.11,-8.21,18.05
28.74350905418396,-8.75,16.04,-3.21,18.55
28.751795053482056,-2.71,17.52,-3.25,18.02
28.76077103614807,1.52,11.53,-8.03,14.13
28.792088985443115,0.75,3.99,-8.93,9.8
28.793487071990967,-3.15,-0.63,-6.66,7.39
28.794498920440674,-4.99,-2.95,-4.21,7.16
28.81268811225891,1.21,1.9,2.47,3.34
28.813773155212402,5.55,-0.5,6.08,8.24
28.82878613471985,1.26,-5.46,-0.52,5.62
28.830114126205444,-3.99,-5.95,-2.18,7.48
28.84474802017212,-7.54,-4.45,-0.28,8.75
28.850204944610596,-9.79,-3.18,-0.48,10.3
28.860666036605835,-10.81,-2.64,-0.87,11.16
28.890990018844604,-9.33,-2.99,-0.48,9.8
28.892442226409912,-6.1,-4.29,0.3,7.46
28.893471240997314,-3.89,-5.89,1.05,7.13
28.899657249450684,-3.54,-7.24,1.33,8.16
28.909642219543457,-3.97,-7.66,1.21,8.71
28.919640064239502,-4.46,-7.31,0.83,8.6
28.929546117782593,-4.66,-6.92,0.15,8.34
28.93949604034424,-4.56,-6.72,-0.67,8.14
28.949584007263184,-4.46,-6.59,-1.41,8.08
28.959657192230225,-4.23,-6.43,-1.87,7.92
28.98978090286255,-4.26,-6.42,-2.09,7.98
28.99095106124878,-4.41,-6.72,-2.04,8.29
28.99193525314331,-4.5,-7.06,-1.73,8.54
29.01262903213501,-4.47,-7.28,-1.22,8.62
29.013694047927856,-4.35,-7.36,-0.46,8.56
29.028594970703125,-4.08,-7.42,0.22,8.47
29.029858112335205,-3.73,-7.66,0.76,8.55
29.04458713531494,-3.21,-7.82,1.04,8.51
29.048673152923584,-2.46,-7.56,1.18,8.03
29.060907125473022,-1.55,-6.69,1.45,7.01
29.094475030899048,-0.48,-5.17,1.13,5.31
29.095860958099365,1.46,-3.04,1.26,3.6
29.09687304496765,4.48,-1.02,1.96,4.99
29.114229202270508,7.92,1.02,2.78,8.45
29.11527109146118,10.81,3.72,3.76,12.03
29.129451036453247,13.38,7.03,5.04,15.93
29.130948066711426,15.67,10.47,5.05,19.51
29.14479112625122,18.06,13.49,4.46,22.97
29.147892951965332,20.98,15.43,3.87,26.32
29.15891408920288,23.88,14.72,3.53,28.27
29.194602012634277,25.88,12.78,3.35,29.05
29.195981979370117,25.61,10.29,3.6,27.83
29.197053909301758,20.77,10.53,2.89,23.46
29.212892055511475,12.17,6.64,-2.04,14.01
29.21395707130432,-1.26,-5.52,-10.55,11.97
29.229087114334106,-21.03,4.29,-25.81,33.56
29.230588912963867,-33.99,42.36,-9.6,55.15
29.244908094406128,-22.1,39.71,16.05,48.19
29.247143030166626,-3.87,8.81,7.48,12.18
29.26094102859497,2.48,-9.71,5.46,11.41
29.294239044189453,6.56,-17.16,6.67,19.54
29.295598030090332,10.44,-16.53,3.22,19.81
29.296628952026367,12.85,-10.67,-0.31,16.7
29.313282012939453,12.83,-5.76,1.52,14.14
29.314342975616455,9.71,-1.15,2.92,10.2
29.32881498336792,3.66,2.67,0.01,4.53
29.329859018325806,-0.88,5.16,-2.93,5.99
29.34488821029663,-2.63,4.45,-4.12,6.61
29.346396923065186,-1.12,1.66,-1.09,2.27
29.360958099365234,1.0,-0.22,0.99,1.42
29.39497995376587,1.47,-1.42,1.22,2.38
29.396684169769287,0.7,-1.47,0.73,1.78
29.397683143615723,-0.2,-0.39,0.68,0.8
29.413032054901123,-0.5,0.4,0.59,0.87
29.414112091064453,-0.11,0.27,-0.01,0.29
29.429285049438477,0.63,-0.1,-0.49,0.8
29.43077516555786,0.87,-0.13,-0.52,1.02
29.444801092147827,0.42,0.09,-0.35,0.55
29.446309089660645,-0.13,0.25,-0.22,0.35
29.46091604232788,-0.37,0.26,0.01,0.45
29.465583086013794,-0.27,0.16,0.11,0.33
29.507578134536743,-0.11,0.08,0.05,0.14
29.50876212120056,-0.13,0.05,-0.22,0.26
29.50976324081421,-0.16,0.07,-0.56,0.58
29.530010223388672,-0.23,0.18,-0.89,0.93
