time,ax,ay,az,atotal
0.0024831295013427734,-0.48,-0.21,-0.15,0.54
0.008844137191772461,-0.28,-0.55,-0.43,0.75
0.019134998321533203,0.47,-0.14,-0.74,0.88
0.028872013092041016,0.23,0.22,0.04,0.32
0.06105208396911621,0.07,-0.07,-0.2,0.22
0.06284093856811523,0.06,-0.03,-0.2,0.21
0.06425809860229492,-0.03,-0.01,-0.11,0.11
0.06978321075439453,-0.14,0.05,-0.2,0.24
0.07839512825012207,-0.09,0.06,-0.29,0.3
0.08965015411376953,0.05,0.04,-0.34,0.34
0.09837818145751953,-0.01,0.04,-0.31,0.31
0.10839223861694336,-0.24,0.09,-0.07,0.26
0.11825799942016602,-0.36,0.05,0.08,0.37
0.1283550262451172,-0.33,-0.01,0.03,0.33
0.1645832061767578,-0.16,-0.01,0.04,0.16
0.1663050651550293,-0.01,-0.01,0.09,0.09
0.16765499114990234,0.07,-0.05,0.1,0.13
0.1696300506591797,0.16,-0.07,0.16,0.23
0.17743825912475586,0.24,-0.06,0.22,0.33
0.1879119873046875,0.26,-0.02,0.29,0.39
0.19754910469055176,0.24,0.01,0.26,0.35
0.20757198333740234,0.18,-0.03,0.1,0.2
0.21738195419311523,0.04,0.01,0.09,0.09
0.22736120223999023,-0.03,0.01,0.09,0.09
0.2379610538482666,-0.02,0.05,0.07,0.08
0.2650790214538574,-0.03,0.04,0.08,0.09
0.2665591239929199,-0.03,0.0,0.02,0.03
0.2679131031036377,0.07,-0.02,-0.06,0.09
0.27712297439575195,0.13,0.02,-0.07,0.14
0.28702616691589355,0.05,0.03,-0.08,0.09
0.29687023162841797,-0.04,0.03,-0.18,0.18
0.30667614936828613,-0.04,0.07,-0.24,0.25
0.3165140151977539,-0.08,0.06,-0.32,0.33
0.3270902633666992,-0.31,0.11,-0.16,0.36
0.33919310569763184,-0.33,0.07,0.03,0.33
0.36349916458129883,-0.2,0.02,0.22,0.29
0.36508607864379883,-0.13,-0.02,0.23,0.26
0.3665022850036621,-0.1,-0.01,0.17,0.19
0.3764009475708008,-0.04,-0.08,0.13,0.15
0.38979101181030273,0.06,-0.05,0.11,0.13
0.39606809616088867,0.02,0.02,0.11,0.11
0.4058990478515625,-0.02,0.04,0.12,0.12
0.4160041809082031,-0.03,0.0,0.06,0.06
0.42591309547424316,-0.03,-0.01,-0.06,0.06
0.43631601333618164,0.03,0.0,-0.04,0.05
0.4625511169433594,0.14,0.01,0.02,0.14
0.46418309211730957,0.2,-0.01,0.05,0.2
0.4658181667327881,0.21,-0.02,0.04,0.21
0.4756460189819336,0.17,0.01,0.03,0.17
0.485410213470459,0.11,0.03,0.07,0.13
0.4954252243041992,0.04,0.01,0.12,0.12
0.5053520202636719,0.0,-0.01,0.12,0.12
0.5152311325073242,-0.01,-0.02,0.09,0.09
0.5251331329345703,0.0,-0.02,0.1,0.1
0.535534143447876,0.0,0.0,0.11,0.11
0.5636582374572754,0.0,0.01,0.08,0.08
0.5651912689208984,-0.06,0.02,0.06,0.08
0.566655158996582,-0.1,0.03,0.04,0.11
0.5744881629943848,-0.07,0.03,0.03,0.08
0.5894150733947754,-0.06,0.0,-0.05,0.07
0.5944242477416992,-0.06,0.02,-0.11,0.12
0.6049971580505371,-0.07,0.04,-0.12,0.14
0.614537239074707,-0.1,0.03,-0.14,0.17
0.6243281364440918,-0.12,0.04,-0.17,0.21
0.637321949005127,-0.07,0.02,-0.07,0.1
0.6653931140899658,0.14,-0.04,0.11,0.18
0.6669220924377441,0.26,-0.04,0.12,0.28
0.6684422492980957,0.22,-0.03,0.12,0.25
0.6737270355224609,0.15,-0.03,0.14,0.2
0.6835951805114746,0.13,-0.03,0.14,0.19
0.6939401626586914,0.12,0.01,0.17,0.2
0.7037692070007324,0.1,0.0,0.14,0.17
0.7137331962585449,0.03,-0.01,0.07,0.07
0.7236700057983398,-0.02,0.02,0.05,0.05
0.7332372665405273,-0.02,0.02,0.03,0.04
0.7697591781616211,-0.05,0.04,0.0,0.06
0.7715151309967041,-0.08,0.04,0.01,0.09
0.772874116897583,-0.1,0.03,-0.01,0.1
0.7904951572418213,-0.09,0.02,-0.04,0.1
0.7918481826782227,-0.06,0.0,-0.06,0.08
0.8065941333770752,-0.03,0.0,-0.07,0.07
0.8079400062561035,-0.01,0.01,-0.03,0.03
0.8204102516174316,-0.05,0.04,-0.03,0.07
0.8232080936431885,-0.13,0.07,-0.06,0.15
0.8401710987091064,-0.15,0.05,-0.06,0.16
0.8638010025024414,-0.1,-0.02,-0.07,0.12
0.8653571605682373,0.03,-0.06,0.0,0.06
0.8664050102233887,0.19,-0.04,0.07,0.2
0.8720560073852539,0.28,-0.04,0.1,0.3
0.8823120594024658,0.31,-0.05,0.15,0.34
0.8923091888427734,0.23,-0.01,0.18,0.29
0.9024600982666016,0.1,0.01,0.24,0.26
0.9119782447814941,0.04,-0.03,0.24,0.24
0.9221341609954834,0.01,0.02,0.13,0.13
0.9325070381164551,-0.04,0.02,0.11,0.11
0.9689140319824219,-0.03,0.0,0.12,0.12
0.9706051349639893,0.06,0.0,0.13,0.14
0.9719452857971191,0.1,-0.04,0.07,0.12
0.990684986114502,0.11,-0.07,-0.01,0.13
0.9921150207519531,0.18,-0.01,-0.02,0.18
1.0068230628967285,0.1,0.0,0.0,0.1
1.0082759857177734,-0.03,0.02,0.02,0.04
1.0257771015167236,-0.07,0.03,0.04,0.08
1.029792070388794,-0.13,0.04,0.07,0.15
1.0361931324005127,-0.08,0.01,0.09,0.12
1.041600227355957,-0.03,-0.01,0.03,0.04
1.0826990604400635,0.01,0.04,-0.01,0.04
1.084036111831665,0.01,0.05,-0.04,0.06
1.0853819847106934,-0.08,0.02,-0.1,0.12
1.087146282196045,-0.16,0.04,-0.07,0.17
1.0905132293701172,-0.06,0.05,0.02,0.08
1.1006760597229004,0.11,-0.05,-0.01,0.12
1.1107192039489746,0.18,-0.06,-0.06,0.19
1.120671272277832,0.18,-0.01,-0.01,0.18
1.130514144897461,0.19,-0.01,0.14,0.23
1.140517234802246,0.12,-0.03,0.21,0.24
1.1644740104675293,-0.06,-0.02,0.2,0.2
1.1659421920776367,-0.11,0.0,0.17,0.2
1.1698622703552246,0.05,0.0,0.17,0.17
1.1801071166992188,0.15,0.01,0.16,0.21
1.1900372505187988,0.09,0.0,0.11,0.14
1.2000579833984375,0.02,0.04,0.07,0.08
1.2100441455841064,-0.01,0.03,-0.03,0.04
1.219954013824463,-0.01,0.01,-0.1,0.1
1.2297911643981934,-0.03,-0.01,-0.16,0.16
1.2424049377441406,0.0,0.03,-0.15,0.15
1.265578269958496,0.03,0.03,-0.09,0.09
1.267099142074585,0.04,-0.01,-0.06,0.07
1.2694101333618164,0.01,0.01,-0.02,0.02
1.2789511680603027,-0.03,0.03,0.05,0.06
1.2893950939178467,-0.11,0.04,0.04,0.12
1.299391269683838,-0.2,0.05,0.01,0.2
1.3091650009155273,-0.19,-0.01,0.01,0.19
1.3192362785339355,-0.08,-0.03,0.03,0.09
1.3290371894836426,0.06,-0.01,0.08,0.1
1.3389720916748047,0.13,0.0,0.13,0.18
1.364861011505127,0.09,-0.01,0.09,0.12
1.366542100906372,0.06,-0.04,0.06,0.09
1.3684780597686768,0.08,-0.02,0.08,0.11
1.3788020610809326,0.08,0.0,0.1,0.12
1.3900620937347412,0.08,-0.02,0.15,0.17
1.3984370231628418,0.09,-0.03,0.16,0.18
1.4082810878753662,0.15,-0.01,0.14,0.2
1.4184560775756836,0.18,-0.01,0.17,0.24
1.4281871318817139,0.12,-0.02,0.16,0.2
1.4387669563293457,0.09,0.01,0.22,0.23
1.4739360809326172,0.07,-0.04,0.19,0.2
1.475499153137207,0.07,-0.01,0.06,0.09
1.4769041538238525,0.06,-0.03,0.03,0.07
1.4910781383514404,0.07,-0.02,0.06,0.09
1.4925751686096191,0.06,-0.01,0.08,0.1
1.5071029663085938,-0.02,0.02,0.05,0.05
1.5086140632629395,-0.06,-0.01,0.03,0.06
1.5223290920257568,-0.05,-0.01,0.09,0.1
1.527451992034912,-0.07,0.03,0.1,0.12
1.5420200824737549,-0.14,0.04,0.06,0.15
1.56666898727417,-0.24,0.07,0.05,0.25
1.5685691833496094,-0.2,0.04,0.06,0.21
1.5700340270996094,-0.04,-0.01,0.05,0.06
1.577226161956787,0.02,0.01,0.02,0.03
1.5873022079467773,-0.04,0.02,-0.02,0.04
1.5971159934997559,-0.12,0.04,-0.08,0.14
1.607262134552002,-0.14,0.02,-0.09,0.16
1.617042064666748,-0.07,-0.01,-0.04,0.08
1.6268692016601562,0.1,-0.02,0.07,0.12
1.6398870944976807,0.22,-0.04,0.16,0.27
1.6708731651306152,0.16,-0.03,0.17,0.23
1.6725051403045654,0.0,0.01,0.16,0.16
1.673875093460083,-0.13,0.01,0.15,0.19
1.69087815284729,-0.17,-0.03,0.19,0.25
1.6923401355743408,-0.04,-0.02,0.31,0.31
1.707170009613037,0.07,-0.02,0.32,0.32
1.7084932327270508,0.05,-0.02,0.19,0.19
1.722203254699707,-0.01,0.01,0.1,0.1
1.726086139678955,-0.07,0.06,0.06,0.11
1.7391550540924072,-0.07,0.05,0.07,0.11
1.771191120147705,-0.2,0.05,0.05,0.21
1.7728991508483887,-0.21,0.02,0.02,0.21
1.7741951942443848,-0.05,0.04,-0.01,0.06
1.7910442352294922,0.1,0.03,-0.07,0.12
1.7924880981445312,0.23,-0.03,-0.09,0.24
1.806960105895996,0.26,-0.01,-0.07,0.26
1.8083500862121582,0.23,-0.02,-0.02,0.23
1.8226041793823242,0.14,-0.06,0.03,0.15
1.82513427734375,0.12,-0.05,0.09,0.15
1.8404650688171387,0.1,0.0,0.12,0.15
1.8458342552185059,-0.01,0.03,0.17,0.17
1.8775739669799805,-0.1,0.03,0.22,0.24
1.8791191577911377,-0.17,0.01,0.2,0.26
1.880774974822998,-0.2,0.03,0.13,0.24
1.8916780948638916,-0.22,0.04,0.07,0.23
1.8946762084960938,-0.33,0.08,-0.08,0.34
1.9072332382202148,-0.37,0.13,-0.17,0.42
1.9145212173461914,-0.25,0.11,-0.15,0.31
1.9245271682739258,-0.07,0.07,-0.13,0.16
1.9343290328979492,0.07,0.04,-0.18,0.19
1.9447269439697266,0.08,0.05,-0.22,0.23
1.9708399772644043,-0.01,0.07,-0.24,0.25
1.9726581573486328,-0.16,0.01,-0.21,0.26
1.9742050170898438,-0.14,-0.04,-0.09,0.17
1.9913382530212402,0.08,0.0,0.08,0.11
1.9939889907836914,0.14,0.01,0.13,0.19
2.0073652267456055,0.08,0.02,0.12,0.14
2.0139989852905273,0.06,0.05,0.13,0.15
2.023604154586792,0.09,-0.02,0.14,0.16
2.0336170196533203,0.19,-0.09,0.2,0.29
2.046570062637329,0.28,-0.12,0.23,0.38
2.0721912384033203,0.31,-0.1,0.19,0.37
2.073944091796875,0.28,-0.04,0.24,0.37
2.0752551555633545,0.25,-0.02,0.35,0.43
2.0911660194396973,0.23,-0.06,0.43,0.49
2.0931472778320312,0.16,-0.09,0.36,0.4
2.1065969467163086,0.02,-0.09,0.21,0.22
2.113089084625244,-0.06,-0.04,0.12,0.13
2.1228389739990234,-0.01,0.03,0.13,0.13
2.1330180168151855,0.06,0.06,0.11,0.13
2.1452741622924805,-0.01,0.08,-0.01,0.08
2.1694722175598145,-0.19,0.09,-0.14,0.25
2.1714539527893066,-0.35,0.11,-0.28,0.46
2.1728460788726807,-0.45,0.11,-0.39,0.6
2.1908860206604004,-0.43,0.16,-0.37,0.58
2.192397117614746,-0.52,0.19,-0.36,0.66
2.207253932952881,-0.61,0.18,-0.33,0.71
2.212327003479004,-0.44,0.08,-0.2,0.48
2.222175121307373,-0.13,0.05,-0.14,0.19
2.232724189758301,-0.06,0.0,-0.26,0.26
2.2443981170654297,-0.12,0.0,-0.27,0.29
2.2778210639953613,-0.08,0.01,-0.11,0.13
2.279655933380127,0.0,0.02,0.07,0.07
2.2811450958251953,0.01,0.05,0.17,0.17
2.2911951541900635,0.01,0.04,0.16,0.16
2.292595148086548,0.04,0.01,0.09,0.09
2.3073911666870117,0.06,-0.02,0.05,0.08
2.3115639686584473,0.13,-0.04,0.02,0.13
2.321432113647461,0.32,-0.06,0.12,0.34
2.3313300609588623,0.38,-0.06,0.19,0.42
2.3417911529541016,0.37,-0.05,0.17,0.41
2.3822431564331055,0.26,-0.03,0.11,0.28
2.3841021060943604,0.11,-0.04,0.02,0.11
2.3854832649230957,-0.01,-0.06,0.06,0.08
2.387700080871582,0.08,-0.06,0.16,0.18
2.3909382820129395,0.21,-0.02,0.17,0.27
2.400928020477295,0.27,-0.04,0.16,0.31
2.411147117614746,0.26,-0.06,0.11,0.28
2.4209022521972656,0.22,-0.06,0.09,0.24
2.430854082107544,0.18,-0.03,0.04,0.18
2.440669059753418,0.12,-0.02,0.04,0.12
2.474630117416382,0.07,-0.02,0.13,0.14
2.4761600494384766,0.0,-0.03,0.08,0.08
2.47757625579834,-0.01,-0.02,0.07,0.07
2.4912590980529785,0.04,-0.02,0.07,0.08
2.492475986480713,0.04,-0.01,0.03,0.05
2.5071871280670166,0.0,0.0,0.03,0.03
2.510021209716797,0.02,0.0,0.05,0.05
2.5222792625427246,0.05,0.0,0.02,0.05
2.530050277709961,0.06,0.01,-0.01,0.06
2.540128231048584,0.08,0.01,0.0,0.08
2.5737099647521973,0.05,0.02,0.03,0.06
2.575360059738159,0.01,0.01,0.05,0.05
2.5767431259155273,0.0,0.0,0.03,0.03
2.5926389694213867,0.01,0.0,0.02,0.02
2.59394907951355,0.05,0.01,0.02,0.05
2.607542037963867,0.05,0.0,0.02,0.05
2.6092891693115234,0.02,-0.01,0.02,0.03
2.6194000244140625,-0.02,0.02,0.02,0.03
2.6293692588806152,-0.08,0.04,0.07,0.11
2.6418001651763916,-0.09,0.05,0.08,0.13
2.6523101329803467,-0.1,0.02,0.05,0.11
2.6749460697174072,-0.14,0.02,-0.01,0.14
2.67643404006958,-0.14,0.05,-0.04,0.15
2.6786980628967285,-0.21,0.07,-0.11,0.24
2.6917309761047363,-0.11,0.02,-0.04,0.11
2.6988401412963867,0.15,-0.02,0.03,0.15
2.7085120677948,0.17,-0.03,-0.07,0.18
2.7185802459716797,0.13,-0.02,-0.13,0.18
2.728461265563965,0.15,-0.02,-0.1,0.18
2.7391109466552734,0.11,0.0,-0.03,0.11
2.751692056655884,0.05,0.01,0.06,0.07
2.7732810974121094,0.01,0.01,0.14,0.14
2.7747912406921387,0.0,0.0,0.2,0.2
2.7780511379241943,0.02,-0.02,0.23,0.23
2.791727066040039,0.02,-0.01,0.23,0.23
2.7980751991271973,0.01,-0.03,0.16,0.16
2.8078091144561768,0.0,0.0,0.12,0.12
2.8177952766418457,0.0,0.0,0.09,0.09
2.827876091003418,0.0,0.02,0.05,0.05
2.8405070304870605,0.02,0.02,0.07,0.07
2.8481171131134033,0.01,0.01,0.09,0.09
2.873202085494995,-0.03,0.03,0.02,0.04
2.874946117401123,-0.04,0.03,0.0,0.05
2.877291202545166,-0.03,0.01,-0.05,0.05
2.891451120376587,0.02,0.01,-0.09,0.09
2.8971710205078125,0.07,0.01,-0.08,0.1
2.9076132774353027,0.09,0.01,-0.04,0.09
2.9171242713928223,0.08,0.0,0.03,0.08
2.9268760681152344,0.02,-0.01,0.04,0.04
2.939502239227295,-0.05,0.0,0.03,0.05
2.9470181465148926,-0.05,-0.02,0.09,0.1
2.9714202880859375,0.03,0.0,0.17,0.17
2.9731812477111816,0.09,-0.02,0.21,0.22
2.976426124572754,0.09,-0.03,0.21,0.23
2.9915242195129395,0.08,-0.03,0.16,0.18
2.9963932037353516,0.06,-0.03,0.09,0.11
3.00783109664917,0.01,0.0,0.07,0.07
3.016571044921875,-0.02,0.02,0.06,0.06
3.0268001556396484,-0.04,0.02,0.02,0.04
3.0385422706604004,-0.02,0.02,0.04,0.04
3.0483601093292236,-0.01,0.02,0.1,0.1
3.078460216522217,-0.03,0.01,0.1,0.1
3.0798182487487793,-0.03,0.0,0.05,0.05
3.0811500549316406,-0.03,0.03,0.0,0.04
3.085714101791382,-0.02,0.03,-0.01,0.03
3.095695972442627,0.05,0.02,0.01,0.05
3.105844020843506,0.09,0.01,0.02,0.09
3.115787982940674,0.06,0.0,-0.02,0.06
3.125575065612793,0.05,0.04,0.0,0.06
3.135509967803955,0.04,0.02,0.03,0.05
3.145829200744629,0.04,-0.03,0.06,0.07
3.178136110305786,0.07,-0.03,0.05,0.09
3.179856061935425,0.06,-0.01,0.09,0.1
3.181277275085449,0.02,0.0,0.12,0.12
3.1912832260131836,0.01,-0.01,0.15,0.15
3.194944143295288,-0.03,0.0,0.12,0.12
3.2067930698394775,-0.06,0.04,0.13,0.14
3.2147812843322754,-0.08,0.01,0.12,0.14
3.2246720790863037,-0.02,-0.01,0.12,0.12
3.23469614982605,0.06,0.01,0.07,0.09
3.245272159576416,0.04,-0.02,-0.01,0.04
3.2838120460510254,-0.02,-0.04,-0.04,0.06
3.2856359481811523,-0.07,0.02,-0.07,0.1
3.2870612144470215,-0.11,0.06,-0.01,0.12
3.289140224456787,-0.15,0.04,0.02,0.15
3.2942111492156982,-0.11,0.03,-0.02,0.11
3.3042612075805664,-0.04,0.03,-0.03,0.05
3.3141961097717285,0.03,0.0,0.02,0.03
3.323981285095215,0.02,0.02,0.02,0.03
3.3338890075683594,-0.02,0.08,0.08,0.11
3.344006061553955,-0.07,0.06,0.13,0.15
3.375070095062256,-0.1,0.0,0.04,0.1
3.3768482208251953,-0.05,-0.01,-0.03,0.05
3.378197193145752,0.04,-0.01,-0.04,0.05
3.3913049697875977,0.03,0.04,-0.05,0.07
3.3934080600738525,-0.1,0.06,0.01,0.11
3.407945156097412,-0.08,0.03,0.13,0.15
3.413259983062744,0.0,-0.04,0.15,0.15
3.424628257751465,0.07,-0.07,0.02,0.1
3.4331722259521484,0.15,0.0,-0.02,0.15
3.4479222297668457,0.18,0.02,0.02,0.18
3.4530301094055176,0.14,0.0,0.12,0.18
3.477910041809082,0.01,-0.01,0.14,0.14
3.479739189147949,-0.08,0.0,0.08,0.11
3.4826722145080566,-0.03,0.0,0.02,0.03
3.4927501678466797,0.1,0.01,-0.02,0.1
3.5026121139526367,0.11,0.03,-0.04,0.12
3.512681007385254,0.04,0.03,-0.03,0.05
3.522698163986206,-0.04,0.05,0.04,0.07
3.53245210647583,-0.08,0.03,0.03,0.09
3.5449111461639404,-0.02,-0.01,-0.05,0.05
3.554986000061035,0.06,-0.03,-0.08,0.1
3.576991081237793,0.07,-0.04,-0.09,0.12
3.5786261558532715,0.03,0.0,-0.05,0.05
3.582231044769287,0.01,0.04,0.0,0.04
3.591855049133301,0.03,0.02,0.01,0.03
3.601696014404297,0.12,0.0,0.02,0.12
3.611992120742798,0.09,-0.02,-0.03,0.09
3.621859073638916,0.03,-0.02,-0.12,0.12
3.6318001747131348,0.08,0.01,-0.08,0.11
3.642181158065796,0.14,-0.04,0.01,0.14
3.654494285583496,0.12,-0.09,0.03,0.15
3.6793861389160156,0.06,-0.06,0.03,0.09
3.6810030937194824,0.02,0.04,0.1,0.1
3.682695150375366,0.02,0.05,0.14,0.15
3.6912059783935547,0.06,-0.02,0.02,0.06
3.70131516456604,0.05,-0.03,-0.09,0.1
3.7110531330108643,0.02,-0.07,-0.08,0.1
3.721184253692627,0.01,-0.06,-0.01,0.06
3.7310919761657715,0.03,0.04,0.09,0.1
3.7413859367370605,0.09,0.06,0.25,0.27
3.7539119720458984,0.08,-0.01,0.25,0.26
3.7739381790161133,-0.03,-0.04,0.08,0.09
3.7755191326141357,-0.13,0.02,-0.04,0.13
3.780452251434326,-0.18,0.05,-0.12,0.22
3.792358160018921,-0.12,0.05,-0.04,0.13
3.800607204437256,-0.03,0.02,0.0,0.03
3.810620069503784,-0.04,0.06,-0.09,0.11
3.8204360008239746,-0.07,0.06,-0.14,0.16
3.830095052719116,-0.11,0.07,-0.25,0.28
3.8427109718322754,-0.08,0.12,-0.34,0.36
3.8536171913146973,-0.11,0.09,-0.27,0.3
3.879805088043213,-0.14,0.07,-0.13,0.2
3.8814001083374023,-0.13,0.09,-0.07,0.17
3.883268117904663,-0.2,0.05,-0.16,0.26
3.890718936920166,-0.22,0.05,-0.2,0.3
3.9000611305236816,-0.18,0.02,-0.21,0.27
3.9095921516418457,-0.12,0.06,-0.15,0.2
3.9196219444274902,-0.1,0.09,0.02,0.13
3.929267168045044,-0.1,0.04,0.1,0.14
3.939946174621582,-0.04,0.06,-0.08,0.1
3.9527320861816406,0.0,0.09,-0.1,0.13
3.9836530685424805,0.02,0.09,-0.05,0.1
3.9851951599121094,-0.1,0.13,-0.17,0.23
3.986767053604126,-0.33,0.11,-0.19,0.39
3.9888272285461426,-0.39,0.07,-0.12,0.41
3.9990620613098145,-0.34,0.16,-0.14,0.4
4.008758068084717,-0.24,0.22,-0.36,0.48
4.018733024597168,-0.26,0.16,-0.47,0.56
4.028773069381714,-0.26,0.17,-0.51,0.59
4.038968086242676,-0.14,0.24,-0.54,0.6
4.051433086395264,0.04,0.25,-0.5,0.56
4.080965995788574,0.19,0.28,-0.47,0.57
4.082548141479492,0.18,0.28,-0.44,0.55
4.084165096282959,-0.09,0.27,-0.61,0.67
4.089095115661621,-0.24,0.28,-0.74,0.82
4.098323106765747,-0.23,0.39,-0.7,0.83
4.108126163482666,-0.28,0.47,-0.65,0.84
4.118052005767822,-0.26,0.63,-0.59,0.9
4.127870082855225,-0.04,0.69,-0.56,0.88
4.138617038726807,-0.27,1.02,-0.22,1.07
4.150848150253296,-0.76,1.3,0.1,1.5
4.177953243255615,-0.62,0.67,-0.07,0.91
4.1796181201934814,-0.33,0.51,-0.34,0.69
4.181361198425293,0.01,0.2,-0.66,0.68
4.192974090576172,0.36,-0.24,-0.81,0.91
4.197422027587891,0.84,-0.71,-0.69,1.29
4.207864284515381,1.18,-1.02,-0.8,1.75
4.2175140380859375,1.38,-1.24,-0.94,2.07
4.227198123931885,1.44,-1.51,-0.87,2.26
4.237820148468018,1.56,-1.83,-0.74,2.51
4.249871253967285,1.75,-1.82,-0.57,2.58
4.259839057922363,1.89,-1.66,-0.33,2.53
4.285402059555054,1.72,-1.48,-0.02,2.26
4.287243127822876,1.38,-1.38,0.29,1.97
4.288459062576294,1.27,-1.4,0.58,1.97
4.308807134628296,1.32,-1.55,0.8,2.18
4.310171127319336,1.32,-1.81,0.8,2.37
4.324406147003174,0.73,-2.09,0.82,2.36
4.326385974884033,-0.1,-2.11,1.07,2.36
4.3401710987091064,-0.61,-2.18,0.88,2.42
4.346189975738525,-0.51,-1.86,0.27,1.94
4.36005711555481,0.47,-1.02,-0.14,1.13
4.381157159805298,1.81,-0.35,-0.67,1.96
4.382730960845947,2.27,0.21,-0.44,2.32
4.385770082473755,0.46,-0.08,0.22,0.51
4.396094083786011,-1.94,-0.25,0.27,1.97
4.406101226806641,-2.96,2.36,0.38,3.8
4.41598916053772,-6.59,8.14,2.96,10.88
4.425835132598877,-8.62,8.13,8.29,14.46
4.4355340003967285,-7.55,0.93,7.12,10.41
4.4461822509765625,-5.43,-2.3,0.68,5.93
4.458129167556763,-1.41,0.31,-3.12,3.43
4.482055187225342,1.57,1.13,-2.96,3.53
4.483702182769775,2.54,0.01,-1.52,2.96
4.485521078109741,2.11,-0.6,-0.79,2.33
4.495349168777466,0.92,-0.32,-0.95,1.36
4.5086750984191895,0.47,-0.42,-1.08,1.25
4.5150580406188965,0.87,-0.6,-1.11,1.53
4.524809122085571,0.87,-0.21,-0.73,1.15
4.53485107421875,0.08,0.17,0.04,0.19
4.5446741580963135,-0.78,0.33,0.87,1.21
4.557110071182251,-0.93,0.41,1.38,1.71
4.579048156738281,-0.53,0.15,1.14,1.26
4.580652236938477,-0.3,0.03,0.42,0.51
4.584342956542969,-0.28,0.1,0.03,0.29
4.594654083251953,-0.13,0.13,-0.17,0.25
4.604597091674805,0.04,0.14,-0.4,0.42
4.614223957061768,0.32,0.08,-0.38,0.5
4.624238967895508,0.53,0.03,-0.47,0.7
4.634268283843994,0.32,0.12,-0.53,0.63
4.644197940826416,-0.03,0.24,-0.23,0.33
4.656876087188721,-0.28,0.28,0.3,0.49
4.685098171234131,-0.55,0.23,0.39,0.71
4.68668007850647,-0.79,0.08,0.0,0.79
4.6881561279296875,-1.01,0.17,-0.42,1.1
4.693532943725586,-1.01,0.16,-0.25,1.05
4.7055792808532715,-0.48,0.03,0.05,0.48
4.713781118392944,0.02,0.01,-0.08,0.08
4.723535060882568,0.07,0.04,-0.06,0.1
4.733368158340454,0.0,0.04,0.2,0.2
4.7439351081848145,-0.37,0.1,0.36,0.52
4.756227016448975,-0.75,0.16,-0.02,0.76
4.784817218780518,-0.97,0.17,-0.45,1.08
4.7863969802856445,-0.68,0.33,-0.3,0.81
4.787826061248779,0.24,0.15,-0.27,0.39
4.793123245239258,0.88,-0.17,-0.54,1.04
4.802967071533203,0.96,-0.13,-0.32,1.02
4.812897205352783,0.78,-0.05,0.14,0.79
4.822936058044434,0.48,-0.04,0.24,0.53
4.832733154296875,0.07,0.1,0.15,0.19
4.84263014793396,-0.13,0.27,0.01,0.29
4.855401992797852,-0.15,0.26,-0.27,0.4
4.886496067047119,-0.08,0.17,-0.48,0.51
4.888296127319336,-0.01,0.06,-0.44,0.44
4.889738082885742,-0.17,-0.01,-0.37,0.4
4.909346103668213,-0.26,0.12,-0.32,0.42
4.910808086395264,-0.33,0.21,-0.11,0.4
4.924076080322266,-0.37,0.18,0.09,0.42
4.925575256347656,-0.29,0.13,-0.01,0.31
4.940855026245117,0.14,-0.08,-0.03,0.16
4.942253112792969,0.47,-0.19,0.18,0.53
4.957938194274902,0.42,-0.17,-0.01,0.45
4.98264217376709,0.24,-0.07,-0.26,0.36
4.984521150588989,0.01,0.04,-0.27,0.27
4.9859840869903564,-0.12,0.05,-0.24,0.27
4.991563081741333,-0.21,0.03,-0.25,0.32
5.0087730884552,-0.16,-0.02,-0.1,0.18
5.01131010055542,-0.22,0.0,0.0,0.22
5.0217790603637695,-0.41,0.04,-0.01,0.41
5.031219959259033,-0.45,0.05,0.03,0.45
5.0409910678863525,-0.32,-0.04,0.04,0.32
5.054242134094238,-0.18,-0.12,-0.05,0.22
5.061377048492432,0.1,-0.22,-0.19,0.3
5.086880207061768,0.3,-0.38,-0.34,0.59
5.0887861251831055,0.33,-0.35,-0.44,0.65
5.090640068054199,0.36,-0.25,-0.37,0.57
5.109276056289673,-0.08,-0.04,-0.05,0.1
5.110748052597046,-0.61,0.19,0.33,0.71
5.12515115737915,-1.09,0.45,0.44,1.25
5.130338191986084,-1.49,0.76,0.41,1.72
5.141478061676025,-1.49,0.78,0.16,1.68
5.15415096282959,-1.2,0.53,-0.4,1.37
5.1626200675964355,-0.68,0.24,-0.79,1.06
5.187051057815552,-0.36,0.08,-0.95,1.01
5.188676118850708,-0.61,0.09,-1.04,1.2
5.189761161804199,-0.66,0.24,-0.65,0.95
5.209160089492798,-0.55,0.23,-0.13,0.61
5.210628032684326,-0.63,0.26,-0.17,0.7
5.225191116333008,-0.23,0.3,-0.12,0.39
5.229649066925049,0.06,0.27,-0.3,0.4
5.23949408531189,0.04,0.18,-1.04,1.05
5.249590158462524,0.05,0.07,-1.72,1.72
5.261936187744141,0.3,-0.01,-1.38,1.41
5.283716201782227,0.45,-0.04,-0.66,0.79
5.28526496887207,0.18,0.0,-0.14,0.22
5.289340972900391,-0.19,0.11,0.15,0.26
5.299238204956055,-0.46,0.16,0.13,0.5
5.309158086776733,-0.47,0.25,0.07,0.53
5.319040060043335,-0.24,0.22,-0.19,0.37
5.3289501667022705,-0.35,0.22,-0.83,0.92
5.339087963104248,0.1,0.56,-1.33,1.44
5.349383115768433,1.18,0.74,-1.06,1.75
5.361205101013184,1.34,0.63,-0.78,1.67
5.3834309577941895,1.06,0.89,-0.61,1.51
5.385101079940796,0.8,1.04,-0.44,1.38
5.388394117355347,0.49,1.0,-0.41,1.18
5.39854621887207,-0.45,1.18,0.43,1.33
5.409012079238892,-1.13,1.5,1.06,2.15
5.418423175811768,-1.44,2.06,0.63,2.59
5.428295135498047,-1.47,2.57,0.1,2.96
5.438354969024658,-1.34,2.98,0.07,3.26
5.44860315322876,-1.37,2.72,-0.63,3.11
5.460762977600098,-0.99,2.96,-0.87,3.24
5.4886040687561035,-0.63,3.12,-1.06,3.35
5.4901721477508545,-0.51,3.33,-1.52,3.69
5.491631984710693,-0.68,3.41,-1.66,3.85
5.509278059005737,-0.88,3.52,-1.68,3.99
5.5107622146606445,-0.98,3.62,-1.91,4.2
5.524155139923096,-1.16,3.43,-2.19,4.23
5.5273730754852295,-1.51,2.93,-2.26,3.99
5.54085111618042,-1.55,2.52,-2.2,3.68
5.547940254211426,-1.65,2.37,-2.52,3.83
5.561796188354492,-1.75,1.49,-3.32,4.03
5.588320255279541,-0.91,0.67,-3.05,3.25
5.59020209312439,0.48,1.1,-2.39,2.67
5.591658115386963,2.33,2.46,-2.55,4.24
5.609921932220459,3.49,3.72,-3.68,6.28
5.611419200897217,1.51,2.31,-4.99,5.7
5.625475168228149,0.07,0.63,-4.31,4.35
5.626990079879761,-2.09,-1.98,-3.97,4.9
5.6411261558532715,-2.79,-2.3,-2.59,4.44
5.646460056304932,-2.62,-1.68,-1.79,3.59
5.657870054244995,-5.85,-2.3,-3.24,7.07
5.69149112701416,-8.68,-2.1,-3.81,9.7
5.6933979988098145,-8.24,-2.11,-2.93,8.99
5.694879055023193,-6.26,-2.63,-1.87,7.04
5.709914207458496,-5.17,-3.07,-1.36,6.16
5.711367130279541,-4.84,-2.77,-1.09,5.68
5.725708961486816,-4.76,-2.35,-0.99,5.4
5.727167129516602,-4.85,-2.04,-0.94,5.34
5.7412731647491455,-4.8,-1.67,-0.66,5.12
5.745773077011108,-4.54,-1.27,-0.23,4.71
5.7607011795043945,-4.15,-0.72,-0.01,4.21
5.785610198974609,-3.56,-0.01,-0.08,3.56
5.787524223327637,-2.97,0.48,-0.18,3.01
5.788984060287476,-2.64,0.74,-0.03,2.74
5.795629978179932,-2.77,0.95,0.26,2.93
5.805606126785278,-3.13,1.07,0.61,3.36
5.815542221069336,-3.2,0.94,0.83,3.43
5.825259208679199,-2.86,1.01,0.73,3.11
5.8351991176605225,-2.56,1.27,0.21,2.86
5.845173120498657,-2.48,1.19,-0.44,2.78
5.85573410987854,-2.32,1.08,-0.69,2.65
5.867818117141724,-1.54,1.06,-0.48,1.93
5.8909430503845215,-0.51,0.63,-0.39,0.89
5.892580032348633,0.26,0.43,-0.44,0.66
5.894459247589111,0.89,0.62,-0.54,1.21
5.910782098770142,1.35,0.78,-0.55,1.65
5.914623260498047,1.61,0.93,-0.34,1.89
5.924383163452148,1.77,1.07,0.04,2.06
5.9344141483306885,2.07,0.99,0.5,2.34
5.9444191455841064,2.64,0.78,0.99,2.92
5.954412937164307,3.1,0.82,1.88,3.71
5.964579105377197,3.39,0.88,2.73,4.44
5.991398096084595,3.64,1.0,3.04,4.84
5.993299961090088,4.23,0.92,3.2,5.38
5.9947521686553955,5.1,0.35,3.38,6.12
6.010159015655518,5.81,-0.07,3.65,6.86
6.013843059539795,6.17,-0.44,3.99,7.36
6.025572061538696,6.08,-0.49,3.96,7.27
6.033818244934082,5.59,2.21,3.05,6.74
6.043521165847778,6.94,0.51,2.83,7.51
6.053620100021362,12.33,-0.16,3.73,12.88
6.064023971557617,19.12,-1.26,4.42,19.66
6.0917651653289795,23.06,1.12,4.33,23.48
6.093307018280029,20.61,1.94,5.18,21.33
6.0943591594696045,11.57,-3.7,5.88,13.49
6.110056161880493,0.24,-3.29,4.84,5.85
6.113161087036133,-4.38,-2.46,2.92,5.81
6.125844955444336,-3.07,0.26,2.31,3.85
6.133124113082886,-2.64,4.19,1.4,5.14
6.142731189727783,-3.9,5.9,-0.02,7.07
6.152881145477295,-2.67,3.28,0.72,4.29
6.165380001068115,-0.2,-1.01,1.97,2.22
6.190741062164307,0.27,-0.8,0.91,1.24
6.192687034606934,-0.52,0.32,-1.83,1.92
6.194154262542725,-0.35,0.26,-2.67,2.7
6.209906101226807,0.99,-0.33,-2.04,2.29
6.212213039398193,1.42,-0.11,-1.44,2.02
6.225543022155762,0.81,-0.09,-0.85,1.17
6.232330083847046,0.36,-0.03,0.39,0.53
6.241953134536743,-0.13,0.07,0.78,0.79
6.251814126968384,-0.56,0.14,0.3,0.65
6.262158155441284,-0.48,0.15,0.31,0.59
6.295299053192139,-0.26,0.22,0.44,0.55
6.297181129455566,-0.14,0.19,0.05,0.24
6.298627138137817,0.04,0.11,-0.2,0.23
6.30907416343689,0.39,-0.06,-0.15,0.42
6.311481952667236,0.5,-0.16,-0.2,0.56
6.3256402015686035,0.26,-0.03,-0.22,0.34
6.331377029418945,0.04,0.12,-0.21,0.24
6.341262102127075,-0.04,0.2,-0.28,0.34
6.351226091384888,-0.05,0.2,-0.32,0.38
6.361212253570557,-0.01,0.12,-0.03,0.12
6.396203994750977,-0.08,0.08,0.1,0.15
6.397926092147827,-0.27,0.08,-0.18,0.33
6.399309158325195,-0.29,0.06,-0.38,0.48
6.410192012786865,-0.21,0.06,-0.28,0.35
6.4116051197052,-0.22,0.04,-0.36,0.42
6.425537109375,-0.19,-0.01,-0.35,0.39
6.430837154388428,0.25,0.01,0.16,0.29
6.441380977630615,0.67,-0.14,0.41,0.79
6.450667142868042,0.87,-0.26,0.31,0.95
6.460726261138916,0.82,-0.28,0.29,0.91
6.49711012840271,0.58,-0.22,0.25,0.66
6.499050140380859,0.27,-0.09,0.21,0.35
6.5004730224609375,0.15,-0.02,0.24,0.28
6.506967067718506,0.15,0.02,0.23,0.27
6.509960174560547,0.23,0.01,0.14,0.26
6.526612281799316,0.33,-0.03,0.08,0.34
6.529987096786499,0.37,-0.16,0.13,0.42
6.5399932861328125,0.37,-0.14,0.25,0.46
6.549843072891235,0.37,-0.01,0.27,0.45
6.559704065322876,0.37,-0.03,0.07,0.37
6.592185020446777,0.27,-0.03,0.02,0.27
6.593826055526733,0.19,0.0,0.19,0.26
6.595263957977295,-0.03,0.03,0.18,0.18
6.610164165496826,-0.22,0.06,0.26,0.34
6.61165714263916,-0.19,0.1,0.29,0.36
6.626016139984131,-0.15,0.12,0.19,0.27
6.62919807434082,0.11,0.13,0.08,0.18
6.641430139541626,0.08,0.16,0.01,0.17
6.649057149887085,-0.39,0.22,-0.05,0.45
6.661285161972046,-1.01,0.23,-0.29,1.07
6.672150135040283,-1.5,0.21,-0.55,1.61
6.698698997497559,-1.34,0.35,-0.52,1.47
6.700186252593994,-0.85,0.47,-0.54,1.11
6.701447010040283,-0.75,0.37,-0.71,1.09
6.7086381912231445,-0.99,0.4,-0.92,1.4
6.718625068664551,-1.31,0.37,-1.07,1.73
6.728577136993408,-1.54,0.41,-1.04,1.9
6.7385640144348145,-1.81,0.52,-0.98,2.12
6.748167991638184,-2.08,0.53,-1.09,2.4
6.758317947387695,-2.45,0.55,-1.49,2.91
6.768026113510132,-2.98,0.55,-2.04,3.65
6.79675817489624,-2.21,0.64,-1.81,2.92
6.798433065414429,-1.48,0.63,-1.82,2.42
6.799687147140503,-1.09,0.36,-2.11,2.4
6.810537099838257,-0.33,0.12,-1.2,1.25
6.818027973175049,0.53,0.21,-0.35,0.66
6.827648162841797,0.4,0.59,-0.83,1.09
6.837804079055786,-0.04,1.15,-1.08,1.57
6.84735107421875,-0.17,1.27,-0.92,1.57
6.85754919052124,0.44,1.03,-0.66,1.3
6.868005275726318,1.64,1.1,-0.2,1.98
6.899778127670288,1.58,1.16,0.07,1.96
6.901130199432373,0.15,1.82,0.87,2.02
6.90241813659668,-1.07,2.54,1.02,2.93
6.90671706199646,-1.27,2.71,0.11,2.99
6.926172256469727,-1.36,2.92,0.08,3.22
6.927660942077637,-1.77,2.8,-0.65,3.37
6.941662073135376,-1.89,2.79,-1.13,3.55
6.946846961975098,-1.52,2.9,-1.09,3.45
6.957455158233643,-1.49,3.1,-1.11,3.61
6.966739177703857,-1.43,2.94,-0.42,3.29
6.997573137283325,-1.24,2.45,0.12,2.74
6.998760223388672,-1.26,2.05,0.17,2.41
6.9999470710754395,-1.5,1.61,0.12,2.2
7.008111000061035,-1.41,1.12,0.48,1.86
7.0164711475372314,-1.09,0.74,0.8,1.54
7.026342153549194,-0.82,0.48,0.93,1.32
7.036211967468262,-0.55,0.26,1.23,1.37
7.0461461544036865,-0.12,0.05,0.92,0.92
7.056183099746704,0.49,0.47,0.37,0.77
7.065969944000244,1.04,0.62,-0.11,1.21
7.100313186645508,1.48,0.47,-0.92,1.8
7.101982116699219,1.87,0.16,-1.56,2.44
7.102960109710693,2.81,0.98,-1.5,3.33
7.1060261726379395,3.88,3.69,-0.61,5.38
7.126221179962158,2.17,3.82,-1.03,4.51
7.127715110778809,-0.36,1.63,-2.29,2.83
7.141793251037598,-1.99,-0.39,-2.67,3.35
7.145108222961426,-2.94,-1.5,-3.1,4.52
7.1576409339904785,-3.86,-2.18,-3.59,5.7
7.165070056915283,-3.16,-1.05,-3.25,4.65
7.201175212860107,-1.12,-1.16,-2.63,3.08
7.20283317565918,-2.98,-1.84,-3.35,4.84
7.204230070114136,-5.68,-1.27,-4.43,7.31
7.205834150314331,-6.82,-1.1,-4.58,8.28
7.214672088623047,-6.08,-1.46,-3.87,7.35
7.2248311042785645,-4.63,-2.08,-3.25,6.02
7.234852075576782,-3.54,-2.38,-3.02,5.22
7.244665145874023,-3.24,-2.18,-3.1,4.98
7.2544450759887695,-3.31,-1.59,-3.3,4.93
7.264627933502197,-3.43,-0.97,-3.33,4.87
7.297250270843506,-3.61,-0.56,-3.18,4.84
7.299006938934326,-3.83,-0.23,-2.86,4.78
7.300037145614624,-3.93,0.13,-2.43,4.62
7.309758186340332,-3.81,0.28,-2.03,4.32
7.314091205596924,-3.64,0.14,-1.67,4.0
7.326105117797852,-3.41,-0.02,-1.28,3.64
7.333792209625244,-3.22,-0.06,-0.81,3.32
7.3437180519104,-3.13,0.03,-0.26,3.14
7.353682994842529,-3.21,0.09,0.3,3.22
7.363684177398682,-3.48,0.22,0.6,3.53
7.399479150772095,-3.55,0.51,0.78,3.67
7.4013121128082275,-3.27,0.79,0.98,3.5
7.402365207672119,-2.74,1.09,1.14,3.16
7.40593409538269,-2.04,1.26,1.13,2.65
7.413273096084595,-1.47,1.36,0.92,2.2
7.4263410568237305,-1.08,1.44,0.66,1.91
7.433273077011108,-0.7,1.57,0.46,1.77
7.442904949188232,-0.21,1.78,0.34,1.82
7.452949047088623,0.36,1.82,0.42,1.9
7.462981224060059,0.92,1.66,0.49,1.96
7.475991249084473,1.36,1.34,0.49,1.97
7.503354072570801,1.64,1.02,0.56,2.01
7.504514217376709,1.82,0.95,0.92,2.24
7.5055091381073,2.1,0.9,1.45,2.7
7.527749061584473,2.46,0.61,1.84,3.13
7.529195070266724,2.59,0.43,2.24,3.45
7.543032169342041,2.38,0.47,2.85,3.74
7.544495105743408,1.98,0.5,3.67,4.19
7.558478116989136,2.0,0.52,4.36,4.82
7.561985969543457,2.67,0.28,4.79,5.49
7.575663089752197,3.36,-0.12,4.84,5.89
7.603837013244629,3.79,-0.27,4.77,6.09
7.605566024780273,4.16,-0.28,4.74,6.31
7.606847286224365,4.6,-0.29,4.58,6.49
7.626906156539917,5.08,-0.34,4.34,6.69
7.628393173217773,5.5,-0.39,4.02,6.82
7.643167972564697,5.36,1.17,3.29,6.39
7.644628047943115,5.6,1.33,2.24,6.17
7.658552169799805,7.53,0.4,2.19,7.85
7.66133713722229,10.99,1.55,3.46,11.62
7.675544261932373,16.46,1.69,4.34,17.1
7.7036452293396,17.67,1.49,3.33,18.04
7.7050621509552,11.65,0.42,1.81,11.79
7.706083059310913,4.92,-3.7,1.04,6.24
7.727110147476196,-0.85,-3.81,0.79,3.98
7.728563070297241,-2.98,-2.19,0.94,3.81
7.741953134536743,-1.74,-1.94,0.43,2.64
7.7434401512146,-0.08,0.0,1.23,1.23
7.75859808921814,0.16,3.03,2.44,3.89
7.760509014129639,-0.82,3.83,2.5,4.64
7.778787136077881,-0.83,2.01,2.56,3.35
7.806911945343018,0.23,-0.23,2.49,2.51
7.8082520961761475,0.83,-0.4,1.96,2.16
7.809298038482666,0.87,-0.44,1.22,1.56
7.827049255371094,0.95,-0.43,0.56,1.18
7.828539133071899,1.06,-0.24,0.11,1.09
7.8432700634002686,0.93,-0.15,-0.62,1.12
7.844735145568848,0.94,-0.18,-1.06,1.42
7.858700275421143,0.97,-0.19,-0.98,1.39
7.860168933868408,0.6,-0.26,-0.72,0.97
7.874966144561768,0.0,-0.19,-0.13,0.23
7.907101154327393,-0.63,0.04,0.52,0.81
7.908620119094849,-0.94,0.27,0.67,1.18
7.909589052200317,-0.96,0.27,0.65,1.19
7.9270782470703125,-0.76,0.31,0.51,0.96
7.928586006164551,-0.72,0.47,0.23,0.89
7.943334102630615,-0.81,0.43,-0.28,0.95
7.944797039031982,-0.58,0.21,-0.49,0.78
7.958648204803467,-0.15,0.14,-0.85,0.87
7.9600982666015625,-0.02,0.19,-1.25,1.26
7.975471019744873,-0.01,0.2,-1.2,1.21
8.004685163497925,-0.07,0.34,-1.19,1.23
8.006080150604248,0.01,0.25,-1.25,1.27
8.007094144821167,0.38,0.01,-0.85,0.93
8.02717113494873,0.71,-0.04,-0.22,0.74
8.02866816520691,0.89,-0.07,0.21,0.91
8.043353080749512,0.92,-0.13,0.3,0.97
8.04483699798584,0.77,-0.15,0.42,0.88
8.058800220489502,0.57,-0.12,0.58,0.82
8.060190200805664,0.38,-0.1,0.58,0.7
8.075023174285889,0.36,-0.12,0.56,0.67
8.104652166366577,0.26,-0.08,0.45,0.52
8.10640811920166,0.03,-0.05,0.25,0.25
8.107437133789062,-0.25,-0.02,0.12,0.27
8.127402067184448,-0.26,0.04,-0.02,0.26
8.12889313697815,-0.19,0.12,-0.22,0.31
8.143306255340576,-0.43,0.28,-0.36,0.62
8.144775152206421,-0.47,0.22,-0.16,0.54
8.15864896774292,-0.32,0.07,0.15,0.36
8.160113096237183,-0.34,0.06,-0.05,0.34
8.175775051116943,-0.3,0.14,-0.24,0.4
8.203492164611816,-0.32,0.2,-0.32,0.49
8.204923152923584,-0.38,0.23,-0.49,0.66
8.20589017868042,-0.31,0.27,-0.61,0.73
8.227326154708862,-0.07,0.31,-0.53,0.61
8.228745937347412,0.12,0.31,-0.27,0.42
8.243473052978516,-0.08,0.29,-0.14,0.33
8.244861125946045,-0.5,0.3,-0.22,0.62
8.258811950683594,-0.88,0.31,-0.23,0.96
8.260403156280518,-1.2,0.32,-0.12,1.24
8.275097131729126,-1.33,0.41,-0.12,1.39
8.276621103286743,-1.29,0.33,-0.18,1.34
8.308080196380615,-1.04,0.23,-0.19,1.08
8.309422016143799,-0.75,0.17,-0.12,0.77
8.310466051101685,-0.67,0.21,-0.22,0.73
8.327798128128052,-0.78,0.19,-0.41,0.9
8.329281091690063,-0.6,0.14,-0.47,0.77
8.34368109703064,-0.19,-0.06,-0.24,0.31
8.346191167831421,0.22,-0.34,-0.14,0.42
8.358842134475708,0.25,-0.56,-0.15,0.63
8.36597728729248,0.18,-0.73,-0.22,0.78
8.375972270965576,0.06,-0.76,-0.26,0.8
8.406222105026245,-0.16,-0.49,-0.34,0.61
8.407543182373047,-0.38,0.25,-0.5,0.67
8.40856409072876,-1.1,0.87,-1.32,1.92
8.427120208740234,-0.48,1.24,-1.4,1.93
8.428604125976562,0.38,0.86,-0.25,0.97
8.443727016448975,0.37,0.34,0.22,0.54
8.445261001586914,0.08,0.02,0.07,0.1
8.458556175231934,0.1,-0.07,0.16,0.2
8.465494155883789,0.03,0.15,-0.08,0.17
8.475214958190918,-0.24,0.42,-0.61,0.77
8.506196975708008,-0.4,0.59,-0.99,1.21
8.507774114608765,-0.24,0.92,-0.97,1.35
8.508788108825684,-0.25,1.49,-0.86,1.73
8.527613162994385,-0.28,1.88,-0.04,1.9
8.529138088226318,0.03,2.41,0.28,2.42
8.543508052825928,0.14,2.9,-0.36,2.92
8.545032978057861,-0.17,3.03,-0.71,3.11
8.559174060821533,-0.35,2.94,-0.81,3.06
8.564748287200928,-0.61,2.88,-1.04,3.12
8.575107097625732,-0.91,2.44,-1.24,2.88
8.606728076934814,-0.98,1.85,-1.0,2.32
8.608060121536255,-0.87,1.48,-0.43,1.76
8.609087944030762,-1.1,1.5,-0.04,1.86
8.62714409828186,-1.2,1.91,0.38,2.28
8.628626108169556,-0.95,2.47,0.34,2.66
8.643545150756836,-0.91,2.68,-0.05,2.83
8.645023107528687,-1.13,2.65,-0.27,2.89
8.658947944641113,-1.31,2.67,-0.65,3.04
8.663879156112671,-1.1,2.49,-1.21,2.97
8.675487995147705,-0.77,2.13,-1.7,2.83
8.714012145996094,-0.63,1.78,-1.92,2.69
8.71530818939209,-0.42,1.53,-2.16,2.68
8.716288089752197,-0.07,1.16,-2.34,2.61
8.725433111190796,0.11,1.43,-2.09,2.53
8.726476192474365,0.13,1.89,-1.89,2.67
8.743723154067993,0.78,2.24,-1.47,2.79
8.745126247406006,2.99,3.45,-1.31,4.74
8.759073257446289,2.33,2.0,-2.8,4.15
8.76310110092163,0.09,-0.25,-3.64,3.64
8.775330066680908,-1.96,-2.08,-4.03,4.94
8.809305191040039,-3.88,-3.37,-4.15,6.6
8.810618162155151,-1.88,-2.86,-2.52,4.25
8.811676025390625,-2.47,-3.14,-2.1,4.51
8.827370166778564,-5.58,-3.0,-3.27,7.12
8.828848123550415,-7.75,-2.53,-3.8,8.99
8.843583106994629,-7.33,-1.81,-3.01,8.12
8.845044136047363,-5.76,-1.62,-2.31,6.41
8.859089136123657,-4.61,-1.77,-2.16,5.38
8.862314224243164,-4.31,-1.53,-2.12,5.04
8.8753981590271,-4.56,-0.82,-2.04,5.06
8.91132926940918,-4.76,-0.27,-1.75,5.07
8.912682056427002,-4.69,0.01,-1.15,4.82
8.913702011108398,-4.52,0.14,-0.49,4.54
8.927731990814209,-4.45,0.23,-0.08,4.45
8.929169178009033,-4.52,0.51,0.07,4.54
8.943610191345215,-4.52,0.75,0.13,4.58
8.944930076599121,-4.26,0.85,0.19,4.34
8.959105968475342,-3.67,0.82,0.27,3.77
8.961626052856445,-2.96,0.76,0.28,3.06
8.975576162338257,-2.53,0.69,0.14,2.62
9.008125066757202,-2.52,0.69,-0.01,2.61
9.009335994720459,-2.47,0.78,0.12,2.59
9.01033616065979,-2.23,0.72,0.35,2.36
9.028007984161377,-2.04,0.65,0.3,2.16
9.029497146606445,-1.85,0.69,0.14,1.97
9.043820142745972,-1.55,0.8,0.1,1.74
9.045278072357178,-1.27,0.92,0.04,1.56
9.05907917022705,-1.05,1.1,-0.14,1.52
9.060810089111328,-0.84,1.19,-0.39,1.5
9.07554817199707,-0.85,1.37,-0.7,1.75
9.080755233764648,-0.97,1.63,-0.8,2.05
9.123877048492432,-0.92,2.02,-0.66,2.31
9.125091075897217,-0.41,2.34,-0.22,2.38
9.126127243041992,0.28,2.0,0.18,2.02
9.144686222076416,0.68,1.34,0.56,1.6
9.145732164382935,0.99,0.91,0.89,1.61
9.160237073898315,1.32,0.62,1.0,1.76
9.161693096160889,1.78,0.56,0.98,2.1
9.176185131072998,2.56,0.57,1.03,2.81
9.17759895324707,3.73,0.55,1.26,3.97
9.192001104354858,5.05,0.52,1.48,5.28
9.21941614151001,6.11,0.16,1.73,6.35
9.22064208984375,6.76,-0.48,2.11,7.09
9.221681118011475,7.11,-0.88,2.51,7.59
9.224194049835205,7.45,-1.05,2.62,7.96
9.229227066040039,7.86,-1.07,2.67,8.36
9.239460945129395,8.16,-1.11,2.6,8.63
9.249467134475708,8.09,-1.26,2.53,8.56
9.259220123291016,7.43,-1.52,2.66,8.03
9.269411087036133,6.57,-1.73,2.84,7.36
9.27930498123169,5.99,-1.95,3.33,7.12
9.308692932128906,5.42,-0.66,3.42,6.44
9.310022115707397,7.26,0.22,2.68,7.74
9.311053276062012,13.69,-0.09,2.62,13.93
9.327349185943604,19.12,2.25,4.34,19.73
9.328413963317871,18.54,2.19,5.12,19.35
9.343845129013062,9.89,-1.23,4.41,10.89
9.348473072052002,-1.33,-1.13,3.3,3.73
9.358557224273682,-8.38,0.93,3.29,9.05
9.368713140487671,-8.87,2.39,2.82,9.6
9.37841796875,-5.88,4.28,1.68,7.46
9.40837812423706,-3.72,4.6,0.23,5.92
9.40969705581665,-0.08,1.34,1.88,2.31
9.410697937011719,2.78,-1.2,4.04,5.04
9.42754602432251,2.52,-1.44,2.48,3.81
9.428601264953613,1.02,-0.48,-0.74,1.34
9.443464279174805,0.78,-0.01,-2.27,2.4
9.447936058044434,1.76,-0.36,-2.18,2.82
9.459037065505981,2.62,-0.38,-1.61,3.09
9.467920064926147,2.05,-0.03,-0.86,2.22
9.477865219116211,0.57,0.05,-0.12,0.58
9.5145902633667,-0.42,0.11,0.74,0.85
9.515897274017334,-0.78,0.13,1.48,1.67
9.516878128051758,-0.78,0.27,1.47,1.68
9.527704238891602,-0.54,0.28,1.27,1.4
9.528738021850586,-0.1,0.17,0.6,0.63
9.54417610168457,0.1,0.34,-0.08,0.36
9.54729413986206,0.06,0.44,-0.86,0.96
9.55928111076355,0.15,0.37,-1.28,1.34
9.567108154296875,0.27,0.35,-1.18,1.26
9.576908111572266,0.42,0.35,-1.19,1.3
9.615479946136475,0.35,0.27,-1.07,1.15
9.616851091384888,0.12,0.26,-0.78,0.83
9.61787223815918,-0.28,0.4,-0.48,0.68
9.627715110778809,-0.55,0.44,-0.35,0.78
9.62877607345581,-0.28,0.24,0.01,0.36
9.644197940826416,0.09,-0.1,0.46,0.47
9.646346092224121,0.31,-0.44,0.51,0.74
9.659179210662842,0.31,-0.66,0.59,0.93
9.666357040405273,0.18,-0.63,0.4,0.76
9.67614221572876,0.04,-0.35,0.0,0.35
9.714094161987305,-0.05,0.0,-0.29,0.29
9.715482234954834,-0.1,0.18,-0.44,0.48
9.716498136520386,0.0,0.16,-0.48,0.5
9.727420091629028,0.25,0.05,-0.4,0.47
9.728477001190186,0.29,-0.02,-0.25,0.38
9.744019031524658,0.04,-0.01,-0.25,0.25
9.745759010314941,-0.21,0.17,-0.11,0.29
9.759764194488525,-0.3,0.31,0.03,0.43
9.76563024520874,-0.33,0.36,-0.03,0.48
9.775871276855469,-0.31,0.3,-0.17,0.46
9.812833070755005,-0.28,0.06,-0.22,0.36
9.814109086990356,-0.21,-0.22,-0.25,0.39
9.815077066421509,-0.06,-0.5,-0.23,0.55
9.816143989562988,0.13,-0.64,-0.1,0.66
9.82518196105957,0.23,-0.61,0.1,0.65
9.834980964660645,0.29,-0.54,0.09,0.61
9.844905138015747,0.2,-0.7,0.04,0.72
9.854887008666992,-0.25,-0.73,-0.14,0.78
9.864933967590332,-0.87,-0.17,-0.41,0.97
9.874963283538818,-0.99,0.72,0.11,1.22
9.884955167770386,-0.63,0.75,0.62,1.15
9.916872024536133,-0.63,0.63,0.45,0.99
9.918149948120117,-0.9,0.58,0.19,1.08
9.919222116470337,-1.01,0.41,0.27,1.12
9.92397403717041,-1.1,0.36,-0.02,1.15
9.934098243713379,-1.27,0.36,-0.66,1.47
9.943994998931885,-1.44,0.33,-1.11,1.84
9.954293251037598,-1.52,0.35,-1.22,1.98
9.963942050933838,-1.69,0.28,-1.04,2.0
9.974178075790405,-1.96,0.4,-1.06,2.26
9.984013080596924,-1.72,0.61,-0.84,2.0
10.014683246612549,-0.93,0.55,-0.28,1.11
10.016123056411743,-0.16,0.25,-0.18,0.34
10.017146110534668,0.73,0.13,-0.17,0.76
10.028292179107666,1.2,-0.18,-0.1,1.21
10.033288955688477,1.2,-0.17,-0.29,1.24
10.04404616355896,1.12,-0.07,-0.51,1.23
10.053761959075928,1.16,-0.27,-0.25,1.21
10.063501119613647,0.97,-0.43,0.25,1.09
10.073466062545776,0.31,-0.61,0.46,0.82
10.08328104019165,-0.58,-0.46,0.32,0.8
10.11511516571045,-1.09,-0.05,0.1,1.09
10.11645793914795,-1.12,0.16,-0.08,1.13
10.117465019226074,-1.02,0.33,-0.5,1.18
10.127292156219482,-0.59,0.35,-0.82,1.06
10.132424116134644,-0.24,0.36,-0.94,1.03
10.143340110778809,0.13,0.37,-0.91,0.99
10.152753114700317,0.59,0.41,-0.84,1.1
10.162492275238037,0.54,0.84,-1.19,1.55
10.172665119171143,0.73,1.18,-1.64,2.14
10.182285070419312,1.76,1.81,-1.05,2.73
10.214453220367432,1.36,1.59,-0.68,2.2
10.215760231018066,0.64,1.88,-0.17,1.99
10.21678614616394,0.18,2.82,0.4,2.85
10.228017091751099,-0.32,2.51,0.14,2.53
10.231694221496582,-0.48,2.9,0.63,3.0
10.244356155395508,-0.27,2.66,1.26,2.95
10.251944065093994,-0.47,2.78,1.12,3.03
10.261727094650269,-0.6,2.75,1.27,3.08
10.272089958190918,-0.85,2.79,1.69,3.37
10.281620979309082,-1.17,2.98,1.85,3.69
10.320113182067871,-1.33,2.82,1.67,3.53
10.321506023406982,-1.52,2.67,1.23,3.3
10.322481155395508,-1.79,2.63,0.47,3.21
10.323596954345703,-1.85,2.42,0.12,3.04
10.33102011680603,-1.89,1.9,-0.36,2.7
10.341283082962036,-1.81,1.56,-0.73,2.49
10.350985050201416,-1.63,1.42,-0.83,2.31
10.361161231994629,-1.43,1.26,-0.86,2.09
10.371196269989014,-1.81,0.43,-0.92,2.07
10.381117105484009,-1.17,0.52,-0.74,1.47
10.416901111602783,0.11,0.94,-0.78,1.22
10.418224096298218,2.31,2.25,-0.46,3.25
10.419310092926025,4.59,4.3,0.19,6.29
10.424897193908691,2.51,2.88,-0.57,3.86
10.430223941802979,-0.66,0.32,-1.33,1.51
10.444124221801758,-2.77,-2.2,-2.14,4.13
10.450094223022461,-4.99,-5.06,-3.63,7.98
10.46025800704956,-5.81,-4.21,-3.31,7.9
10.470308065414429,-4.08,-1.57,-2.28,4.93
10.479988098144531,-5.27,-1.75,-3.44,6.53
10.515653133392334,-7.24,-1.59,-4.61,8.72
10.516963005065918,-7.18,-0.97,-4.66,8.61
10.517978191375732,-5.11,-0.64,-4.03,6.53
10.52822208404541,-3.26,-0.86,-3.8,5.08
10.529303073883057,-2.5,-0.87,-3.74,4.58
10.54428505897522,-2.58,-0.38,-3.77,4.58
10.54940915107727,-3.07,0.3,-3.73,4.84
10.55971097946167,-3.44,0.73,-3.38,4.87
10.569701194763184,-3.54,0.77,-2.87,4.62
10.579535007476807,-3.49,0.72,-2.32,4.25
10.616205215454102,-3.4,0.81,-1.81,3.93
10.61744213104248,-3.35,0.86,-1.51,3.77
10.618436098098755,-3.23,0.97,-1.25,3.59
10.625323057174683,-3.01,0.99,-0.97,3.31
10.628839015960693,-2.68,0.92,-0.73,2.92
10.644423961639404,-2.28,0.83,-0.56,2.49
10.648584127426147,-1.84,0.77,-0.5,2.05
10.65966796875,-1.54,0.61,-0.56,1.74
10.668745040893555,-1.43,0.5,-0.63,1.64
10.678646087646484,-1.28,0.49,-0.58,1.48
10.688656091690063,-1.0,0.58,-0.37,1.21
10.721776008605957,-0.68,0.73,0.04,0.99
10.722965240478516,-0.61,0.67,0.23,0.93
10.72394609451294,-0.64,0.51,0.39,0.9
10.744989156723022,-0.52,0.58,0.75,1.08
10.74603796005249,-0.27,0.54,1.0,1.16
10.761011123657227,-0.14,0.43,1.16,1.24
10.76247501373291,-0.11,0.62,1.28,1.42
10.776800155639648,-0.18,0.93,1.33,1.63
10.778221130371094,-0.21,0.99,1.39,1.71
10.79317307472229,0.02,0.83,1.54,1.74
10.822333097457886,0.53,0.46,1.78,1.91
10.823858261108398,1.32,-0.21,1.82,2.25
10.824909210205078,2.01,-0.87,1.64,2.73
10.845009088516235,2.45,-1.13,1.48,3.07
10.846024990081787,2.81,-1.08,1.29,3.27
10.860475063323975,3.16,-0.87,1.07,3.44
10.861961126327515,3.55,-0.53,1.0,3.72
10.87671422958374,3.83,-0.23,0.99,3.96
10.878210067749023,3.92,0.06,1.19,4.09
10.892758131027222,4.04,0.23,1.43,4.29
10.921844005584717,4.36,0.31,1.59,4.65
10.923243045806885,4.84,0.45,1.72,5.15
10.92424201965332,5.22,0.42,1.87,5.56
10.945505142211914,5.31,0.2,1.99,5.67
10.94697904586792,5.29,0.12,2.11,5.69
10.961523056030273,5.49,0.08,2.21,5.91
10.962975978851318,5.82,-0.1,2.29,6.25
10.97704815864563,5.73,0.51,2.32,6.2
10.978513240814209,5.31,1.15,2.3,5.89
10.993007183074951,6.68,-0.42,2.69,7.21
11.022426128387451,7.37,-0.72,3.58,8.22
11.023797988891602,7.22,-0.88,3.63,8.12
11.024810075759888,8.27,-0.71,3.37,8.95
11.044993162155151,12.77,0.22,4.25,13.46
11.046054124832153,15.24,0.12,4.71,15.95
11.061460018157959,10.79,-0.75,3.9,11.49
11.062947273254395,2.61,-0.69,5.43,6.06
11.076714992523193,-2.83,-0.43,6.46,7.06
11.078176021575928,-4.18,0.4,6.11,7.41
11.092770099639893,-3.5,1.05,1.92,4.12
11.123363018035889,-3.6,3.49,-1.82,5.33
11.124735116958618,-2.94,4.99,-1.7,6.03
11.125722169876099,0.48,0.59,1.64,1.8
11.144890069961548,2.86,-1.96,3.36,4.82
11.145944118499756,2.24,-1.1,0.38,2.52
11.16186809539795,1.2,-0.02,-2.26,2.55
11.163294076919556,1.65,0.01,-1.99,2.58
11.173493146896362,1.84,-0.07,-1.08,2.13
11.174440145492554,1.14,0.05,-0.71,1.34
11.192615985870361,0.17,-0.2,-0.49,0.55
11.222900152206421,-0.32,-0.1,0.17,0.37
11.224338054656982,-0.53,0.26,0.77,0.97
11.225337028503418,-0.53,0.3,0.93,1.11
11.244823932647705,-0.25,0.22,0.99,1.04
11.245835065841675,-0.13,0.08,0.96,0.97
11.261413097381592,0.08,-0.03,0.43,0.43
11.262901067733765,0.19,-0.01,-0.38,0.42
11.276985168457031,0.25,0.19,-0.98,1.02
11.278489112854004,0.23,0.25,-1.28,1.32
11.29300594329834,0.27,0.39,-1.43,1.5
11.321129083633423,0.21,0.29,-1.43,1.47
11.322464942932129,0.03,0.16,-1.04,1.05
11.323441982269287,-0.34,0.13,-0.51,0.62
11.324819087982178,-0.7,0.08,0.1,0.71
11.333914279937744,-0.85,0.13,0.53,1.01
11.343481063842773,-0.85,0.18,0.6,1.05
11.353516101837158,-0.63,0.13,0.52,0.82
11.363451957702637,-0.3,0.01,0.38,0.48
11.373713970184326,0.06,-0.08,0.29,0.3
11.383498191833496,0.42,-0.1,0.02,0.43
11.419077157974243,0.77,0.0,0.04,0.77
11.420380115509033,1.03,0.02,0.36,1.09
11.421379089355469,0.87,-0.05,0.54,1.02
11.424527168273926,0.42,-0.11,0.32,0.53
11.445165157318115,0.08,-0.02,-0.03,0.08
11.446201086044312,-0.1,0.11,-0.18,0.23
11.459051132202148,-0.5,0.25,-0.18,0.58
11.462852954864502,-0.87,0.52,-0.21,1.03
11.476383209228516,-0.95,0.64,-0.08,1.14
11.482758045196533,-0.82,0.45,-0.3,0.98
11.493153095245361,-0.68,0.3,-0.61,0.96
11.524471282958984,-0.87,0.4,-0.97,1.36
11.525800228118896,-1.19,0.49,-1.21,1.76
11.526820182800293,-1.47,0.44,-1.47,2.12
11.545399188995361,-1.51,0.4,-1.23,1.98
11.546425104141235,-1.19,0.26,-0.84,1.47
11.561361074447632,-1.02,0.01,-0.6,1.18
11.562850952148438,-1.04,-0.1,-0.33,1.09
11.577078104019165,-1.13,-0.09,-0.3,1.17
11.581988096237183,-1.21,-0.03,-0.28,1.24
11.592761039733887,-0.86,-0.03,0.16,0.87
11.623946189880371,-0.3,-0.16,0.77,0.84
11.625268936157227,0.21,-0.3,0.91,0.98
11.626261234283447,0.34,-0.37,0.61,0.79
11.645373106002808,0.17,-0.53,0.31,0.63
11.646406173706055,-0.21,-0.43,0.19,0.51
11.661684036254883,-0.6,-0.21,0.1,0.64
11.66313123703003,-0.68,-0.21,0.19,0.73
11.677082061767578,-0.35,-0.21,0.5,0.64
11.681182146072388,0.01,-0.28,0.51,0.58
11.692973136901855,-0.07,-0.1,-0.01,0.12
11.724853992462158,-0.66,-0.01,-0.56,0.86
11.726134061813354,-0.72,0.23,-0.61,0.97
11.727153062820435,-0.27,0.28,-0.28,0.47
11.745262145996094,-0.05,0.04,-0.11,0.12
11.746313095092773,-0.15,0.41,-0.24,0.49
11.76137399673462,-0.59,0.68,-0.96,1.31
11.762858152389526,-0.74,0.86,-1.53,1.9
11.777387142181396,-0.37,0.42,-1.33,1.44
11.780609130859375,0.11,-0.07,-0.54,0.55
11.792939186096191,0.31,-0.33,-0.1,0.46
11.82368516921997,0.14,-0.25,0.04,0.28
11.825467109680176,0.05,-0.05,0.36,0.36
11.82650113105774,0.17,-0.04,0.34,0.38
11.84574007987976,0.41,0.1,0.02,0.42
11.847201108932495,0.63,0.01,0.1,0.63
11.861530065536499,0.41,-0.17,0.11,0.45
11.86300015449524,0.2,0.0,0.0,0.2
11.877231121063232,1.36,0.59,0.94,1.75
11.879625082015991,1.98,0.57,1.33,2.45
11.893249988555908,1.92,1.09,1.04,2.44
11.929150104522705,0.79,2.21,0.9,2.51
11.93054723739624,-0.43,2.82,0.45,2.88
11.931594133377075,-0.81,3.45,-0.31,3.55
11.946007251739502,-0.42,3.4,-0.55,3.46
11.947508096694946,-0.21,3.29,-0.75,3.38
11.959716081619263,-0.29,3.08,-0.67,3.16
11.961222171783447,-0.08,2.86,-0.36,2.88
11.977322101593018,-0.1,2.86,-0.51,2.9
11.978872060775757,-0.55,2.87,-0.55,2.97
11.993216037750244,-0.46,2.61,-0.23,2.66
12.028183937072754,0.16,2.23,0.21,2.24
12.029512166976929,0.32,1.91,0.45,1.98
12.030531167984009,-0.1,1.38,0.49,1.46
12.045927047729492,-0.53,1.06,0.58,1.31
12.046926021575928,-0.7,0.93,0.68,1.34
12.061581134796143,-0.83,0.75,0.51,1.22
12.063056945800781,-0.93,0.48,0.08,1.04
12.077299118041992,-0.59,0.13,-0.57,0.83
12.07878828048706,-0.22,-0.39,-1.22,1.29
12.09345817565918,-0.02,-0.24,-1.62,1.63
12.126183986663818,0.18,1.02,-1.85,2.12
12.127624988555908,0.63,2.59,-2.14,3.41
12.128643989562988,1.7,3.96,-1.83,4.68
12.145470142364502,3.31,4.78,-0.69,5.85
12.146558284759521,2.47,2.33,-0.99,3.53
12.161669254302979,0.08,-0.59,-2.64,2.7
12.163141250610352,-2.58,-2.58,-4.05,5.45
12.177337169647217,-5.17,-4.3,-4.4,8.03
12.17875623703003,-5.61,-3.42,-3.37,7.38
12.193329095840454,-3.31,-0.83,-2.22,4.07
12.225455284118652,-4.06,-0.24,-2.81,4.94
12.22682523727417,-6.08,-0.56,-3.74,7.16
12.22783613204956,-7.27,-0.72,-3.75,8.21
12.245489120483398,-6.57,-0.71,-3.02,7.26
12.246539115905762,-4.82,-0.79,-2.35,5.42
12.261851072311401,-3.59,-0.96,-2.15,4.29
12.26331901550293,-3.22,-0.72,-2.31,4.02
12.27720308303833,-3.33,-0.14,-2.5,4.16
12.278676986694336,-3.63,0.32,-2.4,4.36
12.293331146240234,-3.9,0.45,-1.94,4.37
12.29649305343628,-4.12,0.33,-1.35,4.34
12.3388352394104,-4.28,0.21,-0.83,4.36
12.339982032775879,-4.39,0.27,-0.44,4.42
12.341001033782959,-4.21,0.34,-0.29,4.23
12.36253809928894,-3.83,0.3,-0.33,3.85
12.363954067230225,-3.43,0.36,-0.39,3.47
12.378530025482178,-3.02,0.46,-0.37,3.07
12.379979133605957,-2.9,0.33,-0.46,2.95
12.39391016960144,-3.09,0.44,-0.1,3.12
12.395357131958008,-2.74,0.9,0.52,2.93
12.410300254821777,-1.61,1.1,0.65,2.05
12.440948963165283,-0.28,1.2,0.36,1.28
12.442313194274902,0.34,1.13,0.01,1.18
12.443315982818604,-0.24,1.07,0.06,1.09
12.462286949157715,-1.02,1.32,0.47,1.73
12.463711261749268,-1.13,1.39,0.81,1.96
12.47874116897583,-0.69,1.35,0.99,1.81
12.480165958404541,-0.48,1.17,1.14,1.7
12.494064092636108,-0.84,0.94,1.4,1.88
12.495545148849487,-1.17,0.86,1.72,2.25
12.510287284851074,-1.01,0.69,1.95,2.3
12.540694236755371,-0.55,0.37,2.0,2.1
12.542013168334961,-0.15,0.13,1.9,1.91
12.543024063110352,0.05,-0.01,1.78,1.78
12.562364101409912,0.07,-0.14,1.64,1.64
12.563836097717285,0.08,-0.13,1.51,1.51
12.57873821258545,0.23,-0.1,1.47,1.49
12.580213069915771,0.62,-0.16,1.41,1.54
12.594011068344116,1.2,-0.23,1.34,1.81
12.595492124557495,1.81,-0.36,1.33,2.27
12.610288143157959,2.34,-0.53,1.35,2.75
12.640251159667969,2.92,-0.51,1.32,3.24
12.641663074493408,3.72,-0.59,1.36,4.0
12.642770051956177,4.56,-0.7,1.46,4.83
12.661893129348755,5.25,-0.54,1.46,5.47
12.662878036499023,5.78,-0.17,1.29,5.92
12.678794145584106,6.16,0.31,1.31,6.3
12.680231094360352,5.0,3.37,1.15,6.13
12.694131135940552,5.94,3.81,1.84,7.29
12.695586204528809,10.18,2.71,4.3,11.37
12.710503101348877,11.8,0.7,6.14,13.32
12.741079092025757,10.92,-0.53,4.73,11.91
12.742413997650146,8.48,0.42,4.13,9.44
12.743430137634277,9.82,-0.36,4.11,10.65
12.762032985687256,11.07,-1.68,4.16,11.94
12.763091087341309,10.48,-1.22,3.67,11.17
12.778895139694214,9.74,-0.82,5.89,11.41
12.780400276184082,6.97,-2.84,7.09,10.33
12.793909072875977,2.42,-3.07,4.48,5.94
12.795331954956055,0.13,-1.39,0.67,1.54
12.810509204864502,-0.95,1.15,-1.92,2.43
12.839000225067139,-2.72,4.3,-2.03,5.47
12.840456008911133,-3.75,6.14,0.38,7.2
12.841514110565186,-2.15,1.73,2.67,3.83
12.862385272979736,-0.11,-1.56,2.77,3.18
12.86340618133545,0.61,-0.69,0.69,1.15
12.879025936126709,0.51,-0.01,-1.93,1.99
12.880475997924805,0.65,-0.14,-2.16,2.26
12.894203186035156,1.0,-0.29,-0.61,1.2
12.895676136016846,0.87,-0.11,0.49,1.0
12.91040325164795,0.59,0.01,0.54,0.79
12.94122314453125,0.75,-0.01,0.27,0.79
12.942448139190674,0.69,0.08,0.22,0.72
12.943520069122314,0.32,0.24,0.32,0.51
12.962255001068115,-0.13,0.22,0.59,0.64
12.963312149047852,-0.4,0.13,0.89,0.98
12.978991985321045,-0.61,0.08,0.76,0.97
12.980477094650269,-0.73,0.13,0.19,0.76
12.994203090667725,-0.27,0.12,-0.48,0.56
12.995655059814453,0.34,0.07,-0.66,0.74
13.010540008544922,0.67,0.16,-0.61,0.92
13.03895902633667,0.68,0.18,-0.4,0.8
13.040359020233154,0.53,0.06,-0.38,0.65
13.04135799407959,0.32,0.05,-0.51,0.6
13.043787002563477,0.04,0.24,-0.44,0.5
13.04525899887085,-0.32,0.29,-0.22,0.48
13.05063509941101,-0.51,0.16,-0.07,0.53
13.060665130615234,-0.33,0.11,0.1,0.36
13.070616245269775,-0.12,0.13,0.1,0.2
13.0804762840271,-0.02,0.14,-0.14,0.19
13.090764045715332,-0.04,0.15,-0.27,0.31
13.100651264190674,-0.21,0.09,-0.33,0.4
13.130712985992432,-0.48,0.11,-0.15,0.51
13.132007122039795,-0.7,0.18,0.05,0.72
13.133068084716797,-0.57,0.1,0.03,0.57
13.146242141723633,-0.07,0.03,0.13,0.15
13.149802207946777,0.05,0.0,-0.08,0.09
13.161464214324951,-0.12,0.04,-0.48,0.49
13.169929027557373,-0.3,0.02,-0.53,0.6
13.179875135421753,-0.56,-0.03,-0.4,0.68
13.18987512588501,-0.74,-0.07,-0.19,0.76
13.199666976928711,-0.8,0.03,-0.06,0.8
13.230767250061035,-0.82,0.34,-0.06,0.88
13.23208212852478,-0.61,0.4,-0.23,0.76
13.233094215393066,-0.18,0.18,0.02,0.25
13.246490955352783,0.49,-0.13,0.36,0.62
13.249051094055176,1.35,-0.36,0.54,1.49
13.26164722442627,1.58,-0.4,0.57,1.72
13.269468069076538,1.18,-0.27,0.35,1.26
13.279022216796875,0.67,0.0,0.32,0.74
13.289000988006592,0.28,0.26,0.35,0.51
13.298968076705933,0.09,0.31,0.17,0.36
13.33080506324768,0.13,0.27,-0.11,0.31
13.332115173339844,0.09,0.16,-0.27,0.32
13.333124160766602,-0.12,0.15,-0.43,0.47
13.346229076385498,-0.41,0.26,-0.39,0.62
13.348299026489258,-0.73,0.39,-0.33,0.89
13.361632108688354,-1.05,0.46,-0.36,1.2
13.368265151977539,-1.13,0.42,-0.36,1.25
13.378257274627686,-1.16,0.22,-0.41,1.24
13.388261079788208,-1.32,0.13,-0.63,1.46
13.398352146148682,-1.22,0.17,-0.72,1.42
13.430127143859863,-0.97,0.16,-0.57,1.13
13.43140697479248,-0.87,0.06,-0.38,0.95
13.43241024017334,-0.99,-0.01,-0.19,1.0
13.446205139160156,-1.07,-0.03,-0.2,1.08
13.44760799407959,-1.02,-0.07,-0.38,1.09
13.460170269012451,-0.4,0.01,-0.46,0.6
13.467706203460693,0.08,-0.04,-0.15,0.17
13.47785210609436,0.27,-0.02,-0.31,0.41
13.487693071365356,0.25,0.03,-0.48,0.54
13.497442245483398,0.05,-0.01,-0.52,0.52
13.535374164581299,0.01,-0.09,-0.51,0.51
13.536671161651611,-0.05,-0.21,-0.44,0.49
13.537719249725342,-0.3,-0.36,-0.48,0.67
13.543118000030518,-0.64,-0.11,-0.79,1.02
13.562076091766357,-1.06,0.47,-1.13,1.61
13.563124179840088,-1.22,0.69,-1.11,1.78
13.577762126922607,-1.13,0.59,-0.65,1.43
13.579233169555664,-1.18,0.34,-0.2,1.24
13.594083070755005,-0.71,0.28,0.2,0.78
13.596768140792847,0.02,0.11,0.59,0.6
13.639511108398438,0.81,-0.27,0.62,1.05
13.640668153762817,1.38,-0.32,0.39,1.46
13.641658067703247,1.38,-0.04,-0.04,1.38
13.662848949432373,0.63,0.5,-0.46,0.92
13.663870096206665,-0.02,0.91,-0.88,1.26
13.678897142410278,-0.23,1.06,-0.91,1.41
13.680361270904541,-0.02,1.99,-0.84,2.16
13.694631099700928,0.46,2.67,-0.83,2.83
13.696133136749268,0.69,2.18,-0.25,2.3
13.710957050323486,0.25,2.24,-0.6,2.33
13.740746974945068,0.38,2.55,-0.63,2.65
13.742134094238281,0.66,2.1,-0.23,2.21
13.743175029754639,0.81,1.53,0.05,1.73
13.762667179107666,0.92,1.25,0.51,1.63
13.763707160949707,0.58,1.31,1.13,1.82
13.779077053070068,0.08,1.66,1.68,2.36
13.780535221099854,-0.38,2.19,1.96,2.96
13.794512271881104,-1.08,2.81,1.8,3.5
13.795977115631104,-1.61,3.17,1.38,3.81
13.810877084732056,-1.73,3.09,0.87,3.64
13.841959953308105,-1.84,2.83,0.22,3.38
13.843224048614502,-1.75,2.52,-0.43,3.09
13.844243049621582,-1.47,2.09,-1.03,2.75
13.862713098526001,-0.92,1.57,-1.34,2.25
13.86377215385437,-0.42,1.32,-1.94,2.38
13.87926721572876,0.08,1.05,-2.34,2.56
13.880741119384766,0.55,0.29,-2.45,2.52
13.894639015197754,1.42,0.1,-2.58,2.94
13.896044254302979,1.84,0.69,-2.58,3.24
13.910927057266235,2.6,2.36,-2.15,4.11
13.912326097488403,4.15,4.3,-2.02,6.3
13.958570957183838,2.95,2.56,-3.2,5.04
13.959780216217041,0.49,-0.29,-3.63,3.67
13.960780143737793,-1.3,-2.15,-3.66,4.43
13.97999620437622,-3.21,-4.25,-4.19,6.77
13.981446266174316,-4.84,-5.91,-4.28,8.75
13.995820999145508,-3.33,-4.29,-3.29,6.34
13.997281074523926,-4.05,-2.55,-3.19,5.75
14.011552095413208,-6.62,-1.78,-3.87,7.87
14.013010025024414,-8.29,-1.31,-3.84,9.22
14.027744054794312,-7.73,-0.94,-2.8,8.27
14.057757139205933,-6.08,-0.75,-1.95,6.42
14.059182167053223,-4.84,-0.68,-1.57,5.13
14.060183048248291,-4.34,-0.48,-1.45,4.6
14.0798020362854,-4.35,-0.05,-1.61,4.63
14.080801010131836,-4.46,0.68,-1.59,4.78
14.096175193786621,-4.25,1.09,-1.06,4.51
14.097660064697266,-3.78,0.97,-0.47,3.93
14.111685276031494,-3.33,0.86,-0.27,3.44
14.113152027130127,-2.99,0.92,-0.46,3.16
14.127607107162476,-2.64,0.94,-0.65,2.87
14.15649700164795,-2.2,0.72,-0.58,2.38
14.157848119735718,-1.75,0.39,-0.5,1.86
14.158841133117676,-1.3,0.28,-0.45,1.4
14.179797172546387,-0.87,0.55,-0.23,1.05
14.180808067321777,-0.5,0.74,-0.04,0.89
14.19595718383789,-0.31,0.57,0.16,0.66
14.19734525680542,-0.36,0.31,0.45,0.65
14.211984157562256,-0.49,0.32,0.71,0.92
14.213459014892578,-0.41,0.55,1.06,1.26
14.22777795791626,-0.32,0.69,1.32,1.52
14.256484985351562,-0.48,0.78,1.46,1.72
14.257879257202148,-0.72,0.83,1.61,1.94
14.25886607170105,-0.69,0.81,1.68,1.98
14.27983808517456,-0.28,0.69,1.63,1.79
14.280876159667969,0.06,0.58,1.63,1.73
14.295966148376465,-0.03,0.54,1.69,1.77
14.297389030456543,-0.18,0.5,1.78,1.85
14.311699151992798,0.03,0.35,2.09,2.11
14.313194274902344,0.41,0.06,2.21,2.24
14.327584266662598,0.67,-0.16,2.08,2.19
14.355800151824951,0.8,-0.18,1.92,2.08
14.357151985168457,1.08,-0.11,1.92,2.2
14.3580641746521,1.43,-0.15,1.91,2.39
14.36018419265747,1.8,-0.23,1.75,2.52
14.361592054367065,2.47,-0.27,1.62,2.96
14.362953186035156,3.45,-0.5,1.38,3.74
14.37073802947998,4.34,-0.6,1.14,4.52
14.380756139755249,4.88,-0.46,1.07,5.01
14.390814065933228,5.23,-0.21,1.18,5.36
14.401109218597412,5.47,0.07,1.27,5.61
14.43566608428955,5.67,0.29,1.38,5.84
14.436865091323853,5.83,0.38,1.6,6.05
14.437662124633789,4.77,2.38,1.67,5.58
14.445609092712402,5.46,2.19,1.88,6.17
14.45015001296997,8.15,0.98,2.75,8.65
14.461880207061768,8.66,0.68,3.89,9.51
14.470080137252808,8.3,-0.21,3.67,9.07
14.479802131652832,8.25,-0.68,3.07,8.82
14.489670276641846,8.53,-1.18,2.73,9.03
14.500002145767212,7.76,-1.03,2.42,8.19
14.53604793548584,6.72,-0.96,2.69,7.3
14.537321090698242,6.27,-1.28,3.36,7.22
14.538355112075806,4.58,-1.79,3.93,6.29
14.542822122573853,0.6,-1.75,4.2,4.58
14.56249213218689,-1.32,-0.66,4.66,4.88
14.563535213470459,-1.29,0.2,4.49,4.67
14.577967166900635,-1.27,1.33,3.12,3.62
14.579023122787476,-1.71,2.24,0.62,2.88
14.594527244567871,-1.96,2.49,-1.06,3.34
14.599379062652588,-0.92,1.73,-0.66,2.06
14.637975215911865,0.24,0.28,0.62,0.72
14.639142036437988,0.43,-0.24,0.89,1.01
14.64038610458374,0.39,-0.22,0.27,0.52
14.64240026473999,0.77,-0.22,-0.07,0.8
14.662338256835938,1.43,-0.5,0.11,1.51
14.663373947143555,1.64,-0.74,0.2,1.81
14.678108215332031,1.35,-0.68,0.22,1.52
14.679151058197021,1.0,-0.41,0.53,1.2
14.694478034973145,0.43,-0.13,0.85,0.96
14.698598146438599,-0.1,0.04,0.85,0.85
14.711202144622803,-0.32,0.21,0.52,0.64
14.740242958068848,-0.45,0.3,-0.03,0.54
14.741757154464722,-0.43,0.39,-0.64,0.86
14.742778062820435,-0.42,0.34,-0.51,0.74
14.763290166854858,-0.26,0.24,0.08,0.36
14.764345169067383,-0.15,0.07,0.28,0.32
14.779473066329956,0.09,0.18,-0.04,0.2
14.78051209449768,0.19,0.2,-0.31,0.41
14.795071125030518,0.27,0.35,-0.34,0.55
14.797894954681396,0.06,0.39,-0.12,0.41
14.811352252960205,-0.36,0.39,0.07,0.53
14.840379238128662,-0.39,0.23,-0.03,0.45
14.84165906906128,-0.13,0.22,-0.41,0.48
14.842638969421387,0.03,0.3,-0.89,0.93
14.863249063491821,-0.08,0.34,-1.16,1.21
14.86424207687378,-0.08,0.31,-1.05,1.09
14.879626274108887,-0.02,0.2,-0.87,0.89
14.881108283996582,-0.12,0.11,-0.67,0.68
14.895222187042236,-0.14,0.02,-0.3,0.33
14.896767139434814,0.08,-0.12,0.21,0.25
14.911473274230957,0.31,-0.14,0.59,0.68
14.940615177154541,0.28,-0.06,0.5,0.57
14.942082166671753,0.11,-0.01,0.24,0.26
14.943065166473389,-0.09,0.02,0.06,0.11
14.96324610710144,-0.25,0.06,0.02,0.25
14.964327096939087,-0.18,0.03,0.16,0.24
14.979803085327148,0.05,0.04,0.15,0.16
14.981227159500122,0.15,0.04,0.01,0.15
14.995141983032227,0.28,-0.02,0.0,0.28
14.996614933013916,0.26,-0.04,0.15,0.3
15.011528968811035,0.08,-0.02,0.3,0.31
15.039875030517578,-0.04,0.0,0.42,0.42
15.041255950927734,-0.17,0.05,0.4,0.43
15.04224705696106,-0.32,0.01,0.29,0.43
15.063233137130737,-0.35,0.05,0.21,0.41
15.064265251159668,-0.26,0.14,0.04,0.29
15.079647064208984,-0.1,0.19,-0.23,0.31
15.08112907409668,0.02,0.1,-0.42,0.43
15.095234155654907,-0.16,-0.05,-0.7,0.71
15.096672058105469,-0.51,0.04,-0.88,1.01
15.111635208129883,-0.54,0.2,-0.55,0.79
15.143169164657593,-0.35,0.34,-0.24,0.54
15.144575119018555,0.03,0.38,-0.12,0.39
15.145610094070435,0.08,0.24,-0.29,0.38
15.163825035095215,-0.07,0.04,-0.34,0.34
15.164833068847656,-0.15,0.01,-0.25,0.29
15.17979907989502,-0.2,0.15,-0.26,0.36
15.181293964385986,-0.35,0.25,-0.46,0.62
15.195249080657959,-0.64,0.21,-0.68,0.95
15.196767091751099,-0.98,0.2,-0.65,1.19
15.211555004119873,-1.15,0.26,-0.49,1.27
15.24203109741211,-1.18,0.31,-0.51,1.32
15.243492126464844,-1.21,0.15,-0.74,1.42
15.244421005249023,-1.22,0.06,-0.74,1.42
15.263144969940186,-1.0,0.1,-0.41,1.08
15.264153003692627,-1.07,0.04,-0.3,1.11
15.279762268066406,-1.48,-0.06,-0.59,1.59
15.281235218048096,-1.95,0.17,-1.02,2.2
15.29515027999878,-1.85,0.53,-1.08,2.2
15.296480178833008,-1.29,0.66,-0.5,1.53
15.311429977416992,-0.85,0.78,-0.51,1.26
15.342050075531006,-0.45,0.68,-1.19,1.44
15.343399047851562,0.0,0.35,-1.06,1.11
15.344415187835693,0.16,-0.17,-0.64,0.68
15.36319613456726,0.12,-0.44,-0.55,0.71
15.36422610282898,0.24,-0.14,-0.29,0.4
15.380325078964233,0.45,0.07,-0.06,0.45
15.38181209564209,0.42,0.2,-0.25,0.52
15.395439147949219,0.51,0.36,-0.17,0.64
15.396929264068604,0.46,0.64,-0.06,0.79
15.411899089813232,-0.1,0.9,-0.07,0.9
15.442193984985352,-0.28,1.28,0.2,1.32
15.443504095077515,0.32,2.03,1.09,2.32
15.444534063339233,0.63,1.76,1.02,2.12
15.463573932647705,1.26,1.87,1.26,2.58
15.465026140213013,1.23,1.6,1.26,2.37
15.479989051818848,0.65,1.79,0.79,2.06
15.481488227844238,0.12,2.27,0.44,2.31
15.495325088500977,-0.13,2.14,0.32,2.16
15.496756076812744,-0.03,1.91,0.14,1.91
15.511662006378174,-0.65,2.03,0.16,2.13
15.513131141662598,-1.37,2.12,0.41,2.55
15.562737941741943,-1.32,2.4,0.6,2.8
15.563905239105225,-1.39,3.0,0.12,3.3
15.564892053604126,-1.65,3.36,-0.32,3.75
15.580674171447754,-1.73,3.21,-0.6,3.69
15.58171010017395,-1.62,2.74,-0.98,3.33
15.596537113189697,-1.33,2.27,-1.14,2.86
15.597997188568115,-1.19,1.8,-1.16,2.44
15.612236022949219,-1.27,1.33,-1.35,2.28
15.61371111869812,-1.15,0.83,-1.34,1.95
15.628077983856201,-0.73,0.59,-1.39,1.67
15.657884120941162,0.08,0.22,-1.65,1.66
15.65921401977539,1.23,-0.71,-1.79,2.28
15.660282135009766,1.7,-0.05,-1.68,2.39
15.680169105529785,2.02,1.99,-1.41,3.16
15.681249141693115,2.9,4.18,-0.91,5.16
15.69660997390747,2.2,4.01,-1.18,4.72
15.698084115982056,0.27,1.81,-2.15,2.82
15.712135076522827,-1.01,0.66,-2.59,2.85
15.71358609199524,-1.29,0.3,-2.73,3.03
15.728214263916016,-1.28,-0.86,-3.1,3.46
15.75632905960083,-2.32,-3.31,-3.46,5.32
15.757703065872192,-4.44,-5.33,-3.05,7.57
15.758665084838867,-4.13,-2.63,-1.91,5.25
15.761016130447388,-5.07,-1.44,-2.45,5.81
15.762393951416016,-7.24,-2.14,-4.01,8.54
15.770368099212646,-8.64,-1.85,-4.72,10.01
15.780205249786377,-8.05,-1.43,-4.54,9.35
15.790335178375244,-5.57,-1.52,-4.02,7.03
15.800321102142334,-3.44,-1.94,-3.61,5.35
15.810325145721436,-2.6,-1.93,-3.49,4.76
15.840996265411377,-2.41,-1.05,-3.59,4.44
15.842164039611816,-2.33,0.23,-3.49,4.2
15.843132972717285,-2.04,1.11,-3.06,3.84
15.863609075546265,-1.85,1.26,-2.56,3.4
15.864640235900879,-2.09,1.08,-2.22,3.23
15.879907131195068,-2.64,1.16,-1.78,3.38
15.880928993225098,-3.07,1.48,-1.17,3.6
15.895738124847412,-2.91,1.85,-0.44,3.47
15.899254083633423,-2.3,1.84,0.25,2.95
15.911870956420898,-1.7,1.27,0.65,2.21
15.945625066757202,-1.44,0.55,0.85,1.76
15.946912288665771,-1.42,0.05,1.05,1.76
15.947816133499146,-1.2,-0.28,1.19,1.71
15.948952198028564,-0.71,-0.54,1.23,1.51
15.959026098251343,-0.29,-0.41,1.07,1.18
15.968921184539795,-0.27,-0.16,1.2,1.24
15.978763103485107,-0.96,-0.16,1.81,2.05
15.988959074020386,-1.88,-0.07,2.56,3.17
15.99886417388916,-2.34,0.49,3.45,4.19
16.008910179138184,-2.05,1.26,4.18,4.82
16.04487705230713,-1.57,1.46,4.37,4.86
16.04605507850647,-1.51,1.54,4.2,4.72
16.047091007232666,-1.54,1.61,3.89,4.48
16.064195156097412,-1.3,1.6,3.6,4.14
16.065242052078247,-0.58,1.43,3.44,3.77
16.07981014251709,0.32,1.21,3.2,3.43
16.08085823059082,1.22,1.26,2.97,3.44
16.095623016357422,1.41,0.98,2.45,2.99
16.09784507751465,1.0,1.29,2.36,2.86
16.11189603805542,1.63,0.98,2.54,3.17
16.142372131347656,2.85,0.57,2.11,3.59
16.143635272979736,3.53,0.4,1.41,3.82
16.144622087478638,3.82,0.27,1.1,3.98
16.16381311416626,4.35,0.02,0.91,4.44
16.16484808921814,5.01,-0.08,0.7,5.05
16.18026828765869,5.75,0.09,0.62,5.78
16.18169593811035,6.55,0.18,0.65,6.58
16.19563913345337,6.4,1.5,0.66,6.6
16.197233200073242,6.23,1.48,0.72,6.44
16.212261199951172,7.7,-0.19,1.44,7.83
16.24471116065979,7.99,-0.06,2.62,8.4
16.24599814414978,7.6,-0.73,2.55,8.04
16.246982097625732,7.06,-1.29,2.08,7.47
16.263843059539795,6.27,-1.16,1.94,6.66
16.264950275421143,5.73,-1.27,1.88,6.16
16.28025507926941,5.09,-1.32,2.0,5.62
16.2817440032959,4.33,-1.44,2.27,5.09
16.29555106163025,5.18,-0.91,2.52,5.83
16.29697322845459,8.54,-1.7,2.98,9.2
16.312052249908447,10.4,-1.34,3.58,11.08
16.316195964813232,8.26,-1.37,3.61,9.11
16.3557231426239,2.64,-1.84,4.2,5.29
16.35688018798828,-1.12,-1.53,3.62,4.08
16.35822606086731,-2.51,0.54,2.6,3.65
16.361205101013184,-3.1,3.19,0.89,4.53
16.36573028564453,-4.34,5.06,-0.92,6.72
16.375842094421387,-4.37,4.64,-0.99,6.45
16.385783195495605,-1.55,0.34,0.82,1.78
16.39585304260254,1.24,-1.49,2.53,3.18
16.405734062194824,2.38,-0.86,2.04,3.25
16.41570210456848,2.12,-0.31,0.09,2.14
16.44642210006714,1.4,-0.34,-1.41,2.01
16.448045253753662,0.86,-0.23,-1.71,1.92
16.449038982391357,0.56,0.05,-1.09,1.22
16.46407413482666,0.24,0.11,-0.34,0.43
16.465126037597656,-0.22,0.13,0.18,0.31
16.48050022125244,-0.72,0.19,0.52,0.9
16.48514699935913,-1.22,0.3,0.57,1.37
16.49569320678711,-1.23,0.39,0.51,1.38
16.5050311088562,-0.75,0.22,0.51,0.93
16.5146701335907,-0.54,0.0,0.18,0.56
16.54625916481018,-0.12,0.0,0.12,0.16
16.547510147094727,0.66,0.04,0.23,0.7
16.548542022705078,1.3,0.14,-0.11,1.31
16.564178943634033,1.43,0.24,-0.53,1.54
16.565226078033447,1.23,0.17,-0.66,1.4
16.580669164657593,1.0,0.05,-0.56,1.14
16.584395170211792,0.7,0.04,-0.37,0.79
16.595869064331055,0.32,0.15,-0.21,0.41
16.604286193847656,0.07,0.14,-0.17,0.23
16.61395025253296,0.19,0.03,-0.13,0.23
16.644962072372437,0.4,0.05,-0.09,0.41
16.6463041305542,0.39,0.05,-0.14,0.41
16.64715003967285,0.2,0.01,-0.06,0.2
16.664250135421753,0.06,0.01,0.12,0.13
16.6651930809021,-0.03,0.01,0.23,0.23
16.68048405647278,-0.11,-0.06,0.39,0.4
16.683451175689697,-0.05,-0.12,0.49,0.5
16.69503116607666,-0.03,-0.1,0.37,0.38
16.703475952148438,-0.24,-0.01,0.23,0.33
16.713252067565918,-0.54,0.12,0.03,0.55
16.751437187194824,-0.77,0.23,-0.2,0.82
16.75287103652954,-0.85,0.25,-0.05,0.88
16.753839015960693,-0.85,0.23,-0.12,0.88
16.76413106918335,-0.83,0.16,-0.43,0.94
16.76514506340027,-0.74,0.25,-0.65,1.01
16.780543088912964,-0.63,0.29,-0.77,1.03
16.7826931476593,-0.73,0.23,-0.81,1.11
16.795550107955933,-1.03,0.19,-0.69,1.25
16.80298900604248,-1.21,0.25,-0.48,1.32
16.812576055526733,-1.24,0.18,-0.08,1.25
16.850173950195312,-0.93,0.09,0.4,1.01
16.851548194885254,-0.28,0.04,0.51,0.58
16.85261297225952,0.1,0.0,0.26,0.27
16.864309072494507,0.45,-0.08,0.07,0.46
16.865371227264404,0.96,-0.14,0.15,0.98
16.880568981170654,1.09,-0.14,0.06,1.1
16.881968021392822,0.71,-0.17,0.02,0.73
16.895832061767578,0.04,-0.12,0.39,0.41
16.90201711654663,-0.27,0.09,0.65,0.7
16.912446975708008,-0.33,0.22,0.53,0.66
16.95138716697693,-0.35,0.2,0.23,0.46
16.95296311378479,-0.34,0.18,-0.17,0.42
16.954008102416992,-0.32,0.21,-0.62,0.72
16.96419405937195,-0.34,0.17,-0.91,0.98
16.9655442237854,-0.49,0.11,-0.75,0.9
16.980688095092773,-0.68,0.16,-0.36,0.78
16.9822039604187,-0.88,0.25,-0.33,0.97
16.995917081832886,-1.02,0.34,-0.5,1.18
17.001310110092163,-0.81,0.42,-0.6,1.09
17.012351989746094,-0.64,0.47,-0.76,1.09
17.04981517791748,-0.42,0.43,-0.96,1.13
17.05107593536377,-0.3,0.45,-1.09,1.21
17.052072048187256,-0.47,0.59,-1.26,1.46
17.064321994781494,-0.69,0.69,-1.45,1.74
17.065389156341553,-0.83,0.75,-1.71,2.04
17.080807209014893,-0.82,0.66,-1.97,2.23
17.08226728439331,-0.48,0.39,-1.75,1.85
17.095917224884033,-0.08,0.19,-0.75,0.77
17.10042095184326,0.02,-0.13,0.02,0.13
17.112337112426758,-0.38,-0.12,0.4,0.56
17.12044405937195,-0.78,0.03,0.77,1.09
17.15783715248108,-0.67,0.42,0.95,1.23
17.158985137939453,0.02,0.62,0.99,1.16
17.159925937652588,0.46,0.57,0.99,1.23
17.181445121765137,0.52,0.34,0.61,0.87
17.182903051376343,0.56,0.08,0.33,0.65
17.197168111801147,0.54,-0.31,0.42,0.75
17.198644161224365,0.62,-0.67,0.57,1.07
17.212924003601074,1.07,-0.95,0.78,1.62
17.214372158050537,1.63,-0.9,0.96,2.09
17.229448080062866,1.37,-0.43,0.63,1.56
17.260512113571167,0.89,0.32,0.49,1.06
17.261884212493896,0.74,1.01,0.29,1.28
17.262952089309692,0.31,1.16,0.02,1.2
17.281212091445923,-0.07,1.24,-0.06,1.24
17.28266716003418,-0.25,1.41,-0.16,1.44
17.297152996063232,-0.12,1.36,-0.08,1.36
17.298584938049316,-0.12,1.31,0.0,1.31
17.312840938568115,-0.23,1.28,0.09,1.3
17.314270973205566,-0.29,1.47,0.31,1.53
17.32854914665222,-0.36,1.81,0.66,1.95
17.35693597793579,-0.05,2.17,0.93,2.36
17.358253002166748,0.21,2.0,1.11,2.29
17.359212160110474,-0.17,1.6,1.1,1.94
17.361286163330078,-0.57,1.33,0.94,1.72
17.36810827255249,-0.8,1.24,0.91,1.73
17.378310203552246,-0.96,1.29,0.59,1.71
17.388402938842773,-1.14,1.62,0.03,1.98
17.398293018341064,-1.35,1.68,-0.24,2.16
17.408120155334473,-1.46,1.3,-0.48,2.01
17.41816997528076,-1.52,1.15,-0.74,2.04
17.449526071548462,-1.53,0.92,-0.97,2.03
17.450802087783813,-1.21,0.72,-1.2,1.85
17.451777935028076,-0.29,1.09,-1.35,1.75
17.464637279510498,0.48,2.23,-1.16,2.55
17.467347145080566,1.21,2.77,-1.2,3.25
17.480873107910156,2.57,2.94,-0.61,3.95
17.48760414123535,2.94,3.21,-0.25,4.36
17.497323036193848,1.2,1.73,-1.13,2.38
17.507416248321533,-0.6,0.32,-2.11,2.21
17.517303943634033,-1.87,-0.48,-2.73,3.34
17.554052114486694,-2.92,-1.4,-3.34,4.65
17.555291175842285,-4.25,-2.36,-3.92,6.24
17.556373119354248,-5.72,-1.94,-3.91,7.19
17.560972213745117,-4.96,-0.36,-3.0,5.8
17.581005096435547,-4.04,-0.63,-3.07,5.11
17.582047939300537,-4.99,-0.82,-3.8,6.32
17.596222162246704,-5.93,-0.81,-4.16,7.28
17.597727060317993,-5.74,-0.85,-3.82,6.94
17.61248207092285,-4.93,-1.02,-3.39,6.06
17.61650323867798,-4.3,-1.06,-3.13,5.42
17.655463218688965,-4.08,-0.81,-3.02,5.14
17.656671047210693,-4.13,-0.3,-2.97,5.09
17.657917976379395,-4.17,0.21,-2.76,5.0
17.660401105880737,-4.16,0.41,-2.36,4.8
17.680840015411377,-4.04,0.45,-1.9,4.48
17.681910037994385,-3.8,0.62,-1.5,4.13
17.69618511199951,-3.58,0.87,-1.28,3.9
17.697702169418335,-3.32,1.06,-1.23,3.69
17.71256923675537,-3.0,1.11,-1.22,3.42
17.715771198272705,-2.74,1.19,-1.07,3.17
17.755805015563965,-2.33,1.21,-0.79,2.74
17.7570321559906,-1.77,1.13,-0.56,2.17
17.758251190185547,-1.41,1.1,-0.37,1.82
17.76076602935791,-1.23,1.32,-0.23,1.81
17.78097105026245,-1.06,1.43,0.0,1.78
17.78240394592285,-0.79,1.46,0.44,1.71
17.796305179595947,-0.24,1.24,0.69,1.43
17.797779083251953,0.23,0.96,0.64,1.17
17.81268811225891,0.51,0.91,0.78,1.3
17.81498098373413,0.85,0.81,1.15,1.64
17.856179237365723,1.06,0.6,1.63,2.03
17.85736608505249,0.95,0.27,2.11,2.32
17.85848903656006,0.69,0.03,2.54,2.63
17.860886096954346,0.77,0.04,2.89,2.99
17.86448097229004,1.25,0.03,3.1,3.34
17.87441110610962,1.82,-0.01,3.18,3.66
17.884573936462402,2.21,-0.09,3.05,3.76
17.894525051116943,2.37,-0.04,2.87,3.72
17.904431104660034,2.29,0.06,2.8,3.61
17.91440510749817,2.09,0.09,2.76,3.46
17.92418098449707,2.16,0.1,2.84,3.56
17.955585956573486,2.58,0.0,2.87,3.85
17.956706047058105,3.16,-0.06,2.66,4.13
17.958022117614746,3.66,0.01,2.42,4.38
17.96362614631653,4.1,-0.01,2.07,4.59
17.980974197387695,4.5,0.01,1.66,4.79
17.98345708847046,4.53,1.34,1.18,4.86
17.99626922607422,4.72,3.11,0.76,5.7
18.00382900238037,7.81,1.52,1.21,8.04
18.013517141342163,10.29,0.84,2.57,10.63
18.023672103881836,10.33,0.29,2.82,10.71
18.053707122802734,9.41,-0.46,1.94,9.61
18.05488109588623,9.58,-0.48,1.68,9.73
18.056087017059326,9.84,-1.09,1.55,10.02
18.062884092330933,8.07,-0.88,1.39,8.23
18.07294797897339,6.4,-0.72,1.75,6.67
18.08276128768921,6.28,-0.84,2.01,6.64
18.09301996231079,6.43,-1.57,2.29,7.0
18.102760076522827,3.78,-2.49,2.2,5.03
18.112866163253784,0.18,-1.93,2.24,2.96
18.12276005744934,-1.39,-1.8,2.51,3.38
18.15439009666443,-1.11,-1.9,2.97,3.69
18.155753135681152,-0.71,-0.17,3.61,3.68
18.156752109527588,-0.53,2.27,4.04,4.66
18.162117958068848,-0.86,2.68,3.78,4.71
18.172215938568115,-1.5,1.61,2.53,3.35
18.182098150253296,-1.34,0.88,1.14,1.96
18.192310094833374,-0.5,0.44,0.3,0.73
18.202028274536133,0.44,0.13,-0.02,0.45
18.212483167648315,1.04,-0.02,-0.05,1.04
18.22194004058838,1.05,0.02,0.24,1.07
18.253547191619873,0.97,-0.19,0.48,1.09
18.254844188690186,0.75,-0.64,-0.39,1.06
18.255831241607666,0.26,-0.51,-1.33,1.44
18.26237416267395,0.09,-0.31,-1.0,1.05
18.271459102630615,0.42,0.11,-0.16,0.46
18.281291961669922,0.32,0.15,-0.15,0.38
18.291521072387695,-0.04,0.26,-0.57,0.62
18.301284074783325,-0.52,0.34,-0.37,0.72
18.311588287353516,-0.43,0.45,0.1,0.63
18.321290969848633,-0.17,0.4,0.25,0.5
18.357327938079834,-0.15,0.29,0.02,0.32
18.358726024627686,-0.27,0.24,-0.08,0.37
18.359713077545166,-0.17,0.22,-0.24,0.36
18.361873149871826,0.1,0.27,-0.47,0.55
18.37074327468872,0.46,0.16,-0.62,0.78
18.380571126937866,0.56,0.23,-0.66,0.89
18.39075517654419,0.48,0.22,-0.62,0.81
18.40062427520752,0.38,0.14,-0.51,0.65
18.410762071609497,0.35,0.13,-0.32,0.49
18.420627117156982,0.37,0.05,-0.02,0.37
18.457781076431274,0.36,0.01,0.1,0.37
18.45898413658142,0.34,-0.02,0.18,0.38
18.459991931915283,0.39,-0.05,0.29,0.48
18.46215510368347,0.39,-0.02,0.41,0.56
18.469613075256348,0.31,-0.04,0.34,0.46
18.479855060577393,0.21,-0.03,0.32,0.38
18.49015998840332,0.09,-0.02,0.25,0.26
18.500055074691772,-0.02,0.01,0.06,0.06
18.509981155395508,-0.07,0.07,-0.06,0.11
18.51980710029602,-0.03,0.0,-0.03,0.04
18.556286096572876,0.03,-0.08,0.03,0.09
18.557631015777588,-0.09,-0.05,0.05,0.11
18.558613061904907,-0.34,0.06,-0.07,0.35
18.5610671043396,-0.53,0.19,-0.25,0.61
18.569376945495605,-0.61,0.27,-0.29,0.72
18.579235076904297,-0.62,0.24,-0.17,0.68
18.58907699584961,-0.52,0.1,-0.07,0.53
18.59928607940674,-0.39,0.02,0.03,0.39
18.609172105789185,-0.42,0.03,0.2,0.46
18.61904215812683,-0.57,0.16,0.25,0.64
18.657478094100952,-0.6,0.34,0.15,0.7
18.658864974975586,-0.53,0.36,-0.07,0.64
18.65983819961548,-0.4,0.37,-0.36,0.65
18.66200613975525,-0.26,0.31,-0.36,0.54
18.66804599761963,-0.04,0.22,-0.18,0.28
18.678470134735107,-0.02,0.11,-0.2,0.22
18.688631057739258,-0.05,0.13,-0.3,0.33
18.698482036590576,-0.16,0.2,-0.27,0.37
18.708261013031006,-0.26,0.25,-0.16,0.39
18.718338012695312,-0.21,0.12,-0.06,0.24
18.728590965270996,-0.06,-0.03,-0.06,0.09
18.760865211486816,0.07,-0.18,-0.13,0.23
18.76199722290039,0.07,-0.39,-0.11,0.41
18.762953281402588,-0.13,-0.42,-0.21,0.48
18.782137155532837,-0.52,-0.33,-0.42,0.74
18.78362011909485,-0.84,-0.03,-0.6,1.03
18.797914028167725,-0.95,0.15,-0.57,1.11
18.799405097961426,-0.75,0.23,-0.33,0.85
18.81398296356201,-0.47,0.28,-0.11,0.55
18.817434072494507,-0.48,0.2,-0.22,0.56
18.82959794998169,-0.69,0.15,-0.34,0.78
18.859519958496094,-0.93,0.36,-0.58,1.15
18.861012935638428,-1.17,0.55,-1.35,1.86
18.86201810836792,-1.55,0.7,-2.06,2.67
18.882047176361084,-1.74,0.54,-2.17,2.83
18.883538246154785,-1.08,0.48,-1.15,1.64
18.897964000701904,-0.5,0.75,-0.6,1.08
18.89943504333496,0.35,0.97,-0.29,1.07
18.9138400554657,1.0,0.81,0.33,1.32
18.91685724258423,1.19,0.67,0.27,1.39
18.92963409423828,1.08,0.65,0.08,1.26
18.958624124526978,0.79,0.94,0.9,1.52
18.960068225860596,-0.34,1.57,1.34,2.09
18.961097240447998,-0.87,2.33,1.3,2.8
18.982340097427368,-0.52,2.16,0.97,2.42
18.98380422592163,-0.27,2.19,0.96,2.4
18.99810814857483,-0.67,2.09,0.75,2.31
18.999574184417725,-0.82,1.77,0.63,2.04
19.013890266418457,-0.47,1.49,0.27,1.58
19.015931129455566,-0.15,1.27,-0.31,1.31
19.029900074005127,0.28,0.66,-0.75,1.03
19.05760908126831,0.78,-0.01,-0.82,1.13
19.058910131454468,1.23,-0.48,-0.82,1.55
19.059831142425537,1.5,-0.73,-0.74,1.82
19.065669059753418,1.43,-0.88,-0.81,1.86
19.07530117034912,1.29,-0.72,-0.66,1.61
19.085432052612305,1.16,-0.19,-0.48,1.26
19.09569811820984,0.84,0.06,-0.42,0.94
19.105453968048096,0.55,0.25,-0.27,0.66
19.115363121032715,0.17,0.62,0.05,0.64
19.12519407272339,-0.26,0.91,0.25,0.97
19.161866188049316,-0.81,1.0,0.12,1.29
19.1632080078125,-1.25,1.1,0.04,1.66
19.16422128677368,-1.37,1.26,0.0,1.86
19.182469129562378,-1.48,1.46,-0.18,2.08
19.183953285217285,-1.73,1.35,-0.29,2.21
19.19797420501709,-1.75,1.23,-0.39,2.17
19.199429988861084,-1.55,1.42,-0.49,2.15
19.213828086853027,-1.28,2.2,-0.55,2.6
19.215298175811768,-1.14,2.13,-1.02,2.62
19.228528022766113,-0.6,1.35,-1.51,2.11
19.263490200042725,0.92,1.5,-1.38,2.23
19.26481294631958,2.88,2.24,-1.5,3.94
19.265810012817383,2.74,1.53,-2.33,3.9
19.28190517425537,1.37,0.58,-2.61,3.0
19.283181190490723,0.55,0.23,-2.28,2.35
19.298177242279053,-0.14,-0.06,-2.41,2.41
19.299625158309937,-1.57,-0.83,-2.74,3.26
19.31497621536255,-3.72,-2.44,-2.96,5.34
19.316447257995605,-6.09,-2.43,-2.76,7.11
19.330531120300293,-6.4,0.01,-1.81,6.65
19.359546184539795,-5.37,-0.16,-1.97,5.72
19.360891103744507,-5.46,-0.95,-2.87,6.24
19.361890077590942,-5.93,-1.16,-3.36,6.91
19.382707118988037,-5.63,-0.85,-3.32,6.59
19.38415002822876,-4.66,-0.53,-3.16,5.65
19.398282051086426,-3.77,-0.6,-2.91,4.8
19.399757146835327,-3.19,-0.62,-2.59,4.15
19.413987159729004,-2.79,-0.3,-2.2,3.56
19.41545295715332,-2.62,0.08,-1.8,3.17
19.430021286010742,-2.72,0.23,-1.53,3.12
19.460894107818604,-3.01,0.22,-1.21,3.25
19.462436199188232,-3.2,0.28,-0.82,3.31
19.46344518661499,-3.18,0.39,-0.55,3.25
19.48225498199463,-2.94,0.4,-0.43,2.99
19.483745098114014,-2.6,0.35,-0.32,2.64
19.498266220092773,-2.4,0.47,0.07,2.44
19.499728202819824,-2.16,0.69,0.73,2.38
19.513998985290527,-1.77,0.61,1.04,2.14
19.51546311378479,-1.35,0.5,1.08,1.79
19.5301251411438,-0.81,0.63,1.18,1.56
19.532514095306396,-0.32,0.81,1.17,1.45
19.577134132385254,-0.01,0.81,0.9,1.21
19.57826328277588,0.36,0.57,0.59,0.89
19.57931900024414,0.91,0.33,0.47,1.07
19.5990571975708,1.76,0.14,0.55,1.84
19.60053825378418,2.58,-0.18,0.55,2.64
19.614989280700684,2.97,-0.28,0.52,3.02
19.616480112075806,2.9,-0.11,0.61,2.96
19.63018798828125,2.46,0.14,0.78,2.58
19.631635189056396,1.98,0.33,1.0,2.24
19.646718978881836,1.61,0.63,1.43,2.24
19.67494511604309,0.96,1.0,2.11,2.52
19.676294088363647,0.14,1.21,2.66,2.92
19.677255153656006,-0.38,1.4,3.01,3.34
19.679278135299683,-0.61,1.41,3.32,3.65
19.680717945098877,-0.47,1.09,3.43,3.62
19.690848112106323,-0.17,0.8,3.29,3.39
19.701073169708252,0.0,0.67,3.04,3.11
19.711029052734375,0.35,0.5,2.75,2.81
19.720837116241455,0.87,0.33,2.48,2.64
19.73066997528076,1.42,0.15,2.23,2.64
19.760705947875977,1.93,-0.1,1.83,2.66
19.76183009147644,2.28,-0.25,1.44,2.7
19.762819051742554,2.57,-0.33,1.12,2.82
19.78175711631775,3.01,-0.44,0.83,3.15
19.78278923034668,3.53,-0.64,0.61,3.63
19.797420978546143,3.84,-0.88,0.48,3.96
19.800079107284546,3.88,-1.1,0.47,4.06
19.81407117843628,3.75,-1.33,0.54,4.01
19.81992816925049,3.35,-1.09,0.66,3.58
19.830063104629517,2.43,0.32,0.59,2.52
19.861104011535645,3.5,-0.37,0.21,3.52
19.862366199493408,4.86,-0.2,0.67,4.91
19.863399028778076,5.33,0.92,1.85,5.71
19.882214069366455,5.29,0.64,2.61,5.93
19.883281230926514,6.49,-0.01,2.46,6.94
19.89842700958252,8.3,-0.76,2.22,8.62
19.899899005889893,7.67,-0.81,1.74,7.9
19.914201259613037,5.46,-0.32,1.8,5.75
19.919209957122803,4.51,-0.79,2.43,5.18
19.93001914024353,4.45,-1.22,3.1,5.55
19.966361045837402,4.09,-0.64,3.81,5.62
19.967703104019165,3.14,0.08,4.91,5.82
19.96866011619568,1.58,0.39,5.97,6.18
19.983495235443115,-0.3,-0.44,5.22,5.24
19.984929084777832,-1.31,-1.13,2.87,3.35
19.994630098342896,-1.25,-0.61,0.49,1.47
19.998373985290527,-1.19,0.63,-1.23,1.82
20.0130672454834,-1.03,1.91,-1.37,2.56
20.018458127975464,-0.15,2.16,0.31,2.18
20.0302152633667,0.71,0.73,1.51,1.82
20.066323280334473,1.28,-0.45,1.15,1.77
20.06768798828125,1.56,-0.26,0.24,1.59
20.068716049194336,1.44,-0.14,-0.75,1.62
20.08285903930664,0.86,-0.18,-1.37,1.62
20.084227085113525,0.11,-0.19,-1.0,1.02
20.09871006011963,-0.31,-0.02,-0.14,0.34
20.100321054458618,-0.63,0.08,0.27,0.69
20.114171028137207,-0.74,-0.02,0.34,0.81
20.11767816543579,-0.47,0.02,0.49,0.67
20.129765033721924,-0.05,0.0,0.49,0.49
20.164822101593018,0.12,0.13,0.38,0.41
20.166195154190063,-0.12,0.04,0.21,0.24
20.167160034179688,-0.48,0.04,0.02,0.48
20.182473182678223,-0.91,0.29,0.36,1.02
20.183486938476562,-0.77,0.41,0.43,0.97
20.19854211807251,-0.2,0.14,0.21,0.32
20.200013160705566,0.24,0.02,0.06,0.24
20.214274168014526,0.23,0.11,-0.2,0.32
20.216901063919067,-0.02,0.19,-0.5,0.53
20.230236053466797,-0.12,0.31,-0.56,0.65
20.262925148010254,-0.01,0.31,-0.58,0.65
20.264023065567017,0.23,0.28,-0.61,0.7
20.265066146850586,0.43,0.15,-0.54,0.7
20.28278923034668,0.4,0.16,-0.51,0.66
20.28408408164978,0.4,0.13,-0.51,0.66
20.298899173736572,0.51,0.07,-0.19,0.54
20.300254106521606,0.62,0.07,0.12,0.63
20.306584119796753,0.47,0.01,0.22,0.51
20.3161301612854,0.24,0.01,0.32,0.4
20.326219081878662,0.22,-0.02,0.41,0.46
20.33600616455078,0.29,-0.07,0.34,0.45
20.36787700653076,0.28,-0.12,0.06,0.31
20.36921501159668,0.12,-0.1,-0.1,0.18
20.37019109725952,-0.08,-0.05,-0.14,0.16
20.382646083831787,-0.27,0.03,-0.17,0.32
20.38545513153076,-0.33,0.09,-0.06,0.34
20.398746013641357,-0.36,0.13,-0.01,0.38
20.405858993530273,-0.39,0.16,-0.11,0.43
20.415342092514038,-0.3,0.11,-0.15,0.35
20.425339221954346,-0.24,0.01,-0.14,0.27
20.43545627593994,-0.24,-0.08,-0.33,0.41
20.46609115600586,-0.35,-0.12,-0.46,0.59
20.4674391746521,-0.55,0.07,-0.51,0.75
20.468436241149902,-0.59,0.23,-0.41,0.75
20.482955932617188,-0.38,0.39,-0.19,0.57
20.484913110733032,-0.27,0.44,-0.22,0.56
20.498629093170166,-0.1,0.28,-0.38,0.48
20.504837036132812,0.3,0.12,-0.29,0.43
20.51475214958191,0.49,-0.06,-0.2,0.53
20.52448606491089,0.47,-0.24,-0.15,0.54
20.534780025482178,0.31,-0.2,0.0,0.36
20.566854000091553,0.05,-0.02,0.25,0.25
20.568122148513794,-0.38,0.16,0.45,0.61
20.569180965423584,-0.76,0.23,0.52,0.94
20.58314609527588,-0.84,0.13,0.43,0.95
20.584643125534058,-0.74,-0.13,0.19,0.77
20.598703145980835,-0.65,-0.31,-0.14,0.73
20.604077100753784,-0.8,-0.38,-0.47,1.0
20.614110946655273,-1.05,-0.11,-0.72,1.27
20.624138116836548,-1.34,0.11,-0.68,1.5
20.63372802734375,-1.21,0.38,-0.22,1.28
20.666447162628174,-0.94,0.53,0.19,1.09
20.667792081832886,-0.96,0.64,-0.05,1.15
20.668808937072754,-0.81,0.75,-0.71,1.31
20.682981967926025,-0.7,0.61,-1.05,1.4
20.684441089630127,-0.46,0.13,-1.06,1.16
20.699047088623047,-0.43,-0.19,-0.82,0.94
20.703453063964844,-0.44,-0.16,-0.5,0.68
20.714266061782837,-0.27,-0.08,-0.2,0.34
20.723360061645508,-0.02,-0.03,0.01,0.03
20.733027935028076,0.08,-0.02,0.0,0.08
20.778046131134033,0.03,0.07,-0.12,0.14
20.7793550491333,0.44,0.13,-0.32,0.55
20.780381202697754,0.84,-0.19,-0.16,0.87
20.79935312271118,0.92,-0.4,0.49,1.11
20.800811052322388,1.05,-0.51,1.26,1.71
20.815707206726074,1.1,-0.55,1.7,2.09
20.817185163497925,0.78,-0.62,1.64,1.91
20.83102512359619,0.67,-0.49,1.53,1.74
20.832524061203003,0.64,-0.23,0.96,1.17
20.847325086593628,0.58,0.26,-0.1,0.64
20.875985145568848,0.36,0.44,-1.02,1.16
20.87722110748291,0.9,0.72,-0.99,1.51
20.878196239471436,0.85,0.63,-0.88,1.37
20.899824142456055,0.39,0.89,-0.64,1.16
20.901304244995117,0.27,1.42,0.44,1.51
20.91574215888977,-0.46,1.45,0.95,1.79
20.91722011566162,-1.04,2.1,1.05,2.56
20.931053161621094,-1.06,2.25,0.69,2.58
20.93249797821045,-1.26,2.71,0.32,3.0
20.948052167892456,-1.24,2.98,0.04,3.22
20.979280948638916,-0.99,3.32,-0.37,3.48
20.980574131011963,-0.7,3.29,-0.76,3.44
20.981569051742554,-0.38,3.42,-0.91,3.55
20.999938011169434,-0.22,3.5,-0.75,3.58
21.001384258270264,-0.23,3.13,-0.58,3.19
21.016040086746216,-0.46,2.68,-0.49,2.76
21.01750898361206,-0.68,2.1,-0.42,2.24
21.030896186828613,-0.95,1.61,-0.46,1.92
21.032387256622314,-1.06,1.46,-0.64,1.91
21.04740810394287,-0.85,1.53,-0.78,1.91
21.075929164886475,-0.97,1.55,-1.19,2.18
21.077299118041992,-1.17,1.5,-1.67,2.53
21.078339099884033,-0.91,0.91,-2.22,2.56
21.099769115447998,-0.73,0.17,-2.1,2.22
21.1012282371521,-0.09,-0.21,-1.85,1.86
21.115911960601807,1.27,1.04,-2.01,2.59
21.117387056350708,3.03,2.91,-2.34,4.8
21.131006240844727,2.89,2.48,-3.38,5.09
21.132516145706177,1.14,0.6,-4.06,4.25
21.147712230682373,-1.44,-1.84,-4.52,5.08
21.149904251098633,-4.79,-2.99,-3.78,6.79
21.195345163345337,-4.95,-1.28,-1.41,5.3
21.196491241455078,-4.28,-2.58,-1.24,5.14
21.197449207305908,-6.1,-3.42,-2.56,7.44
21.21669912338257,-7.49,-2.82,-3.03,8.55
21.217713117599487,-6.47,-2.27,-2.39,7.26
21.230710983276367,-4.74,-2.21,-1.81,5.53
21.232183933258057,-4.05,-2.03,-1.79,4.87
21.24799609184265,-4.06,-1.46,-1.97,4.74
21.249424934387207,-4.07,-0.74,-1.94,4.56
21.264060020446777,-3.87,-0.21,-1.62,4.2
21.291540145874023,-3.55,-0.07,-1.22,3.75
21.292826175689697,-3.31,-0.07,-0.76,3.39
21.293801069259644,-3.18,0.05,-0.34,3.19
21.296151161193848,-3.23,0.27,-0.17,3.24
21.29755711555481,-3.29,0.69,-0.16,3.36
21.299002170562744,-3.03,1.11,-0.11,3.22
21.308621168136597,-2.4,1.37,-0.13,2.76
21.318641185760498,-1.61,1.66,-0.1,2.31
21.32852816581726,-0.77,1.97,-0.05,2.11
21.338758945465088,-0.09,2.04,-0.12,2.04
21.365705013275146,0.29,1.87,-0.25,1.9
21.36701011657715,0.48,1.78,-0.31,1.86
21.36817693710327,0.8,1.55,-0.56,1.83
21.383257150650024,1.13,1.25,-0.7,1.82
21.387920141220093,1.24,1.09,-0.61,1.76
21.397754192352295,1.08,0.96,-0.21,1.46
21.407873153686523,0.68,0.8,0.36,1.1
21.41813015937805,0.28,0.65,0.79,1.06
21.42811107635498,-0.12,0.42,1.2,1.27
21.43794298171997,-0.66,0.24,1.58,1.72
21.466771125793457,-1.27,0.17,1.93,2.31
21.467995166778564,-1.68,0.17,2.34,2.88
21.46897315979004,-1.69,-0.04,2.61,3.1
21.48354411125183,-1.62,-0.25,2.53,3.01
21.487221240997314,-1.48,-0.31,2.22,2.68
21.49723196029663,-1.1,-0.33,1.9,2.22
21.5074520111084,-0.49,-0.22,1.68,1.76
21.51728105545044,0.34,-0.15,1.44,1.48
21.527323246002197,1.04,-0.24,1.23,1.62
21.536927223205566,1.4,-0.29,1.1,1.8
21.573342084884644,1.75,-0.31,1.05,2.06
21.574730157852173,2.21,-0.35,0.98,2.44
21.575721263885498,2.65,-0.29,0.96,2.83
21.576741218566895,3.1,-0.16,1.03,3.27
21.59876823425293,3.52,-0.08,1.24,3.73
21.599847078323364,3.77,-0.15,1.5,4.06
21.614988088607788,3.86,-0.16,1.77,4.24
21.616482257843018,3.98,-0.1,1.94,4.42
21.631067276000977,3.35,2.12,2.23,4.54
21.636516094207764,3.79,2.21,1.87,4.76
21.674911975860596,6.39,0.77,2.45,6.88
21.676063060760498,8.36,0.49,2.92,8.86
21.677238941192627,9.36,0.49,2.36,9.66
21.678749084472656,9.31,0.32,1.88,9.5
21.68588924407959,8.44,0.46,1.99,8.68
21.695889949798584,9.19,1.2,2.41,9.57
21.705676078796387,11.56,0.36,2.95,11.93
21.715814113616943,11.86,-0.03,2.96,12.22
21.725746154785156,8.89,-0.2,3.06,9.4
21.735697269439697,2.98,-1.85,3.4,4.88
21.771311283111572,-1.88,-1.79,3.41,4.28
21.772715091705322,-3.27,-0.36,3.82,5.04
21.773742198944092,-2.74,0.57,3.39,4.39
21.782880067825317,-1.8,1.56,2.23,3.26
21.784876108169556,-1.39,2.32,0.94,2.86
21.798034191131592,-1.11,1.79,0.45,2.15
21.805138111114502,0.1,0.2,1.07,1.09
21.815062999725342,1.21,-0.44,1.62,2.06
21.825167179107666,1.72,-0.35,1.26,2.16
21.834716081619263,2.12,-0.27,0.43,2.17
21.870644092559814,2.41,-0.49,-0.52,2.51
21.871965169906616,2.14,-0.61,-1.12,2.49
21.8729829788208,1.1,-0.26,-0.92,1.45
21.883461952209473,-0.01,0.06,-0.05,0.07
21.88455104827881,-0.73,0.1,0.75,1.05
21.89946699142456,-0.91,-0.04,0.72,1.16
21.904222011566162,-0.56,-0.12,0.07,0.57
21.91499900817871,-0.21,0.26,-0.09,0.34
21.92434310913086,0.01,0.63,0.3,0.69
21.9342041015625,-0.03,0.35,0.45,0.57
21.944096088409424,-0.21,0.01,0.38,0.43
21.976246118545532,-0.27,0.05,0.3,0.4
21.977391242980957,-0.18,0.07,0.4,0.44
21.978377103805542,0.06,0.03,0.4,0.4
22.000092029571533,0.11,-0.07,0.22,0.25
22.001574993133545,0.21,-0.06,0.21,0.3
22.016204118728638,0.32,-0.02,0.13,0.34
22.01768708229065,0.21,-0.03,-0.04,0.21
22.031862258911133,0.0,0.13,-0.21,0.24
22.03337001800537,-0.24,0.26,-0.41,0.54
22.048096179962158,-0.41,0.36,-0.4,0.67
22.077019214630127,-0.43,0.29,-0.38,0.64
22.078458070755005,-0.3,0.22,-0.4,0.54
22.079491138458252,-0.01,0.16,-0.5,0.52
22.100231170654297,0.15,0.04,-0.72,0.73
22.101722240447998,0.06,0.06,-0.7,0.7
22.116382122039795,0.04,0.07,-0.39,0.39
22.11787700653076,0.41,0.02,-0.02,0.41
22.131686210632324,0.63,0.06,0.31,0.7
22.133178234100342,0.59,0.03,0.4,0.71
22.147910118103027,0.34,-0.04,0.26,0.42
22.179346084594727,0.04,0.07,0.16,0.17
22.1806321144104,-0.06,0.0,0.2,0.2
22.181620121002197,-0.04,-0.02,0.03,0.05
22.200075149536133,0.13,-0.04,-0.04,0.14
22.201548099517822,0.19,-0.07,0.02,0.2
22.216376066207886,-0.01,0.0,0.09,0.09
22.217844009399414,-0.24,0.18,0.04,0.3
22.231495141983032,-0.35,0.28,0.08,0.45
22.23296594619751,-0.44,0.26,-0.15,0.53
22.24784016609192,-0.73,0.31,-0.65,1.02
22.276730060577393,-0.82,0.36,-0.68,1.12
22.278197288513184,-0.42,0.27,-0.41,0.64
22.279242038726807,0.15,0.16,-0.08,0.23
22.300343990325928,0.47,0.03,0.05,0.47
22.30181908607483,0.51,-0.08,0.26,0.57
22.316301107406616,0.38,-0.11,0.41,0.56
22.31777310371399,0.16,-0.1,0.25,0.31
22.33171510696411,0.0,-0.06,0.14,0.15
22.33316421508789,0.05,0.02,0.05,0.07
22.34808921813965,0.16,0.03,-0.03,0.16
22.380030155181885,0.19,0.01,0.07,0.2
22.38138723373413,0.22,0.06,0.12,0.25
22.38240623474121,0.16,0.14,0.2,0.29
22.40013313293457,-0.11,0.3,0.24,0.39
22.401602268218994,-0.34,0.33,0.15,0.49
22.416436195373535,-0.55,0.11,0.21,0.59
22.417909145355225,-0.67,0.02,0.26,0.71
22.431607246398926,-0.64,0.06,0.02,0.64
22.43309497833252,-0.79,0.05,-0.24,0.82
22.45221996307373,-1.5,-0.07,-0.6,1.61
22.483654975891113,-2.01,0.22,-1.4,2.45
22.48502826690674,-1.57,0.52,-0.93,1.89
22.48599410057068,-0.97,0.52,-0.09,1.1
22.500084161758423,-0.49,0.3,-0.21,0.61
22.501129150390625,0.02,-0.05,-0.27,0.27
22.516757011413574,0.07,-0.28,-0.37,0.46
22.518217086791992,-0.35,-0.26,-0.62,0.75
22.53154420852661,-0.66,-0.33,-0.49,0.88
22.533045053482056,-0.58,-0.29,-0.22,0.68
22.54837703704834,-0.67,-0.19,-0.06,0.69
22.57491707801819,-0.77,0.21,-0.18,0.81
22.57648801803589,-0.94,0.64,-0.51,1.24
22.57749319076538,-0.82,0.77,-0.79,1.37
22.5801420211792,-0.46,0.5,-0.94,1.15
22.58900213241577,-0.08,-0.05,-0.61,0.61
22.59900712966919,0.29,-0.58,0.02,0.64
22.6091251373291,0.39,-0.57,0.35,0.77
22.619153022766113,0.17,-0.26,0.45,0.54
22.629106044769287,0.0,0.03,0.33,0.33
22.638720989227295,0.09,0.19,0.13,0.24
22.675178050994873,0.33,0.18,-0.13,0.39
22.676533222198486,0.61,0.05,-0.65,0.89
22.677483081817627,0.44,0.4,-1.33,1.45
22.680002212524414,0.87,0.75,-1.42,1.82
22.68816328048706,1.65,1.03,-0.84,2.11
22.698368072509766,1.63,0.75,-0.59,1.88
22.70841908454895,1.18,1.13,-0.31,1.66
22.718234062194824,0.62,1.39,0.0,1.52
22.728300094604492,-0.39,1.98,0.0,2.01
22.738118171691895,-0.46,2.96,0.37,3.01
22.7481050491333,-0.42,2.75,0.38,2.8
22.780548095703125,-0.09,2.62,0.79,2.73
22.781754970550537,-0.27,2.28,0.77,2.42
22.782769203186035,-0.42,2.33,0.69,2.46
22.799904108047485,-0.22,2.47,0.74,2.58
22.80097198486328,-0.05,2.56,0.56,2.62
22.816445112228394,-0.26,2.64,0.39,2.68
22.81791114807129,-0.5,2.73,0.18,2.78
22.831777095794678,-0.53,2.77,-0.21,2.82
22.83740520477295,-0.61,2.39,-0.61,2.54
22.848196983337402,-0.77,1.89,-0.89,2.22
22.879394054412842,-0.68,1.21,-1.27,1.88
22.880713939666748,-0.49,0.78,-1.63,1.87
22.881734132766724,-0.36,0.88,-1.82,2.05
22.900378227233887,-0.27,1.22,-1.96,2.32
22.901813983917236,-0.5,0.7,-2.03,2.2
22.916821002960205,-0.31,-0.36,-1.64,1.7
22.918281078338623,-0.07,0.21,-1.08,1.1
22.93206810951233,1.09,2.0,-0.41,2.31
22.93688201904297,1.58,1.49,-1.18,2.47
22.948325157165527,-0.16,-1.28,-2.47,2.78
22.9787859916687,-2.22,-3.32,-3.37,5.22
22.980123043060303,-3.92,-4.0,-3.74,6.73
22.98113512992859,-5.92,-3.76,-3.38,7.78
23.000422954559326,-6.64,-2.07,-1.7,7.15
23.00187921524048,-5.73,-1.7,-0.96,6.05
23.01689100265503,-6.46,-2.03,-2.01,7.06
23.018352031707764,-7.61,-0.91,-2.72,8.13
23.032350063323975,-7.17,0.39,-2.55,7.61
23.03567910194397,-5.14,0.92,-2.07,5.61
23.048381090164185,-3.54,0.78,-2.04,4.15
23.079747200012207,-3.02,0.91,-2.23,3.86
23.08149814605713,-2.89,1.26,-2.44,3.98
23.08244800567627,-2.81,1.57,-2.31,3.96
23.100367069244385,-2.56,1.56,-1.69,3.44
23.101867198944092,-2.23,1.27,-0.86,2.7
23.116714000701904,-2.11,0.95,-0.31,2.33
23.1181960105896,-2.29,0.94,-0.23,2.48
23.132055282592773,-2.39,1.06,-0.32,2.63
23.134918212890625,-2.21,1.14,-0.39,2.51
23.148450136184692,-1.87,1.07,-0.42,2.19
23.186434268951416,-1.37,0.92,-0.3,1.67
23.1877281665802,-0.85,0.61,-0.14,1.05
23.188732147216797,-0.55,0.31,-0.02,0.63
23.200002193450928,-0.44,0.17,0.12,0.48
23.2010760307312,-0.3,0.15,0.29,0.44
23.216630935668945,-0.03,0.2,0.45,0.49
23.21807098388672,0.24,0.22,0.66,0.73
23.232052087783813,0.4,0.2,0.93,1.03
23.234151124954224,0.53,-0.02,1.07,1.19
23.24905300140381,0.65,-0.32,1.21,1.41
23.282029151916504,0.79,-0.52,1.42,1.7
23.28343105316162,0.94,-0.63,1.59,1.95
23.284446239471436,0.92,-0.64,1.73,2.06
23.300486087799072,0.74,-0.54,1.8,2.01
23.30198311805725,0.52,-0.31,1.87,1.96
23.316859245300293,0.4,0.06,2.01,2.05
23.31827712059021,0.4,0.35,2.03,2.09
23.332108974456787,0.47,0.57,1.93,2.06
23.333456993103027,0.64,0.6,1.93,2.12
23.34825110435486,0.83,0.54,1.98,2.21
23.381275177001953,1.03,0.51,1.9,2.22
23.382699012756348,1.37,0.54,1.86,2.37
23.38371515274048,1.88,0.57,1.85,2.69
23.40058422088623,2.32,0.51,1.84,3.0
23.40207314491272,2.65,0.47,1.81,3.24
23.416856288909912,2.94,0.41,1.81,3.47
23.41825008392334,3.25,0.23,1.77,3.7
23.432037115097046,3.52,0.03,1.72,3.91
23.433526039123535,3.91,-0.17,1.74,4.28
23.44852113723755,4.4,-0.35,1.86,4.78
23.482044219970703,4.71,-0.72,1.96,5.15
23.48334503173828,4.69,-1.17,2.05,5.25
23.484364986419678,4.61,-1.57,2.21,5.34
23.500895977020264,4.41,-0.97,2.56,5.19
23.502388954162598,4.43,0.15,2.59,5.13
23.51707911491394,5.81,-0.22,2.35,6.27
23.518548011779785,9.62,1.31,3.04,10.17
23.532405138015747,13.21,2.14,4.2,14.02
23.533910274505615,11.71,1.77,4.78,12.77
23.54873514175415,8.9,1.13,5.1,10.31
23.551928997039795,8.49,-0.59,4.73,9.73
23.597381114959717,5.88,-2.15,3.46,7.15
23.59852409362793,0.28,-1.8,1.65,2.45
23.599552154541016,-3.62,-1.57,-0.36,3.96
23.61797523498535,-4.18,-1.12,-1.8,4.68
23.619450092315674,-2.63,0.84,-1.87,3.33
23.63329315185547,-0.6,2.99,-0.88,3.17
23.63475513458252,0.5,3.11,0.15,3.15
23.649089097976685,0.6,0.48,0.5,0.91
23.650575160980225,0.64,-0.88,0.44,1.17
23.665005207061768,0.65,-0.2,0.21,0.71
23.69371509552002,0.33,0.11,-0.08,0.35
23.695122241973877,0.05,-0.06,-0.05,0.09
23.69609308242798,-0.24,-0.17,0.24,0.37
23.717607021331787,-0.62,-0.16,0.43,0.77
23.71868109703064,-0.71,-0.15,0.62,0.95
23.733379125595093,-0.27,-0.16,0.99,1.03
23.734782218933105,0.12,-0.08,1.02,1.03
23.74937915802002,0.22,0.03,0.55,0.59
23.75081515312195,0.28,0.11,0.28,0.41
23.76528811454773,0.34,0.06,0.3,0.45
23.79324507713318,0.36,-0.03,0.61,0.7
23.794573068618774,0.37,-0.2,0.7,0.81
23.79553508758545,0.36,-0.25,0.58,0.72
23.797832012176514,0.26,-0.09,0.41,0.49
23.799801111221313,0.23,0.08,0.4,0.46
23.80980610847473,0.33,0.22,0.83,0.91
23.819825172424316,0.47,0.16,0.77,0.91
23.829779148101807,0.58,0.1,0.33,0.67
23.83994197845459,0.76,-0.03,0.34,0.83
23.84982919692993,0.91,-0.15,0.6,1.1
23.879691123962402,0.67,-0.24,0.35,0.79
23.880836009979248,0.34,-0.2,0.16,0.42
23.881839275360107,0.14,-0.17,0.41,0.46
23.900567054748535,-0.12,-0.06,0.77,0.78
23.90162205696106,-0.22,-0.03,0.81,0.83
23.915992259979248,-0.06,0.01,0.78,0.78
23.919085025787354,0.09,0.06,0.31,0.32
23.931535243988037,0.22,0.31,-0.31,0.49
23.93913698196411,0.14,0.31,-0.77,0.84
23.948925018310547,0.37,0.31,-1.11,1.21
23.98702096939087,0.35,0.25,-1.18,1.25
23.98844814300537,0.05,0.31,-1.24,1.27
23.98942804336548,-0.31,0.31,-1.26,1.33
24.000741958618164,-0.62,0.29,-1.1,1.29
24.001760959625244,-0.41,0.21,-0.68,0.82
24.017207145690918,-0.07,0.19,-0.15,0.25
24.018651962280273,-0.17,0.13,0.01,0.21
24.032681941986084,-0.43,0.09,-0.13,0.45
24.038292169570923,-0.58,0.18,-0.24,0.65
24.048892974853516,-0.49,0.15,-0.27,0.57
24.086846113204956,-0.28,0.08,-0.19,0.34
24.088152170181274,-0.09,0.02,-0.15,0.17
24.089148998260498,-0.01,-0.12,-0.13,0.17
24.100563049316406,-0.01,-0.21,0.13,0.24
24.101486206054688,-0.01,-0.12,0.63,0.64
24.11708116531372,-0.06,-0.02,0.71,0.71
24.118550062179565,-0.14,0.02,0.55,0.56
24.132118225097656,0.06,0.03,0.47,0.47
24.137493133544922,0.31,-0.05,0.46,0.55
24.148375988006592,0.38,-0.08,0.44,0.58
24.185344219207764,0.38,-0.13,0.26,0.47
24.186614990234375,0.28,-0.07,0.04,0.29
24.18762516975403,0.15,0.04,-0.08,0.17
24.201199054718018,-0.15,0.22,-0.11,0.28
24.202672958374023,-0.28,0.37,-0.09,0.47
24.2172532081604,-0.27,0.33,0.06,0.43
24.218691110610962,-0.49,0.17,0.04,0.52
24.233243942260742,-0.76,0.09,-0.1,0.77
24.236727237701416,-1.0,0.09,-0.14,1.01
24.248566150665283,-0.99,0.22,-0.33,1.06
24.285226106643677,-0.83,0.37,-0.48,1.02
24.286482095718384,-0.83,0.39,-0.6,1.09
24.28744411468506,-0.85,0.31,-0.69,1.13
24.300985097885132,-0.47,0.17,-0.67,0.83
24.302073001861572,-0.32,0.03,-0.46,0.56
24.315998077392578,-0.58,0.06,-0.4,0.7
24.317469120025635,-0.88,0.13,-0.44,0.99
24.332473278045654,-0.93,0.08,-0.45,1.03
24.336098194122314,-0.63,-0.02,-0.26,0.68
24.348762035369873,-0.44,-0.2,-0.05,0.48
24.35581398010254,-0.54,-0.22,-0.09,0.59
24.391662120819092,-0.9,-0.01,-0.21,0.92
24.39284110069275,-1.07,0.27,-0.38,1.16
24.393950939178467,-0.68,0.47,-0.86,1.19
24.396963119506836,-0.08,0.3,-0.86,0.91
24.417006015777588,0.26,-0.02,-0.32,0.41
24.418293952941895,0.2,-0.29,0.33,0.48
24.43251323699951,0.01,-0.3,0.64,0.7
24.435205936431885,-0.36,-0.16,0.5,0.63
24.448832035064697,-0.48,0.04,0.27,0.55
24.455296993255615,0.18,0.15,0.57,0.61
24.493520259857178,0.45,-0.03,0.3,0.54
24.494668006896973,0.66,0.03,-0.33,0.73
24.49563217163086,1.03,0.15,-0.62,1.21
24.497941970825195,1.09,0.26,-0.56,1.25
24.50453805923462,1.01,0.45,-0.24,1.13
24.51470422744751,0.91,0.33,-0.03,0.96
24.524649143218994,0.88,0.49,0.09,1.01
24.53466510772705,0.81,0.43,0.21,0.94
24.544369220733643,1.09,0.4,0.53,1.27
24.55451011657715,0.75,0.66,0.74,1.24
24.58601212501526,0.04,0.64,1.11,1.28
24.587302207946777,-0.46,0.95,1.22,1.61
24.588313102722168,-0.7,1.32,0.88,1.73
24.600932121276855,-0.98,1.47,0.26,1.78
24.60366415977478,-0.86,1.57,0.31,1.81
24.61746311187744,-0.64,1.4,0.05,1.54
24.624168157577515,-0.46,1.31,-0.22,1.4
24.633711099624634,-0.29,1.23,-0.33,1.3
24.64383316040039,-0.14,1.42,-0.53,1.52
24.65380096435547,-0.05,1.89,-0.78,2.04
24.685595989227295,0.04,2.25,-0.73,2.36
24.686912059783936,0.38,2.44,-0.56,2.53
24.687943935394287,0.57,2.38,-0.49,2.49
24.701260089874268,0.48,2.11,-0.54,2.23
24.702925205230713,0.03,1.9,-0.61,1.99
24.71769094467163,-0.37,1.77,-0.53,1.88
24.72323703765869,-0.84,1.72,-0.58,2.0
24.733052253723145,-1.02,1.75,-0.59,2.1
24.74318814277649,-1.16,1.76,-0.53,2.17
24.752869129180908,-1.3,1.58,-0.5,2.1
24.790231227874756,-1.46,1.38,-0.71,2.13
24.791612148284912,-1.52,1.22,-1.05,2.21
24.792701244354248,-1.52,1.15,-1.27,2.29
24.796809196472168,-1.39,0.87,-1.41,2.16
24.802253246307373,-1.12,0.8,-1.39,1.95
24.817512035369873,-0.77,1.63,-1.29,2.21
24.82238507270813,-0.3,1.72,-1.58,2.35
24.83276128768921,1.17,2.49,-1.2,3.0
24.842309951782227,2.09,3.08,-1.2,3.91
24.8520450592041,0.73,1.28,-2.12,2.58
24.89041805267334,-0.65,-0.16,-2.45,2.53
24.891780138015747,-1.2,-0.74,-2.37,2.75
24.892903089523315,-1.72,-1.38,-2.6,3.4
24.897414207458496,-2.9,-2.78,-3.13,5.09
24.91771125793457,-4.57,-3.97,-3.31,6.89
24.919174194335938,-4.46,-2.78,-2.24,5.71
24.932412147521973,-4.03,-2.11,-1.75,4.87
24.933900117874146,-5.03,-2.16,-2.28,5.93
24.949146270751953,-6.15,-1.86,-2.63,6.94
24.95130205154419,-6.51,-1.58,-2.38,7.1
24.998111248016357,-6.11,-1.3,-1.97,6.55
24.999316215515137,-5.48,-0.92,-1.88,5.86
25.000344276428223,-4.94,-0.39,-1.95,5.32
25.018423080444336,-4.3,0.02,-1.98,4.73
25.019910097122192,-3.54,0.32,-1.92,4.03
25.032528162002563,-3.07,0.51,-1.8,3.59
25.03395128250122,-3.1,0.45,-1.44,3.44
25.05002498626709,-3.46,0.34,-0.92,3.59
25.051517963409424,-3.73,0.58,-0.44,3.8
25.06576919555664,-3.55,0.98,-0.15,3.68
25.093691110610962,-3.07,1.24,-0.12,3.31
25.095060110092163,-2.76,1.42,-0.23,3.11
25.096025943756104,-2.7,1.75,-0.42,3.24
25.098385095596313,-2.67,2.04,-0.54,3.4
25.10000228881836,-2.58,1.94,-0.56,3.27
25.10998511314392,-2.42,1.68,-0.53,2.99
25.120095252990723,-2.14,1.42,-0.32,2.58
25.13027811050415,-1.64,1.08,-0.06,1.96
25.140074253082275,-0.78,0.74,0.03,1.07
25.15003514289856,0.31,0.3,-0.17,0.46
25.1598482131958,1.05,0.0,-0.42,1.13
25.191253185272217,1.22,0.1,-0.38,1.28
25.19240427017212,1.12,0.4,0.01,1.18
25.193807125091553,1.21,0.56,0.66,1.48
25.199198246002197,1.68,0.33,1.43,2.23
25.20920705795288,2.13,-0.12,2.08,2.97
25.219085216522217,2.42,-0.35,2.56,3.54
25.229488134384155,2.81,-0.24,3.05,4.15
25.23914623260498,3.61,0.08,3.56,5.07
25.24927806854248,4.7,0.08,3.81,6.05
25.259156227111816,5.48,-0.07,3.67,6.59
25.290417194366455,5.83,-0.06,3.57,6.83
25.29172420501709,6.11,-0.17,3.79,7.19
25.292782068252563,6.43,-0.58,4.12,7.65
25.298577070236206,6.02,0.32,4.16,7.32
25.308527946472168,5.14,2.53,3.7,6.81
25.318348169326782,7.91,0.95,3.81,8.83
25.328594207763672,14.34,0.94,5.39,15.34
25.33839225769043,20.71,1.12,7.26,21.97
25.34878396987915,21.0,3.29,6.7,22.28
25.35845708847046,15.78,3.16,6.32,17.28
25.388651132583618,6.85,-1.8,4.54,8.41
25.39006209373474,-3.29,-3.59,1.64,5.13
25.391072273254395,-6.8,-1.94,-2.14,7.38
25.401443004608154,-4.22,1.78,-1.87,4.94
25.407958984375,-0.65,5.05,1.7,5.36
25.417781114578247,1.47,2.61,3.6,4.68
25.427937030792236,2.39,-1.52,3.61,4.58
25.437891960144043,1.27,-1.05,1.6,2.29
25.447861194610596,-0.46,0.12,-0.83,0.95
25.45770025253296,-0.85,0.16,-1.31,1.56
25.488361120224,-0.33,0.11,-0.89,0.95
25.489729166030884,0.18,-0.02,-0.83,0.84
25.490746021270752,0.49,-0.13,-1.06,1.17
25.501497268676758,0.8,-0.05,-0.81,1.13
25.506911277770996,0.95,0.01,-0.07,0.95
25.51740312576294,0.56,-0.01,0.39,0.68
25.52709722518921,-0.24,0.07,0.59,0.64
25.53718614578247,-0.83,0.17,0.79,1.15
25.547138214111328,-1.03,0.15,0.68,1.24
25.557053089141846,-0.85,0.19,0.44,0.97
25.593460083007812,-0.34,0.17,0.38,0.53
25.59481906890869,0.07,0.1,0.02,0.12
25.595787048339844,0.36,0.07,-0.31,0.48
25.598183155059814,0.52,0.09,-0.53,0.74
25.60646104812622,0.44,0.12,-0.8,0.92
25.616382122039795,0.31,0.08,-0.68,0.75
25.626307010650635,0.35,-0.02,-0.38,0.51
25.636401176452637,0.39,0.12,-0.23,0.46
25.64645004272461,0.31,0.14,-0.12,0.36
25.656245231628418,0.32,0.12,0.11,0.35
25.692601203918457,0.67,0.09,0.35,0.76
25.693960189819336,0.88,-0.03,0.41,0.97
25.6948881149292,0.8,-0.03,0.29,0.85
25.697225093841553,0.56,-0.02,0.2,0.59
25.717393159866333,0.47,-0.02,0.22,0.51
25.718356132507324,0.52,-0.05,0.18,0.55
25.732837200164795,0.48,-0.07,0.09,0.49
25.735403060913086,0.34,-0.1,0.13,0.37
25.749431133270264,0.22,-0.1,0.27,0.36
25.75567102432251,0.09,-0.07,0.36,0.37
25.792530059814453,0.08,-0.1,0.37,0.39
25.79370403289795,0.02,-0.05,0.34,0.34
25.794841051101685,-0.13,0.01,0.21,0.24
25.797200202941895,-0.31,0.03,0.14,0.34
25.818340063095093,-0.4,0.05,0.11,0.41
25.81982111930847,-0.42,0.06,0.0,0.42
25.833405017852783,-0.4,0.08,-0.16,0.43
25.83489227294922,-0.39,0.15,-0.25,0.48
25.849876165390015,-0.44,0.25,-0.34,0.6
25.854575157165527,-0.6,0.26,-0.23,0.69
25.895135164260864,-0.7,0.22,-0.2,0.76
25.896263122558594,-0.71,0.25,-0.17,0.77
25.897226095199585,-0.84,0.27,-0.24,0.91
25.918971061706543,-0.91,0.25,-0.38,1.01
25.920490264892578,-0.99,0.24,-0.51,1.13
25.934458255767822,-1.15,0.21,-0.65,1.33
25.93592119216919,-1.05,0.25,-0.59,1.23
25.950334072113037,-0.67,0.18,-0.28,0.74
25.951838970184326,-0.36,0.11,0.11,0.39
25.969752073287964,-0.32,0.14,-0.16,0.38
25.97288703918457,-0.43,0.1,-0.38,0.58
26.00932025909424,-0.56,0.02,-0.13,0.57
26.01050114631653,-0.51,0.05,0.14,0.53
26.011718273162842,-0.33,-0.03,0.25,0.41
26.014292240142822,-0.11,-0.2,0.36,0.42
26.034743070602417,-0.2,-0.22,0.17,0.34
26.036224126815796,-0.43,0.03,-0.14,0.45
26.050260066986084,-0.37,0.24,-0.08,0.44
26.051743030548096,-0.35,0.45,-0.11,0.58
26.066177129745483,-0.35,0.57,-0.38,0.76
26.067626953125,-0.24,0.48,-0.36,0.64
26.111856937408447,-0.13,0.57,-0.47,0.75
26.113006114959717,-0.09,0.65,-0.77,1.01
26.1140079498291,-0.22,0.8,-1.06,1.34
26.13566827774048,-0.59,0.61,-1.17,1.44
26.137123107910156,-0.49,0.28,-0.56,0.79
26.151461124420166,-0.06,-0.09,0.09,0.14
26.15288805961609,0.21,-0.29,0.21,0.41
26.16681408882141,0.17,-0.09,0.16,0.25
26.16825294494629,-0.1,0.03,0.1,0.14
26.183123111724854,-0.49,0.15,-0.06,0.51
26.2123441696167,-0.53,0.37,-0.5,0.81
26.213699102401733,-0.14,0.71,-0.66,0.97
26.21467399597168,-0.05,0.43,-0.66,0.78
26.23540210723877,-0.26,0.48,-0.57,0.78
26.236722946166992,-0.33,0.91,-0.39,1.04
26.25138521194458,-0.23,1.07,-0.27,1.12
26.252849102020264,0.08,1.36,-0.21,1.37
26.26688003540039,0.34,1.65,-0.19,1.69
26.268331050872803,0.47,1.49,-0.4,1.61
26.28647804260254,0.45,1.49,-0.48,1.62
26.315457105636597,0.48,1.49,-0.49,1.64
26.31666612625122,0.61,1.37,-0.32,1.53
26.317686080932617,0.46,1.16,-0.11,1.25
26.3353590965271,0.41,1.15,0.12,1.22
26.336787223815918,0.29,1.32,0.32,1.38
26.35160493850708,0.08,1.54,0.37,1.58
26.353052139282227,-0.04,1.61,0.21,1.62
26.366932153701782,-0.11,1.79,0.11,1.79
26.36839723587036,-0.04,1.86,0.12,1.86
26.38316512107849,-0.13,1.61,-0.05,1.61
26.410682201385498,-0.2,1.23,-0.4,1.3
26.41202712059021,-0.28,1.09,-0.61,1.28
26.413071155548096,-0.42,1.05,-0.65,1.3
26.415465116500854,-0.58,0.9,-0.76,1.31
26.41687297821045,-0.69,0.77,-0.95,1.4
26.420112133026123,-0.6,0.88,-1.09,1.52
26.430140018463135,-0.36,0.4,-1.17,1.28
26.440514087677002,-0.47,0.41,-0.96,1.14
26.450278282165527,-0.6,1.75,-0.52,1.92
26.46018123626709,-0.83,2.22,-0.44,2.41
26.495676040649414,-0.22,1.91,-0.33,1.95
26.496973991394043,1.24,2.01,-0.47,2.4
26.497981071472168,0.89,1.53,-1.37,2.23
26.519004106521606,-0.41,0.59,-2.1,2.21
26.520458221435547,-1.31,-0.05,-2.18,2.54
26.53491497039795,-1.81,-0.41,-2.07,2.78
26.536407947540283,-2.35,-0.94,-2.14,3.31
26.550527095794678,-3.51,-1.92,-2.41,4.67
26.55194616317749,-5.07,-1.63,-2.22,5.76
26.566599130630493,-5.06,0.01,-1.42,5.25
26.597206115722656,-4.36,-0.73,-1.7,4.73
26.59859800338745,-5.19,-1.39,-2.61,5.97
26.59962511062622,-6.49,-1.42,-2.98,7.28
26.618837118148804,-6.62,-1.19,-2.74,7.26
26.620277166366577,-5.44,-1.0,-2.4,6.02
26.634910106658936,-4.02,-1.13,-2.3,4.76
26.636373043060303,-3.12,-1.08,-2.35,4.05
26.650533199310303,-2.81,-0.64,-2.4,3.75
26.65199899673462,-2.89,-0.15,-2.27,3.67
26.66724705696106,-3.15,0.15,-1.99,3.72
26.701077938079834,-3.47,0.26,-1.52,3.79
26.702468156814575,-3.79,0.32,-1.01,3.93
26.703482151031494,-3.95,0.59,-0.56,4.03
26.719236135482788,-3.65,1.05,-0.22,3.8
26.720733165740967,-3.21,1.48,0.0,3.53
26.734936237335205,-2.99,1.84,0.04,3.51
26.736423015594482,-2.9,2.03,-0.01,3.53
26.750508069992065,-2.8,2.16,0.04,3.53
26.751829147338867,-2.47,2.04,0.22,3.21
26.76640224456787,-1.66,1.58,0.34,2.31
26.767906188964844,-0.8,1.11,0.29,1.39
26.81383228302002,-0.37,0.83,0.21,0.93
26.815049171447754,-0.2,0.86,0.23,0.91
26.816046237945557,-0.18,0.95,0.32,1.01
26.835813999176025,-0.27,0.93,0.47,1.07
26.837316036224365,-0.28,0.85,0.77,1.18
26.851633071899414,-0.12,0.63,1.17,1.33
26.85307025909424,0.27,0.29,1.46,1.51
26.867309093475342,0.82,0.0,1.58,1.78
26.868728160858154,1.4,-0.19,1.72,2.22
26.883479118347168,1.88,-0.27,1.95,2.72
26.913299083709717,2.38,-0.39,2.26,3.3
26.914799213409424,2.9,-0.51,2.52,3.87
26.91584610939026,3.47,-0.4,2.77,4.45
26.935546159744263,4.04,-0.23,2.91,4.98
26.937032222747803,4.51,-0.12,2.95,5.39
26.951975107192993,4.92,0.08,3.06,5.79
26.953482151031494,5.41,0.1,3.11,6.24
26.967029094696045,5.86,-0.02,3.18,6.66
26.968533039093018,6.21,-0.11,3.23,7.0
26.987380027770996,6.36,-0.22,3.14,7.09
27.01791000366211,5.97,0.9,2.72,6.62
27.019206047058105,5.33,3.45,1.58,6.54
27.020220279693604,7.51,1.62,1.12,7.76
27.03559398651123,14.69,0.86,2.34,14.9
27.036631107330322,19.29,0.22,3.75,19.65
27.051936149597168,16.49,0.74,2.85,16.75
27.05342721939087,11.3,0.35,2.64,11.6
27.06700611114502,6.35,-2.86,2.41,7.36
27.068500995635986,-0.01,-3.29,2.48,4.12
27.08349895477295,-2.5,-2.16,2.34,4.04
27.113194942474365,-0.72,-0.2,1.69,1.84
27.11461615562439,0.77,2.76,1.37,3.17
27.11563014984131,-0.03,4.2,0.96,4.3
27.135608196258545,-0.81,2.48,1.71,3.11
27.137068271636963,0.16,-0.87,2.82,2.95
27.15191912651062,0.75,-1.02,2.15,2.49
27.153450965881348,0.42,-0.12,0.22,0.48
27.16729497909546,-0.12,0.09,-1.12,1.13
27.168755054473877,-0.41,-0.05,-1.56,1.61
27.17077612876892,-0.51,-0.06,-1.59,1.67
27.20166826248169,-0.24,0.01,-1.25,1.27
27.20294213294983,-0.18,0.03,-0.43,0.46
27.20406198501587,-0.46,0.09,0.28,0.54
27.21970009803772,-0.76,0.23,0.68,1.04
27.22072696685791,-0.94,0.21,0.95,1.35
27.234727144241333,-0.85,0.2,0.95,1.29
27.236056089401245,-0.63,0.14,0.51,0.82
27.250911235809326,-0.42,0.11,0.12,0.45
27.25402593612671,-0.2,0.09,-0.19,0.29
27.266263961791992,0.0,0.0,-0.51,0.51
27.30021905899048,0.12,0.02,-0.54,0.55
27.301509141921997,0.38,0.07,-0.55,0.67
27.302597045898438,0.51,0.1,-0.54,0.74
27.319444179534912,0.3,0.3,-0.38,0.56
27.320930004119873,-0.15,0.33,-0.26,0.44
27.334956169128418,-0.26,0.19,0.03,0.32
27.336440086364746,-0.09,0.16,0.14,0.23
27.350881099700928,-0.09,0.11,-0.17,0.22
27.353264093399048,-0.03,0.15,-0.11,0.18
27.36693000793457,0.27,0.15,0.01,0.3
27.400854110717773,0.46,0.09,-0.32,0.56
27.402146100997925,0.57,0.09,-0.57,0.81
27.40309715270996,0.7,0.08,-0.21,0.73
27.419548988342285,0.6,0.01,0.07,0.6
27.421031951904297,0.31,-0.04,0.02,0.31
27.43512201309204,0.04,0.06,0.05,0.08
27.436613082885742,-0.07,-0.01,0.3,0.3
27.450840950012207,-0.08,-0.11,0.33,0.35
27.45243501663208,-0.03,0.04,0.17,0.17
27.466750144958496,0.11,0.03,-0.02,0.11
27.500823974609375,0.24,-0.04,-0.18,0.3
27.502260208129883,0.13,0.02,-0.17,0.21
27.503268241882324,-0.18,0.11,-0.18,0.27
27.5193772315979,-0.4,0.17,-0.21,0.48
27.520806074142456,-0.37,0.21,-0.21,0.47
27.535027027130127,-0.13,0.15,-0.07,0.21
27.53644108772278,0.16,0.08,0.12,0.21
27.550841093063354,0.38,-0.01,0.24,0.44
27.552310943603516,0.33,-0.1,0.21,0.4
27.566609144210815,0.07,-0.08,0.27,0.29
27.572214126586914,-0.25,-0.02,0.2,0.32
27.6163010597229,-0.61,0.07,0.18,0.63
27.61747407913208,-0.71,0.18,0.49,0.88
27.618459224700928,-0.32,0.12,0.57,0.66
27.636357069015503,0.09,-0.01,0.47,0.47
27.6378231048584,0.2,-0.06,0.35,0.4
27.652119159698486,0.18,-0.15,0.25,0.34
27.65361499786377,0.04,-0.07,0.22,0.23
27.66753101348877,-0.27,0.12,0.17,0.34
27.669007062911987,-0.81,0.24,-0.08,0.84
27.68373727798462,-0.93,0.45,-0.54,1.16
27.71173405647278,-0.86,0.52,-0.76,1.26
27.713154077529907,-0.83,0.34,-0.69,1.13
27.714195251464844,-0.64,0.26,-0.59,0.9
27.716737270355225,-0.52,0.14,-0.57,0.78
27.72025728225708,-0.7,0.25,-0.57,0.93
27.730425119400024,-1.01,0.35,-0.61,1.23
27.740775108337402,-1.28,0.39,-0.78,1.54
27.750461101531982,-1.42,0.43,-1.11,1.85
27.760289192199707,-1.25,0.42,-1.13,1.73
27.77033519744873,-1.3,0.37,-0.98,1.66
27.79985523223877,-1.6,0.45,-1.17,2.03
27.801074028015137,-1.62,0.6,-1.22,2.11
27.802073001861572,-0.96,0.48,-0.19,1.09
27.819682121276855,0.25,0.04,0.69,0.73
27.820754051208496,0.96,-0.28,1.04,1.44
27.83553695678711,0.99,-0.59,1.0,1.52
27.839734077453613,0.98,-0.71,0.87,1.49
27.851044178009033,0.92,-0.58,0.37,1.14
27.85974907875061,0.63,-0.37,-0.26,0.77
27.869376182556152,0.43,-0.18,-0.67,0.81
27.89957618713379,0.01,0.11,-0.9,0.9
27.900849103927612,-0.18,0.38,-0.85,0.94
27.901862144470215,0.15,0.87,-0.68,1.11
27.91946816444397,0.17,1.2,-0.77,1.43
27.920488119125366,0.17,1.39,-0.49,1.48
27.935371160507202,0.17,1.62,-0.11,1.63
27.938969135284424,-0.26,2.11,-0.39,2.16
27.950852155685425,-0.33,2.38,-0.9,2.56
27.958948135375977,0.32,2.36,-0.7,2.48
27.96858310699463,0.32,2.05,-0.85,2.24
28.006567001342773,0.38,1.72,-0.44,1.81
28.008016109466553,0.66,1.07,0.1,1.26
28.009011268615723,0.84,0.72,0.55,1.23
28.020003080368042,0.92,0.61,0.82,1.37
28.021512031555176,0.84,0.93,0.68,1.42
28.03515911102295,0.56,1.36,0.54,1.56
28.038180112838745,0.17,1.6,0.14,1.61
28.051037073135376,-0.25,1.82,-0.33,1.86
28.057981967926025,-0.46,1.98,-0.57,2.11
28.067831993103027,-0.46,1.93,-0.99,2.21
28.10537624359131,-0.27,1.69,-1.44,2.23
28.106740951538086,-0.01,1.36,-1.63,2.12
28.107728958129883,0.27,1.39,-1.67,2.18
28.11873722076416,0.42,1.19,-2.02,2.38
28.120212078094482,0.18,0.36,-2.43,2.46
28.13534927368164,0.25,-0.28,-2.48,2.5
28.13734006881714,0.27,-0.11,-2.06,2.08
28.15097427368164,0.6,0.78,-1.37,1.68
28.157401084899902,0.89,1.78,-1.03,2.24
28.168179988861084,1.53,2.37,-1.31,3.11
28.20586609840393,0.49,0.98,-2.63,2.84
28.207203149795532,-1.3,-0.68,-3.27,3.58
28.20820903778076,-2.53,-1.75,-3.45,4.62
28.20974612236023,-3.98,-2.7,-3.61,6.01
28.216894149780273,-3.98,-1.87,-2.63,5.12
28.22664213180542,-2.74,-1.37,-1.27,3.31
28.236928939819336,-4.16,-1.95,-1.36,4.79
28.24670124053955,-6.37,-2.0,-1.88,6.93
28.256756067276,-7.23,-1.52,-1.7,7.58
28.26683211326599,-6.3,-0.93,-0.81,6.41
28.30434226989746,-5.0,-0.83,-0.32,5.07
28.30553913116455,-4.51,-0.74,-0.43,4.59
28.306554079055786,-4.39,-0.27,-0.76,4.46
28.319924116134644,-4.1,0.29,-1.07,4.24
28.32135510444641,-3.69,0.52,-1.07,3.87
28.334875106811523,-3.42,0.27,-0.62,3.48
28.336352109909058,-3.45,-0.2,0.1,3.45
28.351200103759766,-3.62,-0.5,0.66,3.71
28.355778217315674,-3.58,-0.35,0.88,3.7
28.367165088653564,-3.26,0.01,0.94,3.39
28.37647819519043,-2.93,0.21,0.88,3.06
28.413445949554443,-2.6,0.29,0.81,2.73
28.414627075195312,-2.17,0.43,0.62,2.29
28.415596961975098,-1.65,0.64,0.37,1.8
28.436426162719727,-1.06,0.83,0.17,1.35
28.43791103363037,-0.48,0.91,0.0,1.02
28.452462196350098,-0.06,0.91,-0.22,0.93
28.453880071640015,0.24,0.88,-0.34,0.97
28.467560052871704,0.4,0.92,-0.38,1.07
28.46902322769165,0.49,1.19,-0.36,1.33
28.484055042266846,0.62,1.53,-0.38,1.69
28.51370906829834,0.63,1.72,-0.5,1.89
28.515198230743408,0.52,1.75,-0.73,1.96
28.51615309715271,0.32,1.61,-0.79,1.82
28.535908222198486,0.22,1.38,-0.43,1.46
28.53744411468506,0.38,0.83,0.16,0.92
28.55262517929077,0.7,-0.01,0.58,0.9
28.55408811569214,0.78,-0.49,0.7,1.15
28.568246126174927,0.48,-0.4,0.66,0.9
28.56974220275879,0.06,-0.24,0.71,0.75
28.58470106124878,-0.05,-0.05,1.0,1.0
28.61329412460327,0.35,0.12,1.38,1.42
28.614777088165283,0.92,0.0,1.64,1.88
28.615757942199707,1.19,-0.23,1.83,2.19
28.636188983917236,1.19,-0.43,1.87,2.25
28.637567043304443,1.31,-0.57,1.76,2.26
28.65262007713318,1.68,-0.54,1.7,2.45
28.654030084609985,2.15,-0.38,1.75,2.79
28.667915105819702,2.53,-0.13,1.68,3.03
28.669336080551147,2.78,0.07,1.62,3.21
28.684425115585327,2.94,0.13,1.63,3.36
28.711108207702637,3.19,0.14,1.71,3.62
28.712467193603516,3.75,0.07,1.7,4.11
28.713499069213867,4.37,-0.07,1.57,4.64
28.715782165527344,4.68,-0.15,1.47,4.9
28.72311806678772,4.61,-0.27,1.43,4.83
28.7328462600708,4.43,-0.32,1.32,4.63
28.743104934692383,4.37,-0.29,1.17,4.53
28.752867221832275,4.48,-0.23,1.01,4.59
28.76281499862671,4.75,-0.18,0.84,4.82
28.772813081741333,4.78,-0.22,0.68,4.83
28.807563066482544,4.34,-0.37,0.56,4.39
28.808879137039185,3.7,-0.46,0.55,3.76
28.809852123260498,3.25,-0.46,0.62,3.34
28.819077014923096,3.05,-0.51,0.75,3.18
28.822028160095215,3.03,-0.69,0.84,3.21
28.83521604537964,2.87,-0.67,0.89,3.07
28.842189073562622,1.85,0.57,1.19,2.27
28.851962089538574,2.1,0.13,1.16,2.4
28.862078189849854,3.25,-0.49,1.56,3.63
28.87200403213501,3.91,-0.35,1.88,4.35
28.9079909324646,4.52,-0.26,1.75,4.85
28.909337043762207,4.72,0.08,1.76,5.03
28.910373210906982,4.4,0.97,2.19,5.0
28.919779062271118,3.7,1.46,2.57,4.73
28.92136526107788,0.55,0.23,1.76,1.85
28.935758113861084,-2.44,-0.19,0.13,2.45
28.941472053527832,-4.01,0.11,-0.9,4.11
28.95165205001831,-4.74,0.43,-1.35,4.94
28.96146821975708,-3.79,0.47,-1.04,3.95
28.97125816345215,-0.65,0.47,0.74,1.09
29.007296085357666,2.27,0.96,2.29,3.36
29.00868320465088,3.01,0.8,2.14,3.77
29.00977897644043,2.41,-0.16,1.42,2.8
29.020276069641113,2.09,-0.68,1.4,2.6
29.021332263946533,2.19,-0.92,1.5,2.8
29.036277055740356,2.17,-0.86,1.18,2.61
29.040672063827515,1.72,-0.25,0.93,1.97
29.05163812637329,0.86,0.28,0.99,1.34
29.060711145401,0.16,0.22,0.77,0.81
29.070585250854492,-0.07,0.0,0.28,0.28
29.106529235839844,-0.02,0.16,0.26,0.3
29.1078040599823,0.09,0.24,0.35,0.43
29.108835220336914,0.37,0.11,-0.11,0.4
29.12017822265625,0.39,0.12,-0.6,0.72
29.12124514579773,0.38,0.18,-0.65,0.77
29.13606595993042,0.22,0.12,-0.39,0.46
29.139907121658325,0.3,0.13,-0.15,0.35
29.152367115020752,0.27,0.01,-0.12,0.29
29.15983510017395,0.35,0.12,-0.2,0.42
29.169708251953125,0.1,0.16,-0.38,0.42
29.17959713935852,-0.19,0.22,-0.25,0.38
29.213784217834473,-0.39,0.22,0.25,0.51
29.21493101119995,-0.35,0.2,0.09,0.41
29.215927124023438,-0.34,0.21,-0.45,0.6
29.235037088394165,0.02,0.29,-0.74,0.79
29.236492156982422,0.08,0.25,-0.78,0.82
29.253218173980713,-0.29,0.26,-0.6,0.71
29.254716157913208,-0.51,0.22,-0.36,0.66
29.268038272857666,-0.26,0.11,-0.21,0.35
29.269512176513672,0.02,0.05,-0.09,0.1
29.284417152404785,0.05,0.03,0.1,0.11
29.311596155166626,-0.11,0.09,0.04,0.14
29.31283211708069,-0.51,0.06,-0.22,0.55
29.313878059387207,-0.57,0.13,-0.09,0.59
29.31832218170166,-0.23,0.11,0.13,0.28
29.32829523086548,0.08,0.03,0.16,0.18
29.338644981384277,0.18,-0.08,0.04,0.2
29.348536014556885,0.04,-0.19,-0.07,0.2
29.35815405845642,-0.06,-0.2,0.01,0.2
29.368328094482422,-0.09,-0.1,0.04,0.14
29.378226280212402,-0.17,-0.04,0.01,0.17
29.409451961517334,-0.1,0.06,0.07,0.13
29.41061496734619,0.22,0.07,0.18,0.29
29.41192317008972,0.43,0.07,0.23,0.49
29.41747808456421,0.35,0.09,0.19,0.4
29.427605152130127,0.23,0.08,0.12,0.27
29.437689065933228,0.09,0.14,0.22,0.27
29.447751998901367,0.03,0.25,0.15,0.29
29.457402229309082,0.0,0.28,0.02,0.28
29.46761703491211,-0.09,0.21,-0.15,0.27
29.477517127990723,-0.24,0.14,-0.25,0.37
29.50786304473877,-0.37,0.06,-0.17,0.41
29.50920009613037,-0.44,0.06,-0.07,0.44
29.510172128677368,-0.56,0.07,-0.08,0.57
29.520211219787598,-0.65,0.14,-0.13,0.67
29.526920080184937,-0.55,0.21,-0.11,0.59
29.53692102432251,-0.49,0.16,-0.21,0.55
29.546683073043823,-0.68,0.08,-0.45,0.81
29.556915283203125,-0.85,-0.03,-0.76,1.14
29.56689715385437,-0.97,0.01,-0.79,1.25
29.576627254486084,-1.43,0.1,-0.45,1.5
29.614264011383057,-1.48,0.41,-0.46,1.6
29.61558198928833,-1.09,0.66,-0.2,1.28
29.61658525466919,-0.63,0.4,0.05,0.74
29.6367130279541,-0.1,0.09,-0.03,0.13
29.63816809654236,0.46,0.05,-0.35,0.58
29.653193950653076,0.78,-0.06,-0.64,1.01
29.654673099517822,0.73,-0.16,-0.73,1.04
29.66828203201294,0.35,-0.32,-0.5,0.68
29.669791221618652,-0.06,-0.22,-0.02,0.22
29.684688091278076,-0.42,-0.07,0.18,0.46
29.713070154190063,-0.52,0.18,0.33,0.64
29.714433193206787,-0.1,0.28,0.51,0.59
29.715424060821533,0.17,0.25,0.42,0.51
29.736670970916748,0.1,0.21,0.04,0.23
29.73815393447876,0.02,0.04,-0.29,0.29
29.753268241882324,0.1,-0.24,-0.24,0.35
29.75470495223999,0.14,-0.19,-0.15,0.27
29.76847505569458,-0.11,0.12,-0.22,0.27
29.76977515220642,0.01,0.15,-0.03,0.15
29.785232067108154,0.47,0.28,-0.07,0.55
29.814674139022827,0.77,0.45,-0.53,1.03
29.816014051437378,0.7,0.68,-0.8,1.26
29.81699228286743,0.24,0.84,-0.77,1.16
29.836735248565674,-0.12,0.96,-0.8,1.25
29.83823823928833,-0.23,1.26,-0.61,1.41
29.853209018707275,-0.17,1.18,-0.36,1.24
29.85461115837097,0.31,1.18,0.08,1.22
29.86858320236206,0.53,1.04,0.23,1.18
29.87002420425415,0.12,1.07,0.07,1.07
29.88476014137268,0.25,1.2,0.26,1.25
29.913732051849365,0.27,1.23,0.61,1.39
29.915503978729248,0.1,1.41,0.76,1.6
29.916898250579834,-0.3,1.62,0.71,1.79
29.93693208694458,-0.5,1.69,0.7,1.89
29.938395977020264,-0.45,1.86,0.57,1.99
29.95336103439331,-0.51,1.95,0.21,2.02
29.9548659324646,-0.4,1.97,-0.07,2.01
29.96882724761963,-0.21,1.8,-0.4,1.85
29.970263957977295,-0.3,1.54,-0.7,1.71
29.98901915550232,-0.41,1.21,-0.89,1.55
29.991843223571777,-0.5,1.01,-1.06,1.54
30.03252601623535,-0.61,1.01,-1.14,1.64
30.033607959747314,-0.68,0.76,-1.17,1.55
30.034635066986084,-0.51,0.72,-1.1,1.41
30.05371618270874,-0.41,1.33,-0.83,1.62
30.05519723892212,-1.01,1.38,-1.15,2.06
30.069622039794922,-1.08,0.08,-1.44,1.8
30.07104516029358,-0.99,-1.14,-1.3,1.99
30.084012031555176,-0.63,-0.14,-1.02,1.2
30.085402965545654,-0.16,1.55,-1.04,1.87
30.10169219970703,0.91,2.42,-1.0,2.77
