time,ax,ay,az,atotal
0.004400968551635742,-0.07,-1.58,-2.02,2.56
0.02359485626220703,0.21,-1.37,0.4,1.44
0.025108814239501953,-0.48,0.76,0.62,1.09
0.034404754638671875,-0.47,1.0,-0.38,1.16
0.044275760650634766,0.15,0.21,-0.9,0.93
0.054921865463256836,0.43,0.12,-0.46,0.64
0.06705188751220703,0.23,0.2,-0.04,0.3
0.09094691276550293,-0.06,0.05,0.25,0.26
0.09264993667602539,-0.12,-0.07,0.38,0.4
0.09422993659973145,-0.19,-0.14,0.29,0.37
0.10367202758789062,-0.09,-0.12,0.06,0.16
0.1139378547668457,0.25,0.02,-0.09,0.26
0.12369489669799805,0.28,0.1,-0.12,0.32
0.13376998901367188,0.05,0.06,-0.02,0.08
0.14359474182128906,0.0,-0.05,-0.02,0.05
0.15406179428100586,0.13,-0.06,-0.11,0.18
0.1664268970489502,0.15,0.06,-0.26,0.3
0.1965618133544922,0.06,0.05,-0.22,0.23
0.19835805892944336,0.01,0.06,0.0,0.06
0.19982695579528809,-0.07,0.01,0.12,0.13
0.21927690505981445,-0.17,0.0,0.07,0.18
0.22061991691589355,-0.17,0.07,0.01,0.18
0.23529577255249023,-0.09,0.06,0.03,0.11
0.23670101165771484,0.0,-0.05,0.05,0.07
0.25259995460510254,0.04,0.0,0.18,0.18
0.25481081008911133,0.04,0.04,0.25,0.25
0.2693190574645996,0.03,-0.06,0.19,0.2
0.29285573959350586,-0.01,-0.05,0.12,0.13
0.29463887214660645,-0.05,-0.05,0.05,0.08
0.29598188400268555,0.04,-0.05,0.08,0.1
0.30217981338500977,0.09,-0.05,0.12,0.15
0.31880903244018555,0.03,0.0,0.18,0.18
0.32191991806030273,-0.03,-0.11,0.2,0.23
0.33514404296875,-0.09,-0.14,0.19,0.25
0.3419828414916992,-0.1,-0.07,0.19,0.22
0.352200984954834,0.04,-0.09,0.16,0.18
0.3655688762664795,0.19,-0.31,0.14,0.38
0.3948640823364258,0.05,-0.43,0.4,0.58
0.39644694328308105,0.09,-0.34,0.53,0.63
0.39786291122436523,0.11,-0.3,0.88,0.93
0.4014458656311035,0.06,-0.12,0.92,0.92
0.41153693199157715,0.07,-0.26,0.74,0.78
0.42145681381225586,0.32,-0.37,0.61,0.78
0.43140196800231934,0.33,-0.34,0.51,0.69
0.4412040710449219,0.21,-0.24,0.3,0.43
0.4512200355529785,0.11,0.05,0.14,0.18
0.46417999267578125,0.12,0.1,0.03,0.15
0.4888789653778076,0.12,0.07,-0.32,0.34
0.49045896530151367,0.13,0.17,-0.41,0.46
0.49193477630615234,0.12,0.13,-0.45,0.48
0.5022468566894531,0.05,0.15,-0.14,0.21
0.510983943939209,-0.1,0.04,-0.1,0.14
0.5204877853393555,-0.2,0.03,0.0,0.2
0.5306689739227295,-0.24,0.07,0.07,0.25
0.5402860641479492,-0.19,0.1,0.02,0.21
0.5505528450012207,-0.06,0.04,-0.17,0.18
0.5608358383178711,0.18,0.06,-0.24,0.3
0.5734188556671143,0.28,-0.01,-0.23,0.36
0.6001458168029785,0.3,-0.04,0.03,0.3
0.6019887924194336,0.22,-0.07,0.27,0.35
0.6032657623291016,0.14,-0.21,0.29,0.38
0.6203179359436035,0.13,-0.19,0.37,0.43
0.6217279434204102,-0.1,-0.15,0.32,0.36
0.6356658935546875,-0.23,-0.05,0.23,0.32
0.6397569179534912,-0.21,0.05,0.13,0.25
0.6524209976196289,-0.1,0.07,-0.08,0.14
0.6594500541687012,-0.07,0.06,-0.12,0.15
0.6717100143432617,-0.1,0.06,0.01,0.11
0.6956908702850342,-0.14,0.01,-0.01,0.14
0.6975288391113281,-0.18,0.0,0.03,0.18
0.6991009712219238,-0.28,0.01,0.12,0.3
0.709291934967041,-0.42,0.02,0.13,0.44
0.7191567420959473,-0.55,0.06,0.08,0.55
0.7290358543395996,-0.69,0.15,0.01,0.7
0.7391159534454346,-0.81,0.21,-0.04,0.83
0.7490420341491699,-0.87,0.26,-0.04,0.9
0.7588410377502441,-0.75,0.19,-0.06,0.77
0.7693259716033936,-0.63,0.03,-0.05,0.63
0.7957887649536133,-0.43,0.07,0.23,0.49
0.7973659038543701,-0.1,-0.03,0.35,0.36
0.7988090515136719,0.02,-0.12,0.36,0.38
0.8085329532623291,-0.1,-0.04,0.33,0.34
0.8184189796447754,-0.32,0.03,0.32,0.45
0.82834792137146,-0.4,0.08,0.26,0.48
0.8382978439331055,-0.39,0.04,0.07,0.39
0.8482718467712402,-0.35,-0.02,-0.03,0.35
0.8580589294433594,-0.36,0.05,-0.19,0.41
0.871068000793457,-0.33,0.19,-0.28,0.47
0.8930268287658691,-0.27,0.33,-0.17,0.45
0.8946049213409424,-0.39,0.19,-0.03,0.43
0.897273063659668,-0.41,-0.01,-0.19,0.45
0.9079039096832275,-0.22,-0.08,-0.34,0.41
0.9193720817565918,-0.06,-0.02,-0.38,0.38
0.9277529716491699,0.16,0.16,-0.4,0.45
0.9372959136962891,0.15,0.22,-0.32,0.41
0.9475798606872559,-0.35,0.1,-0.17,0.4
0.9574418067932129,-0.64,0.16,-0.13,0.67
0.9702179431915283,-0.44,0.17,-0.21,0.51
0.9971489906311035,-0.16,0.17,-0.41,0.47
0.9987387657165527,-0.04,0.16,-0.32,0.36
1.000180959701538,-0.29,0.14,-0.2,0.37
1.0195808410644531,-0.44,0.14,-0.28,0.54
1.020956039428711,-0.32,0.16,-0.44,0.56
1.0356478691101074,-0.08,0.22,-0.58,0.62
1.037147045135498,0.12,0.19,-0.69,0.72
1.0531868934631348,0.18,0.19,-0.78,0.82
1.0568909645080566,0.05,0.24,-0.6,0.64
1.07029390335083,-0.28,0.3,-0.45,0.6
1.096627950668335,-0.69,0.32,-0.56,0.94
1.0985188484191895,-0.92,0.38,-0.83,1.29
1.099905014038086,-0.92,0.47,-0.99,1.43
1.1199839115142822,-0.77,0.53,-1.08,1.42
1.1214489936828613,-0.67,0.55,-1.08,1.38
1.1358890533447266,-0.67,0.59,-0.99,1.33
1.1372780799865723,-0.75,0.65,-0.93,1.36
1.156383991241455,-0.82,0.77,-1.03,1.52
1.1599938869476318,-0.81,0.81,-1.02,1.53
1.1657428741455078,-0.58,0.82,-0.95,1.38
1.194192886352539,-0.36,0.82,-0.78,1.18
1.1961660385131836,-0.47,0.97,-0.67,1.26
1.1975829601287842,-0.78,1.38,-0.83,1.78
1.2055678367614746,-0.69,1.8,-1.27,2.3
1.215588092803955,-1.47,2.55,-1.55,3.32
1.2254490852355957,-2.99,4.25,-0.96,5.28
1.2354049682617188,-3.45,5.47,-1.51,6.64
1.245642900466919,-3.22,4.96,-2.95,6.6
1.2575130462646484,-2.8,4.58,-3.29,6.29
1.267401933670044,-1.81,4.43,-3.67,6.03
1.3026180267333984,-1.35,3.58,-4.33,5.77
1.3042678833007812,-1.7,3.01,-4.66,5.8
1.3057029247283936,-1.9,3.16,-4.12,5.52
1.3200697898864746,-1.14,3.11,-3.85,5.07
1.3214960098266602,-0.1,3.11,-3.24,4.49
1.3357799053192139,1.01,3.16,-1.98,3.86
1.3372349739074707,1.32,0.84,-1.9,2.46
1.3525810241699219,-0.08,-1.49,-3.15,3.48
1.354085922241211,-0.02,0.46,-0.22,0.51
1.3688559532165527,-2.08,-1.72,-1.12,2.92
1.3744888305664062,-4.49,-2.86,-2.38,5.83
1.4088120460510254,-5.82,-2.44,-1.82,6.56
1.410463809967041,-6.68,-2.29,-0.99,7.13
1.4123239517211914,-6.88,-2.58,0.11,7.34
1.4184250831604004,-6.62,-3.28,1.37,7.51
1.4238159656524658,-6.35,-4.16,1.94,7.83
1.4357967376708984,-6.26,-4.7,2.1,8.1
1.443748950958252,-6.07,-4.64,2.22,7.95
1.4534368515014648,-5.6,-4.19,2.38,7.38
1.4636049270629883,-5.06,-4.01,2.29,6.85
1.4732580184936523,-4.68,-4.15,2.06,6.58
1.497865915298462,-4.39,-4.48,1.67,6.49
1.4996988773345947,-4.08,-4.7,1.42,6.38
1.5027899742126465,-3.63,-4.84,1.3,6.18
1.519852876663208,-3.0,-4.91,1.26,5.89
1.5229167938232422,-2.26,-5.01,1.23,5.63
1.5361080169677734,-1.53,-4.92,1.36,5.32
1.543004035949707,-0.92,-4.59,1.6,4.94
1.5529017448425293,-0.17,-4.2,1.81,4.57
1.5633208751678467,0.8,-3.9,1.71,4.33
1.5749008655548096,1.81,-3.56,1.48,4.25
1.602283000946045,2.63,-3.08,1.44,4.29
1.603954792022705,3.12,-2.49,1.59,4.29
1.6048619747161865,3.05,-1.82,1.76,3.96
1.6204979419708252,3.0,-1.03,1.91,3.7
1.6222429275512695,3.29,-0.3,2.08,3.9
1.6355319023132324,3.71,0.18,2.09,4.26
1.6420109272003174,4.01,0.47,2.14,4.56
1.6530838012695312,4.41,0.81,2.56,5.16
1.6621909141540527,4.89,0.92,2.82,5.71
1.6718668937683105,5.56,1.06,3.35,6.57
1.6993908882141113,6.2,1.06,3.62,7.25
1.7011759281158447,6.89,0.78,3.73,7.87
1.702605962753296,6.42,0.33,3.36,7.25
1.7204029560089111,5.43,0.15,3.39,6.4
1.7218608856201172,4.32,2.77,2.02,5.51
1.7363488674163818,0.8,3.45,-4.71,5.89
1.7414579391479492,-7.4,3.23,-14.22,16.35
1.7522997856140137,-9.75,22.81,-9.12,26.42
1.7614729404449463,-3.76,44.41,5.87,44.95
1.77140474319458,-2.29,14.07,-8.59,16.64
1.8067848682403564,1.96,-2.07,-4.92,5.68
1.808656930923462,3.31,-7.98,2.07,8.88
1.8101439476013184,2.83,-12.54,4.76,13.7
1.8205890655517578,5.37,-11.87,7.49,15.02
1.8221039772033691,7.24,-7.44,6.67,12.33
1.8363628387451172,4.69,-2.02,2.86,5.85
1.8406190872192383,1.57,2.18,0.58,2.74
1.8529999256134033,-0.52,3.77,-2.54,4.57
1.8606457710266113,-0.9,2.74,-3.13,4.25
1.8707199096679688,0.17,1.22,-0.07,1.23
1.9062480926513672,0.68,-0.4,2.5,2.62
1.908094882965088,0.77,-1.33,3.43,3.75
1.9095559120178223,0.98,-1.56,2.07,2.77
1.9112598896026611,0.97,-0.87,0.39,1.36
1.9203169345855713,0.62,-0.02,-0.25,0.66
1.929715871810913,0.21,0.15,-0.29,0.38
1.939857006072998,0.13,-0.09,-0.2,0.25
1.950049877166748,0.19,-0.19,-0.37,0.45
1.959892749786377,0.13,0.07,-0.62,0.63
1.9696950912475586,-0.03,0.43,-0.7,0.82
2.0026769638061523,-0.17,0.52,-0.65,0.84
2.0043299198150635,-0.13,0.48,-0.57,0.75
2.0058059692382812,-0.07,0.28,-0.61,0.67
2.020577907562256,0.04,0.11,-0.41,0.42
2.0220580101013184,0.08,0.04,0.18,0.2
2.036226749420166,0.02,-0.03,0.56,0.56
2.0391149520874023,0.11,-0.14,0.31,0.35
2.0529608726501465,0.1,-0.11,0.04,0.15
2.0588760375976562,-0.06,0.12,0.13,0.18
2.0693249702453613,-0.09,0.17,0.15,0.24
2.1076459884643555,0.13,0.07,-0.08,0.16
2.109499931335449,0.28,0.08,-0.36,0.46
2.110930919647217,0.26,0.19,-0.33,0.46
2.1163439750671387,0.22,0.2,-0.16,0.33
2.1184098720550537,0.18,0.11,-0.11,0.23
2.136401891708374,-0.02,0.08,0.03,0.08
2.138110876083374,-0.14,0.09,-0.02,0.16
2.1532187461853027,-0.13,0.11,-0.04,0.17
2.158167839050293,-0.21,0.23,0.16,0.35
2.1685118675231934,-0.32,0.28,0.09,0.43
2.178571939468384,-0.41,0.35,0.09,0.54
2.2046937942504883,-0.56,0.39,-0.05,0.68
2.206326961517334,-0.68,0.42,-0.33,0.86
2.207730770111084,-0.71,0.46,-0.66,1.07
2.2212719917297363,-0.7,0.51,-0.92,1.26
2.2276358604431152,-0.77,0.6,-0.89,1.32
2.2376270294189453,-1.01,0.67,-0.65,1.37
2.247602939605713,-1.28,0.71,-0.5,1.54
2.257467746734619,-1.48,0.74,-0.63,1.77
2.2672228813171387,-1.51,0.88,-0.92,1.97
2.2804107666015625,-1.36,0.99,-1.17,2.04
2.306196928024292,-1.22,1.0,-0.87,1.8
2.307828903198242,-1.13,0.89,-0.54,1.53
2.309583902359009,-0.92,0.69,-0.5,1.25
2.3215739727020264,-0.93,0.49,-0.65,1.23
2.3271288871765137,-1.04,0.75,-0.78,1.5
2.3368539810180664,-0.88,1.27,-0.88,1.77
2.3466238975524902,-0.63,1.72,-0.73,1.97
2.3569188117980957,-0.94,2.26,-0.49,2.49
2.36676287651062,-1.48,2.78,-0.35,3.16
2.3767709732055664,-2.19,3.07,-0.46,3.79
2.4020369052886963,-2.73,3.41,-0.6,4.4
2.403843879699707,-3.44,3.95,-0.9,5.31
2.406195878982544,-4.54,5.12,-1.28,6.96
2.416505813598633,-5.82,7.21,-1.63,9.4
2.426379919052124,-7.15,9.15,-3.54,12.13
2.4363958835601807,-8.38,9.9,-5.68,14.15
2.4460389614105225,-9.27,10.52,-5.4,15.02
2.4565939903259277,-9.67,10.62,-5.75,15.47
2.4658517837524414,-10.2,9.65,-6.81,15.6
2.47636079788208,-10.52,9.4,-6.61,15.57
2.506532907485962,-10.16,9.9,-5.68,15.28
2.508327007293701,-8.81,11.6,-3.7,15.02
2.5098109245300293,-5.83,12.08,-3.84,13.95
2.5198378562927246,-0.51,11.77,-4.39,12.57
2.5252668857574463,3.07,11.68,-2.06,12.25
2.535547971725464,2.13,6.89,-3.17,7.87
2.5453438758850098,-2.5,1.01,-6.98,7.48
2.5553407669067383,-3.85,1.4,-5.37,6.75
2.5654609203338623,0.27,4.93,0.16,4.93
2.57560396194458,0.47,0.34,-1.67,1.76
2.616809844970703,-2.65,-1.88,-4.04,5.18
2.6185319423675537,-5.25,-2.49,-3.37,6.71
2.6199607849121094,-7.88,-2.7,-2.7,8.75
2.6373000144958496,-9.94,-3.13,-2.34,10.68
2.638786792755127,-10.49,-3.92,-1.4,11.28
2.6530449390411377,-9.44,-4.96,0.19,10.66
2.6545069217681885,-8.03,-6.14,1.41,10.2
2.6700799465179443,-7.14,-6.87,2.0,10.1
2.671548843383789,-6.69,-6.72,2.28,9.75
2.6894829273223877,-6.48,-5.78,1.55,8.82
2.714514970779419,-6.39,-5.16,0.16,8.21
2.716118812561035,-6.19,-4.95,-0.92,7.97
2.717097759246826,-6.07,-4.76,-1.51,7.86
2.7373337745666504,-5.68,-4.99,-2.06,7.83
2.7387847900390625,-5.14,-5.04,-2.53,7.63
2.7534549236297607,-4.76,-5.01,-2.69,7.41
2.754901885986328,-4.36,-5.42,-2.48,7.38
2.770188808441162,-3.86,-5.91,-2.09,7.36
2.7716269493103027,-3.35,-6.23,-1.81,7.3
2.786695957183838,-2.92,-6.56,-1.68,7.37
2.8107519149780273,-2.62,-6.78,-1.44,7.4
2.8121700286865234,-2.49,-6.99,-1.07,7.49
2.8132169246673584,-2.39,-7.01,-0.36,7.41
2.815671920776367,-2.19,-6.63,0.43,6.99
2.8367810249328613,-1.93,-5.9,0.89,6.27
2.8382568359375,-1.46,-4.76,1.2,5.12
2.853404998779297,-0.54,-3.09,1.27,3.38
2.8548707962036133,0.87,-1.2,1.11,1.85
2.8688087463378906,2.88,0.98,1.33,3.32
2.873494863510132,5.66,3.22,1.88,6.77
2.911707878112793,8.65,5.21,2.03,10.29
2.913393020629883,11.68,6.81,2.42,13.73
2.914980888366699,14.51,8.17,2.81,16.88
2.916628837585449,16.73,8.79,3.45,19.21
2.922022819519043,18.34,8.22,3.66,20.42
2.932647943496704,19.27,7.52,3.57,20.99
2.9424309730529785,19.89,7.36,3.57,21.5
2.9523987770080566,20.08,6.67,3.63,21.46
2.9622888565063477,18.29,6.32,3.76,19.71
2.972269058227539,13.26,11.71,2.76,17.9
2.982132911682129,5.37,1.65,-6.2,8.36
3.009483814239502,-7.53,-3.23,-16.84,18.72
3.0112738609313965,-20.35,24.16,-14.07,34.58
3.0129008293151855,-19.3,52.79,8.86,56.9
3.0211758613586426,-11.16,16.44,-1.58,19.93
3.0318028926849365,-1.53,-6.72,-2.2,7.23
3.0414509773254395,5.53,-9.68,7.28,13.31
3.0514907836914062,11.55,-8.47,8.42,16.61
3.0613317489624023,13.33,-9.34,4.8,16.96
3.071441888809204,12.35,-6.92,1.73,14.26
3.0813398361206055,7.82,-1.04,2.52,8.28
3.1090149879455566,2.35,1.18,0.95,2.79
3.110679864883423,-1.1,1.82,-1.01,2.35
3.1120638847351074,-1.95,2.87,-1.16,3.65
3.1209259033203125,-0.59,2.19,-0.27,2.28
3.130905866622925,1.55,0.01,0.37,1.59
3.140711784362793,2.53,-1.35,0.95,3.02
3.150984764099121,1.82,-1.76,0.93,2.69
3.160717010498047,0.66,-1.21,0.96,1.67
3.1705338954925537,0.4,-0.32,0.84,0.98
3.1802749633789062,0.65,0.06,0.3,0.71
3.211361885070801,0.74,-0.02,-0.07,0.74
3.213092803955078,0.56,-0.05,0.04,0.56
3.2144670486450195,0.27,0.06,0.3,0.4
3.2201249599456787,0.23,0.06,0.16,0.28
3.2369589805603027,0.4,0.03,-0.12,0.41
3.2400050163269043,0.37,0.17,-0.03,0.4
3.2500619888305664,0.13,0.21,0.1,0.26
3.2599599361419678,-0.02,0.02,-0.17,0.17
3.270047903060913,0.05,-0.09,-0.4,0.41
3.2796919345855713,0.19,-0.13,-0.34,0.41
3.3108489513397217,0.15,-0.13,-0.22,0.29
3.312370777130127,0.05,-0.08,-0.01,0.09
3.313485860824585,0.02,0.0,0.15,0.15
3.3190550804138184,0.02,0.1,0.27,0.28
3.3368759155273438,-0.04,0.18,0.49,0.52
3.3391809463500977,-0.22,0.24,0.66,0.73
3.3534419536590576,-0.42,0.3,0.68,0.85
3.359104871749878,-0.58,0.32,0.39,0.76
3.3689937591552734,-0.73,0.33,-0.11,0.8
3.379322052001953,-1.0,0.28,-0.8,1.31
3.4176368713378906,-1.5,0.33,-1.38,2.06
3.4193649291992188,-2.13,0.55,-1.7,2.78
3.4207918643951416,-2.51,0.92,-1.68,3.15
3.437376022338867,-2.19,1.08,-1.37,2.79
3.4387929439544678,-1.58,0.85,-1.37,2.25
3.45725679397583,-1.03,0.67,-1.57,1.99
3.458695888519287,-0.72,0.78,-1.38,1.74
3.4694879055023193,-0.78,0.83,-1.14,1.61
3.47094988822937,-0.94,0.72,-1.13,1.63
3.4860568046569824,-1.1,0.63,-1.18,1.73
3.509842872619629,-1.19,0.55,-1.26,1.81
3.5111279487609863,-1.07,0.52,-1.13,1.64
3.5122427940368652,-0.78,0.51,-0.86,1.26
3.517565965652466,-0.46,0.5,-0.66,0.94
3.527554988861084,-0.25,0.54,-0.66,0.88
3.537639856338501,-0.24,0.65,-0.72,0.99
3.5479838848114014,-0.28,1.02,-0.1,1.06
3.5576210021972656,-0.49,1.58,0.48,1.72
3.567725896835327,-0.89,1.63,0.08,1.85
3.5774898529052734,-1.23,1.86,0.95,2.42
3.6159257888793945,-2.12,2.4,1.2,3.41
3.6177029609680176,-2.35,3.04,0.69,3.9
3.619114875793457,-2.62,3.97,0.12,4.75
3.6385018825531006,-3.18,5.21,-0.58,6.13
3.6399269104003906,-4.18,6.05,-1.9,7.59
3.6532979011535645,-5.14,6.56,-3.04,8.87
3.6547329425811768,-5.77,7.49,-3.24,9.99
3.671144962310791,-6.48,8.1,-4.42,11.27
3.673353910446167,-7.16,8.16,-5.12,12.0
3.6871299743652344,-7.93,8.41,-4.5,12.4
3.7157158851623535,-9.35,7.9,-4.28,12.96
3.717094898223877,-10.17,7.34,-4.27,13.24
3.718069076538086,-10.36,7.11,-4.27,13.27
3.737252950668335,-9.15,8.52,-3.08,12.87
3.7387380599975586,-5.13,10.08,-2.5,11.58
3.753649950027466,-0.25,10.2,-3.22,10.69
3.755168914794922,3.37,8.8,-3.27,9.97
3.7703990936279297,4.28,5.78,-2.29,7.54
3.771868944168091,0.48,1.79,-2.97,3.5
3.7859208583831787,-3.96,-1.31,-4.05,5.81
3.7873778343200684,-3.34,-0.97,-4.57,5.74
3.833098888397217,2.04,3.39,-0.47,3.98
3.8346657752990723,1.44,0.19,-1.44,2.04
3.8355960845947266,-2.83,-1.56,-4.01,5.15
3.854440927505493,-5.48,-1.79,-2.37,6.23
3.855949878692627,-7.95,-1.91,-1.49,8.31
3.8701419830322266,-10.01,-2.32,-1.44,10.37
3.8716108798980713,-10.35,-3.04,-0.82,10.81
3.8870677947998047,-8.91,-4.02,0.45,9.78
3.888576030731201,-7.13,-5.07,1.08,8.81
3.902432918548584,-5.91,-5.58,0.84,8.17
3.930691957473755,-5.43,-5.03,0.37,7.41
3.932713031768799,-5.66,-4.12,-0.37,7.01
3.9337220191955566,-5.41,-4.16,-0.95,6.89
3.9543778896331787,-4.88,-4.58,-1.41,6.83
3.9558539390563965,-4.69,-5.11,-1.73,7.14
3.9705348014831543,-4.76,-5.68,-1.93,7.65
3.971951961517334,-4.76,-6.01,-1.97,7.91
3.987414836883545,-4.57,-6.43,-2.0,8.13
3.9889109134674072,-4.24,-6.99,-2.02,8.42
4.0061609745025635,-3.9,-7.49,-1.93,8.66
4.036996841430664,-3.55,-8.0,-1.76,8.92
4.038320064544678,-3.26,-8.38,-1.54,9.12
4.039308071136475,-3.08,-8.87,-1.52,9.51
4.054865837097168,-2.96,-9.17,-1.2,9.71
4.0563249588012695,-2.9,-8.92,-0.53,9.39
4.070603847503662,-2.78,-8.18,0.37,8.64
4.072071075439453,-2.03,-6.8,0.87,7.14
4.0862298011779785,-0.43,-5.01,0.64,5.06
4.087771892547607,1.48,-2.91,0.97,3.4
4.102982044219971,3.25,-0.16,2.26,3.96
4.128752946853638,5.13,3.34,3.73,7.16
4.130127906799316,7.27,7.17,4.75,11.26
4.1311728954315186,9.52,11.07,5.49,15.59
4.133651971817017,11.83,14.85,5.84,19.86
4.135218858718872,13.61,16.75,4.94,22.14
4.142888069152832,15.73,16.58,4.09,23.21
4.152845859527588,18.16,15.11,4.24,24.0
4.162872791290283,18.83,16.61,4.62,25.53
4.172876834869385,19.64,15.41,1.64,25.01
4.183058738708496,14.44,2.72,-9.75,17.63
4.215969085693359,-1.12,4.64,-17.87,18.49
4.217146873474121,-10.91,39.24,-9.09,41.73
4.218134880065918,-13.83,27.81,0.64,31.06
4.233613967895508,-6.22,-1.42,2.99,7.04
4.234586954116821,2.76,-7.77,8.7,11.98
4.249898910522461,5.85,-11.97,10.74,17.11
4.252192974090576,8.56,-11.5,7.0,15.95
4.271297931671143,9.72,-6.87,3.65,12.44
4.27291202545166,6.69,-1.24,1.71,7.01
4.286377906799316,2.89,2.52,-0.4,3.85
4.3187360763549805,0.38,3.98,-4.62,6.1
4.320080757141113,-0.3,2.34,-4.81,5.35
4.321119785308838,0.79,0.73,-0.11,1.08
4.338025093078613,1.24,-0.51,3.74,3.97
4.339091777801514,0.64,-1.7,3.21,3.68
4.353702068328857,0.6,-1.87,0.25,1.97
4.355199813842773,1.48,-0.51,-1.02,1.86
4.37073278427124,1.76,0.34,-0.84,1.97
4.372219085693359,1.12,0.14,0.19,1.14
4.386260032653809,0.47,-0.38,0.79,0.99
4.418337821960449,0.39,-0.41,0.47,0.73
4.419615745544434,0.57,0.04,0.16,0.59
4.4206459522247314,0.63,0.21,0.14,0.67
4.4382758140563965,0.55,-0.05,0.32,0.63
4.43974494934082,0.35,-0.27,0.6,0.74
4.453999996185303,0.05,-0.27,0.88,0.92
4.455390930175781,-0.06,-0.17,0.84,0.85
4.470430850982666,0.17,-0.17,0.37,0.44
4.4718017578125,0.39,-0.13,-0.09,0.42
4.486282825469971,0.44,-0.12,-0.35,0.57
4.517315864562988,0.32,-0.12,-0.41,0.53
4.5185227394104,0.02,-0.02,-0.21,0.21
4.519523859024048,-0.29,0.08,-0.03,0.3
4.5394110679626465,-0.5,0.22,0.05,0.54
4.540473937988281,-0.53,0.33,-0.09,0.63
4.551191806793213,-0.54,0.44,-0.07,0.7
4.552673816680908,-0.52,0.52,0.09,0.74
4.570689916610718,-0.53,0.38,-0.19,0.67
4.572165012359619,-0.66,0.27,-0.42,0.82
4.586302757263184,-0.91,0.37,-0.43,1.07
4.589837074279785,-1.14,0.52,-0.57,1.37
4.6304030418396,-1.35,0.63,-0.72,1.65
4.631589889526367,-1.58,0.74,-1.0,2.01
4.632561922073364,-1.85,0.88,-1.48,2.52
4.634684085845947,-1.89,1.09,-1.81,2.83
4.639230966567993,-1.58,1.21,-1.75,2.65
4.649241924285889,-1.23,1.07,-1.56,2.25
4.6596009731292725,-1.07,0.79,-1.33,1.88
4.669344902038574,-1.13,0.75,-1.14,1.77
4.67922306060791,-1.29,0.81,-1.22,1.95
4.689100742340088,-1.36,0.93,-1.13,1.99
4.719711780548096,-1.25,1.07,-1.08,1.96
4.720844745635986,-1.09,1.14,-1.37,2.08
4.7218499183654785,-0.9,1.37,-1.44,2.18
4.737967014312744,-1.01,1.81,-1.34,2.46
4.739469051361084,-1.24,2.4,-1.11,2.92
4.753975868225098,-1.19,2.45,-1.59,3.15
4.758606910705566,-1.42,3.11,-1.23,3.63
4.770788908004761,-1.83,3.48,-0.93,4.04
4.778505802154541,-2.74,3.65,-0.6,4.6
4.788180828094482,-3.75,4.29,-0.03,5.69
4.819212913513184,-4.78,5.67,0.07,7.41
4.820541858673096,-5.8,7.69,-0.77,9.66
4.821568012237549,-6.77,8.46,-3.39,11.35
4.8385210037231445,-7.77,8.73,-4.43,12.49
4.840031862258911,-9.06,10.06,-4.95,14.41
4.854197978973389,-9.93,10.95,-6.98,16.34
4.857748985290527,-9.99,10.5,-7.99,16.54
4.870954990386963,-9.52,9.64,-7.86,15.66
4.8778910636901855,-9.09,8.37,-8.14,14.79
4.887381076812744,-8.07,9.4,-6.69,14.07
4.920101881027222,-5.07,12.15,-4.16,13.8
4.921460866928101,0.03,12.07,-4.09,12.74
4.922486782073975,3.7,9.13,-3.71,10.52
4.938535928726196,2.84,3.5,-4.73,6.53
4.940086841583252,-2.03,-1.73,-5.8,6.38
4.9545629024505615,-3.75,-1.38,-3.73,5.46
4.957118034362793,0.84,3.09,1.67,3.61
4.967119932174683,1.39,-0.99,-1.43,2.22
4.977046012878418,-1.7,-2.54,-4.74,5.63
4.986880779266357,-3.98,-1.54,-3.98,5.83
5.028360843658447,-6.39,-1.18,-3.97,7.61
5.029543876647949,-8.17,-1.53,-3.9,9.18
5.030519962310791,-8.19,-2.32,-2.85,8.97
5.033864974975586,-6.97,-3.67,-1.34,7.99
5.054629802703857,-5.8,-5.31,-0.31,7.86
5.056096076965332,-5.32,-6.61,0.14,8.48
5.070364952087402,-5.02,-7.29,0.38,8.85
5.071858882904053,-4.53,-7.08,-0.16,8.4
5.086585998535156,-4.34,-5.58,-1.32,7.19
5.087987899780273,-4.3,-4.49,-2.68,6.76
5.1313347816467285,-4.2,-4.3,-3.51,6.96
5.132508754730225,-4.21,-4.45,-3.76,7.18
5.1335039138793945,-3.77,-4.96,-4.05,7.43
5.154976844787598,-3.44,-5.24,-3.96,7.41
5.156445026397705,-3.17,-5.97,-3.58,7.64
5.170931816101074,-2.82,-6.79,-3.12,7.98
5.172355890274048,-2.36,-7.44,-2.83,8.3
5.187962055206299,-1.96,-8.16,-2.8,8.84
5.189427852630615,-1.68,-8.73,-2.88,9.34
5.20335578918457,-1.59,-9.08,-2.69,9.6
5.231784820556641,-1.73,-9.21,-2.15,9.61
5.233046054840088,-2.12,-8.88,-1.07,9.19
5.234032869338989,-2.1,-8.1,0.29,8.37
5.255068778991699,-1.29,-7.25,1.59,7.53
5.256168842315674,0.03,-6.43,2.13,6.77
5.270822048187256,1.53,-5.36,1.83,5.86
5.272279739379883,3.08,-3.4,2.46,5.2
5.288058757781982,4.63,-0.56,4.3,6.34
5.28955078125,6.61,2.27,5.95,9.17
5.3032379150390625,8.98,4.81,6.82,12.25
5.334160804748535,10.98,7.36,7.85,15.37
5.3354997634887695,12.87,10.27,8.57,18.56
5.336536884307861,14.62,12.95,9.11,21.55
5.3543620109558105,16.13,15.27,10.0,24.35
5.355475902557373,17.09,15.91,10.37,25.54
5.369996070861816,17.06,14.35,9.97,24.42
5.371487855911255,17.04,12.62,7.05,22.34
5.388168811798096,15.53,7.81,-3.36,17.7
5.389647960662842,3.49,-4.81,-17.91,18.87
5.40219783782959,-11.56,0.13,-38.6,40.29
5.403730869293213,-20.0,52.36,-14.59,57.91
5.446837902069092,-20.29,46.55,13.76,52.61
5.448342800140381,-10.7,2.66,8.2,13.74
5.449650764465332,0.06,-10.7,11.72,15.86
5.45111608505249,5.61,-15.73,9.94,19.43
5.452613830566406,9.04,-16.9,5.8,20.02
5.453932762145996,11.34,-11.61,4.08,16.73
5.462912082672119,9.87,-4.45,3.72,11.44
5.473062038421631,5.98,-0.01,2.43,6.45
5.483193874359131,2.21,2.86,-1.67,3.98
5.492941856384277,-0.12,4.53,-5.55,7.16
5.5195159912109375,-0.67,4.54,-3.57,5.81
5.521000862121582,-0.06,1.92,1.32,2.33
5.5226240158081055,0.68,-0.77,2.32,2.53
5.536941051483154,0.87,-2.33,1.53,2.92
5.542757987976074,1.07,-2.06,0.31,2.34
5.554451942443848,1.08,-0.85,-0.33,1.41
5.5625739097595215,0.61,-0.08,0.02,0.61
5.572368860244751,0.33,-0.05,0.35,0.48
5.582369804382324,0.54,-0.17,0.57,0.8
5.592120885848999,0.56,-0.01,0.33,0.65
5.620930910110474,0.24,0.29,-0.22,0.43
5.622285842895508,-0.03,0.49,-0.29,0.57
5.623310089111328,-0.07,0.48,-0.2,0.52
5.638772964477539,0.13,0.21,-0.27,0.36
5.641756057739258,0.3,-0.2,-0.28,0.45
5.654750823974609,0.34,-0.46,-0.36,0.67
5.6617960929870605,0.32,-0.46,-0.45,0.71
5.6717469692230225,0.34,-0.24,-0.08,0.42
5.6815478801727295,0.17,-0.01,0.35,0.38
5.69189977645874,-0.04,0.1,0.21,0.23
5.720654010772705,-0.15,0.22,0.03,0.26
5.721932888031006,-0.21,0.34,0.03,0.4
5.722888946533203,-0.31,0.35,0.06,0.47
5.739001750946045,-0.34,0.35,0.16,0.51
5.7409820556640625,-0.31,0.31,0.1,0.44
5.754580974578857,-0.22,0.25,-0.11,0.35
5.761234760284424,-0.26,0.2,-0.18,0.37
5.77082896232605,-0.45,0.24,-0.07,0.51
5.780935764312744,-0.66,0.31,-0.24,0.76
5.7909369468688965,-0.76,0.29,-0.49,0.94
5.828176021575928,-0.68,0.29,-0.77,1.06
5.829561948776245,-0.44,0.37,-0.76,0.95
5.830564975738525,-0.34,0.38,-0.68,0.84
5.833937883377075,-0.46,0.39,-0.89,1.07
5.840126991271973,-0.61,0.57,-1.01,1.31
5.854630947113037,-0.76,0.82,-0.86,1.41
5.860153913497925,-0.91,0.99,-0.62,1.48
5.871289968490601,-1.15,1.07,-0.35,1.6
5.880325794219971,-1.36,1.17,-0.11,1.79
5.88982892036438,-1.41,1.2,-0.38,1.89
5.924654960632324,-1.34,1.22,-0.75,1.96
5.925890922546387,-1.28,1.41,-0.9,2.1
5.926908016204834,-1.18,1.68,-1.26,2.4
5.938261985778809,-1.2,1.99,-1.57,2.8
5.939215898513794,-1.39,2.34,-1.57,3.14
5.954633951187134,-1.67,2.67,-1.26,3.39
5.959406852722168,-2.19,2.73,-1.08,3.66
5.969850063323975,-2.61,2.93,-0.99,4.04
5.979238986968994,-2.88,3.21,-1.08,4.44
5.989250898361206,-3.1,3.62,-1.2,4.91
6.026572942733765,-3.5,4.26,-1.36,5.67
6.028091907501221,-4.43,5.31,-1.64,7.1
6.0291359424591064,-5.69,6.81,-2.3,9.16
6.038229942321777,-6.67,7.86,-4.04,11.07
6.039512872695923,-7.65,8.3,-5.94,12.75
6.0547919273376465,-8.35,8.94,-6.86,14.02
6.058712959289551,-8.44,9.37,-7.34,14.59
6.069089889526367,-8.4,9.15,-7.34,14.42
6.078650951385498,-8.68,8.46,-7.12,14.05
6.08846378326416,-8.26,9.38,-6.09,13.9
6.126388072967529,-6.65,11.46,-4.8,14.09
6.127823829650879,-3.11,12.1,-5.13,13.5
6.128849029541016,1.21,12.17,-5.57,13.43
6.138128757476807,2.76,9.15,-4.52,10.57
6.139187812805176,0.21,3.39,-4.47,5.61
6.154854774475098,-3.47,-1.19,-5.25,6.4
6.157899856567383,-3.39,-3.04,-6.27,7.74
6.169818878173828,1.88,1.14,-1.97,2.95
6.178140878677368,2.84,-0.48,0.92,3.02
6.18789005279541,-2.5,-3.25,-2.89,5.01
6.197694778442383,-6.54,-3.77,-3.04,8.13
6.231006860733032,-9.12,-3.02,-1.97,9.8
6.232156753540039,-11.16,-2.82,-2.18,11.71
6.233159065246582,-11.73,-3.02,-1.98,12.27
6.237144947052002,-9.82,-3.58,-0.91,10.49
6.247206926345825,-7.18,-4.72,0.28,8.59
6.257528781890869,-5.76,-5.96,0.65,8.31
6.267531871795654,-5.45,-6.62,0.59,8.59
6.277297019958496,-5.41,-6.19,0.26,8.22
6.28714394569397,-5.44,-4.97,-0.58,7.39
6.296939849853516,-5.35,-4.15,-1.79,7.0
6.328348875045776,-4.87,-3.9,-2.53,6.73
6.329555034637451,-4.43,-3.92,-2.88,6.57
6.3307108879089355,-4.26,-4.1,-3.08,6.66
6.336418867111206,-4.01,-4.38,-3.23,6.75
6.346772909164429,-3.44,-4.63,-3.27,6.63
6.356451034545898,-2.64,-5.13,-3.24,6.61
6.366477012634277,-1.83,-5.84,-3.44,7.02
6.3762688636779785,-1.11,-6.45,-3.77,7.55
6.386420965194702,-0.52,-6.9,-3.87,7.92
6.396282911300659,-0.09,-6.95,-3.07,7.59
6.428022861480713,0.27,-6.63,-2.42,7.06
6.429401874542236,0.93,-6.03,-2.53,6.6
6.430442810058594,2.18,-5.02,-2.38,5.96
6.435455799102783,3.86,-3.88,-1.61,5.7
6.445513963699341,5.52,-2.45,-0.33,6.04
6.455622911453247,6.94,-0.54,1.43,7.1
6.465531826019287,7.96,1.59,2.98,8.64
6.475641965866089,8.64,3.72,4.11,10.26
6.4856977462768555,9.82,5.89,5.41,12.66
6.495495796203613,11.55,7.73,6.47,15.33
6.526624917984009,13.54,8.9,7.13,17.7
6.5280280113220215,15.67,9.11,8.09,19.84
6.529049873352051,16.6,8.3,8.51,20.41
6.538562774658203,16.31,8.61,9.02,20.53
6.5449700355529785,14.85,9.18,8.57,19.44
6.555108070373535,12.55,11.32,6.39,18.06
6.564812898635864,8.29,12.86,4.82,16.04
6.575112819671631,2.56,4.25,-3.56,6.1
6.58492374420166,-8.98,-0.7,-13.91,16.57
6.594719886779785,-20.68,32.22,-12.05,40.13
6.630975961685181,-20.7,41.03,5.94,46.33
6.632400035858154,-11.16,8.47,8.99,16.64
6.633461952209473,-1.12,-7.73,5.34,9.46
6.635657787322998,7.02,-9.64,6.55,13.6
6.644075870513916,13.06,-7.39,5.28,15.9
6.654331922531128,13.42,-5.57,2.62,14.76
6.6641340255737305,11.11,-2.35,0.14,11.35
6.674261093139648,6.06,0.08,-0.42,6.07
6.684274911880493,1.51,0.47,0.41,1.63
6.693912982940674,-0.37,-0.17,0.42,0.58
6.731348991394043,0.02,-0.02,0.0,0.02
6.73279595375061,0.77,1.13,-0.49,1.45
6.73376989364624,0.7,1.38,-0.07,1.54
6.735960960388184,0.33,0.16,1.41,1.45
6.743257999420166,0.19,-0.95,2.48,2.66
6.753483772277832,0.1,-1.29,1.87,2.27
6.763516902923584,0.11,-0.84,0.49,0.97
6.773485898971558,0.27,-0.2,-0.44,0.55
6.783480882644653,0.62,0.17,-1.14,1.3
6.7931809425354,0.87,0.33,-1.11,1.44
6.829194068908691,0.77,0.42,-0.5,1.0
6.8305909633636475,0.66,0.32,-0.13,0.74
6.831578969955444,0.67,0.0,-0.12,0.68
6.834878921508789,0.71,-0.45,-0.48,0.96
6.854890823364258,0.35,-0.66,-0.24,0.78
6.856277942657471,-0.39,-0.34,0.71,0.87
6.871691942214966,-0.71,-0.03,1.23,1.42
6.873122930526733,-0.27,0.14,0.77,0.82
6.886749744415283,0.28,0.3,0.34,0.53
6.892338752746582,0.38,0.28,-0.01,0.47
6.9284749031066895,0.1,0.12,-0.51,0.53
6.929686069488525,-0.12,0.15,-0.83,0.85
6.930835962295532,-0.19,0.35,-0.72,0.82
6.935057878494263,-0.37,0.38,-0.32,0.61
6.942044973373413,-0.72,0.33,-0.03,0.79
6.95514988899231,-0.87,0.35,-0.04,0.93
6.9618730545043945,-0.96,0.44,-0.44,1.14
6.972001075744629,-1.13,0.61,-0.89,1.56
6.981855869293213,-1.23,0.58,-1.29,1.87
6.991565942764282,-1.18,0.46,-1.21,1.75
7.001837968826294,-1.07,0.33,-1.05,1.53
7.032556056976318,-1.01,0.36,-1.08,1.52
7.03376579284668,-0.96,0.65,-1.14,1.62
7.034739017486572,-0.83,0.88,-1.04,1.59
7.056006908416748,-0.59,0.86,-0.83,1.33
7.057415962219238,-0.59,0.71,-0.62,1.11
7.07159686088562,-0.7,0.69,-0.5,1.1
7.073052883148193,-0.73,0.76,-0.56,1.19
7.0886828899383545,-0.94,0.94,-0.71,1.5
7.0908448696136475,-1.35,1.31,-0.67,1.99
7.1042869091033936,-1.88,1.79,-0.69,2.68
7.1337199211120605,-2.21,2.45,-1.07,3.46
7.135060787200928,-2.1,2.62,-2.27,4.05
7.136108875274658,-2.06,3.24,-2.64,4.65
7.155816078186035,-2.1,4.07,-2.58,5.25
7.15729284286499,-2.72,4.65,-2.4,5.89
7.1718549728393555,-3.55,5.28,-1.68,6.58
7.173305034637451,-4.62,5.97,-1.42,7.68
7.18872594833374,-5.62,7.09,-1.31,9.14
7.190220832824707,-6.67,8.82,-1.97,11.23
7.203974962234497,-8.13,10.23,-3.92,13.64
7.231873035430908,-9.54,11.56,-5.54,15.97
7.233340740203857,-10.77,12.17,-6.45,17.48
7.234444856643677,-11.66,11.89,-7.5,18.26
7.239600896835327,-11.48,11.21,-8.3,18.06
7.249505043029785,-10.96,9.82,-9.17,17.33
7.259731769561768,-10.39,9.21,-8.64,16.35
7.269815921783447,-8.06,12.17,-4.36,15.23
7.279836893081665,-3.23,14.22,-1.72,14.68
7.289463043212891,1.08,10.0,-4.53,11.03
7.299407958984375,0.81,2.47,-6.99,7.45
7.329525947570801,-2.31,-1.43,-6.02,6.6
7.330772876739502,-5.1,-3.83,-4.45,7.77
7.331943988800049,-1.47,-0.63,0.18,1.6
7.3387980461120605,4.76,1.32,6.84,8.43
7.354965925216675,2.42,-3.82,2.31,5.07
7.358626842498779,-3.28,-5.27,-1.05,6.29
7.369630813598633,-7.18,-4.65,-0.18,8.55
7.378968954086304,-9.74,-3.45,0.21,10.33
7.388485908508301,-11.54,-3.03,-0.25,11.93
7.3990478515625,-11.55,-3.14,0.01,11.96
7.43563985824585,-8.95,-3.82,1.01,9.78
7.4368109703063965,-5.71,-4.98,1.83,7.79
7.437816858291626,-4.09,-5.94,1.8,7.43
7.45581579208374,-3.88,-6.33,1.37,7.54
7.456830978393555,-4.53,-5.5,1.26,7.23
7.470589876174927,-4.75,-5.23,0.09,7.06
7.472063064575195,-4.01,-5.4,-0.89,6.78
7.4900689125061035,-3.78,-5.42,-1.6,6.79
7.491541862487793,-3.92,-5.69,-2.11,7.22
7.503031969070435,-4.12,-6.18,-2.32,7.78
7.534509897232056,-4.2,-6.74,-2.21,8.24
7.535844802856445,-4.14,-7.38,-2.01,8.69
7.536853790283203,-3.98,-7.91,-1.66,9.0
7.555929899215698,-3.77,-8.38,-1.32,9.28
7.557453870773315,-3.57,-8.91,-1.05,9.65
7.5719358921051025,-3.5,-9.24,-0.61,9.89
7.573396921157837,-3.51,-9.02,-0.05,9.67
7.588659763336182,-3.2,-8.03,0.73,8.67
7.5901198387146,-2.19,-6.38,1.34,6.87
7.604196071624756,0.11,-4.53,1.35,4.72
7.63470196723938,3.24,-2.69,2.07,4.69
7.636040925979614,6.69,-0.69,3.32,7.5
7.637049913406372,9.66,1.58,4.59,10.81
7.655801773071289,11.55,4.01,5.47,13.39
7.657294750213623,12.99,6.64,5.95,15.75
7.67219090461731,14.01,9.35,6.17,17.93
7.673660755157471,15.3,12.03,6.6,20.55
7.686844825744629,16.5,13.59,5.83,22.15
7.688310861587524,17.8,14.13,5.68,23.42
7.702323913574219,19.5,12.86,5.55,24.0
7.734677791595459,20.14,11.23,3.75,23.36
7.736025810241699,16.94,7.82,-0.65,18.66
7.737061023712158,3.81,-2.55,-11.65,12.51
7.7562479972839355,-10.43,16.83,-22.07,29.64
7.757812976837158,-20.51,56.79,-8.04,60.91
7.772118091583252,-15.9,31.79,5.27,35.93
7.773591995239258,-3.12,-2.41,7.01,8.04
7.789051055908203,2.95,-13.69,11.09,17.86
7.790543079376221,6.28,-16.65,11.23,21.04
7.8043060302734375,9.0,-13.79,7.24,17.98
7.80576491355896,9.06,-7.15,4.42,12.35
7.852048873901367,5.28,-2.77,0.78,6.01
7.853195905685425,2.6,1.3,-2.04,3.55
7.854291915893555,1.33,6.72,-6.34,9.33
7.872966766357422,0.55,3.61,-5.14,6.3
7.874119758605957,0.87,-0.21,0.66,1.11
7.8889479637146,0.39,-0.79,2.78,2.91
7.8904218673706055,-0.01,-0.9,1.74,1.95
7.9054789543151855,0.29,-0.13,-0.79,0.85
7.90696382522583,0.62,0.44,-1.11,1.34
7.921316862106323,0.58,-0.03,-0.16,0.6
7.9504170417785645,0.72,-0.71,0.63,1.19
7.951797008514404,0.97,-0.9,0.74,1.51
7.952802896499634,0.87,-0.56,0.16,1.04
7.972670078277588,0.66,-0.03,-0.41,0.77
7.9741387367248535,0.42,0.3,-0.4,0.65
7.989003896713257,0.16,0.16,0.09,0.24
7.990428924560547,-0.14,-0.03,0.28,0.31
8.005411863327026,-0.3,0.0,0.31,0.43
8.006895065307617,-0.33,0.21,0.39,0.55
8.021230936050415,-0.31,0.23,0.04,0.38
8.049091815948486,-0.2,0.14,-0.43,0.49
8.050374031066895,-0.08,0.06,-0.77,0.77
8.051386833190918,-0.02,0.0,-1.0,1.0
8.072906970977783,-0.03,0.01,-0.95,0.95
8.074398040771484,-0.11,0.11,-0.54,0.56
8.088563919067383,-0.17,0.26,0.01,0.31
8.090035915374756,-0.24,0.3,0.42,0.56
8.105519771575928,-0.3,0.24,0.64,0.74
8.107035875320435,-0.35,0.26,0.83,0.93
8.121526956558228,-0.44,0.32,0.68,0.87
8.14953899383545,-0.5,0.4,0.39,0.74
8.150819778442383,-0.46,0.43,0.09,0.63
8.15180778503418,-0.35,0.36,-0.15,0.52
8.172541856765747,-0.24,0.24,-0.26,0.42
8.17358684539795,-0.32,0.25,-0.3,0.5
8.189352035522461,-0.6,0.49,-0.25,0.81
8.190835952758789,-0.98,0.76,-0.49,1.33
8.20549988746643,-1.32,1.04,-0.73,1.83
8.206954956054688,-1.55,1.28,-1.04,2.26
8.22139596939087,-1.6,1.36,-1.37,2.5
8.249579906463623,-1.49,1.46,-1.42,2.52
8.250936031341553,-1.22,1.54,-1.48,2.45
8.251924991607666,-1.35,1.72,-1.55,2.68
8.273026943206787,-1.73,2.28,-1.4,3.18
8.274497032165527,-2.15,2.73,-1.63,3.83
8.289289951324463,-2.4,3.07,-1.83,4.3
8.290772914886475,-2.49,3.34,-1.78,4.53
8.305876970291138,-2.65,3.44,-1.78,4.69
8.3072669506073,-3.07,3.51,-1.74,4.97
8.322003841400146,-3.68,3.85,-1.74,5.6
8.35099983215332,-4.42,4.54,-1.67,6.55
8.352389812469482,-5.55,6.07,-1.47,8.35
8.353365898132324,-6.85,7.85,-2.66,10.75
8.372934818267822,-7.73,8.53,-4.58,12.38
8.374423027038574,-8.73,9.2,-5.95,14.0
8.388164043426514,-9.79,9.27,-7.7,15.52
8.389662742614746,-10.53,9.35,-7.97,16.18
8.405592918395996,-10.75,9.81,-7.48,16.36
8.407057762145996,-9.87,11.05,-6.32,16.1
8.4215829372406,-6.4,12.63,-5.85,15.31
8.449213981628418,-1.56,11.35,-7.33,13.6
8.450585842132568,3.07,11.24,-6.04,13.12
8.451604843139648,4.33,9.49,-3.13,10.89
8.474956035614014,1.33,3.1,-4.77,5.84
8.476443767547607,-3.36,-1.99,-6.14,7.27
8.488509893417358,-4.31,-3.0,-6.11,8.05
8.490001916885376,1.86,4.05,-1.53,4.71
8.505774974822998,4.08,2.38,-0.41,4.74
8.50725507736206,-0.66,-1.42,-4.23,4.51
8.52139687538147,-4.98,-1.76,-3.63,6.4
8.5517578125,-8.63,-1.14,-2.95,9.19
8.553153991699219,-11.45,-0.99,-2.93,11.86
8.554172992706299,-12.35,-1.4,-2.01,12.59
8.572686910629272,-11.09,-2.3,-0.02,11.32
8.574094772338867,-9.03,-3.82,1.97,10.0
8.589382886886597,-7.89,-5.99,3.03,10.35
8.59087586402893,-7.41,-7.76,2.99,11.13
8.60561990737915,-7.03,-7.94,2.15,10.82
8.607141971588135,-6.61,-6.42,0.8,9.24
8.621533870697021,-6.31,-4.8,-0.91,7.98
8.622945785522461,-6.02,-4.21,-2.42,7.73
8.66973876953125,-6.15,-4.03,-2.73,7.84
8.670949935913086,-5.99,-4.63,-3.19,8.21
8.671947956085205,-5.49,-4.94,-3.4,8.13
8.688745975494385,-4.87,-5.19,-3.43,7.9
8.689755916595459,-4.15,-5.69,-3.17,7.72
8.704470872879028,-3.58,-6.32,-2.84,7.79
8.705877780914307,-3.25,-6.99,-2.55,8.11
8.72010087966919,-3.24,-7.64,-2.19,8.58
8.721583843231201,-3.43,-8.23,-1.72,9.08
8.738420009613037,-3.44,-8.6,-1.03,9.31
8.767759799957275,-2.98,-8.38,-0.15,8.89
8.769160747528076,-1.98,-7.47,0.28,7.73
8.770180940628052,-0.66,-5.75,0.61,5.81
8.789621829986572,1.23,-3.95,0.13,4.13
8.791101932525635,3.65,-1.94,0.39,4.15
8.805965900421143,6.14,0.76,1.84,6.45
8.807446002960205,8.39,3.65,3.17,9.68
8.822612762451172,10.36,6.4,4.64,13.03
8.824141025543213,12.23,9.0,5.77,16.24
8.838363885879517,13.74,11.41,6.78,19.1
8.867592811584473,15.28,12.53,6.82,20.9
8.868898868560791,15.34,12.44,5.86,20.6
8.869874000549316,12.74,16.22,4.32,21.07
8.887244939804077,13.01,21.67,-0.05,25.27
8.888351917266846,14.89,22.94,-9.13,28.83
8.906149864196777,6.65,21.92,-14.63,27.17
8.907625913619995,3.08,30.87,-10.12,32.63
8.922882080078125,5.41,14.67,-3.6,16.04
8.924360752105713,4.42,-5.37,2.73,7.47
8.938113927841187,5.13,-3.39,11.19,12.76
8.969282865524292,4.67,-4.13,13.03,14.44
8.970614910125732,2.51,-7.25,3.92,8.61
8.971629858016968,3.9,-2.8,0.44,4.82
8.990583896636963,4.42,2.07,-0.79,4.94
8.99208688735962,3.29,0.27,0.53,3.34
9.005985736846924,1.91,-2.04,1.05,2.98
9.007426738739014,0.76,-1.41,0.76,1.77
9.02297592163086,0.04,0.38,0.23,0.44
9.024542808532715,-0.1,0.86,-0.46,0.98
9.038273811340332,0.39,0.35,-0.06,0.52
9.069324016571045,1.25,-0.22,-0.08,1.27
9.070607900619507,2.02,-0.47,-0.5,2.13
9.07163381576538,1.82,-0.43,-0.31,1.89
9.09046196937561,1.14,-0.39,0.39,1.26
9.091962814331055,0.7,-0.54,0.92,1.27
9.105763912200928,0.41,-0.48,0.92,1.11
9.107162952423096,0.23,-0.13,0.62,0.67
9.12325382232666,0.06,0.18,0.36,0.4
9.124790906906128,-0.07,0.28,0.14,0.32
9.138073921203613,0.05,0.28,0.01,0.28
9.168197870254517,0.24,0.15,-0.08,0.29
9.16945195198059,0.31,0.01,-0.13,0.33
9.170419931411743,0.35,-0.16,-0.49,0.62
9.190136909484863,0.46,-0.23,-0.65,0.82
9.191540956497192,0.46,-0.08,-0.29,0.54
9.205924034118652,0.23,-0.09,-0.15,0.28
9.207292079925537,-0.06,-0.04,-0.15,0.16
9.222839832305908,-0.29,0.17,-0.15,0.36
9.224215984344482,-0.45,0.31,-0.12,0.55
9.238640785217285,-0.36,0.31,-0.02,0.47
9.26976490020752,-0.12,0.21,-0.02,0.24
9.271039009094238,-0.01,0.19,0.02,0.19
9.272052764892578,-0.11,0.18,0.13,0.24
9.290472984313965,-0.32,0.2,0.25,0.45
9.291947841644287,-0.54,0.23,0.28,0.65
9.306007862091064,-0.6,0.2,0.15,0.65
9.307353019714355,-0.48,0.22,-0.23,0.57
9.32300591468811,-0.36,0.27,-0.65,0.79
9.324462890625,-0.58,0.46,-0.98,1.22
9.338162899017334,-1.18,0.76,-1.15,1.81
9.367353916168213,-1.86,1.0,-1.25,2.45
9.36884093284607,-2.32,1.22,-1.18,2.87
9.36984395980835,-2.34,1.42,-1.21,2.99
9.389920949935913,-2.03,1.43,-1.34,2.82
9.391379833221436,-1.77,1.33,-1.54,2.69
9.406040906906128,-1.65,1.3,-1.67,2.68
9.407440900802612,-1.5,1.38,-1.73,2.67
9.42288875579834,-1.19,1.6,-1.84,2.71
9.424349784851074,-1.14,1.95,-1.72,2.83
9.438323020935059,-1.32,2.6,-1.37,3.22
9.439778804779053,-1.58,2.7,-1.51,3.47
9.488569736480713,-2.23,3.37,-1.36,4.26
9.489739894866943,-2.41,3.87,-1.35,4.75
9.490756034851074,-2.74,4.0,-1.36,5.03
9.506876945495605,-3.25,4.3,-1.08,5.49
9.508382797241211,-4.02,5.06,-0.99,6.53
9.523042917251587,-4.94,6.31,-1.24,8.1
9.524559020996094,-6.18,8.01,-1.74,10.26
9.539848804473877,-7.67,9.08,-3.42,12.36
9.541370868682861,-9.29,9.42,-5.12,14.18
9.554825782775879,-10.23,10.13,-5.58,15.44
9.582481861114502,-10.33,10.09,-6.95,16.02
9.58389687538147,-9.87,9.03,-8.31,15.74
9.584942817687988,-9.85,8.25,-8.91,15.63
9.587066888809204,-9.81,10.69,-7.03,16.12
9.588506937026978,-7.45,14.7,-4.21,17.0
9.590045928955078,-2.31,13.77,-6.45,15.38
9.591437816619873,1.9,10.66,-7.19,12.99
9.592843055725098,1.49,4.8,-6.52,8.23
9.601964950561523,-2.78,0.28,-5.3,5.99
9.611708879470825,-5.5,-3.33,-5.1,8.2
9.636788845062256,-1.84,-2.19,-4.8,5.58
9.637866020202637,5.13,2.19,0.44,5.59
9.641197919845581,3.61,-1.68,-0.86,4.07
9.655061960220337,-1.93,-3.55,-3.81,5.55
9.661655902862549,-5.8,-3.75,-2.69,7.41
9.672496795654297,-8.94,-3.14,-2.56,9.81
9.681351900100708,-11.1,-3.07,-3.1,11.92
9.690948963165283,-11.47,-3.43,-2.51,12.23
9.701397895812988,-9.23,-3.92,-0.64,10.04
9.71115493774414,-6.58,-5.11,0.6,8.35
9.738306999206543,-5.23,-6.43,1.11,8.36
9.739664077758789,-5.06,-7.0,0.87,8.68
9.740646839141846,-5.33,-6.37,0.39,8.31
9.756807804107666,-5.42,-5.09,-0.52,7.45
9.760461807250977,-5.05,-4.13,-1.57,6.71
9.771373748779297,-4.55,-3.31,-2.48,6.14
9.780524969100952,-3.95,-2.96,-3.22,5.89
9.79042100906372,-3.36,-3.31,-3.29,5.75
9.800534963607788,-3.14,-3.96,-2.99,5.87
9.810181856155396,-2.93,-4.9,-2.7,6.31
9.844947814941406,-2.38,-5.62,-2.53,6.6
9.846281051635742,-1.56,-6.42,-2.61,7.1
9.847298860549927,-0.8,-7.33,-2.85,7.9
9.853652000427246,-0.34,-8.19,-2.85,8.67
9.85967493057251,-0.4,-8.73,-2.28,9.03
9.872942924499512,-0.73,-8.52,-1.07,8.61
9.879889965057373,-0.73,-7.44,0.3,7.48
9.890007972717285,0.37,-6.49,0.23,6.5
9.899812936782837,1.92,-5.32,0.11,5.65
9.909695863723755,3.09,-3.45,1.05,4.74
9.946608066558838,4.44,-0.94,2.62,5.24
9.947937965393066,6.18,2.1,4.55,7.95
9.948965072631836,8.11,4.99,5.87,11.18
9.95293378829956,9.48,7.22,6.58,13.61
9.97311782836914,11.0,9.49,7.61,16.4
9.974568843841553,12.68,11.3,8.28,18.89
9.988255977630615,14.63,12.15,8.4,20.78
9.9898099899292,16.34,12.05,7.47,21.63
10.005441904067993,17.88,12.16,7.97,23.04
10.009588956832886,17.88,12.14,7.16,22.76
10.046854019165039,15.63,15.19,3.76,22.11
10.048171043395996,13.57,8.1,-5.37,16.69
10.049448013305664,2.12,-5.59,-17.04,18.05
10.052815914154053,-12.75,14.04,-18.44,26.45
10.073083877563477,-18.82,44.22,-2.81,48.14
10.074122905731201,-13.72,20.83,6.54,25.78
10.089920997619629,-0.8,-1.67,5.4,5.7
10.091369867324829,8.72,-3.63,7.29,11.93
10.105388879776001,10.98,-9.2,6.94,15.91
10.107996940612793,11.08,-10.68,2.64,15.61
10.149534940719604,9.41,-4.82,1.77,10.71
10.150681972503662,5.23,-0.24,1.35,5.4
10.151643753051758,1.74,0.67,-0.03,1.86
10.154078960418701,-0.23,0.43,-0.54,0.72
10.157487869262695,-0.37,0.21,-0.11,0.43
10.167452812194824,0.53,0.45,-0.25,0.73
10.177748918533325,1.23,0.53,-0.52,1.43
10.187696933746338,1.54,0.11,0.17,1.55
10.197630882263184,1.47,-0.66,0.86,1.82
10.207393884658813,0.93,-1.1,1.04,1.77
10.217298030853271,0.48,-0.73,0.87,1.23
10.250730037689209,0.43,-0.32,0.75,0.92
10.25218677520752,0.53,-0.27,0.6,0.84
10.253176927566528,0.6,-0.24,0.5,0.81
10.273825883865356,0.5,0.09,0.53,0.73
10.275253772735596,0.36,0.19,0.47,0.62
10.289961814880371,0.58,0.03,0.3,0.65
10.29141902923584,0.81,-0.16,0.12,0.83
10.306781768798828,0.75,-0.27,0.04,0.79
10.30829381942749,0.53,-0.29,-0.34,0.69
10.3224458694458,0.26,-0.09,-0.46,0.53
10.351608753204346,0.0,0.18,-0.21,0.27
10.35295295715332,-0.23,0.16,-0.23,0.36
10.353961944580078,-0.36,0.19,-0.33,0.52
10.373713970184326,-0.41,0.28,-0.59,0.77
10.375228881835938,-0.37,0.36,-0.89,1.02
10.390123844146729,-0.33,0.39,-0.86,1.0
10.39159107208252,-0.42,0.4,-0.68,0.89
10.406403064727783,-0.53,0.42,-0.49,0.83
10.407851934432983,-0.71,0.38,-0.26,0.84
10.422247886657715,-0.97,0.38,0.08,1.04
10.450669765472412,-1.14,0.41,0.14,1.21
10.452024936676025,-1.19,0.47,-0.21,1.29
10.453043937683105,-1.2,0.71,-0.65,1.53
10.474041938781738,-1.22,0.97,-1.02,1.86
10.475481986999512,-1.31,1.1,-1.07,2.01
10.490481853485107,-1.39,1.04,-0.98,1.99
10.49196195602417,-1.51,0.95,-0.91,2.0
10.50697374343872,-1.62,0.97,-1.06,2.16
10.508425951004028,-1.69,1.15,-1.14,2.34
10.522407054901123,-1.79,1.3,-1.08,2.46
10.553235054016113,-1.83,1.34,-1.04,2.49
10.555103778839111,-1.79,1.32,-0.86,2.38
10.556049823760986,-1.79,1.72,-0.5,2.53
10.574018001556396,-1.74,2.44,-0.62,3.06
10.575469017028809,-1.75,2.73,-1.29,3.48
10.590108871459961,-2.15,3.59,-1.64,4.49
10.591527938842773,-2.36,4.03,-1.75,4.98
10.606782913208008,-2.8,4.14,-1.65,5.26
10.608245849609375,-3.34,4.21,-1.89,5.69
10.62239408493042,-3.58,4.47,-2.03,6.07
10.650353908538818,-3.94,4.76,-2.01,6.49
10.651748895645142,-4.71,5.71,-1.8,7.61
10.652798891067505,-5.8,7.12,-2.34,9.47
10.673617839813232,-7.32,8.4,-4.07,11.86
10.674680948257446,-8.83,9.44,-5.69,14.12
10.690464973449707,-9.79,10.37,-6.0,15.47
10.691958904266357,-10.24,10.47,-7.18,16.31
10.706768989562988,-10.49,9.46,-8.45,16.46
10.708256959915161,-10.66,9.3,-8.72,16.61
10.722588062286377,-9.45,12.31,-6.11,16.67
10.752120971679688,-5.19,15.14,-4.22,16.55
10.75347089767456,0.51,14.55,-4.62,15.27
10.754478931427002,3.44,10.55,-4.67,12.03
10.773499011993408,2.08,4.36,-5.55,7.35
10.77491807937622,-2.64,-0.62,-5.73,6.33
10.790393829345703,-2.96,-1.86,-5.46,6.48
10.791871070861816,3.59,3.93,0.14,5.32
10.806788921356201,4.5,1.15,1.09,4.77
10.808252811431885,-1.42,-2.1,-3.88,4.63
10.822508811950684,-5.71,-1.65,-2.81,6.57
10.85017204284668,-8.73,-0.82,-1.97,8.98
10.85157299041748,-10.93,-1.0,-1.79,11.12
10.852553844451904,-10.9,-2.21,-0.61,11.13
10.873730897903442,-8.59,-4.17,1.1,9.61
10.874797821044922,-6.39,-6.46,1.9,9.28
10.8905348777771,-5.66,-8.32,2.02,10.26
10.892024040222168,-5.78,-9.34,1.85,11.13
10.906829833984375,-6.03,-9.21,1.29,11.08
10.908325910568237,-5.75,-8.65,0.05,10.38
10.922484874725342,-5.84,-7.41,-0.89,9.47
10.950393915176392,-6.44,-6.75,-1.13,9.39
10.951773881912231,-6.18,-7.08,-2.09,9.62
10.952770948410034,-5.65,-7.06,-2.57,9.4
10.974219799041748,-5.32,-7.22,-2.69,9.36
10.975756883621216,-5.0,-7.51,-2.44,9.34
10.990490913391113,-4.63,-7.8,-2.2,9.33
10.991940021514893,-4.23,-8.08,-2.02,9.34
11.00707197189331,-3.87,-8.26,-1.8,9.29
11.008485794067383,-3.74,-8.4,-1.38,9.29
11.022501945495605,-3.84,-8.35,-0.68,9.21
11.023941040039062,-4.06,-8.16,-0.06,9.11
11.074031829833984,-4.38,-7.51,0.44,8.7
11.075212001800537,-4.33,-5.82,1.57,7.42
11.076234817504883,-3.2,-3.42,2.31,5.22
11.09102988243103,-0.43,-1.25,2.39,2.73
11.092079877853394,3.34,1.12,3.5,4.96
11.10663890838623,7.21,3.98,5.24,9.76
11.108120918273926,9.98,7.19,6.7,14.0
11.121304035186768,11.37,10.23,7.48,17.02
11.122818946838379,12.05,12.78,7.43,19.07
11.13693904876709,12.49,14.05,6.89,20.02
11.165637016296387,13.41,15.4,6.63,21.46
11.166958808898926,14.01,16.24,6.62,22.44
11.168016910552979,14.71,15.64,6.78,22.51
11.170301914215088,14.92,15.59,3.36,21.83
11.1717689037323,16.0,12.5,-4.03,20.7
11.179560899734497,9.53,-2.22,-12.93,16.21
11.189828872680664,-6.8,3.08,-16.29,17.91
11.199641942977905,-15.09,36.82,-4.95,40.09
11.21037483215332,-11.84,30.32,6.0,33.09
11.219841003417969,-1.38,3.24,6.72,7.58
11.248864889144897,7.41,-1.38,5.98,9.62
11.249918937683105,10.81,-6.2,4.31,13.18
11.251247882843018,11.58,-9.21,2.72,15.04
11.259428977966309,8.82,-5.95,2.46,10.92
11.269276857376099,4.91,-1.8,2.12,5.64
11.279111862182617,1.81,-0.05,-0.21,1.82
11.289155006408691,-0.29,1.08,-2.2,2.46
11.29899287223816,-0.77,1.33,-0.54,1.62
11.309215068817139,0.63,0.6,3.11,3.22
11.319293975830078,1.68,-0.66,2.77,3.3
11.349092960357666,1.29,-0.88,0.64,1.68
11.35026502609253,0.43,-0.18,-0.42,0.62
11.351496934890747,0.15,0.22,-0.94,0.97
11.358491897583008,0.21,0.15,-0.84,0.87
11.368409872055054,0.41,0.04,-0.48,0.63
11.378474950790405,0.65,0.06,-0.41,0.77
11.388597011566162,0.74,-0.08,-0.46,0.87
11.39809799194336,0.65,-0.47,-0.41,0.9
11.4083890914917,0.4,-0.68,0.05,0.79
11.418413877487183,0.18,-0.47,0.44,0.66
11.455451011657715,0.37,0.09,0.39,0.54
11.456844806671143,0.44,0.4,-0.11,0.6
11.457828998565674,0.41,0.38,-0.43,0.7
11.474029064178467,0.41,0.15,-0.43,0.61
11.474955081939697,0.34,-0.16,-0.52,0.64
11.489781856536865,0.23,-0.22,-0.41,0.51
11.490829944610596,0.02,-0.09,-0.25,0.26
11.506906032562256,-0.25,0.02,-0.4,0.47
11.508370876312256,-0.65,0.26,-0.53,0.87
11.522392749786377,-0.94,0.62,-0.42,1.2
11.554157972335815,-0.96,0.78,-0.19,1.25
11.55544376373291,-0.93,0.72,-0.12,1.18
11.55646276473999,-1.04,0.61,-0.2,1.22
11.574266910552979,-1.18,0.68,-0.11,1.36
11.575297832489014,-1.32,0.75,-0.29,1.54
11.590380907058716,-1.38,0.79,-0.53,1.67
11.59143877029419,-1.22,0.85,-0.72,1.65
11.607292890548706,-0.96,0.66,-0.89,1.46
11.608768939971924,-0.7,0.45,-0.81,1.16
11.622974872589111,-0.47,0.4,-0.52,0.8
11.654936790466309,-0.35,0.42,-0.26,0.6
11.656208992004395,-0.19,0.37,-0.37,0.55
11.657222747802734,-0.01,0.1,-0.83,0.83
11.674259901046753,0.06,0.13,-0.57,0.58
11.675296783447266,-0.26,0.39,-0.28,0.54
11.690674781799316,-0.62,0.83,-0.36,1.09
11.692141056060791,-0.91,1.2,-0.27,1.53
11.707091808319092,-1.03,1.54,0.03,1.85
11.708542823791504,-1.15,1.62,-0.29,2.0
11.722883939743042,-1.31,1.77,-0.68,2.3
11.75364089012146,-1.48,2.17,-1.12,2.85
11.754981994628906,-1.73,2.6,-1.56,3.49
11.756008863449097,-2.05,2.88,-1.73,3.93
11.77417802810669,-2.43,3.21,-1.66,4.35
11.775208950042725,-2.94,3.55,-1.68,4.9
11.790838956832886,-3.65,4.23,-1.64,5.82
11.792309761047363,-4.57,5.43,-1.96,7.36
11.807061910629272,-5.48,6.74,-2.69,9.09
11.80855393409729,-6.33,8.25,-3.12,10.85
11.82298493385315,-7.07,9.75,-3.86,12.64
11.82503604888916,-7.64,10.25,-5.58,13.94
11.869181871414185,-8.3,10.29,-7.22,15.06
11.870397090911865,-8.63,9.93,-8.48,15.65
11.871371746063232,-8.6,8.9,-9.44,15.56
11.891170024871826,-8.03,10.94,-7.29,15.4
11.892236948013306,-4.81,14.0,-4.81,15.56
11.907120943069458,0.21,12.86,-5.21,13.87
11.908595085144043,4.6,9.84,-5.87,12.34
11.924132823944092,4.42,4.31,-6.26,8.79
11.925548076629639,0.05,-0.59,-6.26,6.28
11.939733028411865,-2.87,-4.35,-6.03,7.96
11.969244003295898,1.1,-1.95,-4.63,5.14
11.970647811889648,6.27,0.2,0.53,6.29
11.971658945083618,2.39,-3.83,-3.13,5.49
11.991167068481445,-3.59,-4.99,-5.23,8.07
11.99218487739563,-7.21,-4.25,-3.52,9.07
12.00722599029541,-10.24,-2.98,-3.44,11.2
12.008670806884766,-12.73,-2.0,-3.43,13.33
12.024322986602783,-13.17,-1.87,-1.89,13.43
12.025739908218384,-10.88,-3.09,0.33,11.31
12.039720058441162,-8.15,-4.98,1.85,9.72
12.067722797393799,-6.78,-6.58,2.26,9.71
12.069032907485962,-6.64,-7.28,2.06,10.06
12.070043087005615,-6.39,-7.11,1.22,9.63
12.091227054595947,-5.7,-6.52,-0.04,8.66
12.092248916625977,-5.19,-5.89,-1.23,7.94
12.107450008392334,-4.83,-5.46,-2.17,7.6
12.10890007019043,-4.37,-5.07,-2.88,7.28
12.124345779418945,-3.77,-4.68,-3.28,6.84
12.125828742980957,-3.28,-4.57,-3.55,6.65
12.13973093032837,-2.96,-4.73,-3.51,6.59
12.167884826660156,-2.64,-5.13,-3.13,6.56
12.169264793395996,-2.22,-5.5,-2.52,6.44
12.170265913009644,-1.71,-5.8,-1.89,6.33
12.19121503829956,-1.27,-6.08,-1.49,6.38
12.192223072052002,-1.05,-6.03,-1.23,6.24
12.207480907440186,-1.13,-5.32,-0.99,5.52
12.208937883377075,-1.12,-4.02,-0.76,4.24
12.224179744720459,-0.44,-2.66,-0.83,2.82
12.225590944290161,1.09,-1.27,-0.58,1.77
12.239942073822021,2.9,-0.03,-0.03,2.9
12.270510911941528,4.36,1.17,0.79,4.58
12.271909952163696,5.05,2.84,1.72,6.04
12.272864818572998,5.79,4.88,2.47,7.96
12.291414737701416,7.25,6.51,3.07,10.21
12.292463779449463,9.52,7.34,3.62,12.55
12.307308912277222,11.6,7.33,3.79,14.23
12.308759927749634,12.51,7.15,3.4,14.8
12.324254035949707,12.1,7.55,2.73,14.52
12.325723886489868,12.13,8.75,2.63,15.18
12.339618921279907,13.39,9.02,2.87,16.39
12.369756937026978,14.67,8.27,3.21,17.14
12.371094942092896,13.73,10.37,4.99,17.91
12.372082948684692,11.06,13.14,5.18,17.93
12.391058921813965,6.52,7.94,0.92,10.31
12.392107963562012,-3.63,3.32,-3.68,6.14
12.407970905303955,-11.71,18.38,-4.85,22.32
12.40902590751648,-8.5,27.21,2.48,28.61
12.424274921417236,-0.9,8.08,5.84,10.01
12.425745964050293,4.55,-3.35,2.04,6.0
12.439737796783447,9.31,-1.61,4.02,10.26
12.471220016479492,8.76,-4.06,4.16,10.51
12.472514867782593,3.97,-4.55,0.4,6.05
12.473520755767822,2.23,-1.61,0.34,2.77
12.491477966308594,2.0,0.08,-0.69,2.11
12.492548942565918,2.16,-0.24,-1.88,2.87
12.507161855697632,2.29,-0.62,-1.42,2.76
12.508167743682861,2.03,-0.2,-0.72,2.16
12.524312973022461,1.22,0.44,-0.03,1.29
12.525722980499268,0.24,0.81,0.6,1.03
12.539931774139404,-0.37,0.79,1.57,1.79
12.57047176361084,-0.53,0.1,1.6,1.68
12.571789741516113,-0.39,-0.49,0.89,1.08
12.572762966156006,-0.04,-0.74,0.17,0.76
12.591275930404663,0.45,-0.78,-0.44,1.0
12.592321872711182,0.99,-0.71,-0.82,1.46
12.607249736785889,1.3,-0.52,-0.78,1.6
12.608296871185303,1.28,-0.17,-0.53,1.39
12.624563932418823,0.98,0.15,-0.13,0.99
12.6260347366333,0.55,0.37,0.23,0.7
12.639999866485596,0.11,0.27,0.35,0.45
12.641478061676025,-0.13,0.11,0.69,0.71
12.687010765075684,-0.23,0.0,0.93,0.95
12.688183784484863,-0.2,-0.1,0.85,0.87
12.689169883728027,-0.12,-0.15,0.43,0.47
12.708046913146973,-0.04,-0.01,0.07,0.08
12.709048748016357,0.11,0.15,-0.22,0.28
12.724277019500732,0.13,0.13,-0.41,0.44
12.72569489479065,-0.02,0.12,-0.48,0.49
12.741168975830078,-0.17,0.18,-0.35,0.42
12.742603778839111,-0.32,0.27,-0.06,0.42
12.756525993347168,-0.52,0.32,0.23,0.65
12.788060903549194,-0.68,0.3,0.34,0.81
12.789353847503662,-0.77,0.31,0.47,0.95
12.790363788604736,-0.63,0.24,0.15,0.69
12.808281898498535,-0.34,0.19,-0.32,0.5
12.809321880340576,-0.17,0.25,-0.53,0.61
12.824299812316895,-0.17,0.27,-0.64,0.71
12.825278759002686,-0.25,0.31,-0.46,0.6
12.84083604812622,-0.4,0.39,-0.26,0.61
12.842297077178955,-0.66,0.56,-0.15,0.87
12.85654091835022,-1.01,0.76,-0.3,1.29
12.8853440284729,-1.44,1.1,-0.46,1.86
12.886772871017456,-1.85,1.49,-0.52,2.43
12.887736797332764,-1.92,1.61,-1.13,2.74
12.907909870147705,-1.73,1.52,-1.82,2.93
12.908904075622559,-1.37,1.6,-2.27,3.09
12.924688816070557,-1.15,2.03,-2.56,3.46
12.925765037536621,-1.07,2.43,-2.84,3.88
12.941411972045898,-1.23,2.74,-2.76,4.07
12.942883014678955,-1.54,2.84,-2.62,4.15
12.956732749938965,-1.8,2.99,-1.97,4.0
12.987153053283691,-2.11,3.24,-1.57,4.17
12.988495826721191,-2.84,3.91,-1.32,5.0
12.989480018615723,-4.02,5.3,-1.09,6.74
13.008083820343018,-5.39,7.04,-1.55,9.0
13.009129047393799,-6.91,8.84,-2.59,11.51
13.021971940994263,-8.43,10.87,-3.72,14.24
13.023019790649414,-9.84,12.68,-5.09,16.83
13.041543006896973,-10.94,13.38,-7.3,18.76
13.042970895767212,-10.8,12.7,-9.61,19.24
13.053671836853027,-10.16,10.95,-11.02,18.56
13.080924034118652,-9.49,9.56,-11.41,17.65
13.082339763641357,-8.03,10.5,-8.79,15.87
13.083464860916138,-4.72,14.11,-3.63,15.31
13.088727951049805,0.45,14.48,-2.14,14.64
13.089783906936646,2.94,8.4,-4.92,10.16
13.107770919799805,0.65,2.11,-6.76,7.11
13.108824968338013,-3.32,-1.95,-5.24,6.5
13.12473201751709,-3.26,-2.01,-2.41,4.52
13.126169919967651,2.73,1.88,4.79,5.82
13.140514850616455,3.03,-3.32,2.0,4.91
13.16965103149414,-2.09,-5.86,-3.26,7.02
13.171082019805908,-6.18,-5.52,-2.63,8.69
13.172107934951782,-8.97,-4.33,-1.87,10.13
13.191580772399902,-10.83,-3.92,-2.45,11.77
13.19262409210205,-10.73,-4.25,-1.99,11.71
13.207543849945068,-7.85,-5.08,-0.51,9.36
13.208564758300781,-4.86,-6.63,0.25,8.22
13.224682807922363,-3.88,-7.85,0.25,8.76
13.226041793823242,-4.35,-8.23,-0.14,9.3
13.240028858184814,-4.99,-7.75,-0.66,9.24
13.270462036132812,-5.2,-6.94,-1.42,8.78
13.271754741668701,-5.02,-6.28,-2.11,8.31
13.272765874862671,-4.58,-5.98,-2.51,7.93
13.291748046875,-4.24,-5.83,-2.73,7.7
13.292823791503906,-4.06,-5.84,-2.71,7.61
13.3072669506073,-3.98,-6.04,-2.69,7.71
13.308290958404541,-3.89,-6.33,-2.66,7.89
13.325114965438843,-3.77,-6.54,-2.3,7.89
13.326426029205322,-3.6,-6.51,-1.62,7.61
13.33944296836853,-3.47,-6.59,-0.97,7.51
13.366363048553467,-3.4,-6.56,-0.29,7.39
13.367706775665283,-3.13,-6.17,0.23,6.92
13.368618965148926,-2.38,-5.38,0.34,5.89
13.37088394165039,-1.04,-4.29,0.08,4.41
13.373025894165039,0.81,-2.88,-0.03,2.99
13.383256912231445,3.02,-1.45,0.11,3.35
13.393286943435669,5.16,-0.17,0.33,5.17
13.403032779693604,6.93,1.57,0.62,7.13
13.413147926330566,8.45,3.81,0.94,9.31
13.422939777374268,10.27,6.33,1.76,12.19
13.432963848114014,12.73,8.85,2.59,15.71
13.463846921920776,15.28,10.85,3.37,19.04
13.464985847473145,17.42,11.97,3.82,21.47
13.465864896774292,18.34,11.07,4.02,21.79
13.472808837890625,18.27,10.41,4.71,21.54
13.483173847198486,17.66,10.02,5.32,20.98
13.492443084716797,16.73,9.1,5.96,19.95
13.502302885055542,15.07,9.24,5.91,18.63
13.512125968933105,10.95,11.31,5.67,16.73
13.5223388671875,3.78,2.46,0.96,4.61
13.532367944717407,-6.06,-3.99,-6.74,9.9
13.56477975845337,-19.56,6.7,-11.99,23.9
13.566012859344482,-24.5,31.84,-2.16,40.23
13.566942930221558,-14.65,23.38,9.39,29.14
13.572234869003296,-2.26,0.29,4.47,5.01
13.591240882873535,5.35,-6.93,2.64,9.14
13.592280864715576,11.3,-5.91,4.46,13.5
13.607578754425049,12.88,-5.36,3.23,14.31
13.611402988433838,10.48,-3.48,-0.72,11.06
13.623226881027222,5.88,-1.2,-1.48,6.18
13.631793975830078,2.2,0.3,0.04,2.22
13.66884994506836,0.18,-0.01,-0.34,0.38
13.670025825500488,0.09,0.1,0.1,0.16
13.670983791351318,0.83,0.7,0.4,1.15
13.692011833190918,1.16,0.82,0.58,1.53
13.693047046661377,0.71,0.57,0.9,1.28
13.70774793624878,0.02,-0.06,1.13,1.13
13.708781957626343,-0.33,-0.5,1.15,1.29
13.725100994110107,-0.25,-0.4,0.65,0.8
13.72655987739563,0.05,-0.18,-0.02,0.18
13.739827871322632,0.45,0.06,-0.67,0.8
13.76954698562622,0.92,0.19,-0.93,1.32
13.770927906036377,1.09,0.16,-0.59,1.24
13.771774768829346,0.85,-0.17,-0.14,0.87
13.79161787033081,0.56,-0.45,-0.25,0.76
13.792679786682129,0.36,-0.41,-0.37,0.65
13.807981967926025,0.34,-0.02,0.41,0.53
13.809009075164795,0.17,0.1,1.22,1.23
13.825128078460693,-0.22,0.0,1.3,1.31
13.82656478881836,-0.37,0.04,0.66,0.75
13.840444087982178,-0.16,0.17,-0.32,0.39
13.869735956192017,0.05,0.26,-0.87,0.9
13.870903015136719,0.03,0.2,-0.97,0.99
13.871685028076172,-0.13,0.2,-0.84,0.87
13.891777992248535,-0.17,0.26,-0.56,0.64
13.892839908599854,-0.29,0.24,-0.31,0.48
13.90772294998169,-0.61,0.35,-0.01,0.7
13.908742904663086,-0.78,0.45,0.21,0.92
13.92475175857544,-0.69,0.44,0.09,0.82
13.925708770751953,-0.54,0.28,-0.42,0.73
13.940567970275879,-0.49,0.2,-0.77,0.93
13.970183849334717,-0.74,0.25,-0.84,1.14
13.971398830413818,-1.11,0.45,-0.73,1.4
13.972211837768555,-1.19,0.62,-0.6,1.46
13.991817951202393,-1.01,0.71,-0.67,1.4
13.992838859558105,-0.82,0.67,-1.04,1.48
14.007966041564941,-0.84,0.71,-1.25,1.66
14.008978843688965,-0.91,0.86,-1.28,1.79
14.025230884552002,-0.9,0.94,-1.22,1.78
14.02666687965393,-0.97,1.18,-1.02,1.83
14.040512084960938,-1.27,1.48,-0.81,2.11
14.06869387626648,-1.63,1.99,-0.42,2.6
14.070014953613281,-1.83,2.32,-0.85,3.07
14.071009874343872,-1.96,2.88,-0.95,3.61
14.092242956161499,-2.45,3.64,-1.34,4.58
14.093300819396973,-2.96,4.09,-1.95,5.41
14.107990741729736,-3.3,4.72,-2.15,6.14
14.109062910079956,-3.5,5.45,-2.49,6.93
14.124876022338867,-3.97,6.0,-3.21,7.87
14.125919818878174,-4.82,7.15,-3.5,9.3
14.141018867492676,-5.97,9.43,-3.43,11.67
14.17057490348816,-7.25,11.13,-5.47,14.36
14.17189884185791,-8.27,12.24,-7.13,16.4
14.172911882400513,-8.98,12.68,-8.37,17.64
14.192166805267334,-9.33,11.62,-10.05,17.97
14.193227767944336,-8.82,10.04,-10.37,16.91
14.207795858383179,-8.23,9.14,-9.79,15.71
14.208844900131226,-7.01,10.73,-7.68,14.94
14.22525405883789,-3.97,13.79,-3.99,14.89
14.226686954498291,0.57,12.65,-3.74,13.2
14.240603923797607,2.35,6.47,-6.25,9.29
14.24214506149292,-0.23,0.31,-7.03,7.04
14.289490938186646,-3.94,-3.33,-5.12,7.26
14.290667057037354,-1.65,0.2,1.51,2.24
14.291645050048828,1.71,-0.63,4.81,5.14
14.30856990814209,-1.77,-5.67,-1.54,6.13
14.30960988998413,-5.52,-6.23,-3.17,8.9
14.324920892715454,-8.1,-4.31,-1.98,9.38
14.32637882232666,-9.76,-2.85,-1.72,10.31
14.341776847839355,-9.74,-2.21,-1.14,10.05
14.343249797821045,-7.5,-3.26,-0.23,8.18
14.357177972793579,-5.05,-4.97,0.51,7.1
14.387907981872559,-4.24,-6.32,0.95,7.66
14.389221906661987,-4.59,-6.9,1.21,8.37
14.390196800231934,-4.88,-6.88,1.21,8.52
14.408380031585693,-4.64,-6.71,0.51,8.17
14.409422874450684,-4.29,-6.18,-0.14,7.52
14.424911975860596,-4.11,-5.64,-0.72,7.01
14.425936937332153,-4.19,-5.37,-1.31,6.93
14.441755771636963,-4.05,-5.48,-1.75,7.03
14.443233013153076,-3.97,-5.53,-2.09,7.12
14.457276821136475,-3.95,-5.8,-1.89,7.26
14.486334800720215,-3.79,-6.15,-1.52,7.38
14.487750053405762,-3.43,-6.54,-1.13,7.47
14.48875093460083,-3.14,-7.18,-0.89,7.88
14.508347988128662,-3.04,-7.77,-0.87,8.38
14.509401798248291,-3.12,-8.13,-0.96,8.76
14.524878978729248,-3.19,-7.91,-0.64,8.55
14.525903940200806,-3.02,-7.27,-0.04,7.87
14.541838884353638,-2.61,-6.41,0.44,6.93
14.543370962142944,-1.49,-5.44,0.39,5.65
14.557293891906738,-0.04,-4.5,0.64,4.54
14.58732295036316,1.84,-3.12,1.59,3.95
14.58864688873291,4.23,-1.38,3.0,5.36
14.589629888534546,6.7,0.46,4.34,7.99
14.608564853668213,8.47,2.29,4.96,10.07
14.609616756439209,9.07,4.4,5.15,11.32
14.625060081481934,8.83,6.65,5.02,12.14
14.62613296508789,8.5,9.54,5.18,13.78
14.641661882400513,9.2,14.18,6.89,18.25
14.643160820007324,10.88,17.95,8.8,22.75
14.655200004577637,12.38,16.24,10.17,22.81
14.684009075164795,13.09,11.92,10.51,20.58
14.68519401550293,12.46,13.44,8.34,20.13
14.68602991104126,11.46,14.75,4.66,19.25
14.688301086425781,6.81,2.85,-6.73,9.98
14.689530849456787,-5.52,-0.71,-15.67,16.62
14.692986965179443,-12.0,22.08,-19.08,31.55
14.703916072845459,-9.64,33.8,-2.59,35.24
14.713196754455566,-2.66,13.2,13.2,18.85
14.723197937011719,4.89,-2.54,8.08,9.78
14.732926845550537,7.69,-9.64,4.37,13.08
14.768379926681519,7.22,-9.47,3.54,12.42
14.769598960876465,4.66,-6.25,2.21,8.1
14.770392894744873,2.97,-2.18,2.95,4.71
14.77288007736206,1.73,-0.03,0.62,1.83
14.782419919967651,1.59,0.45,-1.61,2.3
14.792562007904053,2.03,-0.06,-1.28,2.4
14.802336931228638,1.93,-0.18,0.23,1.95
14.81244707107544,1.12,0.02,0.81,1.38
14.822464942932129,0.41,0.63,0.53,0.91
14.83214807510376,0.29,0.86,0.21,0.93
14.87064504623413,0.35,0.18,0.21,0.44
14.871798038482666,0.52,-0.47,0.36,0.78
14.872577905654907,0.8,-0.74,-0.05,1.09
14.892957925796509,0.81,-0.54,-0.23,1.0
14.894004821777344,0.53,0.05,0.23,0.57
14.908057928085327,0.16,0.32,0.47,0.59
14.909131050109863,0.1,0.22,0.22,0.32
14.92528486251831,0.42,0.0,-0.46,0.62
14.926316738128662,0.64,-0.15,-1.0,1.19
14.94095492362976,0.43,-0.06,-0.48,0.64
14.970133781433105,-0.26,0.14,0.41,0.5
14.97131896018982,-0.76,0.29,0.78,1.12
14.972148895263672,-0.51,0.3,0.48,0.76
14.992408752441406,0.13,0.12,-0.26,0.31
14.99342679977417,0.56,-0.09,-0.92,1.08
15.008227825164795,0.33,-0.07,-0.86,0.92
15.00926399230957,-0.19,0.17,-0.21,0.33
15.02517294883728,-0.51,0.31,0.12,0.6
15.026218891143799,-0.5,0.37,0.21,0.65
15.04079794883728,-0.5,0.45,0.15,0.68
15.042162895202637,-0.55,0.5,0.13,0.75
15.086819887161255,-0.5,0.44,0.12,0.67
15.088022947311401,-0.39,0.23,0.11,0.46
15.088876962661743,-0.31,0.07,0.15,0.35
15.109128952026367,-0.31,0.04,0.01,0.31
15.110060930252075,-0.37,0.13,-0.23,0.45
15.124960899353027,-0.45,0.35,-0.5,0.75
15.125992774963379,-0.51,0.52,-0.89,1.15
15.141743898391724,-0.6,0.76,-0.92,1.33
15.14310598373413,-0.82,0.91,-0.91,1.52
15.157849788665771,-1.15,0.94,-1.01,1.79
15.18701696395874,-1.45,1.03,-0.98,2.03
15.188369750976562,-1.49,1.07,-0.73,1.97
15.189157009124756,-1.34,1.06,-0.62,1.81
15.209234952926636,-1.25,1.07,-0.91,1.88
15.210284948348999,-1.28,1.33,-1.12,2.15
15.22533392906189,-1.42,2.0,-1.17,2.71
15.226377964019775,-1.44,2.39,-1.49,3.16
15.241597890853882,-1.55,2.53,-1.4,3.28
15.2427499294281,-1.78,2.55,-1.02,3.27
15.258210897445679,-2.11,2.53,-0.9,3.41
15.289694786071777,-2.32,2.58,-1.25,3.68
15.291018962860107,-2.34,2.86,-1.51,3.99
15.291996955871582,-2.59,3.39,-1.63,4.56
15.30902886390686,-3.14,4.19,-1.79,5.53
15.310091018676758,-3.98,5.35,-1.96,6.95
15.325284004211426,-5.34,6.99,-2.53,9.15
15.326307773590088,-7.18,8.6,-4.09,11.92
15.341487884521484,-8.41,9.72,-5.25,13.88
15.343013763427734,-9.02,10.16,-5.21,14.55
15.358563899993896,-9.43,9.91,-6.16,15.0
15.390074968338013,-9.33,8.99,-7.38,14.91
15.39133882522583,-9.43,8.12,-7.93,14.75
15.392366886138916,-8.95,10.3,-5.61,14.75
15.409081935882568,-6.09,13.52,-3.07,15.14
15.410079956054688,-0.98,12.6,-4.76,13.5
15.42547607421875,3.42,10.35,-5.05,12.01
15.426552772521973,3.14,4.61,-3.93,6.82
15.44169282913208,-1.58,-0.54,-4.33,4.64
15.44315481185913,-4.72,-3.88,-4.82,7.78
15.45810079574585,-1.08,-2.1,-4.6,5.17
15.490565776824951,4.98,1.97,0.77,5.41
15.49195384979248,2.92,-1.7,-0.64,3.43
15.493006944656372,-2.94,-3.75,-3.84,6.11
15.509326934814453,-7.29,-3.73,-2.46,8.55
15.510389804840088,-10.48,-2.83,-1.96,11.03
15.525416851043701,-12.67,-2.78,-2.03,13.12
15.526456832885742,-12.14,-3.47,-1.03,12.66
15.542133808135986,-8.83,-4.7,0.69,10.02
15.54355788230896,-6.09,-6.61,1.46,9.1
15.557950019836426,-5.16,-8.22,1.31,9.79
15.587970972061157,-5.41,-8.66,1.01,10.26
15.589191913604736,-5.86,-8.15,0.34,10.04
15.590023040771484,-5.76,-7.48,-0.64,9.46
15.609230041503906,-5.36,-7.03,-1.4,8.95
15.610275745391846,-5.05,-6.51,-1.87,8.44
15.625318050384521,-4.84,-5.89,-2.23,7.94
15.626368999481201,-4.78,-5.55,-2.2,7.64
15.642504930496216,-4.91,-5.34,-1.89,7.49
15.643955945968628,-4.94,-5.3,-1.56,7.41
15.657926082611084,-4.72,-5.32,-1.28,7.22
15.685993909835815,-4.15,-5.35,-1.1,6.85
15.687251091003418,-3.21,-5.58,-1.12,6.53
15.688039779663086,-2.18,-5.94,-1.31,6.46
15.709220886230469,-1.49,-6.06,-1.43,6.4
15.71028995513916,-1.07,-5.7,-1.2,5.92
15.725712776184082,-0.42,-4.56,-0.65,4.62
15.726716995239258,0.99,-3.2,-0.81,3.44
15.742162942886353,3.43,-1.77,-0.8,3.94
15.743215084075928,6.47,-0.19,0.29,6.47
15.758049011230469,9.13,1.61,2.07,9.49
15.787710905075073,11.02,3.87,4.68,12.58
15.788911819458008,11.14,5.61,5.44,13.6
15.789720058441162,9.67,6.8,5.45,13.01
15.809281826019287,8.74,8.71,5.87,13.66
15.810366868972778,9.07,11.07,6.48,15.7
15.82221794128418,9.0,13.69,4.63,17.02
15.823317050933838,8.76,20.19,3.41,22.27
15.839058876037598,12.46,28.63,1.33,31.25
15.84005093574524,13.99,28.06,-4.61,31.69
15.857918739318848,7.4,11.2,-8.82,16.06
15.85936975479126,3.66,14.01,-4.95,15.3
15.903267860412598,2.79,10.56,5.06,12.03
15.904441833496094,1.3,-1.59,4.86,5.27
15.905433893203735,3.77,-1.3,5.05,6.43
15.925997972488403,2.16,-4.63,3.56,6.22
15.92703890800476,1.82,-3.74,3.33,5.32
15.942209959030151,4.29,-2.65,2.39,5.58
15.943263053894043,5.4,-2.7,0.76,6.08
15.959390878677368,4.09,-0.91,0.75,4.25
15.960848808288574,2.03,-0.48,1.26,2.43
15.974577903747559,0.23,-0.65,1.02,1.23
16.005126953125,-0.33,0.31,0.33,0.56
16.00644302368164,0.02,1.13,-0.21,1.14
16.007444858551025,0.21,0.81,-0.05,0.83
16.02600383758545,0.48,0.13,0.18,0.52
16.027073860168457,0.92,-0.42,0.46,1.11
16.04227089881897,1.15,-0.82,0.29,1.44
16.043299913406372,1.14,-0.86,-0.1,1.43
16.05867886543274,0.97,-0.59,-0.13,1.14
16.05972695350647,0.69,-0.16,0.13,0.72
16.074415922164917,0.4,0.26,0.38,0.6
16.10324478149414,0.42,0.52,0.11,0.67
16.10437774658203,0.44,0.35,-0.09,0.56
16.10517191886902,0.4,0.33,0.18,0.54
16.126529932022095,0.26,0.09,0.29,0.39
16.12752890586853,0.27,-0.22,-0.15,0.37
16.142252922058105,0.45,-0.29,-0.65,0.84
16.143305778503418,0.42,-0.05,-0.48,0.63
16.159493923187256,0.12,0.11,0.01,0.16
16.160897970199585,-0.09,0.11,0.13,0.19
16.173655033111572,-0.07,0.12,-0.11,0.17
16.202908992767334,-0.12,0.24,-0.31,0.41
16.20415186882019,-0.23,0.34,-0.29,0.5
16.204936981201172,-0.4,0.35,-0.18,0.56
16.226279973983765,-0.31,0.33,-0.13,0.47
16.227300882339478,-0.1,0.21,-0.23,0.32
16.24246096611023,-0.08,0.18,-0.25,0.31
16.24348783493042,-0.28,0.23,-0.19,0.4
16.259493827819824,-0.46,0.25,-0.14,0.54
16.260562896728516,-0.54,0.22,-0.01,0.58
16.274924755096436,-0.58,0.27,0.04,0.64
16.304751873016357,-0.6,0.29,-0.3,0.73
16.306010961532593,-0.61,0.4,-0.69,1.0
16.306838035583496,-0.69,0.56,-0.97,1.31
16.326096057891846,-0.76,0.75,-1.25,1.64
16.327136039733887,-0.87,0.9,-1.38,1.86
16.343209743499756,-1.11,1.03,-1.37,2.04
16.344237804412842,-1.29,1.09,-1.52,2.27
16.359454870224,-1.58,1.23,-1.48,2.48
16.36085796356201,-1.89,1.49,-1.34,2.75
16.375250816345215,-2.04,1.8,-1.43,3.07
16.403624057769775,-1.69,2.11,-1.18,2.94
16.40484595298767,-1.31,2.28,-1.33,2.94
16.405561923980713,-1.33,2.9,-1.07,3.36
16.42665696144104,-2.04,3.37,-0.95,4.05
16.427703857421875,-2.91,3.54,-0.9,4.67
16.44268488883972,-3.5,3.75,-1.17,5.26
16.443718910217285,-3.65,4.16,-1.66,5.77
16.45924997329712,-3.67,4.73,-2.28,6.4
16.46024990081787,-4.14,5.98,-2.63,7.73
16.475153923034668,-4.94,8.1,-3.42,10.08
16.505204916000366,-5.99,9.2,-5.84,12.43
16.50646185874939,-7.13,10.08,-6.38,13.89
16.507452964782715,-8.75,11.14,-5.98,15.37
16.526611804962158,-9.94,11.1,-7.14,16.52
16.527652740478516,-9.75,9.86,-7.94,15.97
16.542388916015625,-8.96,8.12,-8.52,14.79
16.543449878692627,-8.04,7.53,-8.13,13.69
16.559590816497803,-5.8,10.85,-4.67,13.15
16.561081886291504,-2.11,13.14,-2.47,13.53
16.574928760528564,2.14,9.89,-4.93,11.25
16.604437828063965,1.79,3.84,-6.52,7.77
16.60583186149597,-2.17,0.06,-5.14,5.57
16.606834888458252,-4.9,-3.23,-4.36,7.31
16.626487970352173,-1.6,-0.48,-1.14,2.02
16.627573013305664,2.85,0.48,2.95,4.12
16.64217495918274,-0.63,-3.66,-1.32,3.94
16.643197059631348,-4.93,-4.29,-2.93,7.16
16.659652948379517,-7.98,-3.01,-2.03,8.76
16.661128044128418,-10.7,-2.65,-2.36,11.27
16.674922943115234,-11.79,-3.05,-1.81,12.31
16.676392078399658,-10.5,-3.92,-0.25,11.21
16.723258018493652,-7.72,-5.35,1.2,9.46
16.724425792694092,-5.98,-6.8,1.44,9.16
16.725422859191895,-5.77,-7.61,1.42,9.65
16.743309020996094,-6.04,-7.39,1.09,9.6
16.744372844696045,-5.97,-6.33,0.41,8.71
16.75936794281006,-5.4,-5.49,-0.48,7.71
16.760847091674805,-4.67,-5.26,-1.25,7.14
16.776390075683594,-4.04,-5.23,-1.71,6.82
16.777865886688232,-3.59,-5.26,-2.09,6.7
16.79185199737549,-3.26,-5.36,-2.27,6.67
16.82532787322998,-2.98,-5.58,-2.42,6.77
16.826725959777832,-2.7,-6.08,-2.55,7.12
16.82772397994995,-2.45,-6.76,-2.78,7.7
16.843481063842773,-2.37,-7.2,-2.94,8.13
16.84447479248047,-2.53,-7.03,-2.51,7.88
16.859211921691895,-2.8,-6.11,-1.48,6.88
16.860270023345947,-2.45,-5.27,-0.86,5.87
16.87640690803528,-1.0,-4.6,-0.38,4.72
16.87782382965088,0.76,-3.88,0.58,3.99
16.891951084136963,2.44,-2.85,2.15,4.32
16.924609899520874,3.9,-1.46,3.93,5.72
16.92588186264038,5.07,0.54,5.54,7.52
16.92686891555786,5.97,2.69,6.69,9.36
16.943320751190186,6.5,4.62,6.94,10.57
16.9443678855896,7.06,6.29,6.33,11.37
16.956403970718384,8.35,8.13,5.45,12.86
16.95746898651123,10.54,10.15,5.15,15.51
16.973374843597412,13.57,11.69,5.39,18.7
16.974914073944092,16.13,11.47,5.15,20.45
16.99179983139038,16.11,12.09,4.02,20.53
17.022071838378906,14.67,16.18,2.44,21.97
17.023416996002197,15.01,14.76,-4.41,21.5
17.024430751800537,7.13,7.69,-10.62,14.92
17.042857885360718,-5.18,19.54,-9.0,22.12
17.04395580291748,-9.1,30.48,0.48,31.81
17.059273958206177,-5.54,7.96,4.26,10.59
17.060333967208862,1.38,-5.64,4.03,7.06
17.075872898101807,8.13,-2.4,6.62,10.75
17.076905965805054,8.43,-4.87,5.81,11.33
17.09193706512451,4.69,-5.37,1.5,7.28
17.122459888458252,3.22,-1.32,2.06,4.04
17.12372088432312,3.06,-0.09,1.32,3.33
17.12459707260132,3.18,-0.63,0.54,3.28
17.143249034881592,2.24,-1.42,1.22,2.91
17.144283771514893,0.85,-1.18,0.86,1.68
17.15928292274475,0.7,0.27,-0.28,0.8
17.160326957702637,0.86,0.97,-1.17,1.74
17.175976753234863,0.77,1.04,-0.17,1.3
17.177000999450684,0.59,0.3,0.87,1.09
17.19197988510132,0.69,-0.73,0.67,1.2
17.220834970474243,1.01,-0.88,0.12,1.34
17.221960067749023,0.82,-0.52,0.09,0.97
17.222786903381348,0.36,-0.23,0.4,0.58
17.24354076385498,0.22,-0.07,0.37,0.43
17.244548797607422,0.42,0.07,-0.01,0.42
17.259662866592407,0.59,0.23,-0.37,0.73
17.260769844055176,0.53,0.3,-0.68,0.91
17.275993824005127,0.46,0.29,-0.49,0.73
17.277029991149902,0.36,0.14,-0.06,0.39
17.27805185317993,0.13,-0.02,0.22,0.25
17.303706884384155,0.0,-0.12,0.29,0.31
17.30488395690918,-0.01,-0.04,0.51,0.51
17.30566692352295,-0.06,0.02,0.41,0.41
17.327208042144775,-0.04,0.09,-0.11,0.14
17.32822608947754,0.15,0.11,-0.75,0.77
17.342751026153564,0.26,0.08,-1.12,1.15
17.34378695487976,0.06,0.14,-0.99,1.0
17.359564781188965,-0.39,0.18,-0.73,0.84
17.360593795776367,-0.67,0.35,-0.28,0.8
17.374860763549805,-0.72,0.49,0.16,0.88
17.401026964187622,-0.72,0.48,0.25,0.9
17.402200937271118,-0.69,0.45,0.18,0.84
17.403018951416016,-0.57,0.34,-0.1,0.67
17.405101776123047,-0.48,0.25,-0.27,0.6
17.426395893096924,-0.49,0.23,-0.18,0.57
17.42747402191162,-0.42,0.21,-0.23,0.52
17.442771911621094,-0.16,0.15,-0.37,0.43
17.44381093978882,-0.02,0.21,-0.28,0.35
17.45846390724182,-0.1,0.3,-0.36,0.47
17.459497928619385,-0.21,0.36,-0.55,0.69
17.474853038787842,-0.25,0.47,-0.4,0.66
17.50356674194336,-0.47,0.59,0.01,0.75
17.50482702255249,-0.78,0.68,0.05,1.03
17.505619049072266,-1.11,0.81,-0.26,1.39
17.526884078979492,-1.33,0.99,-0.44,1.71
17.527926921844482,-1.51,1.23,-0.29,1.96
17.542897939682007,-1.83,1.38,-0.39,2.32
17.543903827667236,-1.93,1.84,-1.03,2.85
17.55970788002014,-1.73,2.26,-1.73,3.33
17.560823917388916,-1.7,2.86,-1.75,3.75
17.575390815734863,-1.89,3.12,-1.91,4.11
17.60588788986206,-2.23,3.21,-2.0,4.39
17.607300758361816,-2.55,3.43,-1.93,4.68
17.60828995704651,-2.81,3.68,-1.83,4.97
17.626923084259033,-3.04,4.06,-1.81,5.38
17.627970933914185,-3.46,4.59,-1.94,6.06
17.64275884628296,-4.13,5.33,-2.01,7.03
17.64378595352173,-5.61,6.96,-1.93,9.14
17.659876823425293,-7.61,9.16,-3.12,12.31
17.661561965942383,-9.07,10.45,-4.95,14.69
17.67562198638916,-9.79,11.05,-5.41,15.72
17.70601987838745,-10.09,10.45,-5.92,15.68
17.70736789703369,-11.06,9.46,-6.86,16.08
17.7083477973938,-12.33,9.42,-7.18,17.09
17.726967811584473,-11.35,12.64,-4.78,17.64
17.728012084960938,-6.77,14.13,-4.35,16.26
17.7425799369812,-0.12,10.75,-6.52,12.57
17.743608951568604,4.15,8.35,-3.53,9.97
17.760076999664307,2.84,2.68,-2.53,4.65
17.761541843414307,-2.31,-1.67,-2.23,3.61
17.775611877441406,-5.04,-4.69,-2.47,7.31
17.80602788925171,-1.12,-3.13,-2.96,4.45
17.807203769683838,6.16,1.73,2.09,6.73
17.808003902435303,5.36,-2.24,0.78,5.86
17.827045917510986,-1.06,-3.94,-3.34,5.27
17.82807683944702,-5.56,-3.68,-2.01,6.96
17.842792987823486,-8.17,-2.77,-1.85,8.82
17.84381890296936,-9.76,-2.4,-2.36,10.32
17.859914779663086,-9.38,-2.41,-1.56,9.8
17.86137890815735,-7.16,-2.9,-0.25,7.72
17.875587940216064,-5.29,-3.79,0.47,6.52
17.905197858810425,-5.0,-4.54,0.77,6.79
17.9065580368042,-5.64,-4.85,0.52,7.45
17.907562971115112,-6.27,-4.73,0.02,7.85
17.927466869354248,-6.14,-4.55,-0.57,7.66
17.928482055664062,-5.48,-4.55,-1.06,7.2
17.941048860549927,-4.82,-4.79,-1.54,6.96
17.94207787513733,-4.44,-5.07,-2.07,7.05
17.959934949874878,-4.27,-5.28,-2.53,7.24
17.961342811584473,-4.21,-5.63,-2.85,7.58
17.975703954696655,-4.13,-6.11,-2.88,7.91
18.005770921707153,-3.99,-6.54,-2.65,8.1
18.007198810577393,-3.77,-7.1,-2.28,8.35
18.008193016052246,-3.39,-7.94,-2.17,8.9
18.026925086975098,-2.98,-8.71,-2.17,9.45
18.02791690826416,-2.69,-9.08,-2.08,9.69
18.043104887008667,-2.3,-8.46,-1.83,8.95
18.04414701461792,-1.3,-7.2,-1.61,7.49
18.05994176864624,0.49,-5.78,-2.03,6.14
18.06140899658203,2.93,-3.85,-2.19,5.31
18.075748920440674,5.71,-2.18,-2.04,6.44
18.105876922607422,8.28,-0.36,-1.52,8.42
18.10729694366455,10.13,2.27,-0.26,10.38
18.10832405090332,11.3,5.17,0.91,12.45
18.125202894210815,12.73,7.62,2.39,15.02
18.12630796432495,14.4,9.67,3.97,17.79
18.1403169631958,15.53,10.96,5.31,19.73
18.141397953033447,15.63,10.52,5.47,19.61
18.15732192993164,15.16,9.97,5.58,18.98
18.158802032470703,14.72,9.9,6.05,18.74
18.175989866256714,11.17,12.45,6.19,17.83
18.20596694946289,6.91,17.57,5.7,19.72
18.207307815551758,0.85,7.01,-4.05,8.14
18.208244800567627,-10.5,10.17,-11.9,18.84
18.227025032043457,-15.77,34.32,-7.74,38.55
18.228110790252686,-9.19,25.41,1.14,27.04
18.24313497543335,0.37,-0.47,0.13,0.61
18.2441508769989,8.69,-3.62,1.93,9.6
18.25974178314209,12.99,-3.57,9.39,16.42
18.260823965072632,8.97,-7.49,6.68,13.46
18.27563786506653,4.36,-6.16,0.75,7.58
18.2771098613739,3.32,-1.29,0.37,3.58
18.322227001190186,2.76,0.62,-1.47,3.18
18.323430061340332,2.43,-0.01,-1.3,2.75
18.324421882629395,1.95,-0.98,0.19,2.19
18.343894958496094,1.36,-1.49,0.76,2.15
18.344933032989502,1.0,-0.16,1.16,1.53
18.35788106918335,0.24,1.21,1.7,2.1
18.358913898468018,-0.13,1.04,1.02,1.46
18.376940965652466,0.21,-0.01,0.71,0.74
18.378376960754395,0.93,-0.65,1.04,1.53
18.392663955688477,1.37,-1.2,0.91,2.03
18.42412281036377,1.11,-1.19,0.71,1.77
18.425509929656982,0.75,-0.67,0.37,1.07
18.42647886276245,0.61,-0.07,-0.15,0.63
18.443824768066406,0.69,0.2,-0.53,0.89
18.44485592842102,0.91,0.17,-0.59,1.09
18.459969997406006,1.21,0.07,-0.37,1.26
18.46101999282837,1.19,-0.15,-0.18,1.21
18.476952075958252,0.78,-0.3,0.47,0.95
18.478475093841553,0.38,-0.36,0.87,1.01
18.492406845092773,0.16,-0.31,0.97,1.03
18.521774768829346,0.1,-0.11,0.82,0.83
18.52312183380127,0.08,-0.02,0.53,0.53
18.52395796775818,0.11,-0.07,0.22,0.25
18.543843746185303,0.19,-0.11,-0.11,0.24
18.544901847839355,0.31,-0.07,-0.37,0.48
18.56004786491394,0.42,-0.05,-0.56,0.7
18.561070919036865,0.24,0.06,-0.67,0.71
18.576618909835815,-0.23,0.29,-0.62,0.72
18.577661991119385,-0.51,0.46,-0.39,0.78
18.59290075302124,-0.29,0.44,-0.06,0.53
18.62131977081299,0.0,0.3,-0.04,0.3
18.622721910476685,0.09,0.22,-0.29,0.37
18.623554944992065,-0.02,0.22,-0.29,0.36
18.643845081329346,-0.2,0.21,-0.04,0.29
18.64478087425232,-0.37,0.21,0.05,0.42
18.65965700149536,-0.4,0.25,-0.15,0.49
18.660692930221558,-0.31,0.44,-0.41,0.67
18.67670488357544,-0.18,0.59,-0.69,0.92
18.677762031555176,-0.32,0.66,-0.87,1.13
18.69285297393799,-0.75,0.84,-0.99,1.49
18.72096586227417,-1.15,1.05,-1.07,1.88
18.722110748291016,-1.46,1.2,-0.98,2.12
18.722919940948486,-1.64,1.27,-1.03,2.31
18.743217945098877,-1.71,1.32,-1.11,2.42
18.74428701400757,-1.78,1.36,-1.28,2.58
18.760345935821533,-1.91,1.44,-1.36,2.75
18.761420965194702,-2.04,1.68,-1.12,2.87
18.776992797851562,-2.11,1.81,-1.36,3.09
18.778000831604004,-1.95,1.91,-1.77,3.25
18.792881965637207,-1.95,2.66,-1.94,3.82
18.820816040039062,-1.97,3.34,-2.14,4.42
18.822001934051514,-2.29,3.73,-1.79,4.72
18.822789907455444,-2.77,3.85,-1.27,4.91
18.844120979309082,-3.3,3.9,-1.06,5.21
18.845149040222168,-3.75,4.13,-1.42,5.75
18.85962200164795,-4.21,4.73,-1.88,6.6
18.86068105697632,-4.89,6.05,-2.06,8.04
18.877469062805176,-5.89,7.79,-2.81,10.16
18.87895679473877,-6.98,8.97,-4.14,12.09
18.8923020362854,-8.24,10.13,-4.42,13.78
18.920811891555786,-9.69,11.0,-6.34,15.97
18.922191858291626,-10.62,10.63,-8.32,17.17
18.9231538772583,-10.68,9.7,-8.08,16.53
18.944189071655273,-10.54,8.7,-8.56,16.12
18.945242881774902,-9.81,9.64,-7.06,15.45
18.960397958755493,-6.29,13.42,-3.91,15.32
18.961462020874023,-0.87,13.34,-4.57,14.12
18.977138996124268,3.18,10.37,-4.62,11.78
18.978171825408936,1.89,4.95,-5.65,7.74
18.992892742156982,-2.83,0.06,-6.06,6.68
19.021589756011963,-4.92,-2.68,-4.67,7.29
19.022987842559814,0.46,2.73,0.52,2.81
19.02401304244995,4.51,1.23,2.74,5.41
19.044164896011353,0.42,-3.26,-2.67,4.23
19.04519295692444,-4.08,-3.36,-2.98,6.06
19.060020923614502,-7.29,-2.37,-2.0,7.92
19.06105375289917,-9.67,-2.01,-2.2,10.11
19.076855897903442,-10.24,-2.48,-1.58,10.65
19.07790493965149,-8.81,-3.63,-0.13,9.52
19.092829942703247,-7.08,-5.17,1.33,8.86
19.094295978546143,-6.36,-6.62,2.11,9.41
19.13967275619507,-6.43,-7.61,2.7,10.32
19.140817880630493,-6.46,-7.96,2.6,10.57
19.14180898666382,-6.09,-7.56,1.55,9.83
19.16104507446289,-5.73,-6.78,0.27,8.88
19.162074089050293,-5.72,-6.16,-0.86,8.45
19.177325963974,-5.73,-5.72,-1.84,8.3
19.178771018981934,-5.27,-5.55,-2.51,8.05
19.194077968597412,-4.54,-5.61,-2.64,7.68
19.195551872253418,-3.96,-6.15,-2.52,7.73
19.20936894416809,-3.72,-6.82,-2.21,8.07
19.239675998687744,-3.79,-7.48,-1.84,8.58
19.241087913513184,-4.16,-7.9,-1.3,9.02
19.24210286140442,-4.48,-8.03,-0.44,9.2
19.260710954666138,-4.5,-8.03,0.43,9.21
19.261706829071045,-4.21,-7.97,1.23,9.09
19.277063846588135,-3.3,-7.69,1.96,8.59
19.278512001037598,-1.64,-7.04,2.44,7.62
19.295142889022827,0.52,-5.71,2.58,6.28
19.296560764312744,3.09,-3.66,2.58,5.44
19.309505939483643,5.95,-1.54,3.19,6.92
19.340500831604004,9.12,0.77,4.43,10.16
19.341877937316895,11.85,3.09,5.73,13.52
19.34294891357422,14.49,5.48,7.09,17.03
19.35962677001953,16.11,8.13,7.5,19.54
19.36073875427246,17.25,10.38,8.08,21.69
19.374199867248535,18.1,11.27,7.55,22.61
19.375261783599854,15.27,12.98,5.19,20.7
19.394495964050293,13.03,21.78,-3.87,25.67
19.396010875701904,10.1,30.48,-16.24,35.98
19.40946888923645,-1.26,36.0,-17.31,39.96
19.436271905899048,-0.64,34.55,-9.14,35.74
19.437644004821777,8.26,9.03,-3.01,12.6
19.438586950302124,6.11,-9.82,4.13,12.28
19.4407057762146,1.47,-14.36,11.16,18.24
19.441922903060913,1.18,-12.74,10.28,16.41
19.443088054656982,4.67,-8.81,7.39,12.41
19.44429302215576,5.35,-3.06,3.86,7.27
19.445491790771484,3.77,3.4,2.54,5.67
19.447104930877686,-0.54,4.3,-3.05,5.29
19.457265853881836,-2.59,1.19,-4.36,5.2
19.48648977279663,-0.95,0.32,-0.04,1.0
19.48734188079834,1.32,-0.12,1.98,2.38
19.489131927490234,2.57,-0.25,0.71,2.67
19.496742963790894,2.27,-0.21,-1.24,2.59
19.506964921951294,1.72,0.07,-1.61,2.35
19.516795873641968,1.48,-0.16,-0.62,1.61
19.526835918426514,1.33,-0.87,-0.02,1.58
19.536664962768555,1.05,-1.03,0.14,1.47
19.546604871749878,0.76,-0.41,0.27,0.9
19.55662775039673,0.47,0.15,0.44,0.66
19.58832287788391,0.41,0.19,0.44,0.63
19.589293956756592,0.46,-0.12,0.48,0.67
19.590065956115723,0.18,-0.06,0.71,0.73
19.611032009124756,-0.25,0.19,0.57,0.65
19.61206293106079,-0.42,0.41,0.28,0.65
19.62727403640747,-0.31,0.41,-0.08,0.52
19.628236770629883,0.0,0.22,-0.62,0.65
19.643683910369873,0.33,0.04,-0.77,0.83
19.645766973495483,0.4,-0.11,-0.7,0.81
19.659835815429688,0.16,-0.23,-0.66,0.71
19.690025806427002,-0.18,-0.05,-0.58,0.6
19.69138789176941,-0.36,0.21,-0.44,0.6
19.692286014556885,-0.38,0.29,-0.21,0.52
19.71088194847107,-0.38,0.23,0.26,0.51
19.7118718624115,-0.52,0.2,0.69,0.88
19.726863861083984,-0.77,0.32,0.78,1.14
19.727904796600342,-0.81,0.61,0.43,1.1
19.74399495124817,-0.61,0.78,0.01,0.99
19.74547576904297,-0.51,0.73,-0.25,0.92
19.75963592529297,-0.59,0.55,-0.17,0.82
19.791361808776855,-0.72,0.4,0.0,0.82
19.79253101348877,-0.96,0.54,-0.06,1.1
19.793563842773438,-1.26,0.93,-0.38,1.61
19.811366081237793,-1.77,1.38,-1.0,2.45
19.812455892562866,-2.22,1.71,-1.32,3.09
19.82742190361023,-2.18,1.8,-1.23,3.08
19.82845687866211,-1.62,1.65,-1.12,2.56
19.844234943389893,-1.15,1.44,-1.53,2.39
19.845696926116943,-0.95,1.61,-1.71,2.53
19.85975694656372,-1.11,2.04,-1.59,2.81
19.864287853240967,-1.44,2.36,-1.33,3.06
19.90191888809204,-1.79,2.56,-1.33,3.39
19.903101921081543,-2.11,2.64,-1.28,3.61
19.90412998199463,-2.45,2.77,-1.07,3.84
19.90696382522583,-2.75,2.95,-0.93,4.13
19.927302837371826,-2.88,3.17,-1.24,4.45
19.928351879119873,-3.19,3.35,-2.0,5.03
19.944390773773193,-3.91,3.99,-2.28,6.03
19.945875883102417,-4.84,5.38,-2.33,7.6
19.9600510597229,-6.16,7.16,-2.8,9.85
19.963620901107788,-7.86,9.82,-3.38,13.02
20.004995822906494,-9.07,11.5,-5.94,15.8
20.006192922592163,-9.65,11.18,-7.27,16.46
20.007187843322754,-10.12,10.3,-6.57,15.86
20.028685092926025,-11.24,9.88,-6.09,16.15
20.03020477294922,-11.68,12.9,-3.6,17.77
20.042680740356445,-8.63,16.78,-1.07,18.89
20.04420804977417,-2.49,14.83,-4.97,15.83
20.061347007751465,2.74,11.3,-7.29,13.72
20.06279182434082,2.57,5.76,-6.3,8.91
20.07665777206421,-2.47,0.47,-5.85,6.36
20.10575008392334,-6.1,-3.08,-5.69,8.89
20.10724186897278,-1.75,-1.13,-5.25,5.64
20.108253955841064,6.2,4.87,0.81,7.92
20.127956867218018,5.2,1.14,0.43,5.34
20.12897491455078,-1.3,-1.09,-3.52,3.9
20.144279956817627,-6.31,-1.86,-2.6,7.07
20.145761013031006,-9.92,-1.17,-2.5,10.29
20.160929918289185,-12.7,-1.15,-3.56,13.23
20.16233205795288,-13.91,-2.09,-3.34,14.45
20.176633834838867,-11.75,-3.4,-0.92,12.26
20.205554008483887,-7.74,-5.7,1.1,9.67
20.20692491531372,-5.35,-8.07,1.45,9.79
20.207931995391846,-4.76,-9.61,0.89,10.76
20.2277250289917,-5.07,-9.46,0.08,10.73
20.228731870651245,-5.57,-8.14,-0.71,9.88
20.244221925735474,-5.49,-7.34,-2.04,9.39
20.245608806610107,-5.01,-7.18,-3.09,9.28
20.26102876663208,-4.61,-7.03,-3.6,9.14
20.26247787475586,-4.2,-6.7,-3.62,8.69
20.277570962905884,-3.72,-6.59,-3.41,8.3
20.30634593963623,-3.39,-6.95,-3.01,8.29
20.307751893997192,-3.22,-7.51,-2.52,8.55
20.308735847473145,-3.15,-8.03,-2.08,8.87
20.32800006866455,-3.0,-8.37,-1.83,9.07
20.32899284362793,-2.77,-8.49,-1.55,9.06
20.34509587287903,-2.58,-8.4,-1.41,8.89
20.346601963043213,-2.52,-8.11,-1.68,8.65
20.361151933670044,-2.53,-7.16,-1.61,7.76
20.362631797790527,-1.96,-5.15,-0.85,5.57
20.376757860183716,-0.17,-2.89,-0.44,2.92
20.40700387954712,2.58,-0.24,0.18,2.59
20.408353805541992,5.63,2.72,1.18,6.36
20.409417867660522,8.11,6.29,2.66,10.6
20.42562484741211,9.87,10.48,4.35,15.03
20.426686763763428,10.39,14.28,4.21,18.15
20.442598819732666,9.01,15.77,2.72,18.36
20.443636894226074,6.38,22.9,1.02,23.79
20.459219932556152,9.72,33.19,0.42,34.58
20.46076202392578,16.86,34.43,-2.53,38.41
20.476781845092773,21.79,29.97,-1.04,37.06
20.504190921783447,20.68,9.26,-2.0,22.74
20.50557279586792,13.18,-4.42,-2.69,14.15
20.506621837615967,6.46,7.53,3.58,10.54
20.508702754974365,2.24,10.1,8.91,13.65
20.510127067565918,4.15,6.55,5.36,9.42
20.51895809173584,3.47,-0.21,0.75,3.55
20.52934193611145,1.7,-0.92,-0.11,1.93
20.539167881011963,0.18,-2.72,-1.29,3.01
20.549195766448975,0.68,-3.23,-1.4,3.58
20.55949878692627,3.23,-2.62,-0.48,4.18
20.595947742462158,5.23,-1.93,0.45,5.59
20.597092866897583,4.68,-1.32,0.6,4.89
20.598103046417236,2.33,-0.51,0.42,2.42
20.611329078674316,0.05,0.66,0.62,0.9
20.6123948097229,-1.48,1.41,0.47,2.09
20.627545833587646,-2.02,1.46,0.96,2.67
20.628594875335693,-1.46,0.49,1.62,2.23
20.644352912902832,0.03,-0.77,1.18,1.4
20.64859390258789,1.4,-1.13,0.33,1.82
20.660165786743164,1.44,-0.79,0.07,1.64
20.66829490661621,0.81,-0.34,-0.16,0.89
20.70186686515808,0.47,0.01,-0.5,0.68
20.70294690132141,0.47,0.17,-0.5,0.7
20.704107761383057,0.69,0.06,-0.41,0.8
20.70776081085205,0.96,-0.18,-0.35,1.03
20.717800855636597,0.82,-0.45,-0.27,0.97
20.72792887687683,0.59,-0.41,0.2,0.74
20.73754096031189,0.35,-0.25,0.74,0.85
20.747922897338867,0.12,-0.04,0.93,0.93
20.757879972457886,-0.05,0.17,0.83,0.84
20.768335819244385,-0.02,0.13,0.46,0.47
20.799756050109863,0.17,-0.01,-0.24,0.29
20.80107092857361,0.31,0.04,-0.7,0.76
20.80207896232605,0.27,0.18,-0.82,0.88
20.810781955718994,0.12,0.28,-0.73,0.79
20.816898822784424,0.05,0.23,-0.46,0.51
20.826852798461914,-0.08,0.13,0.06,0.16
20.83704900741577,-0.37,0.11,0.4,0.55
20.846967935562134,-0.62,0.25,0.42,0.78
20.857086896896362,-0.69,0.33,0.08,0.76
20.866678953170776,-0.58,0.38,-0.62,0.93
20.897052764892578,-0.46,0.32,-1.08,1.21
20.898645877838135,-0.5,0.33,-1.09,1.24
20.899658918380737,-0.6,0.43,-0.75,1.05
20.911406993865967,-0.67,0.51,-0.72,1.1
20.916051864624023,-0.79,0.66,-1.09,1.49
20.926387786865234,-0.99,0.81,-1.23,1.77
20.93635892868042,-1.21,0.89,-1.19,1.91
20.946091890335083,-1.22,0.96,-1.1,1.9
20.9563250541687,-1.18,0.99,-0.93,1.79
20.965861797332764,-1.2,1.15,-0.92,1.89
20.996201038360596,-1.14,1.36,-0.91,1.99
20.997456073760986,-1.21,1.45,-1.14,2.2
20.9984769821167,-1.46,1.84,-0.78,2.47
21.011831760406494,-1.76,2.32,-0.52,2.95
21.015524864196777,-1.99,2.81,-0.44,3.47
21.026412963867188,-2.32,3.39,-0.55,4.14
21.035655975341797,-2.64,3.4,-1.11,4.44
21.045387744903564,-2.66,3.65,-1.39,4.72
21.05535387992859,-2.57,3.72,-1.83,4.87
21.065253973007202,-2.61,3.98,-2.18,5.23
21.101887941360474,-3.21,4.69,-2.35,6.15
21.10318374633789,-4.28,6.18,-2.58,7.94
21.10424494743347,-5.47,7.7,-3.37,10.02
21.107791900634766,-6.73,9.2,-4.25,12.16
21.127901077270508,-8.3,10.17,-5.49,14.22
21.128952980041504,-9.69,10.44,-6.28,15.56
21.14486598968506,-10.28,10.76,-6.67,16.3
21.146331787109375,-10.07,9.91,-8.37,16.42
21.160391807556152,-10.08,8.43,-10.21,16.64
21.16451597213745,-9.95,9.85,-8.2,16.22
21.20384192466736,-7.46,14.82,-3.61,16.97
21.20502495765686,-1.94,15.59,-3.79,16.16
21.206228971481323,2.65,10.26,-6.77,12.57
21.207780838012695,1.51,3.63,-7.99,8.9
21.213873863220215,-3.56,0.08,-6.5,7.41
21.224029064178467,-6.54,-2.99,-4.46,8.46
21.233999967575073,-2.09,-0.26,-1.13,2.39
21.243876934051514,5.55,2.04,3.55,6.89
21.254127979278564,4.42,-3.3,0.14,5.51
21.264044761657715,-1.29,-4.14,-2.85,5.18
21.300752878189087,-5.6,-3.74,-1.84,6.98
21.30211591720581,-8.9,-3.14,-2.18,9.68
21.3031587600708,-11.17,-2.69,-2.98,11.86
21.307984828948975,-11.78,-3.18,-2.89,12.53
21.313232898712158,-9.59,-4.16,-1.15,10.51
21.328019857406616,-6.41,-5.46,0.19,8.42
21.333011865615845,-4.73,-7.01,0.63,8.47
21.344573974609375,-4.57,-7.57,0.67,8.86
21.353245973587036,-5.19,-6.9,0.33,8.64
21.36306381225586,-5.22,-6.21,-0.39,8.12
21.399034023284912,-4.41,-6.09,-1.06,7.59
21.4003689289093,-3.58,-6.2,-1.57,7.32
21.40147590637207,-3.21,-6.03,-1.83,7.07
21.411618947982788,-3.18,-5.79,-1.98,6.89
21.412686824798584,-3.22,-5.79,-2.28,7.0
21.42733097076416,-3.16,-5.88,-2.42,7.1
21.432233810424805,-3.24,-5.83,-2.2,7.02
21.444852828979492,-3.53,-5.88,-1.42,7.0
21.452311992645264,-3.65,-6.08,-0.49,7.1
21.462109088897705,-3.49,-6.3,0.44,7.21
21.472161769866943,-3.25,-6.3,1.13,7.17
21.504217863082886,-2.67,-5.79,1.97,6.67
21.505408763885498,-1.34,-4.58,1.73,5.07
21.506587982177734,0.74,-3.12,1.15,3.4
21.51173996925354,3.15,-1.42,1.72,3.85
21.521483898162842,5.59,0.25,2.86,6.28
21.531831741333008,7.44,1.87,3.85,8.58
21.541846752166748,8.65,4.11,4.51,10.58
21.551846981048584,9.69,6.47,5.32,12.8
21.561564922332764,11.17,8.11,6.07,15.07
21.571659088134766,12.61,9.45,6.51,17.04
21.604290008544922,14.29,10.97,7.5,19.51
21.605477809906006,16.15,11.0,8.3,21.22
21.606712818145752,17.06,9.71,8.14,21.25
21.610939979553223,15.64,12.04,5.8,20.57
21.62143087387085,15.21,14.11,1.74,20.81
21.630867958068848,15.16,8.7,-11.0,20.65
21.640864849090576,3.45,12.64,-15.6,20.37
21.650831937789917,-7.39,36.58,-4.49,37.58
21.661552906036377,-8.5,24.98,2.03,26.46
21.670909881591797,-0.65,-0.03,2.75,2.82
21.70151376724243,3.97,-9.55,7.44,12.74
21.702719926834106,4.3,-14.02,7.06,16.27
21.703994750976562,6.07,-10.44,5.36,13.21
21.710110902786255,5.7,-3.68,5.55,8.76
21.720197916030884,2.52,2.05,3.17,4.53
21.730124950408936,-0.43,3.18,-2.13,3.85
21.740041971206665,-0.95,0.19,-3.59,3.71
21.749858856201172,1.09,-0.89,-1.27,1.89
21.7602219581604,2.74,-0.74,1.02,3.01
21.770111083984375,2.17,-0.31,0.89,2.36
21.80111789703369,0.53,0.53,0.25,0.79
21.802469968795776,-0.05,1.08,-0.55,1.21
21.803630828857422,0.53,0.53,-1.0,1.24
21.8095760345459,1.09,-0.35,-0.41,1.21
21.82841682434082,1.14,-0.93,0.47,1.54
21.829447746276855,1.0,-1.02,0.79,1.63
21.84469985961914,1.08,-0.63,0.55,1.36
21.849153995513916,1.08,-0.17,0.28,1.12
21.860503911972046,0.88,0.18,0.25,0.93
21.869349002838135,0.46,0.19,0.59,0.77
21.90498685836792,0.21,-0.06,0.76,0.79
21.90613889694214,0.22,-0.32,0.78,0.87
21.907163858413696,0.31,-0.46,0.6,0.81
21.909658908843994,0.44,-0.33,-0.12,0.56
21.91832399368286,0.42,-0.06,-0.56,0.7
21.928785800933838,0.19,0.11,-0.03,0.22
21.93854594230652,0.01,0.03,0.47,0.47
21.948601961135864,-0.02,-0.05,0.12,0.13
21.958725929260254,-0.01,0.09,-0.42,0.42
21.96872591972351,-0.11,0.31,-0.47,0.57
22.004569053649902,-0.41,0.49,-0.38,0.74
22.00591802597046,-0.41,0.41,-0.5,0.76
22.00683307647705,-0.22,0.46,-0.54,0.74
22.00895881652832,-0.12,0.47,-0.62,0.78
22.01791286468506,-0.22,0.44,-0.63,0.79
22.027869939804077,-0.47,0.48,-0.35,0.75
22.037731885910034,-0.72,0.49,-0.21,0.89
22.047791004180908,-0.78,0.51,-0.28,0.97
22.0577130317688,-0.71,0.48,-0.43,0.95
22.067834854125977,-0.7,0.52,-0.49,1.0
22.10381293296814,-0.74,0.68,-0.8,1.28
22.10520887374878,-1.09,0.98,-1.02,1.78
22.106169939041138,-1.47,1.38,-0.84,2.18
22.108484745025635,-1.86,1.64,-0.62,2.55
22.11704683303833,-2.11,1.99,-0.86,3.02
22.127310752868652,-2.13,2.66,-1.1,3.58
22.1371750831604,-2.05,3.17,-1.5,4.06
22.147433757781982,-2.11,3.46,-1.7,4.39
22.157208919525146,-2.44,3.81,-1.58,4.79
22.167093753814697,-3.0,4.11,-1.62,5.34
22.202034950256348,-3.55,4.52,-1.71,5.99
22.20343589782715,-4.08,5.14,-2.0,6.86
22.204426765441895,-4.67,5.97,-2.5,7.98
22.210196018218994,-5.39,6.86,-3.04,9.23
22.228229999542236,-6.52,8.5,-2.75,11.05
22.229280948638916,-7.84,10.38,-4.05,13.62
22.24673295021057,-8.72,10.61,-7.49,15.64
22.24824285507202,-8.99,10.32,-8.2,15.95
22.261140823364258,-8.91,10.03,-8.4,15.82
22.266267776489258,-8.98,8.82,-10.06,16.11
22.276964902877808,-9.27,8.9,-10.7,16.72
22.307881832122803,-8.23,13.23,-7.24,17.18
22.309310913085938,-4.49,16.38,-5.13,17.74
22.310328006744385,0.92,15.02,-6.44,16.36
22.32902193069458,3.64,9.25,-7.13,12.23
22.330094814300537,0.65,2.64,-7.31,7.79
22.344954013824463,-4.28,-1.47,-5.46,7.09
22.346224784851074,-3.61,-2.2,-3.46,5.46
22.36212396621704,3.44,3.29,2.33,5.29
22.3655047416687,4.75,-0.73,2.79,5.55
22.37740707397461,-0.86,-3.35,-1.83,3.91
22.408034801483154,-5.75,-3.3,-1.67,6.83
22.409348964691162,-9.11,-2.37,-1.41,9.51
22.41036295890808,-11.61,-1.89,-2.47,12.01
22.42936086654663,-12.18,-2.14,-2.49,12.61
22.430335998535156,-9.63,-3.1,-0.99,10.16
22.44455099105835,-6.22,-4.9,0.27,7.92
22.44603991508484,-4.69,-6.79,0.81,8.29
22.46233606338501,-4.8,-7.92,0.74,9.29
22.464735984802246,-5.44,-7.39,0.46,9.18
22.4774968624115,-6.25,-6.35,0.18,8.91
22.505794048309326,-6.1,-6.04,-0.87,8.62
22.507094860076904,-5.3,-5.9,-1.77,8.12
22.50808095932007,-4.98,-5.72,-2.01,7.84
22.52915382385254,-4.98,-5.74,-2.13,7.89
22.530093908309937,-4.99,-6.19,-2.13,8.23
22.54530692100525,-4.9,-6.84,-2.06,8.66
22.54674482345581,-4.62,-7.5,-1.95,9.02
22.562434911727905,-4.11,-7.98,-1.81,9.15
22.563907861709595,-3.49,-8.26,-1.43,9.08
22.577741861343384,-3.0,-8.51,-0.92,9.07
22.607175827026367,-2.76,-8.8,-0.41,9.23
22.608595848083496,-2.75,-8.95,-0.05,9.36
22.609606742858887,-2.68,-8.61,0.1,9.01
22.629283905029297,-2.35,-7.22,0.48,7.6
22.630311965942383,-1.44,-4.97,1.03,5.27
22.645436763763428,0.38,-2.62,1.21,2.91
22.64688777923584,2.72,-0.26,2.05,3.41
22.662296772003174,5.77,2.41,3.2,7.02
22.66371774673462,8.85,5.61,4.61,11.44
22.677711009979248,11.56,9.3,6.59,16.23
22.711105823516846,13.89,12.28,7.75,20.09
22.712540864944458,14.68,12.3,6.8,20.32
22.713599920272827,14.44,12.52,6.29,20.12
22.727471828460693,14.46,14.54,5.68,21.27
22.72852396965027,13.73,20.52,1.38,24.72
22.74305295944214,16.56,22.47,-4.67,28.3
22.744548797607422,16.99,14.5,-15.35,27.1
22.75931692123413,3.37,11.99,-13.56,18.41
22.762646913528442,-6.01,25.67,-3.27,26.56
22.777788877487183,-5.48,18.77,0.04,19.55
22.810340881347656,0.28,2.05,3.86,4.37
22.811727046966553,7.53,2.06,7.99,11.17
22.81274175643921,10.03,-1.17,6.59,12.05
22.8295259475708,5.91,-4.9,3.12,8.28
22.83058786392212,2.11,-4.56,2.03,5.41
22.84562873840332,1.21,-3.18,1.22,3.61
22.847064971923828,2.44,-1.5,0.02,2.86
22.86232590675354,3.28,-0.58,0.2,3.33
22.863816738128662,2.58,0.12,0.71,2.67
22.87767195701599,1.36,0.28,0.71,1.55
22.91031789779663,0.52,0.36,-0.07,0.63
22.911609888076782,0.42,0.47,-0.55,0.83
22.912585973739624,0.65,0.35,0.29,0.79
22.92946195602417,0.83,-0.2,1.03,1.33
22.93056583404541,0.82,-0.59,0.64,1.19
22.94562792778015,0.72,-0.42,-0.14,0.84
22.947102069854736,0.61,-0.09,-0.19,0.64
22.962381839752197,0.61,-0.14,0.12,0.63
22.963747024536133,0.65,-0.37,0.19,0.77
22.977656841278076,0.45,-0.39,0.33,0.68
23.0098819732666,0.18,-0.15,0.37,0.43
23.011205911636353,0.05,0.05,0.16,0.17
23.01220393180847,0.16,0.13,-0.16,0.26
23.029664993286133,0.43,0.11,-0.14,0.46
23.03072690963745,0.42,-0.05,-0.1,0.43
23.04525589942932,0.26,-0.13,-0.1,0.3
23.046627044677734,0.04,-0.01,-0.13,0.13
23.06222105026245,-0.21,0.13,-0.39,0.46
23.06368589401245,-0.28,0.22,-0.48,0.59
23.07829475402832,-0.22,0.23,-0.39,0.5
23.080071926116943,-0.23,0.21,-0.34,0.46
23.12679696083069,-0.26,0.34,-0.4,0.58
23.127935886383057,-0.26,0.48,-0.3,0.62
23.128879070281982,-0.42,0.43,-0.15,0.61
23.14679789543152,-0.39,0.32,-0.11,0.51
23.148318767547607,-0.22,0.2,-0.06,0.3
23.161515951156616,-0.26,0.22,-0.05,0.34
23.16295576095581,-0.48,0.36,-0.19,0.62
23.179141998291016,-0.73,0.51,-0.36,0.96
23.18059778213501,-0.88,0.66,-0.65,1.27
23.19466495513916,-0.96,0.76,-0.89,1.51
23.22393798828125,-1.09,0.86,-1.11,1.77
23.22526979446411,-1.27,1.02,-1.44,2.17
23.226240873336792,-1.46,1.2,-1.72,2.55
23.246692895889282,-1.49,1.42,-1.75,2.7
23.24775791168213,-1.43,1.78,-1.4,2.67
23.262338876724243,-1.34,2.24,-0.86,2.74
23.26382875442505,-1.44,2.32,-1.15,2.96
23.27910590171814,-1.71,2.94,-1.02,3.55
23.28054690361023,-2.3,3.71,-0.97,4.47
23.29478406906128,-2.92,4.09,-1.04,5.13
23.32548189163208,-3.33,4.36,-1.4,5.66
23.32676386833191,-3.44,4.47,-1.94,5.96
23.32774305343628,-3.58,5.04,-2.29,6.59
23.346268892288208,-4.32,5.87,-3.15,7.93
23.347331047058105,-5.62,7.32,-3.6,9.9
23.362640857696533,-7.0,9.44,-3.69,12.31
23.364195823669434,-8.42,10.67,-5.09,14.51
23.376160860061646,-9.66,10.92,-6.67,16.03
23.377686023712158,-10.16,11.24,-7.24,16.79
23.39482092857361,-10.25,11.03,-8.74,17.41
23.423912048339844,-10.49,9.65,-11.02,18.01
23.425298929214478,-10.41,10.47,-9.7,17.66
23.426361083984375,-7.77,14.73,-4.66,17.29
23.44605779647827,-2.33,14.87,-3.84,15.53
23.447096824645996,2.96,9.84,-5.93,11.86
23.462371826171875,2.59,3.1,-7.28,8.32
23.463408946990967,-1.79,-1.24,-6.15,6.52
23.479038953781128,-5.1,-4.35,-4.0,7.8
23.4805269241333,-1.38,-1.72,-0.38,2.23
23.494566917419434,4.77,-0.67,4.66,6.7
23.52402687072754,2.5,-5.31,0.25,5.87
23.525460958480835,-3.26,-6.37,-3.13,7.81
23.526436805725098,-7.17,-5.98,-1.71,9.49
23.546066761016846,-9.96,-4.76,-1.48,11.13
23.547121047973633,-12.25,-4.14,-2.35,13.14
23.562131881713867,-13.27,-4.13,-1.8,14.01
23.563549995422363,-11.47,-4.54,0.35,12.34
23.57919406890869,-8.36,-5.59,1.9,10.23
23.58065891265869,-6.49,-6.48,2.3,9.45
23.594850063323975,-6.03,-6.18,1.79,8.81
23.623825073242188,-5.99,-4.7,0.83,7.65
23.625205993652344,-5.46,-3.81,-0.35,6.66
23.626231908798218,-4.57,-3.6,-1.42,5.98
23.64605689048767,-3.92,-3.64,-2.14,5.76
23.647058963775635,-3.68,-3.62,-2.64,5.79
23.662787914276123,-3.62,-3.5,-3.12,5.92
23.663821935653687,-3.39,-3.39,-3.41,5.88
23.679183959960938,-2.8,-3.41,-3.34,5.53
23.680635929107666,-1.98,-3.68,-3.04,5.16
23.694986820220947,-1.17,-4.05,-2.69,5.0
23.72407102584839,-0.5,-4.52,-2.56,5.21
23.72541093826294,-0.04,-5.14,-2.5,5.71
23.726398944854736,0.17,-5.42,-2.0,5.77
23.745991945266724,0.17,-5.29,-1.09,5.4
23.74696397781372,0.15,-4.51,0.54,4.54
23.762666940689087,0.74,-3.76,2.32,4.47
23.76413893699646,1.63,-3.22,3.4,4.95
23.779335975646973,2.22,-1.42,5.1,5.74
23.780792951583862,3.42,0.55,5.83,6.78
23.795129776000977,5.67,2.57,6.24,8.81
23.82440495491028,8.52,5.0,7.12,12.17
23.82575798034668,11.25,6.82,7.74,15.26
23.826767921447754,14.12,8.22,8.3,18.32
23.84610891342163,16.76,9.33,8.6,21.02
23.847198963165283,18.86,9.42,8.36,22.67
23.860017776489258,20.02,9.65,7.37,23.41
23.861058950424194,19.36,10.89,5.1,22.79
23.879579067230225,17.74,14.82,0.49,23.12
23.88104486465454,13.86,3.83,-11.44,18.37
23.894953966140747,-2.58,1.99,-19.57,19.83
23.896415948867798,-13.74,38.31,-10.17,41.95
23.941195964813232,-14.41,37.69,1.89,40.39
23.9424729347229,-6.45,2.29,3.49,7.68
23.94345188140869,2.45,-7.78,6.48,10.41
23.962996006011963,7.64,-9.08,10.71,15.98
23.964019775390625,10.96,-6.24,8.8,15.37
23.97956395149231,9.8,-4.45,1.57,10.87
23.981028079986572,6.46,-0.21,-2.14,6.8
23.996097087860107,2.84,1.62,-0.85,3.37
23.99757695198059,0.33,0.23,-0.7,0.8
24.011414051055908,0.16,-0.59,-0.68,0.91
24.041773796081543,1.23,-0.5,-0.21,1.34
24.04317283630371,1.91,0.06,0.84,2.08
24.044177055358887,1.42,0.2,1.16,1.84
24.06292200088501,0.47,0.08,0.39,0.61
24.063950061798096,0.39,0.0,-0.19,0.43
24.07930278778076,0.77,-0.17,0.01,0.78
24.08033275604248,1.02,-0.6,0.31,1.22
24.096165895462036,0.77,-0.77,0.55,1.21
24.097614765167236,0.47,-0.4,0.59,0.85
24.110216856002808,0.42,0.1,0.41,0.59
24.139126777648926,0.63,0.22,-0.07,0.67
24.140517950057983,0.98,0.02,-0.3,1.02
24.141560077667236,1.01,-0.1,0.15,1.02
24.14354181289673,0.66,-0.18,0.44,0.81
24.14498805999756,0.3,-0.25,0.11,0.4
24.14636993408203,0.17,-0.11,-0.03,0.2
24.151526927947998,0.08,0.04,0.18,0.2
24.16185188293457,0.03,0.03,0.24,0.24
24.17166805267334,-0.01,-0.02,0.03,0.03
24.181635856628418,-0.02,0.13,-0.15,0.19
24.20975685119629,0.04,0.24,-0.33,0.41
24.211036920547485,0.03,0.24,-0.34,0.41
24.21170687675476,-0.28,0.37,0.01,0.46
24.229108810424805,-0.57,0.43,0.24,0.75
24.231005907058716,-0.6,0.37,0.24,0.74
24.244796752929688,-0.57,0.31,0.03,0.64
24.251024961471558,-0.65,0.31,-0.29,0.77
24.26200795173645,-0.83,0.4,-0.51,1.05
24.270966053009033,-0.84,0.46,-0.65,1.15
24.281080961227417,-0.62,0.45,-0.81,1.11
24.317347049713135,-0.39,0.49,-0.9,1.09
24.318702936172485,-0.56,0.6,-1.05,1.33
24.31978988647461,-1.04,0.92,-1.23,1.85
24.329803943634033,-1.49,1.29,-1.44,2.44
24.33089590072632,-1.76,1.66,-1.55,2.87
24.345961093902588,-1.9,1.99,-1.42,3.09
24.350239753723145,-1.87,2.09,-1.37,3.12
24.362629890441895,-1.96,2.19,-1.62,3.35
24.37050199508667,-1.95,3.02,-1.59,3.93
24.380119800567627,-2.01,3.54,-1.64,4.38
24.417348861694336,-2.36,3.94,-1.35,4.78
24.418752908706665,-3.04,4.02,-1.23,5.18
24.419748783111572,-3.71,4.14,-1.16,5.67
24.427743911743164,-4.22,4.49,-1.37,6.31
24.429629802703857,-4.44,4.69,-2.07,6.78
24.44608187675476,-4.62,5.24,-2.56,7.44
24.44946002960205,-5.08,6.82,-2.76,8.94
24.46260404586792,-5.88,8.01,-4.16,10.77
24.469632863998413,-7.38,8.84,-5.53,12.77
24.47929096221924,-8.96,10.13,-6.48,14.99
24.51596689224243,-9.63,10.4,-7.97,16.26
24.517345905303955,-9.69,9.35,-8.89,16.13
24.518322944641113,-9.6,8.43,-9.32,15.81
24.519373893737793,-9.0,10.27,-7.04,15.36
24.5291109085083,-6.1,14.36,-3.83,16.06
24.539289951324463,-0.93,14.3,-4.69,15.07
24.548798084259033,2.96,10.61,-6.01,12.54
24.558696746826172,2.32,4.62,-6.3,8.14
24.568769931793213,-2.69,0.02,-5.76,6.35
24.57880187034607,-5.95,-3.12,-4.45,8.05
24.615115880966187,-1.69,1.0,-0.95,2.18
24.61626386642456,3.58,2.46,3.26,5.43
24.617312908172607,0.17,-2.08,-1.39,2.5
24.630323886871338,-4.56,-2.82,-2.9,6.09
24.631409883499146,-8.08,-1.89,-1.82,8.49
24.64610004425049,-10.87,-1.3,-1.85,11.1
24.647964000701904,-12.07,-1.56,-1.53,12.26
24.66253685951233,-10.7,-2.54,-0.19,10.99
24.668277740478516,-7.81,-4.12,1.32,8.92
24.67844796180725,-5.97,-5.88,1.83,8.57
24.688265800476074,-5.51,-6.96,1.62,9.02
24.719886779785156,-5.5,-6.97,1.03,8.93
24.721036911010742,-5.33,-6.37,0.34,8.31
24.72226905822754,-4.87,-5.6,-0.72,7.45
24.727290868759155,-4.32,-4.93,-1.58,6.74
24.737284898757935,-3.81,-4.55,-2.31,6.36
24.747236967086792,-3.43,-4.44,-3.06,6.39
24.7571918964386,-3.08,-4.55,-3.6,6.56
24.76699995994568,-2.89,-4.67,-3.73,6.63
24.77753782272339,-2.78,-5.05,-3.36,6.67
24.78727102279663,-2.84,-5.55,-2.86,6.85
24.818410873413086,-3.13,-6.25,-2.48,7.41
24.81971502304077,-3.42,-6.84,-2.28,7.98
24.820727825164795,-3.52,-7.31,-2.09,8.37
24.828181743621826,-3.71,-7.28,-1.31,8.27
24.83660888671875,-4.01,-6.64,-0.39,7.76
24.846552848815918,-3.87,-5.72,-0.01,6.9
24.856311798095703,-2.36,-4.93,0.68,5.5
24.86626100540161,-0.4,-4.32,2.09,4.81
24.87670373916626,0.87,-3.25,3.89,5.14
24.886568069458008,2.22,-0.96,5.95,6.42
24.919200897216797,4.17,1.62,7.98,9.14
24.92057991027832,6.45,3.6,9.31,11.88
24.92168092727661,8.5,4.81,9.16,13.38
24.92633295059204,9.64,5.9,7.53,13.58
24.94616985321045,10.48,8.7,5.9,14.84
24.947191953659058,12.67,13.12,5.93,19.17
24.962960958480835,16.46,16.56,5.03,23.88
24.965757846832275,19.87,16.32,3.08,25.89
24.976102828979492,20.98,18.59,1.11,28.05
24.986402988433838,22.41,17.47,-5.52,28.94
25.023458003997803,15.76,4.94,-15.79,22.84
25.02458691596985,-0.78,17.42,-11.59,20.93
25.025630950927734,-11.59,37.27,-2.85,39.13
25.046854972839355,-11.33,16.7,2.79,20.37
25.04792308807373,-2.7,-3.26,7.57,8.67
25.062060832977295,6.03,-5.41,9.95,12.83
25.063532829284668,8.84,-10.52,8.83,16.33
25.080009937286377,9.86,-8.71,3.95,13.73
25.08147692680359,8.15,-1.11,1.14,8.3
25.09562087059021,4.43,1.94,0.49,4.86
25.128156900405884,1.79,0.55,-0.7,1.99
25.12941598892212,0.91,-0.93,-0.68,1.46
25.13043785095215,1.44,-0.63,-0.41,1.62
25.146907806396484,1.94,0.1,-0.36,1.97
25.147922039031982,1.64,0.38,-0.02,1.68
25.16334891319275,0.86,0.15,0.43,0.97
25.164824962615967,0.49,-0.47,0.68,0.96
25.17990207672119,0.74,-0.72,0.91,1.37
25.181331872940063,0.92,-0.71,1.04,1.55
25.196372032165527,0.87,-0.62,1.06,1.5
25.226598739624023,0.73,-0.37,0.89,1.2
25.227818965911865,0.65,-0.08,0.39,0.76
25.228832960128784,0.54,0.05,-0.04,0.54
25.246965885162354,0.45,0.15,-0.22,0.52
25.24801206588745,0.43,0.06,-0.37,0.57
25.26308584213257,0.25,-0.03,-0.43,0.49
25.264075756072998,-0.06,0.04,-0.43,0.43
25.27994394302368,-0.34,0.2,-0.46,0.6
25.281403064727783,-0.4,0.24,-0.74,0.87
25.29564905166626,-0.23,0.27,-1.0,1.06
25.324781894683838,-0.12,0.41,-0.87,0.96
25.326210021972656,-0.21,0.34,-0.76,0.85
25.327216863632202,-0.49,0.28,-0.7,0.89
25.346889972686768,-0.76,0.5,-0.65,1.11
25.34788703918457,-0.94,0.63,-0.61,1.28
25.362832069396973,-0.91,0.66,-0.47,1.21
25.3638699054718,-0.76,0.55,-0.19,0.95
25.38010287284851,-0.75,0.39,0.07,0.84
25.38159990310669,-0.99,0.35,0.17,1.06
25.39561891555786,-1.18,0.42,-0.33,1.29
25.424314975738525,-1.0,0.52,-0.75,1.35
25.42561101913452,-0.66,0.6,-0.75,1.16
25.42648196220398,-0.43,0.53,-0.77,1.02
25.447056770324707,-0.51,0.46,-1.0,1.21
25.448092937469482,-1.01,0.62,-1.11,1.62
25.463064908981323,-1.49,0.9,-1.19,2.1
25.464103937149048,-1.74,1.12,-1.04,2.31
25.48025608062744,-1.74,1.18,-0.94,2.3
25.481629848480225,-1.49,1.26,-0.78,2.1
25.49580192565918,-1.17,1.36,-1.04,2.07
25.49731683731079,-1.31,1.63,-1.34,2.48
25.54130983352661,-1.6,2.32,-1.16,3.04
25.542463779449463,-1.88,2.84,-1.05,3.56
25.54348087310791,-2.19,3.74,-1.02,4.45
25.563807010650635,-2.56,3.96,-1.3,4.89
25.564868927001953,-3.0,4.08,-1.01,5.16
25.58002281188965,-3.3,4.15,-1.1,5.41
25.58143186569214,-3.52,4.3,-1.66,5.79
25.596981048583984,-3.77,4.6,-2.06,6.29
25.59843683242798,-4.42,5.67,-1.93,7.44
25.61208486557007,-5.66,7.19,-2.3,9.43
25.64137601852417,-7.15,8.28,-3.71,11.55
25.642859935760498,-8.46,9.14,-5.27,13.52
25.64386796951294,-9.29,9.54,-6.52,14.82
25.664028882980347,-9.54,9.51,-7.79,15.56
25.66510581970215,-9.58,9.12,-8.91,15.94
25.679887771606445,-10.13,8.99,-10.1,16.89
25.681277751922607,-9.84,12.33,-7.52,17.47
25.69714593887329,-6.47,16.31,-4.97,18.23
25.698657989501953,-0.63,15.31,-6.89,16.8
25.71226191520691,3.26,10.68,-7.31,13.34
25.741729974746704,1.94,3.87,-6.85,8.1
25.743127822875977,-3.45,-0.28,-5.54,6.53
25.744133949279785,-5.45,-3.75,-4.7,8.11
25.763600826263428,0.09,-0.35,-2.42,2.44
25.764648914337158,6.51,1.17,2.2,6.97
25.779937744140625,3.46,-4.13,-1.54,5.6
25.78103494644165,-3.04,-5.06,-3.76,6.99
25.797030925750732,-6.94,-4.68,-2.2,8.65
25.798521041870117,-9.77,-4.29,-2.57,10.97
25.812198877334595,-11.92,-3.94,-2.99,12.9
25.84264373779297,-12.17,-3.81,-2.1,12.92
25.843946933746338,-10.02,-4.06,-0.18,10.81
25.84495186805725,-7.52,-4.88,1.45,9.08
25.863776922225952,-6.2,-5.82,2.3,8.8
25.864834785461426,-6.08,-6.06,2.42,8.91
25.87973189353943,-6.27,-5.39,1.61,8.42
25.880767822265625,-6.09,-4.51,0.06,7.57
25.89728093147278,-5.64,-3.79,-1.3,6.91
25.898773908615112,-5.14,-3.28,-2.58,6.62
25.912308931350708,-4.52,-3.09,-3.28,6.38
25.940754890441895,-3.8,-3.13,-3.8,6.21
25.94206690788269,-3.07,-3.43,-4.11,6.17
25.94305396080017,-2.52,-4.05,-3.99,6.21
25.964021921157837,-2.08,-4.95,-3.44,6.37
25.965094089508057,-1.59,-5.95,-2.77,6.75
25.980125904083252,-0.97,-6.94,-2.43,7.41
25.981159925460815,-0.53,-7.46,-2.1,7.76
25.997131824493408,-0.42,-7.26,-1.43,7.41
25.998641967773438,-0.01,-6.54,-1.18,6.64
26.012481927871704,1.46,-5.87,-1.34,6.19
26.03902292251587,3.62,-5.02,-0.96,6.26
26.040361881256104,5.59,-3.96,0.44,6.86
26.041368007659912,7.12,-2.6,2.3,7.92
26.04389476776123,8.18,-0.23,4.47,9.32
26.046061038970947,9.04,2.61,6.16,11.24
26.047569751739502,10.38,5.25,7.82,14.01
26.057368755340576,12.14,7.74,9.22,17.09
26.067462921142578,14.11,10.16,10.73,20.43
26.077395915985107,16.05,11.67,11.93,23.15
26.08769702911377,17.87,11.56,13.3,25.09
26.12148094177246,18.75,10.99,13.36,25.51
26.12272882461548,17.64,11.37,12.75,24.55
26.123558044433594,15.71,12.75,8.32,21.87
26.12656593322754,12.61,11.74,0.67,17.24
26.14692497253418,2.52,-4.4,-12.98,13.93
26.147933959960938,-12.2,-0.5,-32.23,34.46
26.16358494758606,-24.08,46.07,-21.25,56.15
26.166428089141846,-21.23,41.46,12.6,48.25
26.17767906188965,-9.83,2.32,11.34,15.18
26.186542987823486,1.64,-8.66,11.41,14.41
26.22123694419861,10.1,-9.24,10.84,17.46
26.222248077392578,11.79,-10.47,4.36,16.35
26.22330904006958,11.67,-7.46,0.22,13.85
26.227564811706543,9.41,-0.73,-1.08,9.49
26.246778964996338,4.27,0.99,-4.36,6.18
26.24781894683838,1.5,0.74,-4.86,5.13
26.263683795928955,1.24,0.21,-0.84,1.51
26.265645027160645,1.51,-0.67,3.19,3.59
26.279085874557495,0.99,-0.96,2.79,3.11
26.28598690032959,0.2,0.37,0.72,0.83
26.295753002166748,-0.08,1.13,-0.08,1.13
26.329511880874634,0.37,0.36,0.31,0.6
26.330843925476074,0.98,-0.82,0.85,1.53
26.331848859786987,0.97,-1.05,1.05,1.77
26.347713947296143,0.69,-0.52,0.58,1.04
26.34870195388794,0.69,-0.03,0.25,0.73
26.363656997680664,1.0,0.01,-0.05,1.0
26.364733934402466,1.06,-0.17,-0.36,1.13
26.379514932632446,0.76,-0.21,-0.56,0.96
26.38510489463806,0.35,-0.17,-0.56,0.68
26.396031856536865,-0.02,0.02,-0.08,0.08
26.427839756011963,-0.31,0.18,0.57,0.67
26.429149866104126,-0.6,0.34,0.93,1.15
26.430171012878418,-0.43,0.37,0.37,0.67
26.447453022003174,0.01,0.28,-0.39,0.48
26.448518753051758,0.16,0.31,-0.66,0.74
26.463579893112183,-0.26,0.35,-0.55,0.7
26.46463894844055,-0.81,0.56,-0.45,1.08
26.48083186149597,-1.01,0.76,-0.64,1.41
26.484296798706055,-0.94,0.83,-0.87,1.52
26.49417996406555,-0.94,0.79,-0.8,1.46
26.527193069458008,-1.24,0.62,-0.7,1.55
26.528456926345825,-1.56,0.51,-0.82,1.83
26.529470920562744,-1.31,0.39,-0.96,1.67
26.547697067260742,-0.61,0.28,-1.08,1.27
26.548717975616455,-0.09,0.4,-1.05,1.12
26.5634708404541,-0.04,0.74,-0.94,1.19
26.56444787979126,-0.47,1.01,-1.03,1.51
26.580941915512085,-1.04,1.17,-1.23,1.99
26.583611965179443,-1.19,1.28,-1.13,2.08
26.596439838409424,-1.36,1.35,-0.87,2.1
26.626688957214355,-1.5,1.67,-0.72,2.35
26.628111839294434,-1.72,2.09,-0.54,2.76
26.629114866256714,-2.0,2.39,-0.47,3.15
26.64763879776001,-2.39,2.69,-0.68,3.66
26.648698806762695,-2.67,2.98,-1.3,4.2
26.662824869155884,-2.87,3.55,-1.81,4.91
26.663888931274414,-3.21,4.41,-2.17,5.87
26.68080186843872,-3.78,5.26,-2.72,7.02
26.682739973068237,-4.52,6.06,-3.45,8.31
26.696492910385132,-5.2,7.2,-3.87,9.68
26.73067808151245,-5.87,8.24,-4.63,11.12
26.73201894760132,-7.16,8.97,-5.58,12.76
26.733043909072876,-8.86,10.12,-5.54,14.54
26.747910022735596,-9.75,11.1,-6.79,16.25
26.74895191192627,-9.63,10.67,-9.03,16.97
26.763659954071045,-9.04,9.54,-11.01,17.14
26.76467275619507,-8.59,9.32,-11.0,16.78
26.780781745910645,-7.12,13.65,-6.25,16.61
26.78226089477539,-3.71,16.69,-2.58,17.29
26.795718908309937,0.64,13.57,-5.54,14.67
26.82902693748474,1.76,6.09,-9.34,11.28
26.830360889434814,-1.69,1.0,-8.58,8.8
26.831417083740234,-5.05,-2.86,-6.5,8.71
26.84792184829712,-2.99,-3.25,-5.08,6.73
26.84899091720581,3.84,0.43,1.57,4.17
26.863683938980103,3.54,-4.01,0.15,5.35
26.864709854125977,-2.26,-6.47,-4.12,7.99
26.880815029144287,-6.38,-6.69,-2.88,9.68
26.88230800628662,-9.33,-6.03,-2.03,11.29
26.89627194404602,-12.04,-5.02,-2.09,13.21
26.92983102798462,-13.64,-3.97,-1.72,14.3
26.931196928024292,-12.61,-3.19,0.29,13.01
26.932212829589844,-9.56,-3.39,1.4,10.23
26.947876930236816,-7.02,-4.51,1.49,8.47
26.948900938034058,-5.84,-5.75,1.49,8.32
26.96387004852295,-5.79,-5.99,1.05,8.39
26.964870929718018,-5.52,-5.64,0.2,7.89
26.980712890625,-4.74,-5.45,-0.76,7.26
26.98217487335205,-3.92,-5.33,-1.8,6.85
26.99640393257141,-3.26,-5.18,-2.77,6.71
27.028796911239624,-2.86,-4.91,-3.44,6.64
27.030247926712036,-2.65,-4.7,-3.77,6.58
27.03124189376831,-2.42,-4.79,-3.77,6.55
27.047886848449707,-2.0,-5.33,-3.42,6.64
27.048893928527832,-1.55,-5.9,-2.64,6.64
27.063508987426758,-1.51,-6.04,-1.61,6.43
27.064514875411987,-1.66,-5.69,-0.59,5.95
27.08076000213623,-1.32,-4.89,-0.13,5.06
27.082223892211914,0.15,-4.05,0.03,4.05
27.096604824066162,2.33,-2.89,0.67,3.77
27.099513053894043,4.53,-1.59,1.89,5.15
27.140676021575928,6.18,-0.22,3.15,6.93
27.141854763031006,7.05,1.73,4.25,8.41
27.142820835113525,7.8,4.29,5.32,10.37
27.145118951797485,9.49,6.9,6.22,13.28
27.14907693862915,12.06,9.71,6.5,16.79
27.159342765808105,14.82,12.33,6.02,20.19
27.169956922531128,17.37,13.31,6.36,22.78
27.179702758789062,19.75,12.26,7.99,24.58
27.18916082382202,21.21,10.51,9.2,25.39
27.199222087860107,21.25,9.25,10.23,25.33
27.23066806793213,19.03,7.59,9.66,22.65
27.231817960739136,15.29,7.06,7.68,18.5
27.232834815979004,9.97,6.39,2.43,12.08
27.248218059539795,0.33,-2.0,-4.82,5.22
27.24923086166382,-12.46,-5.99,-19.29,23.73
27.259963035583496,-30.0,22.6,-27.12,46.32
27.26821994781494,-27.92,41.43,5.69,50.28
27.277946949005127,-11.54,17.15,16.41,26.39
27.288238048553467,1.75,-0.12,9.77,9.92
27.298115968704224,10.16,-4.69,6.29,12.83
27.329559803009033,12.1,-8.85,2.68,15.22
27.33096694946289,12.23,-9.43,1.04,15.47
27.331986904144287,11.02,-5.38,0.77,12.28
27.348070859909058,7.53,-2.09,0.66,7.84
27.3491530418396,2.83,-1.24,-1.93,3.64
27.364444971084595,0.82,0.81,-1.82,2.15
27.367363929748535,0.38,0.99,-0.69,1.26
27.38097596168518,0.69,0.11,0.64,0.94
27.387569904327393,1.18,-0.2,1.34,1.79
27.39726996421814,1.17,-0.11,1.35,1.78
27.428667068481445,0.81,0.06,0.98,1.27
27.42993402481079,0.48,0.15,1.1,1.2
27.43093204498291,0.51,-0.06,0.89,1.02
27.448081016540527,0.65,-0.54,0.4,0.93
27.449159860610962,0.5,-0.59,0.28,0.82
27.46404194831848,0.34,-0.22,0.13,0.42
27.46665596961975,0.51,-0.02,-0.31,0.59
27.47980308532715,0.89,0.05,-0.79,1.19
27.487266063690186,1.08,0.09,-0.89,1.4
27.49692392349243,0.78,0.02,-0.6,0.98
27.534957885742188,0.23,0.0,-0.13,0.26
27.536329746246338,-0.21,0.03,0.14,0.25
27.53735089302063,-0.35,0.1,0.02,0.36
27.54685091972351,-0.21,0.18,-0.32,0.42
27.547849893569946,-0.16,0.23,-0.52,0.59
27.56403875350952,-0.27,0.26,-0.52,0.64
27.56593084335327,-0.46,0.25,-0.51,0.73
27.580962896347046,-0.57,0.35,-0.47,0.81
27.58579993247986,-0.65,0.48,-0.52,0.96
27.59657096862793,-0.79,0.63,-0.55,1.15
27.633645057678223,-0.87,0.66,-0.42,1.17
27.635024070739746,-0.85,0.58,-0.18,1.04
27.636044025421143,-0.93,0.37,-0.16,1.01
27.648252964019775,-0.9,0.28,-0.33,0.99
27.64934778213501,-0.7,0.29,-0.43,0.87
27.664129972457886,-0.49,0.44,-0.28,0.71
27.66518783569336,-0.22,0.46,-0.52,0.72
27.680713891983032,-0.03,0.44,-0.5,0.66
27.685379028320312,-0.12,0.36,-0.53,0.65
27.696352005004883,-0.5,0.33,-0.72,0.93
27.731369018554688,-0.89,0.53,-0.62,1.2
27.7327938079834,-1.1,0.87,-0.33,1.44
27.733908891677856,-1.17,1.09,-0.42,1.65
27.748470783233643,-1.39,1.37,-0.37,1.98
27.749541759490967,-1.67,1.76,-0.35,2.45
27.764153003692627,-2.02,2.08,-0.72,2.98
27.76518201828003,-2.05,2.68,-0.65,3.43
27.781410932540894,-1.78,3.06,-0.72,3.61
27.78462505340576,-1.79,3.0,-1.25,3.71
27.796745777130127,-1.98,3.1,-1.58,4.0
27.83241295814514,-2.36,3.42,-1.8,4.52
27.833906888961792,-2.93,3.95,-1.97,5.29
27.834911823272705,-3.51,4.79,-2.3,6.36
27.848286867141724,-4.21,5.59,-2.98,7.6
27.849310874938965,-5.18,6.48,-3.62,9.05
27.864320755004883,-6.35,7.51,-4.2,10.69
27.865360736846924,-7.58,8.64,-4.5,12.34
27.881378889083862,-8.54,9.89,-5.02,13.99
27.88375496864319,-9.13,10.04,-7.15,15.33
27.896559953689575,-9.46,9.45,-8.71,15.95
27.903631925582886,-9.56,8.58,-8.45,15.37
27.940423011779785,-9.66,8.61,-8.14,15.28
27.94159173965454,-8.6,12.06,-5.9,15.94
27.94288682937622,-5.35,14.81,-4.82,16.46
27.94449281692505,-0.13,14.0,-6.73,15.53
27.952879905700684,1.92,9.69,-7.12,12.17
27.963244915008545,-0.64,3.87,-7.83,8.75
27.972984790802002,-5.09,-0.19,-6.32,8.11
27.983004093170166,-6.28,-2.71,-4.78,8.34
27.9930899143219,0.11,2.44,-0.33,2.46
28.003042936325073,4.91,1.84,3.19,6.13
28.033753871917725,0.92,-2.67,-1.85,3.37
28.035170078277588,-4.24,-3.3,-2.93,6.11
28.03620195388794,-7.98,-2.43,-1.98,8.57
28.04842185974121,-10.36,-1.49,-1.99,10.65
28.05217695236206,-11.07,-1.26,-1.63,11.26
28.062257766723633,-9.01,-2.02,-0.4,9.24
28.07217788696289,-6.25,-3.46,0.85,7.19
28.082242012023926,-4.99,-5.05,1.79,7.32
28.091991901397705,-5.15,-6.42,2.2,8.51
28.102223873138428,-5.72,-6.9,2.17,9.22
28.132550954818726,-6.05,-6.83,1.74,9.28
28.133965969085693,-5.82,-6.57,0.74,8.8
28.134967803955078,-5.44,-5.95,-0.26,8.06
28.149728775024414,-5.18,-5.37,-1.0,7.52
28.151407957077026,-4.98,-5.09,-1.69,7.31
28.163829803466797,-4.71,-5.17,-2.06,7.29
28.171283960342407,-4.42,-5.71,-2.16,7.53
28.18144178390503,-4.23,-6.4,-2.0,7.92
28.191412925720215,-4.2,-7.03,-1.62,8.34
28.201324939727783,-4.32,-7.57,-1.28,8.8
28.23450493812561,-4.48,-8.06,-1.0,9.27
28.235898971557617,-4.72,-8.46,-0.61,9.7
28.23690891265869,-4.97,-8.55,-0.01,9.88
28.248501777648926,-5.09,-8.11,0.68,9.59
28.250575065612793,-4.62,-7.25,1.45,8.71
28.26422882080078,-2.97,-6.21,1.83,7.12
28.270566940307617,-0.46,-4.82,2.42,5.41
28.281429767608643,2.42,-2.52,4.14,5.41
28.29089593887329,6.14,0.94,6.12,8.71
28.30044388771057,9.95,4.79,6.93,13.03
28.339133739471436,12.69,8.01,6.87,16.5
28.340625762939453,13.56,11.79,6.1,18.97
28.341614961624146,14.31,17.33,6.13,23.29
28.34399700164795,15.61,18.35,3.87,24.4
28.361485958099365,16.27,16.79,1.27,23.41
28.36255693435669,16.24,22.45,-0.5,27.71
28.380712032318115,17.97,21.92,-6.16,29.0
28.38176202774048,14.47,17.17,-11.67,25.3
28.39486789703369,3.91,13.87,-11.7,18.56
28.400073051452637,0.38,21.64,-5.2,22.25
28.44002676010132,1.75,7.49,4.04,8.68
28.441242933273315,6.08,0.75,10.49,12.14
28.442439079284668,7.32,-2.88,8.83,11.82
28.44401979446411,4.8,-6.8,4.32,9.37
28.449092864990234,3.31,-2.95,3.46,5.62
28.459332942962646,2.61,-0.39,0.57,2.69
28.46934986114502,3.15,-0.6,-1.37,3.48
28.479252815246582,3.24,-0.53,-0.9,3.4
28.489005088806152,1.81,-0.72,0.44,1.99
28.498971939086914,0.67,-0.65,1.39,1.67
28.534559965133667,0.64,-0.01,0.23,0.68
28.535703897476196,0.85,0.64,-0.93,1.41
28.536521911621094,1.21,0.75,-0.72,1.59
28.54888105392456,1.62,-0.14,-0.36,1.66
28.549942016601562,1.6,-0.81,0.24,1.8
28.5644428730011,1.11,-0.79,0.91,1.63
28.56830096244812,0.54,-0.55,1.15,1.38
28.581089973449707,0.28,-0.26,0.87,0.95
28.588075876235962,0.28,-0.07,0.29,0.4
28.598401069641113,0.23,0.04,-0.2,0.3
28.63588786125183,0.18,0.19,-0.37,0.45
28.637314796447754,0.17,0.17,-0.11,0.26
28.638375759124756,0.1,0.1,0.24,0.27
28.648601055145264,-0.02,0.03,0.15,0.15
28.64961004257202,-0.05,0.01,-0.17,0.17
28.664378881454468,-0.1,0.14,-0.31,0.35
28.667613983154297,-0.17,0.2,-0.21,0.33
28.68111801147461,-0.22,0.06,-0.41,0.46
28.68748378753662,-0.28,0.01,-0.52,0.59
28.69761085510254,-0.36,0.18,-0.64,0.75
28.707650899887085,-0.37,0.3,-0.93,1.04
28.741082906723022,-0.32,0.49,-0.46,0.74
28.742243766784668,-0.27,0.47,-0.04,0.54
28.743161916732788,-0.3,0.33,-0.04,0.44
28.747098922729492,-0.36,0.29,-0.15,0.48
28.75706195831299,-0.42,0.33,-0.21,0.57
28.76700782775879,-0.33,0.33,-0.28,0.54
28.77697491645813,-0.06,0.25,-0.4,0.47
28.78648591041565,0.1,0.2,-0.54,0.58
28.797091007232666,-0.06,0.36,-0.55,0.66
28.80705189704895,-0.45,0.57,-0.55,0.91
28.840188026428223,-0.88,0.8,-0.72,1.39
28.841381072998047,-1.25,0.96,-0.98,1.85
28.842601776123047,-1.6,1.14,-0.99,2.19
28.84607195854187,-1.63,1.3,-1.13,2.37
28.8563289642334,-1.36,1.23,-1.61,2.44
28.866239070892334,-1.08,1.36,-1.59,2.35
28.87608575820923,-1.0,1.63,-1.61,2.49
28.88611888885498,-1.39,2.17,-1.71,3.09
28.896002769470215,-1.62,2.79,-1.46,3.54
28.906006813049316,-2.0,3.24,-0.92,3.91
28.936304092407227,-2.51,3.39,-0.62,4.26
28.937429904937744,-2.91,3.26,-0.74,4.43
28.938251972198486,-2.99,3.2,-0.91,4.47
28.945729970932007,-2.99,3.35,-1.26,4.66
28.95559787750244,-3.34,4.08,-1.69,5.53
28.965349912643433,-4.08,5.15,-2.7,7.1
28.97537589073181,-5.38,6.62,-3.79,9.33
28.98506784439087,-6.76,8.53,-4.54,11.79
28.99548101425171,-7.85,9.95,-5.66,13.88
29.005400896072388,-8.78,10.66,-6.69,15.34
29.037128925323486,-9.09,10.5,-7.72,15.88
29.0384578704834,-8.73,9.31,-8.86,15.53
29.039532899856567,-8.58,7.85,-9.79,15.2
29.047485828399658,-7.91,10.36,-7.14,14.86
29.05465602874756,-4.98,14.33,-4.27,15.76
29.065021991729736,0.31,13.58,-5.73,14.74
29.074480056762695,4.44,9.47,-6.2,12.15
29.084301948547363,2.67,3.09,-5.5,6.85
29.09493589401245,-2.79,-0.54,-4.18,5.05
29.104801893234253,-4.56,-3.16,-3.62,6.62
29.141870975494385,1.21,1.17,-1.12,2.02
29.143260955810547,5.17,1.69,1.91,5.76
29.144272804260254,0.33,-2.13,-2.08,2.99
29.165607929229736,-5.22,-2.62,-2.76,6.45
29.166646003723145,-9.04,-1.79,-1.8,9.38
29.1802020072937,-11.98,-1.43,-2.44,12.3
29.181236743927002,-13.21,-1.64,-2.3,13.5
29.19841480255127,-10.93,-2.19,-0.4,11.15
29.19990301132202,-7.15,-3.71,0.7,8.08
29.21406078338623,-5.27,-5.66,1.01,7.79
29.24277687072754,-5.2,-6.78,0.94,8.59
29.244178771972656,-5.66,-6.46,0.39,8.59
29.24493980407715,-5.56,-6.05,-0.68,8.24
29.265225887298584,-4.98,-5.84,-1.75,7.87
29.266278743743896,-4.69,-5.46,-2.3,7.55
29.281303882598877,-4.52,-5.38,-2.82,7.57
29.282336950302124,-4.01,-5.41,-3.11,7.41
29.298791885375977,-3.39,-5.66,-3.15,7.31
29.30028986930847,-3.08,-6.3,-2.88,7.58
29.31369686126709,-3.08,-6.98,-2.58,8.05
29.340235948562622,-3.16,-7.44,-2.36,8.42
29.34156608581543,-3.18,-7.66,-1.99,8.52
29.34261989593506,-3.19,-7.85,-1.47,8.59
29.345057010650635,-3.28,-8.0,-0.74,8.67
29.352669954299927,-3.46,-8.08,0.21,8.79
29.362468957901,-3.62,-7.82,1.03,8.67
29.3724308013916,-3.36,-6.82,2.11,7.89
29.382351875305176,-1.82,-5.32,1.98,5.96
29.3921537399292,0.75,-3.77,1.62,4.17
29.402402877807617,3.54,-1.47,2.87,4.78
29.43788194656372,5.95,0.85,4.1,7.27
29.43919277191162,7.67,3.22,5.0,9.7
29.440253973007202,9.12,6.0,6.03,12.47
29.445558071136475,11.16,8.71,7.53,16.03
29.451647758483887,13.43,10.55,8.12,18.91
29.464759826660156,14.91,11.91,8.15,20.75
29.47217082977295,15.37,13.2,8.55,21.99
29.48149299621582,15.65,13.56,8.97,22.56
29.491514921188354,15.28,16.59,5.83,23.29
29.50142788887024,16.74,18.29,-0.39,24.79
29.511775016784668,14.82,4.45,-17.04,23.01
29.543790817260742,1.46,6.17,-21.43,22.34
29.545000076293945,-7.66,35.69,-12.97,38.73
