time,ax,ay,az,atotal
0.001062154769897461,0.14,0.15,0.17,0.26
0.001325845718383789,0.39,0.05,0.12,0.41
0.0015859603881835938,0.36,-0.25,0.06,0.44
0.0018460750579833984,0.89,-0.9,-0.18,1.27
0.002104043960571289,-0.16,0.15,-0.48,0.52
0.01059412956237793,-0.3,-0.06,-0.03,0.3
0.021198034286499023,-0.11,-0.09,0.08,0.16
0.030586957931518555,-0.13,-0.01,0.0,0.13
0.040532827377319336,-0.05,-0.08,0.1,0.13
0.051239013671875,-0.07,0.03,0.1,0.12
0.1009061336517334,-0.13,0.14,0.08,0.2
0.10116982460021973,-0.09,0.02,0.03,0.09
0.10143113136291504,-0.11,-0.08,-0.01,0.13
0.10168814659118652,-0.14,-0.06,-0.04,0.15
0.10193300247192383,-0.14,-0.02,-0.1,0.17
0.1104280948638916,-0.12,-0.04,-0.08,0.14
0.12104296684265137,-0.05,-0.03,-0.06,0.08
0.13050007820129395,0.01,-0.01,-0.04,0.04
0.14048314094543457,0.02,0.0,0.01,0.02
0.1511549949645996,0.03,-0.04,0.03,0.05
0.20054197311401367,0.05,-0.04,-0.01,0.06
0.20077109336853027,0.03,-0.04,-0.01,0.05
0.20102906227111816,0.02,-0.03,-0.02,0.04
0.20128607749938965,0.0,-0.02,0.0,0.02
0.20150494575500488,-0.01,-0.02,0.0,0.02
0.210252046585083,-0.04,-0.03,0.0,0.05
0.22087597846984863,-0.06,-0.05,0.06,0.09
0.23032307624816895,-0.02,-0.02,0.13,0.13
0.24046897888183594,0.02,0.02,0.17,0.17
0.2509500980377197,0.06,0.01,0.16,0.17
0.3002769947052002,0.09,0.03,0.1,0.13
0.3005399703979492,0.15,0.05,0.06,0.16
0.3007991313934326,0.23,0.01,0.04,0.23
0.3010590076446533,0.24,-0.01,0.0,0.24
0.3013160228729248,0.22,-0.04,0.01,0.22
0.31026601791381836,0.15,-0.05,0.04,0.16
0.3207399845123291,0.05,-0.06,0.06,0.09
0.33019089698791504,-0.05,-0.08,0.01,0.09
0.3401648998260498,-0.12,-0.14,-0.03,0.18
0.3508419990539551,-0.14,-0.16,0.03,0.21
0.4010298252105713,-0.09,-0.18,0.07,0.21
0.4012758731842041,0.04,-0.18,0.12,0.22
0.4015359878540039,0.01,-0.07,0.18,0.19
0.4017951488494873,-0.1,0.05,0.15,0.18
0.40203404426574707,-0.1,0.12,0.02,0.15
0.410006046295166,-0.04,0.1,-0.09,0.14
0.4205169677734375,-0.01,0.02,-0.09,0.09
0.43000006675720215,-0.05,-0.02,-0.07,0.08
0.44003796577453613,-0.09,-0.06,-0.05,0.11
0.4507260322570801,-0.08,-0.04,0.0,0.08
0.5004298686981201,-0.04,-0.03,0.04,0.06
0.5007021427154541,0.0,0.01,0.01,0.01
0.5009691715240479,0.01,0.06,-0.07,0.09
0.501237154006958,-0.02,0.02,-0.08,0.08
0.5015020370483398,-0.1,0.05,-0.11,0.15
0.5099170207977295,-0.12,0.04,-0.05,0.13
0.5203778743743896,-0.12,-0.08,-0.06,0.15
0.5298988819122314,-0.14,-0.04,-0.23,0.27
0.5399270057678223,-0.32,0.02,-0.21,0.38
0.5505878925323486,0.32,0.16,-0.19,0.4
0.6008780002593994,-0.13,0.03,-0.13,0.18
0.6011459827423096,-0.26,-0.05,-0.09,0.27
0.6014120578765869,-0.25,-0.03,-0.05,0.25
0.6016769409179688,0.06,0.04,0.01,0.07
0.6019399166107178,0.28,-0.06,-0.01,0.28
0.6098339557647705,0.15,-0.02,0.07,0.16
0.620201826095581,0.06,-0.01,0.07,0.09
0.6297280788421631,0.02,-0.03,0.03,0.04
0.6398680210113525,0.04,-0.05,-0.03,0.07
0.6503760814666748,0.02,-0.03,-0.06,0.06
0.7006771564483643,0.01,-0.02,-0.07,0.07
0.7009479999542236,-0.06,-0.01,-0.06,0.08
0.7011959552764893,-0.12,0.0,-0.06,0.13
0.7014749050140381,-0.1,0.02,-0.07,0.12
0.7017390727996826,-0.04,0.04,-0.05,0.07
0.7095310688018799,0.03,0.02,-0.03,0.04
0.720142126083374,0.07,0.01,-0.03,0.07
0.7295348644256592,0.12,0.01,-0.01,0.12
0.7395679950714111,0.16,0.01,-0.03,0.16
0.7502639293670654,0.12,0.02,-0.04,0.12
0.8014471530914307,0.09,0.01,-0.06,0.1
0.8017070293426514,0.08,0.02,-0.1,0.12
0.801969051361084,0.06,0.01,-0.12,0.13
0.8022310733795166,0.0,-0.02,-0.11,0.11
0.8024899959564209,-0.02,-0.04,-0.07,0.08
0.8093850612640381,-0.01,-0.03,0.0,0.03
0.8199141025543213,0.01,0.01,0.06,0.06
0.8294110298156738,0.04,-0.01,0.05,0.06
0.839367151260376,0.08,-0.01,0.1,0.12
0.850039005279541,0.1,-0.02,0.07,0.12
0.9005601406097412,0.05,-0.01,-0.02,0.05
0.9008219242095947,0.02,0.0,-0.06,0.06
0.9010641574859619,0.06,0.0,-0.07,0.09
0.9013199806213379,0.09,0.01,-0.05,0.1
0.9015800952911377,0.06,-0.01,-0.04,0.07
0.9092450141906738,0.01,0.0,-0.09,0.09
0.919731855392456,0.0,0.01,-0.05,0.05
0.9292190074920654,0.02,0.02,-0.03,0.04
0.9393150806427002,0.04,0.01,-0.06,0.07
0.9499599933624268,0.02,-0.02,-0.1,0.1
1.0009958744049072,-0.04,-0.02,-0.12,0.12
1.0012691020965576,-0.08,-0.01,-0.1,0.12
1.0015170574188232,-0.08,0.02,-0.04,0.09
1.0017669200897217,-0.02,0.02,-0.03,0.04
1.0020170211791992,0.01,0.02,-0.07,0.07
1.009274959564209,0.0,0.03,-0.15,0.15
1.0195791721343994,0.01,0.03,-0.15,0.15
1.0291340351104736,0.02,0.0,-0.09,0.09
1.0391030311584473,-0.02,-0.02,-0.07,0.07
1.049846887588501,-0.05,-0.01,-0.06,0.07
1.1008830070495605,-0.02,0.0,-0.02,0.02
1.1011478900909424,0.01,0.01,0.0,0.01
1.1013920307159424,0.04,0.01,0.03,0.05
1.1016528606414795,0.1,-0.01,0.04,0.1
1.101909875869751,0.06,-0.02,0.03,0.06
1.1093108654022217,0.0,-0.01,-0.02,0.02
1.1195728778839111,0.05,0.0,-0.09,0.1
1.128952980041504,0.07,-0.01,-0.11,0.13
1.1390190124511719,0.05,0.0,-0.07,0.08
1.1496388912200928,0.03,0.0,-0.03,0.04
1.2009098529815674,0.05,0.01,0.0,0.05
1.201185941696167,0.11,0.0,0.08,0.13
1.201462984085083,0.13,-0.01,0.09,0.15
1.2017080783843994,0.09,-0.03,0.09,0.13
1.2019710540771484,0.05,-0.02,0.04,0.06
1.2091310024261475,0.02,-0.01,0.02,0.03
1.219377040863037,0.01,-0.02,-0.02,0.03
1.228822946548462,-0.02,0.0,-0.11,0.11
1.238839864730835,-0.04,0.01,-0.18,0.18
1.2495570182800293,0.02,0.02,-0.2,0.2
1.3008248805999756,0.02,0.02,-0.17,0.17
1.3010990619659424,-0.05,0.0,-0.14,0.14
1.3013460636138916,-0.09,0.0,-0.13,0.15
1.3016269207000732,-0.1,-0.01,-0.14,0.17
1.3018920421600342,-0.17,-0.05,-0.09,0.19
1.3085849285125732,-0.2,-0.05,0.0,0.2
1.3192570209503174,-0.19,-0.05,0.01,0.19
1.3286399841308594,-0.16,-0.04,-0.02,0.16
1.3386328220367432,-0.1,-0.02,-0.03,0.1
1.349349021911621,-0.03,0.03,-0.06,0.07
1.3586571216583252,0.0,0.06,-0.13,0.14
1.4020578861236572,0.0,0.09,-0.17,0.19
1.4023048877716064,0.1,0.09,-0.1,0.16
1.4025640487670898,0.26,0.05,0.02,0.26
1.402806043624878,0.37,0.05,0.03,0.37
1.4086229801177979,0.39,0.07,0.03,0.39
1.4191229343414307,0.32,0.09,-0.02,0.33
1.428501844406128,0.16,0.18,-0.11,0.26
1.4384889602661133,0.08,0.13,-0.22,0.26
1.4492089748382568,0.16,0.0,-0.08,0.17
1.4585211277008057,0.21,-0.05,0.0,0.21
1.501142978668213,0.17,-0.04,-0.13,0.21
1.5014069080352783,-0.18,0.05,-0.06,0.19
1.5016529560089111,-0.48,0.04,-0.06,0.48
1.5018930435180664,-0.53,0.04,-0.17,0.55
1.508350133895874,-0.48,0.06,-0.28,0.55
1.518913984298706,-0.41,0.01,-0.27,0.49
1.5283689498901367,-0.62,0.11,0.03,0.63
1.538438081741333,-0.96,0.36,0.36,1.08
1.5491390228271484,-1.03,0.46,0.65,1.3
1.5583751201629639,-1.15,0.13,0.92,1.47
1.601957082748413,-0.95,-0.43,0.68,1.24
1.6022188663482666,-0.6,-0.59,0.4,0.93
1.6024768352508545,-0.83,-0.57,-0.3,1.05
1.6027400493621826,-1.22,-0.3,-0.55,1.37
1.6082708835601807,-1.57,-0.38,-0.74,1.77
1.6188108921051025,-1.27,-0.49,-0.98,1.67
1.6281909942626953,-0.61,-0.54,-1.01,1.29
1.6382369995117188,0.24,-0.35,-0.91,1.0
1.6489360332489014,0.42,-0.21,-1.11,1.2
1.6582648754119873,0.47,-0.26,-1.11,1.23
1.7022919654846191,0.13,-0.13,-0.81,0.83
1.7025549411773682,-0.05,0.01,-0.36,0.36
1.702812910079956,0.39,0.1,0.1,0.41
1.7030689716339111,0.84,0.13,0.39,0.93
1.7081019878387451,0.84,0.04,0.35,0.91
1.7186880111694336,0.52,0.04,0.17,0.54
1.7280771732330322,0.44,0.19,0.05,0.48
1.7381031513214111,0.76,0.37,0.03,0.84
1.7488219738006592,1.2,0.49,0.08,1.29
1.7581889629364014,1.63,0.31,0.1,1.66
1.8022480010986328,1.55,-0.04,0.38,1.59
1.8025281429290771,1.27,0.05,0.49,1.36
1.8027980327606201,1.22,0.2,0.55,1.35
1.8030619621276855,1.02,0.16,0.46,1.13
1.8079509735107422,0.55,0.09,0.39,0.68
1.8184010982513428,0.51,-0.42,-0.13,0.67
1.8279359340667725,-0.05,-0.21,0.16,0.26
1.838238000869751,-0.27,-0.09,-0.17,0.33
1.84865403175354,-0.32,0.01,-0.29,0.43
1.8579871654510498,-0.33,0.09,-0.48,0.58
1.902148962020874,-0.05,0.12,-0.42,0.43
1.9024219512939453,0.2,0.1,-0.17,0.28
1.9026949405670166,0.31,0.08,-0.04,0.32
1.902951955795288,0.28,0.04,-0.04,0.28
1.907824993133545,0.09,0.1,-0.03,0.13
1.9184010028839111,-0.29,0.14,-0.13,0.34
1.927847146987915,-0.52,0.04,-0.38,0.64
1.937795877456665,-0.4,0.0,-0.36,0.53
1.9484989643096924,-0.17,-0.03,-0.28,0.32
1.9578449726104736,0.24,0.09,-0.31,0.4
2.002044916152954,0.49,0.1,-0.13,0.51
2.002302885055542,0.55,-0.06,-0.13,0.56
2.002575159072876,0.51,-0.15,-0.17,0.55
2.0028440952301025,0.35,-0.02,-0.18,0.39
2.007666826248169,0.39,0.1,-0.35,0.53
2.0182411670684814,0.29,0.15,-0.54,0.63
2.0276219844818115,0.19,0.13,-0.49,0.54
2.037637948989868,0.18,0.11,-0.36,0.41
2.0483529567718506,0.28,0.06,-0.16,0.32
2.057677984237671,0.43,0.01,0.02,0.43
2.102592945098877,0.3,-0.08,0.25,0.39
2.1028590202331543,-0.14,-0.13,0.22,0.29
2.103121042251587,-0.09,0.0,0.07,0.11
2.1033780574798584,0.35,0.27,-0.15,0.46
2.107487916946411,0.76,0.37,-0.3,0.89
2.1180429458618164,0.78,0.22,-0.02,0.81
2.127549886703491,0.37,-0.02,0.11,0.38
2.1375370025634766,0.08,0.02,0.02,0.08
2.1482620239257812,0.09,0.24,-0.11,0.27
2.1575889587402344,0.3,0.29,-0.13,0.43
2.2026078701019287,0.6,0.35,-0.01,0.69
2.202873945236206,0.98,0.45,0.22,1.1
2.2031309604644775,1.23,0.53,0.48,1.42
2.203386068344116,1.43,0.76,0.7,1.76
2.207373857498169,1.53,1.21,0.77,2.09
2.217829942703247,1.48,1.56,0.36,2.18
2.2273449897766113,1.65,1.61,0.01,2.3
2.2373909950256348,1.88,1.4,0.24,2.35
2.2480270862579346,1.78,1.08,0.54,2.15
2.2573699951171875,1.85,1.24,0.6,2.3
2.3029091358184814,2.06,1.66,0.6,2.71
2.3031880855560303,2.39,2.16,0.44,3.25
2.303452968597412,3.01,2.04,0.36,3.65
2.3037168979644775,2.98,2.08,0.29,3.64
2.3072211742401123,2.94,1.89,0.28,3.5
2.3177411556243896,2.51,1.79,0.13,3.08
2.3271260261535645,2.22,2.27,-0.32,3.19
2.33718204498291,2.85,2.95,-0.62,4.14
2.347904920578003,3.78,3.43,-0.74,5.15
2.357274055480957,4.59,3.76,-0.92,6.0
2.4034221172332764,4.49,3.88,-0.3,5.94
2.4036991596221924,3.62,3.79,0.29,5.24
2.4039759635925293,3.24,4.35,1.47,5.61
2.4042420387268066,1.61,4.18,1.16,4.62
2.4070589542388916,2.24,3.58,-0.05,4.22
2.417588949203491,4.99,3.86,0.8,6.35
2.427039861679077,6.08,3.56,2.11,7.35
2.4369890689849854,5.06,3.14,2.3,6.38
2.4476959705352783,3.73,2.92,1.77,5.05
2.4571030139923096,2.87,2.71,1.37,4.17
2.5031111240386963,2.42,2.46,1.31,3.69
2.503386974334717,2.09,2.05,1.7,3.38
2.503654956817627,1.78,1.67,2.05,3.18
2.503925085067749,1.57,1.37,2.11,2.96
2.5069069862365723,1.35,1.15,2.1,2.74
2.518455982208252,1.04,0.92,2.12,2.53
2.5270578861236572,0.6,0.66,2.2,2.37
2.5369210243225098,0.2,0.37,2.19,2.23
2.5475809574127197,-0.04,0.05,2.19,2.19
2.55692982673645,-0.05,-0.15,2.19,2.19
2.603325128555298,-0.06,-0.29,2.15,2.17
2.60359787940979,-0.24,-0.45,2.05,2.11
2.603868007659912,-0.39,-0.75,1.95,2.12
2.6041338443756104,-0.12,-1.2,2.07,2.39
2.606724977493286,0.24,-1.58,2.31,2.8
2.6173489093780518,0.36,-1.92,2.52,3.18
2.6270511150360107,0.29,-2.28,2.5,3.39
2.636791944503784,-0.01,-2.5,2.22,3.34
2.6474721431732178,-0.4,-2.72,1.83,3.3
2.656826972961426,-0.75,-3.02,1.62,3.5
2.7036688327789307,-1.06,-3.29,1.56,3.79
2.703946828842163,-1.37,-3.4,1.27,3.87
2.7042150497436523,-1.95,-3.56,0.8,4.13
2.7044918537139893,-2.6,-3.84,0.39,4.65
2.706573009490967,-2.9,-4.06,0.18,4.99
2.717097043991089,-3.22,-4.21,-0.16,5.3
2.726901054382324,-3.41,-4.46,-0.48,5.63
2.7365870475769043,-3.72,-4.53,-1.1,5.96
2.7472729682922363,-4.22,-4.28,-2.07,6.35
2.7566699981689453,-4.7,-3.95,-2.72,6.71
2.8039801120758057,-4.87,-3.47,-3.25,6.8
2.8042500019073486,-4.92,-3.01,-3.74,6.87
2.804520845413208,-5.0,-2.85,-3.96,6.98
2.8047800064086914,-5.02,-3.02,-3.8,6.98
2.8065121173858643,-4.91,-3.31,-3.61,6.93
2.8170080184936523,-4.76,-3.74,-3.6,7.04
2.8265490531921387,-4.97,-4.23,-3.83,7.56
2.8365118503570557,-5.29,-4.72,-3.91,8.09
2.847146987915039,-5.46,-5.05,-3.98,8.43
2.8564488887786865,-5.51,-5.16,-4.32,8.69
2.903987169265747,-5.51,-5.01,-4.65,8.77
2.9042680263519287,-5.5,-4.62,-4.85,8.66
2.9044978618621826,-5.5,-4.38,-4.85,8.54
2.9047670364379883,-5.15,-4.47,-4.68,8.27
2.906161069869995,-4.44,-4.24,-4.46,7.58
2.9168808460235596,-4.12,4.15,-4.8,7.56
2.9269931316375732,17.16,15.21,11.78,25.77
2.9370269775390625,44.77,32.23,37.61,66.76
2.947000026702881,9.73,32.22,-13.03,36.09
2.9562971591949463,-2.56,4.37,-22.42,22.98
2.993734121322632,-8.38,-12.84,-3.91,15.82
2.9940011501312256,-14.66,-10.63,2.21,18.24
2.9942638874053955,-9.66,-2.12,-0.21,9.89
2.9961650371551514,-7.14,-0.12,-6.14,9.41
3.006119966506958,-3.39,0.36,-2.39,4.16
3.0167529582977295,-2.33,0.64,-0.11,2.41
3.0261709690093994,-1.94,1.08,-1.26,2.55
3.036280870437622,0.18,0.95,-2.02,2.23
3.046994924545288,1.1,0.88,-0.34,1.44
3.0562031269073486,-0.84,0.71,0.23,1.12
3.096597909927368,-2.79,0.36,-0.66,2.88
3.0968680381774902,-2.2,0.3,-1.38,2.61
3.0971319675445557,-1.04,0.36,-0.94,1.44
3.0973970890045166,-0.36,0.19,-0.5,0.64
3.106084108352661,0.31,0.18,-0.67,0.75
3.116621971130371,0.82,0.09,-1.03,1.31
3.1260359287261963,0.68,-0.08,-1.22,1.39
3.13612699508667,0.36,-0.15,-0.95,1.02
3.1467678546905518,0.1,-0.06,-0.5,0.51
3.156083822250366,-0.23,-0.01,-0.08,0.24
3.1957719326019287,-0.33,-0.15,0.53,0.64
3.1960418224334717,-0.27,-0.19,1.05,1.1
3.1963210105895996,-0.09,-0.13,1.16,1.17
3.1965911388397217,0.46,-0.05,0.88,0.99
3.2058839797973633,1.14,0.08,0.61,1.29
3.216481924057007,1.76,0.11,0.6,1.86
3.2258918285369873,2.09,0.08,0.56,2.16
3.2360341548919678,2.01,0.1,0.41,2.05
3.2466349601745605,1.39,0.03,0.23,1.4
3.2559900283813477,0.52,-0.11,0.1,0.54
3.2962989807128906,-0.02,-0.13,0.29,0.31
3.2965691089630127,-0.22,-0.08,0.74,0.77
3.2968361377716064,-0.11,-0.13,0.99,1.0
3.297121047973633,0.38,-0.2,1.08,1.16
3.305812120437622,1.12,-0.2,1.12,1.59
3.3163669109344482,1.73,-0.11,0.93,1.96
3.325784921646118,1.62,0.04,0.45,1.68
3.335848093032837,0.99,0.12,0.23,1.02
3.346449136734009,0.39,0.12,0.23,0.46
3.355807065963745,0.21,0.04,0.38,0.43
3.3964178562164307,0.48,-0.08,0.73,0.87
3.3967080116271973,0.71,-0.18,0.98,1.22
3.396975040435791,1.1,-0.24,1.26,1.68
3.397243022918701,1.63,-0.23,1.31,2.1
3.4056050777435303,1.9,-0.1,1.2,2.24
3.4160239696502686,1.82,0.01,1.1,2.12
3.425585985183716,1.51,-0.03,1.03,1.82
3.4356939792633057,1.22,0.02,0.95,1.54
3.446255922317505,1.17,0.19,0.71,1.38
3.45569109916687,1.26,0.34,1.02,1.65
3.496703863143921,1.5,0.48,1.02,1.87
3.4970080852508545,1.65,0.63,0.83,1.95
3.4972760677337646,1.43,0.86,0.82,1.85
3.4975459575653076,1.1,1.25,0.67,1.79
3.5054681301116943,0.68,1.75,0.33,1.9
3.5159590244293213,0.31,2.12,0.52,2.2
3.5254409313201904,0.08,2.24,0.64,2.33
3.5356030464172363,0.41,3.45,0.85,3.57
3.5460431575775146,1.59,5.12,1.2,5.49
3.5556719303131104,2.63,6.68,2.08,7.47
3.5960118770599365,3.99,7.08,4.06,9.08
3.596276044845581,4.19,7.6,5.07,10.05
3.5965349674224854,4.51,8.83,5.67,11.42
3.5967938899993896,4.61,10.12,6.84,13.05
3.6053268909454346,5.09,10.84,8.73,14.81
3.61586594581604,6.17,10.81,9.07,15.4
3.6252810955047607,6.93,10.05,7.59,14.37
3.63543701171875,7.34,9.04,6.13,13.15
3.6460299491882324,7.13,7.97,3.37,11.21
3.6553380489349365,6.3,7.66,-0.13,9.91
3.696552038192749,4.27,9.38,-2.42,10.58
3.6968228816986084,-1.91,12.14,-3.72,12.84
3.697098970413208,-7.09,12.26,-2.63,14.4
3.6973659992218018,-2.53,7.49,-0.6,7.92
3.705193042755127,2.57,2.64,2.79,4.62
3.715717077255249,-0.48,0.88,1.39,1.71
3.725142002105713,-4.24,1.49,-5.63,7.2
3.7352800369262695,-0.42,3.57,-2.79,4.55
3.7456891536712646,3.72,1.96,1.64,4.51
3.7551560401916504,6.86,-0.48,2.36,7.27
3.7961671352386475,7.46,-1.79,2.49,8.06
3.796442985534668,6.06,-2.15,2.88,7.04
3.7967069149017334,5.46,-2.04,2.96,6.53
3.796973943710327,4.79,-2.06,2.62,5.83
3.8050179481506348,3.62,-2.03,2.23,4.71
3.815582036972046,2.59,-2.1,1.82,3.79
3.8251609802246094,2.03,-2.32,1.63,3.48
3.835101842880249,2.0,-2.5,1.55,3.55
3.84550404548645,1.82,-2.83,1.34,3.62
3.8550000190734863,1.82,-3.25,1.22,3.91
3.896440029144287,2.04,-3.61,1.45,4.39
3.8967158794403076,2.18,-3.93,1.64,4.78
3.896981954574585,2.09,-4.31,1.7,5.08
3.8972561359405518,1.64,-4.78,1.76,5.35
3.9048478603363037,0.78,-5.34,1.67,5.64
3.915367841720581,-0.13,-5.75,1.28,5.89
3.924844980239868,-0.85,-6.15,1.0,6.28
3.9350521564483643,-1.31,-6.61,0.9,6.79
3.945528030395508,-1.23,-6.81,1.03,6.99
3.9549410343170166,-0.98,-6.57,1.28,6.76
3.997083902359009,-1.04,-6.12,0.98,6.28
3.997347116470337,-1.93,-5.46,-0.08,5.79
3.9976069927215576,-3.48,-4.79,-1.28,6.05
3.9978690147399902,-5.05,-3.94,-2.58,6.9
4.004678964614868,-6.15,-2.96,-3.96,7.89
4.015199899673462,-6.58,-2.2,-4.34,8.18
4.024731874465942,-6.56,-1.5,-4.24,7.95
4.034826993942261,-6.53,-0.81,-4.34,7.88
4.045562028884888,-6.99,-0.28,-5.11,8.66
4.054736852645874,-7.47,-0.1,-5.85,9.48
4.09654688835144,-7.63,-0.19,-6.04,9.73
4.096819162368774,-7.08,-0.58,-6.05,9.33
4.097082853317261,-6.5,-0.4,-6.22,9.0
4.097355127334595,-6.62,-0.1,-6.72,9.43
4.104520082473755,-7.23,-0.5,-7.44,10.38
4.115157842636108,-7.91,-1.36,-7.64,11.08
4.1244728565216064,-8.8,0.81,-7.22,11.41
4.134616136550903,-4.9,2.02,-5.93,7.95
4.178437948226929,-0.34,-5.2,-7.5,9.13
4.178714990615845,9.93,11.0,8.69,17.17
4.178977966308594,25.14,21.32,23.92,40.72
4.179244041442871,10.69,19.95,-8.36,24.12
4.184394121170044,0.29,5.38,-8.87,10.37
4.194731950759888,-8.49,-4.0,0.26,9.38
4.204438924789429,-14.9,-5.22,-4.02,16.29
4.215049982070923,-12.39,-1.43,-2.37,12.69
4.224445104598999,-11.63,-0.97,-4.49,12.5
4.234668970108032,-8.46,-0.42,-6.18,10.48
4.280755043029785,-5.2,0.57,-4.22,6.72
4.281020879745483,-2.4,0.04,-3.08,3.9
4.281285047531128,0.71,0.32,-2.85,2.95
4.281543016433716,2.82,1.1,-1.65,3.44
4.284266948699951,2.08,1.3,-0.43,2.49
4.2943079471588135,-0.25,0.82,-1.1,1.39
4.304293870925903,-1.82,-0.07,-2.41,3.02
4.31482195854187,-2.1,-0.11,-2.15,3.0
4.324270009994507,-1.5,0.06,-0.95,1.77
4.3343729972839355,-0.76,-0.08,-0.42,0.87
4.380440950393677,-0.12,-0.07,-0.51,0.52
4.38071608543396,0.1,0.04,-0.95,0.95
4.380983114242554,0.13,0.02,-1.28,1.28
4.381247043609619,0.0,-0.08,-0.91,0.91
4.3841540813446045,-0.16,-0.15,-0.31,0.37
4.394094944000244,-0.17,-0.17,0.15,0.28
4.404157876968384,-0.07,-0.13,0.39,0.41
4.414714097976685,0.01,0.01,0.42,0.42
4.424062967300415,0.12,0.23,0.7,0.74
4.434321165084839,0.25,0.23,0.96,1.01
4.480118036270142,0.5,0.13,0.81,0.96
4.4803831577301025,0.88,0.07,0.76,1.16
4.480634927749634,1.21,0.07,0.91,1.51
4.480896949768066,1.6,-0.03,1.13,1.95
4.484032869338989,1.96,-0.09,1.43,2.42
4.49392294883728,2.22,-0.08,1.51,2.68
4.5039989948272705,1.99,-0.07,1.49,2.48
4.514548063278198,1.37,-0.18,1.74,2.22
4.52392315864563,1.23,-0.4,1.9,2.29
4.5342090129852295,1.87,-0.49,1.61,2.51
4.580188035964966,2.27,-0.26,1.15,2.55
4.580469846725464,2.01,0.14,0.78,2.16
4.580742120742798,1.45,0.39,0.44,1.56
4.581002950668335,1.08,0.35,0.54,1.25
4.58380913734436,1.03,0.21,0.92,1.39
4.593855142593384,1.4,0.11,1.27,1.89
4.6037209033966064,1.58,0.1,1.59,2.24
4.614447832107544,1.42,0.3,1.74,2.26
4.6237030029296875,1.12,0.73,1.63,2.1
4.633804082870483,0.73,1.0,1.17,1.7
4.644490003585815,0.57,1.45,0.81,1.75
4.680451154708862,0.92,2.12,0.84,2.45
4.680712938308716,1.4,2.76,1.17,3.3
4.680970907211304,1.62,2.95,1.97,3.89
4.683532953262329,2.23,2.94,2.1,4.24
4.693696975708008,2.43,3.18,2.33,4.63
4.703704118728638,2.51,3.91,2.51,5.28
4.714350938796997,3.27,5.77,2.34,7.03
4.723725080490112,5.13,7.47,2.73,9.46
4.733699083328247,6.05,8.08,3.88,10.81
4.744455099105835,5.41,8.87,4.87,11.47
4.780611991882324,5.26,10.52,6.82,13.59
4.7808849811553955,6.29,12.17,7.84,15.78
4.7811479568481445,7.46,12.74,7.04,16.35
4.783565044403076,6.62,11.48,6.47,14.74
4.793527841567993,5.6,9.03,4.44,11.51
4.803527116775513,5.64,7.38,-0.95,9.33
4.814164876937866,4.86,8.94,-5.54,11.58
4.823561906814575,0.21,12.66,-4.96,13.59
4.833552122116089,-3.48,13.08,-1.39,13.6
4.844153165817261,-1.12,8.73,-0.3,8.8
4.8807151317596436,2.26,4.2,0.94,4.86
4.880980968475342,0.82,2.09,2.17,3.12
4.881245851516724,-4.41,0.97,-3.82,5.91
4.883419036865234,-2.74,3.97,-4.72,6.74
4.8933398723602295,3.0,4.57,0.69,5.51
4.903355836868286,6.78,2.19,2.84,7.67
4.914007902145386,7.47,0.25,3.54,8.27
4.923380136489868,5.92,-0.91,3.34,6.85
4.933429002761841,4.85,-1.88,2.74,5.87
4.944120168685913,4.08,-2.45,2.46,5.35
4.980692148208618,3.11,-2.51,2.55,4.74
4.98095703125,2.02,-2.46,2.78,4.22
4.981218099594116,0.94,-2.61,2.92,4.02
4.983242988586426,0.0,-2.81,2.65,3.86
4.993239164352417,-0.42,-2.86,2.32,3.7
5.003245115280151,-0.15,-2.85,2.28,3.65
5.013788938522339,0.4,-2.87,2.24,3.66
5.023389101028442,0.88,-2.97,2.06,3.72
5.033339977264404,1.13,-3.24,2.16,4.05
5.04391884803772,1.2,-3.58,2.24,4.39
5.080533981323242,1.11,-4.03,2.25,4.74
5.080798864364624,0.74,-4.62,2.11,5.13
5.081058979034424,0.38,-5.23,1.8,5.54
5.083068132400513,0.09,-5.79,1.53,5.98
5.093126058578491,-0.21,-6.22,1.4,6.37
5.103021860122681,-0.53,-6.51,1.3,6.65
5.113665819168091,-1.08,-6.64,0.93,6.79
5.123114824295044,-1.75,-6.43,-0.06,6.66
5.133135080337524,-2.31,-6.11,-0.99,6.6
5.143810987472534,-3.15,-5.63,-1.77,6.68
5.181113004684448,-4.67,-4.65,-3.34,7.38
5.181380033493042,-6.29,-3.04,-5.13,8.66
5.181643962860107,-7.4,-1.26,-5.8,9.48
5.182916879653931,-7.75,0.2,-6.24,9.95
5.19291615486145,-7.2,1.44,-6.67,9.91
5.203019857406616,-7.39,2.48,-7.81,11.03
5.213414907455444,-8.88,2.82,-9.46,13.27
5.22293496131897,-10.4,1.81,-10.03,14.56
5.233131170272827,-10.69,0.14,-9.8,14.5
5.243703126907349,-9.06,-0.66,-9.78,13.34
5.280842065811157,-7.37,-1.01,-9.62,12.16
5.281105041503906,-6.53,-1.12,-9.47,11.55
5.281367063522339,-6.28,5.01,-7.49,10.98
5.2827980518341064,-0.99,-1.24,-6.54,6.72
5.292764902114868,0.67,0.93,-5.36,5.48
5.302929162979126,13.21,15.28,18.07,27.1
5.3131890296936035,20.13,15.45,15.96,29.97
5.322832822799683,3.58,11.62,-12.49,17.43
5.332864999771118,-4.87,1.55,-2.61,5.73
5.343523979187012,-11.11,-3.43,2.37,11.86
5.380918025970459,-13.15,-5.44,-1.7,14.33
5.381180047988892,-8.92,-3.67,-4.55,10.66
5.381438970565796,-8.61,-1.02,-7.26,11.3
5.382590055465698,-6.9,1.23,-6.73,9.71
5.39260196685791,-3.91,1.59,-3.54,5.5
5.402655839920044,-0.93,0.44,-2.93,3.1
5.4131920337677,1.65,0.36,-3.15,3.57
5.42266583442688,2.28,0.72,-2.64,3.56
5.4327991008758545,0.55,0.78,-2.02,2.23
5.443367004394531,-1.24,0.59,-2.67,3.0
5.481508016586304,-1.74,0.37,-2.7,3.23
5.481773138046265,-1.66,0.19,-1.33,2.13
5.482035875320435,-1.57,-0.07,-0.26,1.59
5.482462167739868,-1.24,-0.27,-0.22,1.28
5.4925549030303955,-0.8,-0.25,-0.71,1.09
5.502556085586548,-0.58,-0.14,-0.85,1.03
5.513148069381714,-0.45,0.05,-0.8,0.91
5.522478818893433,-0.04,0.26,-0.91,0.94
5.532624006271362,-0.01,0.32,-0.81,0.87
5.543270826339722,-0.34,0.2,-0.55,0.67
5.581143140792847,-0.46,0.03,-0.31,0.55
5.581418991088867,-0.22,-0.13,0.06,0.26
5.581686973571777,0.08,-0.2,0.43,0.48
5.584201097488403,0.49,-0.13,0.57,0.76
5.59246301651001,0.96,-0.02,0.61,1.13
5.602319002151489,1.29,0.18,0.74,1.49
5.613166093826294,1.27,0.25,0.88,1.56
5.622342824935913,1.02,0.17,1.05,1.47
5.6324450969696045,0.81,0.03,1.11,1.37
5.643689870834351,0.65,-0.06,1.09,1.27
5.681682825088501,0.72,-0.03,0.86,1.12
5.682141065597534,0.9,-0.02,0.65,1.11
5.682401895523071,0.91,-0.07,0.72,1.16
5.682645082473755,0.91,-0.14,1.28,1.57
5.692111968994141,1.24,-0.23,1.72,2.13
5.702243089675903,1.67,-0.22,1.51,2.26
5.713124990463257,2.05,-0.13,0.98,2.27
5.722212076187134,2.02,-0.05,0.73,2.14
5.732280015945435,1.68,0.04,0.78,1.85
5.742924928665161,1.6,-0.05,1.06,1.91
5.780998945236206,1.66,-0.2,1.39,2.17
5.7812700271606445,1.73,-0.05,1.41,2.23
5.781552076339722,1.82,0.08,1.45,2.32
5.783036947250366,1.63,0.15,1.41,2.16
5.792096853256226,1.23,0.18,1.56,1.99
5.802046060562134,1.12,0.46,1.35,1.81
5.813037157058716,1.06,0.95,1.01,1.74
5.822077989578247,0.8,1.34,0.36,1.6
5.8321568965911865,0.7,1.69,0.19,1.83
5.8428051471710205,0.77,2.02,0.44,2.2
5.88107705116272,1.05,2.28,0.58,2.57
5.881361961364746,0.89,2.6,1.29,3.03
5.881806135177612,1.13,2.71,1.76,3.42
5.8820719718933105,1.52,2.8,2.11,3.82
5.89191198348999,1.8,3.15,2.46,4.38
5.901953935623169,1.88,4.58,2.45,5.52
5.912822961807251,3.14,6.78,2.07,7.75
5.92193603515625,5.32,7.1,3.89,9.68
5.9320361614227295,4.74,6.85,5.11,9.77
5.942654848098755,4.64,8.11,5.72,10.95
5.981068849563599,5.56,9.47,7.34,13.2
5.981527090072632,6.7,10.14,7.9,14.49
5.981787919998169,7.27,10.4,7.12,14.55
5.982048034667969,6.76,9.62,6.65,13.5
5.991700887680054,6.09,8.02,4.82,11.16
6.001793146133423,5.64,7.13,0.27,9.09
6.012804985046387,4.12,7.89,-4.48,9.96
6.0217859745025635,0.34,11.27,-5.7,12.63
6.031836986541748,-2.91,12.93,-0.93,13.28
6.0425379276275635,-2.31,10.65,0.84,10.92
6.0809409618377686,0.73,5.95,-0.09,5.99
6.081390142440796,1.58,2.07,1.16,2.85
6.0816650390625,-3.22,0.25,0.01,3.22
6.081928014755249,-5.4,1.94,-5.06,7.65
6.091634035110474,-0.54,5.39,-1.59,5.64
6.101638078689575,4.02,4.73,2.37,6.64
6.112138032913208,7.12,1.92,4.76,8.77
6.121615171432495,7.15,-0.35,5.85,9.24
6.1317360401153564,5.61,-0.95,4.72,7.39
6.143774032592773,4.11,-1.06,3.97,5.81
6.181476831436157,2.57,-1.16,3.64,4.6
6.181746959686279,1.16,-1.12,3.29,3.66
6.182010889053345,-0.1,-1.08,3.15,3.33
6.182279825210571,-1.01,-1.23,2.92,3.32
6.191493034362793,-1.39,-1.59,2.82,3.52
6.201470136642456,-1.28,-2.01,2.69,3.59
6.212064981460571,-0.85,-2.3,2.47,3.48
6.221508026123047,-0.31,-2.72,2.3,3.57
6.231641054153442,0.09,-3.21,1.95,3.75
6.2422239780426025,0.48,-3.77,1.83,4.21
6.281551122665405,0.64,-4.48,1.84,4.88
6.2818169593811035,0.36,-5.24,1.75,5.53
6.28207802772522,-0.06,-5.93,1.71,6.17
6.28233790397644,-0.29,-6.57,1.59,6.76
6.291254997253418,-0.4,-7.02,1.52,7.19
6.301394939422607,-0.55,-6.97,1.27,7.1
6.3118369579315186,-0.97,-6.63,0.72,6.73
6.321326017379761,-1.87,-6.13,0.04,6.4
6.331457853317261,-3.41,-5.32,-1.39,6.47
6.342051982879639,-5.4,-4.23,-3.31,7.61
6.38127589225769,-7.21,-2.97,-5.03,9.27
6.381541013717651,-8.11,-1.87,-5.85,10.17
6.381787061691284,-8.35,-1.09,-5.85,10.25
6.382045030593872,-8.34,-0.38,-5.88,10.21
6.3911449909210205,-8.63,0.09,-6.79,10.98
6.401165962219238,-9.39,0.05,-8.08,12.38
6.411888837814331,-10.14,-0.7,-8.44,13.21
6.421196937561035,-10.82,-1.39,-8.86,14.05
6.431344985961914,-10.3,-1.65,-9.23,13.92
6.44189190864563,-8.54,-1.64,-8.92,12.45
6.481539964675903,-6.77,-1.98,-8.63,11.14
6.481809854507446,-5.49,-2.38,-8.27,10.2
6.482083082199097,-6.18,3.64,-7.48,10.36
6.482349157333374,-1.79,-0.91,-7.11,7.38
6.490966081619263,7.54,-0.44,-3.4,8.28
6.501245975494385,30.46,17.22,26.74,44.03
6.51164984703064,21.04,27.73,5.86,35.29
6.520987033843994,1.69,21.09,-17.78,27.63
6.5311360359191895,-6.68,-2.18,-12.05,13.94
6.5417640209198,-17.55,-12.32,-2.2,21.55
6.580979108810425,-18.84,-7.14,4.59,20.66
6.581248998641968,-16.03,-3.12,-6.29,17.5
6.581513166427612,-12.57,-1.56,-8.47,15.23
6.581773042678833,-7.54,-0.12,-3.36,8.25
6.590916872024536,-2.43,-0.17,-0.11,2.43
6.6008899211883545,1.91,0.36,0.11,1.94
6.611509084701538,4.74,1.51,-2.55,5.59
6.6209070682525635,4.47,2.18,-3.99,6.37
6.630888938903809,0.43,1.56,-2.67,3.12
6.641555070877075,-2.3,0.61,-1.83,3.0
6.68160605430603,-2.1,0.23,-2.3,3.12
6.681873083114624,-1.37,-0.08,-2.65,2.98
6.682133913040161,-1.23,-0.13,-2.31,2.62
6.682392835617065,-1.05,0.0,-1.78,2.06
6.690686941146851,-0.48,0.14,-1.31,1.4
6.700713872909546,0.07,0.24,-0.95,0.98
6.711280107498169,0.17,0.2,-0.57,0.62
6.720775842666626,-0.01,0.13,-0.22,0.25
6.730684041976929,-0.11,0.05,0.02,0.12
6.741473913192749,0.02,-0.06,0.52,0.52
6.781494855880737,0.36,-0.02,0.93,0.99
6.7817418575286865,0.66,-0.02,0.77,1.01
6.782003164291382,0.58,-0.01,0.39,0.69
6.7822630405426025,0.29,0.03,-0.06,0.29
6.790521860122681,0.16,0.04,0.05,0.17
6.800600051879883,0.62,-0.01,0.68,0.92
6.811154127120972,1.57,0.02,1.24,2.0
6.820611953735352,2.37,0.1,1.42,2.76
6.830433130264282,2.42,0.09,1.37,2.78
6.841232061386108,1.86,0.08,1.26,2.24
6.88259482383728,1.17,0.1,1.11,1.61
6.882864952087402,0.72,0.13,0.78,1.06
6.883128881454468,0.57,-0.05,0.76,0.95
6.883386850357056,0.64,-0.2,0.97,1.17
6.890406847000122,0.87,-0.16,0.88,1.24
6.900486946105957,0.98,0.03,0.59,1.14
6.910974979400635,0.88,0.23,0.46,1.01
6.920961141586304,0.73,0.38,0.43,0.92
6.930349111557007,0.82,0.45,0.6,1.11
6.941131830215454,1.24,0.56,1.26,1.85
6.98137903213501,1.89,0.77,1.84,2.74
6.981643915176392,2.54,0.82,2.63,3.74
6.981905937194824,2.73,1.34,2.95,4.23
6.982168912887573,2.97,2.01,2.34,4.28
6.990216970443726,2.06,2.8,1.79,3.9
7.000334978103638,1.56,3.03,1.89,3.89
7.0107948780059814,1.93,2.94,2.02,4.05
7.020213842391968,2.45,2.81,2.38,4.42
7.0303051471710205,2.96,3.05,2.64,5.0
7.041026830673218,3.38,3.4,3.2,5.76
7.082458019256592,3.61,3.79,3.82,6.47
7.08272385597229,3.55,4.65,4.22,7.21
7.082987070083618,3.26,6.66,4.15,8.49
7.083251953125,4.26,9.29,4.84,11.3
7.090051889419556,6.4,10.57,7.04,14.22
7.100128889083862,7.65,10.94,7.77,15.44
7.110682964324951,7.69,10.78,7.75,15.34
7.120067834854126,6.88,10.5,7.87,14.81
7.130273103713989,6.21,9.36,5.98,12.72
7.140866994857788,6.2,8.14,-0.18,10.23
7.182279825210571,5.89,9.39,-6.2,12.7
7.182545900344849,3.19,12.67,-7.82,15.22
7.182806968688965,-1.03,13.94,-2.0,14.12
7.183067083358765,-2.26,10.88,0.23,11.11
7.190017938613892,0.14,5.1,-0.96,5.19
7.199937105178833,1.86,1.56,0.11,2.43
7.2105491161346436,-3.39,-0.33,-2.55,4.25
7.220002889633179,-5.54,0.85,-6.77,8.78
7.230270147323608,-0.33,3.66,-2.17,4.26
7.240701913833618,4.76,2.65,1.37,5.61
7.281915903091431,8.28,-0.26,3.67,9.06
7.282182931900024,8.21,-2.38,4.12,9.48
7.282444000244141,6.32,-3.09,2.76,7.55
7.282703161239624,5.08,-3.16,1.86,6.26
7.289904832839966,4.47,-2.94,1.7,5.61
7.299876928329468,4.35,-2.72,1.73,5.41
7.310417890548706,4.04,-2.89,1.91,5.32
7.319882154464722,3.16,-3.22,1.89,4.89
7.3301661014556885,2.37,-3.3,1.62,4.37
7.340536832809448,2.08,-3.17,1.46,4.06
7.381860017776489,1.96,-3.2,1.12,3.91
7.382132053375244,1.94,-3.22,0.85,3.85
7.382397890090942,2.17,-3.23,0.93,4.0
7.38266396522522,2.43,-3.36,0.95,4.25
7.389642000198364,2.57,-3.63,0.75,4.51
7.399682998657227,2.32,-3.89,0.37,4.54
7.410227060317993,1.77,-3.96,-0.04,4.33
7.4196250438690186,1.17,-3.87,-0.54,4.07
7.429723024368286,0.48,-3.74,-0.97,3.89
7.440435171127319,-0.36,-3.81,-1.32,4.04
7.481923818588257,-1.31,-3.89,-1.53,4.38
7.482189893722534,-1.92,-3.48,-1.98,4.44
7.4824559688568115,-2.81,-2.53,-3.08,4.87
7.482714891433716,-4.33,-1.43,-4.46,6.37
7.489485025405884,-5.72,-0.37,-5.71,8.09
7.499557018280029,-6.72,0.79,-6.73,9.54
7.510124921798706,-7.72,2.42,-7.61,11.1
7.519459009170532,-8.5,4.11,-8.32,12.58
7.5296690464019775,-9.52,4.8,-9.64,14.37
7.540295839309692,-10.72,4.23,-10.92,15.87
7.582791090011597,-11.3,2.67,-10.71,15.79
7.583057165145874,-11.08,0.57,-9.66,14.71
7.58332085609436,-9.55,-1.44,-8.8,13.06
7.583580017089844,-7.22,-2.56,-7.57,10.76
7.589349031448364,-7.72,-0.77,-7.11,10.52
7.599390983581543,-6.48,1.28,-5.93,8.87
7.6100029945373535,-3.18,-3.42,-5.31,7.07
7.619339942932129,-3.33,2.3,0.1,4.04
7.6296069622039795,8.86,12.75,20.11,25.4
7.640143156051636,15.48,10.27,16.98,25.16
7.682536840438843,5.38,6.9,-9.34,12.79
7.682806968688965,-3.11,6.62,-7.44,10.43
7.68307089805603,-7.76,2.4,-1.82,8.32
7.683329820632935,-10.37,0.65,-0.44,10.39
7.689229965209961,-9.05,-2.83,-3.15,9.99
7.6992199420928955,-6.64,-3.28,-7.03,10.21
7.709870100021362,-5.93,-1.37,-8.02,10.06
7.719234943389893,-4.14,-0.08,-6.09,7.36
7.7293150424957275,-2.78,0.18,-4.54,5.32
7.740038156509399,-2.52,0.2,-3.4,4.23
7.782718896865845,-1.71,0.29,-2.83,3.31
7.782986879348755,-0.46,0.73,-2.16,2.32
7.783246994018555,-0.29,1.2,-0.86,1.5
7.783509016036987,-0.9,0.97,-0.37,1.37
7.7891809940338135,-1.36,0.29,-0.41,1.44
7.799166917800903,-1.54,-0.08,-0.47,1.61
7.809659004211426,-1.16,-0.25,-0.68,1.36
7.8190648555755615,-0.46,-0.21,-1.0,1.12
7.829125165939331,0.07,-0.12,-1.34,1.34
7.839882135391235,0.05,-0.06,-1.84,1.84
7.8829381465911865,-0.21,0.1,-2.0,2.01
7.883213043212891,-0.6,0.21,-1.69,1.8
7.883475065231323,-0.8,0.1,-1.16,1.41
7.883734941482544,-0.81,-0.04,-0.4,0.9
7.889012098312378,-0.66,-0.12,0.27,0.72
7.898964166641235,-0.49,-0.15,0.84,0.98
7.9095330238342285,-0.23,-0.1,1.16,1.18
7.919234037399292,0.29,0.03,1.11,1.14
7.929044961929321,0.81,0.14,1.03,1.31
7.939728021621704,1.01,0.15,0.97,1.4
7.982682943344116,1.02,0.18,0.71,1.25
7.982957124710083,0.98,0.16,0.41,1.07
7.983221054077148,0.96,0.01,0.33,1.01
7.983489990234375,0.92,-0.11,0.44,1.02
7.988797903060913,1.05,-0.08,0.71,1.27
7.998870134353638,1.29,0.09,1.3,1.83
8.009403944015503,1.34,0.08,1.63,2.11
8.018800973892212,1.48,-0.03,1.46,2.07
8.028944969177246,1.9,-0.11,1.3,2.3
8.039549112319946,2.56,-0.18,1.39,2.91
8.083178997039795,2.96,-0.05,1.2,3.19
8.08344292640686,2.77,0.2,1.05,2.96
8.08370304107666,2.31,0.39,0.66,2.43
8.083961009979248,1.66,0.38,0.91,1.93
8.0886709690094,1.51,0.43,1.37,2.08
8.098608016967773,1.64,0.75,1.38,2.27
8.10917592048645,1.82,1.17,1.42,2.58
8.118669986724854,1.67,1.35,1.41,2.56
8.128662824630737,1.73,1.78,1.3,2.8
8.139458894729614,2.24,2.95,1.25,3.9
8.182597875595093,1.9,3.42,1.83,4.31
8.182858943939209,1.82,3.41,2.31,4.5
8.183117151260376,2.64,3.72,2.67,5.28
8.183375120162964,2.97,3.77,3.41,5.88
8.188469171524048,3.28,4.52,3.58,6.63
8.198431968688965,3.51,6.99,2.99,8.37
8.209122896194458,4.96,9.29,3.41,11.06
8.218516111373901,5.76,9.79,5.63,12.67
8.22854995727539,5.55,10.63,6.89,13.83
8.239272832870483,6.5,11.28,7.6,15.07
8.283775091171265,7.7,11.53,6.6,15.35
8.28404688835144,8.96,11.68,5.81,15.82
8.284312009811401,8.56,9.95,4.59,13.9
8.28456997871399,7.19,8.46,0.02,11.1
8.288387060165405,4.4,9.26,-5.21,11.5
8.29826807975769,0.2,12.66,-6.46,14.21
8.30891489982605,-2.44,14.22,-1.99,14.56
8.318432092666626,-1.47,9.13,0.21,9.24
8.328464984893799,0.63,3.36,-0.18,3.42
8.339128017425537,-0.75,0.48,0.44,0.99
8.383020162582397,-5.72,-0.22,-4.01,6.98
8.38329005241394,-2.26,3.01,-3.02,4.82
8.383555173873901,3.29,3.45,1.9,5.13
8.38381314277649,7.13,1.24,4.11,8.32
8.388118028640747,8.16,-0.89,5.89,10.1
8.398139953613281,6.77,-1.98,5.72,9.08
8.408725023269653,5.34,-2.21,4.12,7.09
8.418227910995483,3.85,-2.23,3.14,5.44
8.428260087966919,2.58,-2.4,2.6,4.37
8.439030885696411,1.76,-2.74,2.53,4.12
8.483031988143921,1.28,-3.16,2.83,4.43
8.483299016952515,0.91,-3.53,3.05,4.75
8.483566999435425,0.54,-3.67,2.89,4.7
8.483829021453857,0.28,-3.73,2.62,4.56
8.488150835037231,0.24,-3.81,2.48,4.55
8.498029947280884,0.34,-3.81,2.29,4.45
8.508601903915405,0.21,-3.6,2.05,4.14
8.518255949020386,-0.27,-3.31,1.38,3.59
8.528090000152588,-0.98,-3.38,0.44,3.54
8.538819074630737,-1.61,-4.15,0.01,4.45
8.583339929580688,-2.14,-5.31,-0.33,5.73
8.583603143692017,-2.19,-5.99,-0.53,6.39
8.58387017250061,-2.24,-6.1,-0.81,6.54
8.584135055541992,-2.85,-5.81,-1.44,6.62
8.587756872177124,-4.1,-5.56,-1.83,7.14
8.598088026046753,-5.49,-5.12,-2.26,7.83
8.608473062515259,-6.47,-4.47,-3.03,8.42
8.617830038070679,-7.14,-3.8,-3.77,8.92
8.627946138381958,-7.57,-3.03,-4.64,9.38
8.638755083084106,-7.56,-1.89,-5.44,9.5
8.682985067367554,-7.72,-0.6,-6.27,9.96
8.68325686454773,-8.16,0.2,-6.88,10.67
8.68353009223938,-8.44,0.23,-7.15,11.06
8.683776140213013,-8.44,-0.04,-7.29,11.15
8.687732934951782,-8.41,-0.27,-7.41,11.21
8.697964906692505,-8.34,-0.15,-7.48,11.2
8.708310842514038,-7.82,0.27,-7.77,11.02
8.717758893966675,-7.02,0.37,-7.64,10.38
8.727821111679077,-8.0,3.02,-7.55,11.4
8.73846983909607,-3.79,1.72,-6.92,8.07
8.783143043518066,-0.68,-5.2,-7.69,9.3
8.783418893814087,4.65,7.13,1.57,8.65
8.783689022064209,21.4,16.88,27.32,38.59
8.783952951431274,11.92,14.93,8.02,20.71
8.787559032440186,-5.75,8.45,-6.99,12.38
8.79800796508789,-12.54,0.17,-5.35,13.63
8.808152914047241,-14.26,-4.35,-5.64,15.93
8.817636013031006,-15.64,0.39,2.71,15.87
8.827679872512817,-11.45,-2.21,0.49,11.67
8.838387966156006,-6.37,-3.22,-5.53,9.02
8.882781982421875,-3.45,-1.55,-6.94,7.9
8.883052110671997,-1.64,0.0,-5.05,5.3
8.883317947387695,0.02,0.53,-3.08,3.12
8.883584976196289,2.82,1.23,-2.97,4.27
8.887397050857544,4.54,1.73,-2.81,5.61
8.897793054580688,2.94,1.26,-1.93,3.73
8.908089876174927,-0.26,0.34,-1.68,1.73
8.91742491722107,-2.5,-0.02,-1.86,3.11
8.92755389213562,-2.92,0.05,-0.85,3.04
8.93821406364441,-2.21,0.01,0.19,2.21
8.98269009590149,-1.5,-0.13,0.36,1.54
8.983711957931519,-0.73,-0.02,0.01,0.73
8.98400616645813,0.02,0.22,-0.22,0.31
8.984269857406616,0.91,0.26,-0.54,1.08
8.987223863601685,1.12,0.18,-0.99,1.5
8.99731993675232,0.6,-0.01,-1.14,1.28
9.00787615776062,-0.13,-0.25,-0.89,0.93
9.017254114151001,-0.73,-0.27,-0.49,0.91
9.0274178981781,-0.73,-0.06,0.0,0.73
9.038094997406006,-0.36,0.13,0.62,0.72
9.047453165054321,0.26,0.12,0.87,0.91
9.082797050476074,0.92,0.15,0.8,1.22
9.083060026168823,1.28,0.31,0.7,1.49
9.083323001861572,1.09,0.32,0.78,1.37
9.087147951126099,0.71,0.19,0.79,1.07
9.097131967544556,0.49,0.08,0.87,1.0
9.107722997665405,0.48,-0.01,1.02,1.12
9.117185831069946,0.56,-0.04,1.26,1.37
9.127238988876343,0.8,0.01,1.56,1.75
9.13791012763977,1.08,0.05,1.66,1.98
9.147249937057495,1.39,0.02,1.29,1.89
9.182993173599243,1.8,0.13,0.99,2.05
9.183259963989258,1.94,0.3,0.69,2.08
9.18352484703064,1.7,0.53,0.6,1.87
9.187034845352173,1.4,0.63,0.69,1.68
9.197021007537842,1.3,0.53,0.85,1.64
9.207553148269653,1.42,0.55,1.33,2.02
9.216961145401001,1.42,0.75,1.75,2.37
9.227151155471802,1.65,1.06,1.61,2.53
9.237705945968628,1.61,1.72,1.44,2.76
9.24707293510437,1.33,2.25,1.66,3.09
9.283759832382202,1.43,2.38,1.69,3.25
9.284034013748169,1.77,2.6,2.09,3.77
9.284296989440918,2.44,2.78,2.55,4.49
9.286911010742188,3.28,3.12,2.96,5.4
9.296875,4.1,3.62,3.27,6.37
9.307501077651978,4.47,5.04,3.03,7.38
9.316928148269653,5.33,7.41,2.59,9.48
9.326903104782104,6.33,8.65,3.57,11.29
9.337659120559692,5.31,8.97,4.93,11.53
9.346865892410278,3.78,9.11,6.53,11.82
9.383285999298096,3.66,10.13,7.89,13.35
9.383538961410522,5.56,11.4,7.89,14.93
9.383806943893433,6.19,10.71,6.48,13.96
9.386953115463257,6.12,9.1,3.45,11.49
9.396643877029419,6.17,8.14,-0.94,10.25
9.407274961471558,4.55,9.35,-5.21,11.63
9.416769981384277,-0.08,12.7,-4.49,13.47
9.426866054534912,-2.6,13.0,-0.13,13.25
9.437562942504883,-0.64,9.23,0.37,9.25
9.446683168411255,1.78,4.56,0.61,4.93
9.483078002929688,0.4,1.82,2.2,2.88
9.483352899551392,-5.43,0.99,-2.49,6.05
9.483615159988403,-3.27,4.19,-3.44,6.33
9.486707925796509,2.57,5.2,1.96,6.12
9.496624946594238,6.88,2.74,4.87,8.86
9.507100820541382,8.5,0.21,6.3,10.58
9.517727136611938,6.85,-1.03,5.56,8.88
9.526595830917358,4.84,-1.28,4.1,6.47
9.537282943725586,3.16,-1.44,3.43,4.88
9.546602964401245,1.92,-1.78,3.38,4.27
9.583222150802612,1.2,-2.02,3.43,4.15
9.583498001098633,0.87,-2.3,3.36,4.16
9.583768129348755,0.63,-2.47,3.22,4.1
9.586551904678345,0.65,-2.64,3.07,4.1
9.596359014511108,0.8,-3.05,3.02,4.36
9.607024908065796,0.99,-3.39,2.67,4.42
9.616389989852905,1.34,-3.6,2.33,4.49
9.626487970352173,1.51,-3.95,2.18,4.75
9.637226819992065,1.48,-4.5,1.92,5.11
9.646559953689575,1.45,-5.06,1.76,5.55
9.68318796157837,1.35,-5.55,1.65,5.94
9.683459043502808,1.34,-5.85,1.37,6.15
9.683722972869873,1.36,-5.96,1.08,6.2
9.686295986175537,0.97,-5.91,0.85,6.04
9.696259021759033,0.11,-5.5,0.35,5.51
9.70681095123291,-1.48,-4.86,-1.12,5.2
9.716240167617798,-3.63,-4.27,-2.86,6.29
9.726369142532349,-5.11,-3.8,-4.34,7.7
9.737058877944946,-6.29,-2.94,-5.97,9.15
9.746301889419556,-7.11,-1.76,-6.75,9.96
9.783147096633911,-7.28,-0.6,-7.03,10.13
9.783418893814087,-7.45,0.89,-8.19,11.1
9.783684015274048,-8.12,2.53,-10.26,13.32
9.786088943481445,-8.66,3.35,-11.43,14.72
9.796181917190552,-9.13,2.46,-11.33,14.75
9.806642055511475,-9.31,0.92,-10.65,14.17
9.816044092178345,-9.19,-0.51,-10.33,13.83
9.826171159744263,-9.33,-0.87,-10.21,13.85
9.83688998222351,-8.13,4.03,-8.81,12.64
9.84614109992981,-2.97,-2.86,-7.62,8.66
9.882886171340942,-6.94,-3.91,-6.78,10.46
9.883157968521118,-0.56,8.2,2.21,8.51
9.883424043655396,15.8,14.03,23.15,31.34
9.885995149612427,10.36,13.73,-2.99,17.45
9.895918130874634,-0.77,8.53,-7.24,11.21
9.906569004058838,-9.92,1.72,0.07,10.06
9.915950059890747,-13.23,-4.54,-4.86,14.8
9.926072835922241,-10.1,-2.45,-3.25,10.88
9.936800956726074,-9.41,-2.41,-5.13,10.98
9.946027040481567,-7.07,-0.98,-6.36,9.56
9.98284101486206,-3.93,1.01,-5.34,6.7
9.983106851577759,-1.27,1.13,-3.61,3.99
9.983370065689087,0.81,0.61,-2.45,2.65
9.985790967941284,2.0,0.58,-1.85,2.78
9.995875120162964,1.58,0.69,-1.15,2.07
10.006399869918823,0.02,0.53,-1.73,1.8
10.0157790184021,-1.38,0.14,-2.29,2.67
10.02591586112976,-1.9,0.16,-1.7,2.55
10.036633014678955,-1.87,0.14,-0.5,1.94
10.04581594467163,-1.5,-0.19,0.08,1.51
10.084243059158325,-0.92,-0.28,-0.15,0.97
10.084553956985474,-0.52,-0.2,-0.55,0.78
10.084856033325195,-0.45,-0.07,-0.65,0.79
10.085735082626343,-0.53,0.0,-0.55,0.76
10.095595121383667,-0.61,-0.05,-0.28,0.67
10.106046915054321,-0.65,-0.14,-0.1,0.67
10.115600824356079,-0.48,-0.16,-0.09,0.51
10.125725984573364,-0.09,-0.07,-0.06,0.12
10.13630986213684,0.39,0.06,0.05,0.39
10.14563798904419,0.8,0.24,0.25,0.87
10.183289051055908,0.98,0.35,0.4,1.11
10.18355107307434,0.86,0.38,0.56,1.09
10.183809041976929,0.75,0.33,0.65,1.04
10.185495138168335,0.96,0.17,0.75,1.23
10.195487976074219,1.38,0.08,1.01,1.71
10.206102132797241,1.6,-0.11,1.14,1.96
10.215701818466187,1.63,-0.32,1.75,2.41
10.225620985031128,2.03,-0.44,2.75,3.44
10.236286878585815,2.61,-0.42,2.87,3.9
10.245582818984985,2.78,-0.27,2.05,3.46
10.283209085464478,2.65,-0.05,1.52,3.05
10.28347396850586,2.52,0.16,1.45,2.91
10.283731937408447,2.36,0.24,1.21,2.66
10.285441160202026,2.36,0.09,1.5,2.79
10.295265913009644,2.36,0.04,2.2,3.22
10.305837869644165,2.25,0.23,2.48,3.35
10.315635919570923,2.07,0.59,2.2,3.07
10.325448036193848,1.95,0.95,2.2,3.08
10.336081981658936,1.84,1.38,2.15,3.14
10.346025943756104,1.72,2.1,1.98,3.35
10.383435010910034,1.74,3.05,2.06,4.07
10.383701086044312,1.48,3.83,2.07,4.59
10.383963823318481,1.95,4.05,2.3,5.04
10.385235071182251,1.77,3.93,3.12,5.32
10.395210027694702,2.21,4.11,4.1,6.21
10.40578007698059,2.53,4.83,4.57,7.11
10.415568113327026,2.84,7.02,4.88,9.0
10.42533802986145,4.61,9.87,6.41,12.63
10.43613886833191,6.63,11.01,8.73,15.53
10.44525408744812,6.92,11.07,9.07,15.89
10.483381032943726,7.02,11.26,9.07,16.07
10.483644962310791,7.4,10.61,8.85,15.67
10.48390507698059,6.1,8.45,5.87,11.96
10.485074043273926,3.51,6.4,-0.58,7.32
10.495069980621338,0.06,7.0,-6.97,9.87
10.505667924880981,-5.05,11.06,-9.14,15.21
10.515115976333618,-8.3,12.38,-3.35,15.27
10.525162935256958,-7.23,9.37,0.16,11.83
10.535830974578857,0.01,5.19,-0.01,5.19
10.5452721118927,3.31,0.84,0.39,3.43
10.583514928817749,-1.02,-0.96,-1.5,2.05
10.583786964416504,-3.6,1.02,-5.65,6.77
10.584047079086304,0.86,4.64,-2.96,5.57
10.584944009780884,6.27,3.66,1.07,7.33
10.594882011413574,9.65,0.36,3.18,10.16
10.605523824691772,10.08,-1.31,4.29,11.03
10.614967107772827,8.27,-1.83,4.67,9.67
10.625020980834961,6.43,-2.02,4.55,8.13
10.6356840133667,5.45,-1.87,3.53,6.75
10.644956827163696,5.19,-1.66,2.55,6.01
10.6840341091156,4.75,-1.74,2.58,5.67
10.684518098831177,3.7,-1.97,2.66,4.96
10.684787034988403,2.31,-2.01,2.17,3.75
10.685048818588257,1.35,-1.98,1.61,2.88
10.694790124893188,0.93,-2.2,1.3,2.71
10.705363035202026,1.04,-2.55,1.0,2.92
10.714800119400024,1.45,-2.85,0.79,3.29
10.72487497329712,1.51,-3.1,0.21,3.45
10.735569953918457,1.25,-3.43,-0.29,3.66
10.74476408958435,0.59,-3.9,-0.82,4.02
10.783661127090454,-0.14,-4.22,-1.03,4.34
10.783960103988647,-0.69,-4.43,-1.32,4.67
10.784416913986206,-1.51,-4.56,-1.81,5.13
10.784684896469116,-2.84,-4.58,-2.12,5.79
10.794613122940063,-3.46,-4.31,-2.65,6.12
10.805206060409546,-2.97,-3.71,-2.74,5.48
10.814613103866577,-2.75,-2.78,-2.36,4.56
10.824728012084961,-3.37,-1.4,-3.66,5.16
10.835461854934692,-5.08,0.47,-5.42,7.44
10.844804048538208,-6.83,2.11,-5.91,9.27
10.883415937423706,-7.32,2.72,-6.18,9.95
10.883682012557983,-7.36,3.07,-7.8,11.15
10.883958101272583,-8.32,3.23,-10.42,13.71
10.884392023086548,-9.71,2.13,-12.58,16.03
10.894461870193481,-10.07,0.17,-12.59,16.12
10.905140161514282,-9.45,-2.18,-11.26,14.86
10.91449499130249,-9.13,-0.43,-10.62,14.01
10.92459511756897,-7.3,0.97,-6.62,9.9
10.935227155685425,-5.38,-5.12,-7.66,10.66
10.94451904296875,-5.79,-3.0,-9.24,11.3
10.983650922775269,0.0,8.56,-0.35,8.56
10.984103918075562,11.56,12.23,20.41,26.45
10.984368085861206,8.72,9.48,1.68,12.98
10.98462700843811,-2.7,10.16,-10.26,14.68
10.994313955307007,-9.95,4.19,-4.04,11.52
11.004955053329468,-7.91,-4.2,-4.58,10.05
11.014331102371216,-5.78,-3.21,-5.05,8.31
11.0244619846344,-8.33,-3.07,-5.94,10.68
11.035030126571655,-7.91,-1.23,-7.49,10.96
11.044363021850586,-5.51,0.75,-4.87,7.39
11.083505868911743,-2.98,0.54,-2.32,3.81
11.083958864212036,-1.02,0.28,-2.69,2.89
11.084221124649048,0.35,0.72,-3.16,3.25
11.084481954574585,1.06,0.84,-2.15,2.54
11.094206094741821,0.49,0.69,-1.2,1.46
11.104724168777466,-0.68,0.5,-1.06,1.35
11.114217042922974,-1.16,0.28,-1.17,1.67
11.124293088912964,-0.96,0.06,-1.03,1.4
11.134860038757324,-0.62,-0.02,-0.96,1.14
11.144287824630737,-0.19,-0.03,-1.04,1.05
11.183756113052368,0.25,0.04,-1.18,1.2
11.184024095535278,0.44,0.14,-1.21,1.29
11.18428111076355,0.46,0.04,-1.1,1.19
11.18454098701477,0.25,-0.1,-0.95,0.98
11.19391417503357,-0.09,-0.16,-0.61,0.63
11.204675912857056,-0.21,-0.24,-0.23,0.39
11.214110136032104,-0.18,-0.23,0.17,0.33
11.22414517402649,-0.16,-0.07,0.6,0.62
11.234791040420532,-0.11,0.05,0.81,0.81
11.246564149856567,0.11,0.14,0.88,0.89
11.284181833267212,0.44,0.13,0.91,1.01
11.284451007843018,0.85,0.12,0.88,1.22
11.284712076187134,1.45,0.09,0.86,1.68
11.284970045089722,2.04,0.02,0.94,2.24
11.293880939483643,2.32,-0.02,0.8,2.45
11.305721044540405,2.12,-0.06,0.61,2.2
11.313853025436401,1.73,-0.06,0.63,1.84
11.324051141738892,1.52,-0.05,0.81,1.72
11.334581136703491,1.64,-0.11,0.9,1.87
11.343952894210815,1.85,-0.26,1.12,2.17
11.384060144424438,1.87,-0.45,1.51,2.44
11.384331941604614,2.12,-0.54,1.52,2.66
11.38459300994873,2.52,-0.51,1.37,2.91
11.384852170944214,2.39,-0.33,1.84,3.03
11.393739938735962,1.7,-0.07,1.82,2.49
11.404309034347534,1.14,0.14,1.1,1.59
11.41388487815857,0.83,0.32,0.67,1.11
11.423900842666626,0.92,0.39,0.63,1.18
11.43441891670227,1.28,0.44,0.98,1.67
11.443817853927612,1.37,0.37,1.3,1.92
11.484441041946411,1.17,0.53,1.48,1.95
11.484707117080688,1.02,0.88,1.7,2.16
11.484962940216064,0.98,1.37,1.63,2.34
11.485222101211548,1.03,1.8,1.41,2.5
11.493594884872437,1.29,2.66,1.66,3.39
11.50416111946106,2.14,3.42,1.89,4.45
11.513571977615356,2.42,4.0,2.77,5.43
11.523753881454468,2.99,4.48,3.6,6.47
11.534085035324097,3.51,5.57,4.09,7.75
11.543622970581055,4.56,7.72,3.61,9.66
11.583659887313843,6.03,9.21,4.31,11.82
11.583926916122437,5.74,9.82,5.14,12.48
11.584187984466553,5.26,10.62,6.15,13.35
11.584450006484985,5.69,11.79,7.97,15.32
11.593482971191406,6.43,11.84,7.65,15.49
11.604024171829224,7.33,10.79,5.65,14.21
11.613433122634888,7.84,9.11,3.71,12.57
11.623600959777832,7.14,7.12,-0.08,10.08
11.633958101272583,5.38,7.58,-4.89,10.5
11.643512964248657,0.56,10.98,-5.59,12.33
11.68496584892273,-3.84,12.93,-1.11,13.53
11.685231924057007,-1.74,10.36,-1.72,10.64
11.685492992401123,2.0,5.24,-1.61,5.83
11.685755014419556,1.19,1.04,1.27,2.02
11.69339108467102,-4.17,-1.19,-1.62,4.62
11.703870058059692,-3.89,1.53,-4.84,6.39
11.713372945785522,1.26,3.84,-0.46,4.06
11.723402976989746,5.61,2.15,2.72,6.59
11.73396897315979,8.09,-0.46,4.56,9.29
11.743364095687866,7.64,-2.28,5.37,9.61
11.784019947052002,6.19,-2.72,4.29,8.0
11.784284830093384,4.9,-2.34,2.67,6.05
11.784544944763184,4.08,-2.01,2.0,4.96
11.784808874130249,3.49,-2.04,2.28,4.64
11.793484926223755,2.76,-2.25,2.45,4.32
11.805444955825806,1.93,-2.5,2.21,3.85
11.813032865524292,1.44,-2.65,2.09,3.66
11.823210000991821,1.29,-2.78,1.86,3.58
11.834101915359497,1.44,-2.95,1.52,3.61
11.843136072158813,1.83,-3.27,1.59,4.07
11.884758949279785,2.19,-3.69,1.71,4.61
11.885023832321167,2.32,-4.09,1.55,4.95
11.885288000106812,2.18,-4.44,1.32,5.11
11.885550022125244,1.58,-4.73,0.9,5.06
11.893074035644531,0.2,-5.22,0.3,5.23
11.90367603302002,-1.6,-5.57,-0.56,5.82
11.913074970245361,-2.85,-6.2,-0.86,6.87
11.923117876052856,-3.52,-6.7,-1.66,7.74
11.966121912002563,-4.63,-6.89,-2.88,8.78
11.966732025146484,-6.92,-6.86,-4.66,10.8
11.967017889022827,-8.91,-6.26,-5.5,12.19
11.967288970947266,-9.04,-5.53,-4.53,11.52
11.97287917137146,-7.74,-4.36,-4.08,9.77
11.983211040496826,-6.23,-2.72,-4.6,8.2
11.992862939834595,-5.85,-1.28,-5.0,7.8
12.00347113609314,-6.9,-0.16,-5.49,8.81
12.01291298866272,-8.97,0.8,-6.19,10.92
12.023009061813354,-11.06,1.17,-7.14,13.21
12.068037033081055,-12.13,1.01,-7.45,14.27
12.068305015563965,-11.75,1.15,-7.02,13.73
12.068566083908081,-10.29,1.87,-6.83,12.49
12.068830013275146,-7.61,6.86,-6.58,12.17
12.072806119918823,0.02,-0.24,-5.05,5.05
12.082705974578857,-4.59,-7.33,-10.0,13.22
12.09273099899292,2.61,12.11,-4.39,13.14
12.103351831436157,30.07,27.57,27.86,49.4
12.112758874893188,13.71,23.11,4.49,27.24
12.12279486656189,-5.47,2.96,-12.39,13.86
12.167318105697632,-15.28,-9.12,-2.88,18.02
12.16758394241333,-20.57,-9.93,5.11,23.4
12.167847871780396,-18.13,-4.6,-1.77,18.78
12.168107986450195,-13.52,-2.78,-4.03,14.37
12.17264699935913,-7.48,-0.55,-3.79,8.4
12.182541131973267,-2.46,1.15,-2.44,3.65
12.192561864852905,0.63,0.64,-3.08,3.2
12.203145980834961,4.09,0.78,-5.48,6.88
12.212592840194702,5.95,1.67,-5.15,8.04
12.222723960876465,3.82,1.52,-2.02,4.58
12.267669916152954,0.11,0.9,-1.24,1.53
12.267944097518921,-2.31,0.36,-2.1,3.14
12.268208026885986,-3.0,-0.06,-1.86,3.53
12.268481969833374,-2.62,-0.27,-0.89,2.78
12.272393941879272,-1.54,-0.2,-0.11,1.55
12.282323122024536,-0.05,0.1,-0.27,0.29
12.292446851730347,1.04,0.3,-0.29,1.12
12.303064107894897,1.07,0.33,-0.34,1.17
12.312551975250244,0.38,0.14,-0.29,0.49
12.322517156600952,-0.25,-0.09,-0.13,0.29
12.367916822433472,-0.53,-0.23,-0.28,0.64
12.368185043334961,-0.51,-0.32,-0.13,0.61
12.368453979492188,-0.39,-0.22,0.53,0.69
12.368714094161987,-0.11,-0.05,1.0,1.0
12.372208833694458,0.41,0.18,0.96,1.05
12.382346868515015,0.87,0.35,0.71,1.17
12.392298936843872,0.85,0.3,0.53,1.04
12.402958154678345,0.83,0.19,0.6,1.04
12.412285089492798,0.87,0.12,0.8,1.18
12.422466039657593,0.75,0.03,1.1,1.33
12.46740984916687,0.41,-0.08,1.34,1.4
12.468383073806763,0.19,-0.18,1.26,1.28
12.468651056289673,0.27,-0.3,1.11,1.18
12.46891188621521,0.56,-0.28,0.84,1.04
12.472056150436401,0.81,-0.06,0.45,0.92
12.482104063034058,0.91,0.29,0.24,0.98
12.492141962051392,1.16,0.68,0.12,1.34
12.502740144729614,1.6,0.77,0.33,1.8
12.512150049209595,2.06,0.64,1.39,2.56
12.522228956222534,2.28,0.73,1.84,3.01
12.533002138137817,2.2,1.17,1.55,2.93
12.568259000778198,1.68,1.49,1.32,2.6
12.568525075912476,0.89,1.83,1.36,2.44
12.568784952163696,1.12,1.91,1.55,2.7
12.571913003921509,1.64,2.05,1.95,3.27
12.582072973251343,2.13,2.17,2.4,3.87
12.592035055160522,2.71,2.51,2.52,4.47
12.602643966674805,3.09,2.92,2.72,5.04
12.611966848373413,3.31,3.17,3.1,5.53
12.622152090072632,3.53,3.44,3.4,5.98
12.632771015167236,3.74,4.22,3.6,6.68
12.668424844741821,3.84,6.24,3.21,7.99
12.66868805885315,5.1,8.55,3.68,10.61
12.66894793510437,6.37,9.61,5.82,12.91
12.671767950057983,7.17,10.14,7.16,14.33
12.681794881820679,7.62,10.44,7.2,14.79
12.691867113113403,7.26,10.36,7.0,14.45
12.702524900436401,6.72,9.34,6.67,13.29
12.711880922317505,6.19,7.91,2.83,10.43
12.721944093704224,5.74,7.65,-2.99,10.02
12.732569932937622,3.36,10.22,-7.4,13.05
12.768699884414673,-1.13,13.3,-5.27,14.35
12.768965005874634,-1.85,12.87,0.16,13.0
12.769229173660278,1.44,8.6,1.21,8.8
12.771675825119019,3.18,4.15,-0.31,5.23
12.781659841537476,0.92,1.23,0.17,1.54
12.791707992553711,-3.87,-0.95,-2.44,4.67
12.802250146865845,-3.69,1.47,-5.7,6.94
12.81166386604309,1.94,4.26,-1.65,4.96
12.821895837783813,6.32,3.03,0.99,7.07
12.832382917404175,8.6,0.72,2.98,9.13
12.868346929550171,8.43,-1.41,4.24,9.54
12.868612051010132,7.12,-2.4,3.77,8.4
12.868871927261353,5.96,-2.33,3.0,7.06
12.871512174606323,4.85,-2.06,2.55,5.85
12.881536960601807,3.98,-1.96,2.69,5.18
12.891541957855225,3.32,-2.21,2.76,4.85
12.902066946029663,2.18,-2.44,2.11,3.89
12.91153883934021,0.9,-2.56,1.46,3.08
12.92185091972351,-0.11,-2.65,1.25,2.93
12.932368040084839,-0.36,-2.58,1.16,2.85
12.969573020935059,0.09,-2.52,1.13,2.76
12.969840049743652,0.96,-2.61,1.0,2.95
12.970106840133667,1.79,-2.97,1.33,3.71
12.971405029296875,2.03,-3.27,1.74,4.22
12.981397867202759,1.9,-3.3,2.07,4.33
12.991359949111938,1.23,-3.31,1.76,3.94
13.00192904472351,0.24,-3.27,0.91,3.4
13.011368036270142,-1.01,-3.02,-0.39,3.2
13.021403074264526,-2.38,-2.44,-1.58,3.75
13.032104969024658,-4.03,-2.0,-1.93,4.89
13.068305015563965,-5.64,-2.03,-2.59,6.52
13.068572044372559,-6.56,-1.81,-3.76,7.77
13.068832159042358,-7.55,-0.97,-5.13,9.17
13.071216821670532,-8.56,0.1,-6.6,10.8
13.081230878829956,-8.91,0.8,-7.42,11.62
13.091259002685547,-9.22,1.11,-8.01,12.26
13.101703882217407,-9.65,1.18,-8.74,13.07
13.111459970474243,-10.18,0.46,-8.87,13.51
13.121340990066528,-10.58,-0.33,-9.47,14.2
13.13201904296875,-10.19,-1.09,-10.14,14.41
13.16943907737732,-9.23,-2.17,-9.29,13.27
13.169705152511597,-8.72,-3.24,-8.56,12.64
13.16996693611145,-8.94,-1.28,-8.57,12.45
13.171187162399292,-5.6,1.1,-7.41,9.35
13.181061029434204,-3.03,-3.99,-8.56,9.91
13.191126108169556,-3.32,3.31,-5.45,7.18
13.201502084732056,8.44,11.56,11.44,18.32
13.211159944534302,15.72,8.89,18.07,25.54
13.221209049224854,5.33,7.24,-4.8,10.19
13.231863021850586,-4.27,7.85,-6.68,11.15
13.269384145736694,-8.75,3.57,-5.89,11.13
13.269649028778076,-6.59,-2.3,-9.51,11.79
13.269911050796509,-6.67,-0.56,-2.16,7.03
13.270993947982788,-8.51,-3.1,-1.64,9.2
13.280953168869019,-8.26,-2.43,-6.41,10.73
13.290990114212036,-6.32,-0.54,-5.5,8.39
13.301494836807251,-3.74,-0.13,-2.95,4.76
13.310994863510132,-1.17,0.46,-2.59,2.87
13.321069955825806,0.75,0.83,-1.2,1.64
13.33164381980896,1.25,0.9,0.04,1.54
13.36919093132019,0.22,0.79,-1.08,1.35
13.369459867477417,-1.16,0.46,-2.31,2.62
13.369723081588745,-1.89,0.49,-2.22,2.95
13.370793104171753,-1.65,0.4,-1.44,2.22
13.381034135818481,-0.85,0.13,-1.22,1.49
13.39082407951355,-0.5,0.0,-1.35,1.43
13.401611089706421,-0.53,-0.08,-1.34,1.44
13.410873174667358,-0.46,0.06,-1.22,1.3
13.42093300819397,-0.21,0.25,-1.06,1.1
13.431520938873291,-0.16,0.2,-0.75,0.79
13.469351053237915,-0.33,0.04,-0.38,0.5
13.469617128372192,-0.36,-0.1,0.16,0.4
13.46987795829773,-0.18,-0.16,0.72,0.75
13.470643043518066,0.15,-0.13,1.0,1.01
13.480602025985718,0.48,0.05,1.04,1.14
13.490732908248901,0.81,0.23,0.82,1.17
13.501642942428589,1.0,0.3,0.36,1.1
13.510679960250854,0.88,0.28,0.24,0.95
13.520737886428833,0.7,0.19,0.39,0.82
13.53141713142395,0.99,0.02,0.99,1.4
13.56934404373169,1.77,0.0,1.83,2.54
13.569608926773071,2.57,-0.08,2.17,3.36
13.569869995117188,2.69,-0.11,2.28,3.52
13.570500135421753,2.27,-0.11,2.1,3.09
13.580482006072998,1.97,-0.14,1.56,2.51
13.590524911880493,1.91,-0.14,1.14,2.22
13.601449012756348,1.98,0.05,0.71,2.1
13.610554933547974,1.79,0.38,0.48,1.89
13.620659112930298,1.53,0.77,0.34,1.74
13.631271123886108,1.1,1.15,0.19,1.6
13.669469118118286,0.69,1.19,0.39,1.42
13.669734954833984,0.6,1.17,1.02,1.66
13.670159101486206,1.32,1.33,1.68,2.51
13.670415163040161,1.57,1.8,2.14,3.2
13.680282831192017,1.19,2.16,2.44,3.46
13.690337896347046,1.25,2.39,2.21,3.48
13.701097011566162,1.37,2.71,2.14,3.71
13.710299015045166,1.66,2.69,2.19,3.84
13.720339059829712,2.23,2.87,2.39,4.34
13.73100996017456,2.88,3.19,2.69,5.07
13.770081043243408,3.47,3.84,2.95,5.95
13.77034306526184,3.92,4.76,3.45,7.06
13.77058482170105,4.39,6.3,3.45,8.41
13.770841836929321,5.85,7.33,4.32,10.32
13.780149936676025,6.36,7.83,5.88,11.67
13.790148973464966,6.81,8.86,6.27,12.81
13.801016092300415,7.55,10.02,6.06,13.93
13.81014609336853,7.21,10.47,6.37,14.21
13.820122003555298,6.14,9.39,6.2,12.81
13.830863952636719,5.39,8.3,2.71,10.26
13.87033486366272,4.57,8.12,-2.2,9.57
13.870599031448364,2.2,9.96,-7.01,12.37
13.870859861373901,-2.3,13.21,-5.46,14.47
13.871119976043701,-3.29,12.95,0.28,13.36
13.880047082901001,0.13,8.49,1.76,8.67
13.890022993087769,2.6,4.06,-0.51,4.84
13.90053915977478,1.29,0.97,0.13,1.61
13.910037994384766,-4.34,-0.9,-2.17,4.93
13.920049905776978,-4.72,1.72,-5.9,7.74
13.930745840072632,0.91,4.69,-0.79,4.84
13.970221996307373,5.3,3.1,3.19,6.91
13.970484972000122,8.08,0.0,6.02,10.07
13.970746040344238,7.77,-1.96,6.34,10.21
13.971004009246826,6.4,-2.28,4.03,7.89
13.979895830154419,5.44,-2.36,2.81,6.56
13.989861011505127,4.19,-2.23,2.34,5.29
14.000463008880615,3.19,-2.21,2.2,4.46
14.00979495048523,2.31,-2.41,2.47,4.15
14.019840002059937,1.39,-2.8,2.56,4.04
14.030601978302002,0.26,-3.28,2.27,3.99
14.07079291343689,-0.19,-3.48,1.83,3.93
14.071057081222534,0.23,-3.5,1.67,3.88
14.071316957473755,1.04,-3.41,1.8,3.99
14.07157588005066,1.93,-3.48,1.87,4.39
14.079685926437378,2.39,-3.31,1.84,4.47
14.089684009552002,1.99,-2.82,1.46,3.74
14.100239992141724,0.61,-2.69,0.67,2.83
14.109691858291626,-0.75,-3.12,-0.4,3.23
14.119725942611694,-1.79,-3.42,-1.38,4.09
14.132194995880127,-2.13,-3.58,-2.23,4.72
14.170714139938354,-2.48,-3.74,-2.45,5.11
14.170976877212524,-3.46,-3.97,-2.01,5.63
14.171236991882324,-4.78,-4.07,-2.03,6.59
14.171496152877808,-5.78,-3.68,-2.77,7.39
14.179517030715942,-5.78,-2.96,-3.41,7.33
14.189561128616333,-5.35,-1.88,-4.0,6.93
14.200130939483643,-5.8,-0.57,-5.26,7.85
14.209530115127563,-7.15,0.68,-6.64,9.78
14.219550848007202,-8.75,1.55,-7.3,11.5
14.230224847793579,-9.92,1.68,-7.8,12.73
14.271064043045044,-10.65,0.84,-8.35,13.55
14.271330118179321,-10.55,-0.42,-8.23,13.38
14.271589040756226,-9.53,-1.39,-7.48,12.19
14.271848917007446,-8.06,-1.51,-6.65,10.55
14.279390096664429,-7.07,-1.24,-6.46,9.65
14.289407968521118,-6.91,-1.38,-6.31,9.45
14.29995608329773,-8.31,0.44,-6.16,10.35
14.309350967407227,-6.73,1.41,-5.75,8.96
14.319394826889038,-4.31,-6.4,-6.14,9.86
14.330150842666626,-0.63,2.26,-0.21,2.35
14.371133089065552,13.25,11.48,16.59,24.13
14.37141489982605,17.2,11.6,13.85,24.94
14.371675968170166,3.09,13.15,-6.33,14.91
14.371936082839966,-4.58,7.82,-8.2,12.22
14.379196882247925,-5.69,-1.0,-9.75,11.33
14.389199018478394,-11.25,-1.66,2.43,11.62
14.399831056594849,-10.11,-3.74,3.04,11.2
14.409350156784058,-8.73,-3.92,-5.35,10.96
14.41932201385498,-8.4,-2.46,-5.67,10.42
14.430065870285034,-5.82,-0.39,-3.01,6.56
14.471496820449829,-1.86,0.49,-1.27,2.3
14.47176194190979,1.59,0.84,-1.13,2.12
14.4720299243927,3.7,1.16,-1.75,4.25
14.4722900390625,2.73,0.89,-2.17,3.59
14.479099035263062,-0.37,0.71,-2.57,2.69
14.489228963851929,-1.98,0.6,-2.37,3.14
14.499811887741089,-1.89,0.42,-1.78,2.63
14.509247064590454,-1.48,0.21,-1.81,2.34
14.519770860671997,-1.42,0.1,-1.76,2.26
14.529912948608398,-1.08,0.08,-1.57,1.9
14.571462869644165,-0.59,0.02,-1.24,1.37
14.571730852127075,-0.48,0.06,-0.97,1.08
14.571997880935669,-0.76,0.07,-0.63,0.98
14.57226014137268,-0.94,0.02,-0.23,0.96
14.579034090042114,-0.88,-0.07,0.26,0.92
14.589076042175293,-0.65,-0.14,0.5,0.83
14.599631071090698,-0.29,-0.12,0.52,0.6
14.609045028686523,0.13,-0.04,0.37,0.39
14.618953943252563,0.45,0.05,0.37,0.58
14.629823923110962,0.57,0.16,0.32,0.67
14.671519994735718,0.69,0.19,0.16,0.73
14.671785116195679,0.81,0.21,0.18,0.85
14.672060012817383,0.87,0.16,0.53,1.03
14.672324895858765,0.95,0.02,0.94,1.33
14.678800821304321,1.01,-0.17,1.28,1.63
14.68892502784729,0.93,-0.31,1.52,1.8
14.699406862258911,0.93,-0.31,1.6,1.87
14.708903074264526,1.22,-0.2,1.42,1.88
14.718834161758423,1.47,-0.09,1.26,1.93
14.72959303855896,1.69,0.08,1.03,1.98
14.771512031555176,1.83,0.2,0.84,2.02
14.771777868270874,1.79,0.35,0.86,2.01
14.772035837173462,1.56,0.46,0.8,1.81
14.772292852401733,1.17,0.29,1.07,1.61
14.778777837753296,1.04,0.24,1.15,1.56
14.78881287574768,1.1,0.38,1.03,1.55
14.799290895462036,1.03,0.76,0.83,1.52
14.808701038360596,0.78,1.04,0.72,1.48
14.818735837936401,0.65,1.21,0.96,1.67
14.82949185371399,1.13,1.64,1.29,2.37
14.871703863143921,1.32,2.13,1.77,3.06
14.871968984603882,1.39,2.21,1.9,3.22
14.872221946716309,1.51,2.33,1.65,3.22
14.872484922409058,1.38,2.2,1.64,3.07
14.878635168075562,1.44,2.13,1.81,3.14
14.888615846633911,1.59,2.23,2.0,3.39
14.899075031280518,1.9,2.56,2.25,3.9
14.908565998077393,2.16,2.98,2.67,4.54
14.91870903968811,2.4,3.99,2.95,5.51
14.929385900497437,3.03,5.88,3.22,7.35
14.972180128097534,5.08,7.71,4.28,10.17
14.972448110580444,6.69,8.55,6.16,12.48
14.972713947296143,7.01,9.06,7.08,13.46
14.972977876663208,6.36,9.42,7.75,13.75
14.97842288017273,4.96,9.36,8.92,13.84
14.988432168960571,3.4,8.58,8.82,12.76
14.999091863632202,2.59,7.61,5.12,9.53
15.008502960205078,3.57,7.41,-1.27,8.32
15.01872706413269,3.7,9.67,-5.97,11.95
15.029232025146484,0.15,13.53,-5.42,14.57
15.072235822677612,-1.35,13.82,-0.33,13.88
15.072500944137573,1.34,10.06,1.38,10.24
15.07276201248169,2.91,5.68,0.43,6.39
15.073019981384277,2.69,3.18,0.53,4.19
15.078266859054565,-2.58,1.6,-1.16,3.24
15.089275121688843,-6.47,2.21,-5.79,8.95
15.098821878433228,-2.11,5.0,-2.78,6.09
15.108381032943726,3.06,4.66,0.98,5.66
15.118622064590454,6.89,2.32,2.56,7.7
15.129081010818481,8.01,-0.07,3.37,8.69
15.172469854354858,6.51,-1.28,2.81,7.2
15.172737836837769,4.93,-1.68,2.54,5.79
15.172996997833252,3.7,-1.94,2.77,5.01
15.173261880874634,2.83,-2.25,2.8,4.57
15.178172826766968,1.77,-2.34,2.96,4.16
15.188166856765747,0.26,-2.17,3.16,3.84
15.19868016242981,-0.84,-1.78,2.92,3.52
15.20815110206604,-0.8,-1.53,2.65,3.16
15.21815800666809,-0.06,-1.62,2.4,2.89
15.228883028030396,0.84,-1.81,2.0,2.82
15.272940874099731,1.62,-1.91,1.62,2.98
15.273205995559692,2.07,-2.15,1.46,3.32
15.273468017578125,2.05,-2.56,1.29,3.52
15.273730039596558,1.51,-3.17,1.11,3.68
15.278100967407227,0.74,-3.88,0.94,4.06
15.287951946258545,0.04,-4.57,0.83,4.64
15.298558950424194,-0.12,-5.14,0.7,5.18
15.308020830154419,0.0,-5.45,0.99,5.53
15.318006992340088,-0.32,-5.53,0.95,5.62
15.328742980957031,-0.84,-5.71,0.53,5.79
15.373059034347534,-1.55,-5.56,-0.27,5.77
15.37332797050476,-2.68,-5.08,-1.5,5.93
15.373592138290405,-3.93,-4.63,-3.48,6.99
15.373853921890259,-5.19,-4.11,-4.8,8.17
15.377847909927368,-6.61,-3.45,-5.55,9.29
15.387809991836548,-7.12,-2.66,-6.63,10.08
15.39835000038147,-7.13,-1.98,-7.62,10.62
15.407814025878906,-7.55,-1.42,-8.91,11.76
15.417915105819702,-7.86,-0.9,-10.05,12.79
15.428593873977661,-8.1,-0.87,-10.58,13.35
15.474209070205688,-8.28,-1.62,-10.52,13.48
15.474483013153076,-8.11,-2.56,-10.65,13.62
15.474744081497192,-7.56,-3.05,-10.33,13.15
15.475008010864258,-7.14,-2.97,-9.89,12.55
15.477681875228882,-7.3,2.58,-9.3,12.1
15.487730979919434,-4.16,0.34,-6.56,7.77
15.498171091079712,-1.49,0.02,-5.74,5.93
15.507993936538696,11.16,17.83,22.16,30.55
15.517782926559448,13.58,22.61,9.08,27.89
15.528437852859497,1.19,15.72,-18.46,24.27
15.574327945709229,-3.02,-0.94,-2.53,4.05
15.574602842330933,-10.02,-10.64,-2.01,14.75
15.574862957000732,-9.65,-5.79,-1.98,11.42
15.575139045715332,-9.53,-3.16,-4.83,11.14
15.577437162399292,-8.49,-0.81,-5.36,10.07
15.58753514289856,-5.91,0.64,-1.55,6.14
15.59811282157898,-2.43,0.01,-0.34,2.45
15.607537031173706,0.82,0.11,-2.67,2.79
15.617563962936401,2.53,0.91,-3.7,4.57
15.628318071365356,1.58,1.24,-2.78,3.42
15.675121068954468,-0.88,1.27,-1.88,2.43
15.675389051437378,-1.78,0.74,-2.2,2.92
15.675649881362915,-1.56,0.21,-2.67,3.09
15.675909996032715,-1.73,-0.11,-2.31,2.88
15.677353143692017,-1.75,-0.16,-1.81,2.52
15.687424898147583,-1.36,0.02,-1.55,2.06
15.697927951812744,-1.03,0.08,-1.33,1.68
15.707397937774658,-1.01,0.04,-0.8,1.28
15.717442035675049,-1.07,0.06,-0.26,1.1
15.728173971176147,-1.09,0.12,0.03,1.09
15.77511715888977,-0.91,0.11,0.25,0.95
15.775387048721313,-0.41,0.2,0.3,0.54
15.775650024414062,0.25,0.24,0.14,0.37
15.77590799331665,0.65,0.2,0.12,0.69
15.777230978012085,0.82,0.11,-0.13,0.83
15.787277936935425,0.85,-0.01,-0.06,0.85
15.79773998260498,0.71,-0.03,0.26,0.75
15.807230949401855,0.74,0.01,0.52,0.9
15.817371129989624,1.02,0.19,0.78,1.29
15.828027963638306,0.97,0.25,1.0,1.41
15.875412940979004,0.92,0.21,1.15,1.48
15.875658988952637,0.92,0.23,1.27,1.58
15.875900030136108,0.91,0.21,1.27,1.57
15.876163959503174,0.84,0.11,1.43,1.66
15.877095937728882,0.87,-0.09,1.45,1.69
15.887156963348389,1.12,-0.32,1.22,1.68
15.897611856460571,1.51,-0.33,1.04,1.86
15.90713906288147,1.6,0.01,0.62,1.71
15.917253971099854,1.52,0.47,0.25,1.61
15.92787504196167,1.66,0.84,0.35,1.89
15.975337982177734,1.8,1.12,0.77,2.25
15.975613832473755,1.82,1.26,1.17,2.5
15.975872039794922,1.87,1.23,1.87,2.91
15.976130962371826,1.68,1.18,2.65,3.35
15.976935148239136,1.67,1.78,2.88,3.77
15.987023115158081,2.05,2.53,2.28,3.97
15.997581005096436,2.1,2.96,2.39,4.34
16.006945848464966,2.5,3.08,2.69,4.79
16.016996145248413,3.18,3.22,2.88,5.36
16.027765035629272,3.72,3.47,3.18,5.99
16.076189041137695,3.96,4.19,3.4,6.69
16.07660984992981,4.18,6.19,3.4,8.2
16.07686996459961,5.71,8.42,3.94,10.9
16.07712697982788,6.72,8.66,5.48,12.25
16.07738494873047,6.15,8.73,6.46,12.48
16.086694955825806,6.39,9.66,8.57,14.4
16.09734606742859,6.57,10.28,8.8,15.04
16.10680103302002,5.81,10.25,7.91,14.19
16.11689591407776,4.65,9.3,6.71,12.37
16.127586126327515,4.45,7.61,1.76,8.98
16.176812887191772,4.85,7.83,-4.78,10.37
16.177080869674683,3.05,11.58,-8.25,14.54
16.177340984344482,-1.8,13.77,-2.73,14.15
16.177604913711548,-4.05,11.63,2.65,12.59
16.177865982055664,-0.63,6.98,0.4,7.01
16.186612844467163,1.97,2.83,0.25,3.45
16.197245836257935,-1.57,1.21,0.69,2.09
16.206652879714966,-5.77,1.62,-4.47,7.47
16.216747999191284,-2.43,5.27,-4.29,7.21
16.227286100387573,3.45,6.18,0.34,7.08
16.27660584449768,8.2,3.51,3.16,9.46
16.276878118515015,10.14,0.17,4.94,11.28
16.277143001556396,7.83,-1.98,4.52,9.25
16.27740216255188,5.67,-2.93,3.3,7.18
16.27766489982605,4.05,-3.69,3.21,6.35
16.28647017478943,2.25,-3.68,3.0,5.25
16.29701590538025,0.58,-3.31,2.6,4.24
16.30656886100769,-0.62,-3.01,2.12,3.73
16.316591024398804,-1.13,-2.83,1.5,3.39
16.32719898223877,-0.9,-2.76,1.01,3.07
16.377331972122192,0.03,-2.82,0.93,2.96
16.37760090827942,1.25,-2.94,0.92,3.32
16.37786602973938,2.09,-3.05,0.94,3.81
16.378129959106445,2.48,-3.31,1.09,4.27
16.378403902053833,2.33,-3.68,1.05,4.48
16.386351823806763,1.75,-4.18,0.83,4.6
16.396914958953857,0.93,-4.96,0.75,5.1
16.406363010406494,0.25,-5.65,0.66,5.69
16.416393041610718,-0.08,-6.18,0.59,6.2
16.427021980285645,-0.09,-6.7,0.66,6.73
16.478193998336792,0.08,-7.11,0.67,7.14
16.478474855422974,-0.14,-7.01,0.45,7.02
16.478744983673096,-0.62,-6.8,0.08,6.82
16.47900414466858,-1.0,-6.78,-0.23,6.85
16.479262113571167,-1.73,-6.18,-1.18,6.52
16.486415147781372,-3.13,-4.91,-2.86,6.48
16.496805906295776,-5.14,-3.3,-5.34,8.11
16.50692915916443,-6.69,-1.42,-7.56,10.19
16.516298055648804,-6.97,0.02,-8.08,10.67
16.52685809135437,-6.87,0.9,-8.08,10.64
16.57800793647766,-7.65,2.01,-9.02,11.99
16.578276872634888,-9.39,2.71,-10.23,14.14
16.578546047210693,-10.49,1.99,-10.22,14.78
16.578808069229126,-10.7,1.04,-9.37,14.26
16.579076051712036,-10.35,0.65,-9.39,13.98
16.5864040851593,-9.37,2.78,-9.66,13.74
16.596601963043213,-3.5,4.22,-7.79,9.52
16.606071949005127,-2.08,-2.71,-7.23,7.99
16.61614489555359,-4.27,2.93,-3.66,6.34
16.626732110977173,11.71,14.44,19.82,27.17
16.67885398864746,17.6,13.73,14.27,26.49
16.679123163223267,3.29,9.3,-10.84,14.65
16.67938494682312,-6.77,0.81,0.34,6.82
16.67967391014099,-13.96,-3.12,0.62,14.31
16.679932832717896,-13.05,-4.71,-1.96,14.01
16.68628716468811,-9.46,-2.61,-4.61,10.84
16.69654393196106,-7.94,-0.75,-7.67,11.06
16.705960988998413,-4.68,1.36,-5.39,7.26
16.715948820114136,-1.61,1.09,-3.11,3.66
16.726529836654663,0.66,0.19,-3.38,3.44
16.735934019088745,1.97,0.38,-3.64,4.15
16.778444051742554,1.26,0.69,-2.72,3.07
16.778714895248413,-0.3,0.82,-2.13,2.3
16.77897596359253,-1.52,0.68,-2.12,2.69
16.779235124588013,-2.14,0.33,-1.32,2.53
16.785810947418213,-2.17,-0.06,-0.57,2.24
16.79633116722107,-1.85,-0.32,-0.46,1.93
16.80577802658081,-1.84,-0.35,-0.44,1.92
16.815852880477905,-1.24,-0.2,-0.57,1.37
16.826494932174683,-0.18,0.07,-0.78,0.8
16.83577299118042,0.41,0.2,-0.91,1.01
16.878732919692993,0.49,0.2,-1.22,1.32
16.87900400161743,0.31,0.07,-1.11,1.15
16.879267930984497,0.01,-0.1,-0.39,0.4
16.879528045654297,-0.13,-0.21,0.24,0.34
16.88559603691101,-0.05,-0.06,0.59,0.59
16.896175146102905,0.12,0.15,0.64,0.66
16.90548801422119,0.21,0.23,0.63,0.7
16.91559386253357,0.34,0.2,0.47,0.61
16.926221132278442,0.51,0.15,0.25,0.58
16.935609102249146,0.48,0.13,0.29,0.57
16.979630947113037,0.54,0.07,0.51,0.74
16.979893922805786,0.85,0.09,0.86,1.21
16.980159997940063,0.95,0.07,1.28,1.59
16.98040795326233,0.95,-0.07,1.64,1.89
16.98538613319397,1.31,-0.23,1.79,2.23
16.996060132980347,1.73,-0.27,1.58,2.35
17.00556206703186,1.68,-0.13,1.13,2.02
17.015496969223022,1.56,0.11,0.85,1.77
17.026142835617065,1.98,0.4,1.0,2.25
17.035462141036987,2.52,0.65,1.2,2.86
17.079243898391724,3.06,0.72,1.26,3.38
17.079514026641846,3.08,0.38,1.96,3.67
17.079778909683228,2.89,0.37,2.68,3.95
17.080039024353027,2.91,0.83,2.54,3.95
17.085449934005737,2.65,1.5,2.02,3.65
17.09580111503601,2.54,2.31,1.63,3.8
17.105342149734497,2.86,3.11,1.84,4.6
17.115386962890625,2.5,3.19,2.2,4.61
17.12593913078308,2.39,3.24,2.34,4.65
17.135320901870728,2.62,3.4,2.83,5.14
17.179497957229614,2.69,3.44,3.47,5.57
17.179764986038208,3.0,3.87,3.94,6.28
17.18002700805664,3.28,4.51,4.32,7.05
17.18028998374939,2.71,6.27,4.36,8.1
17.185116052627563,2.16,9.9,3.67,10.77
17.195745944976807,4.39,12.52,6.58,14.8
17.205762147903442,6.19,12.92,9.42,17.14
17.215277910232544,7.32,13.12,8.13,17.08
17.22582983970642,7.59,12.52,7.97,16.66
17.23521113395691,6.73,10.83,7.29,14.68
17.279927015304565,7.05,9.21,1.6,11.7
17.280195951461792,7.59,9.8,-5.66,13.62
17.280460119247437,3.26,14.78,-7.82,17.03
17.280724048614502,-2.43,17.45,-3.86,18.03
17.284931898117065,-1.4,11.82,-2.21,12.1
17.295636892318726,1.46,4.57,-0.53,4.82
17.305037021636963,-1.04,2.11,0.25,2.36
17.315027952194214,-7.39,1.93,-7.45,10.66
17.32568097114563,-4.31,5.07,-7.44,9.98
17.335039854049683,2.41,5.08,0.3,5.63
17.38027000427246,6.3,2.07,2.79,7.19
17.38053798675537,6.5,0.44,2.68,7.04
17.380810976028442,4.47,-0.27,1.94,4.88
17.381069898605347,3.46,-1.38,1.51,4.01
17.3848979473114,3.06,-2.26,1.29,4.01
17.39533305168152,3.1,-2.89,1.32,4.43
17.40481209754944,3.23,-3.37,1.98,5.07
17.414904832839966,3.04,-4.03,2.94,5.84
17.42551589012146,2.46,-4.53,3.23,6.08
17.43484902381897,1.92,-4.57,2.94,5.76
17.48149609565735,1.91,-4.44,2.83,5.6
17.48182201385498,2.48,-4.31,2.88,5.74
17.482097864151,3.22,-4.18,2.84,5.99
17.482380151748657,3.61,-4.13,2.63,6.08
17.484700918197632,3.4,-4.16,2.17,5.79
17.495228052139282,2.95,-4.31,1.69,5.48
17.50466513633728,2.19,-4.63,1.33,5.29
17.514704942703247,1.46,-5.18,0.98,5.47
17.525393962860107,0.79,-5.89,0.7,5.98
17.534759998321533,0.27,-6.61,0.49,6.63
17.581218004226685,0.0,-7.38,0.56,7.4
17.581485986709595,-0.1,-8.04,0.96,8.09
17.581751108169556,-0.19,-8.41,1.12,8.48
17.58201289176941,-0.99,-8.12,0.26,8.18
17.584547996520996,-2.66,-7.72,-1.19,8.25
17.595139026641846,-4.86,-7.37,-2.69,9.22
17.60449194908142,-7.07,-6.38,-4.48,10.52
17.614641904830933,-8.02,-4.51,-6.39,11.2
17.625293016433716,-8.01,-2.6,-7.31,11.15
17.634609937667847,-8.55,-0.94,-7.71,11.55
17.681698083877563,-10.95,0.7,-8.95,14.15
17.681965112686157,-14.18,2.09,-11.33,18.27
17.682239055633545,-15.21,2.07,-12.14,19.57
17.682501077651978,-13.51,0.79,-10.48,17.11
17.68442702293396,-11.54,0.23,-9.79,15.13
17.694952964782715,-9.44,0.33,-9.85,13.64
17.704285860061646,-7.07,-0.19,-9.54,11.87
17.71450114250183,-5.91,-0.84,-9.38,11.11
17.7252140045166,-8.6,6.12,-8.46,13.52
17.734323978424072,1.5,5.55,-0.17,5.75
17.781922101974487,26.79,2.04,13.67,30.14
17.78219199180603,39.77,18.15,28.5,52.18
17.782452821731567,15.15,26.08,3.66,30.38
17.782714128494263,-6.79,14.7,-16.59,23.18
17.78432011604309,-16.09,-3.1,-5.79,17.37
17.794824838638306,-21.87,-10.15,1.99,24.19
17.804214000701904,-20.18,-4.55,1.67,20.75
17.81433415412903,-11.98,-2.5,-5.08,13.25
17.825010061264038,-5.04,-0.93,-7.3,8.91
17.834285974502563,-1.66,1.39,-5.31,5.73
17.882127046585083,-1.81,1.48,-2.84,3.67
17.882390022277832,0.17,1.22,-3.7,3.89
17.882650136947632,2.98,0.92,-4.36,5.36
17.88291096687317,2.31,0.55,-3.43,4.17
17.88415217399597,-0.82,0.69,-1.99,2.26
17.894685983657837,-2.36,0.56,-1.27,2.73
17.904174089431763,-2.22,0.08,-0.93,2.4
17.914282083511353,-1.67,-0.05,-0.37,1.71
17.92500615119934,-1.37,-0.13,0.4,1.43
17.934201955795288,-1.18,-0.25,0.63,1.36
17.98250699043274,-0.55,-0.22,0.31,0.66
17.982771158218384,0.17,-0.07,-0.26,0.31
17.98303198814392,0.69,0.02,-0.74,1.01
17.983290910720825,0.8,0.03,-0.68,1.05
17.98387312889099,0.58,-0.06,-0.43,0.72
17.994499921798706,0.5,-0.17,-0.31,0.61
18.004178047180176,0.42,-0.15,-0.03,0.44
18.014169931411743,0.19,-0.02,0.24,0.3
18.02466082572937,0.17,0.13,0.49,0.53
18.033978939056396,0.36,0.25,0.82,0.92
18.082942008972168,0.82,0.31,0.99,1.32
18.083230018615723,1.31,0.23,1.14,1.75
18.083492040634155,1.7,0.17,1.25,2.11
18.083912134170532,1.9,0.1,1.18,2.23
18.08417010307312,1.96,0.03,0.99,2.19
18.094303846359253,1.85,-0.2,1.27,2.25
18.10424304008484,1.7,-0.41,1.71,2.44
18.113919973373413,1.45,-0.41,1.84,2.37
18.124590158462524,1.56,-0.34,1.65,2.29
18.133862018585205,1.79,-0.17,1.47,2.32
18.183751821517944,2.11,0.14,1.35,2.5
18.183998823165894,2.11,0.47,0.63,2.25
18.184261083602905,1.59,0.61,0.59,1.8
18.18452000617981,1.54,0.69,0.91,1.91
18.18477702140808,1.69,0.35,1.96,2.61
18.194234132766724,1.5,0.3,3.18,3.52
18.203992128372192,1.75,0.72,2.73,3.32
18.21375298500061,2.11,1.34,1.77,3.06
18.224338054656982,1.77,2.35,0.99,3.1
18.233654975891113,1.64,3.55,0.67,3.96
18.283486127853394,1.2,4.32,1.85,4.85
18.283748865127563,1.56,3.88,2.88,5.07
18.284008979797363,2.43,3.93,3.38,5.72
18.28426504135132,3.02,4.12,3.87,6.4
18.284519910812378,3.24,4.72,3.94,6.94
18.29404902458191,3.13,6.36,3.36,7.84
18.303606033325195,4.43,8.53,3.53,10.23
18.313817977905273,6.34,9.02,5.96,12.53
18.32420802116394,7.04,9.26,6.61,13.37
18.3335599899292,8.31,10.34,6.65,14.83
18.383990049362183,8.53,10.83,7.37,15.63
18.38426184654236,7.51,10.44,7.34,14.8
18.38452696800232,6.82,9.6,4.4,12.57
18.38478684425354,6.52,8.47,-2.15,10.9
18.38504910469055,5.48,10.88,-7.81,14.47
18.39399003982544,1.76,15.44,-7.7,17.34
18.4034321308136,-0.88,15.83,-1.21,15.9
18.413434982299805,-0.52,10.65,1.99,10.84
18.42396903038025,2.21,4.92,0.51,5.41
18.433382987976074,-0.08,3.43,-0.19,3.43
18.48402714729309,-6.71,2.77,-6.52,9.75
18.484295129776,-7.28,5.71,-8.71,12.7
18.484587907791138,-0.49,6.55,-1.3,6.69
18.484889030456543,4.5,3.5,2.68,6.29
18.485172986984253,5.68,0.45,3.37,6.61
18.493741989135742,3.69,-0.94,3.13,4.92
18.50319504737854,2.76,-2.07,2.35,4.17
18.513356924057007,2.51,-3.11,2.43,4.67
18.523804903030396,2.5,-3.69,2.77,5.24
18.53320598602295,2.5,-3.91,2.98,5.51
18.58482813835144,2.07,-4.06,3.47,5.72
18.5850989818573,1.37,-3.93,3.36,5.34
18.585363149642944,0.77,-3.75,2.99,4.85
18.58562207221985,0.79,-3.78,2.93,4.84
18.585885047912598,1.74,-3.89,3.25,5.35
18.593595027923584,3.0,-3.98,3.54,6.11
18.603073835372925,3.74,-4.0,3.55,6.52
18.6132071018219,3.88,-4.19,3.42,6.65
18.62374186515808,3.56,-4.65,3.3,6.72
18.63308095932007,3.0,-5.2,3.02,6.72
18.68479609489441,2.38,-5.91,2.78,6.95
18.68506097793579,1.71,-6.62,2.38,7.23
18.685322999954224,1.06,-7.3,1.88,7.61
18.685588121414185,0.73,-7.94,1.64,8.14
18.685849905014038,0.43,-8.34,1.65,8.51
18.693447828292847,0.02,-8.8,1.86,8.99
18.702924013137817,-0.96,-9.11,2.0,9.37
18.713027954101562,-2.19,-9.06,0.62,9.34
18.72360110282898,-3.25,-8.9,-1.05,9.53
18.73301601409912,-4.48,-8.03,-2.66,9.57
18.785760164260864,-6.19,-6.04,-5.78,10.4
18.786030054092407,-7.89,-3.39,-8.51,12.08
18.786300897598267,-8.35,-1.34,-8.38,11.9
18.786561965942383,-8.4,0.19,-8.0,11.6
18.786824941635132,-9.06,1.56,-9.05,12.9
18.793301820755005,-9.97,2.23,-10.38,14.56
18.80290913581848,-9.83,1.93,-10.5,14.51
18.812860012054443,-9.21,1.59,-9.83,13.56
18.823405981063843,-9.7,1.7,-10.27,14.22
18.832783937454224,-10.41,1.91,-11.02,15.27
18.88582491874695,-9.37,7.38,-11.0,16.22
18.886099100112915,-1.0,3.52,-8.04,8.83
18.88636612892151,6.32,5.47,-0.16,8.35
18.886629819869995,27.72,20.59,35.22,49.32
18.886890172958374,18.19,21.62,1.76,28.3
18.893136024475098,2.92,9.39,-14.49,17.51
18.90267300605774,-5.97,-3.2,1.75,6.99
18.912750959396362,-18.4,-7.25,0.78,19.79
18.923300981521606,-18.14,-4.82,-0.58,18.77
18.93267297744751,-13.34,-1.74,-6.79,15.06
18.985181093215942,-8.75,-0.09,-7.57,11.57
18.98546290397644,-4.38,1.59,-4.04,6.16
18.985727071762085,-1.12,0.59,-2.88,3.14
18.985990047454834,2.15,0.15,-4.38,4.88
18.986248016357422,3.68,0.81,-4.87,6.15
18.9929940700531,1.74,1.13,-3.09,3.72
19.002474069595337,-0.75,1.02,-2.04,2.4
19.012614965438843,-1.71,0.65,-1.69,2.49
19.023115873336792,-1.44,0.29,-1.46,2.07
19.032531023025513,-1.28,-0.11,-0.99,1.62
19.085950136184692,-1.99,-0.37,-0.3,2.04
19.086218118667603,-2.08,-0.39,0.09,2.11
19.086477041244507,-0.77,-0.09,-0.23,0.8
19.086736917495728,0.26,0.17,-0.59,0.66
19.086995840072632,0.44,0.11,-0.57,0.72
19.09280800819397,0.25,-0.04,-0.5,0.56
19.102391004562378,0.26,-0.23,-0.29,0.45
19.11239790916443,0.34,-0.33,0.21,0.51
19.12288999557495,0.3,-0.2,0.5,0.61
19.132394075393677,0.22,0.15,0.68,0.73
19.186105966567993,0.31,0.39,0.88,1.01
19.186378002166748,0.62,0.32,1.06,1.26
19.186645984649658,0.95,0.07,1.24,1.56
19.186917066574097,1.42,-0.06,1.39,1.98
19.187175989151,1.91,-0.02,1.42,2.38
19.19269108772278,2.09,0.01,1.47,2.55
19.202162981033325,1.71,-0.16,1.62,2.36
19.212162971496582,1.07,-0.35,1.51,1.88
19.22262406349182,0.71,-0.4,0.85,1.17
19.23213791847229,0.78,-0.07,0.07,0.78
19.286246061325073,1.2,0.48,-0.26,1.31
19.286510944366455,1.72,0.86,-0.28,1.94
19.28677487373352,1.74,0.95,-0.16,1.98
19.287034034729004,1.15,0.89,0.21,1.46
19.287291049957275,0.6,0.8,1.12,1.5
19.29257082939148,0.63,0.8,1.51,1.82
19.302019834518433,0.81,0.94,2.06,2.4
19.31209111213684,1.01,1.18,2.13,2.63
19.322580099105835,1.68,1.6,1.99,3.05
19.33212113380432,1.7,2.1,2.4,3.61
19.38631510734558,1.68,1.61,2.31,3.27
19.386584043502808,1.72,1.56,2.15,3.16
19.38684916496277,1.71,1.59,2.01,3.08
19.387108087539673,2.01,1.83,1.89,3.31
19.387367963790894,2.6,2.17,2.18,4.02
19.39238715171814,3.35,2.47,2.65,4.93
19.40190291404724,3.9,3.04,3.1,5.83
19.411947011947632,4.05,4.92,3.14,7.1
19.42251706123352,5.04,7.94,2.9,9.84
19.43188786506653,6.56,9.22,4.78,12.28
19.487641096115112,6.23,9.47,6.93,13.28
19.488227128982544,5.42,9.77,8.13,13.81
19.48849081993103,4.14,10.29,8.8,14.15
19.488754987716675,2.05,10.61,9.08,14.11
19.48903489112854,0.43,9.58,6.21,11.42
19.492334127426147,2.38,8.02,-0.88,8.41
19.50188708305359,7.24,9.75,-6.27,13.66
19.5118510723114,6.73,14.58,-4.59,16.7
19.522578954696655,1.68,14.84,-0.43,14.94
19.531795024871826,1.0,11.52,-0.67,11.58
19.587764024734497,2.5,7.12,-1.49,7.69
19.588349103927612,1.24,4.64,0.71,4.85
19.58861494064331,-5.0,3.11,-2.73,6.49
19.588876962661743,-6.06,4.18,-7.15,10.26
19.58916211128235,0.36,6.01,-1.33,6.16
19.592092037200928,5.32,3.81,2.82,7.12
19.601539850234985,6.62,1.17,3.29,7.48
19.611680030822754,4.65,-0.27,2.67,5.36
19.670634984970093,3.01,-1.61,1.71,3.81
19.670907974243164,2.5,-2.82,1.44,4.03
19.671699047088623,2.25,-3.67,1.54,4.57
19.671963930130005,2.07,-3.88,1.92,4.79
19.67222809791565,1.51,-3.93,2.35,4.82
19.672515153884888,1.0,-3.89,2.14,4.55
19.681398153305054,0.93,-3.76,1.79,4.26
19.692041158676147,1.44,-3.86,1.81,4.49
19.701491117477417,2.11,-4.0,1.94,4.92
19.711530923843384,2.45,-3.98,1.94,5.06
19.772303819656372,2.59,-4.11,2.09,5.28
19.772567987442017,2.52,-4.55,2.28,5.67
19.772827863693237,2.34,-5.1,2.38,6.09
19.77308702468872,2.01,-5.75,2.39,6.54
19.773345947265625,1.49,-6.4,2.35,6.97
19.773602962493896,1.19,-7.09,2.57,7.63
19.781409978866577,1.06,-7.62,2.8,8.18
19.7917799949646,0.81,-7.92,2.88,8.46
19.801208019256592,0.46,-8.3,3.0,8.83
19.811372995376587,-0.07,-8.44,3.24,9.04
19.872164964675903,-0.52,-8.43,2.97,8.95
19.872431993484497,-1.28,-8.32,2.0,8.65
19.87270712852478,-3.19,-7.83,-0.04,8.45
19.872968912124634,-5.61,-7.13,-2.3,9.35
19.873229026794434,-7.63,-6.0,-4.53,10.71
19.873489141464233,-8.37,-4.65,-5.75,11.16
19.88106894493103,-8.08,-3.32,-5.83,10.5
19.891572952270508,-7.82,-1.74,-6.47,10.29
19.90103793144226,-8.21,0.37,-8.16,11.58
19.911057949066162,-9.11,2.31,-9.5,13.36
19.97204899787903,-9.39,3.32,-10.17,14.23
19.972313165664673,-8.41,3.43,-9.98,13.49
19.97257399559021,-6.87,3.22,-9.41,12.08
19.97283387184143,-6.52,5.5,-9.68,12.9
19.973093032836914,-2.96,8.22,-6.69,11.0
19.973353147506714,1.86,-1.27,-10.67,10.9
19.980852842330933,2.96,11.94,-1.72,12.42
19.991464853286743,20.27,25.5,16.83,36.66
20.00092387199402,10.78,17.43,-2.83,20.68
20.01093888282776,-7.84,-2.5,-1.82,8.42
20.072262048721313,-19.52,-10.33,2.67,22.24
20.073344945907593,-18.72,-7.87,-4.29,20.75
20.073611974716187,-13.23,-2.03,-7.47,15.32
20.073871850967407,-9.18,-0.13,-5.06,10.48
20.07413101196289,-3.82,1.65,-2.71,4.96
20.074390172958374,0.71,1.79,-1.43,2.39
20.08073902130127,4.45,1.44,-1.97,5.07
20.09168791770935,5.46,1.39,-2.14,6.02
20.100741147994995,2.44,0.79,-2.27,3.42
20.110820055007935,-0.72,0.32,-3.25,3.34
20.121607065200806,-1.72,0.27,-3.37,3.79
20.173915147781372,-1.48,0.37,-2.1,2.59
20.17417883872986,-1.2,0.01,-0.82,1.45
20.174440145492554,-1.24,-0.2,-0.3,1.29
20.174700021743774,-0.72,-0.13,-0.43,0.84
20.174957990646362,0.58,-0.01,-0.77,0.96
20.180605173110962,1.3,0.11,-0.72,1.49
20.191293954849243,0.64,0.17,0.02,0.66
20.200565099716187,-0.23,0.16,0.42,0.5
20.210676908493042,-0.6,0.14,0.46,0.76
20.221351861953735,-0.5,0.18,0.32,0.62
20.27343487739563,0.01,0.23,0.14,0.26
20.273682832717896,0.58,0.24,0.14,0.64
20.273941040039062,0.86,0.2,0.11,0.88
20.274199962615967,1.19,0.05,0.33,1.23
20.274467945098877,1.71,0.01,0.98,1.97
20.28054904937744,2.23,0.14,1.54,2.71
20.291172981262207,2.21,0.34,1.77,2.85
20.300484895706177,1.72,0.24,1.83,2.52
20.31050705909729,1.08,-0.23,1.89,2.18
20.32123589515686,1.1,-0.52,1.98,2.32
20.374775171279907,1.57,-0.49,1.79,2.43
20.375046014785767,1.77,-0.13,1.44,2.28
20.375311136245728,1.52,0.3,0.9,1.79
20.375574827194214,1.16,0.61,0.29,1.34
20.375838041305542,1.05,0.81,0.06,1.32
20.38024401664734,1.16,0.9,0.51,1.55
20.39090085029602,1.22,0.8,1.13,1.84
20.400423049926758,1.46,0.75,1.55,2.25
20.410387992858887,1.58,0.94,1.92,2.65
20.421065092086792,1.81,1.29,1.99,2.98
20.474613904953003,2.08,2.03,1.95,3.49
20.474878072738647,1.79,2.48,2.82,4.16
20.475141048431396,2.09,2.02,2.77,4.01
20.475404977798462,2.48,2.15,2.8,4.31
20.475670099258423,2.46,2.21,2.67,4.25
20.48025894165039,2.43,2.4,2.7,4.35
20.490779161453247,2.68,2.63,3.02,4.81
20.50027894973755,3.11,2.83,3.29,5.33
20.510409116744995,3.55,3.11,3.8,6.05
20.520925998687744,3.66,4.26,4.11,6.95
20.57477116584778,4.09,6.97,3.87,8.96
20.575032949447632,5.81,9.13,5.17,11.99
20.57529902458191,6.28,9.77,7.49,13.81
20.57557201385498,5.71,10.02,8.65,14.41
20.575835943222046,4.63,10.16,9.34,14.55
20.58031916618347,2.13,9.49,9.69,13.72
20.590665102005005,1.87,8.13,3.62,9.09
20.60016703605652,5.95,8.69,-4.5,11.45
20.610347032546997,7.5,13.4,-7.39,17.04
20.620848894119263,3.8,16.58,-3.35,17.33
20.675183057785034,0.85,14.79,1.34,14.87
20.675447940826416,0.89,8.49,0.22,8.53
20.675712823867798,2.13,4.4,-0.22,4.89
20.675981998443604,-0.75,3.82,0.42,3.91
20.67625117301941,-6.8,2.92,-6.05,9.55
20.679960012435913,-6.78,5.64,-7.05,11.29
20.690286874771118,-0.16,6.17,-0.9,6.23
20.699996948242188,5.4,2.81,2.56,6.6
20.71009397506714,7.19,0.13,3.16,7.85
20.72072696685791,5.44,-1.17,2.75,6.2
20.775667905807495,3.89,-2.31,2.14,5.0
20.775933980941772,3.17,-3.19,2.0,4.92
20.776196002960205,2.6,-3.49,2.04,4.8
20.776456117630005,1.5,-3.29,1.99,4.12
20.776716947555542,0.28,-3.0,2.12,3.68
20.779899835586548,-0.23,-2.82,2.2,3.58
20.790127992630005,0.03,-2.86,2.2,3.6
20.7998149394989,0.8,-3.29,2.31,4.09
20.809949159622192,1.65,-3.57,2.09,4.45
20.82054305076599,2.23,-3.63,1.86,4.64
20.876368045806885,2.42,-3.71,1.76,4.76
20.876636028289795,2.26,-3.89,1.66,4.79
20.876900911331177,1.91,-4.31,1.61,4.98
20.877166986465454,1.44,-5.08,1.62,5.52
20.877432107925415,0.8,-6.03,1.41,6.24
20.879698038101196,0.46,-6.86,1.27,6.99
20.89008903503418,0.4,-7.67,1.47,7.81
20.899723052978516,0.66,-8.34,2.13,8.63
20.909728050231934,0.95,-8.75,2.38,9.11
20.92042899131775,0.49,-9.07,2.22,9.35
20.976441144943237,-0.19,-8.75,2.05,8.98
20.976710081100464,-0.9,-8.08,1.24,8.22
20.976971864700317,-2.02,-7.57,0.04,7.83
20.977236032485962,-4.24,-7.02,-1.39,8.31
20.97749900817871,-6.51,-5.96,-3.69,9.56
20.979665994644165,-7.93,-4.71,-5.9,10.94
20.98995089530945,-9.03,-3.35,-6.65,11.7
20.99941897392273,-9.13,-2.11,-6.34,11.31
21.009673833847046,-9.31,-0.95,-6.41,11.34
21.020201921463013,-10.44,0.35,-7.79,13.03
21.077114820480347,-11.23,1.5,-8.7,14.28
21.07738709449768,-10.67,2.04,-8.96,14.08
21.07764983177185,-8.8,2.21,-8.98,12.76
21.077915906906128,-6.77,2.19,-8.38,10.99
21.0781991481781,-5.59,1.8,-8.14,10.03
21.079469919204712,-5.46,3.2,-9.09,11.07
21.090091943740845,-5.31,7.93,-7.02,11.84
21.099369049072266,0.8,-3.04,-9.09,9.61
21.109505891799927,16.61,10.33,6.42,20.58
21.1201069355011,34.01,22.92,29.7,50.63
21.17812705039978,6.59,18.13,-5.95,20.18
21.178395986557007,-7.49,2.27,-7.86,11.09
21.178681135177612,-14.41,-8.0,5.34,17.32
21.17913508415222,-19.51,-6.3,0.51,20.5
21.17940402030945,-12.18,-1.78,-5.26,13.38
21.179666996002197,-8.06,0.65,-4.85,9.42
21.19004797935486,-5.02,0.89,-4.09,6.53
21.19922184944153,-0.83,1.79,-2.91,3.51
21.209283113479614,2.18,0.83,-2.79,3.63
21.219926118850708,3.92,0.17,-3.88,5.51
21.278506994247437,2.13,0.27,-4.24,4.75
21.278960943222046,-1.58,0.4,-3.67,4.01
21.279224157333374,-3.99,0.29,-2.79,4.87
21.27948784828186,-4.07,0.41,-1.84,4.48
21.279747009277344,-2.71,0.39,-1.12,2.95
21.280009031295776,-1.56,0.05,-0.72,1.71
21.289849996566772,-1.0,-0.06,-0.59,1.16
21.299118995666504,-0.35,0.0,-0.5,0.61
21.309175968170166,0.48,0.04,-0.41,0.63
21.319789171218872,0.69,0.01,-0.3,0.75
21.37904715538025,0.25,0.0,-0.49,0.55
21.379312992095947,-0.08,-0.05,-0.67,0.67
21.379574060440063,-0.11,-0.15,-0.49,0.52
21.37983798980713,-0.05,-0.21,-0.29,0.36
21.380101919174194,0.01,-0.15,-0.11,0.18
21.380362033843994,0.05,0.02,0.11,0.12
21.389765977859497,0.21,0.17,0.45,0.52
21.398942947387695,0.54,0.26,0.77,0.97
21.40903902053833,1.11,0.34,0.97,1.51
21.419628858566284,1.52,0.29,1.1,1.89
21.47882604598999,1.46,0.15,1.09,1.82
21.479079961776733,1.29,0.04,1.09,1.68
21.479338884353638,1.36,0.0,1.17,1.79
21.479598999023438,1.6,0.02,1.63,2.28
21.479859113693237,1.82,-0.15,2.21,2.86
21.480123043060303,2.16,-0.38,2.5,3.32
21.48961615562439,2.56,-0.31,1.93,3.22
21.498775005340576,2.6,0.12,0.71,2.69
21.508886098861694,2.26,0.58,0.1,2.33
21.519416093826294,1.73,0.77,0.28,1.91
21.57910394668579,1.58,0.67,0.8,1.89
21.57936692237854,1.71,0.6,1.12,2.13
21.579625844955444,2.0,0.75,1.3,2.5
21.57988405227661,1.99,0.99,1.61,2.74
21.5801420211792,2.11,1.13,1.4,2.77
21.580399990081787,2.48,1.22,1.78,3.28
21.58949589729309,2.63,1.42,2.18,3.69
21.598660945892334,2.45,1.59,1.87,3.46
21.608767986297607,2.21,1.85,0.81,2.99
21.619285821914673,1.42,2.3,0.66,2.78
21.679365873336792,0.89,2.43,1.16,2.83
21.67966103553772,1.11,2.76,1.66,3.4
21.679927110671997,1.52,3.75,2.44,4.72
21.6801860332489,1.77,6.62,2.82,7.41
21.68045210838318,3.81,9.09,3.77,10.55
21.680712938308716,5.53,9.34,6.4,12.6
21.688995122909546,5.88,10.03,7.25,13.7
21.69859504699707,6.42,11.24,7.47,14.94
21.709162950515747,7.55,12.21,8.06,16.46
21.719064950942993,7.98,12.77,7.7,16.91
21.779753923416138,6.5,11.52,6.55,14.76
21.780017137527466,5.14,8.8,3.34,10.72
21.780282974243164,5.9,7.25,-2.62,9.7
21.780544996261597,5.0,10.26,-7.05,13.41
21.78080916404724,0.28,14.1,-4.6,14.83
21.781072854995728,-1.91,13.11,-0.34,13.25
21.788760900497437,-0.26,7.2,0.91,7.26
21.7983181476593,0.87,3.99,1.24,4.26
21.808472871780396,-3.06,2.88,-0.66,4.25
21.818969011306763,-7.1,3.41,-7.27,10.71
21.88031315803528,-1.82,6.24,-3.26,7.27
21.880582094192505,5.02,4.62,1.78,7.05
21.880846977233887,8.14,1.64,2.76,8.75
21.88110613822937,7.25,0.06,2.68,7.72
21.88136601448059,4.94,-0.8,1.6,5.25
21.881632089614868,3.54,-1.9,0.86,4.1
21.88872504234314,2.54,-2.75,1.11,3.9
21.89825415611267,1.54,-3.06,1.79,3.86
21.908302068710327,0.63,-3.24,2.63,4.22
21.918848037719727,-0.24,-3.55,2.91,4.59
21.981305837631226,-0.57,-3.78,2.72,4.69
21.98157000541687,-0.02,-3.88,2.6,4.67
21.98183298110962,0.94,-3.95,2.41,4.72
21.98209309577942,1.72,-3.98,2.2,4.86
21.98235297203064,2.02,-4.09,2.14,5.03
21.98261284828186,2.01,-4.24,2.06,5.12
21.988523960113525,1.78,-4.55,2.07,5.3
21.99810290336609,1.31,-5.27,1.98,5.78
22.008160829544067,0.62,-6.11,1.72,6.37
22.01859211921692,0.17,-6.87,1.84,7.11
22.081093072891235,-0.04,-7.66,2.07,7.93
22.081363916397095,-0.3,-8.13,2.14,8.41
22.081629037857056,-0.85,-8.35,2.12,8.65
22.08189082145691,-1.33,-8.49,2.11,8.84
22.082162141799927,-1.74,-8.32,1.41,8.61
22.08242917060852,-2.58,-8.11,0.36,8.51
22.088364839553833,-3.94,-7.46,-1.06,8.5
22.097984075546265,-5.72,-6.2,-2.26,8.73
22.10794997215271,-7.27,-4.99,-3.07,9.33
22.118560075759888,-7.0,-3.53,-3.81,8.71
22.18112587928772,-5.56,-1.5,-3.88,6.94
22.18139100074768,-4.76,0.18,-4.14,6.31
22.181651830673218,-5.94,2.19,-5.26,8.23
22.1819109916687,-8.69,4.81,-7.93,12.7
22.182173013687134,-10.81,6.93,-11.0,16.9
22.18243384361267,-11.2,7.29,-12.1,18.02
22.188127994537354,-11.6,5.48,-12.11,17.64
22.197659969329834,-11.3,0.76,-9.76,14.95
22.207690954208374,-11.32,-2.83,-7.88,14.07
22.218189001083374,-11.63,2.63,-7.21,13.93
22.28119683265686,-7.12,2.0,-5.32,9.11
22.281471967697144,7.4,4.62,0.3,8.72
22.281734943389893,29.05,15.28,28.86,43.7
22.281995058059692,17.15,12.38,10.12,23.44
22.28226399421692,3.33,11.14,-8.59,14.45
22.282531023025513,-4.7,5.43,-5.6,9.1
22.287954092025757,-9.37,-1.78,0.36,9.54
22.297467947006226,-10.73,-0.93,-0.44,10.77
22.307467937469482,-7.72,-2.18,-6.73,10.47
22.318206071853638,-4.41,1.05,-8.07,9.25
22.381134033203125,-3.76,1.27,-7.45,8.44
22.381399869918823,-2.68,0.54,-6.52,7.06
22.381664991378784,-2.76,-0.04,-5.22,5.9
22.381927967071533,-2.54,-0.43,-4.68,5.34
22.38218903541565,-1.96,0.06,-3.68,4.16
22.382462978363037,-2.13,0.7,-2.35,3.24
22.38795304298401,-2.38,0.82,-0.67,2.6
22.397346019744873,-2.23,0.52,0.79,2.42
22.407191038131714,-1.72,0.29,0.79,1.91
22.418043851852417,-0.89,0.19,0.21,0.93
22.481492042541504,-0.26,-0.05,0.24,0.35
22.481757879257202,0.34,-0.25,0.63,0.75
22.482023000717163,0.76,-0.18,0.41,0.88
22.482285976409912,1.09,0.04,-0.75,1.32
22.48254704475403,1.21,0.17,-1.57,1.98
22.482824087142944,1.11,0.16,-1.85,2.16
22.487787008285522,0.81,0.01,-1.63,1.82
22.4973361492157,0.26,-0.03,-1.07,1.1
22.50716805458069,-0.43,0.07,-0.55,0.7
22.517874002456665,-1.03,0.14,-0.02,1.03
22.581542015075684,-1.16,0.19,0.51,1.28
22.581809043884277,-0.55,0.21,0.8,0.99
22.582072019577026,0.52,0.17,1.16,1.28
22.582331895828247,1.55,0.15,1.54,2.19
22.58259081840515,2.34,0.13,1.61,2.84
22.582849979400635,2.82,-0.02,1.52,3.2
22.58762502670288,2.87,-0.36,1.53,3.27
22.59714913368225,2.51,-0.61,1.75,3.12
22.60717797279358,2.17,-0.56,1.98,2.99
22.617846965789795,1.75,-0.27,1.59,2.37
22.68149209022522,0.94,-0.01,0.62,1.12
22.681759119033813,0.19,0.1,-0.06,0.22
22.682020902633667,0.14,0.09,-0.05,0.17
22.68228316307068,0.61,0.04,0.14,0.62
22.682542085647583,1.41,-0.01,0.84,1.64
22.682801008224487,2.49,-0.06,1.94,3.15
22.687504053115845,3.36,-0.11,2.55,4.21
22.69701886177063,3.75,-0.28,2.84,4.71
22.707304000854492,3.36,-0.39,3.47,4.84
22.717653036117554,3.12,0.23,3.05,4.36
22.781942129135132,2.72,0.97,1.9,3.45
22.78221106529236,1.52,1.52,1.0,2.37
22.782478094100952,1.03,1.93,0.85,2.34
22.782752990722656,1.52,2.84,1.1,3.4
22.78301215171814,1.89,3.65,2.34,4.72
22.78327703475952,2.05,3.84,2.95,5.25
22.787348985671997,2.35,4.31,3.64,6.11
22.79686713218689,2.13,5.17,3.94,6.84
22.80722689628601,2.69,7.63,3.39,8.77
22.817543983459473,4.74,9.49,4.22,11.41
22.88079595565796,6.13,10.29,5.54,13.19
22.88106894493103,7.04,11.9,6.39,15.23
22.881343126296997,8.3,13.71,7.57,17.72
22.88161015510559,8.16,13.47,7.71,17.53
22.88188099861145,6.86,11.51,6.87,15.05
22.88215184211731,6.56,9.62,3.47,12.14
22.887215852737427,8.44,9.12,-2.34,12.64
22.89669895172119,7.69,12.43,-5.01,15.45
22.90717601776123,-0.85,16.07,-5.34,16.95
22.91747784614563,-5.19,14.43,-5.19,16.18
22.99426293373108,1.22,7.48,-1.39,7.7
22.994532823562622,2.15,3.6,2.6,4.93
22.994797945022583,-6.25,3.13,-5.56,8.93
22.995064973831177,-5.37,5.29,-7.34,10.52
22.995332956314087,0.52,5.31,1.09,5.44
22.99558997154236,4.24,2.31,3.25,5.82
22.996526956558228,5.31,0.58,2.39,5.85
22.996785879135132,4.31,-0.69,1.3,4.55
23.006580114364624,3.88,-2.09,0.87,4.49
23.017181158065796,3.82,-3.3,0.81,5.11
23.094297170639038,4.52,-3.69,1.24,5.96
23.094563961029053,5.69,-3.22,2.07,6.85
23.094828844070435,6.13,-3.03,2.44,7.26
23.095100164413452,5.21,-3.66,2.67,6.9
23.09536099433899,3.96,-4.03,2.64,6.23
23.095623016357422,3.67,-3.94,2.02,5.75
23.09665298461914,3.91,-4.03,1.66,5.85
23.096914052963257,4.3,-3.93,1.78,6.09
23.106389045715332,4.61,-4.08,2.04,6.48
23.117099046707153,4.69,-4.46,1.78,6.71
23.194748163223267,4.15,-4.96,1.18,6.57
23.19501495361328,3.23,-5.68,0.71,6.57
23.195281982421875,2.45,-6.47,0.46,6.93
23.195555925369263,2.09,-7.19,0.64,7.51
23.19598889350891,2.01,-7.96,1.03,8.27
23.196253061294556,1.5,-8.86,1.27,9.07
23.19704508781433,0.0,-9.34,0.91,9.38
23.19730496406555,-1.4,-9.58,0.15,9.68
23.20635485649109,-2.04,-9.7,-0.53,9.92
23.216917991638184,-2.92,-9.23,-1.66,9.82
23.295180082321167,-4.76,-8.65,-3.01,10.32
23.295461893081665,-6.72,-7.24,-4.64,10.91
23.29589295387268,-7.27,-5.4,-4.97,10.33
23.29615807533264,-6.8,-3.63,-4.63,8.99
23.296416997909546,-6.52,-1.8,-5.07,8.45
23.29668116569519,-7.56,-0.61,-6.02,9.68
23.297455072402954,-9.72,0.02,-7.24,12.12
23.297716856002808,-11.97,0.93,-8.38,14.64
23.306180000305176,-13.2,2.26,-9.19,16.24
23.316730976104736,-13.13,3.16,-9.01,16.23
23.395990133285522,-12.34,2.74,-8.62,15.29
23.39628291130066,-11.31,2.0,-8.65,14.37
23.396548986434937,-11.57,6.21,-8.44,15.6
23.39681315422058,-7.18,4.53,-7.41,11.26
23.397079944610596,7.03,-0.87,-6.69,9.74
23.397351026535034,36.23,18.33,19.86,45.19
23.398144960403442,27.76,28.58,20.03,44.59
23.398410081863403,5.59,12.94,-6.93,15.7
23.40607500076294,-5.95,-4.79,-4.55,8.89
23.416520833969116,-18.11,-5.17,2.57,19.0
23.495246171951294,-25.07,-2.33,-2.32,25.28
23.49571204185486,-17.11,1.26,-4.06,17.63
23.495975971221924,-7.73,-0.92,-4.16,8.82
23.496237993240356,-3.12,-1.25,-4.8,5.85
23.496506929397583,-2.16,-0.35,-4.23,4.76
23.4967679977417,-0.99,-0.45,-5.08,5.19
23.497596979141235,1.53,0.45,-6.56,6.75
23.49785804748535,2.17,1.38,-5.03,5.64
23.50664210319519,0.89,1.28,-1.8,2.38
23.516553163528442,-0.17,0.64,-0.24,0.7
23.595937967300415,-0.64,0.09,0.09,0.65
23.596209049224854,-1.03,-0.16,0.71,1.26
23.596472024917603,-0.83,-0.15,1.4,1.63
23.59673810005188,-0.03,0.16,1.66,1.66
23.596999883651733,0.88,0.46,0.72,1.22
23.59726095199585,1.44,0.35,-0.81,1.68
23.598056077957153,1.22,-0.22,-1.69,2.09
23.598335027694702,0.43,-0.79,-1.43,1.68
23.60570788383484,-0.07,-0.77,-0.5,0.92
23.616257905960083,-0.11,-0.34,0.25,0.43
23.695413827896118,0.1,0.1,0.46,0.48
23.695680856704712,0.24,0.42,0.57,0.74
23.69592785835266,0.24,0.45,0.59,0.77
23.69619107246399,0.41,0.41,0.37,0.68
23.696451902389526,0.83,0.38,0.21,0.93
23.696708917617798,1.02,0.39,0.35,1.14
23.697500944137573,0.86,0.31,0.61,1.09
23.697759866714478,0.69,0.28,0.93,1.19
23.705533027648926,0.64,0.19,1.16,1.33
23.71612811088562,0.49,0.11,1.42,1.5
23.7953679561615,0.22,0.03,1.4,1.41
23.795639991760254,0.02,-0.05,1.08,1.08
23.795902967453003,-0.01,-0.01,0.56,0.56
23.796162843704224,0.2,0.44,0.24,0.53
23.796422958374023,0.66,0.87,0.23,1.11
23.79667901992798,1.24,1.13,0.71,1.82
23.797459840774536,1.64,1.52,1.42,2.64
23.797716856002808,2.16,1.82,1.97,3.44
23.80537486076355,2.12,1.63,3.01,4.02
23.816038846969604,1.66,1.28,2.96,3.62
23.895032167434692,1.23,1.0,2.23,2.73
23.895300149917603,0.88,1.04,1.68,2.16
23.895565032958984,1.13,1.42,1.59,2.41
23.895828008651733,1.62,1.94,1.71,3.05
23.896086931228638,2.04,2.34,2.04,3.71
23.896342039108276,2.42,2.53,2.74,4.44
23.89711594581604,2.96,2.74,3.51,5.34
23.89737296104431,3.54,3.18,3.9,6.15
23.90522789955139,4.06,4.04,4.28,7.15
23.915783166885376,3.97,5.82,4.7,8.46
23.99514603614807,4.63,8.95,5.21,11.34
23.995415925979614,6.57,10.66,7.9,14.8
23.995681047439575,6.85,10.9,9.39,15.93
23.995944023132324,6.52,10.97,8.9,15.55
23.99620795249939,5.12,10.03,8.45,14.07
23.996465921401978,3.76,8.92,4.88,10.84
23.99725890159607,4.61,9.95,-1.58,11.07
23.997519969940186,3.31,14.44,-4.46,15.47
24.00543189048767,-1.87,16.59,-2.81,16.92
24.015721082687378,-4.26,14.85,-0.91,15.47
24.09614396095276,-2.66,10.72,-0.27,11.04
24.096415996551514,2.17,5.59,0.38,6.0
24.096680879592896,-0.51,5.09,0.01,5.11
24.096948862075806,-7.28,5.13,-7.26,11.49
24.097228050231934,-2.81,7.69,-7.18,10.88
24.097488164901733,5.04,8.02,0.68,9.49
24.098291158676147,9.88,4.87,3.46,11.54
24.098552942276,10.3,2.58,3.6,11.21
24.10501003265381,6.96,1.08,2.99,7.65
24.115571975708008,4.81,-0.55,2.21,5.32
24.196036100387573,4.12,-1.83,1.85,4.87
24.19631600379944,3.52,-2.56,2.01,4.79
24.19658589363098,2.85,-2.87,2.27,4.63
24.19684910774231,2.47,-2.63,2.58,4.43
24.197093963623047,2.47,-2.23,2.56,4.19
24.197360038757324,2.79,-2.47,2.44,4.45
24.198158025741577,2.78,-3.01,2.09,4.59
24.198421955108643,2.67,-3.3,1.67,4.56
24.204782009124756,2.69,-3.2,1.41,4.41
24.215378999710083,2.56,-3.12,1.24,4.22
24.296442985534668,2.32,-3.35,1.08,4.21
24.296715021133423,1.91,-3.99,0.98,4.53
24.296980142593384,1.32,-4.74,0.72,4.97
24.29724097251892,0.73,-5.41,0.42,5.47
24.297506093978882,0.12,-6.06,0.06,6.06
24.29776692390442,-0.33,-6.7,-0.06,6.7
24.29857897758484,-0.98,-7.05,-0.28,7.12
24.298841953277588,-1.69,-6.96,-0.76,7.2
24.30467391014099,-2.64,-6.92,-1.78,7.61
24.31526017189026,-3.76,-6.99,-2.83,8.42
24.396815061569214,-4.32,-6.66,-4.31,9.03
24.397094011306763,-4.88,-5.48,-5.94,9.44
24.397373914718628,-6.25,-4.14,-7.45,10.56
24.39763593673706,-7.46,-2.96,-8.27,11.52
24.3979070186615,-8.0,-1.87,-8.88,12.09
24.39816689491272,-8.66,-1.23,-10.1,13.36
24.398958921432495,-9.27,-1.42,-11.03,14.47
24.399229049682617,-9.5,-2.17,-10.94,14.65
24.404515027999878,-9.56,-2.57,-10.96,14.76
24.41507601737976,-9.58,-2.55,-11.09,14.87
24.424453020095825,-9.6,-2.64,-10.74,14.64
24.497010946273804,-10.03,-0.12,-11.17,15.01
24.497299909591675,-6.17,5.24,-6.76,10.54
24.49756407737732,-1.44,-0.36,-7.41,7.55
24.497828006744385,13.11,18.47,23.4,32.56
24.498087167739868,19.11,25.01,16.01,35.31
24.498883962631226,3.11,17.03,-17.83,24.85
24.499145984649658,-2.95,-2.1,-2.67,4.49
24.504354000091553,-12.96,-6.93,3.51,15.1
24.514937162399292,-16.66,-3.83,-7.37,18.61
24.524226903915405,-12.47,-1.31,-9.46,15.7
24.59687113761902,-10.72,0.03,-6.11,12.33
24.59713912010193,-6.78,1.27,-5.49,8.81
24.597400903701782,-2.31,0.99,-5.41,5.96
24.597661018371582,1.42,0.06,-4.6,4.81
24.597921133041382,3.33,0.55,-3.07,4.56
24.59872603416443,2.69,1.28,-2.42,3.83
24.598984956741333,0.71,1.4,-2.51,2.96
24.60430598258972,-0.76,0.57,-3.13,3.27
24.614712953567505,-1.64,-0.06,-3.25,3.64
24.624139070510864,-2.0,-0.19,-1.96,2.8
24.697375059127808,-1.96,-0.34,0.01,1.98
24.697641134262085,-1.89,-0.53,0.93,2.17
24.697917938232422,-1.21,-0.51,0.74,1.5
24.698179960250854,0.27,-0.05,0.1,0.29
24.6984441280365,1.0,0.18,-0.45,1.11
24.699251890182495,0.49,0.08,-0.62,0.79
24.699514150619507,-0.38,-0.15,-0.17,0.44
24.704028844833374,-0.62,-0.42,0.49,0.89
24.714617013931274,-0.37,-0.56,0.87,1.09
24.72400403022766,0.0,-0.25,0.68,0.72
24.79639196395874,0.25,0.36,0.38,0.58
24.796661138534546,0.31,0.7,0.47,0.89
24.796923875808716,0.46,0.57,0.69,1.0
24.797186136245728,0.93,0.32,1.02,1.41
24.79744791984558,1.35,0.17,1.22,1.82
24.79827094078064,1.66,0.16,1.2,2.05
24.798529863357544,1.75,0.15,1.07,2.05
24.804057836532593,1.42,0.07,0.88,1.67
24.814439058303833,1.02,-0.1,0.74,1.26
24.823956966400146,0.93,-0.22,1.05,1.41
24.89671301841736,1.59,-0.34,1.8,2.42
24.89698815345764,3.0,-0.42,2.39,3.85
24.897257089614868,4.1,-0.23,2.04,4.58
24.897526025772095,4.12,0.18,1.04,4.25
24.89779305458069,3.15,0.56,0.65,3.26
24.898601055145264,1.93,0.74,0.81,2.22
24.898865938186646,1.2,0.62,1.02,1.69
24.90377116203308,1.13,0.32,1.66,2.03
24.91429305076599,1.59,0.45,1.81,2.45
24.923781156539917,2.02,1.0,1.43,2.66
24.99618411064148,1.64,1.34,1.02,2.35
24.996459007263184,1.34,1.86,0.88,2.45
24.996724843978882,1.55,2.63,1.18,3.27
24.99698495864868,1.52,3.15,1.82,3.94
24.997241973876953,1.78,3.1,2.57,4.4
24.998027086257935,2.57,3.39,2.8,5.09
24.99828600883484,2.8,3.71,3.18,5.63
25.003637075424194,2.72,5.43,2.92,6.73
25.014201879501343,3.96,8.41,2.4,9.6
25.023616075515747,6.0,9.19,4.23,11.76
25.096155881881714,5.5,9.16,5.87,12.19
25.096429109573364,5.68,10.11,7.67,13.9
25.0966899394989,6.75,11.39,7.91,15.42
25.0969500541687,7.25,12.53,7.06,16.1
25.0972158908844,6.39,11.79,6.13,14.74
25.09801197052002,6.08,9.58,3.54,11.88
25.098275899887085,7.22,7.72,-1.18,10.63
25.10353112220764,6.6,9.52,-6.13,13.1
25.114052057266235,0.48,13.45,-5.36,14.48
25.12341594696045,-3.72,12.61,-1.53,13.23
25.19634509086609,-0.44,6.94,1.03,7.02
25.196609020233154,2.84,2.96,3.14,5.16
25.19687008857727,0.57,0.92,2.42,2.65
25.19713282585144,-4.23,-0.01,-3.8,5.68
25.19739603996277,-1.53,3.03,-2.88,4.45
25.198246002197266,4.65,2.98,1.89,5.83
25.198503971099854,8.87,0.8,3.19,9.46
25.20340085029602,10.26,-1.03,3.73,10.96
25.213874101638794,8.38,-2.09,2.93,9.12
25.22323203086853,6.26,-2.43,1.48,6.87
25.296823024749756,4.34,-2.37,1.03,5.05
25.297093152999878,2.59,-2.27,1.38,3.71
25.29735493659973,1.7,-2.22,2.33,3.63
25.297616004943848,0.9,-2.39,3.06,3.98
25.29787516593933,0.07,-2.58,3.31,4.19
25.298702001571655,0.19,-2.44,2.77,3.69
25.298964023590088,1.42,-2.14,2.03,3.27
25.303257942199707,2.33,-2.21,2.19,3.88
25.313670873641968,1.84,-1.4,1.61,2.81
25.323198080062866,-0.02,-0.93,0.49,1.05
25.396796941757202,-2.38,-1.95,-0.47,3.11
25.397078037261963,-2.78,-2.57,-2.65,4.62
25.39734387397766,-2.41,-2.72,-3.59,5.1
25.39760994911194,-2.79,-3.46,-1.04,4.56
25.397884130477905,-1.71,-4.34,0.55,4.69
25.39868998527527,-1.39,-4.5,-0.42,4.72
25.398957014083862,-2.19,-4.71,-1.16,5.32
25.403074026107788,-3.76,-5.12,-1.5,6.52
25.41348695755005,-4.69,-5.28,-1.02,7.13
25.423004865646362,-5.04,-5.31,-1.65,7.5
25.49735713005066,-5.87,-4.85,-3.72,8.47
25.497632026672363,-6.7,-3.89,-5.11,9.28
25.49789786338806,-7.43,-2.87,-6.17,10.07
25.498162031173706,-8.64,-2.01,-7.41,11.55
25.498428106307983,-10.03,-1.78,-7.87,12.87
25.499232053756714,-11.06,-1.88,-7.98,13.76
25.49950385093689,-11.81,-2.18,-8.42,14.66
25.50285792350769,-12.02,-2.47,-8.85,15.12
25.51343297958374,-10.69,-2.4,-8.35,13.77
25.52283501625061,-8.59,-2.26,-7.27,11.47
25.598083972930908,-7.57,-3.02,-6.57,10.46
25.59835696220398,-8.08,-3.56,-6.15,10.76
25.598625898361206,-10.2,2.59,-6.58,12.41
25.598891973495483,-3.83,-2.2,-8.5,9.57
25.599159002304077,6.35,4.24,-1.39,7.76
25.599971055984497,34.65,29.02,31.33,54.99
25.600242853164673,13.66,37.96,-2.55,40.42
25.6026451587677,-1.11,8.31,-13.93,16.25
25.61323094367981,-8.4,-11.92,-2.45,14.78
25.622704029083252,-18.07,-13.49,0.96,22.57
25.698271989822388,-15.95,-6.31,-0.49,17.15
25.69855284690857,-13.35,-2.63,-7.31,15.44
25.69882082939148,-10.48,0.08,-5.79,11.97
25.699082136154175,-5.71,1.47,-2.48,6.39
25.699342012405396,-1.07,0.84,-2.24,2.62
25.700135946273804,2.8,1.1,-2.53,3.93
25.70039701461792,5.11,1.6,-1.33,5.51
25.702504873275757,3.01,1.09,-0.78,3.29
25.712955951690674,-1.33,0.24,-2.54,2.87
25.722460985183716,-3.06,-0.21,-3.44,4.6
25.7983181476593,-2.47,0.0,-2.47,3.49
25.79858899116516,-1.36,0.11,-1.2,1.81
25.798866033554077,-0.86,0.02,-0.65,1.07
25.79913306236267,-0.88,-0.2,-0.67,1.12
25.79939913749695,-0.36,-0.13,-0.64,0.74
25.800202131271362,0.41,0.19,-0.38,0.59
25.80046582221985,1.11,0.31,-0.18,1.16
25.802449941635132,1.05,0.19,-0.06,1.06
25.812980890274048,0.3,-0.03,0.15,0.33
25.82246708869934,-0.28,-0.21,0.43,0.55
25.89861798286438,-0.26,-0.19,0.53,0.62
25.898885011672974,-0.14,0.01,0.37,0.39
25.899144887924194,-0.15,0.14,0.25,0.32
25.89938998222351,0.1,0.14,0.16,0.23
25.899646997451782,0.52,0.15,0.18,0.57
25.900447130203247,0.85,0.27,0.43,0.99
25.9007089138031,1.19,0.32,0.85,1.49
25.902281045913696,1.38,0.22,1.05,1.74
25.912876844406128,1.02,0.06,1.32,1.66
25.922412157058716,0.7,-0.15,1.3,1.48
25.997673988342285,0.98,-0.27,1.18,1.55
25.99794316291809,1.28,-0.25,1.26,1.81
25.998212099075317,1.64,-0.17,1.5,2.22
25.998480081558228,2.25,-0.08,1.39,2.64
25.998744010925293,2.63,0.01,1.08,2.84
25.999571084976196,3.02,0.2,1.19,3.25
25.999831914901733,3.3,0.62,1.34,3.61
26.002145051956177,2.85,0.63,1.67,3.36
26.012643098831177,2.28,0.57,2.69,3.57
26.0221209526062,2.44,0.83,2.27,3.43
26.097403049468994,2.49,1.25,1.72,3.27
26.09767198562622,2.25,1.71,1.68,3.28
26.09793996810913,2.59,2.35,1.56,3.82
26.09820294380188,3.15,3.53,2.54,5.36
26.098464012145996,3.11,4.26,3.96,6.59
26.09928297996521,3.72,4.66,4.34,7.37
26.09954810142517,4.18,5.56,4.77,8.43
26.10201096534729,3.99,7.06,4.49,9.26
26.112560033798218,4.36,9.63,3.81,11.23
26.12189507484436,5.82,10.32,6.02,13.28
26.197762966156006,6.12,10.7,6.59,13.97
26.19804310798645,6.41,11.96,5.53,14.65
26.198312997817993,6.45,12.64,6.07,15.43
26.198585987091064,7.24,12.42,5.78,15.49
26.198848009109497,7.42,11.71,3.85,14.38
26.19970703125,5.62,9.79,0.9,11.32
26.199977159500122,3.37,8.8,-5.29,10.8
26.20187211036682,1.47,12.07,-8.51,14.84
26.212344884872437,-0.18,15.72,-4.77,16.42
26.221765995025635,-2.92,13.76,-0.81,14.08
26.298228979110718,-0.61,6.03,-2.11,6.41
26.29849600791931,1.65,0.66,-0.62,1.88
26.29876208305359,-3.49,-0.39,-3.22,4.76
26.29902195930481,-2.91,3.37,-5.14,6.8
26.299285173416138,2.79,5.79,1.38,6.57
26.300084829330444,7.28,3.05,5.3,9.5
26.300343990325928,9.03,0.13,6.88,11.35
26.30176281929016,7.3,-0.8,5.23,9.01
26.31224298477173,4.48,-0.85,2.33,5.12
26.32171893119812,1.94,-1.17,0.89,2.43
26.398458003997803,0.31,-1.81,0.61,1.93
26.39873194694519,-0.37,-2.67,1.25,2.97
26.39900302886963,-0.93,-3.32,1.76,3.87
26.39928102493286,-1.38,-3.76,1.92,4.44
26.39954900741577,-1.4,-4.39,1.98,5.01
26.400341033935547,-0.59,-5.15,2.33,5.68
26.400609016418457,0.4,-5.62,2.63,6.21
26.401499032974243,0.73,-5.9,2.4,6.41
26.412029027938843,0.63,-6.21,2.24,6.63
26.42148184776306,0.57,-6.63,2.17,6.99
26.498077154159546,0.62,-7.11,2.17,7.45
26.498349905014038,0.89,-7.39,2.35,7.8
26.498615026474,1.23,-7.47,2.52,7.97
26.49888014793396,1.63,-7.3,2.67,7.94
26.499143838882446,1.94,-6.92,2.68,7.67
26.49993395805359,1.31,-6.48,2.16,6.95
26.500200986862183,-0.32,-5.92,0.75,5.97
26.501458883285522,-2.35,-5.18,-1.39,5.85
26.51195502281189,-4.85,-4.46,-3.45,7.43
26.521319150924683,-6.94,-3.82,-4.82,9.27
26.59860110282898,-8.21,-3.3,-5.98,10.67
26.598868131637573,-9.57,-2.85,-6.94,12.16
26.599135160446167,-11.06,-2.04,-7.86,13.72
26.599395990371704,-11.39,-1.03,-8.27,14.11
26.599655866622925,-10.75,-0.24,-8.09,13.45
26.600434064865112,-9.81,0.29,-8.32,12.86
26.600731134414673,-9.53,0.57,-8.75,12.95
26.60117793083191,-10.19,0.38,-9.0,13.6
26.611727952957153,-10.47,-0.37,-8.53,13.5
26.62119698524475,-9.78,-0.75,-7.86,12.56
26.69874882698059,-8.89,-0.98,-7.29,11.53
26.699042081832886,-8.66,-1.08,-6.87,11.1
26.699318170547485,-9.14,4.31,-7.17,12.39
26.6995849609375,0.58,8.7,-0.02,8.71
26.699846029281616,22.26,12.3,18.35,31.36
26.700647115707397,28.6,17.24,27.29,43.12
26.701081037521362,8.77,12.12,-5.47,15.92
26.701346158981323,-2.09,9.81,-15.14,18.16
26.71151900291443,-7.64,2.43,-4.27,9.08
26.721102952957153,-11.31,-1.48,2.0,11.58
26.79916214942932,-9.98,-5.01,-1.06,11.21
26.79942798614502,-6.72,-4.06,-4.28,8.94
26.79968810081482,-6.77,-1.68,-8.28,10.82
26.799952030181885,-5.56,0.04,-7.77,9.55
26.80022692680359,-4.11,0.94,-4.52,6.18
26.801197052001953,-2.57,0.59,-2.77,3.82
26.801459074020386,-0.41,0.48,-2.74,2.81
26.801717042922974,0.8,0.79,-2.31,2.56
26.81139588356018,0.2,0.95,-1.09,1.45
26.82091999053955,-0.9,0.78,-0.62,1.34
26.899452924728394,-1.19,0.3,-0.93,1.53
26.899719953536987,-1.08,-0.08,-0.74,1.31
26.89998507499695,-1.06,-0.22,-0.37,1.14
26.900283098220825,-0.63,-0.17,-0.32,0.72
26.900720834732056,-0.29,-0.05,-0.86,0.9
26.901505947113037,-0.52,0.01,-1.44,1.53
26.90176796913147,-0.35,0.11,-1.42,1.46
26.902025938034058,0.0,0.26,-1.24,1.26
26.911232948303223,0.07,0.23,-1.19,1.21
26.921043157577515,-0.12,0.02,-0.92,0.92
26.99936604499817,-0.34,-0.11,-0.3,0.46
26.999621152877808,-0.34,-0.17,0.31,0.49
26.999913930892944,-0.3,-0.12,0.7,0.77
27.00034999847412,-0.26,0.01,0.81,0.85
27.000593900680542,0.05,0.11,0.81,0.81
27.001385927200317,0.81,0.17,0.81,1.15
27.001641988754272,1.5,0.27,0.66,1.66
27.001900911331177,1.71,0.3,0.5,1.8
27.0110080242157,1.36,0.24,0.26,1.4
27.02054500579834,0.64,0.15,0.25,0.7
27.09881901741028,0.14,0.03,0.5,0.52
27.09908699989319,0.08,-0.13,0.92,0.93
27.09935212135315,0.4,-0.18,1.55,1.61
27.099613904953003,1.17,-0.23,1.93,2.26
27.099900007247925,2.0,-0.35,2.04,2.87
27.100893020629883,2.6,-0.4,1.86,3.22
27.10115885734558,2.97,-0.34,1.43,3.31
27.10141682624817,3.28,-0.09,1.19,3.49
27.110885858535767,3.2,0.32,0.78,3.3
27.120468854904175,2.42,0.33,1.23,2.73
27.198390007019043,1.67,0.1,1.95,2.56
27.198664903640747,1.43,0.21,1.87,2.36
27.198933839797974,1.6,0.51,1.52,2.26
27.19919514656067,1.69,0.86,0.84,2.07
27.199442148208618,1.69,1.14,0.49,2.09
27.20045804977417,1.74,1.31,0.52,2.23
27.20072293281555,2.0,1.82,0.47,2.74
27.200987100601196,2.34,2.9,1.11,3.88
27.21087384223938,2.28,3.7,2.52,5.02
27.22033715248108,2.61,4.25,3.2,5.92
27.298723936080933,2.94,5.3,3.54,7.01
27.29898715019226,2.88,7.13,3.28,8.36
27.29924988746643,4.38,9.18,3.16,10.65
27.29952311515808,6.07,9.49,4.43,12.1
27.2997829914093,5.6,9.28,4.95,11.91
27.300792932510376,4.82,9.55,6.17,12.34
27.301054000854492,4.94,10.22,7.95,13.85
27.301313161849976,5.77,10.39,7.19,13.89
27.310956954956055,6.76,10.66,5.45,13.74
27.32023596763611,6.53,9.8,4.74,12.69
27.398375034332275,6.15,7.7,0.99,9.9
27.39864993095398,5.07,7.71,-4.54,10.28
27.398921012878418,-0.18,12.07,-5.78,13.38
27.399188995361328,-3.94,14.07,-3.48,15.01
27.399482011795044,0.21,8.05,0.15,8.05
27.400447130203247,2.94,3.28,3.12,5.39
27.400710821151733,-1.2,2.41,0.41,2.72
27.400973081588745,-4.3,4.12,-5.18,7.89
27.481683015823364,0.24,5.68,-1.54,5.88
27.481953859329224,4.77,3.92,1.71,6.4
27.482218027114868,7.42,2.03,2.05,7.96
27.482478857040405,6.76,0.7,1.47,6.95
27.482745885849,5.17,-0.43,0.31,5.19
27.483005046844482,4.34,-1.57,-0.04,4.61
27.48327088356018,3.65,-2.36,0.43,4.36
27.484065055847168,3.06,-2.67,0.93,4.16
27.489881992340088,2.49,-2.96,1.46,4.13
27.4999840259552,1.74,-3.5,1.66,4.24
27.58188509941101,1.0,-3.89,1.34,4.23
27.582152128219604,0.94,-4.11,1.15,4.37
27.582417011260986,1.33,-4.18,1.04,4.5
27.582678079605103,1.89,-3.99,1.03,4.53
27.582939863204956,2.44,-3.86,1.46,4.79
27.583199977874756,2.79,-4.07,1.78,5.24
27.58345913887024,2.75,-4.56,1.64,5.57
27.584264993667603,2.41,-5.05,1.52,5.79
27.589789152145386,1.87,-5.47,1.59,5.99
27.599997997283936,1.22,-5.88,1.5,6.18
27.681519031524658,0.58,-6.46,1.55,6.66
27.68179488182068,0.0,-6.93,1.87,7.17
27.682061910629272,-0.7,-7.21,1.77,7.45
27.6823251247406,-1.44,-7.17,0.96,7.37
27.6825909614563,-3.04,-7.2,-0.46,7.82
27.682852029800415,-5.06,-7.06,-2.03,8.92
27.683114051818848,-6.45,-6.53,-2.86,9.61
27.683926820755005,-7.31,-5.85,-2.98,9.82
27.689620971679688,-7.58,-4.88,-3.48,9.66
27.699717044830322,-7.76,-3.52,-4.15,9.47
27.781710863113403,-7.89,-2.11,-4.61,9.37
27.781981945037842,-8.09,-1.08,-5.18,9.66
27.78224802017212,-9.06,-0.18,-5.9,10.81
27.782515048980713,-10.91,0.77,-6.8,12.87
27.782781839370728,-12.5,1.76,-7.79,14.83
27.78304409980774,-12.24,2.7,-8.37,15.07
27.783303022384644,-10.2,3.64,-8.85,13.98
27.784096002578735,-8.4,5.78,-9.61,14.01
27.78934097290039,-6.36,10.33,-8.76,14.96
27.79952597618103,-0.9,-2.55,-9.89,10.25
27.881728887557983,3.95,-0.25,-10.87,11.56
27.882019996643066,28.41,15.71,16.92,36.6
27.88229203224182,21.76,21.91,18.12,35.8
27.882560968399048,4.55,13.71,-6.05,15.66
27.88283896446228,-5.86,2.71,-3.66,7.42
27.88310194015503,-15.92,-6.49,2.55,17.38
27.883383989334106,-16.37,-6.95,3.5,18.12
27.884214162826538,-11.5,-5.02,-2.28,12.75
27.88922905921936,-9.0,-3.54,-4.5,10.66
27.899379014968872,-5.9,-0.98,-5.18,7.91
27.909883975982666,-4.1,0.87,-4.29,5.99
27.982157945632935,-2.91,1.29,-3.6,4.8
27.98242211341858,0.65,1.33,-4.69,4.91
27.982687950134277,4.01,1.45,-4.88,6.48
27.982946157455444,3.61,1.31,-4.11,5.62
27.983203172683716,0.44,1.12,-3.79,3.97
27.983461141586304,-1.67,0.32,-2.62,3.12
27.98425316810608,-2.35,-0.46,0.15,2.39
27.98909902572632,-2.32,-0.37,1.69,2.89
27.99923586845398,-1.46,-0.24,0.86,1.71
28.00970482826233,-0.81,-0.31,0.09,0.87
28.081984996795654,-0.43,0.03,-0.29,0.51
28.082249879837036,-0.27,0.35,-0.54,0.69
28.082520008087158,-0.18,0.31,-0.69,0.77
28.08278203010559,-0.03,0.14,-0.78,0.79
28.08304190635681,-0.09,-0.01,-0.89,0.89
28.083300828933716,-0.34,-0.22,-1.05,1.12
28.084089040756226,-0.65,-0.24,-0.81,1.06
28.088978052139282,-0.86,-0.01,-0.42,0.95
28.099061012268066,-0.67,0.32,0.05,0.74
28.109625101089478,-0.21,0.47,0.75,0.9
28.1816189289093,0.31,0.43,1.19,1.3
28.181902170181274,1.0,0.33,1.09,1.51
28.182173013687134,1.41,0.34,0.66,1.59
28.18243384361267,1.5,0.19,0.39,1.56
28.182698965072632,1.29,-0.14,0.78,1.51
28.182964086532593,1.34,-0.39,1.45,2.01
28.183818101882935,1.73,-0.53,2.04,2.72
28.18885898590088,2.31,-0.48,2.61,3.51
28.19903588294983,3.28,-0.3,2.65,4.22
28.20948600769043,3.67,-0.14,2.0,4.18
28.28172516822815,3.16,0.11,1.36,3.44
28.28198790550232,2.56,0.25,0.81,2.69
28.282248973846436,1.92,0.3,0.65,2.04
28.282506942749023,1.93,0.27,1.29,2.33
28.282766103744507,2.43,0.28,1.84,3.06
28.283025979995728,2.62,0.44,1.89,3.26
28.283812046051025,2.34,0.73,1.69,2.97
28.28865885734558,1.81,1.07,1.62,2.65
28.298831939697266,1.21,1.38,1.41,2.31
28.30924105644226,1.16,2.07,1.11,2.61
28.38182497024536,1.64,2.66,1.21,3.35
28.382102966308594,1.6,3.19,1.8,3.99
28.382374048233032,1.92,3.14,2.16,4.26
28.382639169692993,2.22,3.17,2.35,4.52
28.382899045944214,2.12,3.15,2.53,4.56
28.383157968521118,1.99,3.88,2.42,4.98
28.383951902389526,2.31,5.62,2.26,6.48
28.388540029525757,3.46,7.53,2.92,8.78
28.398643016815186,4.31,8.79,4.78,10.89
28.409088850021362,5.19,10.11,6.56,13.12
28.481976985931396,6.74,11.07,7.83,15.14
28.48224186897278,8.04,11.59,7.96,16.19
28.48250985145569,7.79,10.95,7.83,15.55
28.482779026031494,7.19,9.71,6.57,13.75
28.483047008514404,7.86,8.38,2.66,11.79
28.483318090438843,8.15,8.36,-2.4,11.91
28.484094858169556,4.9,12.02,-5.91,14.26
28.488407850265503,-0.64,15.48,-3.93,15.98
28.49849009513855,-3.01,13.25,-1.4,13.65
28.508949041366577,-0.55,6.09,-0.09,6.11
28.582038164138794,0.3,2.96,1.84,3.49
28.58230996131897,-5.07,3.02,-2.94,6.59
28.582571983337402,-6.4,4.8,-7.53,10.98
28.582834005355835,-0.13,6.13,-0.62,6.16
28.583091974258423,5.14,3.37,3.08,6.87
28.583338022232056,7.39,1.02,3.08,8.07
28.584136962890625,6.34,-0.08,2.54,6.83
28.588170051574707,4.96,-1.21,2.05,5.5
28.59825587272644,4.21,-1.97,2.07,5.08
28.608718156814575,3.4,-2.36,1.86,4.53
28.68302607536316,2.47,-2.65,1.89,4.08
28.68329691886902,1.28,-3.0,2.12,3.89
28.68356490135193,0.42,-3.06,1.98,3.66
28.68382716178894,0.35,-3.16,1.89,3.69
28.684088945388794,0.98,-3.57,2.14,4.27
28.684346914291382,1.53,-3.87,2.06,4.64
28.685152053833008,1.62,-3.95,1.74,4.61
28.68810486793518,1.37,-4.0,1.49,4.48
28.698249101638794,0.99,-4.35,1.41,4.67
28.708696126937866,0.68,-5.01,1.55,5.28
28.782498121261597,0.35,-5.91,1.72,6.16
28.78276801109314,-0.32,-6.93,1.66,7.13
28.783037900924683,-1.08,-7.91,1.42,8.1
28.783302068710327,-1.86,-8.84,1.08,9.09
28.783573865890503,-2.24,-9.49,0.86,9.78
28.7838351726532,-2.42,-9.85,0.85,10.17
28.784626960754395,-2.45,-9.83,0.75,10.15
28.78793501853943,-2.68,-9.61,0.36,9.98
28.797969102859497,-3.33,-9.25,-0.43,9.84
28.808583974838257,-4.0,-8.91,-1.34,9.85
28.882921934127808,-4.67,-8.63,-2.29,10.07
28.883195161819458,-5.05,-7.95,-3.35,9.99
28.883463144302368,-5.5,-6.9,-4.48,9.89
28.883730173110962,-6.55,-5.6,-5.96,10.47
28.883998155593872,-7.78,-4.23,-6.99,11.28
28.884264945983887,-8.9,-2.51,-7.59,11.96
28.88509202003479,-9.82,-0.44,-8.56,13.03
28.88775897026062,-10.36,1.57,-9.73,14.29
28.897886991500854,-10.29,2.64,-10.15,14.69
28.90838599205017,-9.44,2.3,-9.6,13.65
28.983535051345825,-8.57,2.01,-9.49,12.94
28.98378586769104,-8.14,8.43,-9.49,15.07
28.98404812812805,-1.94,4.75,-9.13,10.47
28.984309911727905,7.23,10.19,-1.33,12.56
28.98457098007202,30.88,26.84,29.77,50.59
28.984832048416138,18.6,22.22,-1.28,29.0
28.98561406135559,3.4,1.08,-5.24,6.33
28.987678050994873,-10.14,-6.82,1.47,12.3
28.997605085372925,-17.83,-8.74,-0.26,19.85
29.008154153823853,-13.13,-4.07,-1.58,13.83
29.083473920822144,-9.77,-1.36,-6.97,12.07
29.083741903305054,-5.67,0.7,-6.24,8.46
29.08401894569397,-1.94,1.45,-2.75,3.66
29.084282159805298,0.82,0.72,-1.15,1.58
29.08453917503357,3.4,0.52,-1.61,3.79
29.08479595184326,4.62,0.73,-1.32,4.86
29.085581064224243,2.32,0.62,-1.5,2.83
29.087391138076782,-1.27,0.38,-2.75,3.05
29.097492933273315,-2.5,0.45,-3.05,3.96
29.108021020889282,-2.05,0.38,-1.75,2.72
29.183799982070923,-1.23,0.1,-0.49,1.32
29.184048891067505,-1.23,-0.19,-0.31,1.28
29.184312105178833,-1.6,-0.41,0.01,1.65
29.184571981430054,-0.83,-0.12,-0.09,0.84
29.18483304977417,0.17,0.28,-0.67,0.74
29.185089826583862,0.38,0.42,-0.6,0.82
29.185899019241333,0.11,0.29,-0.39,0.49
29.187209844589233,0.0,0.16,-0.22,0.27
29.19731593132019,0.04,-0.08,-0.11,0.14
29.207741022109985,0.03,-0.18,0.13,0.22
29.284384965896606,0.07,-0.05,0.43,0.43
29.284647941589355,0.5,0.14,0.67,0.84
29.284910917282104,1.12,0.17,0.79,1.38
29.28518295288086,1.42,0.27,0.91,1.7
29.28543996810913,1.4,0.29,0.87,1.67
29.285696029663086,1.25,0.24,0.93,1.57
29.286484956741333,1.05,0.17,1.11,1.53
29.28707504272461,0.86,0.11,1.37,1.62
29.297165155410767,0.81,0.06,1.63,1.82
29.307732820510864,0.74,-0.06,1.5,1.67
29.38316798210144,0.52,-0.29,1.1,1.25
29.38344407081604,0.35,-0.4,0.65,0.83
29.383710145950317,0.32,-0.25,0.18,0.44
29.383973836898804,0.35,0.07,-0.11,0.37
29.38421607017517,0.87,0.44,-0.11,0.98
29.384477853775024,1.44,0.69,0.12,1.6
29.3852698802948,1.61,0.95,0.19,1.87
29.38699984550476,1.44,1.01,1.03,2.03
29.39714217185974,1.5,1.12,1.96,2.71
29.407665967941284,1.68,1.38,2.19,3.08
29.483217000961304,1.42,2.0,2.26,3.33
29.483484029769897,1.68,2.15,2.41,3.64
29.48374605178833,2.22,2.26,2.49,4.02
29.484002828598022,2.63,2.27,2.52,4.29
29.484258890151978,3.09,2.46,2.64,4.75
29.484513998031616,3.61,2.67,3.09,5.45
29.48529314994812,4.18,3.05,3.57,6.28
29.486943006515503,4.52,3.67,3.75,6.92
29.496987104415894,4.2,5.65,3.48,7.85
29.507503032684326,4.71,9.2,3.4,10.88
29.58366298675537,6.9,11.25,5.82,14.42
29.58393096923828,7.58,11.42,7.47,15.61
29.584197998046875,7.57,11.4,8.03,15.86
29.58445715904236,7.0,11.22,8.47,15.7
29.584716081619263,6.09,11.15,7.62,14.81
29.584978818893433,5.6,10.48,4.28,12.62
29.585777044296265,5.27,8.78,-2.4,10.51
29.586809873580933,4.05,9.93,-7.51,13.09
29.59689211845398,0.41,13.57,-6.24,14.94
29.60733199119568,-4.21,13.63,0.69,14.28
29.683786153793335,-3.83,9.33,0.84,10.12
29.684065103530884,1.12,4.09,-0.52,4.27
29.684333086013794,0.52,1.91,0.48,2.03
29.684602975845337,-4.68,1.7,-4.83,6.93
29.684869050979614,-2.86,5.09,-6.08,8.42
29.685128927230835,3.63,6.34,0.42,7.31
29.6859610080719,8.35,3.62,3.66,9.8
29.68654203414917,8.96,0.99,4.26,9.97
29.696753978729248,6.01,-0.72,3.54,7.01
29.707170963287354,3.94,-2.23,2.44,5.14
29.78412890434265,2.67,-3.05,1.94,4.49
29.784394025802612,1.93,-3.22,1.87,4.19
29.78465700149536,1.58,-3.32,2.35,4.36
29.784914016723633,1.05,-3.46,2.42,4.35
29.785172939300537,0.71,-3.54,2.05,4.15
29.78542995452881,0.74,-3.58,1.96,4.14
29.78645396232605,1.11,-3.76,1.94,4.37
29.786711931228638,1.39,-3.92,1.87,4.56
29.796562910079956,1.3,-3.98,1.59,4.47
29.80706286430359,0.87,-4.07,1.39,4.38
29.884459972381592,0.75,-4.37,1.33,4.62
29.884737968444824,0.82,-4.94,1.49,5.22
29.885011911392212,0.77,-5.62,1.68,5.91
29.885295152664185,0.65,-6.27,1.73,6.53
29.885556936264038,0.63,-6.95,1.68,7.17
29.8858699798584,0.73,-7.58,1.62,7.78
29.886826038360596,0.44,-7.95,1.53,8.1
29.887090921401978,-0.07,-8.11,1.3,8.21
29.896392107009888,-0.83,-7.89,0.24,7.93
29.90688395500183,-2.25,-7.45,-1.12,7.86
29.984035968780518,-3.92,-6.98,-2.23,8.31
29.9843008518219,-5.37,-6.17,-4.11,9.15
29.984560012817383,-6.95,-4.75,-5.92,10.29
29.98481798171997,-7.95,-3.37,-6.58,10.85
29.98507595062256,-8.35,-2.19,-6.68,10.91
29.98533606529236,-9.29,-0.93,-7.54,12.0
29.986313104629517,-10.75,0.54,-8.95,13.99
29.98713707923889,-11.84,1.92,-9.83,15.5
29.996119022369385,-11.96,2.5,-9.83,15.68
30.006749868392944,-10.57,2.05,-9.56,14.39
30.086792945861816,-8.66,1.36,-9.27,12.75
30.087098836898804,-8.42,5.12,-9.05,13.37
30.087443113327026,-4.26,3.88,-6.95,9.02
30.087723970413208,-0.77,-2.41,-10.74,11.03
30.087981939315796,14.28,14.93,13.23,24.53
30.0882408618927,26.7,22.21,21.36,40.77
30.089020013809204,7.39,16.14,-8.63,19.73
