time,ax,ay,az,atotal
0.007871866226196289,-0.17,-0.04,0.08,0.19
0.01782989501953125,-0.08,0.0,0.01,0.08
0.027713775634765625,-0.08,-0.02,0.03,0.08
0.037770748138427734,-0.04,0.0,0.06,0.07
0.047679901123046875,-0.01,0.01,0.09,0.09
0.05766773223876953,0.17,0.01,0.08,0.18
0.09328389167785645,0.18,0.0,0.02,0.18
0.09388399124145508,0.06,-0.01,-0.06,0.08
0.09447884559631348,-0.02,0.0,-0.04,0.04
0.09753274917602539,-0.18,0.02,-0.13,0.22
0.10757684707641602,-0.16,0.01,-0.15,0.21
0.11750507354736328,0.09,0.01,-0.02,0.09
0.1276078224182129,0.22,0.03,-0.07,0.23
0.13761687278747559,0.23,-0.01,-0.08,0.24
0.14752197265625,0.08,-0.01,-0.04,0.09
0.1575460433959961,-0.07,0.0,0.03,0.07
0.1931619644165039,-0.04,0.0,0.14,0.14
0.19375276565551758,0.06,-0.02,0.1,0.11
0.1943340301513672,0.12,-0.02,0.0,0.12
0.19740772247314453,0.02,-0.03,-0.01,0.03
0.20749282836914062,-0.18,0.01,-0.02,0.18
0.2173149585723877,-0.25,-0.01,0.01,0.25
0.2274179458618164,-0.23,0.0,-0.1,0.25
0.23749399185180664,-0.42,0.01,-0.19,0.46
0.24740886688232422,-0.34,0.04,-0.18,0.38
0.257382869720459,-0.16,-0.02,-0.13,0.2
0.29311394691467285,-0.12,-0.05,0.0,0.13
0.2937140464782715,-0.22,0.02,0.16,0.27
0.29430484771728516,-0.11,-0.01,0.3,0.31
0.2973179817199707,0.11,-0.06,0.27,0.29
0.3073868751525879,0.25,0.0,0.12,0.27
0.3172149658203125,0.41,-0.01,0.18,0.44
0.3272538185119629,0.47,-0.01,0.31,0.56
0.33731889724731445,0.32,0.0,0.1,0.33
0.3472280502319336,0.32,0.03,-0.17,0.36
0.35730695724487305,0.42,0.06,-0.26,0.49
0.39406776428222656,0.37,-0.01,-0.13,0.39
0.3946678638458252,0.13,-0.01,-0.03,0.13
0.3952059745788574,-0.13,-0.02,-0.03,0.13
0.3972048759460449,-0.28,0.0,-0.11,0.3
0.40720391273498535,-0.21,0.0,-0.22,0.3
0.41728782653808594,-0.07,-0.01,-0.19,0.2
0.4272017478942871,-0.04,-0.02,-0.06,0.07
0.43723106384277344,-0.2,-0.02,-0.01,0.2
0.4471139907836914,-0.38,-0.03,0.08,0.38
0.4571089744567871,-0.42,-0.07,0.38,0.57
0.4946169853210449,-0.5,-0.09,0.67,0.84
0.49522876739501953,-0.41,-0.08,0.75,0.85
0.49582886695861816,-0.38,-0.07,0.65,0.75
0.496959924697876,-0.31,-0.08,0.49,0.58
0.5070858001708984,-0.17,-0.04,0.33,0.37
0.5174078941345215,-0.19,0.02,0.13,0.23
0.5270228385925293,-0.27,-0.02,-0.04,0.27
0.5370218753814697,-0.13,0.02,-0.24,0.27
0.5469839572906494,0.01,0.04,-0.41,0.41
0.5570249557495117,-0.05,-0.02,-0.39,0.39
0.5670168399810791,0.07,-0.01,-0.19,0.2
0.5950217247009277,0.14,0.02,0.02,0.14
0.5956058502197266,0.14,-0.04,0.06,0.15
0.5970287322998047,0.18,-0.01,0.06,0.19
0.606907844543457,0.2,0.02,0.07,0.21
0.6170198917388916,0.21,-0.01,0.14,0.25
0.6269168853759766,0.17,-0.01,0.26,0.31
0.636934757232666,0.08,0.0,0.19,0.2
0.646873950958252,0.07,-0.03,0.21,0.22
0.6568858623504639,0.06,-0.03,0.17,0.18
0.6669108867645264,0.22,-0.01,0.12,0.25
0.6949009895324707,0.5,-0.03,0.14,0.52
0.6954848766326904,0.46,0.02,0.05,0.46
0.6966569423675537,0.34,0.02,-0.03,0.34
0.7068228721618652,0.38,0.0,-0.03,0.38
0.7167339324951172,0.31,0.01,-0.14,0.34
0.7267699241638184,0.17,0.04,-0.09,0.19
0.7367548942565918,0.21,0.01,0.05,0.21
0.7468008995056152,0.28,-0.04,0.08,0.29
0.7567219734191895,0.33,-0.08,0.17,0.37
0.7666349411010742,0.4,-0.06,0.26,0.48
0.7945969104766846,0.05,0.01,0.13,0.13
0.7952027320861816,-0.46,0.03,-0.12,0.47
0.7966008186340332,-0.51,-0.02,-0.13,0.52
0.8066389560699463,-0.24,-0.01,-0.17,0.29
0.816591739654541,0.0,0.03,-0.15,0.15
0.8266549110412598,0.11,0.04,-0.07,0.13
0.8366179466247559,0.22,0.03,0.05,0.22
0.8473799228668213,0.25,0.01,0.02,0.25
0.8565597534179688,0.12,-0.02,-0.14,0.18
0.8665480613708496,0.0,0.01,-0.27,0.27
0.894597053527832,-0.08,0.04,-0.21,0.22
0.8951897621154785,-0.09,0.08,-0.23,0.25
0.8965840339660645,-0.01,0.03,-0.24,0.24
0.906527042388916,0.02,-0.05,-0.12,0.13
0.9164748191833496,-0.12,-0.02,-0.04,0.12
0.9264109134674072,-0.02,0.05,0.13,0.14
0.9364438056945801,0.44,-0.04,0.37,0.57
0.9463229179382324,0.74,-0.18,0.5,0.91
0.9564547538757324,0.69,-0.13,0.33,0.77
0.9663848876953125,0.02,0.0,0.09,0.09
0.9944229125976562,-0.32,0.06,-0.14,0.35
0.9950158596038818,-0.19,-0.04,-0.12,0.22
0.9963698387145996,-0.32,-0.13,-0.21,0.4
1.0063858032226562,-0.53,-0.06,-0.14,0.55
1.016313076019287,-0.66,0.05,-0.07,0.66
1.0263068675994873,-0.67,0.06,-0.14,0.68
1.0363349914550781,-0.35,0.08,-0.15,0.38
1.0463428497314453,0.11,-0.07,-0.05,0.13
1.0563030242919922,0.12,-0.11,-0.05,0.17
1.066321849822998,-0.14,-0.01,-0.09,0.16
1.0949358940124512,-0.09,0.1,0.02,0.13
1.0955300331115723,-0.2,0.02,-0.07,0.21
1.0961358547210693,-0.38,-0.02,0.03,0.38
1.1062407493591309,-0.31,-0.03,-0.08,0.32
1.1161608695983887,-0.39,0.0,-0.21,0.44
1.1261489391326904,-0.37,0.08,-0.23,0.44
1.1361949443817139,0.0,0.03,0.05,0.05
1.1462230682373047,0.17,-0.04,0.18,0.25
1.1562049388885498,0.06,-0.02,-0.01,0.06
1.1661598682403564,0.11,0.0,-0.1,0.14
1.1951179504394531,0.14,-0.08,-0.11,0.19
1.1957449913024902,-0.27,0.02,-0.28,0.38
1.1963300704956055,-0.66,0.09,-0.36,0.75
1.2061538696289062,-0.47,0.02,-0.37,0.59
1.2160420417785645,0.12,0.0,-0.2,0.23
1.2260828018188477,0.46,0.04,-0.07,0.46
1.2360899448394775,0.57,0.05,0.11,0.58
1.2459468841552734,0.68,0.03,0.21,0.71
1.256077766418457,0.38,-0.03,0.17,0.41
1.266007900238037,-0.12,0.0,-0.06,0.13
1.295300006866455,-0.23,0.0,-0.13,0.26
1.2958760261535645,-0.1,-0.01,-0.04,0.1
1.2964439392089844,-0.08,-0.01,0.03,0.08
1.3059718608856201,-0.01,0.03,-0.02,0.03
1.3158998489379883,-0.02,0.05,-0.17,0.17
1.32692289352417,0.01,0.06,-0.35,0.35
1.33589506149292,0.29,0.03,-0.14,0.32
1.3459129333496094,0.39,0.0,0.02,0.39
1.35589599609375,0.25,-0.04,0.04,0.25
1.3658509254455566,-0.05,-0.05,0.09,0.11
1.3954548835754395,-0.37,0.0,-0.01,0.37
1.396049976348877,-0.43,0.03,-0.12,0.44
1.3966329097747803,-0.48,0.04,-0.26,0.54
1.4058208465576172,-0.45,-0.01,-0.32,0.55
1.4157800674438477,-0.17,0.01,-0.18,0.24
1.425797939300537,0.12,-0.02,0.0,0.12
1.4357428550720215,0.06,-0.03,0.01,0.06
1.445734977722168,-0.24,-0.02,0.03,0.24
1.4557468891143799,-0.33,-0.02,0.12,0.35
1.4657068252563477,-0.16,-0.03,0.11,0.19
1.4954938888549805,-0.07,-0.01,0.06,0.09
1.4960870742797852,-0.1,0.05,-0.05,0.12
1.4966650009155273,-0.17,0.03,-0.21,0.27
1.5057430267333984,-0.12,0.01,-0.26,0.28
1.5156917572021484,-0.03,-0.05,-0.1,0.11
1.5255837440490723,-0.1,-0.03,0.02,0.1
1.5355348587036133,-0.13,0.03,0.03,0.13
1.5456280708312988,0.01,0.03,-0.03,0.04
1.5557360649108887,0.04,-0.04,0.0,0.05
1.5654597282409668,-0.06,0.02,-0.11,0.12
1.5964889526367188,-0.06,0.02,-0.16,0.17
1.597001075744629,-0.04,0.01,-0.17,0.17
1.5975708961486816,-0.06,-0.02,-0.13,0.14
1.6055738925933838,-0.08,-0.05,-0.08,0.12
1.6154980659484863,-0.06,-0.04,0.03,0.07
1.6254940032958984,0.03,-0.06,0.07,0.09
1.6353168487548828,0.08,-0.03,0.09,0.12
1.645462989807129,0.14,0.02,0.13,0.19
1.6554718017578125,0.22,0.01,0.17,0.27
1.665416955947876,0.29,0.03,0.11,0.31
1.6960678100585938,0.24,0.0,0.04,0.24
1.696639060974121,0.14,-0.01,0.04,0.14
1.6971678733825684,0.08,-0.01,0.03,0.08
1.7052698135375977,-0.04,-0.03,-0.02,0.05
1.7153310775756836,-0.14,-0.01,-0.07,0.15
1.7252888679504395,-0.15,0.0,-0.03,0.15
1.7351739406585693,-0.04,-0.01,0.06,0.07
1.7453150749206543,0.1,0.01,0.0,0.1
1.7554078102111816,0.05,-0.02,-0.01,0.05
1.765298843383789,-0.12,-0.05,-0.03,0.13
1.7963509559631348,-0.21,0.02,-0.07,0.22
1.7969448566436768,-0.11,-0.02,0.04,0.11
1.7975249290466309,-0.14,0.0,-0.07,0.15
1.8052330017089844,-0.17,-0.01,-0.09,0.19
1.8151907920837402,-0.12,-0.01,-0.03,0.12
1.8252198696136475,-0.07,-0.02,0.02,0.07
1.8352899551391602,-0.04,-0.02,0.09,0.1
1.8452439308166504,-0.03,-0.01,0.07,0.07
1.855288028717041,-0.01,-0.02,0.09,0.09
1.86506986618042,0.07,-0.01,0.15,0.16
1.8966708183288574,0.06,0.0,0.06,0.08
1.8972477912902832,0.11,0.0,-0.08,0.13
1.897796869277954,0.15,-0.01,-0.13,0.19
1.9050979614257812,0.03,0.01,-0.12,0.12
1.9151029586791992,-0.11,0.0,-0.01,0.11
1.9250798225402832,-0.15,-0.02,0.01,0.15
1.935351848602295,-0.07,-0.01,0.01,0.07
1.9450058937072754,0.0,-0.01,0.02,0.02
1.9550747871398926,0.03,0.0,0.06,0.06
1.9650278091430664,0.07,0.03,0.08,0.11
1.9964847564697266,0.17,0.02,0.04,0.17
1.9970729351043701,0.33,0.0,0.0,0.33
1.997647762298584,0.32,-0.02,0.03,0.32
2.004974842071533,0.03,0.01,0.1,0.1
2.014925003051758,-0.17,-0.06,0.24,0.3
2.0249338150024414,-0.22,-0.03,0.27,0.34
2.034872055053711,-0.23,0.02,0.19,0.29
2.044888973236084,-0.08,-0.05,0.08,0.12
2.0549540519714355,0.29,-0.03,-0.02,0.29
2.065034866333008,0.49,-0.02,-0.09,0.49
2.097172737121582,0.38,0.0,-0.12,0.39
2.097764015197754,0.13,0.01,-0.07,0.14
2.098306894302368,0.1,0.01,-0.07,0.12
2.1048638820648193,0.33,0.02,-0.06,0.33
2.114790916442871,0.46,0.0,0.02,0.46
2.124811887741089,0.34,0.05,0.14,0.37
2.134755849838257,0.25,0.0,0.21,0.32
2.1447267532348633,0.18,-0.02,0.22,0.28
2.1547739505767822,0.16,0.04,-0.05,0.17
2.164793014526367,0.3,0.14,-0.31,0.45
2.196962833404541,0.34,0.12,-0.35,0.5
2.197540760040283,0.26,0.12,-0.43,0.51
2.198071002960205,0.24,0.06,-0.43,0.49
2.204669952392578,0.26,-0.01,-0.33,0.42
2.2147207260131836,0.09,0.0,-0.37,0.38
2.224639892578125,-0.14,0.07,-0.48,0.5
2.2345669269561768,-0.26,0.07,-0.51,0.57
2.24462890625,-0.34,0.04,-0.46,0.57
2.254642963409424,-0.41,0.05,-0.37,0.55
2.26460599899292,-0.44,0.02,-0.18,0.47
2.297189950942993,-0.53,-0.06,-0.03,0.53
2.2977778911590576,-0.65,-0.04,-0.02,0.65
2.298358917236328,-0.64,-0.02,-0.07,0.64
2.3046369552612305,-0.43,0.01,-0.09,0.43
2.3145270347595215,-0.2,0.02,-0.05,0.2
2.3245058059692383,-0.05,-0.01,0.02,0.05
2.3345139026641846,0.03,0.01,0.1,0.1
2.344526767730713,0.07,0.03,0.1,0.12
2.354546070098877,0.17,0.05,0.06,0.18
2.364426851272583,0.3,0.12,-0.05,0.32
2.3972220420837402,0.49,0.16,-0.2,0.55
2.3978168964385986,0.66,0.23,-0.29,0.75
2.398411750793457,0.78,0.24,-0.3,0.86
2.4043948650360107,0.98,0.23,-0.29,1.04
2.4143548011779785,1.34,0.21,-0.26,1.38
2.424365997314453,1.75,0.2,-0.3,1.78
2.4343419075012207,2.1,0.16,-0.27,2.12
2.44427490234375,2.31,0.04,-0.06,2.31
2.4543967247009277,2.55,0.01,0.18,2.55
2.464357852935791,2.78,0.09,0.41,2.81
2.497452735900879,2.95,0.04,0.59,3.0
2.498039722442627,3.2,0.15,0.69,3.27
2.498641014099121,3.22,0.36,0.82,3.34
2.5042710304260254,2.49,0.62,0.95,2.73
2.514164924621582,2.22,0.66,0.27,2.33
2.5242128372192383,2.19,1.13,-0.51,2.51
2.5341577529907227,2.51,1.99,-1.66,3.6
2.5440597534179688,2.01,2.89,-2.51,4.32
2.554194927215576,2.25,4.29,-2.9,5.64
2.564115047454834,3.1,3.8,-2.18,5.36
2.5959630012512207,2.63,2.81,-1.31,4.06
2.596560001373291,1.6,2.28,-1.76,3.29
2.597135066986084,0.8,1.76,-1.84,2.66
2.6041219234466553,1.43,1.22,-1.45,2.37
2.614076852798462,2.56,0.78,-0.89,2.82
2.624119758605957,3.57,0.25,-0.8,3.66
2.6340880393981934,4.47,-0.14,-0.69,4.52
2.6440000534057617,5.26,-0.42,-0.52,5.3
2.6539950370788574,5.5,-0.11,-0.2,5.5
2.664017915725708,5.15,0.12,-0.09,5.15
2.6963088512420654,5.78,-0.16,-0.47,5.8
2.6969099044799805,6.28,-0.06,-0.1,6.28
2.6974918842315674,6.2,-0.34,0.64,6.24
2.7039828300476074,5.86,-0.59,1.23,6.01
2.7139248847961426,5.34,-0.6,1.58,5.6
2.72501802444458,4.6,-0.7,1.71,4.95
2.733888864517212,4.06,-0.63,1.58,4.4
2.743943929672241,3.76,-0.33,1.33,4.0
2.753952980041504,3.19,-0.09,1.26,3.43
2.7638888359069824,2.38,0.22,1.3,2.72
2.7964539527893066,1.54,0.44,1.19,1.99
2.7970619201660156,0.61,0.35,0.89,1.13
2.797637939453125,0.04,0.3,0.58,0.65
2.803806781768799,0.33,0.47,0.43,0.71
2.8138599395751953,0.5,0.5,0.68,0.98
2.823730945587158,0.39,0.63,0.9,1.16
2.8337650299072266,0.21,0.93,0.96,1.35
2.843798875808716,-0.04,1.1,0.9,1.42
2.853778839111328,-0.75,1.24,0.72,1.61
2.8637828826904297,-1.14,1.15,0.45,1.68
2.8964128494262695,-1.6,1.01,0.43,1.94
2.8970038890838623,-2.85,0.83,0.26,2.97
2.897587776184082,-4.79,0.07,-0.28,4.79
2.9037299156188965,-6.08,-0.91,-0.91,6.21
2.9136788845062256,-5.39,0.47,-1.17,5.53
2.9237139225006104,-3.34,3.33,-1.33,4.9
2.9336538314819336,-3.58,-0.42,-0.55,3.64
2.94353985786438,-6.32,-1.53,-0.44,6.51
2.953476905822754,-8.03,-0.55,-1.38,8.16
2.963606834411621,-8.79,-0.53,-2.17,9.06
2.9913599491119385,-8.48,-0.67,-2.31,8.81
2.992025852203369,-7.95,-0.64,-1.72,8.15
2.9935989379882812,-7.96,-0.57,-1.15,8.06
3.003919839859009,-7.41,0.56,-1.52,7.58
3.0135140419006348,-1.95,1.89,-1.09,2.92
3.023591995239258,5.12,0.86,2.06,5.58
3.0334999561309814,6.9,-0.82,3.67,7.85
3.0435099601745605,2.66,0.9,3.04,4.13
3.053389072418213,-3.47,5.08,1.24,6.27
3.06345272064209,-8.31,2.18,-3.36,9.22
3.0931949615478516,-11.39,1.37,-6.41,13.14
3.093864917755127,-6.79,5.99,-3.74,9.79
3.094507932662964,-1.21,1.03,2.29,2.78
3.1033389568328857,-1.7,-4.2,3.64,5.81
3.1132829189300537,-3.15,-2.89,1.58,4.55
3.1234450340270996,-3.12,-0.42,0.31,3.16
3.1333799362182617,-3.35,0.48,-0.57,3.43
3.1434288024902344,-3.15,0.68,-0.66,3.28
3.153319835662842,-1.95,0.67,-0.53,2.12
3.163355827331543,-1.24,0.25,-1.61,2.04
3.194133758544922,-1.44,-0.01,-0.61,1.56
3.194838047027588,-1.4,0.05,0.57,1.51
3.195523738861084,-0.59,0.02,0.66,0.88
3.2031538486480713,0.18,0.19,-0.11,0.28
3.213291883468628,0.13,0.24,-0.63,0.68
3.223341941833496,0.15,0.11,-0.75,0.77
3.233276844024658,0.35,0.05,-0.59,0.68
3.243271827697754,0.54,-0.01,-0.34,0.63
3.2531778812408447,0.63,-0.07,-0.1,0.64
3.263267993927002,0.48,-0.08,-0.11,0.49
3.294853925704956,0.11,-0.04,-0.19,0.22
3.29555606842041,-0.13,0.01,-0.09,0.15
3.296236038208008,-0.18,0.03,-0.14,0.23
3.303030014038086,0.03,0.02,-0.09,0.09
3.313093900680542,0.12,0.02,-0.05,0.13
3.323178768157959,0.1,0.06,-0.09,0.14
3.333171844482422,0.17,0.07,-0.23,0.29
3.343297004699707,0.06,0.06,-0.39,0.39
3.3532967567443848,-0.2,0.03,-0.49,0.53
3.3629679679870605,-0.22,-0.01,-0.51,0.55
3.3952338695526123,-0.16,-0.04,-0.4,0.43
3.3959360122680664,-0.17,0.03,-0.35,0.39
3.3966028690338135,-0.26,0.03,-0.24,0.35
3.403223991394043,-0.7,-0.1,-0.18,0.72
3.412989854812622,-1.05,-0.14,-0.15,1.06
3.423006057739258,-1.03,-0.09,0.0,1.03
3.4329867362976074,-0.58,-0.07,0.08,0.58
3.443013906478882,-0.18,-0.05,0.12,0.22
3.453289031982422,-0.09,-0.04,0.04,0.1
3.462920904159546,-0.07,-0.03,-0.1,0.12
3.4949889183044434,0.12,0.11,-0.05,0.17
3.4956469535827637,0.22,0.03,0.13,0.25
3.4962940216064453,0.05,0.01,0.11,0.12
3.50278902053833,-0.03,0.14,0.03,0.14
3.512773036956787,-0.1,0.13,0.05,0.17
3.522857904434204,-0.07,0.21,-0.08,0.23
3.5327858924865723,0.28,0.16,-0.36,0.48
3.542827844619751,0.67,0.1,-0.64,0.93
3.5528178215026855,1.0,0.13,-0.8,1.28
3.5628037452697754,1.22,0.05,-0.79,1.45
3.595864772796631,1.31,0.04,-0.55,1.42
3.596564769744873,1.54,0.19,-0.17,1.56
3.597221851348877,1.91,0.25,0.05,1.92
3.6026878356933594,2.43,0.19,0.21,2.44
3.612689971923828,2.98,0.23,0.22,2.99
3.622736930847168,3.6,0.32,0.29,3.62
3.632654905319214,3.83,0.38,-0.03,3.84
3.6426539421081543,3.48,0.29,-0.09,3.49
3.652585983276367,3.28,0.33,0.04,3.29
3.662587881088257,3.27,0.65,0.12,3.33
3.696178913116455,3.3,1.12,-0.11,3.48
3.696870803833008,3.25,1.43,-0.59,3.59
3.6978750228881836,3.15,1.6,-0.57,3.57
3.702475070953369,2.7,1.95,-0.42,3.35
3.7124710083007812,1.32,3.03,-0.48,3.33
3.72249174118042,0.54,5.45,0.01,5.47
3.732527732849121,1.52,5.35,2.06,5.93
3.742522954940796,2.24,4.09,2.11,5.11
3.752563953399658,3.04,4.54,1.4,5.64
3.7625198364257812,2.97,4.75,1.09,5.7
3.7957799434661865,3.18,4.72,0.55,5.71
3.796426773071289,3.42,4.47,0.04,5.62
3.7970948219299316,3.38,4.07,-0.26,5.29
3.8024048805236816,3.52,4.36,-0.76,5.65
3.8124048709869385,4.04,5.25,-1.28,6.74
3.8224148750305176,4.98,6.09,-1.82,8.07
3.8323769569396973,5.54,6.72,-2.37,9.02
3.8424429893493652,4.93,5.97,-2.98,8.29
3.8523428440093994,2.62,4.1,-2.06,5.28
3.862320899963379,-0.8,5.23,-1.09,5.4
3.8958940505981445,-0.71,5.46,-3.9,6.74
3.8965487480163574,2.07,3.77,-3.22,5.37
3.8975489139556885,4.14,1.73,-0.95,4.58
3.902287006378174,5.17,-0.3,-0.04,5.17
3.912240982055664,6.43,-0.92,0.38,6.5
3.9222989082336426,1.32,-2.06,1.08,2.67
3.9322237968444824,-2.7,-1.26,-0.5,3.02
3.9422788619995117,2.48,-0.12,-2.84,3.77
3.9522318840026855,9.11,0.34,-1.49,9.23
3.962256908416748,11.22,-0.57,0.64,11.25
3.995121955871582,10.24,-2.01,2.15,10.65
3.9957938194274902,8.47,-2.48,2.62,9.2
3.9964358806610107,8.04,-2.44,2.25,8.69
4.00218391418457,8.19,-2.45,1.8,8.73
4.012190818786621,8.06,-2.4,1.33,8.51
4.022186756134033,7.12,-2.41,1.16,7.6
4.0321807861328125,5.5,-2.62,1.33,6.23
4.04216194152832,4.43,-2.64,1.27,5.31
4.052093029022217,3.8,-2.28,1.1,4.56
4.062038898468018,3.17,-2.03,1.08,3.91
4.095277786254883,2.68,-1.85,1.24,3.48
4.095932960510254,2.43,-1.47,1.45,3.18
4.096592903137207,2.08,-0.75,1.75,2.81
4.102007865905762,1.17,0.36,1.54,1.96
4.112060070037842,-0.29,1.48,0.69,1.65
4.1220009326934814,-1.36,2.19,-0.48,2.62
4.131930828094482,-1.78,2.83,-1.36,3.6
4.1420159339904785,-2.83,3.84,-1.07,4.88
4.15198278427124,-4.6,5.1,-0.76,6.9
4.16196084022522,-5.93,5.98,-1.39,8.53
4.196012020111084,-7.04,6.1,-2.19,9.56
4.197033882141113,-7.21,5.06,-2.86,9.26
4.197693824768066,-7.24,3.8,-3.11,8.74
4.201825857162476,-7.89,3.35,-3.4,9.22
4.211853981018066,-9.21,3.16,-3.61,10.38
4.221905946731567,-10.1,2.45,-3.4,10.93
4.2318878173828125,-10.39,1.65,-2.91,10.91
4.241860866546631,-10.28,1.26,-2.84,10.73
4.251792907714844,-10.21,0.56,-2.76,10.59
4.261709928512573,-10.33,-0.54,-2.38,10.61
4.294533729553223,-10.29,-1.47,-1.83,10.55
4.295190811157227,-9.96,-1.5,-1.55,10.19
4.295830726623535,-7.97,3.11,-1.3,8.65
4.301727771759033,-7.43,4.21,-1.49,8.66
4.3117899894714355,-8.83,0.72,-1.19,8.93
4.321709871292114,-3.58,1.02,-0.37,3.74
4.331702947616577,8.27,1.77,4.61,9.63
4.3416748046875,14.39,-0.03,8.13,16.52
4.351711750030518,7.94,-0.14,3.81,8.8
4.361724853515625,-2.4,0.47,-0.31,2.46
4.3954010009765625,-9.16,-0.87,-2.33,9.49
4.39607572555542,-9.4,0.29,-3.87,10.16
4.39705491065979,-5.65,4.91,-2.8,7.99
4.401673793792725,-2.92,8.2,0.18,8.7
4.411630868911743,-2.58,5.22,0.63,5.85
4.4215989112854,-3.78,0.81,0.62,3.91
4.431388854980469,-5.22,0.59,-0.22,5.25
4.441557884216309,-5.87,-0.07,-2.46,6.36
4.451521873474121,-4.51,0.88,-1.21,4.75
4.46149206161499,-3.05,0.25,0.54,3.1
4.495559930801392,-2.1,-0.86,0.37,2.29
4.496551036834717,-1.41,-0.69,0.08,1.57
4.497196912765503,-0.89,-0.26,0.3,0.97
4.501468896865845,-0.73,-0.21,0.35,0.83
4.511514902114868,-0.36,-0.09,0.16,0.4
4.521328926086426,0.01,0.13,0.03,0.13
4.531261920928955,0.13,0.2,0.01,0.23
4.541419982910156,-0.01,0.16,-0.05,0.16
4.551366806030273,-0.12,0.09,-0.03,0.15
4.561433792114258,-0.17,-0.04,-0.14,0.22
4.596186876296997,-0.16,0.03,-0.62,0.64
4.597113847732544,-0.08,0.07,-0.99,0.99
4.597753047943115,0.02,-0.1,-1.02,1.02
4.6013219356536865,0.36,-0.18,-1.13,1.19
4.611301898956299,0.51,-0.25,-1.1,1.23
4.621088981628418,0.36,-0.2,-1.0,1.08
4.631450891494751,0.17,0.06,-0.88,0.89
4.641270875930786,-0.07,0.14,-0.43,0.45
4.6512579917907715,-0.41,-0.02,-0.06,0.41
4.661236763000488,-0.65,-0.05,0.08,0.65
4.696207046508789,-0.83,-0.03,-0.02,0.83
4.697075843811035,-1.06,-0.07,-0.09,1.06
4.697727918624878,-1.04,0.01,-0.25,1.06
4.701166868209839,-0.75,0.16,-0.4,0.86
4.711133003234863,-0.41,0.16,-0.43,0.61
4.721019744873047,-0.09,0.1,-0.46,0.47
4.731135845184326,0.26,0.03,-0.61,0.66
4.741151809692383,0.32,-0.08,-0.56,0.64
4.75107479095459,0.18,-0.08,-0.64,0.66
4.761168956756592,0.16,-0.11,-0.53,0.56
4.7960920333862305,0.16,-0.02,-0.25,0.29
4.796909809112549,0.36,-0.04,-0.32,0.48
4.797553062438965,0.79,-0.13,-0.72,1.07
4.801060914993286,1.12,-0.2,-0.69,1.33
4.811070919036865,1.04,-0.21,-0.36,1.12
4.821058750152588,0.62,-0.07,-0.11,0.63
4.830960750579834,0.17,0.07,0.24,0.3
4.8410210609436035,-0.26,0.19,0.54,0.62
4.851038932800293,-0.48,0.24,0.67,0.85
4.861018896102905,-0.49,0.12,0.52,0.72
4.896425724029541,-0.58,0.13,0.22,0.63
4.897044897079468,-0.61,0.16,0.17,0.65
4.897629737854004,-0.3,0.16,0.15,0.37
4.900867938995361,0.13,0.24,0.05,0.27
4.910929918289185,0.45,0.21,0.03,0.49
4.921051979064941,0.73,-0.03,-0.06,0.73
4.930984020233154,0.87,-0.12,0.14,0.88
4.940832853317261,0.93,-0.04,0.59,1.1
4.950769901275635,1.22,0.1,0.78,1.45
4.960861921310425,1.8,0.27,0.54,1.89
4.996978759765625,2.28,0.34,0.08,2.3
4.997623920440674,2.33,0.3,-0.26,2.36
4.9982688426971436,2.05,0.37,-0.37,2.11
5.000661849975586,1.9,0.44,-0.37,1.98
5.0107550621032715,2.22,0.61,-0.22,2.31
5.0206217765808105,2.71,0.77,-0.31,2.83
5.0305938720703125,3.0,0.64,-0.21,3.07
5.040670871734619,3.37,0.69,-0.26,3.44
5.050641059875488,3.46,0.98,-0.88,3.7
5.060689926147461,3.16,1.22,-1.3,3.62
5.0707597732543945,2.69,1.65,-1.45,3.47
5.097901821136475,1.92,2.02,-0.49,2.82
5.098543882369995,1.42,2.75,0.55,3.14
5.100586891174316,1.69,3.37,0.35,3.78
5.110621929168701,3.39,4.27,-0.1,5.45
5.1205878257751465,4.24,4.41,1.3,6.25
5.130582809448242,5.21,4.45,0.63,6.88
5.140584945678711,4.98,4.57,0.74,6.79
5.150522947311401,4.15,4.1,0.46,5.85
5.1605730056762695,3.87,4.17,-0.04,5.68
5.170506954193115,4.39,4.86,-0.47,6.56
5.1979780197143555,4.68,5.54,-0.57,7.27
5.198620796203613,3.85,5.71,-0.5,6.9
5.200425863265991,3.41,5.94,-0.41,6.86
5.210536003112793,3.83,6.3,-0.83,7.41
5.220473766326904,5.68,6.94,-1.63,9.11
5.230485916137695,7.57,7.09,-2.99,10.79
5.240455865859985,7.71,6.74,-3.75,10.9
5.250433921813965,4.45,7.43,-1.49,8.78
5.26052188873291,-0.21,8.36,-0.45,8.37
5.270411014556885,-2.7,6.85,-3.64,8.21
5.297928810119629,-0.5,4.22,-3.23,5.33
5.298573970794678,4.19,3.03,-1.9,5.5
5.300234794616699,8.53,1.35,-1.92,8.84
5.3103437423706055,9.12,-2.81,-0.45,9.55
5.320311069488525,1.36,-4.28,0.44,4.51
5.330208778381348,-3.1,-2.58,-3.62,5.41
5.340254783630371,2.37,0.55,-4.49,5.1
5.350269794464111,8.11,-1.05,-1.58,8.32
5.360263824462891,10.6,-2.43,0.8,10.9
5.370244979858398,10.34,-3.38,1.9,11.04
5.397049903869629,8.59,-3.91,2.48,9.75
5.397669792175293,6.87,-4.3,2.56,8.49
5.40018892288208,5.92,-4.76,2.34,7.94
5.410168886184692,5.74,-4.83,2.3,7.84
5.420176982879639,5.53,-4.53,2.35,7.52
5.430022954940796,5.02,-4.04,2.18,6.8
5.440083980560303,4.3,-3.71,1.94,6.0
5.450149059295654,3.87,-3.39,1.87,5.47
5.460193872451782,3.84,-2.97,2.11,5.29
5.47012186050415,3.79,-2.31,2.88,5.29
5.497160911560059,3.5,-1.48,3.82,5.38
5.497767925262451,3.11,-0.28,4.39,5.38
5.500076770782471,2.97,1.16,4.12,5.2
5.510084867477417,2.12,2.27,2.57,4.03
5.519991874694824,-0.07,3.59,0.17,3.59
5.530128002166748,-2.7,4.93,-1.44,5.8
5.539993762969971,-5.03,6.32,-1.82,8.27
5.549965858459473,-6.69,8.3,-2.19,10.88
5.559967041015625,-7.28,9.12,-2.81,12.0
5.56982684135437,-6.85,8.33,-3.15,11.23
5.597074031829834,-6.71,6.18,-3.31,9.7
5.597669839859009,-8.45,3.91,-4.07,10.16
5.59992790222168,-11.24,2.97,-5.27,12.76
5.609951019287109,-12.92,3.45,-5.58,14.49
5.619876861572266,-11.58,5.38,-5.04,13.72
5.629907846450806,-12.44,-1.15,-3.97,13.1
5.639908790588379,-13.25,-0.7,-4.13,13.89
5.649846076965332,-12.93,-0.27,-4.41,13.66
5.677886962890625,-12.34,-0.47,-4.4,13.1
5.678480863571167,-11.65,-0.35,-3.66,12.21
5.67980694770813,-10.53,-0.4,-2.67,10.87
5.6897759437561035,-7.65,-0.2,-0.8,7.69
5.699728012084961,-3.18,1.67,0.19,3.59
5.709794998168945,5.79,3.18,3.22,7.34
5.719743728637695,9.05,0.94,7.13,11.55
5.729826927185059,2.55,-0.86,2.99,4.02
5.739811897277832,-4.08,1.59,-1.77,4.72
5.749644756317139,-6.15,5.31,-1.69,8.29
5.780045032501221,-5.4,7.88,-1.25,9.63
5.780653953552246,-6.05,5.61,-1.36,8.36
5.781260967254639,-5.28,1.83,-1.5,5.78
5.789679050445557,-4.12,-0.03,-1.55,4.4
5.799637794494629,-3.0,-0.23,0.26,3.02
5.809663772583008,-3.12,-1.37,0.73,3.48
5.819601058959961,-3.67,-1.38,0.09,3.92
5.829442977905273,-3.98,-0.34,-0.29,4.0
5.839554786682129,-3.28,0.27,-0.13,3.29
5.849575996398926,-2.54,0.27,-0.16,2.55
5.880758762359619,-1.91,-0.03,-0.35,1.94
5.8814167976379395,-1.14,-0.17,-0.5,1.25
5.882025957107544,-0.54,0.14,-0.38,0.67
5.889518737792969,-0.24,0.41,-0.07,0.48
5.899539947509766,-0.29,0.46,0.06,0.54
5.909467935562134,-0.11,0.25,0.05,0.27
5.919477939605713,0.09,-0.04,-0.2,0.22
5.929483890533447,0.26,-0.14,-0.64,0.7
5.939380884170532,0.59,0.1,-1.1,1.25
5.949484825134277,0.6,0.19,-1.57,1.69
5.980970859527588,0.27,-0.16,-1.38,1.41
5.981626987457275,-0.24,-0.4,-1.13,1.22
5.9822728633880615,-0.67,-0.22,-1.04,1.25
5.989138841629028,-0.93,0.23,-0.86,1.28
5.999413013458252,-0.8,0.33,-0.26,0.9
6.0093207359313965,-0.54,0.06,0.0,0.54
6.019335746765137,-0.44,-0.12,-0.5,0.67
6.029253959655762,-0.68,-0.2,-0.52,0.87
6.039170742034912,-0.76,0.04,-0.17,0.77
6.049330949783325,-0.36,0.35,0.05,0.5
6.081641912460327,0.08,0.37,0.07,0.38
6.082298755645752,0.51,0.03,-0.18,0.54
6.082936763763428,0.63,-0.19,-0.55,0.85
6.089102745056152,0.55,-0.19,-0.77,0.96
6.09920597076416,0.57,-0.19,-0.85,1.04
6.109234809875488,0.68,-0.27,-0.99,1.23
6.119164943695068,0.57,-0.4,-1.06,1.26
6.129181861877441,0.46,-0.44,-1.08,1.25
6.139105796813965,0.43,-0.48,-0.99,1.18
6.149070739746094,0.38,-0.21,-0.7,0.82
6.18113899230957,0.2,0.48,-0.37,0.63
6.181797027587891,0.01,0.47,0.5,0.68
6.18242883682251,0.05,0.33,1.0,1.05
6.18902587890625,0.36,0.36,0.77,0.92
6.199132919311523,0.65,0.28,0.61,0.93
6.209086894989014,0.48,0.22,0.34,0.62
6.219063758850098,0.42,0.34,-0.12,0.55
6.228978872299194,0.3,0.27,-0.28,0.49
6.239017963409424,0.04,0.08,-0.51,0.51
6.249011993408203,-0.02,-0.17,-0.68,0.7
6.281051874160767,0.16,-0.39,-0.71,0.82
6.281671047210693,0.6,-0.47,-0.82,1.11
6.282272815704346,1.14,-0.33,-0.81,1.43
6.289000034332275,1.37,0.04,-0.57,1.48
6.298869848251343,1.21,0.23,-0.17,1.24
6.308940887451172,0.73,0.4,0.21,0.85
6.318813800811768,0.75,0.53,0.65,1.12
6.329693794250488,1.29,0.61,0.97,1.72
6.33905291557312,1.68,0.7,0.82,1.99
6.348954916000366,2.01,0.99,0.58,2.31
6.381302833557129,2.27,1.24,0.19,2.59
6.381914854049683,2.65,1.38,-0.16,2.99
6.382516860961914,3.07,1.39,-0.25,3.37
6.389001846313477,2.72,1.4,-0.26,3.07
6.398793935775757,2.05,1.41,-0.27,2.5
6.408853054046631,1.79,1.31,-0.28,2.23
6.418644905090332,1.88,1.53,0.18,2.43
6.4286768436431885,2.1,1.85,-0.9,2.93
6.439094066619873,3.26,2.31,-1.8,4.38
6.448720932006836,3.49,2.95,-0.51,4.59
6.481525897979736,2.97,2.8,-0.85,4.16
6.482143878936768,3.45,2.85,-0.37,4.49
6.482745885848999,4.03,2.83,0.08,4.92
6.489047050476074,4.49,2.74,0.11,5.26
6.498726844787598,4.52,3.19,0.31,5.54
6.508692741394043,4.47,3.73,0.19,5.82
6.518638849258423,4.56,4.16,0.04,6.17
6.528611898422241,4.69,4.51,0.06,6.5
6.538547039031982,4.61,4.62,-0.02,6.52
6.548641920089722,4.21,4.48,-0.13,6.14
6.5812928676605225,3.64,4.21,-0.4,5.57
6.581899881362915,2.94,4.41,-1.36,5.47
6.582489967346191,3.07,5.0,-2.23,6.27
6.588481903076172,2.99,5.65,-1.87,6.66
6.598363876342773,0.82,7.11,-0.05,7.15
6.608675003051758,-0.72,6.18,-1.33,6.36
6.618610858917236,1.09,5.58,-3.15,6.49
6.628499984741211,3.49,4.89,-2.7,6.58
6.63844895362854,4.9,3.06,-1.81,6.05
6.648324966430664,5.48,0.45,-1.12,5.61
6.6818318367004395,7.03,0.28,-0.22,7.03
6.682433843612671,3.09,-0.2,0.86,3.21
6.683359861373901,0.08,-0.03,-1.01,1.01
6.6883697509765625,3.14,0.54,-2.35,3.95
6.69836688041687,6.43,0.37,-0.83,6.49
6.708335876464844,7.88,-0.54,0.49,7.91
6.718256950378418,7.71,-1.73,1.03,7.96
6.728336811065674,6.98,-2.89,1.07,7.63
6.738304853439331,6.3,-3.56,0.99,7.3
6.748304843902588,5.55,-3.77,1.0,6.78
6.782033920288086,4.92,-3.4,0.84,6.03
6.782666921615601,4.54,-2.87,0.63,5.4
6.783582925796509,4.46,-2.39,0.35,5.07
6.788205862045288,4.48,-2.05,0.15,4.92
6.798233985900879,4.73,-1.89,0.1,5.09
6.8082709312438965,4.6,-1.61,0.14,4.87
6.818136930465698,4.12,-1.42,0.29,4.36
6.8282248973846436,3.48,-1.36,0.65,3.79
6.83820104598999,3.01,-1.4,0.91,3.44
6.848928928375244,2.85,-1.21,1.02,3.25
6.882623910903931,3.17,-0.74,1.04,3.41
6.883563995361328,3.61,0.02,0.99,3.74
6.884151935577393,2.76,1.28,0.55,3.09
6.8881049156188965,1.07,2.31,-0.66,2.62
6.898167848587036,-0.3,2.81,-1.98,3.45
6.908145904541016,-0.94,3.53,-2.66,4.51
6.9180519580841064,-1.79,4.86,-2.71,5.84
6.928104877471924,-3.08,5.48,-2.62,6.81
6.938062906265259,-4.5,4.66,-2.63,6.99
6.948046922683716,-5.61,3.59,-2.66,7.17
6.982658863067627,-6.71,3.2,-2.89,7.97
6.983598947525024,-8.23,3.55,-3.4,9.58
6.98419189453125,-9.0,8.3,-3.89,12.84
6.987943887710571,-7.95,7.17,-4.12,11.47
6.997971057891846,-13.35,0.62,-3.54,13.82
7.008036851882935,-13.49,0.88,-3.62,13.99
7.017965793609619,-12.34,1.68,-2.31,12.66
7.0279717445373535,-10.92,0.33,-1.31,11.0
7.037901878356934,-10.46,-1.0,-0.42,10.51
7.047934055328369,-10.34,-0.5,0.68,10.37
7.082831859588623,-10.18,0.58,1.35,10.28
7.083622932434082,-10.67,1.32,1.07,10.8
7.084199905395508,-6.92,2.39,-2.5,7.73
7.087854862213135,2.41,2.36,-1.02,3.52
7.0977067947387695,6.4,3.22,1.55,7.33
7.107857942581177,3.39,8.46,2.29,9.39
7.117853879928589,-4.75,6.26,2.43,8.22
7.1277618408203125,-9.51,-2.14,-1.89,9.92
7.13771390914917,-10.56,-2.82,-5.24,12.12
7.147781848907471,-8.79,2.07,-5.3,10.47
7.182575941085815,-6.56,1.11,-2.13,6.98
7.183445930480957,-5.54,-1.51,0.94,5.81
7.184032917022705,-4.29,-1.77,3.22,5.64
7.187625885009766,-3.05,-0.49,2.83,4.18
7.197704792022705,-3.14,0.2,0.84,3.25
7.207653045654297,-2.99,0.06,0.08,2.99
7.217658996582031,-1.57,0.31,0.32,1.63
7.227701902389526,-0.03,0.47,0.4,0.61
7.237658977508545,0.54,0.26,0.25,0.64
7.247644901275635,0.24,-0.11,0.06,0.27
7.28337287902832,-0.04,0.0,-0.31,0.31
7.283963918685913,-0.33,0.13,-0.96,1.02
7.2845518589019775,-0.79,0.23,-1.84,2.01
7.287615776062012,-0.99,0.27,-2.15,2.38
7.297668933868408,-0.89,0.12,-2.09,2.27
7.3077168464660645,-0.51,-0.14,-1.68,1.76
7.3175368309021,-0.24,-0.23,-0.95,1.0
7.327544927597046,0.08,-0.02,-0.31,0.32
7.337486743927002,0.29,0.08,0.08,0.31
7.347326755523682,0.2,0.11,0.3,0.37
7.383525848388672,-0.15,0.04,0.25,0.29
7.384123802185059,-0.68,-0.04,0.13,0.69
7.384702920913696,-1.08,-0.03,-0.1,1.08
7.387379884719849,-1.13,-0.04,-0.34,1.18
7.397409915924072,-1.1,0.03,-0.4,1.17
7.4074177742004395,-0.8,0.0,-0.39,0.89
7.417359828948975,-0.51,-0.07,-0.45,0.68
7.427340984344482,-0.17,-0.01,-0.49,0.51
7.437341928482056,0.06,0.05,-0.11,0.13
7.447385787963867,0.14,0.12,-0.06,0.19
7.483680725097656,0.22,0.17,-0.06,0.28
7.484217882156372,0.42,0.13,-0.06,0.44
7.484763860702515,0.59,0.01,-0.28,0.65
7.487277984619141,0.69,0.06,-0.27,0.74
7.497323036193848,0.79,0.08,-0.16,0.81
7.507174968719482,0.57,-0.03,-0.13,0.58
7.5172858238220215,0.21,-0.04,0.06,0.22
7.5272839069366455,0.0,-0.03,0.2,0.2
7.537226915359497,-0.03,-0.05,0.24,0.24
7.547323942184448,0.02,0.02,0.06,0.06
7.584123849868774,0.07,0.1,-0.31,0.33
7.584713935852051,0.02,0.2,-0.45,0.49
7.585301876068115,-0.14,0.32,-0.55,0.65
7.5870537757873535,-0.2,0.33,-0.55,0.67
7.597078800201416,-0.14,0.28,-0.49,0.58
7.60700798034668,0.04,0.32,-0.31,0.44
7.617099761962891,0.41,0.4,-0.25,0.62
7.627175807952881,0.87,0.54,-0.32,1.07
7.637080907821655,1.51,0.63,-0.32,1.66
7.647113800048828,1.9,0.55,0.05,1.97
7.684218883514404,2.13,0.61,0.07,2.21
7.684809923171997,2.71,0.58,-0.07,2.77
7.685372829437256,3.32,0.58,0.05,3.37
7.686928749084473,3.7,0.92,-0.13,3.81
7.697032928466797,4.36,1.17,-0.54,4.54
7.706796884536743,4.58,2.1,-0.69,5.08
7.716911792755127,4.8,3.32,-0.47,5.85
7.7269508838653564,4.89,3.64,-0.31,6.1
7.736897945404053,5.11,3.88,-0.23,6.42
7.7469048500061035,5.43,3.78,0.3,6.62
7.783922910690308,5.3,3.38,0.56,6.31
7.784517765045166,4.68,3.44,0.48,5.82
7.785094738006592,4.14,3.57,0.43,5.48
7.786836862564087,3.95,3.62,0.45,5.37
7.7968668937683105,3.85,3.75,0.27,5.38
7.80682897567749,3.82,3.92,0.13,5.47
7.816746950149536,3.48,3.82,-0.15,5.16
7.826855897903442,2.85,3.47,-0.55,4.52
7.836727857589722,2.14,3.44,-0.67,4.1
7.846799850463867,1.48,4.13,-0.93,4.48
7.884930849075317,1.13,5.6,-1.62,5.93
7.885524749755859,1.17,6.47,-2.37,6.98
7.886103868484497,1.25,6.3,-2.35,6.83
7.8867058753967285,0.76,6.77,-1.48,6.97
7.896677017211914,0.32,6.77,-3.13,7.46
7.906868934631348,1.47,4.45,-3.88,6.08
7.916528940200806,3.65,3.6,-2.01,5.5
7.926661014556885,5.75,2.76,-0.66,6.41
7.936570882797241,7.88,0.6,-0.46,7.91
7.946676731109619,8.66,-2.06,-0.28,8.9
7.985568046569824,3.07,-2.16,1.09,3.9
7.9861860275268555,-0.7,-1.72,-0.85,2.04
7.986774921417236,2.28,0.18,-3.83,4.46
7.987350940704346,7.24,-0.41,-3.31,7.97
7.996590852737427,9.64,-1.23,-1.08,9.77
8.006906986236572,10.35,-1.62,0.45,10.48
8.016516923904419,9.51,-2.08,1.7,9.88
8.026579856872559,8.09,-2.54,2.38,8.8
8.036504745483398,6.93,-2.85,2.3,7.83
8.046485900878906,6.19,-2.74,1.76,6.99
8.056494951248169,5.79,-2.29,1.0,6.3
8.086352825164795,5.25,-2.06,0.51,5.66
8.086936950683594,4.62,-2.0,0.2,5.03
8.087514877319336,4.07,-1.81,-0.06,4.45
8.096459865570068,3.47,-1.42,-0.03,3.74
8.106249809265137,3.02,-1.1,0.25,3.22
8.116381883621216,2.59,-0.86,0.62,2.79
8.126348972320557,1.94,-0.7,1.1,2.33
8.136387825012207,1.7,-0.32,1.33,2.18
8.146360874176025,2.26,0.38,1.38,2.67
8.156336784362793,1.96,1.59,0.84,2.65
8.186248779296875,0.01,3.09,-0.87,3.21
8.186848878860474,-2.4,3.85,-2.67,5.26
8.187429904937744,-4.11,4.46,-3.45,6.97
8.196306943893433,-4.57,4.87,-3.17,7.39
8.206255912780762,-4.43,4.92,-2.09,6.94
8.216178894042969,-4.68,4.8,-1.5,6.86
8.226298809051514,-5.78,4.21,-1.8,7.37
8.23625898361206,-7.43,3.37,-2.57,8.55
8.246236801147461,-8.91,6.35,-3.8,11.58
8.256204843521118,-7.6,10.14,-5.92,13.98
8.2862548828125,-11.44,2.12,-5.03,12.67
8.286849021911621,-12.98,0.49,-3.37,13.41
8.287437915802002,-12.35,0.61,-1.38,12.44
8.29616403579712,-11.16,-0.35,-0.63,11.18
8.306122779846191,-9.83,-0.69,-0.17,9.85
8.316114902496338,-8.65,-0.62,0.15,8.67
8.32622480392456,-7.61,0.03,0.78,7.64
8.336128950119019,-6.57,1.32,1.79,6.93
8.34611177444458,-6.74,2.57,2.29,7.56
8.356019020080566,-3.81,4.01,0.42,5.54
8.386252880096436,2.98,2.82,2.51,4.8
8.386851787567139,3.42,-0.19,2.9,4.48
8.387434005737305,-2.41,1.68,-0.29,2.95
8.396065950393677,-7.09,4.69,-1.17,8.58
8.406041860580444,-7.81,4.13,-0.92,8.88
8.415873050689697,-6.67,2.78,-2.33,7.59
8.425978899002075,-4.49,0.54,-3.5,5.71
8.435942888259888,-4.14,-0.66,-3.47,5.44
8.445994853973389,-3.78,0.77,-1.29,4.06
8.455915927886963,-3.98,-0.83,0.8,4.14
8.486732959747314,-4.37,-2.18,1.08,5.0
8.487336874008179,-4.73,-1.33,0.67,4.95
8.48791790008545,-4.5,0.06,0.62,4.54
8.49592399597168,-3.82,0.69,0.7,3.94
8.505838871002197,-2.65,0.46,0.66,2.76
8.51583480834961,-1.22,0.1,0.41,1.29
8.525821924209595,-0.06,0.01,-0.23,0.23
8.53579592704773,0.61,-0.02,-0.47,0.77
8.545805931091309,0.86,0.06,-0.1,0.86
8.555803775787354,0.85,0.22,-0.23,0.9
8.58735704421997,0.55,0.28,-0.99,1.16
8.587946891784668,0.28,0.17,-1.87,1.89
8.58853006362915,-0.23,0.05,-2.54,2.55
8.595692873001099,-1.23,-0.07,-2.47,2.76
8.605673789978027,-1.71,-0.06,-1.6,2.34
8.615632057189941,-1.24,-0.12,-0.46,1.32
8.625709056854248,-0.4,0.0,0.33,0.51
8.635709762573242,0.22,0.1,0.69,0.73
8.645663738250732,0.45,0.18,0.53,0.71
8.655573844909668,0.38,0.29,0.12,0.49
8.687717914581299,-0.02,0.18,0.05,0.18
8.688304901123047,-0.58,-0.02,0.03,0.58
8.688889980316162,-1.07,-0.09,-0.15,1.08
8.695641040802002,-1.27,-0.17,-0.3,1.31
8.705508947372437,-1.15,-0.24,-0.34,1.22
8.715559005737305,-0.91,-0.08,-0.08,0.91
8.725550889968872,-0.61,0.08,0.09,0.62
8.735566854476929,-0.45,0.04,0.04,0.45
8.745543003082275,-0.46,0.1,-0.01,0.47
8.75550389289856,-0.55,0.19,-0.25,0.63
8.787612915039062,-0.41,0.08,-0.65,0.77
8.788209915161133,-0.07,-0.1,-0.47,0.48
8.788786888122559,0.09,-0.09,-0.34,0.36
8.795464038848877,0.21,-0.14,-0.28,0.37
8.805434942245483,0.29,-0.09,0.13,0.33
8.815428733825684,0.36,-0.05,0.33,0.49
8.825475931167603,0.44,-0.03,0.51,0.67
8.835373878479004,0.54,0.1,0.52,0.75
8.845424890518188,0.72,0.18,0.31,0.8
8.855403900146484,0.97,0.19,-0.01,0.98
8.888177871704102,1.23,0.2,-0.29,1.27
8.888773918151855,1.37,0.21,-0.37,1.43
8.889354944229126,1.35,0.32,-0.52,1.48
8.895365953445435,1.35,0.45,-0.43,1.48
8.905290842056274,1.61,0.5,-0.35,1.72
8.915270805358887,1.97,0.58,-0.27,2.07
8.925160884857178,2.28,0.72,-0.13,2.39
8.935208797454834,2.92,0.89,-0.11,3.05
8.945247888565063,3.53,1.01,-0.05,3.67
8.955185890197754,3.89,1.01,-0.21,4.02
8.988072872161865,4.02,1.21,-0.47,4.22
8.98866081237793,3.64,1.53,-0.39,3.96
8.989237785339355,3.25,2.16,-0.16,3.9
8.99522089958191,3.34,2.66,-0.91,4.36
9.005178928375244,3.85,3.43,-0.63,5.19
9.015113830566406,3.47,3.83,-0.32,5.17
9.024975776672363,3.45,4.05,-0.55,5.34
9.035066843032837,3.49,4.07,-0.05,5.36
9.045135021209717,3.44,4.2,0.0,5.42
9.05494499206543,3.4,4.43,0.36,5.59
9.088526725769043,3.54,4.31,0.55,5.6
9.089118957519531,3.98,4.42,0.43,5.96
9.090037822723389,4.43,4.41,0.34,6.26
9.095003843307495,4.13,4.08,0.13,5.8
9.105002880096436,3.57,4.1,-0.05,5.43
9.115100860595703,2.73,4.45,-0.26,5.22
9.124835968017578,2.15,5.37,-0.81,5.84
9.135249853134155,2.65,6.11,-1.45,6.81
9.145005941390991,3.77,5.68,-2.35,7.21
9.15492582321167,3.86,5.39,-3.04,7.29
9.188652992248535,1.77,5.9,-1.92,6.45
9.189260005950928,-1.18,7.82,-2.83,8.39
9.190160751342773,-0.71,7.1,-4.68,8.53
9.19485592842102,2.37,5.59,-3.08,6.8
9.204762935638428,5.65,3.45,-1.82,6.86
9.214829921722412,8.82,0.45,-1.41,8.94
9.224792957305908,8.39,-2.26,-0.4,8.69
9.234837055206299,0.39,-3.02,0.11,3.04
9.244852066040039,-3.31,-2.19,-3.1,5.03
9.254808902740479,1.31,0.58,-4.26,4.49
9.289011001586914,7.36,0.11,-2.62,7.81
9.289967060089111,10.75,-1.16,-0.68,10.83
9.290555000305176,11.59,-2.12,0.53,11.79
9.294790744781494,10.7,-2.67,1.37,11.11
9.304711818695068,9.38,-2.77,2.04,9.99
9.314684867858887,8.08,-3.06,2.23,8.92
9.324787855148315,7.17,-3.22,1.92,8.09
9.334719896316528,6.42,-2.68,1.31,7.07
9.344747066497803,5.82,-2.19,0.81,6.27
9.354610919952393,5.29,-2.12,0.59,5.72
9.389955997467041,4.63,-2.02,0.5,5.07
9.390544891357422,4.07,-1.78,0.65,4.48
9.39148473739624,3.59,-1.29,1.16,3.98
9.394603729248047,3.05,-0.69,2.05,3.73
9.40459394454956,2.55,0.08,2.85,3.82
9.414568901062012,2.32,1.1,3.41,4.26
9.424863815307617,2.49,2.12,3.28,4.63
9.434467792510986,2.29,2.96,2.01,4.24
9.444671869277954,0.28,4.01,0.2,4.02
9.4545419216156,-2.69,5.03,-1.03,5.79
9.490051746368408,-4.9,5.17,-1.1,7.2
9.490636825561523,-5.46,5.6,-0.64,7.84
9.491573810577393,-5.3,5.69,-0.57,7.79
9.494571924209595,-5.3,5.05,-1.03,7.39
9.504461765289307,-5.63,3.8,-1.69,6.99
9.514479875564575,-6.14,3.01,-2.67,7.34
9.52437973022461,-7.69,3.09,-3.95,9.18
9.534357070922852,-9.63,3.39,-4.97,11.35
9.544447898864746,-10.95,3.02,-5.09,12.44
9.554399013519287,-11.54,1.78,-4.16,12.39
9.590060949325562,-11.31,0.44,-3.76,11.92
9.590649843215942,-10.6,-0.47,-3.48,11.16
9.591234922409058,-9.11,1.44,-2.76,9.62
9.594282865524292,-10.03,0.26,-3.17,10.52
9.604252815246582,-11.46,-0.34,-3.89,12.1
9.614264011383057,-11.09,1.31,-3.53,11.71
9.624260902404785,-10.59,1.05,-2.46,10.92
9.63408374786377,-9.76,0.0,-1.17,9.82
9.644221782684326,-4.11,1.91,-0.91,4.62
9.6542649269104,7.73,3.68,3.36,9.19
9.692535877227783,11.54,1.82,7.8,14.04
9.693222999572754,2.92,0.2,3.02,4.2
9.693861961364746,-8.0,1.94,-2.12,8.5
9.695128917694092,-10.24,3.67,-2.69,11.2
9.704230785369873,-8.27,5.46,-2.29,10.17
9.714104890823364,-5.83,4.69,-1.96,7.73
9.724085807800293,-3.03,0.86,-0.49,3.18
9.733948945999146,-2.51,-0.65,1.0,2.77
9.744160890579224,-5.11,-1.27,-0.33,5.27
9.753994941711426,-7.27,-0.55,-2.2,7.61
9.791243076324463,-7.06,1.77,-1.03,7.35
9.792208909988403,-5.18,0.8,-0.07,5.24
9.792808055877686,-3.43,-0.35,-0.04,3.44
9.793990850448608,-1.86,-0.33,-0.16,1.89
9.803980827331543,-1.14,-0.12,0.41,1.21
9.814096927642822,-1.1,-0.14,1.21,1.64
9.823953866958618,-0.82,0.0,1.39,1.61
9.833988904953003,-0.29,0.25,0.81,0.89
9.843967914581299,0.28,0.23,-0.29,0.46
9.854049921035767,0.5,0.18,-1.12,1.23
9.890914916992188,0.5,0.1,-1.38,1.47
9.891464948654175,0.17,-0.04,-1.4,1.41
9.892380952835083,-0.24,-0.11,-1.41,1.43
9.893870830535889,-0.34,-0.05,-1.22,1.26
9.903869867324829,-0.21,0.01,-0.79,0.81
9.91386604309082,-0.13,0.03,-0.39,0.41
9.923943042755127,-0.25,-0.05,-0.19,0.31
9.933937072753906,-0.36,-0.07,-0.23,0.43
9.943872928619385,-0.25,0.06,-0.35,0.43
9.953875064849854,0.02,0.12,-0.39,0.4
9.990952968597412,-0.18,0.01,-0.32,0.36
9.991541862487793,-0.75,0.05,-0.38,0.84
9.992486953735352,-1.13,0.21,-0.41,1.22
9.99374794960022,-0.95,0.37,-0.5,1.13
10.00377082824707,-0.48,0.33,-0.92,1.08
10.013797760009766,-0.24,0.15,-1.46,1.48
10.023755073547363,-0.13,-0.04,-1.58,1.58
10.033720970153809,0.19,-0.03,-1.34,1.35
10.043717861175537,0.56,0.13,-0.89,1.05
10.053730010986328,0.89,0.06,-0.52,1.03
10.091180801391602,1.16,-0.18,-0.13,1.18
10.092106819152832,1.15,-0.46,0.15,1.24
10.09269094467163,1.17,-0.69,0.17,1.36
10.093845844268799,1.27,-0.41,0.02,1.33
10.103606939315796,0.96,-0.14,-0.1,0.97
10.113671779632568,0.24,-0.08,-0.13,0.28
10.123613834381104,-0.37,0.05,-0.25,0.44
10.133986949920654,-1.01,0.5,-0.24,1.15
10.143605947494507,-1.36,0.49,0.89,1.69
10.153601884841919,-0.74,0.35,1.07,1.34
10.191683769226074,-0.1,0.37,0.43,0.57
10.1926429271698,0.19,0.2,0.24,0.36
10.19325304031372,0.13,0.1,0.08,0.18
10.194401741027832,0.35,0.11,-0.3,0.47
10.203458786010742,0.95,-0.04,-0.76,1.21
10.21349573135376,1.39,-0.16,-0.92,1.67
10.22338581085205,1.73,-0.19,-0.64,1.85
10.233255863189697,2.26,-0.07,-0.64,2.34
10.24348497390747,2.55,0.13,-0.52,2.6
10.253330945968628,2.63,0.13,-0.17,2.63
10.292228937149048,2.45,0.44,-0.08,2.49
10.29281997680664,1.98,0.83,0.13,2.15
10.293400764465332,1.88,0.97,0.21,2.12
10.294609069824219,2.09,1.01,-0.46,2.36
10.303313732147217,2.24,0.78,-0.89,2.53
10.313250064849854,2.42,0.63,-0.65,2.58
10.323138952255249,2.57,0.8,-0.29,2.7
10.3333420753479,2.72,1.28,-0.25,3.01
10.34344482421875,2.86,1.67,-0.32,3.32
10.353354930877686,2.67,2.11,0.1,3.4
10.392157077789307,2.05,2.52,0.32,3.26
10.392744064331055,1.51,3.05,0.5,3.43
10.393326759338379,2.56,3.21,-1.02,4.23
10.394505023956299,3.4,3.57,0.81,4.99
10.403154850006104,2.63,3.19,0.36,4.15
10.413128852844238,3.68,2.49,0.08,4.44
10.423088073730469,4.37,2.65,0.31,5.12
10.433130741119385,4.69,2.47,-0.28,5.3
10.442981958389282,4.9,2.4,-0.24,5.46
10.453099727630615,4.73,2.74,-0.18,5.46
10.492792844772339,4.49,3.06,-0.29,5.44
10.493385791778564,4.34,3.48,-0.3,5.57
10.493973731994629,4.33,3.66,-0.22,5.67
10.495163917541504,4.23,3.79,-0.36,5.69
10.503098011016846,4.17,4.14,-0.66,5.91
10.51305890083313,4.04,4.77,-1.68,6.47
10.52297592163086,4.27,6.12,-2.91,8.0
10.533021926879883,4.8,6.25,-3.14,8.48
10.542922019958496,3.17,6.13,-1.68,7.1
10.55282187461853,-0.13,7.0,-0.28,7.0
10.59277892112732,-0.68,6.11,-2.91,6.8
10.593371868133545,1.76,5.54,-3.84,6.96
10.593945980072021,4.6,4.32,-2.94,6.96
10.59512186050415,6.49,2.55,-2.0,7.25
10.603002071380615,8.52,1.12,-0.99,8.65
10.61294174194336,6.14,-1.89,0.06,6.42
10.622894763946533,-1.63,-2.13,-0.52,2.73
10.632855892181396,-1.51,0.13,-3.91,4.19
10.64274287223816,4.78,0.46,-3.4,5.88
10.652792930603027,8.79,-0.87,-1.64,8.98
10.692993879318237,10.38,-1.71,-0.15,10.52
10.693583965301514,9.65,-2.27,0.63,9.93
10.694164752960205,7.59,-2.85,0.66,8.13
10.695322036743164,5.77,-3.4,0.9,6.75
10.702770948410034,4.88,-3.7,1.07,6.21
10.712709903717041,4.84,-3.7,1.15,6.19
10.722733974456787,4.9,-3.37,0.91,6.01
10.732702732086182,4.84,-3.14,0.6,5.8
10.742620944976807,4.86,-3.02,0.58,5.75
10.752716064453125,4.69,-2.82,0.57,5.5
10.793463945388794,4.35,-2.55,0.77,5.1
10.794067859649658,3.93,-2.26,1.31,4.71
10.794663906097412,3.69,-1.65,1.78,4.41
10.795812845230103,3.76,-0.75,1.88,4.27
10.802597045898438,3.55,0.31,1.73,3.96
10.812593936920166,2.01,1.65,0.71,2.69
10.822619915008545,-0.65,2.84,-1.27,3.17
10.832595825195312,-2.93,3.48,-2.84,5.36
10.842736721038818,-3.85,4.41,-3.45,6.79
10.852609872817993,-4.54,5.54,-3.06,7.78
10.894274950027466,-5.65,5.86,-2.55,8.53
10.894873857498169,-6.72,5.14,-2.4,8.79
10.895455837249756,-7.55,4.38,-2.36,9.04
10.89658498764038,-8.59,4.28,-2.97,10.04
10.902488946914673,-10.06,6.28,-4.08,12.54
10.912489891052246,-9.07,11.73,-5.54,15.82
10.922446727752686,-10.33,3.78,-4.47,11.87
10.93242883682251,-13.14,0.13,-2.26,13.33
10.942409038543701,-12.15,0.92,-0.82,12.21
10.952387809753418,-10.84,0.25,-0.33,10.84
10.994159936904907,-9.83,0.31,-0.05,9.83
10.994755744934082,-9.5,0.74,-0.24,9.53
10.99533987045288,-8.52,1.25,0.2,8.61
10.9965078830719,-6.8,1.71,1.21,7.11
11.002310752868652,-5.02,2.52,2.55,6.16
11.012449741363525,-1.65,3.75,1.99,4.55
11.022289752960205,4.19,2.78,5.1,7.16
11.03232479095459,3.44,0.44,4.98,6.06
11.04230785369873,-3.17,0.79,0.46,3.29
11.052276849746704,-9.08,1.41,-1.36,9.28
11.094730854034424,-9.57,3.54,-1.4,10.29
11.095321893692017,-6.41,5.96,-1.06,8.81
11.095902919769287,-3.91,4.05,-0.98,5.71
11.097386837005615,-3.6,1.6,-1.8,4.33
11.102191925048828,-5.25,-0.41,-3.96,6.58
11.112218856811523,-5.28,2.21,-2.92,6.42
11.122200965881348,-4.68,1.41,-0.56,4.91
11.132185935974121,-3.8,-0.92,-0.11,3.91
11.14216685295105,-3.29,-1.08,-0.46,3.49
11.152070045471191,-2.53,-0.55,-0.58,2.65
11.19459581375122,-1.7,-0.09,-0.12,1.7
11.195188999176025,-1.01,-0.14,0.42,1.1
11.195783853530884,-0.48,-0.28,0.62,0.83
11.197260856628418,0.01,-0.21,0.62,0.65
11.202023983001709,0.31,0.05,0.56,0.64
11.212096929550171,0.28,0.11,0.48,0.56
11.222051858901978,0.23,-0.04,0.24,0.33
11.232068061828613,0.32,-0.13,-0.22,0.4
11.241991996765137,0.52,-0.11,-0.79,0.95
11.252003908157349,0.58,-0.07,-1.18,1.31
11.29497480392456,0.36,0.07,-1.31,1.36
11.295568943023682,0.07,0.28,-1.38,1.4
11.296154022216797,-0.08,0.25,-1.18,1.2
11.297603845596313,-0.09,0.11,-0.95,0.96
11.301923751831055,-0.03,0.05,-1.04,1.04
11.311953067779541,-0.17,-0.07,-0.95,0.96
11.321858882904053,-0.29,-0.1,-0.44,0.53
11.331864833831787,-0.16,-0.12,0.13,0.23
11.341737747192383,0.09,-0.18,0.56,0.59
11.351829051971436,0.32,-0.19,0.66,0.75
11.395217895507812,0.97,0.11,0.23,1.0
11.39580488204956,0.85,0.24,-0.48,1.0
11.396420001983643,0.33,-0.08,-0.65,0.73
11.397840023040771,-0.15,-0.17,-0.64,0.67
11.401802062988281,-0.63,-0.16,-0.54,0.84
11.411771774291992,-1.15,-0.19,-0.23,1.18
11.421711921691895,-1.48,-0.1,0.01,1.48
11.431719779968262,-1.51,-0.13,0.24,1.53
11.441672801971436,-1.46,-0.13,0.33,1.5
11.451582908630371,-1.22,-0.04,0.5,1.31
11.495766878128052,-0.81,0.02,0.52,0.96
11.496691942214966,-0.63,-0.04,-0.03,0.63
11.497277736663818,-0.45,-0.01,-0.44,0.62
11.498388767242432,-0.44,0.16,-0.6,0.76
11.501646995544434,-0.74,0.23,-0.59,0.97
11.511684894561768,-0.7,0.17,-0.32,0.78
11.52161979675293,-0.3,0.16,-0.15,0.37
11.531592845916748,0.27,0.14,-0.1,0.32
11.541542053222656,0.68,0.09,0.01,0.68
11.551596879959106,0.86,0.07,-0.14,0.87
11.596089839935303,1.08,0.06,-0.09,1.08
11.597020864486694,1.35,0.18,-0.01,1.36
11.597602844238281,1.24,0.36,0.05,1.29
11.598711967468262,1.05,0.56,0.24,1.21
11.601476907730103,1.04,0.66,0.28,1.26
11.61149287223816,1.27,0.63,0.25,1.43
11.621502876281738,1.89,0.61,-0.02,1.98
11.63147783279419,2.42,0.61,-0.51,2.54
11.641397953033447,2.72,0.67,-0.82,2.91
11.651304721832275,2.82,0.73,-0.89,3.04
11.696474075317383,2.74,0.98,-0.75,3.0
11.697268962860107,2.64,1.14,-0.03,2.87
11.69784688949585,2.71,1.36,0.6,3.09
11.698994874954224,2.67,1.79,0.21,3.22
11.7012939453125,3.24,2.98,-0.36,4.41
11.71141004562378,3.55,3.67,0.19,5.1
11.721344947814941,3.61,3.71,-0.55,5.2
11.731377840042114,3.67,3.72,0.01,5.22
11.741328954696655,3.55,3.25,-0.2,4.81
11.751115798950195,3.38,2.83,0.14,4.41
11.796818733215332,3.52,2.78,0.19,4.48
11.797403812408447,4.0,3.07,0.07,5.04
11.79797887802124,4.5,3.52,0.06,5.71
11.799083948135376,5.08,4.0,0.15,6.46
11.801182746887207,5.11,4.18,0.3,6.6
11.81126594543457,5.0,4.36,0.12,6.63
11.821145057678223,4.83,4.37,-0.09,6.51
11.831177949905396,4.91,4.42,-0.16,6.6
11.841152906417847,5.47,5.19,-0.39,7.55
11.851209878921509,6.12,6.49,-0.82,8.95
11.897657871246338,6.61,7.34,-1.73,10.02
11.898246765136719,6.51,7.08,-2.0,9.82
11.89882493019104,4.86,7.26,-1.09,8.8
11.899974822998047,0.7,8.75,-2.08,9.02
11.901152849197388,-2.04,8.84,-5.01,10.36
11.910951852798462,1.02,7.35,-4.26,8.55
11.920953750610352,5.31,6.76,-2.02,8.83
11.930938720703125,6.24,4.97,-1.02,8.04
11.941006898880005,5.12,-0.32,-0.61,5.16
11.950923919677734,3.32,-4.01,-0.08,5.2
11.99751091003418,-3.06,-3.91,-0.16,4.96
11.998111724853516,-6.46,-2.59,-3.9,7.97
11.998698949813843,0.02,-0.25,-5.18,5.18
11.999817848205566,7.97,-1.51,-3.44,8.81
12.00098180770874,11.34,-2.85,-0.91,11.72
12.01083493232727,11.32,-3.52,0.6,11.86
12.02092695236206,9.21,-3.92,1.75,10.16
12.030987739562988,6.7,-4.33,2.38,8.32
12.041000843048096,5.49,-4.96,2.42,7.78
12.050933837890625,5.57,-5.1,2.33,7.9
12.097691059112549,6.12,-4.68,2.0,7.95
12.098284721374512,6.16,-3.98,1.54,7.49
12.098865985870361,5.76,-3.18,1.42,6.73
12.100017070770264,5.31,-2.52,1.9,6.17
12.10118579864502,4.66,-2.04,2.32,5.59
12.110614776611328,3.62,-1.8,2.18,4.59
12.120750904083252,2.42,-1.52,1.64,3.29
12.130769729614258,1.08,-0.69,1.54,2.0
12.140748023986816,-0.17,-0.07,2.18,2.18
12.150568008422852,-0.79,-0.1,2.95,3.05
12.19811487197876,-0.67,0.23,3.24,3.31
12.19871473312378,-0.56,1.32,2.49,2.87
12.19930386543274,-1.04,2.85,0.81,3.14
12.20048475265503,-2.0,4.6,-1.2,5.15
12.20161485671997,-3.52,6.22,-2.52,7.57
12.210548877716064,-5.63,7.74,-3.19,10.08
12.22060489654541,-8.05,8.67,-3.73,12.4
12.230653762817383,-9.99,8.3,-3.85,13.54
12.240602016448975,-11.13,6.99,-3.86,13.69
12.250600814819336,-11.32,5.42,-4.39,13.29
12.298773765563965,-10.73,6.6,-4.73,13.45
12.299367904663086,-8.81,6.16,-3.82,11.4
12.299949884414673,-11.81,-2.24,-1.81,12.15
12.301142930984497,-12.65,-1.85,-1.53,12.87
12.302289009094238,-11.3,0.1,-1.88,11.45
12.310656070709229,-10.02,0.28,-2.18,10.25
12.320373058319092,-9.12,0.3,-2.26,9.4
12.33111572265625,-7.32,-0.34,-2.08,7.61
12.3404860496521,-6.8,-0.78,-1.54,7.01
12.350462913513184,-2.25,1.85,-1.96,3.51
12.398523807525635,6.02,3.39,2.33,7.29
12.400365829467773,6.05,1.79,4.38,7.68
12.400956869125366,-1.56,1.24,1.0,2.22
12.402123928070068,-7.54,3.93,-0.78,8.53
12.403282880783081,-7.37,5.82,-0.54,9.4
12.41340184211731,-5.88,4.71,-1.28,7.64
12.420332908630371,-4.85,2.58,-2.34,5.97
12.430346965789795,-5.98,0.14,-3.1,6.73
12.440377950668335,-4.47,1.46,-2.01,5.11
12.450299739837646,-2.72,0.6,0.28,2.79
12.460272789001465,-2.24,-2.03,0.9,3.15
12.500010967254639,-2.83,-2.33,0.2,3.67
12.500607013702393,-2.42,-1.3,-0.29,2.76
12.501790046691895,-1.82,-0.33,-0.54,1.92
12.502923965454102,-1.66,0.16,-0.97,1.92
12.510272979736328,-1.59,0.2,-0.67,1.73
12.520201921463013,-1.52,0.27,0.07,1.54
12.530173778533936,-1.16,0.27,0.38,1.25
12.54020094871521,-0.82,0.17,0.54,0.99
12.550168991088867,-0.75,0.12,0.29,0.81
12.560214042663574,-0.67,-0.02,0.08,0.67
12.600188732147217,-0.59,-0.03,0.17,0.61
12.600785732269287,-0.41,0.15,-0.13,0.45
12.601953983306885,-0.5,0.11,-0.76,0.91
12.603090763092041,-0.79,0.07,-1.08,1.33
12.610071897506714,-0.84,0.19,-1.06,1.36
12.620028018951416,-0.53,0.17,-0.98,1.12
12.630010843276978,-0.11,0.05,-0.86,0.86
12.63999605178833,0.19,0.0,-0.83,0.85
12.650022029876709,0.09,0.0,-0.62,0.62
12.660021781921387,-0.4,0.02,-0.48,0.62
12.700577735900879,-0.72,0.07,-0.05,0.72
12.701173782348633,-0.8,0.0,0.63,1.01
12.702383995056152,-0.78,-0.01,0.79,1.11
12.70354175567627,-0.73,-0.07,0.27,0.78
12.709959983825684,-0.53,-0.01,-0.37,0.64
12.719913005828857,-0.42,0.02,-0.78,0.88
12.729862928390503,-0.27,0.0,-0.92,0.95
12.739856958389282,-0.04,0.05,-0.72,0.72
12.74987506866455,0.22,0.1,-0.29,0.37
12.759872913360596,0.32,0.11,-0.55,0.64
12.800092935562134,0.2,0.06,-0.88,0.9
12.800691843032837,0.13,-0.09,-0.58,0.6
12.801820755004883,0.11,-0.12,-0.15,0.22
12.802931785583496,0.05,-0.06,-0.02,0.08
12.809736728668213,0.09,0.0,0.1,0.13
12.819854736328125,0.17,0.03,0.14,0.22
12.829827785491943,0.27,0.02,0.14,0.3
12.839788913726807,0.28,0.0,0.07,0.28
12.849822044372559,0.23,0.05,0.09,0.25
12.860538005828857,0.2,0.11,0.03,0.23
12.901866912841797,0.27,0.2,-0.09,0.34
12.90244197845459,0.42,0.24,-0.24,0.53
12.903595924377441,0.56,0.22,-0.09,0.6
12.905081748962402,0.62,0.19,0.27,0.7
12.909832954406738,0.59,0.17,0.32,0.69
12.919654846191406,0.41,0.18,0.27,0.52
12.929614067077637,0.32,0.3,0.2,0.48
12.939671993255615,0.34,0.43,-0.09,0.55
12.949591875076294,0.42,0.52,-0.18,0.69
12.959533929824829,0.72,0.47,-0.13,0.86
13.001110076904297,1.1,0.28,-0.17,1.14
13.00171184539795,1.47,0.07,-0.24,1.49
13.002860069274902,2.2,0.07,-0.51,2.25
13.003991842269897,2.81,0.26,-0.59,2.88
13.009452819824219,2.79,0.39,-0.42,2.84
13.019467830657959,2.73,0.69,-0.4,2.84
13.029536724090576,2.72,0.9,-0.34,2.88
13.039443016052246,2.63,0.97,-0.12,2.8
13.049552917480469,2.58,1.04,0.08,2.78
13.05944299697876,2.76,1.27,0.1,3.03
13.100961923599243,2.46,1.67,0.06,2.97
13.101554870605469,2.21,2.43,-0.02,3.28
13.102706909179688,2.58,3.21,-0.93,4.22
13.103859901428223,3.39,4.04,-0.39,5.28
13.109359741210938,3.43,3.56,0.12,4.94
13.119423866271973,3.82,3.43,-0.12,5.13
13.129376888275146,4.22,3.78,0.24,5.67
13.139363765716553,4.54,3.51,0.09,5.73
13.183979988098145,4.87,3.19,0.41,5.83
13.18490982055664,5.08,3.43,0.12,6.13
13.18549394607544,5.24,4.12,-0.18,6.66
13.186076879501343,5.0,4.55,-0.24,6.76
13.189255952835083,4.33,4.58,-0.46,6.31
13.199260950088501,3.6,4.51,-0.6,5.8
13.209232807159424,3.21,4.83,-0.52,5.82
13.219184875488281,3.55,5.73,-1.02,6.81
13.229208946228027,4.61,6.82,-2.31,8.54
13.239171981811523,5.59,6.97,-3.45,9.57
13.286051750183105,4.73,6.73,-2.75,8.67
13.286648750305176,1.29,7.1,-0.23,7.21
13.287234783172607,-0.89,7.5,-1.52,7.7
13.287812948226929,0.35,6.09,-3.61,7.08
13.289069890975952,2.87,4.07,-2.06,5.38
13.299163818359375,5.33,2.94,-0.95,6.16
13.309096813201904,7.98,1.84,-0.45,8.2
13.319102764129639,6.58,-3.13,-0.12,7.28
13.329041004180908,0.03,-4.32,0.23,4.32
13.339061737060547,-4.12,-1.78,-2.58,5.17
13.385977745056152,1.26,1.1,-4.77,5.05
13.386568069458008,7.3,-0.67,-3.08,7.95
13.38715386390686,10.06,-1.91,-0.84,10.27
13.38773488998413,10.26,-2.66,0.95,10.64
13.389005899429321,8.72,-3.28,1.89,9.5
13.399005889892578,6.57,-3.68,2.17,7.83
13.408898830413818,5.23,-4.21,2.12,7.04
13.418941974639893,4.94,-4.37,2.02,6.89
13.428905010223389,5.17,-3.98,1.94,6.8
13.438901901245117,5.22,-3.51,1.66,6.5
13.486202955245972,4.65,-3.23,1.4,5.83
13.48679780960083,4.24,-3.16,1.34,5.45
13.487380981445312,3.9,-3.09,1.33,5.15
13.48795485496521,3.53,-2.64,1.73,4.73
13.489129066467285,3.78,-1.94,2.57,4.96
13.498816967010498,4.33,-1.22,3.53,5.71
13.50879693031311,4.31,-0.45,3.63,5.65
13.5187828540802,2.88,1.33,2.41,3.98
13.528694868087769,0.44,3.12,0.22,3.15
13.538729906082153,-1.69,4.23,-1.95,4.95
13.587069988250732,-2.49,5.5,-3.14,6.8
13.587678909301758,-2.9,7.17,-3.23,8.38
13.588286876678467,-4.23,8.04,-3.06,9.58
13.588873863220215,-6.66,7.71,-3.8,10.87
13.589993000030518,-9.42,6.78,-4.58,12.47
13.59865689277649,-10.9,5.39,-4.21,12.86
13.60846495628357,-11.03,4.23,-4.11,12.5
13.61858081817627,-10.53,3.63,-4.57,12.03
13.628575801849365,-10.58,3.18,-4.84,12.06
13.63855504989624,-11.13,1.4,-4.12,11.95
13.686837911605835,-11.56,-0.35,-3.22,12.0
13.687440872192383,-11.0,-0.65,-2.94,11.4
13.68802785873413,-9.9,1.22,-2.77,10.35
13.688626766204834,-9.77,0.25,-3.26,10.3
13.689781904220581,-8.15,-0.13,-2.7,8.58
13.69858980178833,-6.76,0.28,-1.49,6.92
13.708518981933594,-5.62,0.71,-0.46,5.68
13.718523979187012,-4.84,1.34,1.02,5.12
13.728441953659058,-1.27,3.3,1.0,3.67
13.738435745239258,6.67,3.16,4.18,8.48
13.78830099105835,8.08,-0.47,7.09,10.75
13.788898944854736,1.43,-1.59,1.85,2.82
13.789501905441284,-6.05,1.05,-2.4,6.59
13.790084838867188,-8.2,3.68,-2.49,9.32
13.791249752044678,-6.83,5.45,-2.16,9.0
13.79842472076416,-5.51,4.84,-2.49,7.74
13.808384895324707,-3.98,1.73,-3.02,5.28
13.818350791931152,-4.59,-0.4,-3.87,6.01
13.828558921813965,-3.49,1.33,-2.43,4.45
13.838368892669678,-3.67,-0.16,-0.62,3.72
13.888407945632935,-4.37,-1.96,-0.77,4.85
13.88900089263916,-4.41,-1.53,-1.39,4.87
13.889578819274902,-3.52,-0.28,-1.28,3.75
13.890169858932495,-2.61,0.73,-0.6,2.77
13.891328811645508,-1.99,0.96,-0.15,2.21
13.898333072662354,-1.39,0.31,-0.01,1.42
13.908374786376953,-0.86,-0.31,-0.06,0.91
13.918323040008545,-0.54,-0.41,0.23,0.71
13.928675889968872,-0.29,-0.26,0.87,0.95
13.938262939453125,0.12,-0.08,1.26,1.26
13.989410877227783,0.56,-0.06,1.1,1.23
13.99000597000122,0.84,-0.22,0.37,0.94
13.990585803985596,0.86,-0.33,-0.65,1.12
13.991163730621338,0.8,-0.13,-1.42,1.63
13.992300987243652,0.5,0.15,-1.66,1.74
13.9981849193573,0.03,0.25,-1.73,1.74
14.008089065551758,-0.32,0.21,-1.69,1.73
14.018184900283813,-0.58,0.15,-1.1,1.25
14.028110027313232,-0.63,0.29,-0.62,0.93
14.038070917129517,-0.37,0.19,-0.3,0.51
14.089422941207886,-0.23,0.06,-0.05,0.24
14.090013980865479,-0.21,0.02,0.33,0.39
14.090592861175537,-0.22,-0.04,0.74,0.77
14.09117078781128,-0.27,-0.1,0.82,0.86
14.092320919036865,-0.15,-0.09,0.36,0.4
14.097973823547363,-0.01,-0.13,-0.1,0.16
14.108044862747192,-0.25,0.0,-0.46,0.52
14.117940902709961,-0.75,0.03,-0.68,1.01
14.127884864807129,-1.12,-0.04,-0.59,1.26
14.137860774993896,-1.01,-0.09,-0.44,1.1
14.189668893814087,-0.68,-0.07,-0.27,0.73
14.190258979797363,-0.42,-0.06,-0.13,0.44
14.190840721130371,-0.41,-0.08,-0.07,0.42
14.191419839859009,-0.39,0.05,0.14,0.41
14.19285774230957,-0.23,0.0,0.24,0.33
14.197888851165771,-0.09,-0.06,-0.01,0.1
14.207726955413818,-0.13,0.07,-0.28,0.31
14.217658042907715,-0.27,0.04,-0.28,0.39
14.227721929550171,-0.34,0.12,-0.31,0.47
14.237720966339111,-0.24,0.17,-0.42,0.51
14.28968095779419,-0.12,0.17,-0.44,0.48
14.290247917175293,0.1,0.24,-0.27,0.37
14.290828943252563,0.56,0.15,0.09,0.58
14.291406869888306,0.85,0.03,0.13,0.86
14.292876958847046,0.63,0.03,0.14,0.64
14.297757863998413,0.46,0.22,0.21,0.55
14.30772590637207,0.57,0.36,0.0,0.67
14.317729949951172,0.86,0.35,-0.39,1.0
14.327672958374023,1.28,0.27,-0.45,1.38
14.337679862976074,1.64,0.33,-0.36,1.71
14.390512943267822,1.9,0.37,-0.38,1.97
14.391105890274048,2.16,0.47,-0.18,2.21
14.391685009002686,2.45,0.64,0.06,2.53
14.392584800720215,2.54,0.9,-0.04,2.69
14.393735885620117,2.66,1.2,-0.91,3.05
14.39755392074585,3.55,0.89,-1.2,3.85
14.407529830932617,4.18,0.63,-0.64,4.27
14.417466878890991,4.15,0.89,-0.98,4.35
14.427478790283203,3.61,1.24,-1.07,3.96
14.437501907348633,3.16,2.54,-1.34,4.26
14.490684032440186,2.97,3.9,-0.93,4.98
14.491273880004883,2.87,3.52,0.25,4.54
14.491857051849365,2.82,3.0,0.92,4.21
14.492753982543945,2.9,2.99,0.98,4.27
14.493927955627441,3.35,3.12,0.72,4.63
14.497416019439697,3.85,3.34,0.46,5.11
14.507288932800293,4.16,3.59,-0.07,5.49
14.51735782623291,4.35,3.54,-0.24,5.61
14.52728796005249,4.51,3.55,-0.49,5.76
14.537312030792236,4.69,3.98,-0.54,6.17
14.591119766235352,4.5,4.03,-0.66,6.07
14.591738939285278,3.85,3.88,-1.03,5.56
14.592634916305542,2.7,4.05,-1.31,5.04
14.593194961547852,1.74,5.03,-1.31,5.48
14.594303846359253,1.03,6.53,-1.6,6.8
14.597248077392578,0.68,7.39,-2.27,7.76
14.60731291770935,1.68,6.15,-2.47,6.83
14.617304801940918,2.33,4.29,-1.97,5.26
14.627229928970337,1.68,4.61,-2.55,5.52
14.637237071990967,1.76,4.55,-3.06,5.75
14.691314935684204,3.8,4.2,-1.64,5.89
14.692245960235596,6.0,3.87,-0.86,7.19
14.692831993103027,7.49,2.26,-0.45,7.83
14.69341492652893,7.17,-0.98,-0.29,7.24
14.694563865661621,3.72,-2.86,0.11,4.69
14.697130918502808,-1.13,-3.17,-0.56,3.41
14.706971883773804,-1.27,-0.31,-3.09,3.35
14.717116832733154,4.94,0.54,-3.76,6.23
14.727077960968018,9.12,-1.08,-1.76,9.35
14.736962795257568,10.74,-1.35,0.2,10.82
14.792029857635498,10.13,-1.43,1.77,10.38
14.792810916900635,8.32,-2.02,2.76,8.99
14.793395042419434,6.41,-2.86,2.91,7.59
14.793972969055176,5.04,-3.24,2.68,6.56
14.79512095451355,4.4,-3.1,2.03,5.75
14.797002792358398,4.12,-2.93,1.31,5.22
14.806932926177979,3.83,-2.71,0.94,4.78
14.816977977752686,3.55,-2.61,0.78,4.47
14.82696795463562,3.37,-2.66,0.66,4.34
14.836966037750244,3.16,-2.57,0.84,4.15
14.892364025115967,3.06,-2.34,1.24,4.04
14.893150806427002,2.91,-1.96,1.79,3.93
14.893730878829956,2.82,-1.18,2.35,3.85
14.89431381225586,3.12,-0.07,2.66,4.1
14.895498752593994,2.94,1.11,2.1,3.77
14.896997928619385,0.94,2.68,0.44,2.87
14.906877994537354,-1.9,4.01,-1.74,4.76
14.916838884353638,-3.52,4.55,-2.97,6.47
14.92681074142456,-3.86,5.79,-2.55,7.41
14.936813831329346,-4.09,6.9,-1.45,8.15
14.993011951446533,-4.67,7.17,-1.35,8.66
14.99360990524292,-5.63,6.65,-2.45,9.05
14.994205951690674,-6.39,5.59,-3.25,9.09
14.994791030883789,-7.37,4.88,-4.03,9.71
14.996290922164917,-8.87,5.13,-5.03,11.41
14.997451782226562,-10.04,4.83,-5.02,12.22
15.007214069366455,-10.28,3.26,-3.7,11.4
15.016815900802612,-10.24,1.27,-2.06,10.52
15.026710033416748,-10.09,-0.54,-1.05,10.15
15.036649942398071,-9.64,-1.49,-0.53,9.76
15.09383487701416,-8.92,-1.87,-0.52,9.12
15.09442687034607,-8.13,-1.8,-0.37,8.33
15.095018863677979,-7.37,0.56,-0.36,7.4
15.095605850219727,-5.34,5.57,-0.93,7.77
15.0971360206604,-4.95,3.45,-1.13,6.13
15.098299980163574,-6.68,0.86,-0.94,6.8
15.106595039367676,-7.61,-0.95,-0.8,7.71
15.116562843322754,-1.5,0.16,-0.14,1.51
15.126575946807861,7.91,1.25,4.13,9.01
15.136504888534546,9.38,1.25,6.27,11.35
15.196164846420288,2.74,0.93,2.53,3.84
15.196778774261475,-6.46,0.58,-0.54,6.5
15.197399854660034,-9.37,0.26,-2.1,9.6
15.198015928268433,-6.23,2.93,-2.5,7.32
15.199310779571533,-3.13,6.13,-1.34,7.01
15.200618743896484,-2.62,5.23,-1.1,5.95
15.206368923187256,-3.68,2.07,-1.31,4.42
15.216327905654907,-5.41,-0.2,-2.2,5.84
15.226371765136719,-5.56,0.43,-2.23,6.0
15.236361026763916,-5.08,0.79,-0.39,5.15
15.295179843902588,-4.76,-0.98,0.34,4.87
15.296002864837646,-4.16,-1.29,-0.34,4.36
15.296592950820923,-2.9,-0.49,-0.56,2.99
15.297177791595459,-1.71,0.05,0.0,1.71
15.29840898513794,-1.29,-0.03,0.3,1.32
15.299575805664062,-1.09,-0.07,0.28,1.12
15.306272983551025,-0.98,0.07,0.35,1.04
15.316340923309326,-0.89,0.15,0.59,1.07
15.32625675201416,-0.82,0.03,0.76,1.11
15.33627700805664,-0.68,-0.14,0.64,0.94
15.3955659866333,-0.36,-0.23,0.22,0.48
15.396363735198975,0.12,-0.17,-0.18,0.27
15.396946907043457,0.46,-0.06,-0.45,0.64
15.397564888000488,0.52,0.05,-0.81,0.96
15.398748874664307,0.36,0.23,-1.13,1.2
15.39995789527893,0.09,0.18,-1.39,1.4
15.406219005584717,-0.11,0.11,-1.55,1.55
15.416141986846924,-0.18,0.15,-1.38,1.39
15.426095008850098,-0.19,0.19,-1.04,1.07
15.436151027679443,-0.25,0.17,-0.86,0.91
15.496173858642578,-0.3,0.09,-0.64,0.71
15.496764898300171,-0.24,0.13,-0.35,0.44
15.497341871261597,-0.03,0.06,-0.38,0.38
15.497933864593506,0.27,-0.04,-0.54,0.6
15.499073028564453,0.45,-0.23,-0.39,0.63
15.50019884109497,0.48,-0.23,-0.17,0.55
15.505990982055664,0.37,-0.08,0.06,0.38
15.515970945358276,0.06,-0.07,0.31,0.32
15.525951862335205,-0.29,-0.03,0.25,0.38
15.535967826843262,-0.53,0.01,-0.01,0.53
15.545958042144775,-0.51,-0.09,-0.2,0.55
15.596604824066162,-0.48,-0.12,-0.39,0.63
15.597202777862549,-0.31,-0.05,-0.46,0.55
15.597764015197754,0.05,-0.05,-0.38,0.38
15.5989248752594,0.44,-0.07,-0.1,0.45
15.600093841552734,0.54,-0.1,0.16,0.57
15.6058509349823,0.45,-0.01,0.01,0.45
15.615800857543945,0.17,0.13,-0.15,0.26
15.625750064849854,-0.23,0.13,-0.11,0.28
15.635814905166626,-0.58,0.14,0.04,0.59
15.64576005935669,-0.77,0.21,0.28,0.84
15.696131944656372,-0.83,0.14,0.32,0.9
15.696709871292114,-0.68,0.09,0.04,0.68
15.697306871414185,-0.36,0.15,-0.26,0.46
15.698457956314087,0.03,0.13,-0.42,0.44
15.699611902236938,0.51,0.07,-0.41,0.65
15.705689907073975,0.93,-0.04,0.18,0.94
15.715638875961304,1.01,-0.03,0.76,1.26
15.725507736206055,0.96,0.09,0.57,1.12
15.735645771026611,1.04,0.19,0.51,1.17
15.745601892471313,1.3,0.17,0.28,1.34
15.79636287689209,1.45,0.1,-0.3,1.48
15.796952724456787,1.72,0.15,-0.64,1.84
15.797570943832397,1.85,0.3,-0.73,2.01
15.798776865005493,2.0,0.45,-0.71,2.16
15.800027847290039,2.47,0.38,-0.24,2.51
15.805537939071655,3.01,0.32,-0.08,3.02
15.815574884414673,3.26,0.29,-0.14,3.27
15.82552695274353,3.44,0.58,-0.34,3.5
15.835567951202393,3.17,0.98,-0.65,3.38
15.845538854598999,2.74,1.27,-0.78,3.11
15.896875858306885,2.27,1.58,-1.16,2.99
15.897502899169922,1.46,1.78,-0.82,2.44
15.898099899291992,0.86,2.13,-0.09,2.29
15.899322986602783,0.82,2.78,0.51,2.94
15.900845050811768,2.06,3.78,-0.84,4.38
15.905441761016846,2.56,4.0,1.07,4.86
15.91543197631836,3.05,3.7,0.06,4.79
15.925374031066895,3.79,3.86,0.41,5.42
15.935412883758545,4.0,3.52,0.1,5.32
15.94540786743164,4.44,3.42,-0.08,5.6
15.997168064117432,4.76,3.32,-0.19,5.8
15.997781753540039,4.91,3.42,-0.48,6.0
15.998381853103638,4.87,3.8,-0.35,6.18
15.999571800231934,4.4,4.14,-0.39,6.05
16.00101089477539,3.71,4.41,-0.25,5.76
16.00529193878174,3.16,4.43,-0.38,5.45
16.015262842178345,3.01,4.52,-0.57,5.46
16.025271892547607,3.91,5.11,-0.8,6.48
16.035278797149658,5.28,5.97,-1.94,8.2
16.04527187347412,6.2,5.82,-2.93,8.99
16.097498893737793,5.08,6.7,-2.2,8.69
16.09808874130249,1.15,8.89,-1.05,9.02
16.098671913146973,-0.33,8.11,-3.27,8.75
16.10017490386963,2.07,5.34,-3.52,6.72
16.101287841796875,4.66,4.54,-1.5,6.67
16.10515785217285,6.74,3.88,-1.07,7.85
16.115152835845947,8.41,1.43,-1.01,8.59
16.1251540184021,4.98,-1.58,-0.1,5.22
16.135506868362427,-2.32,-2.82,0.1,3.65
16.145145893096924,-4.71,-1.69,-3.18,5.92
16.19841694831848,0.76,0.71,-4.37,4.49
16.199018001556396,7.07,-0.52,-2.6,7.55
16.19963502883911,9.92,-1.35,-0.16,10.01
16.201075077056885,9.92,-1.8,1.41,10.18
16.20215892791748,8.31,-2.46,2.36,8.98
16.20502805709839,6.55,-3.03,2.97,7.8
16.21498990058899,5.51,-3.92,2.81,7.32
16.224990844726562,5.22,-4.64,2.28,7.34
16.235002040863037,5.31,-4.79,1.83,7.38
16.244942903518677,5.3,-4.48,1.4,7.07
16.298845767974854,5.28,-4.12,1.1,6.78
16.29946804046631,5.26,-3.68,0.95,6.48
16.300373077392578,5.08,-3.09,1.09,6.04
16.301537036895752,4.97,-2.46,1.69,5.79
16.302666902542114,4.83,-1.87,2.51,5.75
16.304851055145264,4.59,-0.88,3.36,5.75
16.31484889984131,4.45,0.11,3.5,5.66
16.324760913848877,4.37,1.01,2.41,5.09
16.3349027633667,3.29,2.42,0.25,4.09
16.344867944717407,0.76,4.75,-2.2,5.28
16.39893674850464,-2.62,7.28,-4.24,8.82
16.39988088607788,-5.76,9.34,-5.85,12.43
16.40046191215515,-8.39,10.48,-6.54,14.93
16.401612758636475,-10.98,10.68,-6.39,16.59
16.402740001678467,-13.21,9.92,-6.07,17.59
16.404748916625977,-13.8,8.23,-6.11,17.19
16.41471004486084,-12.96,5.26,-6.4,15.38
16.424728870391846,-12.47,1.52,-5.34,13.65
16.434781074523926,-12.81,-1.5,-2.94,13.22
16.44467782974243,-13.05,-3.41,-1.59,13.58
16.499997854232788,-12.58,-4.47,-1.48,13.43
16.501205921173096,-11.62,-3.88,-1.89,12.39
16.501788854599,-10.64,-2.38,-2.3,11.14
16.502975940704346,-8.39,3.16,-3.16,9.5
16.504127979278564,-4.73,7.94,-3.48,9.87
16.5047287940979,-5.59,3.0,-2.72,6.9
16.516299724578857,-4.96,-0.87,-3.47,6.11
16.52454686164856,3.84,-0.52,0.49,3.9
16.53459405899048,9.19,0.72,7.61,11.95
16.544525861740112,4.97,0.83,2.54,5.64
16.5998477935791,-1.96,1.92,-2.27,3.56
16.60098385810852,-4.28,2.96,-0.57,5.23
16.60157084465027,-3.94,3.63,0.26,5.36
16.602736949920654,-5.09,5.88,-1.16,7.86
16.603827953338623,-6.55,6.3,-2.46,9.41
16.604431867599487,-5.77,2.71,-1.99,6.67
16.616817951202393,-4.07,1.48,-1.21,4.49
16.624413013458252,-3.43,-0.11,-2.78,4.41
16.634448051452637,-2.73,-0.66,-2.52,3.77
16.644360065460205,-1.67,-0.59,-0.97,2.01
16.700303077697754,-1.98,-1.77,-0.58,2.71
16.701359748840332,-2.65,-1.86,-1.31,3.49
16.701969861984253,-2.43,-1.06,-1.41,3.0
16.703112840652466,-2.11,-0.3,-0.97,2.34
16.704254865646362,-2.33,0.2,-0.79,2.46
16.704835891723633,-2.49,0.59,-0.95,2.72
16.716303825378418,-2.27,1.07,-0.91,2.66
16.724280834197998,-1.56,0.96,-0.19,1.84
16.734336853027344,-0.83,0.22,0.6,1.04
16.744271755218506,-0.22,-0.38,1.03,1.11
16.80044388771057,0.18,-0.54,0.86,1.03
16.80141592025757,0.4,-0.62,0.36,0.82
16.802000045776367,0.55,-0.49,-0.17,0.75
16.80321502685547,0.52,-0.1,-0.71,0.88
16.80442190170288,0.4,0.17,-1.02,1.1
16.805009841918945,0.11,0.3,-1.07,1.11
16.816661834716797,-0.46,0.43,-0.94,1.13
16.824219942092896,-1.08,0.47,-0.69,1.36
16.834167003631592,-1.52,0.34,-0.51,1.63
16.84413194656372,-1.6,0.28,-0.43,1.68
16.900431871414185,-1.22,0.17,-0.25,1.25
16.901371955871582,-0.47,0.04,-0.04,0.47
16.90195393562317,0.22,-0.04,0.11,0.24
16.9030818939209,0.46,-0.2,0.28,0.57
16.904205799102783,0.2,-0.3,0.39,0.53
16.904778957366943,-0.07,-0.19,0.3,0.36
16.917812824249268,-0.18,-0.1,0.24,0.31
16.924038887023926,-0.26,-0.06,0.25,0.36
16.934051990509033,-0.29,-0.11,0.08,0.32
16.943967819213867,-0.21,-0.08,-0.08,0.23
17.00057888031006,-0.15,-0.03,-0.22,0.26
17.001590728759766,-0.12,0.02,-0.39,0.4
17.002176761627197,-0.02,0.03,-0.45,0.45
17.003305912017822,0.24,0.09,-0.42,0.49
17.00442385673523,0.37,0.13,-0.51,0.64
17.0050048828125,0.2,0.06,-0.54,0.57
17.016650915145874,0.06,0.03,-0.42,0.42
17.023804903030396,0.08,-0.03,-0.14,0.16
17.033861875534058,0.12,0.02,0.01,0.12
17.043822765350342,0.11,0.09,-0.09,0.16
17.10043692588806,0.03,0.07,-0.22,0.23
17.101458072662354,-0.1,0.01,-0.13,0.16
17.102035999298096,-0.19,-0.01,-0.2,0.27
17.103221893310547,-0.29,0.06,-0.35,0.45
17.104395866394043,-0.3,0.13,-0.42,0.53
17.104979038238525,-0.13,0.18,-0.39,0.44
17.113729000091553,0.32,0.12,-0.13,0.36
17.123775005340576,0.82,0.04,0.31,0.87
17.13374090194702,1.31,0.04,0.68,1.47
17.143653869628906,1.78,0.08,1.0,2.04
17.200645923614502,2.23,0.21,0.67,2.33
17.201499938964844,2.61,0.29,-0.26,2.63
17.202080726623535,3.24,0.32,-0.22,3.26
17.20324182510376,3.86,0.42,-0.43,3.9
17.204396724700928,3.58,0.59,-1.69,4.0
17.20497703552246,2.81,0.53,-1.12,3.07
17.213534832000732,3.0,0.59,-0.89,3.18
17.22354793548584,3.36,0.69,-1.2,3.63
17.233460903167725,3.79,0.43,-0.43,3.83
17.243478775024414,4.24,0.64,-0.75,4.35
17.30136203765869,3.44,1.3,-1.39,3.93
17.302255868911743,2.19,1.43,-1.2,2.87
17.30283284187317,1.53,1.89,-0.54,2.49
17.303998947143555,0.97,3.99,0.01,4.1
17.305124759674072,2.06,5.3,-0.97,5.76
17.305701732635498,2.0,4.71,1.09,5.23
17.31324577331543,2.65,4.66,0.61,5.39
17.323344945907593,2.94,4.63,0.78,5.53
17.3334698677063,3.29,4.57,0.47,5.65
17.34331488609314,3.59,4.68,0.34,5.9
17.40141773223877,3.75,4.6,-0.33,5.94
17.402344942092896,3.63,4.72,-0.36,5.96
17.40292191505432,3.54,4.84,-0.25,6.0
17.404088020324707,4.41,5.39,-0.69,6.99
17.405235767364502,5.01,6.94,-1.47,8.68
17.405827045440674,4.93,8.1,-2.02,9.69
17.41321086883545,3.85,7.83,-2.35,9.03
17.42316198348999,2.62,6.73,-1.8,7.44
17.433140754699707,0.35,6.33,-0.83,6.39
17.44316291809082,-2.11,6.55,-1.34,7.01
17.501901865005493,-1.58,5.49,-4.14,7.05
17.503036975860596,1.0,4.12,-2.9,5.13
17.503615856170654,4.43,3.69,-1.31,5.91
17.50473189353943,8.13,0.85,-0.74,8.2
17.505825996398926,8.09,-2.82,0.33,8.57
17.50640892982483,1.0,-3.66,1.16,3.96
17.513081073760986,-4.09,-4.36,-1.87,6.26
17.52306890487671,-1.84,-1.18,-4.1,4.64
17.5331609249115,5.11,-0.61,-3.54,6.24
17.54301404953003,9.79,-2.22,-1.96,10.22
17.60289692878723,11.59,-2.77,-0.65,11.93
17.60391592979431,11.25,-2.69,0.72,11.58
17.60451078414917,9.61,-2.79,1.99,10.2
17.605663776397705,7.55,-3.23,2.74,8.65
17.60679006576538,6.16,-3.76,2.79,7.73
17.607367038726807,5.61,-3.87,2.34,7.2
17.613018035888672,5.36,-3.53,1.6,6.61
17.623033046722412,5.08,-3.33,1.01,6.15
17.633081912994385,4.66,-3.24,0.63,5.71
17.64303994178772,4.22,-3.08,0.34,5.23
17.703038930892944,3.76,-2.87,0.23,4.73
17.703991889953613,3.15,-2.6,0.3,4.09
17.704570770263672,2.59,-2.12,0.4,3.37
17.70572280883789,2.26,-1.64,0.56,2.84
17.706846952438354,2.07,-1.07,1.05,2.55
17.707443952560425,2.04,-0.22,1.72,2.67
17.71285104751587,1.92,0.97,2.24,3.1
17.722764015197754,0.68,2.46,1.57,2.99
17.732937812805176,-1.66,3.74,-0.57,4.13
17.74288272857666,-3.42,4.64,-3.03,6.51
17.804338932037354,-3.69,6.09,-4.06,8.19
17.804937839508057,-3.88,7.87,-3.27,9.36
17.805518865585327,-4.43,8.34,-2.24,9.7
17.80674386024475,-5.27,7.4,-2.03,9.3
17.80827283859253,-6.04,5.63,-2.14,8.52
17.8088538646698,-6.91,4.26,-2.27,8.42
17.812726974487305,-8.11,4.07,-3.36,9.67
17.822717905044556,-8.76,4.33,-4.53,10.77
17.832725048065186,-9.02,4.12,-4.43,10.86
17.84276580810547,-9.11,2.61,-3.06,9.95
17.904472827911377,-9.21,0.43,-1.36,9.31
17.905066967010498,-9.23,-1.28,-0.67,9.34
17.905652046203613,-8.9,-2.31,-0.6,9.21
17.906827926635742,-8.29,-2.32,-0.3,8.61
17.90831685066223,-7.59,-0.73,-0.3,7.63
17.908870935440063,-5.87,4.87,-1.01,7.69
17.912614822387695,-5.72,3.64,-1.63,6.97
17.922545909881592,-7.23,0.17,-1.63,7.41
17.932621002197266,-5.09,-0.86,-1.75,5.45
17.9426007270813,4.01,-0.09,1.95,4.45
18.004944801330566,10.1,0.68,7.3,12.48
18.005537033081055,6.17,1.03,4.19,7.52
18.006118774414062,-1.95,1.68,-0.62,2.64
18.0072979927063,-7.96,0.44,-2.33,8.3
18.00874376296997,-7.38,1.14,-2.57,7.89
18.009331941604614,-4.66,5.74,-2.92,7.94
18.01248288154602,-2.94,7.78,-1.93,8.53
18.022475957870483,-3.86,3.52,-0.67,5.26
18.032678842544556,-5.16,-0.84,-1.76,5.51
18.042397022247314,-5.69,-0.73,-2.2,6.14
18.10471200942993,-5.31,0.48,-0.52,5.35
18.10530185699463,-5.52,-1.06,0.01,5.62
18.105884075164795,-5.28,-1.64,-0.31,5.53
18.107061862945557,-4.18,-0.67,-0.63,4.27
18.10849905014038,-2.66,0.17,-0.35,2.68
18.10908794403076,-1.87,0.3,-0.06,1.89
18.1122989654541,-1.21,0.2,0.01,1.22
18.122288942337036,-0.81,0.3,0.03,0.86
18.13219404220581,-0.65,0.32,0.22,0.75
18.142286777496338,-0.24,0.21,0.25,0.4
18.205155849456787,0.17,0.04,0.09,0.19
18.205759048461914,0.34,-0.11,-0.32,0.47
18.206337928771973,0.19,-0.23,-0.8,0.85
18.20784902572632,0.03,-0.17,-1.07,1.08
18.20897388458252,-0.17,0.01,-1.25,1.26
18.209561824798584,-0.53,0.1,-1.41,1.5
18.21216106414795,-0.81,0.13,-1.4,1.62
18.22222375869751,-0.83,0.15,-1.27,1.52
18.232089042663574,-0.71,0.03,-0.98,1.21
18.242158889770508,-0.46,0.01,-0.59,0.74
18.305569887161255,-0.34,0.11,0.09,0.36
18.306144952774048,-0.22,0.11,0.81,0.84
18.307026863098145,-0.18,0.01,0.85,0.86
18.308177947998047,-0.06,-0.05,0.5,0.5
18.309298992156982,0.19,0.01,0.04,0.19
18.309862852096558,0.22,0.01,-0.45,0.5
18.3120858669281,0.07,0.04,-0.86,0.86
18.32209587097168,-0.09,0.13,-0.99,1.0
18.331995964050293,-0.25,0.03,-1.01,1.04
18.341984748840332,-0.56,-0.06,-0.86,1.02
18.405390739440918,-0.59,0.01,-0.71,0.92
18.40598773956299,-0.3,0.06,-0.51,0.59
18.406901836395264,0.02,0.05,-0.38,0.38
18.40807294845581,0.2,0.04,-0.17,0.26
18.409222841262817,0.15,-0.09,0.0,0.17
18.409803867340088,0.04,-0.08,-0.24,0.25
18.411905765533447,0.01,-0.03,-0.47,0.47
18.421913862228394,0.12,-0.25,-0.15,0.31
18.4319429397583,0.08,-0.23,-0.18,0.3
18.441820859909058,0.07,-0.07,-0.31,0.32
18.505408763885498,0.02,-0.04,-0.21,0.21
18.506010055541992,-0.12,0.06,-0.22,0.25
18.506948947906494,-0.14,0.07,-0.12,0.19
18.508130073547363,-0.13,0.04,0.2,0.24
18.5092830657959,-0.11,0.19,0.41,0.46
18.50986099243164,0.04,0.28,0.45,0.53
18.511696815490723,0.27,0.16,0.43,0.53
18.521728992462158,0.5,0.2,0.53,0.75
18.53194785118103,0.88,0.22,0.55,1.06
18.541665077209473,1.28,0.19,0.22,1.31
18.605487823486328,1.61,0.21,-0.3,1.65
18.60611581802368,1.91,0.3,-0.61,2.02
18.60701084136963,2.59,0.31,-0.41,2.64
18.60816788673401,3.35,0.28,-0.2,3.36
18.609288930892944,3.78,0.3,0.28,3.8
18.609864950180054,4.08,0.34,0.87,4.18
18.6115460395813,4.55,0.56,0.53,4.61
18.621619939804077,5.09,0.65,-0.38,5.14
18.631526947021484,5.41,0.64,-0.65,5.48
18.64164400100708,5.11,1.15,-1.77,5.52
18.706212043762207,3.75,1.59,-1.96,4.52
18.70712900161743,2.15,1.72,-1.22,3.01
18.70771598815918,0.88,2.66,-0.72,2.89
18.70885992050171,0.6,4.35,-0.95,4.49
18.70998191833496,1.15,4.03,0.64,4.23
18.710558891296387,1.38,3.47,1.21,3.92
18.71174383163452,1.92,3.49,1.26,4.17
18.721515893936157,2.68,3.62,0.73,4.56
18.731478929519653,3.22,3.95,0.48,5.11
18.74132204055786,3.83,4.08,0.12,5.59
18.80697989463806,4.16,3.71,-0.16,5.57
18.807771921157837,4.05,3.29,-0.47,5.23
18.808355808258057,3.75,3.15,-0.55,4.92
18.809576988220215,3.59,3.61,-0.44,5.11
18.810754776000977,3.59,4.44,-0.47,5.72
18.811333894729614,3.57,5.82,-0.87,6.88
18.812561988830566,3.44,6.96,-1.85,7.98
18.82135772705078,3.02,6.83,-2.25,7.79
18.831318855285645,2.36,6.16,-1.23,6.71
18.841307878494263,0.67,6.05,-1.12,6.18
18.90764284133911,-1.64,6.42,-2.65,7.13
18.908244848251343,-1.17,6.53,-4.52,8.02
18.90882682800293,1.4,4.89,-2.9,5.85
18.909979820251465,4.6,3.86,-1.37,6.15
18.911131858825684,7.76,1.95,-1.07,8.07
18.911706924438477,8.78,-1.55,-0.23,8.91
18.912895917892456,4.87,-3.61,0.91,6.13
18.921250820159912,-2.09,-4.66,-0.41,5.12
18.931185722351074,-3.83,-2.26,-3.51,5.66
18.941091060638428,2.14,0.3,-4.11,4.64
19.00795292854309,7.87,-1.36,-2.41,8.34
19.008573055267334,10.27,-2.18,-0.58,10.51
19.009161949157715,10.32,-2.11,0.72,10.55
19.010347843170166,8.97,-2.24,2.05,9.47
19.01153802871704,7.17,-2.74,2.65,8.12
19.01211977005005,5.91,-3.4,2.51,7.26
19.01332688331604,5.22,-3.7,2.06,6.72
19.021100997924805,5.04,-3.59,1.52,6.37
19.030964851379395,4.8,-3.23,0.99,5.86
19.041035890579224,4.42,-2.92,0.65,5.33
19.109171867370605,4.01,-2.79,0.41,4.9
19.10978078842163,3.6,-2.64,0.37,4.47
19.110366821289062,3.14,-2.54,0.62,4.08
19.111581802368164,2.84,-2.35,0.95,3.8
19.112741947174072,2.72,-1.81,1.44,3.57
19.113322734832764,2.96,-1.09,2.09,3.78
19.11454200744629,3.18,-0.33,2.47,4.04
19.120893001556396,2.4,0.99,1.89,3.21
19.13100790977478,0.25,2.47,0.14,2.48
19.14093780517578,-1.86,3.56,-1.88,4.43
19.20939874649048,-2.69,4.43,-2.84,5.9
19.209998846054077,-2.8,5.74,-2.2,6.75
19.210615873336792,-3.34,6.67,-1.17,7.55
19.21180486679077,-4.14,6.83,-1.42,8.11
19.212970733642578,-5.12,6.77,-2.3,8.79
19.21355104446411,-5.8,6.96,-3.09,9.57
19.214759826660156,-6.62,7.22,-4.43,10.75
19.220801830291748,-7.88,7.34,-5.54,12.11
19.230766773223877,-8.85,5.98,-4.88,11.74
19.240694046020508,-9.23,3.01,-2.98,10.15
19.31085777282715,-9.6,0.12,-1.39,9.7
19.311460971832275,-10.38,-1.04,-0.89,10.46
19.312056064605713,-10.12,-1.63,-1.24,10.32
19.313282012939453,-8.77,-1.92,-1.12,9.04
19.31447172164917,-7.28,-1.69,-0.83,7.51
19.31507682800293,-6.37,-1.37,-0.98,6.58
19.316946029663086,-5.98,-0.72,-1.32,6.16
19.32067894935608,-4.55,4.44,-1.46,6.52
19.33063292503357,-3.78,6.75,-1.52,7.88
19.340630054473877,-6.51,1.15,-2.08,6.93
19.41091299057007,-3.9,-1.31,-1.82,4.49
19.411576747894287,4.23,-0.38,2.01,4.69
19.41217279434204,8.7,0.76,7.06,11.22
19.413361072540283,5.52,0.98,3.97,6.86
19.414512872695923,-1.04,0.87,-0.04,1.35
19.415096759796143,-6.27,-0.38,-0.74,6.32
19.41704797744751,-6.43,-0.44,-1.02,6.52
19.420621871948242,-5.11,1.65,-1.9,5.69
19.430545806884766,-4.15,5.04,-1.91,6.8
19.440518856048584,-3.24,5.32,-1.19,6.34
19.51071286201477,-3.17,2.34,-0.65,3.99
19.511308908462524,-5.2,-1.01,-2.04,5.67
19.51188898086548,-5.64,0.03,-2.19,6.05
19.513052940368652,-5.31,1.06,-0.54,5.44
19.51418685913086,-5.03,-0.77,0.03,5.08
19.514784812927246,-4.33,-1.63,-0.38,4.64
19.516645908355713,-3.16,-0.94,-0.8,3.39
19.520336866378784,-2.01,-0.06,-0.84,2.17
19.530337810516357,-1.77,0.38,-0.51,1.88
19.540356874465942,-1.74,0.3,-0.26,1.78
19.611735820770264,-1.74,0.19,-0.15,1.75
19.61230492591858,-1.32,0.23,-0.17,1.35
19.612895011901855,-0.59,0.18,-0.41,0.74
19.61406373977661,-0.08,0.07,-0.25,0.27
19.615551948547363,0.19,-0.06,-0.11,0.22
19.616507053375244,0.24,-0.11,-0.34,0.43
19.61772584915161,0.23,-0.05,-0.55,0.59
19.620227813720703,-0.04,0.03,-0.75,0.75
19.63020086288452,-0.67,0.16,-0.9,1.13
19.64016890525818,-1.14,0.3,-0.94,1.5
19.712116956710815,-1.26,0.29,-0.81,1.52
19.712734937667847,-0.95,0.08,-0.5,1.07
19.71332287788391,-0.65,-0.06,-0.28,0.71
19.714500904083252,-0.35,-0.07,0.03,0.35
19.7163348197937,-0.02,-0.07,0.27,0.27
19.716882944107056,0.12,0.0,0.41,0.42
19.71811294555664,0.16,0.14,0.47,0.51
19.71994686126709,0.25,0.18,0.33,0.45
19.729986906051636,0.18,0.04,0.09,0.2
19.74001407623291,-0.04,-0.03,-0.47,0.47
19.812259912490845,-0.27,-0.02,-0.8,0.84
19.812861919403076,-0.22,0.0,-0.81,0.83
19.813415050506592,-0.11,0.0,-0.81,0.81
19.814537048339844,-0.09,0.06,-0.55,0.56
19.81595277786255,0.05,0.05,-0.22,0.23
19.816905975341797,0.16,0.05,-0.17,0.23
19.81810188293457,0.23,0.06,-0.25,0.34
19.819884777069092,0.34,0.01,-0.16,0.37
19.829858779907227,0.27,-0.06,-0.2,0.34
19.839900016784668,0.06,0.05,-0.28,0.29
19.912123918533325,-0.08,0.12,-0.52,0.53
19.9127197265625,-0.12,0.03,-0.48,0.49
19.913311004638672,-0.13,-0.1,-0.21,0.26
19.91448402404785,-0.06,-0.13,-0.35,0.37
19.915952920913696,0.11,-0.04,-0.34,0.35
19.916879892349243,0.22,0.05,-0.13,0.26
19.918059825897217,0.3,0.12,-0.14,0.35
19.919753074645996,0.47,0.03,-0.01,0.47
19.929804801940918,0.63,-0.03,0.0,0.63
19.939772844314575,0.62,-0.01,-0.09,0.62
20.012078762054443,0.41,0.11,0.01,0.42
20.012674808502197,0.26,0.13,0.15,0.32
20.013251781463623,0.18,0.18,-0.08,0.26
20.014761924743652,0.26,0.29,-0.28,0.47
20.015892028808594,0.63,0.41,-0.07,0.75
20.016836881637573,1.1,0.47,0.08,1.19
20.017996788024902,1.61,0.48,0.15,1.68
20.019574880599976,2.2,0.43,0.1,2.24
20.0296049118042,2.4,0.52,-0.21,2.46
20.039612770080566,2.42,0.54,-0.4,2.51
20.049587726593018,2.68,0.49,-0.48,2.76
20.11279582977295,2.91,0.52,-0.61,3.01
20.11338472366333,3.14,0.64,-0.56,3.25
20.114902019500732,3.39,1.1,-0.49,3.59
20.115997791290283,3.3,1.64,-0.49,3.71
20.116936922073364,2.96,2.25,-0.34,3.73
20.118095874786377,3.09,2.81,-1.07,4.31
20.119455814361572,3.43,3.68,-0.89,5.1
20.12948489189148,2.97,3.09,-0.02,4.28
20.139479875564575,2.68,2.56,0.11,3.7
20.14939284324646,2.61,2.36,0.47,3.55
20.212564945220947,2.93,2.29,0.31,3.73
20.213140964508057,3.06,2.58,0.42,4.02
20.21463894844055,3.43,3.05,0.16,4.59
20.215795040130615,3.99,3.47,0.0,5.28
20.21667790412903,4.41,3.69,0.18,5.75
20.217901945114136,4.57,3.61,0.26,5.82
20.21917200088501,4.21,3.37,-0.04,5.39
20.229177951812744,3.58,3.31,0.01,4.87
20.239237785339355,3.2,3.64,0.12,4.84
20.249155044555664,3.25,4.59,-0.33,5.63
20.312160968780518,3.91,6.11,-0.98,7.31
20.312747955322266,4.47,6.89,-2.4,8.55
20.314239978790283,4.82,6.83,-2.85,8.83
20.315343856811523,3.13,7.8,-1.4,8.52
20.31592082977295,-0.79,8.56,-1.39,8.7
20.317466735839844,-3.26,8.26,-4.23,9.83
20.319134950637817,-1.47,8.07,-5.32,9.77
20.32985782623291,1.37,6.18,-3.66,7.31
20.339141845703125,4.68,4.01,-3.35,7.01
20.34909677505493,8.41,0.14,-2.81,8.86
20.412755966186523,6.51,-3.5,-0.8,7.43
20.413349866867065,-3.18,-3.22,-0.95,4.62
20.414836883544922,-5.8,-1.51,-4.35,7.4
20.41598892211914,1.7,-0.18,-4.76,5.05
20.41700792312622,8.05,-1.35,-2.17,8.44
20.418226957321167,11.36,-2.15,-0.16,11.56
20.419424057006836,11.3,-2.92,0.93,11.7
20.429054737091064,9.87,-3.15,2.1,10.57
20.438971996307373,8.67,-3.59,2.98,9.84
20.449023723602295,8.1,-4.27,2.95,9.62
20.51346206665039,8.27,-4.18,2.38,9.56
20.51436495780945,8.49,-3.5,1.76,9.35
20.51553773880005,8.29,-2.97,1.49,8.93
20.517061948776245,7.59,-2.85,1.38,8.22
20.517645835876465,6.54,-3.07,1.21,7.32
20.518885850906372,5.52,-3.11,1.11,6.43
20.520073890686035,4.56,-2.87,1.08,5.49
20.528945922851562,3.72,-2.46,0.84,4.53
20.538989067077637,2.98,-1.79,0.37,3.49
20.548951864242554,2.27,-1.03,0.41,2.52
20.614173889160156,1.4,-0.1,0.89,1.66
20.61497187614441,0.24,1.26,0.55,1.39
20.616124868392944,-0.9,2.83,-0.77,3.06
20.617637872695923,-2.33,4.58,-2.27,5.61
20.61825180053711,-4.66,6.05,-3.37,8.34
20.619489908218384,-7.08,6.9,-3.87,10.61
20.620662927627563,-8.19,7.06,-3.77,11.45
20.62875485420227,-7.3,6.67,-2.55,10.21
20.63878297805786,-5.46,6.09,-0.81,8.21
20.64875888824463,-4.34,5.3,-0.83,6.9
20.715471744537354,-5.61,5.27,-2.69,8.15
20.716067790985107,-7.81,5.95,-3.89,10.56
20.717576026916504,-8.35,5.46,-3.33,10.51
20.71877694129944,-7.86,4.02,-2.12,9.07
20.71937084197998,-8.56,1.43,-1.58,8.82
20.720619916915894,-9.25,-0.47,-1.24,9.34
20.721787929534912,-9.31,0.52,-1.4,9.42
20.728623867034912,-8.29,1.92,-1.74,8.68
20.79850196838379,-7.51,1.29,-1.91,7.85
20.79912281036377,-6.8,1.42,-1.32,7.07
20.799731731414795,-6.01,0.66,-0.14,6.04
20.800591945648193,-4.92,0.91,0.19,5.0
20.80180072784424,0.82,2.74,1.16,3.08
20.802965879440308,6.01,2.15,5.16,8.2
20.803874969482422,3.99,0.97,3.42,5.34
20.808506965637207,-2.73,1.22,-0.56,3.04
20.818603038787842,-8.08,0.67,-1.68,8.27
20.82847285270691,-8.26,-0.1,-1.57,8.4
20.8988778591156,-5.68,0.53,-1.96,6.03
20.899472951889038,-3.5,2.09,-1.55,4.36
20.900047779083252,-2.66,3.24,-1.22,4.36
20.900935888290405,-2.56,3.68,-1.4,4.69
20.902150869369507,-4.87,1.88,-3.43,6.24
20.90367889404297,-7.62,0.31,-4.86,9.04
20.904254913330078,-5.78,3.06,-2.23,6.9
20.90841579437256,-3.69,1.39,0.67,3.99
20.918340921401978,-3.32,-1.68,1.19,3.9
20.928319931030273,-3.56,-2.12,0.24,4.15
20.999396800994873,-2.94,-1.17,-0.18,3.16
20.99998688697815,-2.16,-0.02,0.51,2.21
21.000935077667236,-1.76,0.27,0.69,1.9
21.00151491165161,-1.62,0.0,0.41,1.67
21.002718925476074,-1.43,-0.05,0.25,1.45
21.004185914993286,-0.91,0.08,0.34,0.97
21.004765033721924,-0.4,0.14,0.11,0.43
21.008262872695923,0.0,0.02,-0.44,0.44
21.01826286315918,0.14,-0.1,-0.78,0.79
21.028188943862915,0.12,-0.05,-0.88,0.88
21.099485874176025,-0.02,-0.01,-0.95,0.95
21.100080013275146,-0.29,0.08,-1.25,1.28
21.10101079940796,-0.53,0.15,-1.64,1.73
21.101598739624023,-0.74,0.2,-1.69,1.85
21.103137969970703,-0.79,0.26,-1.39,1.61
21.104299068450928,-0.37,0.24,-1.1,1.18
21.104877948760986,0.25,0.08,-0.54,0.6
21.107930898666382,0.53,0.01,0.09,0.53
21.117928981781006,0.52,-0.02,0.32,0.61
21.127988815307617,0.36,0.01,0.43,0.56
21.199702739715576,0.27,-0.02,0.41,0.49
21.20030975341797,0.26,-0.06,0.17,0.31
21.201283931732178,0.25,-0.04,-0.07,0.26
21.20189380645752,0.16,-0.05,-0.37,0.4
21.203449726104736,-0.08,-0.04,-0.62,0.62
21.204617023468018,-0.19,-0.08,-0.64,0.67
21.205219745635986,-0.04,-0.02,-0.47,0.47
21.20801091194153,0.5,0.09,-0.36,0.62
21.217830896377563,0.73,0.03,-0.37,0.81
21.227914810180664,0.72,0.0,-0.13,0.73
21.300222873687744,0.88,-0.09,0.23,0.91
21.30117893218994,0.93,-0.13,0.2,0.96
21.301767826080322,0.56,-0.1,0.02,0.56
21.302345752716064,0.01,-0.03,0.04,0.05
21.303892850875854,-0.57,0.04,-0.01,0.57
21.305054903030396,-1.11,0.03,-0.05,1.11
21.305638790130615,-1.42,0.02,-0.07,1.42
21.30783987045288,-1.52,0.02,-0.04,1.52
21.31769585609436,-1.46,-0.05,-0.24,1.48
21.32773780822754,-1.19,-0.06,-0.27,1.22
21.40026593208313,-0.65,0.07,-0.13,0.66
21.40121603012085,0.0,0.17,0.03,0.17
21.40183973312378,0.78,0.21,0.19,0.82
21.402740001678467,1.4,0.19,0.02,1.41
21.403876781463623,1.52,0.19,0.07,1.53
21.40497875213623,1.82,0.3,0.45,1.89
21.405552864074707,2.05,0.48,0.3,2.12
21.40770196914673,1.87,0.57,0.0,1.95
21.417531967163086,2.0,0.49,-0.07,2.06
21.427700996398926,2.25,0.37,-0.11,2.28
21.500731945037842,2.27,0.57,0.09,2.34
21.501317024230957,2.18,1.01,0.07,2.4
21.50193190574646,2.45,1.2,-0.24,2.73
21.502840042114258,2.64,1.15,-0.3,2.89
21.50404405593872,2.44,1.13,-0.6,2.75
21.50518798828125,2.3,1.26,-0.48,2.66
21.505765914916992,2.25,1.73,-0.04,2.83
21.50756072998047,2.54,2.67,-0.3,3.69
21.51759386062622,3.37,3.41,-1.1,4.91
21.527559757232666,2.93,3.5,-0.42,4.58
21.60131072998047,3.36,3.62,-0.12,4.94
21.601939916610718,3.73,3.64,-0.21,5.21
21.602866888046265,4.01,3.81,-0.44,5.54
21.603452920913696,4.6,4.32,-0.33,6.31
21.60461688041687,5.29,4.39,-0.42,6.88
21.605741024017334,5.45,4.34,-0.32,6.97
21.60631799697876,5.15,4.5,-0.5,6.85
21.60751485824585,4.55,4.78,-0.39,6.61
21.617650985717773,3.82,5.01,-0.23,6.3
21.62750792503357,3.1,5.2,-0.39,6.06
21.701639890670776,2.58,6.04,-0.77,6.61
21.702576875686646,2.37,7.04,-1.65,7.6
21.703189849853516,2.99,6.9,-2.6,7.95
21.703810930252075,3.54,5.82,-3.07,7.47
21.704969882965088,1.96,5.74,-2.27,6.47
21.706095933914185,-0.89,7.14,-2.62,7.65
21.706678867340088,-0.52,5.93,-4.12,7.23
21.707886934280396,2.04,4.5,-2.42,5.5
21.71723175048828,5.34,3.16,-1.23,6.32
21.72705388069153,8.0,0.18,-0.9,8.05
21.802550792694092,7.73,-2.99,-0.3,8.29
21.8033447265625,0.31,-3.67,0.51,3.71
21.80393886566162,-4.38,-4.11,-2.45,6.48
21.804527759552002,-1.29,-0.63,-4.32,4.55
21.805693864822388,5.56,-0.96,-3.59,6.68
21.80686378479004,9.46,-2.32,-1.47,9.85
21.807451725006104,10.46,-2.52,0.14,10.76
21.80864191055298,9.63,-2.55,1.45,10.06
21.817075729370117,8.1,-3.09,2.52,9.02
21.827064037322998,6.48,-4.01,2.69,8.08
21.903028964996338,5.7,-4.49,2.41,7.64
21.903831005096436,5.63,-4.0,1.87,7.15
21.90442705154419,5.68,-3.24,1.27,6.66
21.905016899108887,5.52,-2.8,0.93,6.25
21.90624690055847,5.13,-2.64,1.17,5.88
21.907418727874756,4.92,-2.52,1.59,5.75
21.908000946044922,4.61,-2.46,1.42,5.41
21.909224033355713,3.78,-2.26,0.71,4.46
21.91689395904541,2.66,-1.71,0.39,3.18
21.926899909973145,1.96,-1.09,1.2,2.54
22.00412392616272,2.07,-0.67,2.2,3.09
22.004714965820312,2.63,-0.27,2.23,3.45
22.005297899246216,1.95,1.08,1.11,2.49
22.005878925323486,-0.28,2.91,-0.56,2.97
22.007102012634277,-2.68,4.26,-1.91,5.38
22.008256912231445,-3.51,5.23,-2.63,6.82
22.008841037750244,-2.79,6.57,-2.36,7.51
22.01004385948181,-2.92,7.84,-1.63,8.52
22.016790866851807,-4.25,8.33,-2.17,9.6
22.02680778503418,-6.75,8.18,-3.61,11.2
22.10466194152832,-9.69,8.11,-4.84,13.53
22.105271816253662,-11.38,7.63,-5.35,14.7
22.105906009674072,-10.94,5.7,-5.26,13.41
22.10648775100708,-9.53,2.79,-4.02,10.71
22.107643842697144,-9.2,-0.01,-1.96,9.4
22.108788013458252,-10.05,-1.54,-0.66,10.18
22.109372854232788,-10.26,-2.67,-0.36,10.6
22.110553741455078,-9.05,-3.22,-0.08,9.6
22.116663932800293,-7.34,-2.67,0.41,7.82
22.126651763916016,-6.42,0.02,-0.21,6.42
22.205296993255615,-4.87,6.77,-1.9,8.55
22.205939769744873,-4.05,4.76,-2.75,6.82
22.206552982330322,-6.1,1.21,-2.93,6.87
22.207132816314697,-8.13,-1.86,-2.8,8.79
22.20829677581787,-2.64,-1.48,-1.87,3.55
22.209455966949463,7.08,0.88,3.22,7.82
22.210044860839844,9.26,2.06,6.16,11.31
22.211554050445557,2.74,2.12,2.63,4.34
22.216519832611084,-4.91,2.22,-0.29,5.39
22.226505756378174,-7.1,0.97,-0.22,7.16
22.30529499053955,-5.88,1.13,-0.21,5.99
22.305922985076904,-4.87,3.97,-0.99,6.36
22.306529998779297,-3.37,4.56,-1.43,5.84
22.307121753692627,-2.4,2.19,-0.74,3.33
22.308303833007812,-3.63,-0.27,-1.33,3.87
22.309467792510986,-4.32,-0.67,-2.01,4.81
22.310051918029785,-3.92,1.12,-0.41,4.09
22.311587810516357,-4.29,-0.44,0.55,4.34
22.316385746002197,-4.06,-1.53,0.17,4.34
22.326385974884033,-3.32,-0.8,0.03,3.41
22.40516495704651,-2.39,-0.21,-0.26,2.41
22.405778884887695,-2.06,-0.03,-0.59,2.14
22.4063777923584,-1.92,0.07,-0.68,2.03
22.406962871551514,-1.91,0.29,-0.66,2.04
22.408134937286377,-1.62,0.58,-0.57,1.81
22.40931987762451,-0.72,0.5,-0.25,0.91
22.40989875793457,0.06,0.11,0.02,0.12
22.411441802978516,0.41,-0.18,-0.19,0.48
22.41623592376709,0.5,-0.27,-0.54,0.78
22.426236867904663,0.38,-0.1,-0.72,0.82
22.5053129196167,0.19,0.11,-0.87,0.89
22.50596594810486,-0.09,0.17,-1.49,1.5
22.506617069244385,-0.27,0.06,-1.93,1.94
22.50720977783203,-0.4,-0.06,-1.72,1.76
22.50838804244995,-0.57,0.0,-1.28,1.4
22.509536743164062,-0.63,0.12,-0.71,0.95
22.510118007659912,-0.52,0.07,-0.14,0.54
22.5116069316864,-0.3,0.02,0.06,0.3
22.516098022460938,-0.23,0.01,0.13,0.26
22.526059865951538,-0.18,-0.03,0.26,0.31
22.60514187812805,-0.21,-0.01,0.22,0.3
22.605783939361572,-0.19,-0.05,0.33,0.38
22.60640287399292,-0.13,-0.08,0.51,0.53
22.607001781463623,-0.2,0.05,0.41,0.45
22.608237743377686,-0.14,0.08,0.23,0.28
22.609397888183594,-0.07,-0.02,0.0,0.07
22.609971046447754,-0.16,0.03,-0.48,0.5
22.611515998840332,-0.21,0.1,-0.53,0.57
22.615957736968994,0.02,0.0,-0.56,0.56
22.625988006591797,0.26,-0.01,-0.53,0.59
22.704875946044922,0.62,-0.02,0.13,0.63
22.70550775527954,0.8,0.02,0.37,0.88
22.706089973449707,0.73,0.06,0.23,0.76
22.70668888092041,0.72,0.07,0.4,0.82
22.70793390274048,0.89,0.11,0.34,0.95
22.70908784866333,0.82,0.09,-0.02,0.82
22.709670066833496,0.57,0.14,-0.16,0.6
22.71120595932007,0.43,0.25,-0.34,0.6
22.71574878692627,0.19,0.3,-0.52,0.62
22.725839853286743,-0.23,0.22,-0.53,0.61
22.80436086654663,-0.32,0.23,-0.46,0.6
22.804959774017334,-0.14,0.25,-0.37,0.46
22.805583953857422,0.15,0.2,-0.4,0.47
22.806155920028687,0.37,0.21,-0.34,0.54
22.80739402770996,0.47,0.27,-0.32,0.62
22.808547973632812,0.63,0.35,-0.44,0.84
22.809131860733032,0.77,0.43,-0.59,1.06
22.810359954833984,0.88,0.33,-0.65,1.14
22.815692901611328,1.4,0.32,-0.38,1.48
22.82571506500244,1.88,0.44,-0.18,1.93
22.90398073196411,2.02,0.46,0.11,2.07
22.904584884643555,2.38,0.64,0.35,2.48
22.905171871185303,2.88,0.8,0.41,3.01
22.905751943588257,3.23,0.99,0.38,3.39
22.907034873962402,3.4,1.49,-0.46,3.74
22.90824604034424,3.43,2.56,-0.61,4.32
22.90882396697998,2.96,2.82,-0.47,4.11
22.91008996963501,2.87,2.79,-1.02,4.13
22.91554093360901,3.02,2.85,-0.63,4.19
22.925575733184814,2.83,2.48,-0.43,3.78
23.004374027252197,2.61,2.25,-0.17,3.45
23.004984855651855,2.74,2.46,-0.1,3.68
23.005586862564087,3.2,2.88,-0.26,4.31
23.006162881851196,3.61,3.35,-0.21,4.92
23.00735592842102,4.06,3.66,-0.06,5.46
23.008529901504517,4.68,4.12,-0.03,6.23
23.00911593437195,4.91,4.27,0.12,6.5
23.010647773742676,4.8,4.19,-0.09,6.37
23.015338897705078,4.54,4.23,-0.36,6.21
23.025386810302734,3.74,4.38,-0.3,5.76
23.10384178161621,3.15,4.4,-0.24,5.41
23.10445499420166,3.0,4.66,-0.52,5.56
23.105057954788208,3.89,5.59,-0.82,6.85
23.10565686225891,5.09,5.8,-1.63,7.88
23.106871843338013,4.96,5.7,-1.78,7.76
23.10801386833191,2.32,6.93,-1.87,7.54
23.108592987060547,-0.64,8.47,-3.92,9.35
23.109786987304688,0.93,8.07,-5.28,9.68
23.115298748016357,3.69,7.06,-3.13,8.55
23.125257968902588,5.2,5.68,-1.63,7.87
23.20241403579712,7.08,2.58,-1.09,7.61
23.204855918884277,6.83,-2.53,-0.51,7.3
23.205456733703613,-0.16,-3.23,0.17,3.23
23.20604181289673,-6.04,-2.65,-3.23,7.34
23.207223892211914,-0.97,0.77,-4.89,5.04
23.2083740234375,6.56,0.44,-3.06,7.25
23.208947896957397,10.54,-0.51,-0.51,10.56
23.210455894470215,11.18,-1.78,0.68,11.34
23.215016841888428,9.45,-2.72,1.55,9.95
23.225092887878418,7.34,-2.92,1.82,8.1
23.23504090309143,6.29,-3.1,1.37,7.14
23.304728031158447,6.08,-3.68,1.08,7.18
23.305330753326416,6.14,-3.98,1.23,7.41
23.305912971496582,5.82,-3.87,1.22,7.09
23.30712890625,5.21,-3.66,1.05,6.45
23.308295726776123,4.74,-3.48,0.9,5.94
23.308883905410767,4.23,-3.43,1.1,5.55
23.310412883758545,3.73,-3.21,1.45,5.13
23.31489086151123,3.38,-2.7,1.89,4.72
23.32492184638977,2.92,-1.65,2.52,4.19
23.33488392829895,2.6,-0.51,2.79,3.84
23.404623985290527,2.15,0.41,2.1,3.03
23.405231952667236,0.77,1.28,0.68,1.64
23.405827045440674,-1.48,2.46,-1.1,3.07
23.40704584121704,-3.4,3.38,-2.13,5.24
23.408225059509277,-4.05,4.12,-1.8,6.05
23.408804893493652,-4.01,5.07,-1.19,6.57
23.41033697128296,-4.38,5.81,-1.13,7.36
23.414883852005005,-5.35,5.63,-1.35,7.88
23.424884796142578,-5.66,5.27,-1.66,7.9
23.434793949127197,-6.11,5.75,-2.67,8.8
23.505502939224243,-7.44,6.93,-3.63,10.79
23.50613498687744,-8.81,7.4,-3.66,12.07
23.506739854812622,-9.49,5.59,-2.97,11.4
23.507988929748535,-9.18,2.27,-1.83,9.63
23.509182929992676,-8.55,-0.39,-0.81,8.59
23.510077953338623,-8.01,-1.52,-0.18,8.15
23.51132297515869,-7.63,-1.32,-0.48,7.75
23.514633893966675,-7.35,1.41,-0.98,7.54
23.524719953536987,-6.49,3.84,-1.1,7.62
23.534640789031982,-6.73,1.81,-1.34,7.09
23.6053569316864,-7.21,1.31,-1.76,7.53
23.606008052825928,-7.66,-0.35,-1.6,7.83
23.606650829315186,-7.86,-1.3,-1.68,8.14
23.60793399810791,-3.01,1.3,-1.89,3.78
23.60908079147339,5.07,3.53,1.61,6.38
23.609972953796387,6.3,2.78,3.39,7.67
23.61116600036621,0.12,1.39,0.79,1.6
23.61444592475891,-6.4,1.07,-1.15,6.58
23.624387741088867,-7.54,1.12,-1.37,7.74
23.634431838989258,-6.29,3.02,-1.29,7.09
23.70532989501953,-4.63,5.04,-1.15,6.93
23.705959796905518,-4.66,4.01,-1.16,6.25
23.706549882888794,-6.84,-0.23,-3.24,7.57
23.70774793624878,-6.75,1.32,-3.25,7.6
23.70895290374756,-4.72,2.42,-0.26,5.31
23.709897994995117,-4.2,-0.55,1.31,4.43
23.711097955703735,-4.47,-1.83,1.11,4.95
23.71440291404724,-4.04,-1.37,0.78,4.33
23.72439694404602,-3.06,-0.64,0.87,3.24
23.734362840652466,-2.1,-0.2,1.01,2.33
23.805388927459717,-1.32,-0.03,0.76,1.52
23.80600094795227,-0.84,0.05,0.28,0.88
23.806583881378174,-0.55,0.15,-0.14,0.58
23.80780792236328,-0.38,0.22,-0.2,0.48
23.808971881866455,-0.13,0.23,-0.15,0.3
23.80987787246704,0.28,0.1,-0.41,0.5
23.811068058013916,0.4,-0.14,-1.04,1.12
23.81420588493347,0.22,-0.17,-1.62,1.64
23.82428789138794,-0.02,-0.03,-1.8,1.8
23.834243774414062,-0.23,0.12,-1.73,1.74
23.905076026916504,-0.4,0.17,-1.5,1.56
23.905681848526,-0.38,0.21,-1.22,1.29
23.906274795532227,-0.04,0.11,-0.86,0.86
23.907509803771973,0.31,0.01,-0.37,0.48
23.908720016479492,0.66,0.02,0.18,0.68
23.90964698791504,0.9,0.07,0.29,0.94
23.910861015319824,0.76,0.06,0.28,0.81
23.914211750030518,0.2,-0.05,0.29,0.35
23.92418384552002,-0.34,-0.03,-0.24,0.41
23.93414878845215,-0.51,0.04,-1.1,1.21
24.005263805389404,-0.67,0.04,-1.74,1.86
24.00582504272461,-0.68,-0.2,-1.39,1.56
24.00642490386963,-0.77,-0.33,-0.59,1.02
24.007591724395752,-0.75,-0.03,-0.35,0.82
24.009094953536987,-0.58,0.18,0.06,0.61
24.00967502593994,-0.25,0.11,0.72,0.77
24.010910987854004,-0.12,0.05,0.36,0.38
24.01390504837036,-0.16,0.1,-0.01,0.18
24.023923873901367,-0.06,0.12,-0.24,0.27
24.033926963806152,0.06,0.1,-0.49,0.5
24.104153871536255,0.15,0.2,-1.01,1.04
24.104753971099854,0.11,-0.1,-1.33,1.33
24.105336904525757,-0.38,-0.32,-1.01,1.12
24.106546878814697,-0.81,-0.14,-0.19,0.84
24.107748985290527,-0.96,0.09,0.14,0.97
24.108357906341553,-0.94,0.19,0.35,1.02
24.109855890274048,-0.48,0.17,0.97,1.09
24.11379885673523,0.13,0.18,1.13,1.15
24.123833894729614,0.66,0.1,0.81,1.04
24.13381290435791,0.92,0.11,0.55,1.07
24.20353388786316,1.0,0.16,0.16,1.02
24.204108953475952,0.93,0.16,-0.18,0.96
24.204673767089844,0.83,0.14,-0.27,0.88
24.205864906311035,0.74,0.18,-0.32,0.82
24.207004070281982,0.69,0.16,-0.16,0.72
24.20758295059204,0.77,0.11,0.16,0.79
24.209063053131104,1.0,0.09,0.41,1.08
24.213700771331787,1.43,0.15,0.41,1.49
24.223680019378662,2.01,0.32,-0.15,2.04
24.23366403579712,2.67,0.48,-0.91,2.86
24.303380012512207,3.14,0.54,-1.13,3.38
24.303971767425537,3.18,0.71,-1.29,3.5
24.30458092689514,3.2,0.7,-1.55,3.62
24.305760860443115,3.28,0.47,-1.13,3.5
24.306941986083984,3.16,0.41,-0.76,3.27
24.307535886764526,2.94,0.71,-0.49,3.06
24.309020042419434,2.95,1.25,-0.06,3.2
24.313570022583008,3.0,2.37,-0.72,3.89
24.32354497909546,3.18,3.85,-0.73,5.04
24.333550930023193,2.88,3.58,0.65,4.64
24.40321397781372,2.66,3.48,0.63,4.42
24.403799057006836,2.67,3.44,0.79,4.42
24.404399871826172,3.14,3.21,0.72,4.54
24.405591011047363,3.4,2.97,0.84,4.59
24.40676975250244,3.78,3.03,0.61,4.88
24.407347917556763,4.32,3.23,0.62,5.42
24.408859729766846,4.6,3.31,0.43,5.68
24.41345191001892,4.59,3.27,0.42,5.65
24.42343282699585,4.33,3.38,0.46,5.51
24.433320999145508,3.95,3.71,0.19,5.42
24.503548860549927,3.22,3.72,-0.19,4.92
24.504138946533203,2.23,3.81,-0.27,4.42
24.504734992980957,1.49,4.49,-0.33,4.74
24.505934953689575,1.64,5.42,-0.97,5.74
24.507132053375244,2.55,6.06,-1.75,6.8
24.507715940475464,3.07,6.38,-2.02,7.36
24.509221076965332,2.22,6.16,-2.13,6.88
24.51331901550293,1.02,6.92,-3.7,7.91
24.52327585220337,1.41,7.2,-4.86,8.8
24.533110857009888,3.82,6.34,-3.73,8.28
24.604053020477295,6.61,5.26,-2.67,8.85
24.60466480255127,8.18,3.38,-1.57,8.98
24.60526180267334,7.28,-0.49,-0.82,7.34
24.606475830078125,2.79,-3.15,-0.34,4.22
24.607635974884033,-4.48,-3.0,-1.46,5.58
24.608536958694458,-6.67,-0.1,-4.22,7.89
24.60971689224243,1.08,0.66,-4.88,5.04
24.613182067871094,8.2,-1.29,-2.99,8.82
24.623220920562744,10.99,-2.37,-1.12,11.29
24.633089065551758,10.68,-2.86,0.27,11.05
24.704505920410156,9.13,-3.23,1.65,9.82
24.70512580871582,7.37,-3.78,2.32,8.6
24.705729961395264,6.38,-4.4,2.28,8.07
24.706899881362915,6.15,-4.81,2.01,8.06
24.708375930786133,6.08,-4.63,1.72,7.83
24.708953857421875,5.78,-4.11,1.25,7.2
24.71013593673706,5.24,-3.68,0.63,6.43
24.71290683746338,4.73,-3.35,0.18,5.79
24.723049879074097,4.41,-3.11,0.15,5.39
24.73296093940735,4.05,-2.68,0.32,4.86
24.805049896240234,3.52,-1.98,0.65,4.09
24.80564785003662,2.98,-1.18,1.14,3.4
24.806232929229736,2.39,-0.18,1.68,2.92
24.807406902313232,1.82,0.86,1.89,2.76
24.808846950531006,1.15,1.6,1.12,2.26
24.80942988395691,0.19,2.67,-0.79,2.79
24.810608863830566,-1.63,4.26,-3.16,5.54
24.81289291381836,-3.78,5.42,-4.56,8.02
24.822820901870728,-5.19,6.29,-4.59,9.35
24.832835912704468,-5.88,6.38,-3.8,9.47
24.905499935150146,-6.1,5.78,-3.09,8.95
24.906107902526855,-5.87,5.22,-2.58,8.26
24.906696796417236,-5.78,4.89,-2.28,7.9
24.90829586982727,-7.23,4.87,-3.23,9.29
24.90947675704956,-9.52,5.04,-4.97,11.86
24.91006898880005,-10.84,4.25,-5.5,12.87
24.911288738250732,-10.36,2.66,-4.28,11.52
24.91263198852539,-9.08,1.17,-2.48,9.48
24.922788858413696,-8.49,-0.31,-0.64,8.51
24.932769775390625,-8.97,-1.05,0.15,9.03
25.005866050720215,-9.74,-1.03,-0.62,9.81
25.006484031677246,-9.54,-0.95,-1.22,9.66
25.00707197189331,-8.5,0.3,-1.19,8.58
25.008610725402832,-6.17,6.0,-0.94,8.65
25.009771823883057,-4.83,4.61,-0.26,6.68
25.01035785675049,-6.32,1.22,0.0,6.43
25.01155996322632,-6.96,-0.75,0.27,7.0
25.01281189918518,1.33,0.54,1.53,2.09
25.022615909576416,11.68,1.21,7.0,13.67
25.03256893157959,10.97,0.65,7.34,13.21
25.10621976852417,1.12,1.13,1.35,2.08
25.10683584213257,-9.06,1.35,-1.78,9.33
25.10773801803589,-10.7,0.87,-2.08,10.93
25.108940839767456,-7.33,4.27,-1.38,8.59
25.11009192466736,-4.99,6.75,-0.65,8.41
25.11073398590088,-4.22,3.8,-1.46,5.86
25.111937046051025,-2.81,1.3,-0.98,3.24
25.113114833831787,-3.7,0.34,-1.07,3.86
25.122457027435303,-4.62,-0.52,-1.81,4.98
25.132389068603516,-4.41,0.19,-0.89,4.5
25.206613063812256,-4.02,-0.5,-0.19,4.05
25.20753002166748,-3.21,-1.08,-0.53,3.42
25.208117961883545,-2.23,-0.45,-0.91,2.45
25.209306955337524,-1.14,-0.05,-0.69,1.33
25.2104549407959,-0.49,-0.05,-0.35,0.6
25.211005926132202,-0.13,-0.12,-0.28,0.33
25.212225914001465,0.11,-0.06,-0.27,0.29
25.21339988708496,0.24,0.12,-0.12,0.29
25.222209930419922,0.24,0.28,0.03,0.37
25.232224941253662,0.08,0.11,0.1,0.16
25.30737590789795,0.04,-0.15,-0.16,0.22
25.30816078186035,0.11,-0.34,-0.51,0.62
25.308729887008667,0.11,-0.23,-0.73,0.77
25.309892892837524,-0.03,0.13,-0.88,0.89
25.311060905456543,-0.25,0.29,-0.76,0.85
25.311648845672607,-0.26,0.24,-0.52,0.62
25.312875747680664,-0.45,0.17,-0.6,0.76
25.314048767089844,-0.69,0.1,-0.59,0.91
25.322094917297363,-0.68,0.13,-0.32,0.76
25.332091808319092,-0.52,-0.01,-0.12,0.53
25.406585931777954,-0.55,-0.24,0.01,0.6
25.407521724700928,-0.84,-0.13,0.03,0.85
25.40809988975525,-1.06,-0.01,0.23,1.08
25.40929079055786,-1.0,0.05,0.45,1.09
25.410454750061035,-0.8,0.0,0.35,0.87
25.41102886199951,-0.56,-0.05,0.2,0.59
25.412231922149658,-0.25,-0.01,-0.55,0.6
25.413392066955566,0.05,-0.01,-0.49,0.49
25.42198085784912,0.21,-0.06,0.03,0.22
25.431946754455566,-0.07,-0.15,-0.34,0.37
25.50568199157715,-0.48,-0.04,-0.2,0.52
25.50631284713745,-0.63,0.08,0.25,0.68
25.50721287727356,-0.65,-0.05,0.46,0.79
25.508388996124268,-0.57,-0.09,0.42,0.71
25.509535789489746,-0.21,-0.02,0.29,0.35
25.510124921798706,0.29,0.11,-0.24,0.39
25.511291980743408,0.61,0.11,-1.12,1.28
25.512430906295776,0.65,0.1,-1.66,1.78
25.521894931793213,0.5,0.04,-1.31,1.4
25.531861782073975,0.14,0.01,-0.77,0.78
25.60568904876709,0.01,0.01,-0.27,0.27
25.606290817260742,0.22,-0.08,0.36,0.42
25.607200860977173,0.28,-0.03,0.38,0.47
25.608353853225708,0.1,-0.03,0.05,0.11
25.60950994491577,-0.09,-0.04,-0.49,0.49
25.610121726989746,-0.04,0.0,-0.77,0.77
25.611353874206543,0.43,0.07,-0.6,0.74
25.612515926361084,0.97,0.16,-0.06,0.98
25.62159776687622,1.14,0.33,0.22,1.2
25.631689071655273,1.41,0.38,0.35,1.5
25.70533585548401,1.92,0.4,0.31,1.98
25.70593285560608,2.17,0.47,-0.01,2.22
25.706838846206665,2.16,0.49,-0.49,2.26
25.708026885986328,2.23,0.3,-0.59,2.32
25.709179878234863,2.65,0.22,-0.51,2.7
25.709758758544922,3.13,0.32,-0.37,3.16
25.71093988418579,3.73,0.57,-0.23,3.78
25.712117910385132,4.15,0.85,-0.4,4.25
25.72147488594055,4.31,1.23,-0.53,4.51
25.731505870819092,4.05,1.76,-0.95,4.51
25.8054838180542,3.58,1.92,-0.9,4.16
25.806429862976074,2.58,3.03,-1.23,4.16
25.80701494216919,2.28,4.64,-1.01,5.26
25.808193922042847,2.06,3.82,1.19,4.5
25.80936288833618,1.79,3.18,0.75,3.72
25.809940814971924,1.82,3.53,0.86,4.06
25.811123847961426,2.34,3.52,0.9,4.32
25.812286853790283,3.04,3.57,0.6,4.72
25.82131791114807,3.47,3.72,0.16,5.08
25.831413745880127,3.69,3.83,-0.01,5.31
25.905613899230957,3.73,3.83,-0.33,5.35
25.906503915786743,3.71,3.55,-0.33,5.14
25.90705394744873,3.8,3.71,-0.64,5.34
25.908268928527832,3.47,4.45,-0.99,5.72
25.909433841705322,3.14,6.26,-1.4,7.14
25.910032749176025,3.35,8.47,-2.33,9.4
25.911253929138184,3.0,9.08,-3.58,10.21
25.912433862686157,2.42,7.71,-3.31,8.73
25.921469926834106,0.92,6.85,-2.4,7.31
25.931339740753174,-1.39,7.05,-3.36,7.93
26.0064697265625,-0.73,6.41,-5.25,8.31
26.007271766662598,1.56,4.17,-3.66,5.76
26.007866859436035,5.09,2.93,-2.17,6.26
26.009041786193848,8.97,0.17,-1.81,9.15
26.010199069976807,9.18,-3.28,-0.72,9.77
26.010809898376465,1.07,-3.83,0.66,4.03
26.011997938156128,-4.48,-4.17,-2.14,6.48
26.013178825378418,-1.41,-0.84,-3.97,4.29
26.021487951278687,5.45,-0.94,-2.69,6.14
26.031117916107178,9.77,-2.26,-0.55,10.04
26.10707187652588,10.93,-2.69,0.74,11.28
26.107894897460938,10.15,-2.75,1.57,10.63
26.108500003814697,8.61,-2.87,2.33,9.37
26.10977792739868,6.98,-3.45,2.8,8.27
26.110990047454834,5.9,-3.73,2.95,7.57
26.111562728881836,5.46,-3.22,2.53,6.82
26.112791061401367,5.19,-2.69,1.82,6.12
26.113988876342773,4.85,-2.65,1.19,5.65
26.121038913726807,4.47,-2.63,0.66,5.22
26.130839824676514,4.21,-2.35,0.43,4.84
26.20744800567627,3.84,-1.9,0.63,4.33
26.208112955093384,3.23,-1.49,1.09,3.72
26.208762884140015,2.41,-1.11,1.51,3.05
26.210052013397217,1.72,-0.57,2.0,2.69
26.211233854293823,1.63,-0.03,2.44,2.93
26.21181297302246,1.95,0.54,2.36,3.1
26.212996006011963,1.42,1.58,1.44,2.56
26.214162826538086,-0.34,2.8,-0.13,2.82
26.22080898284912,-2.13,3.75,-1.49,4.56
26.230713844299316,-2.99,4.68,-1.87,5.85
26.307805061340332,-2.92,5.23,-1.12,6.09
26.30842685699463,-2.71,5.21,-0.45,5.88
26.309034824371338,-3.03,4.9,-0.75,5.8
26.31029176712036,-3.45,4.75,-1.5,6.05
26.311481952667236,-4.06,4.99,-2.76,7.0
26.312063932418823,-5.6,5.89,-4.27,9.18
26.31329894065857,-7.72,6.91,-5.07,11.53
26.314483880996704,-9.26,6.35,-4.38,12.05
26.32076406478882,-9.61,4.02,-3.18,10.89
26.330854892730713,-9.4,1.26,-1.8,9.65
26.40832495689392,-9.04,-0.89,-1.22,9.16
26.408968925476074,-9.28,-1.75,-1.77,9.6
26.40956974029541,-9.41,-1.47,-2.33,9.8
26.410778045654297,-9.37,-1.1,-2.06,9.65
26.411932945251465,-9.43,-0.76,-1.66,9.6
26.41252088546753,-8.58,-0.81,-1.47,8.74
26.413718938827515,-7.06,0.27,-1.21,7.16
26.414893865585327,-4.69,7.15,-1.13,8.62
26.420569896697998,-6.2,5.27,-1.88,8.35
26.430383920669556,-7.25,-0.73,-4.03,8.32
26.508225917816162,2.33,-1.85,-0.97,3.12
26.508858919143677,11.55,0.01,6.42,13.21
26.509487867355347,9.74,0.51,6.89,11.94
26.510743856430054,1.67,1.0,1.85,2.68
26.51191473007202,-6.06,0.9,-1.34,6.27
26.51249885559082,-7.57,0.76,-2.05,7.87
26.51370096206665,-5.47,3.88,-2.33,7.09
26.514895915985107,-3.44,8.33,-1.83,9.19
26.520387887954712,-3.99,6.95,-1.34,8.12
26.530407905578613,-5.68,1.04,-3.24,6.62
26.607889890670776,-5.19,0.47,-2.63,5.83
26.608513832092285,-3.99,0.8,0.54,4.1
26.60913395881653,-3.67,-1.63,1.37,4.24
26.610342979431152,-3.72,-2.17,0.2,4.31
26.611512899398804,-3.4,-1.21,-0.73,3.68
26.612098932266235,-2.49,-0.27,-0.88,2.65
26.61332082748413,-1.8,0.15,-0.81,1.97
26.61455202102661,-1.31,0.1,-0.78,1.52
26.62027597427368,-0.96,0.18,-0.55,1.12
26.630255937576294,-0.84,0.36,-0.35,0.97
26.708425998687744,-0.69,0.51,-0.23,0.88
26.709054946899414,-0.41,0.29,-0.05,0.5
26.709677934646606,-0.2,-0.04,0.12,0.23
26.71090793609619,-0.02,-0.2,0.08,0.21
26.71207094192505,0.16,-0.17,-0.15,0.27
26.71265697479248,0.28,-0.1,-0.68,0.74
26.713868856430054,0.33,-0.04,-1.29,1.33
26.71541690826416,0.3,0.05,-1.47,1.5
26.72015905380249,0.21,0.15,-1.28,1.3
26.73007583618164,0.05,0.16,-0.72,0.73
26.808035850524902,-0.03,0.15,-0.24,0.28
26.80870795249939,-0.52,0.09,-0.28,0.59
26.80936288833618,-0.96,0.02,-0.49,1.07
26.810616970062256,-1.04,0.04,-0.32,1.08
26.81179690361023,-0.8,0.02,0.08,0.8
26.812376976013184,-0.4,-0.1,0.25,0.48
26.813596725463867,-0.25,-0.09,0.16,0.31
26.814809799194336,-0.16,-0.11,0.06,0.2
26.819941997528076,-0.22,-0.18,0.06,0.29
26.829993724822998,-0.34,-0.03,0.14,0.36
26.90763282775879,-0.43,0.06,0.02,0.43
26.908259868621826,-0.44,-0.02,-0.15,0.46
26.908854007720947,-0.5,-0.03,-0.28,0.57
26.91010284423828,-0.56,-0.02,-0.38,0.67
26.911293983459473,-0.53,-0.06,-0.4,0.66
26.911877870559692,-0.36,-0.07,-0.24,0.43
26.913086891174316,-0.43,0.03,0.15,0.45
26.914280891418457,-0.52,0.18,0.61,0.82
26.919864892959595,-0.23,0.07,0.43,0.49
26.929872035980225,0.15,0.01,-0.22,0.26
27.007617950439453,0.38,0.15,-0.57,0.7
27.00822401046753,0.41,0.14,-0.58,0.72
27.00880789756775,0.28,0.11,-0.57,0.64
27.010101795196533,0.02,0.13,-0.6,0.61
27.011298894882202,-0.08,0.14,-0.35,0.38
27.011899948120117,0.09,0.05,-0.03,0.1
27.013123989105225,0.35,-0.04,0.27,0.44
27.014328956604004,0.58,-0.13,0.56,0.81
27.01970100402832,0.8,-0.12,0.55,0.97
27.029736042022705,1.04,0.02,0.33,1.09
27.10651683807373,1.15,0.17,0.19,1.17
27.107162952423096,1.18,0.29,0.22,1.23
27.107760906219482,1.38,0.29,0.0,1.41
27.108938932418823,1.71,0.29,-0.45,1.79
27.110068798065186,2.12,0.36,-0.94,2.34
27.110655784606934,2.48,0.38,-0.98,2.69
27.11184287071228,2.71,0.38,-0.75,2.83
27.112973928451538,2.87,0.42,-0.41,2.92
27.119571924209595,3.21,0.37,-0.26,3.24
27.129581928253174,3.41,0.39,-0.53,3.47
27.206528902053833,3.33,0.64,-0.74,3.47
27.20712900161743,3.17,0.9,-0.78,3.38
27.207729816436768,2.81,1.29,-1.34,3.36
27.208900928497314,2.44,1.51,-1.76,3.36
27.21003484725952,2.11,1.83,-1.35,3.1
27.21061086654663,2.07,2.4,0.01,3.16
27.211797952651978,2.95,3.81,-0.53,4.84
27.213002920150757,3.9,4.1,1.03,5.75
27.21943473815918,3.63,3.79,1.56,5.47
27.229472875595093,4.28,4.35,1.5,6.28
27.30724000930786,4.17,4.43,0.81,6.13
27.307840824127197,4.24,4.38,0.56,6.12
27.308412075042725,4.39,4.38,0.54,6.22
27.309611797332764,4.32,4.32,-0.3,6.11
27.31081199645996,4.22,4.36,-0.63,6.1
27.311394929885864,3.64,3.99,-0.62,5.43
27.31259775161743,3.43,3.94,-0.55,5.25
27.313796997070312,3.3,4.81,-1.0,5.91
27.31925678253174,3.46,6.4,-1.79,7.49
27.329261779785156,3.79,6.85,-2.79,8.31
27.408021926879883,3.62,5.79,-2.66,7.32
27.408621788024902,2.32,5.41,-2.03,6.22
27.409234046936035,-0.94,6.8,-1.75,7.08
27.410496950149536,-2.77,6.99,-3.8,8.42
27.411674976348877,-0.03,5.35,-4.59,7.04
27.412254810333252,3.36,4.32,-2.67,6.08
27.41346502304077,6.48,2.84,-1.44,7.22
27.414999961853027,9.08,-0.05,-0.68,9.1
27.419156074523926,8.33,-2.99,0.19,8.85
27.42911195755005,0.84,-4.14,0.94,4.32
27.508514881134033,-4.46,-4.8,-1.91,6.82
27.509196758270264,-2.01,-1.01,-4.1,4.67
27.509809017181396,5.07,-0.75,-3.52,6.21
27.5109920501709,9.54,-2.0,-1.3,9.83
27.51214599609375,10.88,-2.06,0.33,11.07
27.51274085044861,10.17,-2.05,1.58,10.49
27.514322757720947,8.38,-2.33,2.69,9.1
27.515501976013184,6.32,-2.77,2.89,7.48
27.51896095275879,4.62,-3.24,2.41,6.13
27.528977870941162,3.72,-3.03,1.9,5.16
27.608516931533813,3.86,-2.78,1.52,4.99
27.609138011932373,3.98,-2.79,1.18,5.0
27.6097469329834,3.87,-2.69,0.81,4.78
27.61104989051819,3.48,-2.6,0.61,4.38
27.612205982208252,2.85,-2.44,0.71,3.81
27.61278986930847,2.08,-2.16,0.98,3.15
27.61434292793274,1.35,-1.81,1.16,2.53
27.615530967712402,0.79,-1.26,1.47,2.09
27.61882972717285,0.52,-0.56,2.11,2.24
27.628841876983643,0.86,-0.06,2.95,3.07
27.63880491256714,1.44,0.9,3.37,3.77
27.709115982055664,0.72,2.81,2.09,3.57
27.709706783294678,-1.24,4.06,-0.48,4.27
27.710928916931152,-3.02,5.06,-2.97,6.59
27.71210479736328,-4.6,6.75,-3.81,9.01
27.71270990371704,-5.92,7.4,-2.82,9.88
27.714241981506348,-6.68,7.07,-1.77,9.88
27.715422868728638,-7.42,6.41,-1.58,9.93
27.718687057495117,-7.97,5.06,-1.76,9.6
27.72869086265564,-8.41,4.17,-2.56,9.72
27.738741874694824,-8.8,3.89,-3.42,10.21
27.809027910232544,-8.82,3.15,-3.25,9.91
27.80963897705078,-8.71,1.73,-1.77,9.05
27.810862064361572,-8.58,0.39,-0.24,8.59
27.81203603744507,-8.65,-0.67,0.48,8.68
27.812623977661133,-8.36,-1.5,0.56,8.51
27.814187049865723,-7.43,-1.63,0.29,7.61
27.81538677215576,-6.58,-1.36,0.0,6.71
27.81860089302063,-6.05,-0.55,-0.5,6.09
27.82857084274292,-4.1,5.53,-1.38,7.02
27.838531970977783,-3.65,6.18,-2.1,7.47
27.90909695625305,-6.93,-0.68,-3.5,7.79
27.90977907180786,-0.73,-2.69,-4.45,5.25
27.911000728607178,8.35,-1.12,2.55,8.8
27.91217589378357,9.77,1.16,5.2,11.12
27.912752866744995,3.32,2.19,-0.31,3.98
27.914321899414062,-4.02,1.01,-1.96,4.58
27.915525913238525,-6.2,-0.45,-1.65,6.43
27.918447971343994,-4.72,0.71,-2.08,5.2
27.928462982177734,-3.22,4.01,-1.89,5.47
27.938389778137207,-2.85,6.33,-0.33,6.94
28.00931191444397,-4.3,4.34,0.8,6.16
28.009958744049072,-6.11,1.54,-0.41,6.31
28.011185884475708,-8.15,-1.28,-3.02,8.78
28.012362003326416,-7.14,1.13,-2.13,7.53
28.012975931167603,-5.35,1.66,0.21,5.6
28.014513969421387,-3.75,-0.59,0.72,3.86
28.015743732452393,-3.16,-1.61,0.44,3.57
28.018247842788696,-2.68,-1.25,0.01,2.95
28.02830696105957,-2.24,-0.33,0.02,2.26
28.038315773010254,-1.98,0.38,-0.2,2.02
28.108802795410156,-1.37,0.4,-0.47,1.5
28.109431743621826,-0.68,0.34,-1.07,1.31
28.110658884048462,-0.05,0.24,-1.46,1.48
28.11181402206421,0.35,0.09,-1.19,1.24
28.112395763397217,0.53,0.01,-0.79,0.95
28.11394190788269,0.65,-0.09,-0.58,0.87
28.115160942077637,0.75,-0.24,-0.43,0.89
28.11817193031311,0.7,-0.18,-0.65,0.97
28.128159046173096,0.53,-0.03,-0.96,1.09
28.138097763061523,0.36,0.16,-0.91,0.99
28.20878505706787,0.13,0.18,-0.58,0.62
28.209451913833618,-0.2,0.14,-0.2,0.31
28.210761070251465,-0.35,0.16,0.16,0.41
28.211968898773193,-0.68,0.13,0.28,0.74
28.212584972381592,-0.94,0.07,0.16,0.95
28.214097023010254,-1.08,-0.04,0.1,1.08
28.215317726135254,-0.93,-0.07,0.16,0.94
28.21803092956543,-0.65,-0.05,0.08,0.65
28.22803783416748,-0.49,-0.06,-0.09,0.5
28.23806095123291,-0.35,-0.1,-0.25,0.44
28.308330059051514,-0.36,-0.03,-0.35,0.5
28.30899691581726,-0.43,0.04,-0.54,0.69
28.310307025909424,-0.46,0.04,-0.65,0.79
28.311523914337158,-0.38,0.01,-0.51,0.63
28.31211495399475,-0.19,-0.01,-0.28,0.33
28.313663959503174,-0.04,0.01,-0.17,0.17
28.31485605239868,-0.02,0.0,-0.1,0.1
28.317864894866943,-0.08,0.02,-0.07,0.1
28.392745971679688,-0.13,0.09,-0.11,0.19
28.393617868423462,-0.07,0.07,-0.24,0.25
28.39420986175537,0.05,0.05,-0.33,0.33
28.394789934158325,0.13,0.06,-0.23,0.27
28.3959538936615,0.23,0.04,-0.15,0.27
28.397080898284912,0.26,0.02,-0.16,0.3
28.397648811340332,0.14,0.02,-0.16,0.21
28.398836851119995,0.31,0.14,-0.07,0.34
28.407856941223145,0.68,0.2,0.06,0.71
28.417789936065674,0.87,0.19,-0.02,0.89
28.49170994758606,0.75,0.23,0.12,0.79
28.49267888069153,0.58,0.2,0.02,0.61
28.493286848068237,0.68,0.13,-0.1,0.69
28.49388074874878,1.07,0.14,-0.02,1.07
28.495064735412598,1.44,0.25,-0.1,1.46
28.496214866638184,1.64,0.35,-0.38,1.71
28.496794939041138,1.71,0.38,-0.42,1.8
28.4979989528656,1.77,0.34,-0.28,1.82
28.507551908493042,2.1,0.44,-0.28,2.16
28.517475843429565,2.3,0.47,-0.33,2.37
28.591125011444092,2.25,0.49,-0.47,2.35
28.59173583984375,2.27,0.51,-0.51,2.38
28.592660903930664,2.24,0.52,-0.77,2.42
28.593263864517212,2.27,0.64,-0.9,2.52
28.594449996948242,2.54,0.86,-1.04,2.87
28.595591068267822,2.64,1.14,-1.11,3.08
28.596176862716675,2.68,1.63,-0.69,3.21
28.597562789916992,2.73,2.05,-0.26,3.42
28.607354879379272,2.79,2.47,-0.39,3.74
28.61750888824463,3.61,3.17,-0.11,4.8
28.691050052642822,3.79,3.33,0.55,5.07
28.691653728485107,3.54,3.3,0.36,4.85
28.692595958709717,3.7,3.75,0.8,5.32
28.693168878555298,3.76,3.82,0.66,5.4
28.69436502456665,3.68,3.7,0.87,5.29
28.695507049560547,3.64,3.69,0.63,5.22
28.696077823638916,3.94,3.61,0.46,5.36
28.69741988182068,4.29,4.01,0.27,5.87
28.70716094970703,4.1,4.53,-0.4,6.12
28.717397928237915,3.55,4.4,-0.66,5.69
28.79060387611389,3.24,4.11,-0.56,5.26
28.79122304916382,3.51,4.16,-0.62,5.47
28.791818857192993,4.27,4.88,-1.29,6.61
28.792738914489746,5.3,5.8,-2.3,8.18
28.793899059295654,5.77,5.49,-2.5,8.34
28.795049905776978,3.52,6.66,-1.21,7.62
28.79563593864441,-1.03,8.38,-0.35,8.45
28.797245979309082,-1.65,7.81,-3.88,8.87
28.806978940963745,1.71,5.43,-4.22,7.08
28.817134857177734,4.93,4.08,-2.24,6.78
28.891093730926514,7.24,2.58,-1.53,7.83
28.892035961151123,9.3,0.45,-1.05,9.36
28.892627954483032,6.14,-1.72,0.31,6.38
28.893208980560303,-2.12,-3.14,0.03,3.78
28.894396781921387,-4.7,-1.61,-3.64,6.15
28.895555019378662,1.15,0.35,-4.31,4.47
28.896137952804565,7.03,-1.03,-2.2,7.43
28.897356033325195,9.5,-1.71,-0.2,9.65
28.90719485282898,9.65,-2.07,0.83,9.9
28.917048931121826,8.23,-2.33,1.42,8.67
28.991184949874878,6.4,-2.76,1.86,7.21
28.992132902145386,4.89,-3.47,1.79,6.25
28.99271583557129,4.27,-3.64,1.54,5.81
28.993382930755615,4.16,-3.33,1.25,5.47
28.994674921035767,4.07,-3.23,0.94,5.28
28.995999813079834,3.92,-3.19,0.67,5.09
28.99665594100952,4.01,-3.11,0.43,5.09
28.99798583984375,4.16,-2.75,0.54,5.01
29.0071439743042,4.26,-2.13,1.16,4.9
29.016912937164307,4.48,-1.72,2.19,5.27
29.09107995033264,4.72,-1.52,3.16,5.88
29.092063903808594,4.38,-0.66,3.7,5.77
29.092675924301147,3.28,0.71,3.23,4.65
29.093280792236328,1.63,1.8,1.54,2.87
29.09446907043457,0.14,2.77,-0.76,2.87
29.095637798309326,-1.19,3.97,-2.37,4.77
29.096216917037964,-2.83,5.08,-2.65,6.39
29.09744691848755,-4.9,5.52,-2.68,7.85
29.10701084136963,-6.85,5.33,-3.23,9.26
29.116771936416626,-7.65,5.47,-4.09,10.25
29.192271947860718,-7.6,6.08,-4.61,10.76
29.19307804107666,-8.29,6.57,-4.53,11.5
29.193679809570312,-9.8,6.58,-4.76,12.72
29.194288730621338,-11.0,5.76,-4.88,13.34
29.19545888900757,-10.98,3.55,-4.37,12.33
29.196630001068115,-10.49,0.41,-3.3,11.0
29.197219848632812,-10.65,-1.45,-2.65,11.07
29.198412895202637,-10.94,-1.7,-2.62,11.37
29.206662893295288,-10.58,-0.93,-2.65,10.94
29.216623783111572,-9.6,-0.1,-2.55,9.93
29.291857957839966,-7.58,3.81,-2.12,8.74
29.29272484779358,-5.33,4.92,-1.25,7.36
29.29337501525879,-6.17,1.67,-0.75,6.43
29.294028759002686,-8.14,0.41,-0.05,8.15
29.29522395133972,-8.78,-0.04,0.14,8.78
29.296416759490967,0.47,2.43,1.17,2.73
29.296998023986816,12.41,3.27,6.49,14.38
29.298194885253906,12.1,0.67,8.29,14.68
29.30646276473999,1.66,-0.8,3.36,3.83
29.31648874282837,-7.26,-0.45,-0.77,7.31
29.39104390144348,-8.64,-0.55,-1.95,8.87
29.39201784133911,-6.38,1.11,-2.12,6.81
29.39261794090271,-4.08,5.08,-2.65,7.03
29.393213748931885,-3.0,6.31,-2.85,7.54
29.394410848617554,-3.33,2.97,-2.65,5.18
29.39554786682129,-5.0,0.57,-2.65,5.68
29.396131992340088,-4.51,1.88,-0.76,4.94
29.397314071655273,-4.19,-0.16,1.08,4.32
29.40632200241089,-3.93,-1.75,0.78,4.37
29.416327953338623,-3.54,-1.17,-0.09,3.72
29.49072790145874,-2.34,-0.59,-0.18,2.41
29.49166989326477,-1.53,-0.37,0.22,1.58
29.49226474761963,-1.33,-0.3,0.2,1.37
29.49286389350891,-1.26,-0.06,0.09,1.26
29.494061946868896,-1.0,0.12,0.16,1.01
29.495210886001587,-0.53,0.16,0.17,0.57
29.49580192565918,-0.01,0.14,0.01,0.14
29.496985912322998,0.35,-0.01,-0.16,0.38
29.506155014038086,0.61,-0.16,-0.45,0.77
29.516164779663086,0.69,-0.28,-0.75,1.05
29.59135890007019,0.63,-0.23,-1.04,1.23
29.592166900634766,0.4,0.01,-1.39,1.44
29.59278392791748,0.19,0.16,-1.64,1.65
29.593392848968506,-0.08,0.22,-1.58,1.59
29.594593048095703,-0.43,0.2,-1.3,1.38
29.59573793411255,-0.79,0.05,-0.83,1.14
29.596316814422607,-0.91,0.03,-0.28,0.95
29.59748601913452,-0.66,0.17,0.04,0.68
29.60608673095703,-0.71,-0.05,0.08,0.71
29.615993976593018,-1.08,-0.19,0.29,1.13
29.69084405899048,-1.08,-0.07,0.55,1.21
29.69168996810913,-0.65,0.04,0.57,0.86
29.692272901535034,-0.31,0.16,0.45,0.56
29.692873001098633,0.0,0.17,0.21,0.27
29.69405698776245,0.17,0.12,-0.35,0.4
29.695199012756348,0.24,0.11,-0.77,0.81
29.69581890106201,0.2,0.03,-0.96,0.98
29.696964740753174,0.2,0.0,-1.12,1.13
29.70590305328369,0.08,0.0,-1.01,1.01
29.715924739837646,-0.07,-0.06,-0.52,0.52
29.79486393928528,-0.26,-0.11,-0.13,0.31
29.795515060424805,-0.27,-0.06,0.05,0.28
29.79610776901245,-0.13,-0.02,0.16,0.2
29.796687841415405,-0.03,0.0,0.15,0.15
29.797865867614746,-0.08,0.06,-0.05,0.11
29.798995971679688,-0.23,0.11,-0.35,0.43
29.79958200454712,-0.33,0.06,-0.46,0.56
29.801077842712402,-0.32,0.06,-0.45,0.55
29.805768966674805,-0.16,0.12,-0.35,0.4
29.81575298309326,0.03,0.23,-0.35,0.41
29.890703916549683,0.06,0.23,-0.11,0.26
29.891450881958008,0.25,0.21,0.26,0.41
29.892051935195923,0.64,0.18,0.24,0.7
29.892632961273193,1.02,0.14,0.23,1.05
29.893849849700928,1.24,0.12,0.16,1.25
29.895010948181152,1.2,0.18,0.05,1.21
29.895596981048584,1.14,0.28,-0.15,1.18
29.896790027618408,1.24,0.35,-0.57,1.4
29.905601024627686,1.36,0.32,-0.68,1.55
29.915606021881104,1.54,0.29,-0.43,1.62
29.990864753723145,1.83,0.33,-0.24,1.87
29.991657733917236,2.24,0.44,0.05,2.28
29.99223804473877,2.66,0.57,0.18,2.72
29.9928240776062,2.81,0.76,-0.25,2.92
29.99405002593994,2.61,1.13,-0.44,2.87
29.995235919952393,2.46,1.38,-0.42,2.85
29.995815753936768,2.31,1.48,-0.25,2.75
29.997014045715332,2.04,1.51,0.06,2.53
30.005902767181396,1.92,1.77,-0.06,2.61
30.015467882156372,2.09,2.19,-0.28,3.04
30.091189861297607,3.15,2.2,-0.76,3.91
30.091964721679688,4.65,2.72,-1.06,5.49
30.092556953430176,4.29,3.13,-0.87,5.38
30.093131065368652,4.08,2.67,-0.75,4.93
30.09433889389038,3.84,2.64,-0.36,4.67
30.095480918884277,3.82,2.55,-0.36,4.6
30.09602403640747,4.08,2.82,-0.23,4.96
30.097214937210083,4.31,3.52,-0.17,5.56
30.105315923690796,4.83,4.21,-0.18,6.4
30.11547088623047,5.48,4.84,-0.16,7.31
30.19168996810913,5.38,4.95,-0.21,7.31
30.192276000976562,4.86,4.85,-0.19,6.86
30.19283890724182,3.84,4.63,-0.19,6.01
30.193379878997803,2.92,4.82,-0.43,5.65
30.19456672668457,3.0,5.54,-1.09,6.39
30.195744037628174,3.69,6.21,-2.08,7.51
30.19632387161255,4.07,6.24,-2.79,7.95
30.197510957717896,2.25,6.64,-1.46,7.16
30.205106735229492,-1.17,7.51,-0.77,7.63
