time,ax,ay,az,atotal
0.0012879371643066406,0.77,-0.76,-0.21,1.1
0.0018930435180664062,0.83,0.31,-0.75,1.16
0.0024690628051757812,0.15,0.58,-0.6,0.84
0.010234832763671875,0.03,-0.54,0.57,0.78
0.02026081085205078,0.42,-0.02,0.04,0.42
0.03024578094482422,0.39,0.07,-0.03,0.39
0.04014301300048828,0.37,-0.04,0.15,0.4
0.050171852111816406,0.01,0.0,-0.01,0.01
0.0600738525390625,-0.39,-0.07,0.08,0.4
0.07027196884155273,-0.56,-0.06,0.08,0.56
0.09865379333496094,-0.57,-0.04,0.04,0.57
0.0992119312286377,-0.39,-0.03,0.04,0.39
0.10021591186523438,-0.2,-0.03,0.05,0.2
0.10997676849365234,-0.1,-0.02,-0.04,0.1
0.1201779842376709,0.02,0.0,-0.09,0.09
0.13016986846923828,0.1,0.01,-0.15,0.18
0.14017891883850098,0.09,0.04,-0.25,0.26
0.1501908302307129,0.14,0.05,-0.33,0.36
0.16012001037597656,0.3,0.03,-0.31,0.43
0.17019891738891602,0.46,0.04,-0.17,0.49
0.20009088516235352,0.45,0.02,-0.04,0.45
0.2006988525390625,0.27,0.01,-0.02,0.27
0.20123791694641113,0.27,0.0,0.04,0.27
0.2100520133972168,0.32,-0.04,0.14,0.35
0.21986794471740723,0.15,-0.03,0.18,0.23
0.22990798950195312,-0.1,-0.01,0.07,0.12
0.2398519515991211,-0.16,-0.01,0.06,0.17
0.24991703033447266,-0.13,-0.08,0.17,0.22
0.26018810272216797,-0.16,-0.04,0.1,0.19
0.26985788345336914,-0.38,-0.03,-0.07,0.38
0.3001248836517334,-0.43,-0.03,-0.12,0.44
0.3007059097290039,-0.28,-0.04,-0.04,0.28
0.30127787590026855,-0.17,-0.03,0.0,0.17
0.3101339340209961,-0.15,-0.01,0.0,0.15
0.3197059631347656,-0.14,0.0,-0.06,0.15
0.32990503311157227,-0.06,0.01,-0.06,0.08
0.33963894844055176,0.04,0.0,-0.06,0.07
0.3497769832611084,0.03,-0.01,-0.11,0.11
0.3597140312194824,0.06,-0.01,-0.03,0.06
0.3698110580444336,0.21,-0.02,0.05,0.21
0.4006509780883789,0.33,-0.05,0.16,0.37
0.4012889862060547,0.26,-0.03,0.35,0.43
0.4018898010253906,-0.13,-0.03,0.16,0.2
0.40959787368774414,-0.26,-0.06,0.21,0.33
0.4195549488067627,-0.12,-0.01,0.31,0.33
0.42966389656066895,-0.33,-0.06,0.28,0.43
0.43961477279663086,-0.45,-0.06,0.17,0.48
0.44975996017456055,-0.36,-0.02,0.03,0.36
0.4596669673919678,-0.28,-0.04,0.04,0.28
0.4695930480957031,-0.3,-0.04,0.06,0.3
0.49986696243286133,-0.18,0.0,0.06,0.18
0.5004739761352539,-0.08,-0.01,-0.02,0.08
0.5010929107666016,0.04,-0.06,-0.03,0.07
0.5094380378723145,0.11,-0.02,-0.05,0.12
0.5194618701934814,0.1,0.0,-0.14,0.17
0.529526948928833,-0.08,-0.04,-0.01,0.09
0.5394809246063232,-0.15,0.0,0.02,0.15
0.549475908279419,-0.14,-0.04,0.1,0.17
0.5593700408935547,-0.07,-0.05,0.03,0.09
0.5694379806518555,0.03,-0.03,0.01,0.04
0.6003360748291016,0.08,0.0,0.07,0.1
0.6009650230407715,0.07,-0.01,0.01,0.07
0.6015830039978027,0.06,-0.06,0.08,0.11
0.6092758178710938,0.04,-0.05,0.3,0.3
0.6192419528961182,-0.06,-0.03,0.31,0.31
0.6294407844543457,-0.04,-0.07,0.15,0.17
0.6392369270324707,0.2,-0.06,0.06,0.21
0.6492829322814941,0.4,-0.02,0.04,0.4
0.6592698097229004,0.37,0.08,-0.2,0.42
0.6691770553588867,0.22,0.03,-0.28,0.35
0.7007849216461182,0.24,-0.03,-0.04,0.24
0.7014169692993164,0.25,-0.01,0.05,0.25
0.7020540237426758,0.35,-0.02,0.02,0.35
0.7092809677124023,0.49,-0.05,0.01,0.49
0.7192349433898926,0.5,-0.01,-0.08,0.5
0.729273796081543,0.37,-0.05,-0.02,0.37
0.7392289638519287,0.17,-0.15,0.23,0.32
0.7492318153381348,-0.09,-0.02,0.27,0.28
0.7591578960418701,-0.15,-0.04,0.25,0.29
0.7691397666931152,-0.04,-0.12,0.25,0.28
0.8010048866271973,0.17,-0.12,0.21,0.29
0.801609992980957,0.34,-0.1,0.36,0.5
0.8022270202636719,0.2,-0.07,0.56,0.59
0.8090400695800781,-0.18,0.01,0.27,0.32
0.8190319538116455,-0.41,-0.03,0.01,0.41
0.8290309906005859,-0.33,-0.04,-0.07,0.33
0.8389840126037598,-0.31,-0.02,-0.17,0.35
0.8490118980407715,-0.3,-0.03,-0.15,0.33
0.8589708805084229,-0.27,-0.05,-0.03,0.27
0.8689870834350586,-0.11,0.16,-0.13,0.23
0.9016659259796143,0.07,0.08,-0.07,0.12
0.9022979736328125,0.24,-0.01,-0.11,0.26
0.902958869934082,0.33,-0.02,-0.3,0.44
0.9088919162750244,0.4,-0.04,-0.36,0.53
0.918895959854126,0.37,-0.04,-0.31,0.48
0.9288949966430664,0.0,-0.03,-0.35,0.35
0.938809871673584,-0.24,0.14,-0.46,0.53
0.9493799209594727,-0.17,0.04,-0.31,0.35
0.9588348865509033,-0.16,-0.06,-0.29,0.33
0.9688239097595215,-0.07,0.03,-0.17,0.18
1.000365972518921,0.12,0.01,-0.14,0.18
1.001011848449707,-0.08,-0.07,-0.18,0.2
1.0016417503356934,-0.07,0.02,-0.08,0.1
1.0086350440979004,-0.05,0.0,0.06,0.07
1.0186810493469238,-0.12,-0.02,0.15,0.19
1.0286989212036133,-0.08,-0.01,0.28,0.29
1.038632869720459,0.03,0.04,0.07,0.08
1.0486741065979004,0.17,-0.01,-0.07,0.18
1.0586018562316895,0.41,-0.05,0.11,0.42
1.0687248706817627,0.32,-0.07,0.04,0.33
1.1021780967712402,0.11,-0.11,-0.03,0.15
1.102834939956665,0.17,0.03,0.05,0.17
1.1039400100708008,0.18,0.05,-0.07,0.19
1.1085278987884521,0.13,-0.07,-0.18,0.23
1.1185848712921143,0.14,-0.07,-0.12,0.19
1.128525972366333,0.02,-0.1,-0.18,0.2
1.1385149955749512,0.04,0.09,-0.12,0.15
1.1486477851867676,0.39,0.0,0.2,0.43
1.1585397720336914,0.38,-0.04,0.27,0.46
1.168539047241211,0.09,-0.08,0.02,0.12
1.2021069526672363,-0.32,-0.03,-0.18,0.36
1.2027688026428223,-0.42,0.13,-0.21,0.48
1.2038688659667969,-0.2,0.09,-0.19,0.29
1.208387851715088,0.1,-0.11,0.01,0.14
1.2184369564056396,0.4,-0.09,0.17,0.44
1.2282838821411133,0.48,-0.05,0.21,0.52
1.2384300231933594,0.1,-0.04,0.0,0.1
1.2484149932861328,-0.16,0.04,-0.1,0.19
1.2583959102630615,-0.06,0.07,-0.08,0.12
1.2683367729187012,0.1,-0.01,-0.08,0.12
1.3010988235473633,0.23,-0.06,-0.09,0.25
1.301736831665039,0.26,-0.05,-0.06,0.27
1.302340030670166,0.08,-0.05,-0.04,0.1
1.3082127571105957,0.09,0.03,-0.09,0.13
1.3182849884033203,0.09,-0.03,-0.02,0.09
1.3281197547912598,-0.1,-0.04,-0.15,0.18
1.3381099700927734,-0.19,-0.01,-0.19,0.26
1.3482558727264404,-0.2,0.05,-0.14,0.24
1.3581910133361816,-0.21,0.06,-0.13,0.25
1.3682050704956055,-0.11,-0.03,-0.17,0.2
1.4020071029663086,0.12,-0.03,-0.21,0.24
1.4026379585266113,0.22,-0.05,-0.24,0.32
1.4037349224090576,0.28,-0.11,-0.19,0.35
1.4081199169158936,0.26,-0.08,-0.07,0.28
1.4181509017944336,0.0,0.02,-0.13,0.13
1.428175926208496,-0.22,0.04,-0.19,0.29
1.4380829334259033,-0.26,-0.03,-0.02,0.26
1.4481279850006104,-0.23,-0.11,0.17,0.3
1.4579968452453613,-0.12,-0.07,0.17,0.21
1.4680469036102295,0.08,-0.04,0.22,0.23
1.5033698081970215,0.18,-0.07,0.29,0.34
1.5043110847473145,0.2,-0.12,0.18,0.29
1.5049338340759277,0.27,-0.08,0.05,0.28
1.507922887802124,0.33,0.0,-0.01,0.33
1.5179028511047363,0.31,0.03,0.11,0.33
1.5282220840454102,0.18,0.04,0.27,0.32
1.5378329753875732,-0.2,-0.02,0.31,0.36
1.5479419231414795,-0.68,0.0,-0.06,0.68
1.5588109493255615,-0.91,-0.03,-0.26,0.94
1.5679640769958496,-0.81,-0.11,-0.24,0.85
1.6020488739013672,-0.56,-0.07,-0.25,0.61
1.6031627655029297,-0.36,-0.01,-0.3,0.46
1.603787899017334,-0.26,0.01,-0.18,0.31
1.6077699661254883,-0.1,-0.03,-0.06,0.12
1.617832899093628,0.07,-0.06,-0.03,0.09
1.627774953842163,-0.07,-0.08,-0.02,0.1
1.6377458572387695,-0.32,-0.05,-0.05,0.32
1.6478328704833984,-0.44,-0.01,-0.16,0.46
1.6577458381652832,-0.33,0.02,-0.32,0.46
1.667759895324707,-0.12,0.02,-0.36,0.38
1.6778109073638916,0.02,-0.02,-0.25,0.25
1.703624963760376,0.12,0.01,-0.17,0.2
1.7042369842529297,0.2,0.01,-0.19,0.27
1.7075767517089844,0.11,-0.05,-0.11,0.16
1.7176859378814697,-0.01,-0.07,0.12,0.13
1.7276499271392822,-0.14,-0.04,0.21,0.25
1.7376129627227783,-0.32,0.01,-0.01,0.32
1.7476787567138672,-0.29,-0.01,-0.19,0.34
1.757612943649292,-0.15,-0.02,-0.26,0.3
1.767624855041504,-0.03,0.0,-0.35,0.35
1.777635097503662,0.11,0.01,-0.5,0.51
1.8030648231506348,0.24,-0.01,-0.49,0.54
1.8036627769470215,0.33,-0.01,-0.27,0.42
1.8074419498443604,0.34,0.02,-0.03,0.34
1.8175568580627441,0.23,0.01,-0.01,0.23
1.8274359703063965,0.09,-0.01,-0.2,0.21
1.8374290466308594,0.05,0.0,-0.32,0.32
1.8474178314208984,0.08,-0.02,-0.2,0.21
1.8574538230895996,0.12,-0.01,-0.03,0.12
1.8674240112304688,0.06,0.02,-0.06,0.08
1.8773670196533203,0.01,0.05,-0.04,0.06
1.9023118019104004,0.03,0.02,-0.03,0.04
1.9032888412475586,0.15,-0.01,-0.13,0.19
1.9072809219360352,0.25,0.0,-0.16,0.29
1.9173378944396973,0.26,0.0,-0.1,0.27
1.9272499084472656,0.28,0.0,-0.03,0.28
1.9372868537902832,0.36,0.02,-0.05,0.36
1.947227954864502,0.14,-0.02,-0.08,0.16
1.9573278427124023,-0.18,-0.05,-0.11,0.21
1.9673337936401367,-0.27,-0.07,-0.14,0.31
1.9771728515625,-0.27,-0.03,-0.14,0.3
2.001950979232788,-0.21,-0.05,-0.17,0.27
2.003002882003784,-0.16,-0.03,-0.18,0.24
2.007096767425537,-0.09,-0.03,-0.15,0.17
2.0171689987182617,-0.14,-0.04,-0.08,0.16
2.027085781097412,-0.14,-0.03,0.01,0.14
2.0371248722076416,-0.14,-0.01,0.06,0.15
2.0471887588500977,-0.19,-0.03,0.01,0.19
2.0570640563964844,-0.22,-0.03,-0.03,0.22
2.067131996154785,-0.19,-0.03,-0.01,0.19
2.0772109031677246,-0.13,-0.06,0.11,0.18
2.1038708686828613,-0.14,-0.04,0.15,0.2
2.104519844055176,-0.09,-0.03,0.08,0.12
2.106968879699707,-0.03,0.0,-0.01,0.03
2.11696195602417,0.04,0.0,-0.07,0.08
2.1269359588623047,0.05,0.01,-0.11,0.12
2.136962890625,-0.02,-0.01,-0.15,0.15
2.1469619274139404,0.0,-0.01,-0.03,0.03
2.1569418907165527,0.07,0.01,0.05,0.08
2.167019844055176,0.14,-0.02,0.09,0.16
2.1769280433654785,0.37,-0.02,0.08,0.37
2.2038679122924805,0.34,0.02,-0.04,0.34
2.204500913619995,-0.11,-0.02,-0.07,0.13
2.2068419456481934,-0.28,-0.04,-0.1,0.3
2.2168960571289062,-0.23,-0.02,-0.12,0.26
2.226893901824951,-0.21,-0.04,-0.13,0.25
2.2368860244750977,-0.17,-0.03,-0.11,0.2
2.246854782104492,-0.08,0.0,-0.08,0.11
2.256870985031128,-0.02,-0.01,-0.1,0.1
2.2668979167938232,0.01,-0.05,-0.07,0.08
2.276747941970825,0.05,-0.04,0.03,0.07
2.3027868270874023,0.07,0.0,0.1,0.12
2.3033928871154785,-0.02,0.0,0.08,0.08
2.306562900543213,0.0,0.0,-0.04,0.04
2.3167028427124023,0.08,0.0,-0.1,0.12
2.3266539573669434,-0.03,-0.01,-0.09,0.09
2.336716890335083,-0.13,-0.03,-0.11,0.17
2.346665859222412,-0.06,-0.04,-0.08,0.1
2.356721878051758,-0.02,-0.05,-0.06,0.08
2.3666558265686035,-0.1,-0.07,-0.02,0.12
2.3766069412231445,-0.1,-0.04,0.02,0.1
2.4034180641174316,0.02,-0.03,0.0,0.03
2.4040369987487793,0.03,-0.03,-0.01,0.04
2.4064829349517822,0.05,-0.03,-0.02,0.06
2.4165220260620117,0.07,-0.03,-0.01,0.07
2.426466941833496,0.08,-0.03,-0.01,0.08
2.4364559650421143,0.16,0.0,-0.01,0.16
2.4464221000671387,0.09,-0.01,-0.08,0.12
2.456453800201416,-0.05,-0.02,-0.08,0.09
2.4664950370788574,-0.06,-0.02,-0.03,0.06
2.4764180183410645,-0.08,-0.02,0.0,0.08
2.5029568672180176,-0.1,-0.02,-0.04,0.1
2.503565788269043,-0.06,-0.03,-0.07,0.09
2.5063159465789795,-0.01,-0.05,-0.03,0.05
2.5162830352783203,0.02,-0.04,-0.03,0.05
2.526324987411499,0.03,-0.03,-0.01,0.04
2.5363807678222656,0.0,-0.01,0.01,0.01
2.5462398529052734,-0.05,-0.02,0.01,0.05
2.556339979171753,-0.1,-0.02,0.0,0.1
2.566340923309326,-0.12,-0.05,0.0,0.13
2.576353073120117,-0.15,-0.05,0.01,0.15
2.603839874267578,-0.13,-0.03,0.02,0.13
2.6045618057250977,-0.08,-0.01,-0.05,0.09
2.606215000152588,-0.03,-0.02,-0.12,0.12
2.616300106048584,-0.01,-0.01,-0.16,0.16
2.6261987686157227,-0.04,-0.02,-0.14,0.14
2.636198043823242,-0.08,-0.03,-0.11,0.13
2.646392822265625,-0.07,-0.05,-0.06,0.1
2.6561949253082275,-0.06,-0.03,0.04,0.07
2.6662158966064453,-0.07,-0.03,0.05,0.09
2.676158905029297,-0.04,-0.03,-0.01,0.05
2.704914093017578,0.01,-0.02,-0.02,0.03
2.705518960952759,0.02,-0.02,-0.05,0.05
2.706089973449707,0.02,-0.02,-0.07,0.07
2.7161498069763184,0.01,-0.04,-0.08,0.09
2.726059913635254,-0.03,-0.02,-0.07,0.07
2.7360167503356934,-0.03,-0.03,-0.03,0.05
2.7462358474731445,-0.02,-0.03,-0.03,0.04
2.7559549808502197,-0.01,-0.03,-0.02,0.03
2.766033887863159,-0.03,-0.02,0.0,0.03
2.7759358882904053,-0.07,-0.03,0.03,0.08
2.8032569885253906,-0.11,-0.04,0.01,0.11
2.80385684967041,-0.07,-0.04,-0.01,0.08
2.805778980255127,-0.07,-0.05,-0.04,0.09
2.8159050941467285,-0.07,-0.04,-0.07,0.1
2.825906753540039,-0.08,-0.04,-0.09,0.12
2.835927963256836,-0.03,-0.04,-0.03,0.05
2.845855951309204,-0.03,0.04,0.04,0.06
2.8559489250183105,-0.02,-0.01,0.04,0.04
2.865891933441162,-0.01,-0.04,0.05,0.06
2.8758509159088135,0.01,-0.04,0.09,0.09
2.91353702545166,-0.01,-0.02,0.09,0.09
2.9140567779541016,-0.03,-0.02,0.04,0.05
2.9146218299865723,0.07,0.0,0.0,0.07
2.9156389236450195,0.14,0.03,-0.08,0.16
2.925708770751953,0.0,0.01,-0.18,0.18
2.935698986053467,-0.08,-0.01,-0.2,0.21
2.9455819129943848,-0.05,-0.01,-0.18,0.18
2.955673933029175,-0.02,-0.02,-0.17,0.17
2.9656248092651367,0.02,0.0,-0.15,0.15
2.975677967071533,0.08,0.01,-0.11,0.13
3.0119059085845947,0.11,-0.01,-0.08,0.13
3.012373924255371,0.1,-0.01,-0.09,0.13
3.0131618976593018,0.05,0.03,-0.13,0.14
3.015605926513672,0.02,0.06,-0.18,0.19
3.025575876235962,0.07,0.05,-0.26,0.27
3.0355749130249023,0.21,0.02,-0.25,0.32
3.0455198287963867,0.29,-0.04,-0.11,0.31
3.0554919242858887,0.22,-0.06,0.01,0.22
3.06551194190979,-0.01,-0.05,-0.02,0.05
3.075455904006958,-0.17,0.03,-0.2,0.26
3.108083963394165,-0.1,0.04,-0.21,0.23
3.108555793762207,0.08,-0.07,0.03,0.11
3.109015941619873,0.29,-0.15,0.35,0.47
3.115320920944214,0.3,-0.19,0.33,0.48
3.125455856323242,0.06,-0.16,0.32,0.36
3.1353759765625,-0.12,-0.1,0.49,0.51
3.1453399658203125,-0.01,-0.04,0.42,0.42
3.1553239822387695,0.09,-0.07,0.38,0.39
3.1653199195861816,0.04,-0.09,0.39,0.4
3.175233840942383,-0.06,-0.07,0.23,0.24
3.207990884780884,-0.05,-0.11,-0.09,0.15
3.208465099334717,-0.22,-0.09,-0.36,0.43
3.2089290618896484,-0.45,-0.01,-0.6,0.75
3.2152037620544434,-0.53,0.08,-0.52,0.74
3.225184917449951,-0.4,0.08,-0.34,0.53
3.235214948654175,-0.19,0.05,-0.38,0.42
3.2451839447021484,-0.06,0.04,-0.35,0.35
3.2551379203796387,-0.04,0.08,-0.34,0.35
3.265164852142334,0.03,0.11,-0.43,0.44
3.2751498222351074,0.04,0.02,-0.35,0.35
3.3077049255371094,-0.11,0.05,-0.37,0.38
3.3081789016723633,-0.19,0.18,-0.45,0.52
3.308638095855713,-0.12,0.13,-0.31,0.35
3.315110921859741,0.01,0.05,-0.25,0.25
3.3250339031219482,0.07,0.06,-0.21,0.22
3.335033893585205,0.12,0.05,-0.14,0.19
3.34494686126709,0.16,0.04,-0.13,0.21
3.3548460006713867,0.2,0.04,-0.14,0.24
3.365078926086426,0.28,0.03,-0.12,0.3
3.3749449253082275,0.3,0.06,-0.12,0.32
3.406944751739502,0.27,0.04,-0.16,0.31
3.407416820526123,0.25,0.02,-0.2,0.32
3.407855987548828,0.3,0.05,-0.2,0.36
3.4148998260498047,0.39,0.04,-0.14,0.41
3.4249069690704346,0.55,-0.01,-0.09,0.55
3.4348888397216797,0.79,0.05,0.02,0.79
3.444814920425415,1.01,0.1,0.31,1.06
3.4548730850219727,1.14,0.13,0.48,1.24
3.464879035949707,1.34,0.12,0.43,1.41
3.474787950515747,1.68,0.04,0.41,1.72
3.5077269077301025,2.03,0.09,0.32,2.05
3.5081958770751953,2.56,0.38,0.26,2.6
3.508665084838867,3.24,0.64,0.48,3.33
3.514556884765625,3.57,0.64,0.72,3.69
3.5246989727020264,3.45,0.69,0.8,3.6
3.534827947616577,3.02,0.71,0.71,3.18
3.544757843017578,2.56,0.53,0.63,2.68
3.5547080039978027,2.33,0.58,0.55,2.46
3.5645389556884766,0.97,1.1,0.0,1.46
3.57466197013855,0.03,2.08,-1.75,2.71
3.6077890396118164,0.97,4.26,-2.85,5.21
3.6082589626312256,3.54,4.02,-2.07,5.74
3.608721971511841,3.98,1.48,-0.1,4.24
3.614459991455078,3.18,0.58,0.13,3.23
3.624569892883301,2.66,0.64,0.41,2.76
3.6345558166503906,3.03,0.6,0.86,3.2
3.644505023956299,3.94,0.55,0.65,4.03
3.654499053955078,4.93,0.68,0.44,4.99
3.664456844329834,5.46,0.74,0.64,5.54
3.674506902694702,5.63,0.58,1.06,5.75
3.7030820846557617,5.47,0.29,1.38,5.64
3.703591823577881,5.1,0.02,1.52,5.32
3.7043638229370117,4.78,-0.01,1.48,5.0
3.714237928390503,4.56,0.09,1.38,4.76
3.724307060241699,4.42,0.3,1.21,4.59
3.734407901763916,4.33,0.46,1.12,4.49
3.7442150115966797,4.2,0.49,1.16,4.38
3.7543530464172363,3.95,0.46,1.26,4.17
3.7642979621887207,3.54,0.38,1.39,3.82
3.7744219303131104,2.97,0.5,1.41,3.32
3.8049440383911133,2.06,0.59,1.13,2.42
3.8054819107055664,1.32,0.41,0.72,1.55
3.8060097694396973,0.78,0.57,0.44,1.06
3.814307928085327,0.52,0.68,0.15,0.86
3.8242478370666504,0.4,0.78,0.04,0.87
3.834345817565918,0.2,0.79,0.16,0.83
3.84425687789917,-0.08,0.66,0.33,0.74
3.8542239665985107,-0.42,0.51,0.32,0.73
3.864482879638672,-0.74,0.41,0.24,0.87
3.8742408752441406,-1.12,0.26,0.14,1.15
3.9067599773406982,-1.54,0.2,0.0,1.55
3.9073448181152344,-1.86,0.26,-0.16,1.88
3.907890796661377,-2.14,0.26,-0.23,2.16
3.9144139289855957,-2.48,0.03,-0.14,2.48
3.9241158962249756,-2.57,-0.13,-0.15,2.57
3.9341578483581543,-2.59,-0.01,-0.11,2.59
3.944330930709839,-2.44,0.16,-0.06,2.44
3.9543368816375732,-2.24,0.11,0.0,2.24
3.9645168781280518,-2.13,-0.08,0.07,2.13
3.974005937576294,-2.26,-0.37,0.06,2.29
4.006601810455322,-2.47,-0.63,-0.07,2.55
4.007187843322754,-2.6,-0.81,-0.12,2.72
4.0077738761901855,-2.75,-0.75,-0.22,2.85
4.013974905014038,-2.94,-0.69,-0.38,3.04
4.023995876312256,-3.03,-0.67,-0.51,3.14
4.034080982208252,-3.01,-0.77,-0.66,3.17
4.0439629554748535,-2.96,-1.03,-0.78,3.22
4.053910970687866,-3.06,-1.31,-0.87,3.44
4.064013957977295,-3.25,-1.59,-1.06,3.77
4.073965072631836,-3.43,-1.59,-1.36,4.01
4.106723785400391,-3.47,-1.29,-1.69,4.06
4.107308864593506,-3.28,-0.01,-1.61,3.65
4.107882976531982,-0.85,6.97,-1.64,7.21
4.11384391784668,0.4,3.94,-0.1,3.96
4.123822927474976,-1.25,-1.99,-0.44,2.39
4.133805751800537,2.52,-1.17,-0.87,2.91
4.144725799560547,3.62,-0.03,1.47,3.9
4.153783798217773,1.95,-0.05,1.0,2.19
4.163750886917114,0.23,0.33,-1.36,1.41
4.1738059520721436,-0.85,0.9,-1.48,1.92
4.206943035125732,-0.73,1.24,-0.4,1.49
4.207581043243408,-0.45,1.6,-0.02,1.66
4.20819091796875,-1.39,1.99,-0.16,2.43
4.213624954223633,-3.08,3.32,-0.99,4.63
4.223639965057373,-5.54,4.66,-1.39,7.37
4.233749866485596,-6.9,3.42,-1.74,7.89
4.243622779846191,-5.16,1.64,-1.44,5.6
4.253650903701782,-4.76,1.54,-1.85,5.33
4.263673782348633,-5.48,-1.04,-3.01,6.33
4.273644924163818,-3.18,-0.27,-1.55,3.54
4.304637908935547,-2.36,-0.62,0.58,2.5
4.305222988128662,-3.66,-1.87,0.25,4.11
4.305792808532715,-3.99,-1.3,-0.76,4.26
4.313556909561157,-2.58,0.07,-0.81,2.7
4.323567867279053,-0.97,0.34,-0.35,1.08
4.33358907699585,0.09,0.23,-0.04,0.25
4.34351110458374,0.34,0.21,-0.28,0.48
4.353531837463379,0.34,0.38,-0.5,0.71
4.3634889125823975,0.06,0.34,-0.42,0.54
4.373469829559326,-0.61,-0.05,-0.31,0.68
4.405139923095703,-1.2,-0.17,-0.5,1.31
4.405725955963135,-1.45,0.03,-0.76,1.63
4.406293869018555,-1.51,0.24,-0.91,1.77
4.413326978683472,-1.69,0.28,-1.49,2.27
4.423378944396973,-1.39,-0.01,-1.86,2.32
4.433365821838379,-0.54,-0.39,-1.06,1.25
4.443279981613159,-0.3,-0.12,-0.19,0.37
4.453356981277466,-0.25,-0.01,0.35,0.43
4.463314056396484,0.01,-0.04,0.61,0.61
4.473183870315552,0.33,-0.21,0.52,0.65
4.505421876907349,0.46,-0.36,0.29,0.65
4.505983829498291,-0.11,-0.36,0.45,0.58
4.50653600692749,-0.88,-0.16,0.55,1.05
4.51306676864624,-1.16,0.27,0.36,1.24
4.52323579788208,-1.11,0.29,0.47,1.23
4.533240795135498,-1.06,0.05,0.52,1.18
4.543216943740845,-1.07,0.06,0.18,1.08
4.553277015686035,-0.92,0.12,-0.25,0.96
4.563246965408325,-0.64,0.07,-0.67,0.92
4.573257923126221,-0.34,0.08,-0.72,0.8
4.6063008308410645,-0.02,0.03,-0.79,0.79
4.60693883895874,0.2,-0.12,-0.77,0.8
4.6075310707092285,0.1,0.05,-0.59,0.6
4.613073825836182,0.04,0.37,-0.39,0.53
4.6230878829956055,0.39,0.06,-0.37,0.54
4.633075952529907,0.65,-0.08,-0.88,1.09
4.643030881881714,0.16,-0.07,-1.13,1.14
4.653035879135132,-0.33,-0.18,-0.91,0.98
4.662890911102295,-0.54,0.08,-0.66,0.85
4.672985076904297,-0.58,0.08,-0.27,0.64
4.707604885101318,-0.26,-0.08,0.01,0.27
4.708745002746582,0.35,-0.07,0.12,0.37
4.709356784820557,0.72,-0.08,-0.03,0.72
4.712885856628418,0.55,-0.12,-0.47,0.73
4.722929000854492,0.26,0.0,-0.66,0.7
4.732813835144043,0.29,0.0,-0.38,0.47
4.742849826812744,-0.04,-0.06,-0.26,0.26
4.752872943878174,-0.52,0.0,-0.03,0.52
4.762814998626709,-0.6,-0.01,0.26,0.65
4.772832870483398,-0.5,-0.06,0.17,0.53
4.8079869747161865,-0.41,0.0,0.09,0.41
4.808897018432617,-0.32,-0.03,0.02,0.32
4.809496879577637,-0.29,-0.05,-0.19,0.35
4.812726020812988,-0.22,0.12,-0.41,0.48
4.822720050811768,0.07,0.18,-0.36,0.4
4.8326849937438965,0.31,0.22,0.08,0.38
4.8426737785339355,0.31,0.12,0.22,0.39
4.852705001831055,0.22,0.07,0.1,0.25
4.862678050994873,0.32,0.05,0.2,0.38
4.872725009918213,0.67,-0.08,0.24,0.71
4.906665802001953,1.1,-0.07,0.08,1.1
4.907703876495361,1.5,0.08,-0.06,1.5
4.908279895782471,1.4,0.2,-0.27,1.43
4.912550926208496,0.74,0.15,-0.18,0.77
4.922553062438965,0.25,0.0,0.12,0.27
4.932636976242065,0.29,0.03,0.23,0.37
4.942471027374268,0.33,0.07,0.53,0.62
4.952594757080078,0.4,0.0,0.71,0.81
4.962583065032959,0.61,-0.06,0.36,0.71
4.972598075866699,1.15,0.0,-0.09,1.15
5.0072197914123535,1.69,0.13,-0.31,1.72
5.008235931396484,1.86,0.18,-0.38,1.9
5.0088019371032715,1.65,0.08,-0.35,1.68
5.012439966201782,1.45,0.03,-0.08,1.45
5.022470951080322,1.5,0.1,0.36,1.54
5.032505989074707,1.99,0.1,0.71,2.11
5.042328834533691,2.56,0.06,1.01,2.75
5.052409887313843,3.07,0.18,1.1,3.26
5.062372922897339,3.96,0.47,1.04,4.12
5.0724101066589355,5.04,0.62,1.33,5.24
5.108330965042114,5.61,0.83,1.51,5.86
5.1089088916778564,4.76,1.57,0.88,5.08
5.109470844268799,3.3,2.07,0.95,4.0
5.112186908721924,2.04,2.6,1.06,3.47
5.122375011444092,0.86,3.54,1.29,3.86
5.132642984390259,0.78,4.29,-0.2,4.36
5.1422529220581055,1.73,4.35,0.37,4.69
5.1523847579956055,1.55,4.25,1.12,4.66
5.1622490882873535,1.85,4.76,-0.29,5.11
5.172214031219482,3.26,5.63,-0.36,6.51
5.182113885879517,4.24,5.45,-0.38,6.91
5.208749771118164,4.07,4.68,-0.98,6.27
5.209385871887207,3.2,4.4,-1.45,5.63
5.212220907211304,2.05,3.36,-1.69,4.28
5.222289085388184,0.73,1.81,-1.3,2.34
5.232232093811035,-0.74,0.87,-0.42,1.21
5.241923809051514,-0.71,0.1,-0.34,0.79
5.252082824707031,1.32,-0.33,-0.01,1.36
5.262051105499268,3.52,-1.29,1.49,4.03
5.272019863128662,4.78,-2.11,2.51,5.79
5.282012939453125,6.03,-1.05,0.28,6.12
5.3087568283081055,6.68,-0.5,0.62,6.72
5.3093390464782715,6.79,-0.49,2.72,7.33
5.311957836151123,6.51,-1.38,3.4,7.47
5.32197904586792,5.9,-1.94,2.83,6.82
5.33192777633667,5.35,-1.78,2.02,5.98
5.341782093048096,4.85,-1.36,1.83,5.35
5.351873874664307,4.46,-1.02,1.88,4.94
5.361872911453247,4.13,-0.82,1.83,4.59
5.371914863586426,3.83,-0.65,1.71,4.24
5.381886005401611,3.46,-0.48,1.67,3.87
5.408469915390015,2.87,-0.24,1.65,3.31
5.40904688835144,2.11,0.23,1.44,2.56
5.411756992340088,1.1,0.79,1.08,1.73
5.421853065490723,0.18,1.09,0.62,1.26
5.431673049926758,-0.47,1.26,0.27,1.37
5.441840887069702,-0.8,1.55,0.07,1.74
5.451796054840088,-1.12,1.89,-0.09,2.19
5.461745977401733,-1.34,2.18,-0.26,2.57
5.471782922744751,-1.39,2.39,-0.72,2.85
5.481726884841919,-1.54,2.59,-0.99,3.17
5.508307933807373,-2.54,2.61,-0.94,3.76
5.508912086486816,-3.18,2.47,-1.25,4.21
5.511507987976074,-3.32,2.37,-1.61,4.38
5.521720886230469,-3.39,2.05,-1.59,4.26
5.5316009521484375,-3.47,1.48,-1.46,4.04
5.541578769683838,-3.82,0.95,-1.33,4.15
5.551644802093506,-3.87,0.52,-1.28,4.1
5.561635971069336,-3.83,0.24,-1.41,4.08
5.571602821350098,-4.08,-0.04,-1.68,4.41
5.581532001495361,-4.28,-0.45,-1.83,4.67
5.60959792137146,-4.07,-1.01,-1.74,4.54
5.610193967819214,-3.78,-1.29,-1.57,4.29
5.611402988433838,-3.8,-1.25,-1.62,4.31
5.621532917022705,-3.81,-1.33,-1.85,4.43
5.631458759307861,-3.77,-1.16,-2.26,4.54
5.641453981399536,-3.91,-0.9,-2.6,4.78
5.651423931121826,-4.58,-0.91,-2.78,5.43
5.661468982696533,-5.3,-1.29,-2.86,6.15
5.691971778869629,-5.7,-1.51,-2.82,6.53
5.692515850067139,-5.75,-1.89,-2.86,6.69
5.693042755126953,-5.5,-2.09,-3.01,6.6
5.701416015625,-5.28,-1.86,-2.88,6.29
5.711293935775757,-5.29,-1.7,-2.87,6.25
5.721328973770142,-5.6,-1.2,-3.14,6.53
5.7311389446258545,-1.86,6.76,-4.49,8.32
5.741153955459595,9.54,11.69,-2.74,15.33
5.751354932785034,22.4,5.24,15.15,27.54
5.761238098144531,17.01,-3.13,17.54,24.63
5.788261890411377,1.03,-1.71,0.37,2.03
5.7888898849487305,-9.85,-3.14,-6.9,12.42
5.79123592376709,-5.91,-0.21,-2.01,6.24
5.801212787628174,1.92,4.16,2.37,5.15
5.811172962188721,2.86,5.19,1.22,6.05
5.821213960647583,-1.29,4.25,0.55,4.47
5.831188917160034,-5.26,3.05,-0.49,6.1
5.841123104095459,-8.03,2.81,-2.5,8.86
5.8510589599609375,-8.31,3.05,-4.42,9.89
5.8611979484558105,-4.83,2.63,-4.9,7.36
5.889970779418945,-2.01,1.92,-4.4,5.2
5.890636920928955,-1.1,0.56,-4.06,4.24
5.891254901885986,0.65,-1.99,-2.5,3.26
5.900975942611694,2.29,-3.57,0.6,4.28
5.911009788513184,-0.68,-1.17,-0.69,1.51
5.921029090881348,-5.65,-1.1,-4.75,7.46
5.930862903594971,-6.04,2.07,-3.49,7.27
5.940983772277832,-2.94,2.59,-0.57,3.95
5.950963020324707,-0.43,0.65,0.07,0.78
5.960985898971558,0.85,-0.38,-0.1,0.93
5.99014687538147,1.59,-0.42,0.05,1.64
5.990900993347168,1.0,-0.3,0.75,1.28
5.99152398109436,-0.38,-0.25,0.83,0.94
6.000704765319824,-1.51,-0.27,0.35,1.57
6.01094388961792,-2.16,-0.46,0.21,2.21
6.020876884460449,-2.82,-0.55,-0.02,2.87
6.030871868133545,-3.55,-0.55,-0.3,3.6
6.0409228801727295,-3.7,-0.14,-0.26,3.71
6.050858974456787,-2.72,0.29,-0.01,2.73
6.060945987701416,-1.43,0.24,0.0,1.45
6.090832948684692,-0.64,0.12,-0.19,0.67
6.091477870941162,-0.47,0.29,0.17,0.57
6.092095851898193,-0.78,0.25,0.92,1.23
6.1006269454956055,-0.67,-0.06,1.27,1.43
6.1106438636779785,0.03,-0.16,1.03,1.04
6.120786905288696,0.12,-0.15,0.39,0.43
6.130712985992432,-0.19,-0.11,-0.2,0.29
6.140778064727783,-0.42,-0.1,-0.46,0.63
6.150727987289429,-0.88,-0.14,-0.46,1.0
6.160679817199707,-1.32,-0.12,-0.76,1.52
6.1905388832092285,-1.2,-0.18,-0.75,1.42
6.191178798675537,-0.92,-0.15,-0.68,1.15
6.191796779632568,-0.51,0.25,-0.59,0.81
6.200684070587158,0.13,0.28,-0.16,0.34
6.210549831390381,0.38,0.26,0.14,0.48
6.220645904541016,0.32,0.12,0.16,0.37
6.230513095855713,0.26,0.12,-0.06,0.29
6.240516901016235,0.45,0.2,-0.22,0.53
6.2507758140563965,0.49,0.27,-0.75,0.93
6.260512828826904,0.69,0.13,-1.13,1.33
6.290499925613403,0.65,-0.19,-1.22,1.39
6.291136980056763,0.17,-0.3,-1.28,1.32
6.291758060455322,-0.08,-0.26,-0.73,0.77
6.300807952880859,-0.25,-0.03,-0.75,0.79
6.310362815856934,-0.37,0.38,-1.04,1.16
6.320527076721191,-0.23,0.57,-1.23,1.37
6.330348014831543,0.08,0.44,-1.42,1.48
6.340421915054321,0.57,-0.11,-1.43,1.54
6.350803852081299,0.97,-0.65,-0.71,1.36
6.360464096069336,0.93,-0.56,-0.49,1.19
6.391737937927246,0.68,0.02,-0.69,0.96
6.392369985580444,0.63,0.21,-1.44,1.58
6.3929948806762695,0.68,-0.5,-0.6,1.03
6.400759935379028,0.33,-1.14,0.09,1.19
6.410294055938721,0.09,-0.5,-0.57,0.76
6.420413017272949,0.44,-0.17,-0.66,0.81
6.4302449226379395,0.36,0.13,-0.48,0.61
6.440222978591919,-0.04,0.41,0.31,0.51
6.450204849243164,-0.16,0.24,0.24,0.37
6.460145950317383,-0.3,-0.13,0.06,0.33
6.491416931152344,-0.35,-0.26,0.04,0.43
6.492050886154175,-0.27,-0.03,0.0,0.27
6.492669105529785,-0.21,0.29,0.17,0.39
6.5002570152282715,0.03,0.51,0.25,0.56
6.509950876235962,0.26,0.27,0.17,0.41
6.520060062408447,0.27,-0.05,0.2,0.33
6.53002405166626,0.18,0.0,0.48,0.51
6.540055751800537,-0.23,-0.09,0.91,0.94
6.550043106079102,-0.74,-0.22,1.18,1.41
6.560141086578369,-0.94,-0.18,1.06,1.42
6.591213941574097,-0.71,-0.11,1.02,1.24
6.591840982437134,-0.41,-0.14,0.91,1.0
6.59245491027832,-0.28,-0.15,0.89,0.94
6.599903106689453,-0.01,-0.22,0.87,0.89
6.609931945800781,0.31,-0.29,0.78,0.88
6.619999885559082,0.56,-0.19,0.64,0.87
6.629879951477051,0.78,0.07,0.43,0.89
6.639910936355591,1.08,0.32,-0.03,1.12
6.64990496635437,2.08,0.83,-0.34,2.26
6.6599249839782715,3.53,1.29,0.02,3.75
6.6915199756622314,4.49,1.7,0.11,4.8
6.692141056060791,4.4,1.99,0.2,4.83
6.692725896835327,4.08,1.99,0.65,4.58
6.699743986129761,4.32,1.75,1.04,4.77
6.709764003753662,4.01,1.41,0.62,4.29
6.719692945480347,3.55,2.71,-0.37,4.48
6.729866027832031,3.95,4.43,0.53,5.95
6.739749908447266,3.95,4.28,1.69,6.06
6.749704837799072,3.55,3.79,0.33,5.2
6.759771823883057,3.02,4.44,-0.29,5.37
6.792738914489746,2.37,5.28,-0.62,5.82
6.793367862701416,2.82,6.41,-1.94,7.26
6.794015884399414,5.08,7.6,-2.7,9.53
6.799613952636719,6.88,7.0,-2.39,10.1
6.809622764587402,6.24,5.47,-1.99,8.53
6.819709777832031,4.24,4.34,-1.58,6.26
6.829551935195923,1.78,2.09,-1.39,3.07
6.83960485458374,-0.01,0.6,-1.22,1.35
6.849596977233887,-1.71,0.11,-0.38,1.75
6.859592914581299,-2.04,-2.03,-0.54,2.92
6.892530918121338,1.64,-2.47,-0.87,3.08
6.893167018890381,4.02,-1.93,1.62,4.74
6.893821954727173,4.57,-1.35,2.04,5.18
6.899420976638794,7.71,-2.17,0.03,8.0
6.909489870071411,8.85,-1.97,1.48,9.18
6.919439792633057,9.05,-1.73,3.44,9.83
6.929378986358643,8.65,-2.24,4.11,9.83
6.939456939697266,7.83,-2.56,3.66,9.01
6.949426889419556,7.26,-2.8,3.19,8.4
6.9594597816467285,6.87,-2.85,3.15,8.07
6.99268102645874,6.28,-2.67,3.16,7.52
6.993312835693359,5.33,-2.45,3.18,6.67
6.993919849395752,4.36,-2.09,2.88,5.62
6.999259948730469,3.72,-1.37,2.4,4.63
7.009290933609009,3.23,-0.47,2.06,3.85
7.0192649364471436,2.87,0.59,1.88,3.48
7.029177904129028,2.63,1.77,1.87,3.68
7.039308071136475,2.13,3.01,1.48,3.97
7.049242973327637,1.76,3.87,0.37,4.26
7.059210777282715,1.02,4.57,-0.44,4.7
7.092627048492432,-2.26,5.1,-0.41,5.59
7.093260765075684,-4.29,5.04,-1.08,6.7
7.094326019287109,-5.04,6.02,-1.53,7.99
7.099242925643921,-6.08,7.51,-2.65,10.01
7.109248876571655,-6.5,7.36,-4.42,10.76
7.119045972824097,-5.49,4.3,-3.95,8.01
7.12903094291687,-4.37,1.01,-2.5,5.13
7.139071941375732,-4.42,-0.47,-2.5,5.09
7.149112939834595,-6.14,-0.96,-3.49,7.12
7.159121990203857,-8.64,-1.19,-4.56,9.84
7.193264007568359,-10.26,-2.43,-4.71,11.54
7.194386959075928,-10.69,-3.25,-4.35,11.99
7.194971084594727,-10.02,-2.96,-4.13,11.23
7.199033975601196,-8.59,-1.08,-4.06,9.56
7.2089879512786865,-4.83,3.65,-4.23,7.38
7.218885898590088,-1.42,1.91,-2.92,3.76
7.228966951370239,-0.83,-0.04,-2.24,2.38
7.2389678955078125,3.98,3.08,-0.51,5.05
7.248976945877075,8.69,1.49,7.29,11.44
7.259012937545776,6.36,-2.2,2.96,7.35
7.293377876281738,0.56,-1.55,-4.83,5.1
7.294465065002441,-2.3,-0.33,-4.37,4.94
7.295088768005371,-2.46,-0.82,-2.22,3.41
7.298738956451416,-2.74,0.73,-2.38,3.7
7.308861970901489,-2.29,3.83,-1.37,4.66
7.318734884262085,-3.2,6.32,0.32,7.09
7.328836917877197,-6.32,4.66,-0.41,7.86
7.338840007781982,-8.83,5.1,-2.39,10.47
7.348814964294434,-10.08,3.31,-6.09,12.23
7.358817100524902,-8.91,1.64,-5.61,10.65
7.393299102783203,-1.37,2.33,-2.29,3.54
7.394324779510498,3.41,-1.52,1.16,3.9
7.394903898239136,1.66,-4.09,2.01,4.85
7.398644924163818,-2.23,-3.38,0.91,4.15
7.408670902252197,-5.58,-2.02,0.92,6.0
7.418789863586426,-6.49,-0.48,2.31,6.9
7.428597927093506,-4.53,0.11,1.92,4.92
7.4386820793151855,-1.96,0.51,0.25,2.04
7.448603868484497,0.07,0.49,-0.07,0.49
7.458702087402344,0.67,0.42,-0.31,0.84
7.494513034820557,0.23,0.3,-1.01,1.07
7.49510383605957,-0.49,0.05,-0.82,0.95
7.495670795440674,-1.02,0.08,-0.46,1.12
7.498498916625977,-1.42,0.1,-0.42,1.48
7.508413791656494,-1.74,0.1,-0.69,1.87
7.518716812133789,-1.94,0.1,-1.04,2.2
7.528491020202637,-1.87,0.07,-1.37,2.31
7.538492918014526,-1.63,0.02,-1.53,2.23
7.548428058624268,-1.11,-0.12,-1.35,1.75
7.5584940910339355,-0.63,-0.11,-1.08,1.25
7.594862937927246,-0.27,0.0,-1.05,1.08
7.5954909324646,-0.25,-0.02,-0.96,0.99
7.596077919006348,-0.2,-0.17,-0.5,0.56
7.59839391708374,-0.07,-0.13,-0.15,0.21
7.6082868576049805,-0.08,-0.2,0.14,0.25
7.618401050567627,-0.4,-0.17,-0.04,0.43
7.628338813781738,-0.75,0.0,-0.48,0.89
7.638425827026367,-0.87,0.21,-1.58,1.81
7.648323059082031,-0.46,-0.2,-1.02,1.13
7.658318042755127,-0.09,-0.45,0.2,0.5
7.6682069301605225,-0.06,0.12,0.24,0.27
7.695206880569458,-0.22,0.24,0.53,0.62
7.695775985717773,-0.19,0.02,0.33,0.38
7.698141098022461,0.01,-0.05,-0.37,0.37
7.708209991455078,0.31,0.03,-0.58,0.65
7.718114852905273,0.69,0.0,-0.71,0.99
7.728140830993652,0.87,-0.19,-0.37,0.96
7.73804497718811,0.82,0.13,-0.37,0.9
7.7481689453125,0.86,0.1,-0.4,0.95
7.7581610679626465,0.66,-0.12,-0.71,0.97
7.7681050300598145,0.51,-0.16,-0.96,1.09
7.794497966766357,0.48,-0.19,-0.56,0.76
7.795066833496094,0.48,-0.09,0.22,0.53
7.798044919967651,0.4,0.19,0.51,0.67
7.808075904846191,0.42,0.25,0.58,0.75
7.8180317878723145,0.17,0.13,0.43,0.48
7.828106880187988,-0.34,-0.06,-0.14,0.37
7.83801794052124,-0.57,-0.06,-0.4,0.69
7.848145008087158,-0.48,0.05,-0.17,0.51
7.858011960983276,-0.32,0.05,-0.08,0.33
7.867992877960205,-0.3,-0.05,-0.2,0.36
7.8947930335998535,-0.36,-0.03,-0.32,0.48
7.895376920700073,-0.27,0.04,-0.12,0.29
7.897820949554443,-0.18,-0.06,0.04,0.19
7.907870769500732,-0.23,-0.07,-0.02,0.24
7.917836904525757,-0.13,-0.01,-0.02,0.13
7.927857875823975,-0.17,-0.04,0.04,0.17
7.9378509521484375,-0.1,-0.02,-0.01,0.1
7.947903871536255,0.18,0.02,0.11,0.21
7.957798957824707,0.31,-0.03,0.2,0.37
7.967833042144775,0.32,0.01,0.24,0.4
7.994801998138428,0.28,0.02,0.36,0.45
7.995373964309692,0.12,0.03,0.31,0.33
7.997600078582764,-0.18,0.0,0.54,0.56
8.007657051086426,-0.39,-0.01,0.85,0.93
8.017611980438232,-0.44,-0.02,0.63,0.76
8.027584075927734,-0.38,-0.02,0.13,0.4
8.037637948989868,-0.27,-0.01,-0.28,0.38
8.047569751739502,-0.16,-0.03,-0.53,0.55
8.057663917541504,0.04,0.1,-0.68,0.68
8.067607879638672,0.5,0.23,-0.34,0.64
8.094007968902588,0.83,0.15,-0.33,0.9
8.094971895217896,0.29,0.07,-0.81,0.86
8.09753704071045,-0.51,0.2,-0.84,1.0
8.107306957244873,-0.85,0.27,-0.54,1.04
8.117466926574707,-0.5,0.25,-0.38,0.67
8.127614974975586,-0.07,0.03,-0.26,0.27
8.137567043304443,0.34,-0.08,-0.19,0.39
8.147544860839844,0.94,0.02,-0.23,0.96
8.157480955123901,1.77,0.09,-0.23,1.78
8.16751480102539,2.4,0.17,-0.04,2.4
8.195030927658081,2.97,0.26,0.16,2.98
8.195610046386719,3.49,0.21,0.51,3.53
8.197385787963867,3.87,0.28,0.69,3.94
8.207465887069702,4.13,0.64,0.92,4.27
8.21737003326416,4.29,1.14,1.4,4.65
8.22734785079956,4.93,1.28,1.97,5.46
8.237403869628906,5.64,1.3,2.18,6.18
8.247366905212402,5.42,1.64,1.24,5.79
8.257364749908447,4.34,2.21,0.98,4.96
8.267313003540039,3.09,3.2,0.85,4.52
8.2951340675354,1.34,5.61,0.35,5.77
8.295706987380981,1.72,7.61,-1.97,8.04
8.29738187789917,2.6,7.18,-0.24,7.64
8.307265758514404,2.83,6.7,0.43,7.28
8.317241907119751,4.78,7.83,-1.38,9.27
8.327241897583008,6.32,8.65,-1.78,10.85
8.337188959121704,6.81,7.2,-2.09,10.12
8.347181797027588,5.95,5.13,-2.37,8.2
8.357199907302856,2.67,3.12,-1.69,4.44
8.367190837860107,-0.35,1.24,-1.08,1.68
8.395241975784302,-2.18,-0.49,-0.8,2.37
8.395837783813477,-1.1,-1.36,-0.84,1.94
8.397132873535156,3.09,-1.57,-0.2,3.47
8.407182931900024,5.65,-2.89,1.91,6.62
8.417134761810303,4.98,-3.16,2.13,6.27
8.4270920753479,5.77,-3.0,-0.24,6.5
8.436999797821045,7.5,-2.58,0.94,7.98
8.446999073028564,7.98,-2.72,3.38,9.08
8.457146883010864,6.94,-3.27,4.14,8.71
8.467060089111328,5.6,-3.32,3.44,7.36
8.495184898376465,5.05,-3.06,2.59,6.44
8.49574589729309,5.12,-2.72,2.25,6.21
8.496915817260742,5.18,-2.57,2.23,6.19
8.50692081451416,4.75,-2.41,2.07,5.71
8.516953945159912,3.88,-1.9,2.01,4.76
8.526888847351074,2.75,-1.33,1.83,3.56
8.536863803863525,1.86,-0.88,1.59,2.6
8.546757936477661,1.37,-0.23,1.69,2.18
8.556847095489502,1.0,0.86,1.64,2.1
8.566870927810669,0.41,2.14,0.85,2.33
8.595119953155518,0.86,3.48,-0.72,3.65
8.595670938491821,-0.09,5.41,-1.38,5.58
8.596772909164429,-3.31,6.48,-1.5,7.42
8.606818914413452,-5.27,6.27,-2.3,8.5
8.61677098274231,-5.7,5.46,-2.75,8.35
8.626942873001099,-4.95,4.23,-2.58,7.0
8.63667893409729,-4.53,3.37,-2.48,6.16
8.646669864654541,-3.98,3.04,-2.72,5.69
8.656730890274048,-3.81,2.83,-3.04,5.63
8.666621923446655,-4.37,2.23,-3.58,6.07
8.695676803588867,-4.97,1.32,-3.76,6.37
8.696237087249756,-5.8,0.48,-3.33,6.7
8.696770906448364,-6.77,-0.29,-2.75,7.31
8.706693887710571,-7.6,-1.34,-2.46,8.09
8.71659803390503,-7.75,-2.3,-1.99,8.32
8.726670980453491,-6.92,-2.41,-1.5,7.47
8.73674488067627,-5.48,-2.25,-1.4,6.08
8.746492862701416,-3.72,-1.84,-1.16,4.3
8.756611824035645,-2.48,-1.09,-0.97,2.87
8.766514778137207,-2.3,-1.28,-0.86,2.76
8.796067953109741,-2.57,-2.02,-0.35,3.28
8.796631813049316,-3.23,-1.98,0.03,3.78
8.797163009643555,-2.27,2.86,-0.73,3.72
8.80649185180664,0.1,5.09,-1.52,5.31
8.81640100479126,4.44,1.5,-1.23,4.84
8.826419830322266,11.23,-1.52,5.39,12.54
8.83642578125,7.6,-1.84,6.54,10.19
8.84642505645752,-0.43,0.64,-0.2,0.79
8.856534957885742,-7.4,0.65,-4.35,8.6
8.866419792175293,-6.49,0.73,-3.23,7.28
8.895589828491211,-2.57,1.63,-1.78,3.52
8.89614200592041,-0.76,2.07,-1.96,2.95
8.896671772003174,0.11,2.84,-1.07,3.03
8.90633487701416,-0.63,3.39,-0.01,3.44
8.91631293296814,-2.97,4.15,-0.14,5.1
8.926291942596436,-6.48,4.08,-0.98,7.71
8.936240911483765,-7.45,2.79,-1.47,8.08
8.946109771728516,-5.84,1.7,-3.2,6.87
8.9562668800354,-4.37,-1.16,-3.91,5.97
8.966179847717285,-2.18,-1.44,-1.87,3.21
8.997775077819824,-1.72,-1.64,0.2,2.38
8.998394012451172,-2.65,-2.42,0.96,3.71
8.998938083648682,-3.22,-1.82,0.93,3.81
9.00608777999878,-3.24,-0.45,0.36,3.29
9.015970945358276,-2.77,0.5,-0.31,2.83
9.026007890701294,-2.22,0.96,-0.57,2.48
9.036001920700073,-1.72,1.06,-0.62,2.11
9.045994758605957,-1.54,0.81,-0.68,1.86
9.056066989898682,-1.25,0.37,-0.97,1.62
9.065993785858154,-0.81,-0.26,-0.72,1.11
9.095821857452393,-0.56,-0.37,-0.47,0.81
9.096357822418213,-0.67,-0.04,-0.42,0.79
9.096890926361084,-1.07,0.33,-0.32,1.16
9.10599398612976,-1.39,0.48,-0.45,1.53
9.115915775299072,-1.27,0.23,-0.69,1.46
9.125986099243164,-0.87,-0.06,-0.71,1.12
9.13595199584961,-0.32,-0.05,-0.73,0.79
9.1458158493042,0.15,0.08,-0.56,0.58
9.155940055847168,0.54,-0.05,0.03,0.54
9.16581678390503,0.54,-0.34,0.51,0.81
9.19645881652832,0.36,-0.26,1.03,1.12
9.19700002670288,0.3,-0.19,1.09,1.14
9.197528839111328,-0.32,-0.2,0.42,0.56
9.205947875976562,-1.42,0.0,-0.42,1.48
9.215852975845337,-1.6,0.04,-0.17,1.6
9.225787878036499,-1.05,-0.22,0.2,1.09
9.235806941986084,-0.88,-0.37,-0.14,0.96
9.245743751525879,-0.88,-0.42,-0.58,1.13
9.255934953689575,-0.59,-0.3,-1.15,1.32
9.265738010406494,-0.08,0.18,-1.48,1.49
9.296897888183594,0.52,0.45,-0.91,1.14
9.29744577407837,1.13,0.1,-0.53,1.25
9.297976970672607,1.2,-0.22,-0.91,1.52
9.30590009689331,0.84,0.23,-0.94,1.28
9.315737962722778,0.52,0.45,0.15,0.7
9.32571792602539,0.61,0.22,0.3,0.71
9.33567190170288,0.87,0.32,0.28,0.96
9.345648765563965,1.22,0.15,0.61,1.37
9.35576581954956,1.16,0.0,0.21,1.17
9.365700960159302,0.37,0.03,-0.47,0.59
9.3973069190979,-0.38,-0.04,-0.8,0.88
9.397850036621094,-0.53,-0.22,-1.04,1.18
9.398378849029541,-0.8,-0.42,-1.07,1.4
9.405407905578613,-0.99,-0.42,-0.85,1.37
9.415495872497559,-0.72,-0.34,-0.48,0.92
9.425501823425293,-0.15,-0.12,0.03,0.19
9.435471057891846,0.48,0.17,-0.31,0.59
9.445404052734375,1.03,0.17,-1.49,1.81
9.455444812774658,1.11,-0.3,-2.12,2.41
9.465456008911133,0.79,-0.74,-2.2,2.45
9.49674391746521,0.53,-0.75,-1.69,1.92
9.497291088104248,-0.33,0.15,-1.34,1.38
9.497804880142212,-1.28,1.19,1.0,2.01
9.50537896156311,-1.56,0.64,2.35,2.89
9.515215873718262,-1.32,-0.14,1.81,2.24
9.525346755981445,-0.67,-0.06,1.26,1.42
9.53531789779663,-0.23,-0.08,0.6,0.64
9.545203924179077,0.0,-0.05,-0.02,0.05
9.555185794830322,0.18,0.0,-0.62,0.64
9.565210819244385,-0.06,-0.3,-1.13,1.17
9.596343994140625,-0.53,-0.29,-1.18,1.32
9.596889972686768,-0.56,-0.1,-0.83,1.0
9.597420930862427,-0.54,-0.22,-0.38,0.69
9.605072975158691,-0.46,-0.14,-0.14,0.5
9.615180015563965,-0.07,-0.08,-0.24,0.26
9.6251540184021,0.25,-0.24,-0.48,0.59
9.635147094726562,0.49,-0.19,-0.62,0.81
9.64511775970459,0.58,0.09,-0.3,0.65
9.655056953430176,0.66,0.27,0.2,0.74
9.665059089660645,0.74,0.28,0.6,0.99
9.697085857391357,0.53,0.17,0.84,1.0
9.69762396812439,0.22,0.08,0.76,0.79
9.69814682006836,0.16,0.11,0.57,0.6
9.70488977432251,0.27,0.14,0.6,0.67
9.715006828308105,0.38,0.1,0.6,0.71
9.724998950958252,0.58,0.08,0.5,0.76
9.734953880310059,0.99,0.13,0.51,1.12
9.74500298500061,1.51,0.16,0.37,1.56
9.754822969436646,1.95,0.19,0.06,1.96
9.764890909194946,2.45,0.19,0.3,2.47
9.797390937805176,3.03,0.2,1.07,3.21
9.797926902770996,3.67,0.33,1.02,3.82
9.7984619140625,4.56,0.43,0.49,4.6
9.804709911346436,5.22,0.62,0.05,5.25
9.814819812774658,5.33,0.91,-0.18,5.41
9.82488489151001,5.15,1.12,0.12,5.27
9.834835052490234,4.65,1.17,0.49,4.81
9.844826936721802,3.75,1.22,1.1,4.09
9.854916095733643,2.38,1.45,0.95,2.94
9.864908933639526,0.68,2.23,-0.01,2.33
9.897556781768799,-0.48,5.08,-0.57,5.13
9.898093938827515,1.32,7.25,-1.56,7.53
9.898612976074219,2.56,5.1,0.52,5.73
9.904850959777832,2.79,5.07,-1.04,5.87
9.9147047996521,3.4,6.57,-2.21,7.72
9.9247407913208,5.16,7.31,-1.77,9.12
9.934694766998291,7.3,7.34,-1.86,10.51
9.944715976715088,7.44,6.2,-1.95,9.87
9.955012798309326,5.08,4.59,-1.84,7.08
9.96464490890503,2.03,3.31,-2.01,4.37
9.997590065002441,-0.27,1.98,-2.02,2.84
9.998132944107056,-1.63,0.22,-1.81,2.44
9.998653888702393,-4.17,-0.89,-0.21,4.26
10.004964828491211,-4.41,-1.6,-1.27,4.86
10.014577865600586,0.54,-1.82,-2.03,2.77
10.024556875228882,5.81,-3.45,-0.3,6.76
10.03453779220581,7.09,-4.78,1.28,8.64
10.044549942016602,2.56,-5.61,1.57,6.36
10.05450987815857,0.88,-5.13,0.57,5.23
10.06456708908081,4.4,-3.99,0.05,5.93
10.097602844238281,8.11,-3.32,1.51,8.89
10.098144054412842,9.56,-3.98,3.05,10.79
10.098670959472656,8.37,-4.72,3.74,10.31
10.104344844818115,7.06,-4.33,3.3,8.91
10.114365100860596,6.58,-3.45,2.47,7.82
10.124368906021118,6.33,-2.59,1.99,7.12
10.13440489768982,5.72,-1.71,1.91,6.26
10.144333839416504,5.03,-0.8,1.85,5.41
10.154329776763916,4.42,0.05,1.59,4.69
10.164249897003174,3.5,1.0,1.15,3.81
10.197587966918945,2.04,1.93,0.71,2.89
10.198088884353638,0.49,2.63,0.22,2.68
10.198580980300903,-0.82,3.09,-0.06,3.19
10.204153060913086,-2.15,3.26,0.02,3.9
10.214093923568726,-3.21,3.34,0.25,4.63
10.224000930786133,-3.49,3.51,0.14,4.95
10.23416805267334,-2.98,3.92,-0.45,4.94
10.244225978851318,-2.41,4.26,-0.93,4.98
10.254138946533203,-2.74,4.26,-1.09,5.18
10.264226913452148,-3.57,3.83,-1.12,5.35
10.29819393157959,-4.21,3.19,-1.23,5.42
10.29909086227417,-4.24,2.64,-1.2,5.13
10.299592971801758,-3.94,2.23,-1.08,4.65
10.304037094116211,-3.97,2.07,-1.42,4.69
10.313940048217773,-4.81,2.1,-1.97,5.6
10.324164867401123,-5.97,1.49,-2.38,6.59
10.334043025970459,-6.55,0.33,-2.44,6.99
10.34418797492981,-5.92,-0.93,-1.87,6.27
10.35414981842041,-4.57,-1.84,-1.36,5.11
10.364020824432373,-3.39,-2.07,-1.37,4.2
10.397995948791504,-2.73,-1.99,-1.63,3.75
10.398561954498291,-2.76,-1.55,-2.0,3.74
10.399415969848633,-3.41,-1.26,-2.39,4.35
10.403968811035156,-3.95,-1.42,-2.31,4.79
10.413848876953125,-4.04,-0.08,-1.94,4.48
10.423825979232788,-0.64,6.48,-1.96,6.8
10.433772087097168,0.29,1.77,-0.24,1.8
10.443947792053223,2.44,-1.59,0.97,3.06
10.453869819641113,8.11,-0.35,5.42,9.76
10.463719844818115,7.14,-0.12,7.31,10.21
10.499917030334473,2.21,-0.25,2.08,3.04
10.500455856323242,-3.24,0.22,-2.33,3.99
10.50098180770874,-5.51,1.11,-3.36,6.54
10.503720760345459,-4.7,1.81,-3.11,5.91
10.513707876205444,-3.0,3.18,-3.74,5.75
10.523870944976807,-1.03,4.47,-2.93,5.44
10.533715963363647,-0.75,3.24,-0.95,3.45
10.543734073638916,-2.52,0.89,-0.31,2.69
10.553756952285767,-3.89,0.08,-0.85,3.98
10.563622951507568,-3.96,0.3,-1.27,4.16
10.599576950073242,-2.93,-0.64,-0.96,3.14
10.60008692741394,-2.14,-0.74,-0.59,2.33
10.60058307647705,-3.75,-1.73,-3.26,5.26
10.603595972061157,-5.66,-0.84,-5.43,7.88
10.613646030426025,-4.88,2.82,-3.87,6.83
10.62365198135376,-2.65,1.81,-1.18,3.41
10.633625984191895,-1.18,-0.35,-0.15,1.23
10.643567085266113,-0.14,-0.29,-0.18,0.36
10.653560876846313,0.4,-0.12,-0.22,0.47
10.66357707977295,0.39,-0.43,0.34,0.67
10.699636936187744,-0.5,-0.02,0.15,0.52
10.700143814086914,-1.41,-0.07,-0.5,1.49
10.700639963150024,-2.65,-0.55,0.04,2.7
10.703405857086182,-3.83,-0.37,0.76,3.92
10.71347689628601,-4.07,-0.21,0.98,4.19
10.723308086395264,-3.53,-0.21,0.75,3.61
10.733391761779785,-2.53,-0.06,0.72,2.63
10.743360996246338,-1.78,0.02,1.16,2.12
10.75332498550415,-1.14,-0.12,1.25,1.69
10.763232946395874,-0.45,-0.17,0.68,0.83
10.799224853515625,-0.56,-0.19,0.06,0.59
10.79971194267273,-0.9,-0.22,0.06,0.92
10.800185918807983,-1.18,-0.21,0.16,1.2
10.80326509475708,-1.21,-0.1,0.05,1.21
10.813283920288086,-1.11,0.0,-0.25,1.13
10.82314395904541,-1.02,-0.17,-0.53,1.16
10.833250999450684,-0.8,-0.09,-1.06,1.33
10.84320592880249,-0.47,0.03,-1.2,1.28
10.853243827819824,-0.38,-0.07,-1.03,1.1
10.863213062286377,-0.55,0.07,-0.93,1.08
10.898995876312256,-0.72,0.41,-0.3,0.88
10.899513959884644,-0.33,0.27,0.56,0.7
10.900006771087646,0.1,0.0,0.27,0.28
10.903130054473877,0.17,-0.04,-0.31,0.35
10.913166046142578,-0.02,-0.17,-0.51,0.53
10.92301082611084,-0.66,0.02,-0.5,0.82
10.933080911636353,-1.09,0.11,0.25,1.12
10.943159103393555,-1.35,0.07,0.36,1.39
10.953069925308228,-1.39,0.12,-0.5,1.48
10.963083982467651,-0.86,0.08,-0.9,1.24
11.00005578994751,0.2,0.04,-1.31,1.32
11.00055980682373,1.13,-0.23,-1.92,2.23
11.001040935516357,1.53,-0.23,-2.07,2.58
11.002947807312012,1.67,0.04,-1.61,2.32
11.013001918792725,1.4,-0.14,-1.57,2.1
11.022950887680054,0.9,-0.2,-1.34,1.62
11.032879829406738,0.69,-0.2,-0.67,0.98
11.042962074279785,0.68,-0.21,-0.44,0.83
11.052917003631592,0.84,-0.2,-0.28,0.9
11.062872886657715,1.02,-0.26,0.24,1.07
11.100560903549194,1.11,0.06,0.66,1.29
11.101068019866943,1.28,0.33,0.6,1.45
11.101557970046997,1.22,0.05,0.07,1.22
11.102818012237549,0.9,-0.17,-0.47,1.02
11.112830877304077,0.6,-0.18,-0.83,1.03
11.122984886169434,0.21,-0.33,-0.57,0.69
11.132774829864502,-0.12,-0.27,-0.27,0.4
11.142848014831543,0.06,0.09,-0.23,0.25
11.1527259349823,0.32,0.07,-0.02,0.32
11.162789821624756,0.26,-0.06,-0.08,0.27
11.200554847717285,0.22,0.06,-0.44,0.49
11.201070785522461,-0.05,-0.06,-0.46,0.46
11.2015700340271,-0.68,-0.34,-0.36,0.84
11.202595949172974,-0.8,-0.36,-0.38,0.95
11.212675094604492,-0.75,-0.32,-0.22,0.84
11.222600936889648,-0.7,-0.03,0.02,0.7
11.23251485824585,-0.48,0.12,0.02,0.49
11.242655754089355,-0.25,0.01,-0.32,0.4
11.252579927444458,0.08,-0.09,-0.05,0.13
11.26261281967163,0.57,0.01,0.04,0.57
11.272534847259521,0.33,0.17,-0.33,0.49
11.301034927368164,-0.44,0.21,-0.12,0.5
11.301537990570068,-0.96,0.22,0.01,0.98
11.30251693725586,-0.97,0.18,0.1,0.99
11.312548875808716,-0.77,0.06,0.33,0.83
11.322452068328857,-0.46,0.1,0.62,0.77
11.332387924194336,-0.08,0.05,0.8,0.8
11.342466831207275,0.11,-0.07,0.49,0.5
11.352433919906616,-0.06,0.04,0.1,0.12
11.362443923950195,-0.13,0.13,-0.06,0.19
11.372450828552246,0.04,0.05,-0.08,0.1
11.400897026062012,0.22,-0.07,-0.06,0.23
11.401403903961182,0.39,-0.06,0.12,0.41
11.402217864990234,0.77,0.0,0.46,0.89
11.41242504119873,1.41,0.13,0.86,1.65
11.422306060791016,2.4,0.22,0.88,2.56
11.432302951812744,3.44,0.02,1.62,3.8
11.44235897064209,3.75,-0.11,1.44,4.01
11.452305793762207,3.32,0.03,0.43,3.34
11.462295055389404,2.93,0.25,0.42,2.97
11.472268104553223,3.0,0.37,0.11,3.02
11.499756813049316,3.17,0.53,-0.49,3.25
11.500228881835938,3.35,0.96,-0.63,3.54
11.502137899398804,3.29,1.35,-0.46,3.58
11.51214075088501,3.02,1.58,-0.29,3.42
11.522149085998535,2.66,1.77,-0.07,3.19
11.53213095664978,2.45,1.99,-0.37,3.17
11.542136907577515,1.58,2.78,-0.4,3.22
11.552121877670288,0.24,4.45,0.2,4.46
11.562142848968506,1.59,5.51,-0.63,5.76
11.572106838226318,2.16,4.82,1.35,5.45
11.599918842315674,2.3,5.01,0.22,5.51
11.600424766540527,3.26,5.51,-0.43,6.41
11.601956844329834,5.36,6.34,-0.06,8.3
11.61207890510559,8.1,6.29,-0.01,10.25
11.62191891670227,8.76,5.07,-0.28,10.12
11.632201910018921,6.72,3.85,-1.36,7.86
11.641936779022217,3.34,3.61,-2.11,5.35
11.65199589729309,0.61,2.56,-1.72,3.14
11.661990880966187,-0.68,0.99,-1.03,1.58
11.67193603515625,-1.41,0.13,-0.66,1.56
11.699516773223877,0.67,-0.19,-1.09,1.29
11.699992895126343,4.09,-0.7,0.1,4.15
11.701820850372314,5.49,-1.89,1.33,5.95
11.711905002593994,3.73,-2.48,0.94,4.57
11.721846103668213,4.2,-2.57,0.63,4.96
11.731860876083374,5.53,-2.32,2.66,6.56
11.74183988571167,6.17,-2.1,3.45,7.37
11.75185489654541,6.44,-2.52,2.96,7.52
11.782192945480347,6.87,-3.12,2.61,7.98
11.782640933990479,6.81,-2.91,2.51,7.81
11.78307580947876,6.04,-2.51,2.21,6.9
11.791745901107788,5.27,-2.24,1.93,6.04
11.801715850830078,4.33,-1.91,1.8,5.06
11.811716079711914,3.4,-1.7,1.95,4.27
11.82166576385498,2.87,-1.3,1.93,3.69
11.831531047821045,2.77,-0.44,1.7,3.27
11.841756820678711,2.44,0.54,1.42,2.87
11.851712942123413,1.57,1.51,0.79,2.31
11.882835865020752,1.17,2.28,-0.59,2.62
11.88330888748169,-0.96,3.31,-0.69,3.51
11.883770942687988,-3.38,3.76,-0.72,5.1
11.891542911529541,-4.13,4.01,-1.34,5.91
11.901527881622314,-4.29,5.13,-1.7,6.9
11.911541938781738,-4.48,5.7,-1.93,7.5
11.921514987945557,-4.61,4.95,-2.12,7.08
11.93154001235962,-4.13,3.54,-2.41,5.94
11.941514015197754,-3.55,2.73,-2.65,5.2
11.951493978500366,-3.16,2.57,-2.91,5.0
11.98292589187622,-3.04,2.48,-2.92,4.89
11.983409881591797,-3.31,1.87,-2.54,4.57
11.983872890472412,-4.27,0.93,-2.49,5.02
11.991368770599365,-5.73,-0.15,-2.83,6.39
12.001441955566406,-6.62,-1.32,-3.18,7.46
12.011441946029663,-6.67,-1.8,-3.31,7.66
12.02137279510498,-6.56,-1.54,-3.51,7.59
12.031261920928955,-6.16,-1.15,-3.58,7.21
12.04120683670044,-5.94,-0.83,-3.46,6.92
12.051312923431396,-5.81,-1.0,-3.2,6.7
12.083144903182983,-5.09,-1.33,-2.64,5.88
12.083617925643921,-4.6,-1.5,-2.21,5.31
12.084060907363892,-4.6,-1.84,-1.96,5.32
12.091216087341309,-4.79,-1.87,-1.77,5.43
12.10125207901001,-2.91,3.81,-1.97,5.18
12.11121392250061,0.99,6.43,-0.45,6.52
12.121141910552979,5.07,3.49,1.51,6.33
12.13116979598999,10.42,1.21,7.99,13.18
12.141069889068604,8.26,-0.74,9.39,12.52
12.151225090026855,2.26,-1.24,1.66,3.06
12.184125900268555,-1.81,0.01,-2.13,2.79
12.184600830078125,-1.26,2.02,-1.15,2.64
12.185064792633057,0.88,2.21,0.19,2.38
12.19099497795105,0.89,1.74,-0.22,1.96
12.201069831848145,-1.03,0.1,-0.11,1.04
12.211053848266602,-2.09,-1.61,-0.27,2.65
12.221055030822754,-2.51,-2.26,-0.67,3.44
12.231053829193115,-2.26,-1.64,-1.16,3.02
12.241177082061768,-1.28,0.28,-1.6,2.06
12.251091003417969,-1.03,2.49,-1.93,3.31
12.28399395942688,-0.67,2.51,-2.47,3.58
12.284464836120605,-1.16,1.08,-2.68,3.11
12.284934043884277,-2.99,0.4,-4.26,5.21
12.291094779968262,-4.8,0.48,-6.94,8.45
12.300952911376953,-3.24,1.46,-6.17,7.12
12.310910940170288,-0.71,-0.96,-0.73,1.39
12.320825099945068,-0.04,-3.07,2.14,3.74
12.330904006958008,-0.46,-2.18,1.8,2.86
12.34110689163208,-2.08,0.22,0.65,2.19
12.35085678100586,-3.4,1.52,-1.09,3.88
12.384522914886475,-3.82,0.56,-0.38,3.87
12.384997844696045,-3.43,-0.44,0.75,3.53
12.385461807250977,-2.71,-1.42,0.14,3.06
12.391119956970215,-2.34,-1.21,-0.3,2.65
12.400733947753906,-3.02,-0.36,0.36,3.06
12.41078495979309,-2.84,0.24,0.86,2.97
12.420743942260742,-2.71,0.39,0.93,2.89
12.430707931518555,-2.53,0.12,0.43,2.56
12.440704822540283,-2.35,-0.25,-0.19,2.37
12.450721979141235,-1.94,-0.38,-0.78,2.12
12.48530101776123,-1.43,-0.23,-0.9,1.7
12.486124992370605,-1.19,-0.1,-1.47,1.89
12.486592769622803,-0.5,-0.2,-1.54,1.63
12.490622997283936,-0.17,0.09,-1.28,1.29
12.500607967376709,-0.41,0.1,-1.22,1.29
12.5105299949646,-0.53,0.02,-0.93,1.07
12.520489931106567,-0.64,0.16,-0.83,1.06
12.530595779418945,-0.59,0.03,-0.63,0.86
12.540527820587158,-0.33,-0.1,-0.49,0.59
12.550538063049316,-0.17,-0.1,-0.51,0.54
12.585084915161133,-0.01,-0.18,-0.13,0.22
12.58591079711914,0.08,-0.25,0.66,0.71
12.586374759674072,0.11,0.01,1.24,1.24
12.591382026672363,-0.08,0.0,1.25,1.25
12.600359916687012,-0.16,-0.12,1.2,1.21
12.610450983047485,-0.41,0.0,0.96,1.04
12.620351791381836,-0.99,-0.08,0.8,1.27
12.630488872528076,-1.11,-0.14,0.52,1.23
12.640381813049316,-0.77,-0.1,0.74,1.07
12.65043306350708,-0.5,0.1,0.69,0.85
12.68480396270752,-0.08,0.12,0.05,0.15
12.685611963272095,0.19,0.0,-0.7,0.72
12.686044931411743,0.05,0.12,-1.3,1.3
12.690295934677124,0.01,0.25,-1.55,1.57
12.700270891189575,0.26,0.09,-1.63,1.65
12.710225105285645,0.87,0.24,-1.71,1.93
12.720230102539062,1.4,0.23,-1.42,2.0
12.730199813842773,1.03,0.06,-1.11,1.51
12.740213871002197,0.36,-0.18,-0.97,1.05
12.750241756439209,0.12,-0.26,-0.15,0.32
12.785799026489258,-0.04,-0.01,0.31,0.31
12.786274909973145,-0.01,0.35,0.23,0.41
12.786738872528076,0.24,0.22,0.0,0.32
12.790070056915283,0.36,-0.23,-0.5,0.65
12.800074100494385,-0.02,-0.33,-0.64,0.72
12.810166835784912,-0.44,-0.22,-0.43,0.65
12.82006287574768,-0.41,-0.01,-0.17,0.44
12.830096960067749,-0.16,0.06,0.06,0.18
12.840095043182373,0.1,-0.06,0.11,0.16
12.849956035614014,0.27,-0.12,0.17,0.34
12.885581016540527,0.51,-0.08,0.16,0.54
12.886038780212402,0.98,0.02,0.0,0.98
12.886472940444946,1.31,0.1,-0.3,1.34
12.890014886856079,0.68,0.04,-0.42,0.8
12.899955749511719,-0.11,-0.06,-0.02,0.12
12.910123825073242,-0.37,-0.14,0.1,0.4
12.919940948486328,-0.13,-0.11,-0.15,0.22
12.930051803588867,0.22,-0.02,-0.33,0.39
12.939971923828125,0.39,0.0,-0.54,0.66
12.949967861175537,0.19,-0.08,-0.58,0.61
12.98515510559082,-0.12,-0.01,-0.34,0.36
12.98583197593689,-0.3,0.05,-0.22,0.37
12.986264944076538,-0.18,0.08,-0.32,0.37
12.989750862121582,0.07,0.08,-0.35,0.36
12.999762058258057,0.2,0.01,-0.26,0.32
13.00981092453003,0.2,-0.04,-0.09,0.22
13.01976990699768,0.24,-0.05,0.24,0.34
13.029843807220459,0.14,-0.1,0.36,0.39
13.039752006530762,-0.33,-0.11,0.45,0.56
13.049773931503296,-0.56,0.05,-0.16,0.58
13.086164951324463,-0.22,-0.04,-0.68,0.71
13.086636066436768,-0.12,-0.06,-0.77,0.78
13.087099075317383,-0.42,-0.03,-0.89,0.98
13.089647769927979,-0.58,-0.08,-0.58,0.82
13.09968376159668,-0.07,-0.06,-0.29,0.3
13.109670877456665,0.77,-0.07,0.08,0.77
13.119641780853271,1.43,-0.03,0.96,1.72
13.12965202331543,1.92,0.28,1.66,2.55
13.139584064483643,2.38,0.36,1.92,3.07
13.149645805358887,3.0,0.37,1.69,3.46
13.186091899871826,3.99,0.66,1.24,4.23
13.18654489517212,4.71,0.88,0.5,4.81
13.186977863311768,4.74,1.23,0.08,4.89
13.189481973648071,4.46,1.87,0.11,4.83
13.199541091918945,4.31,2.19,0.37,4.84
13.209507942199707,3.55,2.09,-0.01,4.11
13.219419002532959,2.56,4.35,-1.47,5.25
13.229444026947021,3.06,6.2,0.36,6.92
13.239468097686768,3.13,5.32,1.42,6.33
13.249327898025513,2.76,5.33,0.01,6.0
13.285973072052002,2.07,6.01,-0.36,6.36
13.286419868469238,2.72,6.62,-0.83,7.2
13.286855936050415,4.17,6.81,-1.0,8.04
13.28937578201294,4.47,4.84,-0.6,6.61
13.299299955368042,3.73,2.26,-0.7,4.41
13.309240818023682,1.87,0.6,-1.02,2.21
13.319281101226807,0.3,-1.14,-1.47,1.88
13.329351902008057,1.02,-2.35,-1.23,2.84
13.339241981506348,2.05,-1.69,0.83,2.78
13.349309921264648,0.29,-0.58,2.23,2.32
13.386201858520508,3.03,-1.55,0.48,3.43
13.3866548538208,6.92,-1.14,0.83,7.06
13.387079954147339,8.36,-1.06,2.83,8.88
13.389248847961426,7.64,-1.98,3.67,8.7
13.39920687675476,6.38,-2.57,2.88,7.45
13.409048080444336,6.1,-2.35,2.1,6.86
13.419209003448486,6.2,-1.87,1.98,6.77
13.429204940795898,5.73,-1.81,2.15,6.38
13.439153909683228,4.86,-1.79,2.21,5.63
13.449099063873291,4.06,-1.48,2.01,4.76
13.48666787147522,3.36,-1.01,1.78,3.93
13.487107753753662,2.94,-0.37,1.42,3.28
13.48753309249878,2.32,0.47,1.16,2.63
13.489024877548218,1.26,1.14,0.97,1.95
13.49907398223877,0.03,1.82,0.61,1.91
13.509013891220093,-0.84,2.5,0.04,2.63
13.518948078155518,-0.75,3.34,-0.79,3.51
13.529016971588135,-1.91,4.26,-0.49,4.69
13.538992881774902,-3.97,4.24,-0.12,5.8
13.548996925354004,-4.38,3.51,-0.54,5.63
13.587532043457031,-3.97,3.05,-0.82,5.07
13.587981939315796,-2.9,2.53,-0.93,3.95
13.588400840759277,-2.15,2.2,-0.93,3.21
13.588839054107666,-1.77,1.97,-1.19,2.9
13.598824977874756,-1.85,1.81,-1.66,3.07
13.60914397239685,-2.54,1.64,-2.07,3.66
13.61882495880127,-3.76,1.68,-2.5,4.81
13.628850936889648,-4.54,0.98,-2.57,5.3
13.638833045959473,-5.05,0.03,-2.25,5.52
13.64879298210144,-5.4,-0.74,-2.21,5.88
13.65877389907837,-5.67,-1.06,-2.35,6.22
13.688003063201904,-5.62,-1.24,-2.23,6.17
13.688458919525146,-5.18,-1.14,-2.22,5.74
13.68889594078064,-4.43,-0.94,-2.6,5.22
13.698746919631958,-3.61,-0.83,-2.68,4.57
13.708675861358643,-2.52,-1.24,-2.06,3.48
13.718647956848145,-1.99,-1.79,-1.86,3.25
13.728723049163818,-2.77,-2.27,-2.22,4.21
13.738611936569214,-3.95,-2.3,-2.64,5.27
13.748714923858643,-4.64,1.35,-3.23,5.81
13.758650779724121,-2.06,6.38,-3.19,7.42
13.787154912948608,-2.17,0.9,-1.78,2.94
13.78758692741394,1.31,-1.79,-0.6,2.29
13.788582801818848,7.06,-0.97,4.15,8.24
13.798562049865723,7.06,-0.7,6.61,9.69
13.808469772338867,3.63,-0.51,2.92,4.68
13.818479061126709,-0.45,0.11,-0.93,1.03
13.828561782836914,-2.37,0.69,-1.35,2.81
13.838459968566895,-1.06,1.05,-0.52,1.58
13.848488807678223,0.33,1.58,-0.12,1.61
13.858476877212524,0.03,1.54,-0.04,1.54
13.887398958206177,-1.0,2.3,-0.44,2.54
13.887848854064941,-2.72,3.34,-0.85,4.39
13.888277053833008,-3.85,2.46,-1.91,4.95
13.898378849029541,-3.04,0.54,-2.54,3.99
13.908305883407593,-1.63,0.87,-1.84,2.6
13.918329954147339,-2.26,0.7,-2.3,3.29
13.92834997177124,-4.01,-1.24,-3.72,5.6
13.938405990600586,-3.47,-1.01,-4.05,5.42
13.94840383529663,-2.42,-0.93,-2.11,3.34
13.958343982696533,-2.06,-1.61,-1.17,2.86
13.98731279373169,-1.63,-1.43,-1.72,2.76
13.987743854522705,-1.22,-0.43,-0.32,1.33
13.988193988800049,-1.15,0.0,1.0,1.52
13.998250961303711,-1.23,1.01,0.59,1.69
14.008194923400879,-0.82,1.51,-0.58,1.81
14.018085956573486,-0.79,0.36,-0.5,1.0
14.028268814086914,-0.97,-0.4,-0.07,1.05
14.038188934326172,-1.39,-0.32,0.4,1.48
14.048218965530396,-2.1,-0.47,0.85,2.31
14.058157920837402,-2.97,-0.68,0.95,3.19
14.087830066680908,-3.28,-0.56,0.93,3.45
14.088257789611816,-2.84,-0.55,0.88,3.02
14.088677883148193,-1.98,-0.63,0.31,2.1
14.098100900650024,-0.92,-0.45,-0.28,1.06
14.108038902282715,-0.54,-0.16,-0.17,0.58
14.118055820465088,-0.95,0.01,0.27,0.98
14.128078937530518,-1.28,0.06,0.1,1.28
14.138359069824219,-1.0,0.28,-0.11,1.04
14.148075103759766,-0.92,0.13,-0.27,0.96
14.158000946044922,-0.91,-0.01,-0.5,1.03
14.188406944274902,-0.82,-0.03,-0.52,0.97
14.188837051391602,-0.79,0.0,-0.32,0.85
14.189262866973877,-0.83,0.12,-0.23,0.86
14.19819188117981,-0.92,-0.02,-0.07,0.92
14.207870960235596,-0.67,-0.02,-0.32,0.74
14.217878818511963,-0.56,0.04,-0.71,0.9
14.22790789604187,-0.53,0.06,-0.79,0.95
14.237813949584961,-0.32,0.01,-0.69,0.76
14.247905969619751,-0.27,-0.09,-0.76,0.81
14.25785779953003,-0.38,0.01,-0.77,0.85
14.288652896881104,-0.38,0.17,-0.75,0.85
14.289056777954102,-0.45,0.08,-0.61,0.76
14.289478778839111,-0.58,0.16,-0.18,0.62
14.29780387878418,-0.47,0.16,-0.06,0.5
14.30773401260376,-0.17,-0.02,-0.29,0.33
14.317553043365479,-0.05,-0.1,-0.54,0.55
14.327820777893066,-0.06,-0.09,-0.31,0.32
14.337690830230713,0.05,-0.11,-0.07,0.13
14.347745895385742,0.11,-0.05,-0.12,0.17
14.357685089111328,0.12,0.15,-0.35,0.39
14.38861608505249,0.08,0.21,-0.66,0.69
14.389049053192139,0.07,0.04,-1.05,1.05
14.389472007751465,0.21,-0.16,-1.47,1.49
14.397579908370972,0.42,-0.47,-1.21,1.36
14.407588958740234,0.61,-0.6,-1.07,1.37
14.41753888130188,0.75,-0.44,-0.9,1.25
14.42738676071167,0.97,-0.19,-0.61,1.16
14.437520980834961,0.95,-0.14,-1.36,1.66
14.447577953338623,0.73,-0.13,-1.96,2.09
14.457572937011719,0.97,-0.32,-1.01,1.43
14.48878788948059,0.92,-0.53,-0.8,1.32
14.489216804504395,0.25,0.12,-1.34,1.36
14.48963975906372,-0.26,0.92,0.41,1.04
14.49749493598938,-0.23,0.63,1.89,2.0
14.507382869720459,0.09,-0.19,1.75,1.76
14.51730990409851,0.56,-0.15,1.03,1.18
14.527281761169434,1.0,0.13,0.56,1.15
14.537410974502563,1.21,0.11,0.16,1.22
14.547461986541748,1.29,0.26,-0.49,1.4
14.55738878250122,1.04,-0.07,-0.68,1.24
14.588766098022461,0.32,-0.38,-0.72,0.87
14.589200973510742,-0.44,-0.34,-0.82,0.99
14.589622974395752,-0.9,-0.31,-0.58,1.11
14.59741497039795,-0.72,-0.24,-0.36,0.84
14.607207775115967,-0.23,-0.25,-0.5,0.6
14.617355823516846,0.24,-0.25,-0.6,0.69
14.62707805633545,0.68,-0.16,-0.36,0.78
14.63730001449585,0.95,-0.08,-0.01,0.95
14.647265911102295,0.76,-0.08,0.15,0.77
14.657197952270508,0.18,-0.12,0.12,0.24
14.68962287902832,-0.24,-0.03,0.14,0.27
14.690056800842285,-0.47,0.22,0.08,0.52
14.690476894378662,-0.64,0.34,0.3,0.78
14.697186946868896,-0.44,0.28,1.13,1.24
14.707164764404297,0.07,0.14,1.35,1.35
14.717116832733154,0.32,0.07,0.93,0.98
14.727254867553711,0.29,0.0,0.65,0.71
14.73706579208374,0.3,0.06,0.26,0.4
14.747143983840942,-0.04,0.1,0.01,0.1
14.757056951522827,-0.13,0.1,-0.04,0.16
14.789590835571289,0.28,0.11,-0.32,0.43
14.790021896362305,0.87,0.18,-0.6,1.07
14.790445804595947,1.32,0.24,-0.47,1.42
14.796880960464478,1.72,0.19,-0.14,1.73
14.806911945343018,2.03,0.04,-0.17,2.03
14.816938877105713,2.19,0.11,-0.03,2.19
14.827229022979736,2.56,0.42,0.23,2.6
14.836910963058472,2.97,0.68,0.34,3.06
14.846981048583984,3.09,0.88,0.4,3.23
14.856798887252808,2.95,1.0,0.14,3.11
14.890481948852539,2.47,0.92,0.06,2.63
14.890905857086182,1.69,0.96,0.12,1.94
14.891350984573364,0.87,1.14,-0.11,1.43
14.896842002868652,0.36,1.4,-0.13,1.45
14.906771898269653,0.29,2.38,0.23,2.4
14.916786909103394,0.52,3.74,-0.51,3.81
14.926768779754639,2.86,5.08,-1.63,6.05
14.936758995056152,2.39,4.93,0.69,5.52
14.946830749511719,3.69,5.4,-0.64,6.57
14.956701755523682,5.15,6.42,-0.66,8.25
14.990336894989014,6.25,6.34,-0.78,8.93
14.990760803222656,5.68,5.72,-1.09,8.13
14.991195917129517,3.87,5.31,-1.37,6.71
14.996723890304565,2.43,4.53,-1.67,5.4
15.006624937057495,1.42,3.56,-1.85,4.25
15.016633033752441,0.62,3.02,-1.59,3.46
15.02646780014038,-0.11,1.54,-1.5,2.15
15.036666870117188,-1.05,-0.53,-1.04,1.57
15.046652793884277,-2.77,-1.29,0.54,3.1
15.056545972824097,-3.18,-1.83,-0.74,3.74
15.090718984603882,-0.26,-1.89,-1.61,2.49
15.091173887252808,4.03,-2.14,-0.6,4.6
15.091922760009766,5.31,-2.18,0.87,5.8
15.09658694267273,1.59,-2.64,1.33,3.35
15.106503009796143,2.25,-2.93,-0.19,3.69
15.116528034210205,4.47,-2.29,-0.15,5.02
15.12644100189209,6.72,-1.99,1.23,7.11
15.136459827423096,7.88,-2.15,2.38,8.5
15.146495819091797,7.74,-2.62,2.79,8.63
15.156414031982422,7.33,-2.72,2.59,8.23
15.191908836364746,7.14,-2.3,1.99,7.76
15.192332983016968,7.07,-1.77,1.45,7.43
15.192752838134766,6.58,-1.38,1.39,6.86
15.196402072906494,5.41,-1.19,1.45,5.72
15.20632290840149,4.06,-0.99,1.25,4.36
15.216466903686523,2.93,-0.77,0.8,3.13
15.226281881332397,2.42,-0.58,0.4,2.52
15.236294984817505,2.2,-0.28,0.38,2.25
15.246320962905884,2.0,0.29,0.43,2.06
15.256301879882812,1.7,1.06,0.27,2.02
15.292441844940186,0.9,1.52,0.03,1.76
15.29286789894104,-0.12,1.66,0.0,1.66
15.293285846710205,-1.11,1.74,0.01,2.06
15.296258926391602,-2.23,1.79,-0.03,2.85
15.306161880493164,-3.36,1.74,-0.31,3.79
15.316167831420898,-3.87,1.64,-0.68,4.25
15.326079845428467,-3.76,1.78,-1.08,4.29
15.336139917373657,-3.25,2.17,-1.47,4.17
15.346220016479492,-2.87,2.72,-1.72,4.31
15.356045961380005,-2.62,3.28,-1.71,4.53
15.392348766326904,-2.6,3.86,-1.62,4.92
15.392778873443604,-2.82,4.15,-1.6,5.26
15.393197059631348,-2.98,3.71,-1.75,5.07
15.396034955978394,-3.23,3.01,-1.6,4.69
15.405994892120361,-3.55,2.22,-1.08,4.32
15.416034936904907,-4.07,1.36,-0.56,4.32
15.425988912582397,-4.59,0.41,-0.23,4.61
15.435970783233643,-4.54,-0.75,-0.28,4.61
15.445942878723145,-4.08,-1.39,-0.52,4.34
15.45583987236023,-3.14,-1.54,-0.52,3.53
15.492434024810791,-1.78,-1.2,-0.33,2.17
15.492861986160278,-0.71,-0.41,-0.31,0.87
15.493290901184082,-0.12,-0.2,-0.4,0.46
15.49593210220337,-0.03,-0.64,-0.45,0.78
15.505897998809814,-0.4,-1.19,-0.42,1.32
15.515882015228271,-1.23,-1.44,-0.45,1.94
15.525917053222656,-2.1,-1.54,-0.55,2.66
15.535820007324219,-2.71,-1.65,-0.72,3.25
15.545707941055298,-2.87,-1.76,-0.99,3.5
15.55574083328247,-2.62,-1.68,-1.17,3.32
15.592362880706787,-2.15,-0.67,-1.14,2.52
15.592789888381958,0.33,5.38,-1.57,5.61
15.59320878982544,2.12,2.73,-1.07,3.61
15.595637798309326,3.32,1.42,-0.27,3.62
15.605641841888428,6.16,1.59,3.63,7.32
15.61558198928833,3.26,-0.09,4.85,5.84
15.625725984573364,-0.35,-0.25,-0.2,0.47
15.635648965835571,-3.07,0.08,-3.15,4.39
15.645624876022339,-3.49,0.86,-2.57,4.41
15.655641078948975,-2.45,0.66,-1.66,3.03
15.692310810089111,-2.11,0.63,-2.02,2.98
15.692738056182861,-1.81,0.77,-1.93,2.75
15.693140029907227,-1.81,0.23,-1.52,2.37
15.695437908172607,-2.11,0.51,-1.37,2.56
15.70551586151123,-3.02,1.73,-0.92,3.59
15.71553087234497,-3.85,3.09,-0.37,4.95
15.725498914718628,-3.93,2.99,0.12,4.93
15.735492944717407,-3.21,0.56,0.3,3.27
15.74541187286377,-3.55,1.86,-0.66,4.06
15.75548505783081,-4.95,0.04,-4.2,6.49
15.792547941207886,-3.99,-0.47,-4.28,5.87
15.792979955673218,-1.48,1.62,-2.11,3.04
15.793399810791016,-0.39,0.14,0.1,0.42
15.795276880264282,-1.22,-1.37,0.97,2.07
15.805222034454346,-2.3,-1.37,0.69,2.76
15.815378904342651,-2.9,-0.74,0.09,2.99
15.82533597946167,-2.9,-0.21,-0.34,2.92
15.835375785827637,-2.55,-0.19,-0.23,2.56
15.8451988697052,-2.32,0.0,-0.24,2.33
15.855285882949829,-2.11,0.53,-0.74,2.29
15.892473936080933,-1.64,0.44,-0.82,1.88
15.892903804779053,-1.22,0.25,-0.54,1.35
15.893325805664062,-0.63,0.1,-0.55,0.84
15.895283937454224,-0.13,-0.05,-0.69,0.7
15.905243873596191,0.08,-0.01,-0.8,0.8
15.915235996246338,-0.11,0.1,-0.91,0.92
15.92516279220581,-0.45,0.13,-1.04,1.14
15.93521785736084,-0.64,-0.04,-1.04,1.22
15.945303916931152,-0.67,-0.12,-0.99,1.2
15.955107927322388,-0.53,-0.1,-0.84,0.99
15.992325782775879,-0.46,-0.13,-0.55,0.72
15.992754936218262,-0.33,-0.17,-0.32,0.49
15.993175983428955,-0.1,-0.2,-0.12,0.25
15.99534797668457,0.04,-0.15,-0.15,0.21
16.005127906799316,0.19,-0.23,-0.48,0.56
16.01502799987793,0.08,-0.45,-0.25,0.52
16.02505087852478,-0.29,-0.33,0.15,0.46
16.03503704071045,-0.46,0.04,0.35,0.57
16.045347929000854,-0.55,0.15,0.63,0.84
16.054978847503662,-0.42,-0.04,0.58,0.71
16.091912984848022,-0.45,-0.24,0.16,0.53
16.092350006103516,-0.59,-0.17,-0.25,0.66
16.092770099639893,-0.4,0.05,-0.47,0.61
16.09487295150757,-0.02,0.01,-0.32,0.32
16.10494589805603,0.37,0.05,-0.49,0.61
16.114948749542236,0.64,0.0,-1.01,1.19
16.12493085861206,0.69,-0.14,-1.13,1.33
16.134917974472046,0.77,-0.08,-0.95,1.22
16.144871950149536,0.98,0.17,-0.92,1.35
16.1547269821167,0.96,0.2,-0.91,1.33
16.192643880844116,0.62,0.14,-0.83,1.04
16.193073749542236,-0.05,0.57,-0.28,0.63
16.193492889404297,-0.38,0.23,0.54,0.69
16.1947340965271,-0.37,-0.31,0.45,0.65
16.20477294921875,-0.23,-0.13,-0.02,0.26
16.2147479057312,-0.24,-0.07,0.19,0.31
16.224652767181396,-0.48,-0.11,0.4,0.63
16.2347629070282,-0.38,0.03,0.35,0.51
16.244725942611694,-0.17,0.04,0.16,0.23
16.254683017730713,-0.24,-0.04,-0.17,0.29
16.29261875152588,-0.34,0.0,-0.56,0.65
16.293048858642578,-0.42,0.04,-0.69,0.8
16.293466091156006,-0.55,-0.07,-0.47,0.72
16.294532775878906,-0.37,0.02,-0.16,0.4
16.30458688735962,0.14,0.06,0.02,0.15
16.314538955688477,0.58,0.02,-0.09,0.58
16.324577808380127,0.67,-0.01,-0.43,0.79
16.33452081680298,0.58,0.03,-0.5,0.76
16.34454584121704,0.41,0.01,-0.19,0.45
16.354386806488037,0.2,-0.02,0.01,0.2
16.392559051513672,0.19,0.04,0.07,0.2
16.39297103881836,0.35,-0.03,0.07,0.35
16.393358945846558,0.42,-0.03,-0.02,0.42
16.39437484741211,0.67,0.06,0.19,0.69
16.40428590774536,1.14,0.0,0.31,1.18
16.41448402404785,1.15,-0.14,0.06,1.16
16.424323081970215,0.24,-0.17,0.14,0.32
16.434407949447632,-0.91,-0.14,0.48,1.03
16.444355964660645,-1.34,-0.09,0.49,1.42
16.454195022583008,-1.15,-0.04,0.1,1.15
16.492960929870605,-0.59,0.05,-0.28,0.65
16.49339199066162,0.03,0.08,-0.4,0.4
16.49380898475647,0.19,0.09,-0.58,0.61
16.494256019592285,-0.02,-0.01,-0.96,0.96
16.504426956176758,-0.5,-0.12,-1.05,1.16
16.51421594619751,-0.7,-0.01,-1.01,1.22
16.524285793304443,-0.46,-0.04,-0.88,0.99
16.53419589996338,-0.28,-0.07,-0.68,0.73
16.54423999786377,-0.04,0.06,-0.49,0.49
16.554178953170776,0.34,0.11,-0.24,0.43
16.59350299835205,0.69,0.03,0.02,0.69
16.593915939331055,0.86,0.03,0.08,0.86
16.59431290626526,0.81,0.08,0.18,0.83
16.594724893569946,0.45,0.1,0.33,0.56
16.60406994819641,-0.01,0.02,0.29,0.29
16.61417293548584,-0.33,-0.09,0.18,0.38
16.624079942703247,-0.39,-0.13,0.07,0.41
16.634191036224365,-0.38,-0.17,-0.16,0.44
16.644022941589355,-0.22,-0.13,-0.26,0.36
16.65406894683838,0.19,-0.05,-0.11,0.22
16.693480968475342,0.82,0.04,0.14,0.83
16.693922996520996,1.52,0.1,0.1,1.52
16.694337844848633,2.33,0.21,0.14,2.34
16.694750785827637,2.99,0.25,0.55,3.05
16.70395588874817,2.71,0.27,0.58,2.78
16.713871002197266,2.13,0.42,0.1,2.17
16.723931789398193,2.17,0.48,0.16,2.22
16.733953952789307,2.48,0.46,0.22,2.53
16.743903875350952,2.46,0.69,0.14,2.55
16.754074096679688,2.45,0.92,0.13,2.62
16.79311490058899,2.67,1.21,0.13,2.93
16.79355478286743,2.75,1.59,0.44,3.2
16.793973922729492,3.47,1.73,0.63,3.92
16.794389963150024,4.06,2.25,-0.17,4.64
16.803850889205933,3.27,4.19,-1.13,5.43
16.813793897628784,3.47,6.14,-1.04,7.12
16.823850870132446,3.54,4.74,1.71,6.15
16.833821773529053,3.0,4.04,0.48,5.05
16.84376287460327,2.29,4.59,-0.4,5.14
16.853798866271973,2.73,5.62,-0.19,6.25
16.893959999084473,5.09,7.09,-0.25,8.73
16.89439105987549,7.1,7.75,-0.8,10.54
16.89480686187744,6.53,6.72,-1.71,9.52
16.89522409439087,4.66,5.57,-2.5,7.68
16.903700828552246,2.56,4.71,-2.19,5.79
16.913403034210205,0.63,3.06,-1.84,3.62
16.923642873764038,-1.26,0.95,-0.81,1.77
16.933634757995605,-3.69,-0.24,0.3,3.7
16.943598985671997,-2.32,-0.53,-0.55,2.44
16.953622817993164,1.48,-1.3,-0.11,1.97
16.99439001083374,6.22,-2.71,0.69,6.81
16.994815826416016,6.63,-3.14,2.22,7.66
16.99523687362671,1.93,-3.68,1.78,4.52
16.995659828186035,2.41,-3.27,0.3,4.07
17.00356888771057,5.09,-2.11,0.55,5.53
17.013338088989258,6.74,-2.2,1.65,7.27
17.02343988418579,6.53,-3.36,2.48,7.75
17.03349995613098,5.52,-4.3,2.84,7.55
17.04344606399536,4.87,-4.43,2.64,7.09
17.05347490310669,4.5,-4.03,2.22,6.43
17.09404993057251,4.11,-3.35,1.75,5.58
17.094477891921997,3.73,-2.8,1.31,4.84
17.09489393234253,3.33,-2.36,0.99,4.19
17.09530997276306,2.96,-2.02,0.78,3.66
17.10337996482849,2.7,-1.72,0.89,3.32
17.113486766815186,2.42,-1.3,1.17,2.98
17.123273849487305,2.2,-0.72,1.18,2.59
17.13323402404785,1.93,0.1,1.05,2.19
17.143252849578857,1.23,0.73,0.83,1.65
17.153284072875977,0.62,1.55,0.37,1.7
17.194381952285767,-0.01,2.6,-0.42,2.63
17.19482183456421,-0.53,3.64,-1.08,3.83
17.19523787498474,-0.82,4.63,-1.15,4.84
17.19566297531128,-1.27,5.18,-0.73,5.38
17.20323896408081,-1.46,4.93,-0.72,5.19
17.213479042053223,-1.14,4.58,-1.03,4.83
17.223114013671875,-1.41,3.88,-1.15,4.28
17.233201026916504,-2.52,2.95,-1.59,4.19
17.243013858795166,-3.51,2.37,-2.14,4.74
17.253153800964355,-4.05,2.17,-2.35,5.16
17.263134956359863,-4.62,2.34,-2.55,5.77
17.29564595222473,-5.42,2.12,-2.96,6.52
17.296072006225586,-6.14,1.02,-2.92,6.87
17.29649782180786,-6.52,-0.71,-2.32,6.95
17.303060054779053,-6.72,-2.05,-2.16,7.35
17.313005924224854,-6.77,-2.32,-2.2,7.48
17.322950839996338,-6.29,-1.98,-2.17,6.94
17.33305597305298,-5.6,-1.54,-2.31,6.25
17.342978954315186,-4.88,-1.32,-2.53,5.65
17.35296893119812,-4.17,-0.89,-2.65,5.02
17.36298394203186,-2.11,4.56,-2.86,5.78
17.3940589427948,0.87,4.08,-1.5,4.43
17.394484996795654,-1.38,-1.09,0.14,1.76
17.394901752471924,-1.6,-1.61,0.75,2.39
17.402795791625977,1.32,-0.62,0.82,1.67
17.412778854370117,4.52,0.51,2.92,5.4
17.422760009765625,5.09,-0.18,3.58,6.22
17.432817935943604,3.86,0.15,-0.49,3.89
17.442739963531494,0.94,1.07,-2.76,3.1
17.452775955200195,-0.36,1.09,-1.8,2.13
17.462710857391357,1.06,1.38,-1.57,2.34
17.493621826171875,0.71,2.0,-2.53,3.3
17.494050979614258,-1.94,3.9,-2.87,5.21
17.494467973709106,-5.45,4.97,-2.68,7.84
17.502729892730713,-5.94,3.97,-3.08,7.78
17.512622833251953,-3.82,5.17,-3.92,7.52
17.522653102874756,-5.04,0.44,-6.16,7.97
17.532711029052734,-3.49,-2.3,-2.03,4.64
17.542670965194702,-2.82,-3.37,2.17,4.9
17.55268692970276,-4.6,-3.64,0.07,5.86
17.562599897384644,-4.76,-0.9,-3.28,5.85
17.59432291984558,-1.88,0.18,-1.77,2.58
17.594748973846436,-0.19,-0.84,0.29,0.9
17.5951509475708,-0.43,-0.72,0.29,0.88
17.60253381729126,-1.3,-0.01,1.04,1.66
17.61254096031189,-1.95,0.92,1.22,2.47
17.622591972351074,-0.44,0.83,-0.27,0.97
17.63262176513672,0.26,-0.36,0.3,0.53
17.64249086380005,-0.53,-0.94,1.21,1.62
17.652506828308105,-2.27,-0.78,1.1,2.64
17.662511825561523,-4.08,-0.51,0.79,4.18
17.69935894012451,-4.7,-0.37,0.52,4.74
17.69978380203247,-3.91,-0.26,0.29,3.92
17.700206756591797,-2.01,-0.25,-0.01,2.02
17.702440977096558,-0.67,-0.3,-0.32,0.8
17.71234893798828,-0.43,-0.16,-0.48,0.66
17.72235679626465,-0.15,0.06,-0.38,0.41
17.732441902160645,-0.02,0.35,-0.06,0.35
17.7423357963562,0.05,0.51,-0.05,0.51
17.781707763671875,0.09,0.35,-0.5,0.61
17.782521963119507,-0.18,0.06,-1.08,1.09
17.78294587135315,-0.61,-0.02,-1.21,1.35
17.783362865447998,-1.06,0.01,-1.18,1.58
17.792234897613525,-1.38,-0.01,-0.87,1.63
17.8022518157959,-1.42,-0.11,-0.75,1.6
17.81215190887451,-1.3,-0.1,-0.57,1.42
17.822086811065674,-1.26,-0.08,-0.48,1.35
17.83223295211792,-1.09,-0.12,-0.4,1.16
17.842147827148438,-0.67,-0.13,-0.22,0.71
17.883410930633545,-0.64,0.01,-0.02,0.64
17.88384485244751,-0.41,-0.08,-0.53,0.67
17.884263038635254,-0.34,-0.01,-1.11,1.16
17.884681940078735,-0.1,-0.17,-1.06,1.07
17.892077922821045,0.19,-0.21,-0.94,0.98
17.90206003189087,0.4,-0.06,-0.68,0.79
17.911934852600098,0.64,0.18,-0.5,0.83
17.922059059143066,0.6,0.16,-0.73,0.95
17.932010889053345,0.7,0.05,-1.02,1.23
17.941938877105713,0.82,0.02,-0.86,1.18
17.983601093292236,0.79,-0.03,-0.55,0.96
17.98401689529419,1.0,-0.03,-0.14,1.01
17.984416007995605,0.9,0.0,0.52,1.03
17.984830856323242,0.15,-0.06,0.78,0.79
17.991894960403442,-0.21,0.15,0.94,0.97
18.00191879272461,0.1,-0.05,0.88,0.88
18.011744022369385,0.37,-0.29,0.41,0.62
18.02192783355713,0.44,-0.08,0.51,0.67
18.031972885131836,0.53,0.11,0.33,0.63
18.041950941085815,0.6,0.04,-0.79,0.99
18.083225965499878,0.91,-0.14,-1.3,1.59
18.08365797996521,0.68,-0.15,-1.52,1.67
18.084075927734375,0.1,-0.01,-1.33,1.33
18.084495067596436,0.08,0.09,-0.57,0.58
18.091755867004395,0.26,0.05,-0.07,0.27
18.101741790771484,0.2,0.0,0.11,0.22
18.111746788024902,0.31,0.01,0.19,0.36
18.1218318939209,0.44,-0.11,0.15,0.47
18.131592750549316,0.09,-0.07,-0.19,0.22
18.141721963882446,-0.23,-0.09,-0.41,0.47
18.18222689628601,-0.48,-0.12,-0.32,0.58
18.182657957077026,-0.56,-0.08,-0.33,0.65
18.183058977127075,-0.37,0.05,-0.33,0.49
18.183461904525757,-0.29,0.09,-0.2,0.36
18.191534996032715,-0.31,-0.06,-0.21,0.37
18.201618909835815,-0.1,-0.05,-0.08,0.13
18.2115478515625,0.21,-0.01,-0.13,0.24
18.22156286239624,0.31,0.01,-0.29,0.42
18.23152208328247,0.21,0.07,-0.49,0.53
18.241543769836426,0.22,0.06,-0.44,0.49
18.282327890396118,0.06,-0.03,-0.26,0.26
18.282763957977295,-0.12,-0.09,-0.24,0.28
18.28318500518799,-0.2,-0.02,0.15,0.25
18.28360390663147,-0.26,0.0,0.55,0.6
18.291412830352783,-0.01,0.07,0.81,0.81
18.301503896713257,0.61,0.2,0.51,0.81
18.311439037322998,0.93,0.17,0.41,1.03
18.321488857269287,1.1,0.23,0.05,1.12
18.331489086151123,1.2,0.15,-0.32,1.25
18.341394901275635,1.14,0.13,-0.27,1.17
18.382489919662476,1.22,0.11,-0.32,1.26
18.38291883468628,1.39,0.06,-0.28,1.41
18.383336067199707,1.48,0.11,0.19,1.49
18.38375496864319,1.36,0.24,0.96,1.68
18.391268968582153,1.17,0.4,1.64,2.05
18.40131187438965,1.22,0.56,1.78,2.22
18.411221027374268,1.47,0.64,1.65,2.3
18.4212749004364,1.64,0.62,1.12,2.08
18.431230068206787,1.63,0.54,0.63,1.82
18.44108009338379,1.23,0.43,-0.05,1.3
18.482505798339844,0.77,0.41,-1.43,1.67
18.482939958572388,0.16,2.0,-1.07,2.27
18.483361959457397,1.31,3.64,-0.05,3.86
18.48378086090088,2.43,3.34,0.71,4.19
18.491029977798462,2.53,3.08,-0.34,4.0
18.50118088722229,2.06,3.18,-0.77,3.86
18.51098394393921,2.28,3.48,-0.98,4.27
18.521092891693115,3.55,4.02,-1.69,5.62
18.531094074249268,5.63,5.01,-2.11,7.82
18.54108476638794,7.74,5.28,-2.21,9.62
18.582664012908936,7.36,4.17,-2.33,8.77
18.583093881607056,4.4,2.91,-2.66,5.9
18.583510875701904,1.87,2.29,-2.47,3.85
18.583930015563965,0.91,1.81,-1.49,2.51
18.59094476699829,0.96,1.18,-1.33,2.02
18.60165500640869,0.65,0.59,-0.79,1.18
18.610948085784912,-0.67,-0.48,0.05,0.82
18.620984077453613,-0.87,0.38,0.16,0.96
18.630921840667725,3.71,0.07,0.1,3.71
18.640955924987793,5.96,-0.71,1.67,6.23
18.682976961135864,4.05,-0.91,2.22,4.7
18.683412075042725,3.45,-0.89,1.28,3.78
18.683828830718994,7.6,-0.52,1.29,7.72
18.684247970581055,10.13,-0.15,3.33,10.66
18.690866947174072,9.42,-0.97,4.36,10.42
18.70085096359253,7.61,-1.53,4.01,8.73
18.710718870162964,6.47,-1.37,3.14,7.32
18.72093677520752,5.86,-1.09,2.54,6.47
18.730754852294922,5.16,-0.98,2.25,5.71
18.74078607559204,4.42,-0.84,2.09,4.96
18.78275203704834,3.67,-0.64,1.95,4.2
18.78318691253662,3.09,-0.36,1.86,3.62
18.783609867095947,2.88,0.11,1.74,3.36
18.784034967422485,2.53,0.72,1.56,3.05
18.79063391685486,1.94,1.28,1.32,2.67
18.80073308944702,1.63,1.8,0.92,2.59
18.810707092285156,1.49,2.32,0.16,2.76
18.820653915405273,1.7,2.63,-0.79,3.22
18.830585956573486,-0.97,3.4,-0.45,3.56
18.840585947036743,-2.83,3.39,-0.88,4.5
18.882598876953125,-3.55,3.83,-1.36,5.39
18.8830349445343,-3.41,4.14,-1.71,5.62
18.88346791267395,-2.64,3.95,-1.72,5.05
18.883893966674805,-2.47,3.51,-1.4,4.51
18.89055895805359,-2.59,3.28,-1.47,4.43
18.90066909790039,-2.94,2.49,-1.91,4.3
18.91048288345337,-3.11,2.33,-2.32,4.52
18.920532941818237,-2.64,2.5,-2.2,4.24
18.930728912353516,-2.36,1.43,-1.94,3.37
18.940465927124023,-2.53,0.31,-1.96,3.21
18.983033895492554,-2.88,-0.46,-2.11,3.59
18.983479022979736,-3.67,-0.91,-2.48,4.52
18.983901977539062,-4.99,-1.23,-3.15,6.02
18.98431897163391,-6.15,-1.69,-3.76,7.4
18.99030876159668,-6.8,-2.04,-3.81,8.05
19.000417947769165,-7.06,-1.92,-3.66,8.18
19.01035976409912,-6.49,-2.07,-3.35,7.59
19.02034091949463,-5.83,-2.0,-3.17,6.93
19.030298948287964,-5.27,-2.01,-3.16,6.46
19.040303945541382,-4.72,-2.06,-3.16,6.04
19.082658767700195,-3.42,2.25,-3.35,5.28
19.08311700820923,0.94,10.63,-2.74,11.01
19.08354377746582,5.01,2.77,-1.67,5.96
19.08397388458252,12.36,-0.49,6.26,13.86
19.09016180038452,10.31,-2.03,12.26,16.14
19.100136756896973,1.77,-1.93,2.11,3.36
19.110023975372314,-4.64,-0.83,-3.67,5.97
19.12018895149231,-3.81,0.81,0.06,3.89
19.130148887634277,-1.59,2.03,2.37,3.5
19.140116930007935,-2.29,3.6,-0.39,4.28
19.1837739944458,-5.74,4.47,-1.91,7.52
19.184199810028076,-7.39,4.55,-2.87,9.14
19.184639930725098,-5.89,3.61,-4.34,8.15
19.185391902923584,-2.42,0.83,-4.43,5.11
19.190014839172363,-0.98,-0.92,-2.8,3.1
19.200007915496826,-1.62,-1.47,-1.78,2.82
19.210038900375366,-2.62,-0.18,-1.76,3.16
19.220043897628784,-3.74,-0.62,-4.21,5.66
19.229948043823242,-2.42,0.46,-5.2,5.75
19.24002194404602,-1.31,0.67,-3.49,3.78
19.283612966537476,-2.47,-1.57,-1.73,3.39
19.284044981002808,-3.11,-2.11,-0.27,3.76
19.284493923187256,-1.08,-0.7,1.98,2.36
19.285225868225098,0.86,-0.09,1.95,2.13
19.289857864379883,1.36,0.54,0.27,1.48
19.29963994026184,1.24,1.02,-1.17,1.98
19.310043811798096,-0.42,0.3,-0.52,0.73
19.319852828979492,-2.13,-0.45,0.48,2.22
19.329818964004517,-3.46,-0.49,0.85,3.59
19.339818954467773,-4.59,-0.33,0.92,4.69
19.38425087928772,-5.03,-0.57,0.41,5.07
19.385003089904785,-4.25,-0.43,-0.45,4.29
19.3854238986969,-2.89,-0.13,-0.6,2.95
19.38583993911743,-2.38,-0.29,-0.52,2.45
19.389689922332764,-1.67,-0.04,-0.68,1.8
19.39956498146057,-1.07,0.23,-0.83,1.37
19.409640789031982,-0.87,0.07,-0.88,1.23
19.41977095603943,-0.78,0.03,-0.75,1.08
19.429659843444824,-0.69,0.11,-0.89,1.13
19.43977689743042,-0.83,-0.05,-1.18,1.44
19.484206914901733,-1.0,-0.18,-1.22,1.58
19.48494005203247,-0.99,-0.18,-0.96,1.39
19.485346794128418,-0.87,-0.17,-0.72,1.14
19.48576307296753,-0.77,-0.2,-0.54,0.96
19.489547967910767,-0.61,-0.18,-0.43,0.76
19.499642848968506,-0.45,-0.13,-0.36,0.59
19.509445905685425,-0.53,-0.05,-0.15,0.55
19.51948881149292,-0.66,-0.11,0.05,0.67
19.529496908187866,-0.53,-0.1,0.11,0.55
19.539462089538574,-0.33,0.13,0.05,0.35
19.5848069190979,-0.1,0.25,0.4,0.48
19.58543300628662,0.11,0.08,0.36,0.38
19.58584976196289,0.33,-0.01,-0.18,0.37
19.586275100708008,0.26,-0.21,-0.57,0.66
19.59031891822815,-0.09,-0.14,-0.87,0.88
19.59975290298462,-0.1,-0.03,-0.71,0.71
19.60930109024048,-0.13,-0.08,-0.65,0.66
19.619464874267578,-0.14,-0.1,-0.72,0.74
19.62931990623474,0.08,0.04,-0.84,0.84
19.639302968978882,0.4,-0.05,-1.29,1.35
19.64934206008911,0.88,-0.2,-1.34,1.61
19.685693979263306,1.49,0.03,-1.3,1.97
19.68611478805542,1.71,-0.18,-0.13,1.72
19.68653106689453,1.33,-0.2,-0.67,1.5
19.689303874969482,0.97,-0.09,-1.75,2.0
19.69920301437378,0.82,-0.29,-2.02,2.19
19.709075927734375,0.58,-0.49,-1.63,1.79
19.719265937805176,0.3,-0.12,-0.95,1.0
19.729225873947144,-0.02,0.22,-0.12,0.25
19.739250898361206,-0.12,0.18,0.33,0.39
19.749252796173096,-0.02,0.07,0.43,0.43
19.785139083862305,0.09,0.01,0.31,0.32
19.785566806793213,0.07,0.03,0.54,0.54
19.785985946655273,-0.08,0.15,0.76,0.77
19.78908681869507,-0.17,0.12,0.86,0.88
19.799057006835938,-0.14,0.08,0.69,0.7
19.80912208557129,0.05,-0.02,0.41,0.41
19.81912088394165,-0.07,-0.12,0.22,0.26
19.82904577255249,-0.31,-0.07,0.16,0.35
19.839065074920654,-0.24,-0.05,0.31,0.39
19.849091053009033,0.06,-0.01,0.0,0.06
19.88530683517456,0.41,-0.09,-0.25,0.48
19.885740756988525,0.53,-0.08,-0.28,0.6
19.88615894317627,0.36,0.01,-0.06,0.36
19.88895082473755,0.24,0.05,-0.01,0.24
19.89898109436035,0.55,0.12,-0.03,0.56
19.90891981124878,0.66,0.09,0.51,0.83
19.91892695426941,0.55,-0.04,0.63,0.83
19.928929805755615,0.56,-0.11,0.1,0.57
19.938894987106323,0.5,-0.01,-0.15,0.52
19.94882893562317,0.28,0.0,-0.09,0.29
19.984950065612793,-0.03,-0.04,0.15,0.15
19.98536992073059,-0.12,0.01,0.15,0.19
19.98577094078064,-0.06,0.03,0.02,0.06
19.98873805999756,-0.05,0.14,-0.22,0.26
19.998745918273926,0.05,0.24,-0.25,0.35
20.008769989013672,0.34,0.22,0.01,0.4
20.01881504058838,0.77,0.2,0.23,0.82
20.02879285812378,1.71,0.19,0.26,1.74
20.038758754730225,2.59,0.03,0.38,2.61
20.04865288734436,3.16,-0.09,0.41,3.18
20.08526587486267,3.63,-0.01,0.22,3.63
20.085693836212158,3.9,0.22,0.48,3.93
20.086108922958374,4.33,0.45,0.67,4.4
20.088634967803955,4.09,0.85,0.45,4.2
20.098634958267212,3.38,1.23,0.44,3.62
20.10847806930542,2.48,1.33,0.39,2.84
20.11863398551941,1.58,1.42,0.11,2.12
20.128516912460327,0.88,1.39,0.12,1.64
20.138569831848145,-0.26,2.68,-0.13,2.69
20.14852809906006,0.13,5.62,-1.41,5.79
20.18518590927124,1.62,6.19,-0.13,6.39
20.185616970062256,3.05,5.87,-0.33,6.62
20.186035871505737,4.56,5.81,-1.36,7.5
20.188395023345947,5.8,5.24,-1.08,7.89
20.198389053344727,5.98,3.91,-0.63,7.17
20.20828676223755,4.13,3.41,-0.87,5.42
20.218453884124756,2.32,2.95,-0.99,3.88
20.228469848632812,1.05,2.26,-0.83,2.62
20.238429069519043,-0.04,1.35,-0.55,1.45
20.248398780822754,0.1,0.1,-0.24,0.27
20.28502893447876,1.15,-0.48,0.84,1.5
20.28545904159546,1.4,-0.38,2.51,2.89
20.285876750946045,-0.5,-0.96,3.13,3.31
20.288357973098755,-0.98,-1.65,2.37,3.04
20.298285961151123,3.61,-1.33,0.97,3.96
20.30830693244934,8.84,-0.36,2.17,9.1
20.31829309463501,9.67,-0.85,4.13,10.54
20.328250885009766,8.86,-1.4,4.22,9.91
20.338287830352783,8.03,-1.63,3.52,8.91
20.348267078399658,7.28,-1.3,2.91,7.94
20.385581016540527,6.29,-1.07,2.47,6.84
20.386008977890015,5.28,-1.0,2.05,5.75
20.386428833007812,4.35,-0.76,1.48,4.65
20.38813304901123,3.48,-0.45,1.13,3.68
20.398108959197998,2.92,-0.14,1.06,3.1
20.408143043518066,2.43,0.29,0.88,2.6
20.418004035949707,1.77,0.81,0.56,2.02
20.42809796333313,0.77,1.28,-0.04,1.49
20.43817901611328,-0.36,1.66,-0.7,1.83
20.44811201095581,-1.45,1.9,-1.29,2.71
20.486088752746582,-2.1,2.27,-1.74,3.54
20.486519813537598,-2.32,2.57,-1.95,3.97
20.486937999725342,-2.34,2.55,-1.9,3.94
20.487918853759766,-2.05,2.43,-2.13,3.82
20.497968912124634,-1.67,2.2,-2.06,3.44
20.507904052734375,-2.2,2.14,-1.68,3.49
20.51774287223816,-2.99,1.41,-1.57,3.65
20.52790403366089,-2.86,1.0,-1.61,3.43
20.537972927093506,-2.77,0.79,-1.38,3.19
20.547907829284668,-2.88,0.49,-0.98,3.08
20.585238933563232,-3.09,0.06,-0.83,3.2
20.58567190170288,-3.14,-0.27,-0.95,3.29
20.58609104156494,-2.77,-0.55,-1.04,3.0
20.58782386779785,-2.21,-0.91,-0.82,2.52
20.59784984588623,-1.84,-1.18,-0.61,2.26
20.607764959335327,-1.64,-1.06,-0.78,2.1
20.6176700592041,-1.27,-0.62,-1.1,1.79
20.627795934677124,-0.85,-0.45,-1.13,1.48
20.637820959091187,-1.18,-0.68,-0.94,1.65
20.647746086120605,-2.78,-0.8,-1.26,3.15
20.687115907669067,-4.42,-1.26,-1.67,4.89
20.687586784362793,-5.18,-1.39,-1.67,5.61
20.687992095947266,-5.42,-1.44,-1.7,5.86
20.68840980529785,-5.35,-1.47,-2.09,5.92
20.697601795196533,-5.3,-1.31,-2.23,5.89
20.70767307281494,-5.36,-1.09,-2.49,6.0
20.717735767364502,-5.28,0.93,-3.19,6.23
20.72760796546936,-2.47,6.18,-4.34,7.94
20.737648010253906,0.26,1.9,-2.91,3.48
20.747655868530273,3.68,2.12,2.1,4.73
20.787434101104736,6.75,-0.24,6.67,9.49
20.787871837615967,4.77,-2.77,1.67,5.76
20.788294792175293,1.61,-1.27,-3.11,3.72
20.788715839385986,0.38,1.52,-2.76,3.17
20.79747486114502,0.52,2.98,-0.38,3.04
20.807504892349243,0.26,3.39,-0.38,3.42
20.817824840545654,-1.42,4.82,-1.56,5.26
20.82747507095337,-3.55,5.46,-1.37,6.65
20.837467908859253,-6.39,4.11,-2.02,7.86
20.8475399017334,-6.33,2.33,-3.0,7.38
20.886411905288696,-4.17,0.79,-2.74,5.05
20.886850833892822,-1.67,-1.11,-2.09,2.89
20.8873028755188,0.72,-2.38,-1.03,2.69
20.887727975845337,0.47,-1.58,-1.15,2.0
20.89732599258423,-2.91,-1.77,-3.6,4.95
20.907434940338135,-4.69,0.35,-4.2,6.3
20.917219877243042,-4.49,1.2,-2.32,5.19
20.92728900909424,-3.82,0.04,-0.76,3.89
20.937328815460205,-3.03,0.48,-0.75,3.15
20.947227001190186,-0.94,0.97,-1.17,1.78
20.986977100372314,0.36,-0.25,-0.18,0.47
20.987404823303223,1.09,-1.31,0.67,1.83
20.987823009490967,0.61,-1.39,1.04,1.84
20.988243103027344,-0.45,-0.78,0.58,1.07
20.997206926345825,-1.44,-0.15,0.46,1.51
21.007240772247314,-2.25,-0.05,0.53,2.31
21.017138957977295,-2.32,-0.36,0.22,2.35
21.027105808258057,-1.73,-0.42,-0.33,1.81
21.03711700439453,-1.37,-0.39,-0.48,1.5
21.047107934951782,-1.35,-0.42,-0.49,1.49
21.086997985839844,-1.72,-0.05,-0.2,1.73
21.08742904663086,-2.47,0.44,0.57,2.57
21.087846755981445,-3.01,0.16,0.77,3.11
21.08826208114624,-2.95,-0.22,0.35,2.97
21.096965789794922,-1.87,-0.12,-0.03,1.87
21.107038021087646,-0.86,-0.27,-0.33,0.95
21.117028951644897,-0.4,-0.1,-0.68,0.79
21.12697696685791,-0.33,0.07,-0.75,0.82
21.136997938156128,-0.16,0.07,-0.74,0.76
21.146951913833618,0.0,0.07,-1.06,1.06
21.186861991882324,0.09,0.01,-1.51,1.51
21.187297821044922,-0.19,0.09,-2.23,2.23
21.18771982192993,-0.3,-0.05,-2.38,2.39
21.188136100769043,-0.16,-0.28,-1.23,1.27
21.19686198234558,-0.01,0.07,-0.62,0.62
21.206917762756348,0.2,0.16,-0.21,0.33
21.21682095527649,0.11,0.05,-0.19,0.22
21.226792812347412,-0.03,0.05,-0.89,0.89
21.236815929412842,0.05,-0.27,-1.13,1.16
21.24677801132202,0.36,-0.45,-0.6,0.83
21.287548065185547,0.46,-0.14,0.05,0.48
21.287982940673828,0.02,0.04,0.51,0.51
21.28841209411621,-0.62,0.13,0.65,0.9
21.288836002349854,-0.8,0.23,0.55,0.99
21.296688079833984,-0.59,-0.02,0.5,0.77
21.306790828704834,-0.38,-0.17,0.52,0.66
21.316651821136475,-0.18,-0.1,0.34,0.39
21.326653957366943,-0.17,-0.11,0.22,0.29
21.33665895462036,-0.33,-0.03,-0.22,0.39
21.34663200378418,-0.39,0.19,-0.68,0.8
21.38701295852661,-0.19,0.13,-0.61,0.65
21.38744878768921,-0.05,-0.01,-0.57,0.57
21.387878894805908,0.13,-0.03,-0.37,0.39
21.388298988342285,0.02,0.07,0.03,0.07
21.396567821502686,-0.16,0.09,-0.08,0.2
21.406551837921143,-0.15,-0.04,-0.56,0.58
21.41647696495056,0.2,-0.02,-1.09,1.1
21.426503896713257,0.79,-0.08,-0.87,1.17
21.436611890792847,1.13,-0.1,-0.11,1.13
21.44649076461792,1.15,0.0,0.35,1.2
21.487510919570923,1.12,0.02,0.47,1.21
21.48793601989746,0.99,-0.06,0.51,1.11
21.488354921340942,0.51,-0.07,0.08,0.52
21.48878002166748,0.07,-0.04,-0.41,0.41
21.496357917785645,-0.14,0.02,-0.49,0.51
21.50639581680298,-0.25,0.03,-0.31,0.39
21.516234874725342,0.0,0.06,-0.21,0.21
21.526343822479248,0.18,0.04,-0.26,0.31
21.536355018615723,0.37,0.03,-0.51,0.63
21.546390056610107,0.39,0.02,-0.51,0.64
21.5868399143219,0.01,-0.01,-0.61,0.61
21.58727192878723,-0.58,0.05,-0.75,0.94
21.587692975997925,-0.96,0.1,-0.56,1.11
21.58811092376709,-0.94,0.09,-0.45,1.04
21.596291065216064,-0.7,0.06,-0.04,0.7
21.606189966201782,-0.11,-0.01,0.35,0.36
21.616239070892334,0.57,-0.11,0.52,0.77
21.62617588043213,1.04,-0.14,0.52,1.17
21.636259078979492,1.19,-0.08,0.49,1.28
21.646172046661377,1.06,-0.02,0.68,1.25
21.687632083892822,0.74,0.06,0.84,1.12
21.68805694580078,0.57,0.1,0.69,0.9
21.6884708404541,0.51,0.14,0.1,0.53
21.68888807296753,0.46,0.2,-0.67,0.83
21.69606876373291,0.7,0.26,-1.21,1.42
21.706055879592896,1.28,0.24,-1.17,1.75
21.715985774993896,1.88,0.22,-0.85,2.07
21.726013898849487,2.3,0.29,-0.7,2.42
21.735898971557617,2.48,0.25,-0.51,2.54
21.745978832244873,2.32,0.2,-0.18,2.33
21.786581993103027,2.13,0.26,0.14,2.15
21.787015914916992,2.12,0.41,0.44,2.2
21.78742790222168,2.18,0.52,0.77,2.36
21.787840843200684,2.29,0.5,1.04,2.56
21.795955896377563,2.47,0.77,1.22,2.86
21.805901050567627,2.63,0.97,0.77,2.9
21.81589388847351,1.81,1.39,-0.69,2.38
21.82589292526245,0.03,2.63,-1.03,2.82
21.835753917694092,-0.1,2.99,-0.41,3.01
21.845823764801025,0.85,2.04,1.03,2.43
21.886974811553955,0.96,1.15,0.69,1.64
21.887409925460815,1.0,1.19,0.82,1.75
21.887841939926147,1.32,1.5,0.75,2.13
21.888267993927002,1.92,1.89,0.64,2.76
21.895777940750122,2.63,2.42,0.6,3.62
21.905829906463623,3.52,3.24,0.7,4.83
21.915688037872314,4.69,4.46,0.72,6.51
21.925736904144287,6.0,5.66,0.73,8.28
21.93571710586548,5.97,6.2,0.66,8.63
21.945698976516724,4.78,6.53,0.07,8.09
21.98713994026184,4.03,6.96,-0.34,8.04
21.987574100494385,3.53,6.84,-0.85,7.74
21.98799180984497,2.39,5.9,-1.25,6.48
21.98841691017151,1.05,4.08,-1.64,4.52
21.995580911636353,-0.36,3.25,-0.19,3.27
22.00566291809082,-2.79,2.6,0.0,3.81
22.01556396484375,-2.55,0.38,-2.01,3.26
22.025577068328857,2.15,-1.78,-1.84,3.34
22.035799026489258,7.86,-3.4,0.0,8.56
22.04553985595703,7.35,-3.16,3.09,8.57
22.087251901626587,4.63,-3.5,2.25,6.22
22.087682962417603,5.81,-3.07,1.02,6.64
22.08810806274414,7.32,-2.62,2.28,8.1
22.0885329246521,9.25,-3.11,3.29,10.29
22.0953950881958,9.3,-3.47,3.68,10.58
22.10550093650818,8.34,-3.55,3.45,9.69
22.115530967712402,7.38,-3.31,3.07,8.65
22.125452041625977,6.6,-2.75,2.94,7.73
22.135334014892578,6.2,-2.33,2.78,7.18
22.145230770111084,5.8,-2.03,2.48,6.62
22.186701774597168,4.96,-1.58,2.65,5.84
22.187134981155396,3.94,-0.49,2.81,4.86
22.187553882598877,2.91,0.98,2.22,3.78
22.18797206878662,2.42,2.61,1.01,3.69
22.195297956466675,1.72,4.24,0.15,4.57
22.20530891418457,0.65,5.61,-0.73,5.69
22.21523094177246,-0.97,6.52,-1.66,6.79
22.22523593902588,-2.97,6.48,-1.95,7.39
22.235203981399536,-5.17,6.03,-2.34,8.28
22.245131015777588,-6.62,5.92,-3.2,9.43
22.28765892982483,-6.52,5.66,-3.79,9.42
22.288093090057373,-5.74,5.06,-4.13,8.69
22.288519859313965,-5.26,3.99,-5.07,8.32
22.288949966430664,-5.07,2.27,-5.77,8.0
22.295118808746338,-5.48,0.65,-5.42,7.73
22.3051438331604,-6.48,-0.13,-4.88,8.11
22.315072059631348,-7.43,-1.91,-3.76,8.54
22.325210094451904,-8.01,-3.79,-2.73,9.27
22.33509087562561,-8.04,-4.47,-2.58,9.55
22.344955921173096,-7.25,-4.14,-2.61,8.74
22.385539054870605,-5.92,-3.41,-2.81,7.38
22.38633394241333,-4.43,-2.77,-3.03,6.03
22.3867449760437,-3.02,-2.27,-3.03,4.84
22.387171983718872,-1.88,-2.1,-2.85,4.0
22.394993782043457,-2.27,-2.17,-2.73,4.16
22.40495991706848,-4.06,-2.1,-3.0,5.46
22.414952754974365,-4.81,4.51,-2.92,7.21
22.42494487762451,3.53,4.6,-4.58,7.38
22.434943914413452,11.19,5.13,1.89,12.45
22.44477081298828,15.46,3.16,17.31,23.42
22.485066890716553,8.41,-0.57,9.19,12.47
22.4854998588562,-2.0,-0.93,-3.94,4.51
22.486259937286377,-6.95,-1.33,-6.55,9.64
22.486687898635864,-5.45,1.92,-3.56,6.78
22.494831085205078,-3.2,4.9,-3.57,6.85
22.504919052124023,-3.58,6.38,-2.17,7.63
22.51475477218628,-5.99,5.43,-1.15,8.16
22.524874925613403,-5.37,0.91,-1.36,5.61
22.534734964370728,-2.57,-2.08,-1.4,3.59
22.544723987579346,-2.66,-0.98,-2.53,3.79
22.585656881332397,-2.95,0.47,-7.03,7.63
22.586430072784424,-4.94,-0.65,-9.69,10.89
22.58686089515686,-4.43,1.49,-4.96,6.81
22.587289810180664,-3.34,0.56,0.58,3.43
22.59466290473938,-3.42,-1.44,2.05,4.23
22.60471796989441,-3.38,-1.31,0.02,3.62
22.614629983901978,-1.96,0.97,-1.29,2.53
22.624687910079956,-0.59,0.86,-0.4,1.11
22.63456392288208,-0.51,-0.59,0.9,1.19
22.64450979232788,-0.53,-0.82,0.64,1.16
22.68561291694641,-0.99,-0.4,0.21,1.08
22.686047077178955,-1.16,-0.46,0.83,1.49
22.686848878860474,-1.38,-0.6,1.08,1.85
22.687265872955322,-1.69,-0.38,0.67,1.85
22.694509983062744,-1.96,-0.41,0.36,2.03
22.70438575744629,-2.5,-0.35,0.13,2.52
22.714428901672363,-3.13,-0.11,0.04,3.13
22.724477767944336,-3.44,0.14,0.22,3.44
22.734421968460083,-3.07,0.12,0.22,3.08
22.744327068328857,-2.11,-0.08,0.16,2.11
22.786248922348022,-1.17,-0.16,-0.05,1.18
22.78667688369751,-0.62,-0.07,-0.22,0.66
22.78709602355957,-0.22,-0.09,-0.31,0.39
22.787513971328735,-0.26,0.04,-0.32,0.41
22.79440689086914,-0.6,0.24,0.04,0.64
22.80433702468872,-1.09,0.02,0.82,1.36
22.814283847808838,-1.09,-0.15,0.57,1.23
22.824323892593384,-0.55,0.03,-0.71,0.89
22.83427095413208,-0.08,-0.15,-0.96,0.97
22.844336986541748,-0.07,-0.33,-0.32,0.46
22.88698387145996,-0.38,0.0,-0.07,0.38
22.88741397857666,0.08,0.04,-0.02,0.09
22.88783097267151,0.8,-0.06,-0.36,0.87
22.88824701309204,0.78,-0.13,-0.89,1.19
22.89422082901001,0.38,-0.1,-1.2,1.26
22.904170036315918,0.01,0.06,-1.22,1.22
22.914138793945312,-0.33,0.34,-0.99,1.09
22.924216985702515,-0.46,0.33,-0.14,0.58
22.93413209915161,-0.37,0.05,-0.12,0.39
22.944146871566772,-0.47,-0.2,-0.55,0.75
22.98623275756836,-0.45,-0.04,-0.23,0.5
22.987030029296875,-0.43,-0.01,0.32,0.53
22.98745584487915,-0.34,0.14,0.61,0.71
22.987891912460327,-0.11,0.02,0.37,0.38
22.993989944458008,0.18,-0.15,-0.65,0.69
23.003840923309326,0.14,-0.26,-1.18,1.21
23.01386785507202,-0.04,-0.22,-0.95,0.97
23.024077892303467,-0.09,-0.04,-0.81,0.81
23.034029960632324,0.07,-0.08,-0.72,0.72
23.044070959091187,0.6,-0.09,-0.87,1.06
23.087442874908447,1.41,-0.19,-0.77,1.61
23.08787202835083,1.69,-0.33,-0.45,1.77
23.088314056396484,1.31,-0.08,0.01,1.31
23.08903980255127,0.94,0.07,0.25,0.97
23.093862056732178,0.81,-0.17,-0.39,0.91
23.103713989257812,0.64,-0.32,-0.93,1.17
23.113987922668457,0.22,-0.04,-0.74,0.77
23.12379503250122,-0.12,0.31,0.12,0.35
23.133903980255127,0.19,0.17,0.82,0.85
23.14388608932495,0.5,0.05,0.26,0.56
23.186888933181763,0.33,0.15,-0.1,0.37
23.187314987182617,0.01,0.03,0.03,0.04
23.187742948532104,-0.18,-0.08,0.12,0.23
23.188158988952637,-0.36,0.01,0.04,0.36
23.19375991821289,-0.53,-0.08,-0.23,0.58
23.203638076782227,-0.55,-0.02,-0.38,0.66
23.21365189552307,-0.53,0.0,-0.35,0.63
23.223690032958984,-0.4,0.01,-0.42,0.58
23.233637809753418,-0.29,0.0,-0.62,0.68
23.24366283416748,0.06,0.02,-0.56,0.56
23.286725997924805,0.34,0.08,-0.32,0.47
23.287150859832764,0.31,0.0,-0.25,0.39
23.28757095336914,0.17,0.03,-0.29,0.33
23.288005828857422,0.21,-0.02,-0.28,0.35
23.293580055236816,0.29,-0.09,-0.31,0.43
23.303661823272705,0.12,0.03,-0.24,0.26
23.31351900100708,-0.11,0.18,0.05,0.21
23.323577880859375,0.19,0.03,0.64,0.66
23.333477020263672,0.59,-0.02,0.55,0.8
23.343547821044922,0.75,0.04,0.18,0.77
23.385759830474854,0.86,-0.04,0.07,0.86
23.387250900268555,0.94,0.02,0.28,0.98
23.387672901153564,1.08,0.05,0.18,1.09
23.388433933258057,0.95,-0.19,0.1,0.97
23.393444061279297,0.58,-0.12,0.24,0.63
23.403440952301025,0.34,0.15,0.11,0.38
23.413440942764282,0.43,0.13,-0.08,0.45
23.423387050628662,0.74,0.07,-0.24,0.78
23.43341088294983,1.18,0.18,-0.45,1.27
23.44338083267212,1.65,0.24,-0.59,1.76
23.453320026397705,1.67,0.26,-0.65,1.81
23.486605882644653,1.56,0.34,-0.55,1.68
23.487366914749146,1.76,0.29,0.07,1.78
23.48779797554016,1.77,0.3,0.45,1.85
23.49324893951416,1.69,0.46,0.83,1.93
23.503246784210205,2.04,0.64,1.11,2.4
23.513181924819946,1.91,0.79,0.74,2.19
23.52322292327881,1.64,0.81,0.74,1.97
23.533180952072144,1.53,1.4,0.38,2.1
23.54325008392334,1.55,2.14,-0.29,2.65
23.553181886672974,1.65,2.56,-1.15,3.25
23.58611297607422,1.78,3.29,-1.54,4.04
23.586544036865234,2.49,4.05,-0.94,4.84
23.586966037750244,2.79,4.26,-0.16,5.09
23.593129873275757,3.68,4.78,-0.82,6.08
23.60302996635437,4.83,5.53,-0.54,7.36
23.613074779510498,5.63,5.79,-0.69,8.1
23.62306785583496,5.32,5.79,-1.23,7.95
23.633028984069824,4.46,5.49,-1.71,7.27
23.643073081970215,3.44,5.53,-1.99,6.8
23.653016090393066,2.74,5.14,-2.11,6.19
23.687222957611084,2.21,3.85,-1.94,4.84
23.687963008880615,1.17,2.77,-1.57,3.39
23.68841290473938,-0.54,2.13,-1.03,2.42
23.69291591644287,-1.5,0.17,-1.25,1.95
23.70288395881653,-0.27,-1.4,-0.88,1.67
23.71287989616394,2.7,-1.9,-0.21,3.3
23.72290587425232,4.92,-2.99,1.19,5.87
23.732861042022705,3.53,-2.43,1.51,4.54
23.7429039478302,5.07,-2.23,-0.35,5.54
23.752851963043213,7.21,-1.68,0.89,7.45
23.786988973617554,7.97,-1.63,2.86,8.62
23.787762880325317,7.55,-2.62,3.75,8.82
23.78852891921997,6.54,-3.34,3.6,8.17
23.792781829833984,5.84,-3.55,3.06,7.48
23.80271005630493,5.47,-3.47,2.68,7.01
23.81272292137146,5.13,-3.13,2.39,6.46
23.822786808013916,4.77,-2.66,2.19,5.88
23.832679986953735,4.24,-2.24,2.15,5.25
23.86926293373108,3.59,-1.96,2.21,4.64
23.86969804763794,2.99,-1.75,2.26,4.13
23.870121955871582,2.43,-1.55,2.29,3.68
23.87271785736084,1.85,-1.31,2.05,3.05
23.882568836212158,1.09,-0.69,1.37,1.88
23.892679929733276,-0.09,-0.1,0.4,0.42
23.902507781982422,-0.12,0.8,-0.68,1.05
23.91244888305664,-1.5,2.31,-0.43,2.78
23.922648906707764,-2.83,3.04,-0.37,4.16
23.93259596824646,-2.41,4.13,-1.15,4.91
23.971002101898193,-1.86,5.87,-1.51,6.34
23.971426963806152,-1.84,7.32,-1.53,7.7
23.971843957901,-2.68,7.84,-1.69,8.45
23.972558975219727,-4.09,7.14,-2.06,8.48
23.98239803314209,-4.03,5.98,-2.26,7.55
23.992417812347412,-2.97,4.59,-2.4,5.97
24.002820014953613,-2.18,3.4,-2.3,4.64
24.012403964996338,-2.3,2.21,-1.98,3.75
24.02251386642456,-3.57,0.61,-1.81,4.04
24.0323429107666,-5.22,-0.45,-2.11,5.64
24.071104049682617,-6.46,-0.93,-2.29,6.91
24.07153081893921,-6.45,-1.19,-2.26,6.93
24.071950912475586,-5.2,-1.2,-2.37,5.83
24.072381019592285,-3.86,-0.9,-2.63,4.75
24.082343101501465,-3.05,-0.85,-2.75,4.19
24.092307090759277,-2.76,-0.9,-2.57,3.87
24.102247953414917,-2.92,-1.01,-2.4,3.91
24.112283945083618,-3.28,-1.45,-2.16,4.18
24.122150897979736,-3.55,-1.85,-1.69,4.34
24.132247924804688,-3.66,-2.17,-1.38,4.47
24.170629024505615,-3.83,-2.17,-1.26,4.57
24.17104196548462,-3.87,-2.13,-1.33,4.61
24.17179298400879,-3.75,-1.99,-1.45,4.48
24.172215938568115,-3.64,-1.8,-1.59,4.36
24.182164907455444,-3.16,0.25,-1.64,3.56
24.192203998565674,1.23,7.94,-1.94,8.26
24.20210075378418,7.04,4.56,0.1,8.38
24.211991786956787,11.63,-1.94,6.08,13.26
24.221935987472534,9.73,-3.37,9.37,13.92
24.232090950012207,1.77,-2.04,4.03,4.85
24.270188808441162,-5.95,-1.39,-2.08,6.45
24.27061700820923,-6.53,-0.5,-2.86,7.14
24.27104091644287,-2.65,2.35,0.11,3.54
24.271946907043457,-0.63,4.75,1.32,4.97
24.281943798065186,-1.48,6.31,1.16,6.58
24.291961908340454,-4.3,6.05,0.17,7.42
24.301973819732666,-5.26,3.06,-1.13,6.18
24.311985969543457,-4.11,0.94,-0.81,4.29
24.32177209854126,-2.82,0.43,-0.72,2.94
24.33196496963501,-1.63,-0.79,-2.14,2.8
24.371208906173706,-1.28,-2.82,-3.26,4.49
24.372024059295654,-1.7,-1.92,-2.95,3.9
24.372443914413452,-3.51,-2.22,-2.58,4.88
24.372885942459106,-3.69,-1.67,-3.34,5.24
24.381781101226807,-2.85,0.38,-3.29,4.36
24.39182710647583,-1.45,0.96,-2.68,3.19
24.40182876586914,-0.04,0.95,-2.44,2.61
24.41196584701538,0.76,1.09,-2.61,2.92
24.421969890594482,0.46,0.83,-1.93,2.15
24.431779861450195,-0.81,0.55,-1.52,1.8
24.470836877822876,-1.95,0.25,-1.3,2.35
24.471296787261963,-2.33,0.01,-0.56,2.39
24.47205686569214,-2.13,-0.22,0.08,2.14
24.472479820251465,-1.67,-0.52,0.56,1.83
24.48169493675232,-2.02,-0.57,1.11,2.37
24.491689920425415,-2.51,-0.63,1.11,2.81
24.50163507461548,-2.16,-0.46,1.22,2.52
24.511603832244873,-1.57,-0.36,1.41,2.14
24.52154302597046,-1.36,-0.45,1.25,1.9
24.53156590461731,-0.82,-0.49,0.84,1.27
24.571242809295654,-0.37,-0.44,0.59,0.82
24.5720157623291,-0.75,-0.39,0.4,0.93
24.57244110107422,-1.22,-0.25,-0.17,1.25
24.572861909866333,-1.53,-0.03,-0.59,1.64
24.58161497116089,-1.52,0.09,-0.71,1.68
24.59151291847229,-1.39,0.19,-0.87,1.65
24.601462841033936,-1.25,0.28,-1.12,1.7
24.611527919769287,-0.94,0.26,-1.13,1.49
24.621476888656616,-0.33,0.3,-1.04,1.13
24.631414890289307,-0.38,0.23,-0.6,0.74
24.67187786102295,-0.62,-0.09,-0.1,0.63
24.67230987548828,-0.48,-0.29,0.27,0.62
24.67273497581482,0.09,-0.06,0.74,0.74
24.67317295074463,0.5,0.02,0.81,0.95
24.681338787078857,-0.06,0.02,0.97,0.97
24.691359996795654,-0.33,-0.11,1.39,1.43
24.701323986053467,-0.22,-0.1,0.85,0.88
24.711349964141846,-0.68,-0.06,-0.52,0.85
24.721312046051025,-1.13,-0.04,-1.14,1.6
24.731317043304443,-1.11,0.0,-1.16,1.6
24.7718768119812,-0.75,-0.08,-0.92,1.18
24.772305965423584,-0.18,-0.09,-0.83,0.85
24.772753953933716,0.59,-0.13,-0.93,1.1
24.77317476272583,1.09,-0.33,-1.15,1.61
24.781168937683105,1.22,-0.39,-1.2,1.75
24.791175842285156,1.54,-0.06,-0.78,1.72
24.801142930984497,1.76,0.26,-0.28,1.8
24.811155796051025,1.63,0.2,0.09,1.64
24.821119785308838,1.17,0.02,-0.23,1.19
24.831077098846436,0.59,-0.21,-0.27,0.68
24.872159957885742,0.31,-0.27,-0.06,0.41
24.872591018676758,0.21,-0.23,0.06,0.31
24.87302589416504,0.27,-0.05,-0.16,0.31
24.87343978881836,0.23,0.09,-0.47,0.53
24.881014823913574,0.19,-0.19,-0.69,0.74
24.89107084274292,0.17,-0.16,-0.62,0.66
24.90095591545105,0.02,-0.04,-0.32,0.32
24.91104507446289,0.22,0.19,-0.17,0.33
24.92098903656006,0.6,0.05,-0.14,0.61
24.93085289001465,1.11,0.14,-0.29,1.15
24.971828937530518,1.53,0.05,-0.62,1.65
24.97262477874756,1.27,-0.26,-0.98,1.62
24.97304677963257,0.55,-0.52,-0.97,1.23
24.973477840423584,0.01,-0.39,-1.11,1.17
24.980907917022705,-0.4,-0.27,-0.79,0.92
24.99099087715149,-1.0,0.09,-0.27,1.03
25.000886917114258,-1.12,0.51,0.87,1.5
25.010968923568726,-0.59,0.38,1.54,1.69
25.020835876464844,0.37,0.14,1.12,1.18
25.030889987945557,1.1,0.07,0.54,1.22
25.07156991958618,0.99,-0.16,0.04,1.0
25.072011947631836,0.42,-0.23,-0.35,0.59
25.072788953781128,-0.09,-0.07,-0.38,0.39
25.073194980621338,-0.34,-0.07,-0.47,0.58
25.080750942230225,-0.41,-0.14,-0.46,0.63
25.09084177017212,-0.21,-0.04,-0.45,0.49
25.100728034973145,0.02,0.04,-0.3,0.3
25.110777854919434,0.28,0.03,-0.19,0.33
25.120734930038452,0.57,0.04,-0.13,0.58
25.130714893341064,0.07,-0.12,-0.23,0.26
25.172300815582275,-0.65,-0.15,-0.42,0.78
25.172712802886963,-0.75,-0.01,-0.42,0.85
25.17311382293701,-0.49,0.02,-0.5,0.7
25.173563957214355,-0.14,0.01,-0.67,0.68
25.180490016937256,0.18,0.11,-0.69,0.72
25.190501928329468,0.17,0.27,-0.15,0.35
25.200421810150146,0.21,0.21,0.25,0.38
25.210522890090942,0.64,0.1,0.39,0.75
25.220492839813232,1.21,0.11,0.54,1.32
25.23036289215088,1.4,0.23,0.17,1.42
25.271586894989014,1.33,0.25,0.33,1.39
25.272012948989868,1.51,0.29,0.42,1.59
25.272756099700928,2.12,0.31,0.5,2.2
25.273180961608887,3.0,0.15,0.76,3.09
25.28044891357422,3.65,0.1,0.77,3.73
25.290257930755615,3.7,0.58,0.5,3.77
25.300314903259277,3.66,1.18,0.03,3.84
25.3103768825531,3.57,1.4,-0.03,3.83
25.32036590576172,3.27,1.16,0.21,3.47
25.33044695854187,2.75,1.37,0.46,3.1
25.372183799743652,2.05,2.26,0.67,3.12
25.3729510307312,1.54,3.16,-0.13,3.51
25.373374938964844,1.46,3.6,0.22,3.89
25.37381076812744,1.7,3.29,1.54,4.01
25.380290031433105,2.0,3.02,0.45,3.65
25.39016890525818,1.78,3.61,-0.03,4.02
25.40017604827881,1.59,4.26,-0.69,4.59
25.410217761993408,2.14,5.33,-1.41,5.91
25.420222759246826,3.76,6.98,-1.85,8.14
25.430184841156006,5.9,8.18,-2.28,10.34
25.47240400314331,6.7,7.79,-2.97,10.69
25.473177909851074,5.56,6.97,-3.14,9.45
25.473598957061768,3.73,6.89,-2.77,8.31
25.47404384613037,2.1,5.82,-2.66,6.73
25.480130910873413,0.22,3.21,-2.41,4.02
25.489966869354248,-2.15,2.5,-0.17,3.3
25.500144004821777,-4.25,1.28,-0.48,4.46
25.510039806365967,-2.48,-0.96,-2.16,3.42
25.51981782913208,2.51,-3.33,-1.81,4.54
25.530086994171143,7.79,-4.4,-0.5,8.96
25.572303771972656,5.65,-3.24,2.32,6.91
25.573102951049805,2.99,-3.84,1.12,4.99
25.573526859283447,5.4,-3.7,-0.93,6.61
25.573946952819824,8.04,-2.67,0.23,8.47
25.580004930496216,10.32,-2.68,2.38,10.92
25.59010601043701,10.55,-3.37,3.78,11.7
25.599853992462158,9.41,-3.96,4.26,11.06
25.609956979751587,8.32,-4.18,4.07,10.16
25.61990785598755,7.66,-4.1,3.61,9.4
25.629937887191772,7.21,-3.62,3.01,8.61
25.67197608947754,6.45,-3.03,2.58,7.57
25.672401905059814,5.36,-2.51,2.39,6.38
25.673192024230957,4.4,-1.91,2.05,5.21
25.673614025115967,3.38,-1.01,1.5,3.83
25.679847955703735,2.64,-0.03,1.09,2.85
25.68990993499756,2.13,1.14,0.82,2.55
25.69997501373291,1.37,2.54,0.56,2.93
25.70981502532959,0.02,3.81,-0.06,3.81
25.71972393989563,-1.26,4.49,-1.13,4.79
25.72975778579712,-2.02,4.92,-1.88,5.64
25.772811889648438,-2.53,6.13,-2.01,6.92
25.773559093475342,-3.41,8.32,-2.02,9.21
25.773983001708984,-5.96,9.43,-2.28,11.38
25.77477788925171,-7.01,7.57,-2.89,10.71
25.7796368598938,-5.86,4.74,-3.2,8.18
25.78992986679077,-4.43,2.23,-2.53,5.56
25.79945993423462,-4.32,0.78,-2.09,4.86
25.809659004211426,-5.31,0.86,-2.65,5.99
25.819581985473633,-6.4,1.35,-3.41,7.37
25.829617023468018,-6.9,0.71,-3.95,7.98
25.839405059814453,-6.64,-0.55,-3.37,7.46
25.872058868408203,-5.93,-1.71,-2.4,6.62
25.87249183654785,-5.36,-2.27,-1.77,6.08
25.872931957244873,-4.97,-2.26,-1.59,5.68
25.87946081161499,-4.71,-2.04,-1.92,5.48
25.889457941055298,-4.37,-1.98,-2.3,5.32
25.89951491355896,-4.02,-2.02,-2.14,4.98
25.909521102905273,-3.78,-2.25,-1.75,4.73
25.919498920440674,-3.58,-2.42,-1.47,4.56
25.92947793006897,-3.18,-1.01,-1.44,3.63
25.939374923706055,0.74,4.61,-1.64,4.94
25.97307300567627,3.85,2.89,0.46,4.83
25.973827838897705,6.38,2.25,2.76,7.3
25.97458291053772,7.92,0.44,8.74,11.8
25.979326963424683,4.27,-1.96,6.53,8.04
25.989253044128418,-0.61,-3.17,-1.87,3.73
25.999160766601562,-4.43,-1.84,-5.87,7.58
26.009278774261475,-4.46,1.36,-4.85,6.72
26.019166946411133,-2.63,4.65,-3.39,6.32
26.029234886169434,-1.66,7.78,-0.8,7.99
26.039212942123413,-2.61,8.16,1.0,8.62
26.07272481918335,-7.07,6.59,-0.47,9.67
26.07315683364868,-8.99,4.52,-6.3,11.87
26.074220895767212,-8.23,0.68,-6.5,10.5
26.079227924346924,-3.65,0.9,-1.64,4.1
26.089184761047363,-0.89,-2.14,1.33,2.67
26.099169969558716,-2.47,-3.82,1.59,4.81
26.10915994644165,-4.01,-2.71,0.1,4.84
26.119078874588013,-4.05,-1.14,-0.56,4.24
26.129194974899292,-3.28,-0.33,-0.37,3.31
26.13911008834839,-2.39,-0.08,-0.86,2.54
26.17271590232849,-1.15,0.0,-1.16,1.63
26.17314887046814,0.23,-0.06,-0.62,0.66
26.17423677444458,0.96,0.06,-0.45,1.06
26.178982973098755,1.04,0.19,-0.34,1.11
26.189064025878906,0.56,0.15,0.13,0.59
26.199002981185913,-0.31,0.45,-0.05,0.54
26.20904302597046,-0.84,0.77,-1.07,1.56
26.219016075134277,-1.07,0.6,-1.66,2.06
26.22898292541504,-1.67,0.19,-1.53,2.27
26.238910913467407,-2.02,-0.13,-1.63,2.59
26.27300500869751,-1.99,-0.2,-1.77,2.67
26.273451805114746,-1.69,-0.18,-1.6,2.33
26.27455496788025,-1.26,-0.06,-1.46,1.92
26.278860092163086,-0.78,0.0,-1.21,1.43
26.288809776306152,-0.39,-0.03,-0.83,0.91
26.29868197441101,-0.3,-0.04,-0.51,0.59
26.30884885787964,-0.24,-0.09,-0.25,0.35
26.318850994110107,-0.21,-0.14,0.22,0.33
26.328803062438965,-0.32,-0.17,0.59,0.69
26.338751792907715,-0.4,-0.27,0.73,0.87
26.37355899810791,-0.42,-0.33,0.83,0.98
26.374547958374023,-0.45,-0.2,0.77,0.91
26.374984979629517,-0.34,-0.15,0.74,0.82
26.378700971603394,-0.27,-0.16,0.5,0.59
26.38866090774536,-0.22,-0.21,-0.15,0.33
26.398550987243652,-0.27,-0.28,-0.53,0.65
26.408622980117798,-0.1,-0.22,-1.02,1.04
26.418612003326416,0.05,-0.24,-0.97,1.0
26.428690910339355,0.07,0.01,-0.66,0.66
26.438583850860596,0.13,0.27,-0.79,0.84
26.473532915115356,0.08,0.24,-1.06,1.08
26.47455596923828,0.25,0.12,-1.2,1.23
26.474981784820557,0.6,0.11,-0.95,1.12
26.47854709625244,0.61,0.11,-0.71,0.94
26.488460063934326,0.17,0.06,-0.66,0.68
26.498499870300293,-0.1,0.0,-0.44,0.45
26.50828981399536,-0.23,0.06,0.14,0.27
26.51831293106079,-0.23,0.04,0.7,0.73
26.52850890159607,-0.15,-0.09,0.93,0.94
26.53845191001892,-0.09,-0.1,0.75,0.76
26.57403588294983,0.02,-0.06,0.4,0.4
26.574445962905884,0.09,-0.06,0.07,0.12
26.57485008239746,0.01,-0.02,-0.21,0.21
26.5783748626709,-0.06,-0.04,-0.38,0.38
26.588294982910156,0.05,-0.11,-0.26,0.28
26.59829807281494,0.08,-0.04,-0.16,0.18
26.608247756958008,-0.21,0.01,-0.23,0.31
26.618331909179688,-0.45,0.03,-0.2,0.49
26.628323078155518,-0.45,0.08,-0.09,0.46
26.638324975967407,-0.24,-0.01,-0.02,0.24
26.67379093170166,-0.2,-0.18,-0.03,0.27
26.67453384399414,-0.19,-0.04,0.05,0.2
26.67495584487915,0.04,-0.02,0.25,0.25
26.67821979522705,0.01,-0.12,0.42,0.43
26.68818688392639,-0.3,-0.07,0.11,0.32
26.698185920715332,-0.24,0.01,-0.19,0.3
26.70806097984314,0.06,0.01,-0.11,0.12
26.71809196472168,0.23,0.01,-0.02,0.23
26.728166103363037,0.36,-0.01,-0.01,0.36
26.738085985183716,0.65,-0.01,-0.07,0.65
26.773706912994385,0.99,-0.02,-0.34,1.04
26.774500846862793,1.25,0.03,-0.49,1.34
26.77492594718933,1.36,0.08,-0.3,1.39
26.778059005737305,0.96,-0.03,0.04,0.96
26.788055896759033,0.57,-0.04,0.01,0.57
26.798045873641968,0.59,0.06,-0.14,0.6
26.808127880096436,0.76,-0.04,0.33,0.82
26.818026065826416,0.81,-0.06,0.44,0.92
26.82802987098694,0.69,0.01,0.07,0.69
26.8379487991333,0.57,0.01,-0.11,0.58
26.8733549118042,0.75,0.07,0.05,0.75
26.873778820037842,1.15,0.0,0.17,1.16
26.87453293800354,0.75,0.02,-0.29,0.8
26.877842903137207,-0.48,0.02,-1.03,1.13
26.887878894805908,-1.44,0.01,-1.11,1.81
26.89784002304077,-1.59,0.01,-0.78,1.77
26.9080810546875,-1.17,-0.03,-0.67,1.34
26.917852878570557,-0.72,0.08,-0.92,1.17
26.927897930145264,-0.45,0.18,-0.88,1.0
26.937825918197632,-0.13,0.3,-0.43,0.54
26.973294973373413,0.36,0.43,-0.13,0.57
26.973721981048584,0.72,0.25,-0.02,0.76
26.974140882492065,0.84,0.1,0.05,0.84
26.977771759033203,1.15,0.16,-0.07,1.16
26.987730026245117,1.75,0.26,-0.15,1.77
26.99768877029419,2.62,0.36,-0.11,2.64
27.007685899734497,3.55,0.4,0.04,3.57
27.01772975921631,4.22,0.5,0.05,4.24
27.027738094329834,4.7,0.87,0.08,4.78
27.037683963775635,4.82,0.91,0.46,4.92
27.073997974395752,4.8,1.06,0.58,4.94
27.074424982070923,3.75,1.11,0.71,3.97
27.075196981430054,2.16,0.92,0.89,2.51
27.077531814575195,1.07,1.32,0.41,1.74
27.087639808654785,0.32,4.53,-0.92,4.63
27.097589015960693,1.63,5.49,1.4,5.89
27.107577800750732,2.14,4.04,2.6,5.25
27.117597103118896,2.52,4.52,0.92,5.25
27.12750792503357,2.63,5.13,0.92,5.83
27.137584924697876,2.78,5.4,0.63,6.1
27.17340087890625,3.36,5.85,-0.32,6.75
27.173826932907104,3.68,6.17,-1.75,7.39
27.174245834350586,4.15,6.37,-2.89,8.13
27.17749309539795,4.86,6.5,-3.48,8.83
27.187429904937744,3.94,5.11,-3.0,7.11
27.19746208190918,2.22,3.01,-2.53,4.51
27.207454919815063,0.51,1.45,-2.02,2.53
27.217453002929688,-1.1,0.53,-1.59,2.0
27.22742986679077,1.99,-0.03,-2.44,3.14
27.23737382888794,5.44,-1.0,-0.57,5.56
27.2738139629364,3.26,-1.27,1.81,3.93
27.27424192428589,1.61,-1.85,-0.58,2.52
27.2746639251709,4.41,-2.02,-1.69,5.13
27.277249813079834,8.22,-0.76,0.36,8.26
27.28723382949829,9.19,-1.21,1.92,9.46
27.29724097251892,7.97,-2.13,2.52,8.62
27.307204961776733,7.07,-2.43,2.41,7.85
27.317265033721924,6.51,-2.4,2.1,7.24
27.327287912368774,5.96,-2.46,2.17,6.8
27.33720302581787,5.42,-2.64,2.45,6.5
27.37432098388672,4.57,-2.66,2.63,5.9
27.37475299835205,3.39,-2.49,2.81,5.05
27.375526905059814,2.65,-1.98,2.81,4.34
27.37709903717041,2.59,-1.45,2.69,4.0
27.38700795173645,2.64,-0.88,2.49,3.73
27.397090911865234,2.3,-0.16,2.09,3.11
27.407065868377686,1.66,0.66,1.52,2.34
27.41692590713501,0.89,1.35,0.92,1.86
27.427098751068115,-0.05,1.89,0.36,1.92
27.43710494041443,-1.04,2.19,0.0,2.42
27.475138902664185,-1.57,2.66,-0.19,3.09
27.475566864013672,-1.81,3.5,-0.2,3.94
27.475990772247314,-1.94,4.23,-0.48,4.67
27.476902961730957,-1.45,4.5,-1.28,4.89
27.486905097961426,-1.21,4.49,-1.7,4.95
27.49691104888916,-3.55,4.13,-1.14,5.56
27.50684094429016,-4.51,3.46,-1.57,5.89
27.516658782958984,-5.62,3.15,-2.01,6.74
27.526927947998047,-5.6,2.89,-2.45,6.76
27.536829948425293,-4.93,2.79,-2.4,6.15
27.575239896774292,-3.77,2.7,-2.13,5.1
27.57566499710083,-3.41,2.28,-2.06,4.59
27.576100826263428,-3.75,1.34,-2.1,4.5
27.57676076889038,-4.36,-0.04,-2.22,4.89
27.5867280960083,-5.03,-1.22,-1.93,5.52
27.596837997436523,-5.28,-2.08,-1.5,5.86
27.606539964675903,-5.23,-2.24,-1.35,5.84
27.616780757904053,-5.16,-2.06,-1.51,5.75
27.626794815063477,-4.93,-1.95,-1.78,5.59
27.636685848236084,-4.38,-2.02,-2.06,5.24
27.674745082855225,-3.72,-2.08,-1.99,4.7
27.675511837005615,-3.42,-1.6,-1.87,4.21
27.675936937332153,-3.58,-1.53,-1.68,4.24
27.67658495903015,-3.86,-1.85,-1.36,4.49
27.68653678894043,-3.53,1.84,-1.36,4.2
27.696574926376343,1.39,7.92,-1.82,8.24
27.70658302307129,8.61,4.63,0.83,9.81
27.71660280227661,15.78,0.47,7.92,17.66
27.72659397125244,11.11,-1.65,10.41,15.31
27.736501932144165,0.62,-0.58,2.76,2.88
27.77436590194702,-8.89,-1.52,-2.48,9.35
27.774792909622192,-10.05,-2.16,-3.6,10.89
27.77522587776184,-6.04,-0.79,-3.64,7.09
27.776367902755737,-2.63,0.11,-3.68,4.52
27.786412954330444,-0.54,0.66,-3.03,3.14
27.796488761901855,0.87,1.64,-1.45,2.35
27.806428909301758,0.85,2.68,0.44,2.84
27.816410064697266,-1.88,4.12,1.48,4.76
27.826319932937622,-6.8,3.35,-3.56,8.37
27.8364200592041,-10.7,-0.06,-8.7,13.79
27.874849796295166,-9.26,3.93,-8.63,13.25
27.875286102294922,-3.41,1.53,-2.65,4.58
27.87608790397644,-1.59,-3.09,1.85,3.93
27.87650775909424,-1.46,-3.03,1.42,3.65
27.88625693321228,-0.65,-1.64,-0.49,1.83
27.896312952041626,-2.03,-0.06,-0.98,2.25
27.906275987625122,-2.88,1.78,-1.46,3.68
27.91630983352661,-1.8,1.13,-2.11,2.99
27.92613697052002,-1.31,-0.24,-0.75,1.52
27.936201095581055,-0.89,-0.66,-0.22,1.12
27.974868774414062,-0.63,-0.74,-0.23,0.99
27.975295066833496,-0.57,-0.46,-0.44,0.85
27.976078987121582,-0.91,-0.19,-0.15,0.94
27.976500034332275,-1.09,-0.08,0.35,1.14
27.986150979995728,-1.18,-0.17,0.43,1.26
27.99616575241089,-1.25,-0.36,-0.15,1.3
28.00612497329712,-1.53,-0.32,-0.66,1.69
28.016121864318848,-2.08,-0.03,-0.33,2.1
28.026194095611572,-2.46,0.17,0.32,2.48
28.03611397743225,-2.02,-0.06,0.4,2.06
28.075217962265015,-1.07,-0.33,0.14,1.12
28.07597303390503,-0.55,-0.27,0.09,0.61
28.076398849487305,-0.48,-0.12,0.6,0.77
28.076820850372314,-0.65,-0.01,1.12,1.29
28.08597707748413,-1.07,0.06,1.03,1.48
28.096030950546265,-0.89,-0.23,0.8,1.21
28.105792999267578,-0.9,-0.19,0.58,1.08
28.1159188747406,-1.77,0.12,0.56,1.86
28.126182079315186,-1.85,-0.13,1.12,2.16
28.135917901992798,-1.43,-0.49,1.59,2.19
28.175078868865967,-1.0,-0.37,0.8,1.33
28.17550277709961,-0.63,-0.15,0.1,0.65
28.17625093460083,-0.69,-0.23,-0.03,0.72
28.176676750183105,-0.96,-0.01,0.12,0.96
28.185900926589966,-0.85,-0.01,0.05,0.85
28.19582986831665,-0.14,-0.16,-0.46,0.5
28.205821990966797,0.07,-0.17,-1.31,1.32
28.215796947479248,-0.17,-0.07,-1.79,1.79
28.225799083709717,-0.29,0.0,-1.64,1.66
28.235771894454956,-0.28,-0.19,-1.38,1.42
28.27523398399353,-0.02,-0.23,-1.12,1.14
28.275707960128784,0.44,-0.15,-1.0,1.1
28.276436805725098,0.72,-0.15,-1.14,1.35
28.276838779449463,0.58,-0.25,-1.28,1.42
28.285746097564697,0.2,-0.11,-1.17,1.19
28.29566192626953,-0.04,-0.06,-0.78,0.78
28.30559492111206,-0.04,-0.06,-0.41,0.41
28.315648078918457,-0.07,-0.03,-0.32,0.32
28.32566499710083,-0.17,-0.02,-0.19,0.25
28.33560609817505,-0.1,0.05,-0.13,0.17
28.376425981521606,0.08,0.07,-0.39,0.4
28.376851081848145,0.26,-0.11,-0.6,0.66
28.377284049987793,0.4,-0.26,-0.44,0.64
28.377699851989746,0.46,-0.23,-0.3,0.59
28.385514974594116,0.54,-0.07,-0.73,0.91
28.395505905151367,0.66,0.01,-0.74,0.99
28.405466079711914,0.88,-0.02,-0.51,1.01
28.415530920028687,1.12,0.06,-0.63,1.28
28.42539095878601,1.32,-0.05,-0.84,1.56
28.435520887374878,1.84,-0.26,-1.02,2.11
28.475337028503418,2.06,-0.7,-0.93,2.36
28.475761890411377,1.35,-0.67,-1.7,2.27
28.47654104232788,0.69,-0.1,-1.32,1.49
28.476966857910156,0.19,0.32,-0.49,0.61
28.48532795906067,-0.02,0.45,-0.3,0.54
28.495361804962158,0.19,0.35,0.06,0.4
28.50531792640686,0.33,0.11,0.85,0.91
28.515268802642822,0.36,0.1,0.91,0.98
28.525331020355225,0.51,0.29,0.69,0.9
28.535306930541992,0.52,0.23,0.44,0.71
28.575844764709473,0.2,-0.04,0.06,0.21
28.57658886909485,-0.31,-0.13,-0.31,0.45
28.57703685760498,-0.57,-0.01,-0.44,0.72
28.577454090118408,-0.39,0.05,-0.24,0.46
28.585147857666016,0.0,0.08,0.09,0.12
28.595207929611206,0.49,0.09,0.36,0.61
28.605061054229736,0.6,-0.01,0.31,0.67
28.61518692970276,0.27,-0.15,0.19,0.36
28.625139951705933,-0.11,-0.16,0.01,0.19
28.63508176803589,-0.71,-0.05,-0.28,0.76
28.675930976867676,-0.91,0.07,-0.31,0.96
28.67636775970459,-0.7,0.14,-0.3,0.77
28.677137851715088,-0.42,0.05,-0.34,0.54
28.67756175994873,-0.21,-0.03,-0.4,0.45
28.685040950775146,-0.02,0.02,-0.23,0.23
28.695088863372803,0.17,0.03,-0.16,0.23
28.705027103424072,0.37,-0.01,-0.2,0.42
28.715025901794434,0.64,0.05,-0.11,0.65
28.72498607635498,0.76,0.04,0.11,0.76
28.734869956970215,0.64,0.07,0.06,0.64
28.775425910949707,0.62,0.11,-0.09,0.63
28.77585792541504,0.84,0.09,-0.08,0.84
28.776278972625732,1.21,0.05,0.06,1.21
28.77707290649414,1.68,0.16,0.18,1.69
28.785062789916992,2.21,0.26,0.15,2.23
28.794946908950806,2.73,0.32,0.23,2.75
28.804865837097168,3.2,0.42,-0.06,3.22
28.814887046813965,3.8,0.44,-0.37,3.84
28.824816942214966,4.34,0.48,-0.33,4.37
28.834812879562378,4.44,0.69,-0.27,4.5
28.87517786026001,4.13,0.92,-0.08,4.23
28.875609874725342,3.63,1.16,1.01,3.94
28.876035928726196,3.47,1.27,1.0,3.82
28.876455783843994,2.45,1.41,-0.7,2.91
28.884782791137695,0.5,3.68,-2.15,4.29
28.894721031188965,0.73,5.45,-0.09,5.49
28.90468692779541,1.58,4.35,1.42,4.84
28.914702892303467,1.68,3.67,-0.38,4.05
28.92462992668152,1.23,4.15,-0.88,4.41
28.934678077697754,0.99,4.85,-1.26,5.1
28.97695779800415,1.8,5.68,-1.99,6.28
28.97738790512085,4.45,6.57,-2.45,8.3
28.977810859680176,6.71,7.19,-2.28,10.09
28.978232860565186,6.35,6.6,-2.08,9.39
28.984498023986816,4.7,5.55,-1.67,7.46
28.994526863098145,2.76,4.37,-1.02,5.26
29.004469871520996,0.69,1.36,-0.96,1.8
29.014444828033447,-1.81,0.18,-0.31,1.84
29.02439594268799,-1.39,0.94,-1.45,2.21
29.03449296951294,2.88,-0.51,-0.79,3.02
29.0760760307312,6.01,-2.18,1.4,6.54
29.076512813568115,3.75,-2.15,3.07,5.3
29.077298879623413,3.15,-2.31,1.05,4.04
29.077725887298584,7.23,-2.11,0.11,7.53
29.084383010864258,9.6,-1.76,1.93,9.94
29.094271898269653,9.52,-1.9,2.9,10.13
29.104403972625732,7.83,-2.49,2.72,8.65
29.114428997039795,6.53,-2.66,2.17,7.37
29.124361991882324,5.99,-2.42,1.9,6.73
29.134390830993652,5.43,-2.33,1.69,6.14
29.17664098739624,4.63,-2.29,1.67,5.42
29.177452087402344,3.97,-2.41,1.71,4.94
29.17787790298462,3.34,-2.32,1.59,4.36
29.178330898284912,2.64,-2.02,1.41,3.61
29.184185028076172,2.01,-1.63,1.34,2.91
29.1943039894104,1.56,-1.03,1.2,2.22
29.20425295829773,1.07,-0.31,0.88,1.41
29.214305877685547,0.62,0.55,0.4,0.92
29.224169969558716,0.43,1.46,-0.23,1.53
29.234211921691895,-0.3,2.25,-0.52,2.32
29.276285886764526,-0.02,2.96,-1.07,3.14
29.276719093322754,-0.86,4.65,-0.53,4.75
29.27752685546875,-3.1,4.86,-0.25,5.76
29.277957916259766,-3.31,4.72,-0.98,5.84
29.284180879592896,-3.89,5.15,-1.24,6.57
29.294235944747925,-3.43,5.07,-1.71,6.35
29.304009914398193,-3.42,4.22,-2.1,5.82
29.314087867736816,-3.45,3.11,-2.47,5.26
29.32408380508423,-3.02,2.54,-2.54,4.69
29.334035873413086,-2.66,2.45,-2.51,4.4
29.3764328956604,-2.8,2.49,-2.61,4.56
29.377898931503296,-4.1,2.19,-2.9,5.47
29.378346920013428,-6.03,1.54,-3.02,6.91
29.37908387184143,-7.25,0.25,-3.36,7.99
29.384009838104248,-7.79,-1.51,-3.04,8.49
29.393927097320557,-6.86,-2.85,-1.69,7.61
29.403732776641846,-5.6,-2.94,-0.59,6.35
29.413908004760742,-4.5,-2.47,-0.85,5.2
29.423940896987915,-3.44,-2.42,-1.73,4.54
29.43391704559326,-2.88,-1.32,-2.35,3.94
29.443909883499146,-2.55,-0.94,-2.09,3.42
29.47662591934204,-2.56,-1.49,-1.04,3.13
29.47705388069153,-3.08,-0.89,-0.53,3.24
29.47780704498291,-1.63,6.87,-1.12,7.14
29.48383593559265,1.39,4.0,-0.98,4.34
29.49376893043518,7.02,-2.28,1.66,7.56
29.503589868545532,9.66,-2.14,7.75,12.56
29.513686895370483,4.0,-0.82,5.44,6.8
29.523711919784546,-3.29,0.81,-1.52,3.71
29.533753871917725,-7.54,0.8,-4.13,8.63
29.543691873550415,-5.47,1.52,-2.58,6.23
29.576190948486328,-1.76,2.86,-1.36,3.62
29.576624870300293,0.02,4.2,-0.94,4.3
29.57704496383667,-0.05,4.5,-0.27,4.5
29.583647966384888,-2.22,3.49,-0.7,4.19
29.59365177154541,-4.25,1.39,-1.29,4.65
29.603548049926758,-4.37,-0.28,-1.17,4.53
29.613621950149536,-3.14,-0.94,-0.79,3.37
29.623610019683838,-2.14,0.24,-1.34,2.53
29.63355779647827,-3.2,-1.82,-3.4,5.01
29.64354705810547,-2.6,-0.58,-4.38,5.12
29.676914930343628,-2.02,0.42,-3.26,3.85
29.67735195159912,-1.94,-0.66,-1.92,2.8
29.678425788879395,-1.94,-1.49,-1.09,2.67
29.683478832244873,-1.87,-0.89,-0.3,2.09
29.693413972854614,-1.69,0.48,0.19,1.76
29.703478813171387,-1.25,1.78,0.79,2.31
29.71347689628601,0.01,1.17,-0.3,1.2
29.72341299057007,0.41,-0.1,-0.46,0.62
29.73342990875244,0.06,-0.68,-0.42,0.8
29.74341106414795,-1.14,-0.65,-0.94,1.61
29.776745796203613,-2.16,-0.5,-0.83,2.36
29.77717876434326,-2.0,0.02,-0.22,2.01
29.77796983718872,-0.77,0.25,-0.54,0.97
29.783382892608643,0.39,-0.21,-1.48,1.54
29.793303966522217,0.42,-0.67,-2.32,2.45
29.80314588546753,-0.98,-0.27,-2.04,2.27
29.81333303451538,-1.99,0.12,-1.21,2.33
29.82324504852295,-1.98,0.04,-0.84,2.15
29.83327889442444,-1.17,-0.11,-0.76,1.39
29.843220949172974,-0.25,-0.18,-0.6,0.67
29.876821994781494,-0.12,0.02,-0.65,0.66
29.877254009246826,-0.55,-0.1,-0.53,0.77
29.877999782562256,-1.14,-0.46,0.3,1.26
29.883222103118896,-1.77,-0.38,0.68,1.93
29.893139839172363,-1.96,-0.39,1.04,2.25
29.90314793586731,-1.68,-0.41,1.17,2.08
29.913110971450806,-1.49,-0.18,1.08,1.84
29.923053979873657,-1.26,-0.29,1.11,1.7
29.933104991912842,-1.25,-0.32,0.93,1.59
29.943079948425293,-1.06,-0.24,0.79,1.34
29.97706890106201,-0.5,-0.27,0.98,1.13
29.977516889572144,-0.59,-0.26,0.91,1.11
29.97860598564148,-0.96,-0.15,0.62,1.15
29.983005046844482,-0.92,-0.15,0.26,0.96
29.993022918701172,-0.81,-0.07,-0.09,0.81
30.002991914749146,-0.71,-0.04,-0.67,0.97
30.012948989868164,-0.57,-0.19,-0.94,1.11
30.023021936416626,-0.52,-0.06,-0.91,1.04
30.059594869613647,-0.35,0.15,-0.85,0.93
30.060022830963135,-0.07,0.12,-0.77,0.78
30.06044292449951,-0.01,0.06,-0.87,0.87
30.062763929367065,-0.19,0.09,-0.97,0.99
30.072850942611694,-0.36,0.04,-1.16,1.21
30.082876920700073,-0.33,-0.08,-1.07,1.12
