time,ax,ay,az,atotal
0.0034689903259277344,0.36,-0.11,-0.33,0.5
0.013119935989379883,0.27,-0.08,-0.4,0.48
0.02342391014099121,0.32,-0.09,-0.46,0.56
0.03618311882019043,0.3,-0.05,-0.29,0.42
0.060021162033081055,0.11,-0.05,-0.12,0.17
0.0616459846496582,-0.05,-0.03,-0.01,0.05
0.06338906288146973,-0.13,0.0,0.03,0.13
0.07274198532104492,-0.19,0.01,0.02,0.19
0.08568406105041504,-0.17,0.03,0.06,0.18
0.09239006042480469,-0.06,-0.01,0.09,0.1
0.10225105285644531,-0.06,-0.02,0.01,0.06
0.11221504211425781,-0.07,0.03,0.01,0.07
0.12268304824829102,-0.03,0.02,0.04,0.05
0.1353909969329834,0.0,0.0,-0.04,0.04
0.16325998306274414,-0.01,0.02,-0.13,0.13
0.16489005088806152,-0.08,0.03,-0.1,0.13
0.1661980152130127,-0.07,-0.03,-0.01,0.07
0.1720411777496338,0.09,-0.04,0.11,0.14
0.18184208869934082,0.23,-0.05,0.13,0.26
0.19162201881408691,0.29,-0.02,0.05,0.29
0.20191597938537598,0.26,-0.03,-0.02,0.26
0.211806058883667,0.18,-0.03,-0.06,0.19
0.2221980094909668,0.11,-0.02,-0.05,0.12
0.23398709297180176,0.06,-0.02,0.0,0.06
0.25856900215148926,0.02,0.0,0.03,0.03
0.26016688346862793,-0.05,0.03,0.03,0.06
0.2617759704589844,-0.14,0.04,0.07,0.16
0.2711760997772217,-0.16,0.03,0.08,0.18
0.2811610698699951,-0.11,0.02,0.07,0.13
0.2913229465484619,-0.03,0.03,0.04,0.05
0.30092501640319824,-0.02,0.03,-0.01,0.03
0.3107740879058838,-0.06,0.02,-0.02,0.06
0.3211848735809326,0.02,0.03,-0.01,0.03
0.3338170051574707,0.15,0.04,-0.06,0.16
0.361738920211792,0.11,-0.03,-0.09,0.14
0.3633570671081543,0.01,-0.06,-0.04,0.07
0.3647470474243164,0.01,0.01,-0.05,0.05
0.3704359531402588,0.0,0.03,-0.06,0.06
0.3802201747894287,-0.05,0.0,-0.09,0.1
0.3902609348297119,-0.05,0.03,-0.07,0.09
0.4001040458679199,-0.01,0.02,-0.08,0.08
0.41016101837158203,0.0,-0.02,-0.08,0.08
0.42034101486206055,0.02,-0.02,-0.01,0.03
0.4321901798248291,0.04,-0.02,0.05,0.06
0.4421708583831787,0.04,-0.04,0.09,0.1
0.4644901752471924,0.04,-0.03,0.12,0.13
0.46627116203308105,0.08,-0.02,0.11,0.13
0.4693129062652588,0.11,-0.02,0.05,0.12
0.48630309104919434,0.09,-0.03,0.0,0.09
0.4892690181732178,0.02,-0.01,-0.03,0.03
0.5031321048736572,-0.07,0.02,0.01,0.07
0.5091960430145264,-0.08,0.03,0.01,0.08
0.5199649333953857,-0.12,0.05,0.02,0.13
0.5325000286102295,-0.09,0.1,-0.08,0.15
0.53957200050354,-0.12,0.05,-0.07,0.14
0.5622241497039795,-0.02,-0.07,-0.04,0.08
0.5640871524810791,0.02,0.04,-0.05,0.06
0.5686781406402588,0.04,0.02,-0.05,0.06
0.578693151473999,0.08,0.0,0.02,0.08
0.5888969898223877,0.12,0.02,0.08,0.14
0.5987451076507568,0.13,0.0,0.12,0.17
0.6086030006408691,0.15,0.0,0.11,0.18
0.6190741062164307,0.13,-0.01,0.04,0.13
0.6322360038757324,0.08,-0.02,0.02,0.08
0.6384861469268799,0.05,-0.01,0.02,0.05
0.6650311946868896,0.05,-0.01,-0.08,0.09
0.66668701171875,0.02,0.0,-0.18,0.18
0.6681690216064453,0.03,0.05,-0.2,0.2
0.6866440773010254,0.05,0.04,-0.14,0.15
0.6881170272827148,0.01,0.01,-0.08,0.08
0.7026369571685791,-0.02,-0.01,0.02,0.03
0.707719087600708,0.01,-0.05,0.05,0.07
0.7175590991973877,0.09,-0.04,0.04,0.1
0.7306602001190186,0.12,-0.02,0.03,0.12
0.7378661632537842,0.09,-0.02,0.08,0.12
0.7638471126556396,0.05,-0.03,0.09,0.1
0.7657070159912109,-0.04,-0.02,0.11,0.11
0.7671589851379395,-0.1,0.02,0.13,0.16
0.786553144454956,-0.11,0.04,0.18,0.21
0.7879831790924072,-0.15,0.04,0.13,0.2
0.8026092052459717,-0.16,0.03,0.06,0.17
0.8069908618927002,-0.14,0.04,-0.06,0.15
0.8198690414428711,-0.08,0.03,-0.15,0.17
0.8301279544830322,-0.09,0.03,-0.2,0.22
0.839231014251709,-0.11,0.03,-0.28,0.3
0.87105393409729,-0.06,0.01,-0.27,0.27
0.8728330135345459,0.07,-0.02,-0.18,0.19
0.8743000030517578,0.18,-0.04,-0.11,0.21
0.8830900192260742,0.24,-0.04,-0.05,0.24
0.8860800266265869,0.17,-0.04,-0.02,0.17
0.9025759696960449,0.06,-0.01,0.05,0.07
0.9062268733978271,0.02,0.03,0.11,0.11
0.9190430641174316,0.01,0.04,0.16,0.16
0.9260518550872803,0.04,0.02,0.25,0.25
0.9379830360412598,0.05,-0.03,0.25,0.25
0.9652509689331055,0.06,-0.06,0.1,0.13
0.9671409130096436,0.07,0.01,-0.01,0.07
0.9685399532318115,0.05,0.02,-0.08,0.09
0.9864599704742432,0.04,-0.01,-0.13,0.13
0.98785400390625,0.08,0.01,-0.13,0.15
1.0025441646575928,0.06,0.0,-0.12,0.13
1.005467176437378,-0.04,0.05,-0.04,0.07
1.0183241367340088,-0.14,0.07,0.06,0.16
1.0258381366729736,-0.24,0.05,0.03,0.24
1.0377509593963623,-0.24,0.01,-0.07,0.25
1.0673890113830566,-0.15,0.0,-0.22,0.26
1.0691778659820557,-0.12,0.04,-0.34,0.36
1.0706279277801514,-0.08,0.12,-0.31,0.34
1.0867888927459717,0.0,0.04,-0.18,0.18
1.0882561206817627,-0.01,-0.01,-0.09,0.09
1.1029088497161865,-0.13,0.01,-0.02,0.13
1.104633092880249,-0.2,0.01,-0.03,0.2
1.119992971420288,-0.15,0.02,-0.03,0.15
1.1271100044250488,-0.02,0.04,0.04,0.06
1.1366920471191406,0.09,0.06,0.08,0.13
1.16690993309021,0.1,0.05,0.15,0.18
1.1686151027679443,0.05,-0.03,0.12,0.13
1.1699740886688232,0.1,-0.07,-0.05,0.13
1.1871240139007568,0.11,-0.03,-0.18,0.21
1.188582181930542,0.11,-0.08,-0.26,0.29
1.2027409076690674,0.21,-0.07,-0.23,0.31
1.204226016998291,0.32,0.02,-0.01,0.32
1.2197060585021973,0.36,-0.07,0.18,0.4
1.2243001461029053,0.27,-0.15,0.09,0.32
1.2383458614349365,0.15,-0.08,-0.07,0.18
1.2443039417266846,0.05,0.0,-0.14,0.14
1.2678420543670654,-0.02,0.05,-0.08,0.09
1.2694928646087646,0.0,0.01,0.04,0.04
1.273285150527954,0.03,-0.05,0.08,0.09
1.2875359058380127,-0.09,-0.09,0.08,0.15
1.2931640148162842,-0.14,-0.07,0.09,0.18
1.3032150268554688,-0.01,0.01,0.12,0.12
1.3131859302520752,0.11,-0.03,0.21,0.23
1.3230459690093994,0.15,-0.1,0.15,0.23
1.3360378742218018,0.09,-0.04,0.0,0.09
1.3434689044952393,-0.03,0.03,-0.05,0.06
1.3704121112823486,-0.2,0.19,0.05,0.28
1.3721559047698975,-0.35,0.19,0.15,0.42
1.3734869956970215,-0.36,0.04,0.09,0.37
1.386944055557251,-0.17,-0.01,-0.09,0.19
1.3925440311431885,0.08,0.0,-0.2,0.21
1.4030511379241943,0.31,0.06,-0.27,0.41
1.4124538898468018,0.4,0.08,-0.25,0.47
1.4224488735198975,0.26,0.01,-0.29,0.38
1.4354450702667236,0.02,-0.01,-0.43,0.43
1.4448201656341553,-0.13,0.06,-0.47,0.49
1.467360019683838,-0.16,0.1,-0.4,0.44
1.4689900875091553,-0.08,0.11,-0.35,0.37
1.4714760780334473,0.06,0.11,-0.35,0.37
1.4892661571502686,0.16,0.13,-0.34,0.39
1.49167799949646,0.02,0.08,-0.34,0.34
1.5015180110931396,-0.06,0.0,-0.34,0.34
1.511890172958374,-0.07,0.04,-0.32,0.33
1.5215561389923096,-0.09,0.1,-0.27,0.3
1.5321850776672363,-0.11,0.04,-0.29,0.31
1.5441620349884033,-0.09,0.08,-0.31,0.33
1.5662050247192383,-0.16,0.18,-0.36,0.43
1.567870855331421,-0.22,0.17,-0.35,0.44
1.5712049007415771,-0.17,0.13,-0.3,0.36
1.5875351428985596,-0.04,0.05,-0.31,0.31
1.5910019874572754,-0.16,0.08,-0.55,0.57
1.6032168865203857,-0.38,0.25,-0.69,0.82
1.6109039783477783,-0.32,0.26,-0.43,0.59
1.6208300590515137,-0.01,0.07,-0.18,0.19
1.6337549686431885,0.27,-0.04,-0.2,0.33
1.6410040855407715,0.18,0.07,-0.17,0.25
1.6736869812011719,-0.07,0.2,-0.31,0.37
1.6755499839782715,-0.11,0.11,-0.46,0.48
1.6770009994506836,0.06,0.05,-0.25,0.26
1.6871778964996338,0.69,-0.33,-0.04,0.76
1.6903150081634521,1.37,-1.23,-0.33,1.87
1.7031948566436768,1.45,-1.39,-1.31,2.39
1.7103099822998047,1.29,-0.46,-1.5,2.03
1.7200779914855957,1.23,-0.18,-0.82,1.48
1.7331321239471436,1.66,-0.91,-0.66,2.0
1.740483045578003,2.28,-1.34,-0.96,2.81
1.7739579677581787,2.19,-1.35,-0.6,2.64
1.775743007659912,1.21,-1.42,-0.09,1.86
1.7771899700164795,0.14,-1.35,0.15,1.36
1.7859830856323242,-0.3,-0.96,0.53,1.13
1.7895381450653076,-0.77,-0.48,0.89,1.27
1.8025901317596436,-2.29,1.78,1.63,3.32
1.809553861618042,-4.66,3.48,4.01,7.06
1.8197979927062988,-5.94,3.22,7.18,9.85
1.8293168544769287,-4.54,0.31,5.97,7.5
1.8416378498077393,-1.87,-0.75,0.71,2.13
1.8736169338226318,0.46,0.37,-3.03,3.08
1.8754019737243652,0.99,0.23,-3.12,3.28
1.8768110275268555,1.58,-0.39,-1.56,2.25
1.886754035949707,1.82,-0.48,-0.44,1.93
1.8887460231781006,1.06,-0.37,0.06,1.12
1.9033269882202148,0.53,-0.59,0.48,0.92
1.9086670875549316,0.26,-0.46,0.44,0.68
1.919969081878662,-0.62,0.35,0.46,0.84
1.9287049770355225,-1.23,1.07,0.72,1.78
1.9390370845794678,-1.12,0.89,0.76,1.61
1.9730050563812256,-0.33,0.23,0.57,0.69
1.974825143814087,0.65,-0.13,0.44,0.79
1.976294994354248,0.84,0.04,-0.13,0.85
1.9872000217437744,0.42,0.16,-0.41,0.6
1.9886910915374756,0.07,0.08,-0.2,0.22
2.003129005432129,-0.04,0.08,0.04,0.09
2.007863998413086,0.03,-0.03,-0.12,0.12
2.0194408893585205,-0.02,-0.15,-0.87,0.88
2.0282180309295654,-0.13,0.11,-0.88,0.89
2.03816819190979,-0.07,0.15,-0.45,0.47
2.0508182048797607,-0.08,-0.02,-0.32,0.33
2.075026035308838,-0.24,0.04,0.17,0.29
2.076596975326538,-0.53,0.15,0.32,0.63
2.0781471729278564,-0.74,0.16,0.28,0.8
2.0872409343719482,-0.45,0.06,0.3,0.54
2.0972530841827393,-0.11,0.05,-0.02,0.12
2.107146978378296,-0.04,0.17,-0.35,0.39
2.117327928543091,0.06,0.11,-0.24,0.27
2.1271610260009766,0.05,0.04,-0.03,0.07
2.137017011642456,-0.08,0.03,0.18,0.19
2.147139072418213,-0.26,0.11,0.29,0.4
2.1766650676727295,-0.41,0.19,0.17,0.48
2.1783270835876465,-0.41,0.12,-0.06,0.43
2.1798431873321533,-0.04,-0.07,-0.15,0.17
2.186537981033325,0.33,-0.18,-0.18,0.41
2.2032880783081055,0.35,-0.12,-0.21,0.42
2.2063980102539062,0.22,-0.09,-0.01,0.23
2.219712018966675,0.16,-0.07,0.27,0.32
2.226228952407837,0.28,-0.08,0.47,0.55
2.23603892326355,0.35,-0.1,0.49,0.61
2.2465760707855225,0.5,-0.18,0.51,0.73
2.2760720252990723,0.72,-0.33,0.43,0.9
2.277722120285034,0.75,-0.42,0.22,0.88
2.2792890071868896,0.72,-0.38,0.14,0.82
2.2858500480651855,0.83,-0.33,0.17,0.9
2.2957370281219482,0.96,-0.37,0.19,1.04
2.3056600093841553,0.99,-0.37,0.22,1.07
2.315737009048462,0.83,-0.3,0.26,0.92
2.325701951980591,0.46,-0.23,0.27,0.58
2.335556983947754,0.0,-0.09,0.2,0.21
2.346000909805298,-0.57,0.13,-0.06,0.58
2.373345136642456,-1.39,0.56,-0.36,1.54
2.3750178813934326,-2.01,0.95,-0.3,2.24
2.3766560554504395,-1.88,0.77,-0.1,2.03
2.388335943222046,-1.25,0.38,-0.05,1.3
2.395177125930786,-0.81,0.25,-0.27,0.88
2.4047939777374268,-0.73,0.26,-0.35,0.85
2.415126085281372,-0.55,0.08,-0.36,0.66
2.424898862838745,-0.22,-0.07,-0.46,0.51
2.435350179672241,0.12,-0.13,-0.41,0.44
2.4483039379119873,0.07,-0.19,-0.24,0.31
2.479426145553589,0.38,-0.21,-0.03,0.43
2.4809839725494385,1.24,-0.21,0.74,1.45
2.4824888706207275,1.3,-0.42,1.03,1.71
2.4840428829193115,1.07,-0.51,0.75,1.4
2.4944610595703125,1.14,-0.47,0.39,1.29
2.5043389797210693,0.91,-0.27,0.03,0.94
2.5141351222991943,0.26,0.0,-0.09,0.27
2.5242509841918945,-0.31,0.04,0.01,0.31
2.5339620113372803,-0.5,-0.04,0.17,0.52
2.5439419746398926,-0.38,0.04,0.37,0.53
2.576066017150879,-0.33,0.08,0.39,0.51
2.5779120922088623,-0.57,0.05,0.23,0.61
2.5793511867523193,-0.96,0.21,-0.11,0.98
2.5829670429229736,-1.1,0.28,-0.57,1.27
2.5935161113739014,-0.94,0.28,-0.87,1.31
2.6033270359039307,-0.5,0.25,-0.61,0.82
2.613478899002075,-0.12,0.18,-0.24,0.32
2.6232800483703613,-0.05,0.28,-0.17,0.33
2.6333670616149902,-0.22,0.26,-0.42,0.54
2.643264055252075,-0.39,0.14,-0.71,0.82
2.676990032196045,-0.23,0.06,-0.67,0.71
2.678795099258423,0.24,-0.06,-0.29,0.38
2.6802241802215576,0.53,-0.09,-0.07,0.54
2.683258056640625,0.53,-0.05,0.12,0.54
2.703538179397583,0.32,0.01,0.24,0.4
2.7049310207366943,-0.06,0.01,0.37,0.37
2.719628095626831,-0.33,0.08,0.42,0.54
2.722445011138916,-0.48,0.13,0.17,0.52
2.7356388568878174,-0.61,0.07,-0.24,0.65
2.7429699897766113,-0.35,0.04,-0.37,0.51
2.778223991394043,0.33,0.05,-0.21,0.39
2.7799232006073,0.52,-0.03,-0.38,0.64
2.781583070755005,0.4,-0.11,-0.36,0.54
2.783043146133423,0.16,0.02,-0.23,0.28
2.803647994995117,-0.21,0.06,-0.24,0.32
2.8050968647003174,-0.43,0.11,-0.19,0.48
2.820470094680786,-0.29,0.15,0.08,0.33
2.8219411373138428,-0.01,-0.02,-0.02,0.03
2.835829973220825,0.16,-0.03,-0.14,0.21
2.841506004333496,0.26,-0.03,-0.23,0.34
2.8557851314544678,0.32,-0.02,-0.28,0.42
2.880108118057251,0.13,0.04,-0.31,0.33
2.8815619945526123,-0.14,0.07,-0.14,0.21
2.8825430870056152,-0.21,0.1,-0.02,0.23
2.891386032104492,-0.31,0.1,-0.1,0.34
2.9013350009918213,-0.28,0.04,-0.08,0.29
2.911241054534912,-0.05,-0.01,-0.09,0.1
2.921133041381836,0.33,-0.07,-0.05,0.34
2.9310009479522705,0.3,-0.04,0.01,0.3
2.9409101009368896,0.16,-0.09,0.21,0.27
2.951382875442505,0.26,-0.09,0.35,0.44
2.9782819747924805,0.12,-0.05,0.27,0.29
2.9799468517303467,0.03,0.0,0.15,0.15
2.9815590381622314,0.03,0.06,0.03,0.07
2.9908149242401123,-0.2,0.09,-0.33,0.39
3.0036399364471436,-0.12,0.09,-0.35,0.38
3.010352849960327,0.39,0.04,0.13,0.41
3.020311117172241,0.31,0.0,0.17,0.35
3.029942035675049,0.09,0.06,-0.14,0.17
3.0402681827545166,0.24,0.02,-0.26,0.35
3.050800085067749,0.27,0.01,-0.41,0.49
3.0784599781036377,-0.04,-0.01,-0.53,0.53
3.080034017562866,-0.35,0.09,-0.39,0.53
3.081132173538208,-0.74,0.19,-0.25,0.8
3.089972972869873,-1.22,0.27,-0.03,1.24
3.0998661518096924,-1.32,0.3,0.08,1.35
3.1097381114959717,-1.06,0.34,0.04,1.11
3.1196579933166504,-0.96,0.27,-0.32,1.04
3.129523992538452,-0.63,0.14,-0.61,0.88
3.1394360065460205,-0.25,0.03,-0.46,0.52
3.150022029876709,-0.13,0.04,-0.26,0.29
3.1786839962005615,0.04,0.1,-0.28,0.3
3.180109977722168,0.1,0.1,-0.39,0.41
3.1813161373138428,0.09,0.01,-0.53,0.53
3.1889841556549072,0.03,0.04,-0.49,0.49
3.199068069458008,-0.06,-0.04,-0.33,0.33
3.2090070247650146,-0.01,-0.06,-0.06,0.08
3.2191309928894043,0.16,0.14,0.09,0.23
3.2286908626556396,0.1,0.21,0.09,0.24
3.2387969493865967,-0.08,0.15,-0.18,0.24
3.2491209506988525,-0.01,0.32,-0.48,0.57
3.2856929302215576,0.0,0.48,-1.01,1.11
3.2875499725341797,-0.2,0.42,-1.07,1.16
3.2889890670776367,-0.44,0.32,-0.77,0.94
3.3037030696868896,-0.59,0.38,-0.61,0.92
3.3052070140838623,-0.71,0.35,-0.63,1.01
3.3203680515289307,-0.46,0.27,-0.45,0.69
3.3219070434570312,-0.21,0.35,-0.42,0.58
3.337449073791504,-0.02,0.46,-0.68,0.82
3.3389718532562256,0.21,0.43,-0.99,1.09
3.355302095413208,0.17,0.66,-1.23,1.4
3.3783960342407227,0.01,0.87,-1.38,1.63
3.380293130874634,-0.04,1.47,-1.11,1.84
3.3814730644226074,-0.22,1.94,-0.65,2.05
3.387112855911255,-0.52,2.31,-0.5,2.42
3.3973491191864014,-0.64,2.86,-0.44,2.96
3.407572031021118,-0.54,3.04,-1.11,3.28
3.4173099994659424,-0.34,3.5,-0.9,3.62
3.4273569583892822,-0.43,3.19,-1.17,3.42
3.4371700286865234,-0.82,3.23,-1.49,3.65
3.4472129344940186,-1.15,3.18,-1.47,3.68
3.4789299964904785,-1.45,3.01,-1.41,3.62
3.4805870056152344,-1.97,2.81,-1.62,3.79
3.4821910858154297,-2.28,2.76,-1.95,4.07
3.4869279861450195,-2.45,2.75,-2.17,4.27
3.496706008911133,-2.43,2.46,-2.34,4.17
3.5068581104278564,-2.13,2.12,-2.41,3.85
3.51672101020813,-1.77,1.81,-2.29,3.41
3.5265309810638428,-1.17,1.51,-2.05,2.8
3.536447048187256,-0.51,1.14,-1.88,2.25
3.546734094619751,-0.2,1.09,-1.63,1.97
3.584059953689575,0.37,1.61,-1.07,1.96
3.585890054702759,1.71,3.08,-0.52,3.56
3.5873889923095703,1.6,2.68,-1.24,3.35
3.604578971862793,-0.19,-0.08,-2.59,2.59
3.6059670448303223,-1.92,-2.39,-3.43,4.6
3.6202690601348877,-4.01,-3.13,-3.31,6.06
3.6217780113220215,-4.62,-1.08,-2.04,5.16
3.637346029281616,-2.91,0.23,-0.85,3.04
3.6388208866119385,-3.44,-1.97,-1.48,4.23
3.6543939113616943,-5.39,-2.77,-2.44,6.53
3.6583211421966553,-6.42,-2.55,-2.73,7.42
3.6937129497528076,-5.92,-2.14,-2.49,6.76
3.6954028606414795,-4.75,-2.01,-2.34,5.66
3.697143077850342,-3.85,-1.74,-2.22,4.77
3.700360059738159,-3.55,-1.34,-2.09,4.33
3.7208800315856934,-3.3,-0.93,-2.18,4.06
3.722313165664673,-2.94,-0.39,-2.23,3.71
3.7376179695129395,-2.7,-0.19,-2.03,3.38
3.739037036895752,-2.86,-0.35,-1.52,3.25
3.752776861190796,-3.1,-0.38,-0.8,3.22
3.754533052444458,-3.08,-0.42,-0.17,3.11
3.795306921005249,-2.91,-0.6,0.24,2.98
3.797041177749634,-2.72,-0.76,0.42,2.85
3.7985332012176514,-2.62,-0.8,0.6,2.8
3.8000850677490234,-2.55,-0.66,0.92,2.79
3.8039681911468506,-2.3,-0.51,1.14,2.61
3.8141989707946777,-1.8,-0.39,1.23,2.21
3.8243601322174072,-1.13,-0.11,1.28,1.71
3.8343088626861572,-0.48,-0.09,1.4,1.48
3.8441150188446045,-0.22,-0.49,1.43,1.52
3.854050874710083,-0.3,-0.54,1.49,1.61
3.8797991275787354,-0.32,-0.14,1.51,1.54
3.8809220790863037,-0.03,0.34,1.52,1.55
3.8833959102630615,0.41,0.4,1.51,1.61
3.8937020301818848,0.54,0.32,1.6,1.71
3.90362286567688,0.34,0.46,1.91,1.99
3.9135401248931885,0.11,0.71,2.43,2.53
3.923626184463501,-0.01,0.92,2.92,3.06
3.9336230754852295,0.33,1.12,3.07,3.28
3.943382978439331,1.02,1.31,3.04,3.46
3.953204870223999,1.85,1.7,3.05,3.95
3.980771064758301,2.66,1.6,2.89,4.24
3.9823238849639893,3.24,1.53,2.63,4.44
3.983527898788452,3.79,1.84,2.32,4.8
3.9926769733428955,4.44,1.54,1.93,5.08
4.0033910274505615,5.19,0.95,1.6,5.51
4.012919187545776,6.02,0.57,1.21,6.16
4.023025989532471,6.84,0.28,0.78,6.89
4.032916069030762,7.53,0.32,0.52,7.55
4.042659044265747,8.58,0.71,0.33,8.61
4.053050994873047,8.97,0.99,0.2,9.02
4.090131998062134,8.75,1.57,0.39,8.89
4.091814041137695,10.35,0.3,1.12,10.41
4.092804193496704,11.82,0.3,2.16,12.01
4.104810953140259,10.53,0.39,2.16,10.75
4.10624098777771,7.67,-0.14,1.79,7.87
4.120557069778442,3.8,-2.73,1.98,5.08
4.122138977050781,-1.83,-2.08,2.51,3.73
4.137533903121948,-4.27,-0.89,2.93,5.25
4.141841173171997,-1.86,-1.0,3.28,3.9
4.152531862258911,0.66,-0.51,3.27,3.37
4.186002016067505,1.34,0.92,2.47,2.95
4.187756061553955,0.52,1.17,1.44,1.92
4.1887829303741455,-0.2,0.88,0.23,0.93
4.204890012741089,0.08,0.77,-0.58,0.96
4.20641016960144,0.49,0.64,-1.22,1.46
4.220668077468872,0.63,0.55,-1.37,1.6
4.2221620082855225,0.58,0.15,-0.7,0.92
4.237120866775513,0.53,-0.32,0.16,0.63
4.241252183914185,0.62,-0.55,1.0,1.29
4.2527570724487305,0.56,-0.61,1.52,1.73
4.287513971328735,0.25,-0.73,1.56,1.74
4.289334058761597,-0.08,-0.75,1.02,1.26
4.290812969207764,-0.26,-0.61,0.73,0.98
4.304800033569336,-0.26,-0.39,0.23,0.52
4.306196928024292,-0.03,-0.02,-0.55,0.55
4.32069206237793,0.08,0.59,-0.86,1.04
4.3221728801727295,-0.04,1.15,-0.94,1.48
4.33794903755188,-0.2,1.29,-0.99,1.63
4.340152978897095,-0.1,0.81,-1.01,1.29
4.352954149246216,0.15,0.25,-1.06,1.09
4.3841400146484375,0.34,0.26,-1.14,1.21
4.385802984237671,0.48,0.25,-0.86,1.01
4.386825084686279,0.44,0.24,-0.77,0.91
4.404767990112305,0.24,0.24,-0.77,0.84
4.40604305267334,-0.04,0.27,-0.36,0.45
4.420831918716431,-0.38,0.26,-0.18,0.49
4.422250986099243,-0.68,0.19,-0.33,0.77
4.438726186752319,-0.74,0.24,-0.4,0.87
4.440200090408325,-0.55,0.23,-0.64,0.87
4.453567981719971,-0.37,0.16,-0.82,0.91
4.462200880050659,-0.4,0.04,-0.81,0.9
4.4932379722595215,-0.61,-0.05,-0.68,0.91
4.494396924972534,-0.77,-0.06,-0.41,0.87
4.4955689907073975,-0.76,-0.12,-0.22,0.8
4.501043081283569,-0.7,-0.07,-0.38,0.79
4.509016036987305,-0.54,0.01,-0.76,0.93
4.521083116531372,-0.16,0.06,-0.44,0.47
4.52905797958374,0.22,-0.06,-0.25,0.33
4.538678884506226,0.34,-0.11,-0.28,0.45
4.5488011837005615,0.38,-0.21,-0.31,0.53
4.558789014816284,0.56,-0.29,-0.15,0.64
4.58663010597229,0.63,-0.3,0.04,0.69
4.5878989696502686,0.49,-0.23,0.15,0.56
4.588937044143677,0.28,-0.1,-0.04,0.3
4.604993104934692,0.23,-0.06,-0.1,0.25
4.608257055282593,0.28,-0.03,0.04,0.28
4.620803117752075,0.09,-0.03,0.07,0.11
4.62832498550415,-0.1,-0.01,0.28,0.29
4.637983083724976,-0.23,0.06,0.66,0.7
4.647997140884399,-0.17,-0.09,0.72,0.74
4.660668134689331,0.27,-0.35,0.64,0.77
4.689130067825317,0.58,-0.63,0.41,0.94
4.6903979778289795,0.33,-0.5,0.36,0.69
4.691363096237183,-0.24,0.07,0.01,0.25
4.7054150104522705,-0.48,0.39,-0.61,0.86
4.707437992095947,-0.73,0.47,-0.84,1.2
4.720989942550659,-0.64,0.63,-0.57,1.06
4.7275121212005615,-0.68,0.46,-0.32,0.88
4.737739086151123,-0.94,0.31,-0.46,1.09
4.747152090072632,-0.98,0.28,-0.49,1.13
4.757211923599243,-1.14,0.34,-0.39,1.25
4.7858099937438965,-1.47,0.54,-0.85,1.78
4.787567853927612,-1.35,0.71,-1.37,2.05
4.78891396522522,-1.3,0.91,-1.27,2.03
4.805293083190918,-1.43,1.02,-1.93,2.6
4.8067920207977295,-1.23,1.08,-2.06,2.63
4.821008920669556,-0.66,0.99,-2.0,2.32
4.826585054397583,0.08,0.93,-1.83,2.05
4.8379340171813965,0.46,0.74,-1.64,1.85
4.84652304649353,0.66,0.93,-1.26,1.69
4.856752157211304,0.55,1.2,-0.82,1.55
4.895414113998413,0.09,1.76,-0.23,1.77
4.897331953048706,-0.26,2.41,0.44,2.46
4.898416042327881,-0.3,3.42,0.52,3.47
4.900629997253418,-0.37,3.64,-0.75,3.73
4.921283960342407,-0.35,4.43,-0.92,4.53
4.922713041305542,-0.43,4.47,-1.21,4.65
4.93733811378479,-0.79,4.48,-1.8,4.89
4.938776969909668,-1.03,4.31,-1.95,4.84
4.951672077178955,-1.31,4.26,-2.07,4.91
4.955491065979004,-2.06,4.08,-2.04,5.0
4.997308969497681,-2.69,3.64,-1.95,4.92
4.998963117599487,-2.97,3.21,-2.07,4.83
5.000133991241455,-3.16,2.95,-1.92,4.73
5.001630067825317,-2.76,2.52,-1.64,4.08
5.00508189201355,-2.15,2.02,-1.42,3.27
5.015215158462524,-1.25,1.77,-1.23,2.49
5.025269985198975,-0.11,1.31,-1.24,1.8
5.035194158554077,1.71,1.1,-0.87,2.21
5.0452330112457275,4.02,2.19,-0.64,4.62
5.054950952529907,4.84,3.49,-1.33,6.11
5.088746070861816,1.13,1.01,-2.3,2.75
5.090376138687134,-1.64,-1.93,-2.0,3.22
5.091808080673218,-3.17,-4.23,-1.38,5.46
5.1052820682525635,-3.29,-4.62,-0.62,5.7
5.106755971908569,-1.12,-2.11,0.24,2.4
5.1211559772491455,-3.42,-2.46,-0.96,4.32
5.124346971511841,-6.85,-2.64,-1.99,7.6
5.138028860092163,-8.56,-2.09,-1.78,8.98
5.1443400382995605,-7.72,-1.69,-1.37,8.02
5.154527902603149,-5.09,-1.69,-1.63,5.6
5.194966077804565,-3.43,-1.64,-2.0,4.29
5.1964271068573,-3.02,-1.24,-2.28,3.98
5.197399854660034,-3.12,-0.73,-2.48,4.05
5.200960874557495,-3.29,-0.51,-2.29,4.04
5.2213850021362305,-3.51,-0.63,-1.69,3.94
5.222858190536499,-3.58,-0.64,-1.13,3.8
5.2381432056427,-3.46,-0.61,-0.91,3.62
5.239611864089966,-3.45,-0.54,-0.98,3.62
5.253424882888794,-3.6,-0.46,-1.13,3.8
5.254823923110962,-3.78,-0.46,-1.16,3.98
5.273241996765137,-3.73,-0.39,-0.98,3.87
5.301768064498901,-3.34,-0.19,-0.81,3.44
5.303138017654419,-2.97,-0.12,-0.84,3.08
5.304157972335815,-2.76,-0.13,-0.97,2.92
5.321958065032959,-2.66,0.07,-0.84,2.79
5.323430061340332,-2.64,0.3,-0.39,2.68
5.338181018829346,-2.63,0.36,-0.04,2.65
5.339652061462402,-2.35,0.52,0.19,2.41
5.354480981826782,-1.79,0.71,0.28,1.94
5.355942010879517,-1.17,0.67,0.22,1.36
5.370136976242065,-0.84,0.39,0.16,0.93
5.396208047866821,-0.72,0.28,0.26,0.81
5.397983074188232,-0.52,0.37,0.36,0.73
5.399028062820435,-0.12,0.68,0.35,0.77
5.401911020278931,0.42,0.91,0.31,1.04
5.4121620655059814,0.89,0.9,0.38,1.32
5.422373056411743,1.05,0.96,0.64,1.56
5.43202805519104,0.98,1.48,1.12,2.09
5.442049026489258,1.1,1.88,1.86,2.86
5.452156066894531,1.62,1.96,2.58,3.62
5.461951017379761,2.36,1.84,2.86,4.13
5.491438150405884,3.0,1.73,2.79,4.44
5.492771863937378,3.61,1.66,2.61,4.75
5.49379301071167,4.26,1.43,2.56,5.17
5.50400185585022,4.95,1.12,2.57,5.68
5.511699914932251,5.62,0.83,2.46,6.19
5.521538972854614,6.21,0.67,2.2,6.62
5.531386137008667,6.74,0.74,1.95,7.05
5.541485071182251,7.29,0.62,1.86,7.54
5.551378965377808,7.61,0.21,1.97,7.86
5.561147928237915,7.65,-0.1,2.02,7.91
5.591356992721558,7.56,-0.29,1.88,7.79
5.593173027038574,7.44,-0.42,1.58,7.61
5.5943238735198975,7.24,-0.56,1.31,7.37
5.605088949203491,6.93,-0.68,1.04,7.04
5.610696077346802,6.51,-0.76,1.06,6.63
5.620666027069092,6.31,-0.92,1.26,6.5
5.63071608543396,5.95,-1.23,1.37,6.22
5.640497922897339,5.86,-0.53,1.64,6.1
5.650613069534302,9.53,3.57,1.81,10.33
5.660386085510254,10.42,2.12,0.68,10.65
5.700917959213257,8.31,-1.87,0.47,8.53
5.702243089675903,3.17,-1.7,1.27,3.81
5.70323920249939,-1.82,-1.06,0.64,2.2
5.721926927566528,-3.9,0.6,0.59,3.98
5.723448038101196,-3.96,1.3,0.77,4.23
5.738391160964966,-2.14,1.96,1.89,3.46
5.7398600578308105,-0.81,1.36,2.47,2.93
5.754833936691284,-0.44,0.57,2.36,2.46
5.7563159465789795,-0.25,0.35,1.84,1.88
5.77034592628479,0.06,0.3,1.16,1.19
5.797878980636597,0.43,0.27,0.44,0.67
5.799232006072998,0.67,0.22,-0.09,0.71
5.800236940383911,0.89,-0.11,-0.38,0.97
5.802325963973999,1.26,-0.54,-0.43,1.43
5.808940172195435,1.65,-0.8,0.0,1.83
5.819439172744751,1.63,-0.81,0.53,1.89
5.829216003417969,1.23,-0.77,0.67,1.59
5.839246988296509,0.76,-0.71,0.88,1.36
5.848932981491089,0.2,-0.6,1.28,1.42
5.85900092124939,-0.67,-0.37,1.27,1.48
5.893549203872681,-1.56,-0.23,0.51,1.65
5.894930124282837,-1.81,0.2,-0.34,1.85
5.895956039428711,-1.18,0.73,-0.45,1.45
5.9049670696258545,-0.35,0.92,-0.68,1.19
5.908116102218628,0.08,0.7,-1.05,1.26
5.921428918838501,0.38,0.45,-0.98,1.14
5.928214073181152,0.41,0.33,-1.05,1.17
5.9384071826934814,0.33,0.19,-1.17,1.23
5.948259115219116,0.41,0.2,-1.07,1.16
5.958136081695557,0.48,0.4,-0.8,1.01
5.995841026306152,0.51,0.35,-0.39,0.73
5.997169017791748,0.46,0.17,-0.06,0.49
5.998171091079712,0.22,0.14,0.13,0.29
6.001056909561157,0.12,0.12,0.15,0.22
6.021411180496216,0.18,0.05,0.08,0.2
6.022899866104126,0.31,0.01,-0.13,0.33
6.038244962692261,0.31,-0.02,-0.36,0.47
6.0396411418914795,0.26,-0.09,-0.32,0.42
6.053470849990845,0.13,-0.13,-0.23,0.29
6.05724310874939,0.02,-0.14,-0.24,0.27
6.069976091384888,-0.19,-0.11,-0.25,0.33
6.096384048461914,-0.37,-0.07,-0.19,0.42
6.097738981246948,-0.45,-0.05,-0.04,0.45
6.098778963088989,-0.41,0.08,0.01,0.41
6.106445074081421,-0.4,0.19,-0.23,0.49
6.122035026550293,-0.3,0.18,-0.52,0.62
6.126726865768433,-0.01,0.18,-0.64,0.66
6.138315916061401,0.27,0.07,-0.48,0.55
6.146991968154907,0.32,0.06,-0.46,0.56
6.156720876693726,0.29,0.07,-0.62,0.68
6.166619062423706,0.26,0.07,-0.43,0.5
6.196887969970703,0.14,0.0,-0.19,0.23
6.198119878768921,0.02,-0.11,-0.02,0.11
6.199347972869873,-0.08,-0.08,0.23,0.25
6.206053972244263,-0.07,0.02,0.21,0.22
6.215957880020142,0.0,0.15,-0.09,0.17
6.226201057434082,0.14,0.16,-0.32,0.38
6.2362060546875,0.32,-0.01,-0.57,0.65
6.246137857437134,0.44,-0.1,-0.51,0.68
6.255925893783569,0.53,-0.14,-0.14,0.56
6.265857934951782,0.45,-0.02,0.18,0.48
6.296798944473267,0.13,0.09,0.2,0.25
6.297930955886841,-0.28,0.13,-0.02,0.3
6.299359083175659,-0.7,0.17,-0.26,0.76
6.305135011672974,-1.15,0.16,-0.46,1.24
6.3150200843811035,-1.27,0.33,-0.39,1.36
6.325582981109619,-1.23,0.41,-0.39,1.35
6.335421085357666,-1.1,0.43,-0.69,1.36
6.345157861709595,-0.75,0.35,-0.89,1.21
6.3550121784210205,-0.69,0.35,-0.9,1.18
6.365012884140015,-1.12,0.47,-0.99,1.56
6.396020174026489,-1.44,0.71,-1.35,2.09
6.397253036499023,-1.32,0.72,-1.52,2.13
6.398547887802124,-1.11,0.45,-1.55,1.95
6.404376983642578,-0.89,0.38,-1.46,1.75
6.422053098678589,-0.69,0.46,-1.47,1.68
6.424561023712158,-0.52,0.59,-1.37,1.57
6.4386351108551025,-0.41,0.96,-1.32,1.68
6.444475889205933,-0.15,1.3,-1.3,1.84
6.454228162765503,-0.2,1.78,-0.94,2.02
6.464285135269165,-0.29,1.91,-0.41,1.97
6.5006020069122314,-0.21,2.49,0.0,2.49
6.5018310546875,-0.29,2.5,-0.41,2.54
6.502929925918579,-0.67,3.04,-0.1,3.11
6.52242112159729,-0.89,2.79,0.07,2.92
6.523906946182251,-1.02,2.48,-0.1,2.68
6.5384461879730225,-1.16,2.34,-0.22,2.62
6.539916038513184,-1.38,2.26,-0.43,2.68
6.555084943771362,-1.73,2.22,-0.8,2.92
6.556565999984741,-2.19,2.24,-1.04,3.3
6.570974111557007,-2.33,2.08,-1.22,3.35
6.601001024246216,-2.18,1.99,-1.63,3.37
6.602877855300903,-2.02,1.87,-1.99,3.39
6.604295969009399,-1.9,1.71,-2.23,3.39
6.622179985046387,-1.67,1.8,-2.28,3.35
6.623595952987671,-1.41,1.8,-2.04,3.06
6.638409852981567,-1.29,1.45,-1.99,2.77
6.639887094497681,-0.97,1.33,-1.86,2.48
6.654772043228149,-0.8,1.31,-1.6,2.21
6.656226873397827,-0.51,1.14,-1.09,1.65
6.675493955612183,0.15,0.96,-0.91,1.33
6.711085081100464,0.62,0.61,-1.13,1.42
6.712361097335815,2.38,1.47,-0.75,2.89
6.7134621143341064,3.77,3.18,-0.68,4.97
6.720107078552246,2.37,2.52,-1.42,3.73
6.72117805480957,0.15,0.96,-2.03,2.25
6.738744020462036,-1.3,-0.27,-1.89,2.3
6.740206003189087,-1.79,-0.9,-1.5,2.5
6.755190134048462,-2.22,-1.55,-1.14,2.93
6.756659984588623,-3.03,-3.02,-1.25,4.45
6.770771026611328,-1.45,-2.63,-1.1,3.19
6.799133062362671,-1.4,-1.54,-1.04,2.32
6.8004310131073,-4.35,-1.77,-1.75,5.01
6.8014161586761475,-6.9,-1.88,-2.0,7.42
6.822540998458862,-7.69,-1.85,-1.35,8.02
6.824007034301758,-6.48,-1.86,-0.81,6.79
6.839040994644165,-4.62,-2.22,-0.98,5.21
6.840540170669556,-3.36,-2.33,-1.4,4.32
6.85514497756958,-3.04,-1.99,-1.69,4.0
6.856613874435425,-3.37,-1.53,-1.73,4.08
6.870944023132324,-3.92,-1.11,-1.34,4.28
6.872348070144653,-4.11,-0.89,-0.68,4.25
6.9228010177612305,-3.79,-0.89,-0.26,3.9
6.923912048339844,-3.38,-0.78,-0.09,3.47
6.924906015396118,-3.22,-0.54,-0.14,3.26
6.939236879348755,-3.42,-0.22,-0.12,3.42
6.9402899742126465,-3.63,0.04,-0.05,3.63
6.9551520347595215,-3.46,0.27,0.04,3.47
6.9566810131073,-2.93,0.61,0.19,2.99
6.971934080123901,-2.24,0.74,0.16,2.36
6.973376989364624,-1.74,0.79,-0.12,1.91
6.975370168685913,-1.45,0.98,-0.44,1.8
6.999607086181641,-1.18,1.18,-0.44,1.72
7.000841856002808,-0.91,1.18,-0.31,1.52
7.001796007156372,-0.71,1.14,-0.21,1.35
7.021488904953003,-0.66,1.28,-0.22,1.45
7.022461175918579,-0.68,1.62,-0.22,1.77
7.0385050773620605,-0.85,1.82,0.06,2.0
7.039550065994263,-1.05,1.77,0.59,2.14
7.055328130722046,-1.06,1.51,0.96,2.07
7.059767961502075,-0.97,1.3,1.18,2.0
7.070923089981079,-0.77,1.17,1.19,1.83
7.099299192428589,-0.46,1.22,1.01,1.64
7.100588083267212,-0.11,1.55,0.95,1.82
7.101569890975952,0.0,1.61,1.08,1.93
7.122327089309692,0.0,1.44,1.39,2.0
7.123293161392212,0.32,1.22,1.67,2.09
7.138868093490601,0.8,0.88,1.78,2.14
7.140351057052612,1.35,0.75,1.69,2.28
7.154986143112183,1.93,0.82,1.55,2.6
7.159051179885864,2.4,0.96,1.58,3.02
7.169516086578369,2.72,1.11,1.86,3.47
7.199143171310425,2.86,0.96,2.01,3.62
7.2004899978637695,2.98,0.85,2.02,3.69
7.201481103897095,3.35,0.95,1.87,3.95
7.222292184829712,4.03,0.99,1.76,4.5
7.223355054855347,4.95,1.1,1.94,5.42
7.238967180252075,6.07,1.07,2.1,6.51
7.240467071533203,7.03,0.52,2.17,7.37
7.255506992340088,7.3,-0.13,1.99,7.56
7.258404970169067,6.93,-0.27,1.86,7.18
7.269083023071289,6.66,-0.26,1.73,6.88
7.305350065231323,6.76,-0.2,1.61,6.95
7.306794881820679,7.11,-0.34,1.52,7.27
7.307780981063843,7.33,-0.71,1.3,7.47
7.322559118270874,7.44,-0.11,1.14,7.52
7.323606014251709,10.9,5.26,0.79,12.12
7.338773965835571,13.45,4.18,-0.35,14.08
7.3401939868927,12.59,-0.72,0.1,12.61
7.3554441928863525,8.05,-4.38,0.81,9.2
7.3573691844940186,0.75,-4.03,0.5,4.12
7.3708460330963135,-3.44,-1.93,1.0,4.06
7.404015064239502,-3.72,0.23,2.57,4.52
7.405335187911987,-1.22,1.36,3.67,4.09
7.40634298324585,0.32,2.16,4.01,4.56
7.422776937484741,0.27,1.63,2.63,3.1
7.42422890663147,0.04,1.01,1.0,1.42
7.438873052597046,0.21,1.17,0.03,1.18
7.440317869186401,0.7,0.72,0.23,1.03
7.4554619789123535,1.28,-0.27,0.78,1.52
7.4568798542022705,1.85,-0.78,0.3,2.03
7.471775054931641,2.14,-0.49,-0.42,2.23
7.503602027893066,1.45,0.06,-1.06,1.79
7.50492000579834,0.3,0.25,-1.07,1.13
7.505972146987915,-0.09,0.09,-0.07,0.14
7.522561073303223,-0.03,0.05,0.3,0.3
7.523566007614136,0.02,0.05,0.23,0.23
7.538922071456909,0.05,0.03,-0.14,0.15
7.540377855300903,0.14,0.05,-0.32,0.35
7.5553810596466064,0.44,0.23,-0.2,0.53
7.556800127029419,0.52,0.06,-0.21,0.56
7.571150064468384,0.74,0.06,-0.48,0.88
7.603819131851196,0.57,0.04,-0.66,0.87
7.6051928997039795,0.44,0.22,-0.89,1.01
7.606230020523071,-0.04,0.2,-0.76,0.78
7.622639894485474,-0.12,0.31,-0.44,0.55
7.623678922653198,-0.23,0.01,-0.49,0.54
7.639163017272949,-0.31,0.05,-0.9,0.95
7.640588045120239,-0.48,0.01,-0.95,1.06
7.655590057373047,-0.47,0.1,-0.72,0.86
7.657011985778809,-0.21,0.12,-0.45,0.51
7.671483993530273,0.05,-0.04,-0.29,0.29
7.6750099658966064,0.2,-0.14,-0.13,0.27
7.716742038726807,0.27,-0.11,0.2,0.35
7.71793007850647,0.17,-0.09,0.36,0.4
7.718938112258911,0.06,-0.05,0.09,0.11
7.739901065826416,0.01,0.0,-0.29,0.29
7.741384029388428,0.07,0.07,-0.3,0.31
7.755501985549927,0.16,0.03,-0.19,0.25
7.756998062133789,0.32,-0.03,-0.21,0.38
7.77249002456665,0.5,-0.07,-0.17,0.53
7.773953199386597,0.35,0.07,-0.03,0.35
7.788327932357788,0.09,0.16,-0.09,0.2
7.819959878921509,-0.02,0.21,-0.25,0.32
7.821346998214722,0.01,0.24,-0.33,0.4
7.8223559856414795,-0.02,0.25,-0.52,0.57
7.839769124984741,-0.13,0.16,-0.69,0.72
7.841247081756592,-0.14,0.06,-0.53,0.55
7.855647087097168,0.0,0.01,-0.2,0.2
7.857071161270142,0.18,0.04,-0.09,0.2
7.872629880905151,0.16,0.17,-0.18,0.29
7.8740761280059814,-0.06,0.27,-0.47,0.54
7.887878179550171,-0.42,0.23,-0.91,1.02
7.916650056838989,-0.77,0.24,-1.2,1.44
7.9180381298065186,-0.98,0.29,-1.04,1.45
7.919050931930542,-1.01,0.32,-0.67,1.25
7.93946385383606,-1.03,0.19,-0.48,1.15
7.940523862838745,-1.17,0.13,-0.38,1.23
7.955641031265259,-1.58,0.27,-0.35,1.64
7.957120180130005,-1.67,0.35,-0.4,1.75
7.972455024719238,-1.54,0.3,-0.45,1.63
7.973936080932617,-1.75,0.12,-0.65,1.87
7.988018989562988,-1.76,0.1,-0.92,1.98
8.014934062957764,-1.39,0.14,-0.91,1.66
8.016227006912231,-0.79,0.15,-1.02,1.29
8.01720905303955,-0.26,0.29,-1.0,1.07
8.019496202468872,-0.32,0.31,-1.45,1.51
8.02217698097229,-0.75,0.3,-1.9,2.06
8.032082080841064,-0.98,0.23,-1.6,1.89
8.04235291481018,-0.68,0.1,-0.69,0.97
8.052257061004639,-0.7,0.05,-0.16,0.71
8.062176942825317,-1.06,0.11,-0.1,1.07
8.072257041931152,-1.14,0.35,-0.22,1.21
8.107650995254517,-0.61,0.82,-0.52,1.14
8.108826875686646,0.22,1.18,-1.19,1.69
8.109855890274048,1.54,1.11,-1.44,2.38
8.122603178024292,2.13,1.08,-1.6,2.87
8.123626947402954,1.97,1.53,-1.83,3.09
8.138590097427368,1.5,1.99,-1.46,2.88
8.141599893569946,0.57,2.34,-0.53,2.46
8.155683040618896,-0.2,1.97,-0.71,2.1
8.161468029022217,-0.09,1.68,0.01,1.68
8.17139220237732,0.23,1.5,0.95,1.79
8.208932161331177,-0.61,1.73,1.14,2.15
8.210222005844116,-1.36,1.72,1.39,2.59
8.211225986480713,-1.81,1.64,1.68,2.96
8.22258996963501,-2.07,1.76,1.97,3.35
8.223675012588501,-2.23,1.52,2.12,3.43
8.239360094070435,-2.42,1.08,1.55,3.07
8.240834951400757,-2.04,1.32,1.23,2.72
8.255911111831665,-1.48,1.84,0.92,2.53
8.260663032531738,-0.94,1.83,-0.12,2.06
8.271262884140015,-0.61,1.42,-1.34,2.04
8.3093101978302,-0.29,1.21,-1.78,2.17
8.310656070709229,-0.02,0.91,-1.86,2.07
8.311630010604858,-0.05,0.75,-1.86,2.0
8.3228440284729,-0.21,0.47,-1.76,1.83
8.32387900352478,-0.14,0.59,-1.62,1.72
8.339317083358765,-0.19,1.07,-2.03,2.3
8.340780019760132,0.09,1.71,-1.92,2.57
8.355679988861084,1.33,2.71,-1.21,3.25
8.35987401008606,1.5,2.75,-1.18,3.34
8.372730016708374,-0.71,0.91,-1.84,2.17
8.40796685218811,-1.62,-0.11,-1.75,2.38
8.40938401222229,-2.07,-0.49,-1.76,2.76
8.410404920578003,-2.79,-1.16,-2.16,3.71
8.423113107681274,-3.37,-2.06,-2.03,4.44
8.424154043197632,-2.4,-1.41,-1.28,3.06
8.439417123794556,-1.74,-0.97,-1.42,2.44
8.440814018249512,-3.46,-0.97,-2.79,4.54
8.456135034561157,-5.2,-0.49,-3.92,6.53
8.459223985671997,-6.37,-0.29,-4.06,7.55
8.471590042114258,-6.47,-0.68,-3.75,7.5
8.479273080825806,-5.49,-1.32,-3.23,6.5
8.518403053283691,-4.08,-2.07,-2.86,5.39
8.519599199295044,-3.11,-2.27,-2.7,4.7
8.520599126815796,-2.8,-1.79,-2.67,4.26
8.53990387916565,-3.12,-1.09,-2.55,4.17
8.541415929794312,-3.84,-0.62,-2.33,4.53
8.555907011032104,-4.35,-0.32,-1.7,4.68
8.557381868362427,-3.99,-0.26,-1.0,4.12
8.57290506362915,-3.18,-0.38,-0.85,3.31
8.574331998825073,-2.99,-0.28,-1.22,3.24
8.588270902633667,-3.87,0.17,-1.89,4.31
8.618136167526245,-4.91,0.83,-2.0,5.36
8.61948299407959,-4.88,1.31,-1.01,5.15
8.620491027832031,-3.22,0.98,0.02,3.36
8.639636993408203,-1.17,0.52,0.6,1.41
8.640679121017456,-0.27,0.71,0.71,1.03
8.656089067459106,-0.53,1.08,0.64,1.36
8.657562971115112,-1.16,1.01,0.79,1.72
8.672944068908691,-1.49,0.82,0.95,1.94
8.67442011833191,-1.23,0.72,1.29,1.92
8.688289880752563,-0.5,0.67,1.54,1.75
8.7188720703125,0.01,0.66,1.46,1.6
8.720128059387207,-0.19,0.5,1.2,1.31
8.721122980117798,-0.54,0.28,1.09,1.24
8.739654064178467,-0.16,0.4,1.34,1.4
8.740705013275146,0.92,0.3,1.36,1.66
8.756096124649048,1.41,0.17,1.17,1.84
8.75757908821106,1.49,0.74,1.34,2.13
8.772711992263794,1.49,1.36,1.57,2.55
8.774074077606201,1.61,1.58,1.9,2.94
8.788043975830078,1.95,1.78,2.41,3.57
8.816660165786743,2.56,2.12,3.23,4.63
8.817972898483276,3.37,2.41,4.26,5.94
8.818915128707886,4.07,2.1,4.96,6.75
8.839821100234985,4.39,1.76,5.11,6.96
8.840877056121826,5.17,1.6,4.91,7.3
8.855774164199829,6.71,0.97,4.54,8.15
8.857033967971802,7.91,0.13,4.24,8.97
8.873049974441528,7.94,-0.22,3.82,8.81
8.874535083770752,7.26,0.12,3.44,8.03
8.888682126998901,6.74,0.68,2.86,7.35
8.919363021850586,6.07,2.08,2.02,6.72
8.920653104782104,5.93,0.29,0.91,6.0
8.92168116569519,7.98,2.32,0.56,8.32
8.939936876296997,12.68,1.92,0.42,12.83
8.941009998321533,15.38,1.4,1.97,15.56
8.956070184707642,12.53,-0.67,3.07,12.91
8.957556009292603,2.65,-1.86,1.69,3.65
8.973119974136353,-4.47,0.42,1.75,4.81
8.974589109420776,-4.13,1.7,3.29,5.54
8.988388061523438,-1.18,1.29,4.15,4.5
9.017176866531372,0.03,1.44,2.55,2.92
9.018548011779785,-0.39,1.62,1.16,2.03
9.01956295967102,-0.36,0.66,0.9,1.17
9.040287971496582,0.05,-0.03,0.89,0.89
9.041332960128784,0.46,-0.12,0.4,0.62
9.05619215965271,1.12,-0.37,-0.82,1.43
9.057556867599487,1.66,-0.76,-1.42,2.31
9.073387861251831,1.4,-0.63,-0.81,1.73
9.074840068817139,0.39,-0.06,0.02,0.39
9.088551044464111,-0.45,0.21,-0.06,0.5
9.116913080215454,-0.42,0.09,0.1,0.44
9.118353128433228,0.14,-0.02,0.82,0.83
9.119355916976929,0.11,-0.03,0.92,0.92
9.140023946762085,-0.4,0.04,-0.06,0.4
9.141072034835815,-0.29,0.01,-0.76,0.81
9.156262159347534,0.33,0.01,-0.66,0.73
9.15764594078064,0.86,0.05,-0.56,1.02
9.173054933547974,0.89,0.13,-0.55,1.05
9.174511194229126,0.49,0.17,-0.38,0.64
9.188713073730469,0.22,0.2,-0.54,0.61
9.218682050704956,0.19,0.28,-0.44,0.55
9.219995975494385,0.64,0.28,-0.45,0.83
9.22095513343811,1.1,-0.01,-0.63,1.26
9.240049123764038,1.03,-0.2,-0.45,1.14
9.24107813835144,0.7,-0.15,-0.08,0.72
9.256294965744019,0.54,-0.07,0.08,0.55
9.257752180099487,0.41,0.02,0.1,0.42
9.273154020309448,0.27,0.08,0.18,0.33
9.274556875228882,0.2,-0.03,0.05,0.2
9.288501024246216,0.31,-0.06,-0.16,0.35
9.289960145950317,0.32,-0.09,-0.14,0.36
9.335823059082031,0.13,-0.08,-0.08,0.17
9.336976051330566,-0.17,0.05,-0.1,0.2
9.337961912155151,-0.43,0.06,-0.18,0.47
9.358544111251831,-0.49,0.08,-0.15,0.51
9.36004900932312,-0.21,0.07,-0.06,0.22
9.373085975646973,0.01,0.02,-0.12,0.12
9.37453293800354,0.09,-0.06,-0.21,0.23
9.389776945114136,-0.09,-0.01,-0.36,0.37
9.391283988952637,-0.54,0.12,-0.19,0.58
9.405357122421265,-0.56,0.25,0.05,0.61
9.435863018035889,-0.41,0.31,-0.03,0.51
9.437100172042847,-0.38,0.31,-0.2,0.52
9.438047170639038,-0.17,0.22,-0.28,0.39
9.456752061843872,-0.05,0.18,-0.25,0.31
9.457802057266235,-0.03,0.16,-0.47,0.49
9.473286867141724,0.04,0.19,-0.65,0.67
9.47474217414856,-0.03,0.12,-0.77,0.77
9.4899320602417,-0.16,0.1,-0.59,0.61
9.491400957107544,-0.37,0.2,-0.44,0.6
9.505439043045044,-0.5,0.22,-0.68,0.87
9.533761024475098,-0.54,0.26,-0.54,0.8
9.535078048706055,-0.52,0.26,-0.39,0.7
9.536021947860718,-0.44,0.15,-0.51,0.69
9.556933164596558,-0.47,0.12,-0.66,0.81
9.557963132858276,-0.8,0.17,-0.8,1.14
9.572942972183228,-1.22,0.2,-1.02,1.6
9.573978185653687,-1.41,0.18,-1.12,1.8
9.589732885360718,-1.14,0.34,-0.86,1.46
9.591210126876831,-0.91,0.33,-0.66,1.17
9.605394124984741,-0.9,0.41,-0.87,1.31
9.631803035736084,-1.01,0.4,-1.16,1.58
9.63311505317688,-1.17,0.19,-1.29,1.75
9.634158849716187,-1.23,0.04,-1.1,1.65
9.636744976043701,-1.0,-0.03,-0.87,1.32
9.638254880905151,-0.67,0.26,-0.86,1.12
9.639908075332642,-0.14,0.71,-1.0,1.23
9.649925947189331,0.26,0.79,-1.1,1.37
9.660125017166138,0.57,0.83,-1.4,1.72
9.670139074325562,1.13,1.23,-1.42,2.19
9.679936170578003,1.22,1.36,-1.36,2.27
9.712553024291992,0.65,1.81,-1.87,2.68
9.71387505531311,-0.3,2.63,-1.52,3.05
9.71498417854309,-1.1,3.32,-0.65,3.55
9.719717979431152,-1.06,2.86,-1.45,3.37
9.729533910751343,-0.77,2.6,-1.35,3.02
9.739826917648315,-0.91,2.22,-0.23,2.41
9.74943208694458,-1.59,1.82,-0.02,2.41
9.759207010269165,-2.06,1.86,0.26,2.78
9.769348859786987,-2.18,2.01,0.76,3.06
9.779328107833862,-2.43,2.16,1.09,3.42
9.814360857009888,-1.99,1.89,1.13,2.96
9.815693140029907,-1.43,1.63,0.64,2.26
9.816649198532104,-1.05,1.47,0.31,1.83
9.81904911994934,-0.29,1.27,0.19,1.31
9.839792966842651,0.34,1.11,-0.6,1.3
9.840844869613647,0.65,0.85,-1.5,1.84
9.856051206588745,0.67,0.56,-1.84,2.03
9.858321905136108,0.68,0.56,-1.79,1.99
9.872059106826782,0.47,0.43,-1.58,1.7
9.878535032272339,0.45,0.26,-1.75,1.82
9.91418719291687,0.41,0.36,-2.17,2.23
9.915408849716187,0.7,1.29,-2.13,2.58
9.916629076004028,1.77,2.5,-1.91,3.6
9.91956114768982,0.36,1.5,-2.59,3.01
9.939870119094849,-2.01,-0.11,-2.66,3.33
9.940930128097534,-2.34,-0.4,-1.73,2.93
9.956938028335571,-1.93,-0.41,-1.26,2.34
9.9583899974823,-2.31,-1.18,-1.52,3.0
9.972552061080933,-2.66,-1.85,-1.2,3.45
9.977679014205933,-1.26,-2.14,-0.09,2.48
10.015830993652344,-2.65,-2.69,-0.36,3.79
10.016979932785034,-4.99,-2.48,-1.25,5.71
10.018140077590942,-6.72,-2.18,-1.34,7.19
10.01969313621521,-7.07,-1.76,-1.07,7.36
10.027057886123657,-5.98,-1.52,-0.95,6.24
10.037254095077515,-4.12,-1.63,-1.22,4.59
10.047199964523315,-2.56,-1.7,-1.65,3.48
10.057069063186646,-1.82,-1.68,-2.05,3.21
10.066879034042358,-1.64,-1.52,-2.3,3.2
10.07706093788147,-1.74,-1.33,-2.26,3.14
10.087076902389526,-1.9,-1.02,-1.87,2.85
10.118623971939087,-1.85,-0.85,-1.46,2.5
10.119829893112183,-1.7,-0.83,-1.21,2.24
10.120804071426392,-1.7,-0.74,-1.07,2.14
10.140249967575073,-1.89,-0.47,-0.92,2.15
10.14130187034607,-2.26,-0.24,-0.72,2.38
10.15613603591919,-2.61,-0.03,-0.52,2.66
10.157152891159058,-2.67,0.33,-0.28,2.7
10.173667192459106,-2.44,0.57,-0.09,2.5
10.176172018051147,-2.07,0.69,0.02,2.18
10.18784785270691,-1.73,0.9,0.14,1.95
10.21924901008606,-1.57,0.92,0.36,1.85
10.220526933670044,-1.56,0.67,0.63,1.81
10.22152590751648,-1.43,0.45,1.03,1.81
10.24040699005127,-1.06,0.28,1.28,1.68
10.241456031799316,-0.72,-0.04,1.19,1.39
10.256508111953735,-0.64,-0.29,0.84,1.09
10.257964849472046,-0.58,-0.05,0.45,0.73
10.273653030395508,-0.27,0.58,0.41,0.75
10.275313138961792,-0.15,1.06,0.7,1.27
10.288879156112671,-0.38,1.24,1.1,1.7
10.3176748752594,-0.77,1.08,1.44,1.95
10.319056034088135,-0.86,1.1,1.62,2.13
10.320026159286499,-0.49,1.36,1.63,2.17
10.342221021652222,-0.13,1.48,1.81,2.34
10.343291997909546,0.15,1.44,2.04,2.5
10.356770992279053,0.53,1.22,2.09,2.47
10.358279943466187,0.89,0.91,1.89,2.27
10.373769044876099,1.14,0.67,1.55,2.03
10.375257968902588,1.38,0.55,1.21,1.91
10.38926386833191,1.85,0.64,0.99,2.19
10.41891098022461,2.33,0.62,1.03,2.62
10.42031216621399,2.71,0.32,1.2,2.98
10.42132306098938,2.99,-0.01,1.33,3.27
10.44039797782898,3.25,0.01,1.43,3.55
10.441478967666626,3.73,0.14,1.4,3.98
10.456960916519165,4.44,0.0,1.32,4.63
10.458394050598145,5.15,-0.26,1.23,5.3
10.473773002624512,5.97,-0.17,1.04,6.06
10.475269079208374,6.6,-0.64,0.42,6.64
10.487931966781616,6.88,-1.31,0.5,7.02
10.52311110496521,7.24,-1.53,1.08,7.47
10.524424076080322,8.11,-0.36,1.15,8.19
10.525438070297241,10.67,3.44,0.84,11.24
10.541319131851196,12.83,2.5,0.7,13.09
10.542804956436157,12.98,2.78,2.66,13.53
10.556756973266602,11.3,1.13,4.25,12.12
10.558221101760864,6.56,-3.29,4.12,8.41
10.573816061019897,-2.14,-2.54,3.66,4.94
10.575309991836548,-6.6,-1.26,3.64,7.64
10.589137077331543,-4.28,-0.21,4.79,6.42
10.622459173202515,-0.6,0.11,5.74,5.77
10.623747110366821,1.13,0.29,5.35,5.47
10.624752044677734,0.2,0.59,2.96,3.02
10.641070127487183,-1.14,1.07,-0.57,1.66
10.642573118209839,-1.16,1.87,-3.3,3.96
10.656842947006226,0.02,2.21,-3.74,4.34
10.658331155776978,1.43,1.12,-2.15,2.81
10.673895120620728,1.95,-0.38,-0.1,1.98
10.675371885299683,1.56,-0.95,1.13,2.14
10.689310073852539,0.38,-0.47,1.43,1.55
10.721656084060669,-0.84,0.0,0.83,1.18
10.72293210029602,-0.89,-0.02,0.37,0.96
10.723949193954468,-0.22,-0.23,0.64,0.71
10.741422891616821,0.39,-0.24,0.84,0.95
10.742933988571167,0.6,-0.17,0.92,1.11
10.756819009780884,0.27,-0.51,0.44,0.72
10.758315086364746,0.09,-0.73,-0.26,0.78
10.773675203323364,0.3,-0.42,-0.48,0.7
10.775125980377197,0.37,-0.05,-0.54,0.65
10.789209127426147,0.17,0.17,-0.81,0.84
10.82091498374939,-0.2,0.56,-1.01,1.17
10.822211027145386,-0.47,0.83,-1.01,1.38
10.823162078857422,-0.42,0.69,-0.98,1.27
10.84143614768982,-0.37,0.48,-0.98,1.15
10.842807054519653,-0.35,0.35,-0.79,0.93
10.856763124465942,-0.2,0.4,-0.62,0.76
10.858276128768921,0.24,0.27,-0.58,0.68
10.873878002166748,0.62,0.18,-0.67,0.93
10.87533688545227,0.6,0.13,-0.56,0.83
10.889221906661987,0.77,0.09,-0.31,0.83
10.890599966049194,0.81,0.02,-0.2,0.83
10.936298131942749,0.64,-0.03,0.04,0.64
10.937461137771606,0.34,-0.08,0.12,0.36
10.93843698501587,0.04,-0.15,0.05,0.16
10.957386016845703,0.1,-0.21,0.19,0.3
10.958790063858032,0.22,-0.23,0.39,0.5
10.973757028579712,-0.03,-0.19,0.45,0.48
10.97525405883789,-0.06,-0.07,0.31,0.32
10.990468978881836,0.09,0.18,0.14,0.24
10.991935968399048,-0.06,0.19,0.01,0.19
11.006080865859985,-0.07,-0.05,-0.33,0.34
11.035029172897339,0.23,0.01,-0.4,0.46
11.036371946334839,0.55,0.12,-0.55,0.78
11.037389039993286,0.78,0.09,-0.35,0.85
11.057015180587769,0.46,-0.06,-0.24,0.52
11.05809497833252,-0.12,-0.04,-0.63,0.64
11.073899030685425,-0.26,0.18,-0.56,0.64
11.075232028961182,-0.17,0.28,0.14,0.35
11.090401887893677,-0.07,0.08,0.09,0.13
11.091811895370483,-0.34,0.13,-0.58,0.68
11.105905055999756,-0.9,0.53,-1.28,1.65
11.134255170822144,-1.31,0.75,-1.9,2.42
11.135523080825806,-1.44,0.67,-2.15,2.67
11.136527061462402,-1.7,0.47,-2.13,2.76
11.157742977142334,-1.95,0.55,-2.07,2.89
11.159235000610352,-1.7,0.5,-1.95,2.63
11.174145936965942,-1.6,0.43,-1.71,2.38
11.175621032714844,-1.75,0.44,-1.6,2.41
11.190708875656128,-1.93,0.33,-1.45,2.43
11.192200899124146,-1.77,0.25,-1.24,2.17
11.206358194351196,-1.4,0.16,-0.94,1.69
11.234415054321289,-0.82,0.25,-0.88,1.22
11.235849142074585,-0.16,0.22,-0.72,0.76
11.236924886703491,0.45,0.3,-0.51,0.74
11.257663011550903,0.8,0.85,-0.67,1.34
11.258711099624634,0.46,1.27,-1.22,1.82
11.274134874343872,-0.15,1.61,-1.36,2.11
11.27556300163269,-0.01,2.04,-1.08,2.3
11.290377855300903,0.44,2.29,-0.16,2.33
11.2918860912323,-0.14,2.96,0.96,3.11
11.306532144546509,-0.24,2.8,0.72,2.9
11.335006952285767,-0.35,2.16,-0.72,2.3
11.3363778591156,-0.73,2.74,-0.02,2.83
11.337424039840698,-1.14,2.29,-0.08,2.55
11.35762906074524,-1.68,2.4,-0.35,2.95
11.358672857284546,-1.48,2.38,0.27,2.81
11.37422800064087,-1.44,2.36,0.55,2.81
11.375531911849976,-1.65,2.14,0.08,2.7
11.3907310962677,-2.1,1.95,-0.27,2.87
11.39222002029419,-2.7,1.98,-0.3,3.36
11.405937910079956,-2.59,1.99,-0.53,3.3
11.436071157455444,-1.8,1.95,-0.7,2.74
11.43740200996399,-1.1,1.77,-0.96,2.29
11.438413858413696,-0.5,1.26,-1.14,1.77
11.457550048828125,0.09,0.49,-1.17,1.27
11.459038019180298,0.48,0.08,-1.69,1.75
11.47425103187561,0.87,0.25,-2.09,2.27
11.475748062133789,2.02,1.31,-2.03,3.14
11.490648984909058,3.46,2.58,-1.99,4.75
11.492133855819702,2.67,2.21,-2.18,4.09
11.506203889846802,-0.1,0.11,-2.35,2.35
11.535356998443604,-2.0,-1.5,-2.43,3.48
11.536667108535767,-2.83,-2.41,-2.44,4.44
11.537657022476196,-3.21,-2.14,-2.11,4.39
11.556318998336792,-1.45,0.43,0.01,1.51
11.55731201171875,-1.26,-1.01,-0.41,1.66
11.570788145065308,-4.04,-2.06,-2.25,5.06
11.57219386100769,-6.32,-1.78,-2.8,7.13
11.587966203689575,-6.9,-1.5,-2.68,7.55
11.589534044265747,-5.88,-1.55,-2.76,6.67
11.606290102005005,-4.13,-1.94,-3.01,5.46
11.635884046554565,-2.64,-2.11,-3.03,4.53
11.637351036071777,-1.83,-2.09,-3.02,4.1
11.638336896896362,-1.68,-1.7,-3.11,3.92
11.657597064971924,-1.9,-1.19,-3.06,3.79
11.658643960952759,-2.16,-0.93,-2.83,3.67
11.674236059188843,-2.44,-0.82,-2.67,3.7
11.675692081451416,-2.9,-0.69,-2.68,4.0
11.691242933273315,-3.53,-0.45,-2.69,4.46
11.692720174789429,-3.95,-0.13,-2.37,4.6
11.706163167953491,-3.85,0.17,-1.54,4.15
11.707646131515503,-3.37,0.19,-0.89,3.49
11.752619981765747,-2.92,0.11,-0.49,2.96
11.753844022750854,-2.81,-0.03,-0.23,2.81
11.754849195480347,-2.86,-0.02,-0.05,2.86
11.774847984313965,-2.89,0.32,0.29,2.92
11.776345014572144,-2.91,0.51,0.78,3.05
11.790870904922485,-2.88,0.44,1.0,3.08
11.792346000671387,-2.62,0.46,1.15,2.89
11.807439088821411,-2.17,0.42,1.33,2.57
11.80888819694519,-1.77,0.31,1.47,2.32
11.8231041431427,-1.38,0.34,1.71,2.22
11.85288691520691,-0.76,0.23,1.86,2.02
11.854135036468506,0.01,0.08,1.79,1.79
11.855148077011108,0.52,0.05,1.65,1.73
11.87426209449768,0.74,0.31,1.62,1.8
11.87531304359436,0.96,0.43,1.78,2.06
11.89084005355835,1.2,0.23,2.05,2.38
11.892256021499634,1.66,0.19,2.18,2.74
11.906110048294067,2.53,0.55,2.16,3.37
11.907508134841919,3.53,1.03,2.09,4.22
11.923465013504028,4.06,1.26,2.05,4.71
11.953663110733032,4.08,1.47,2.22,4.87
11.954990148544312,3.99,1.78,2.6,5.08
11.955996036529541,4.26,2.0,3.07,5.61
11.974385023117065,5.03,1.79,3.52,6.39
11.975483179092407,5.78,1.09,3.67,6.93
11.990921974182129,5.96,0.33,3.76,7.05
11.992396116256714,5.78,-0.2,3.89,6.96
12.007768869400024,5.55,-0.56,3.87,6.78
12.009283065795898,5.37,-0.78,3.7,6.56
12.023136854171753,5.54,2.81,2.7,6.77
12.05153203010559,8.43,1.2,1.52,8.64
12.052887201309204,14.1,1.02,2.72,14.39
12.053892850875854,17.92,3.53,5.15,18.97
12.074732065200806,18.29,2.89,4.77,19.12
12.075788021087646,9.7,-0.43,2.45,10.01
12.091200113296509,-2.46,-1.03,-0.15,2.67
12.092664003372192,-7.14,0.33,-0.82,7.19
12.107784032821655,-4.13,1.8,0.44,4.52
12.109246969223022,-0.84,2.18,0.83,2.47
12.123293161392212,0.37,1.26,0.46,1.39
12.151743173599243,0.87,-0.07,0.94,1.28
12.153101205825806,0.7,-0.3,1.36,1.55
12.154108047485352,-0.02,0.03,0.68,0.68
12.174760103225708,-0.39,0.19,0.0,0.43
12.175739049911499,0.09,-0.1,-0.23,0.26
12.190824031829834,1.04,-0.49,-0.41,1.22
12.191860914230347,1.53,-0.62,-0.39,1.69
12.207604169845581,1.28,-0.51,0.17,1.38
12.209034204483032,0.7,-0.35,0.92,1.2
12.223314046859741,0.2,-0.25,1.55,1.58
12.249636888504028,-0.07,-0.38,1.69,1.73
12.251020193099976,-0.28,-0.46,1.17,1.28
12.252034902572632,-0.34,-0.25,0.56,0.7
12.254454851150513,-0.06,0.01,0.45,0.45
12.255837202072144,0.34,0.0,0.37,0.5
12.257264852523804,0.21,-0.09,-0.18,0.29
12.260220050811768,-0.03,0.07,-0.56,0.56
12.270332098007202,-0.14,0.18,-0.13,0.26
12.280317068099976,-0.46,0.06,0.2,0.5
12.29024600982666,-0.44,0.03,0.02,0.44
12.321649074554443,-0.15,0.08,-0.25,0.3
12.322597026824951,0.16,-0.01,-0.26,0.3
12.323304891586304,0.34,-0.1,-0.12,0.37
12.339905977249146,0.22,0.09,-0.32,0.39
12.340970039367676,0.23,0.22,-0.51,0.6
12.357205152511597,0.58,0.11,-0.33,0.67
12.359456062316895,0.63,0.12,-0.21,0.67
12.374100923538208,0.44,0.09,-0.33,0.55
12.379356145858765,0.36,0.1,-0.35,0.51
12.389677047729492,0.17,0.19,-0.45,0.51
12.425127983093262,0.04,0.25,-0.84,0.87
12.426517009735107,0.11,0.27,-0.93,0.97
12.427486181259155,0.22,0.27,-0.73,0.8
12.441707849502563,0.27,0.12,-0.6,0.66
12.4427330493927,0.33,0.05,-0.32,0.46
12.457258939743042,0.32,0.04,-0.08,0.33
12.458636999130249,0.04,-0.04,-0.03,0.06
12.474020004272461,-0.21,0.01,-0.07,0.22
12.47883915901184,-0.29,0.13,-0.1,0.33
12.488851070404053,-0.35,0.12,-0.27,0.45
12.498763084411621,-0.25,0.01,-0.43,0.49
12.53159785270691,-0.04,-0.04,-0.4,0.4
12.532760858535767,-0.04,-0.07,-0.18,0.19
12.533927202224731,-0.19,-0.08,-0.04,0.21
12.538640022277832,-0.41,0.04,-0.1,0.42
12.548233032226562,-0.59,0.15,-0.17,0.63
12.558000087738037,-0.37,0.16,-0.19,0.44
12.568121194839478,-0.02,0.15,-0.21,0.25
12.578070878982544,0.23,0.04,-0.44,0.49
12.588255167007446,0.56,-0.09,-0.53,0.77
12.598136186599731,0.68,-0.08,-0.3,0.74
12.630645036697388,0.39,0.07,-0.22,0.45
12.63260817527771,-0.06,0.16,-0.12,0.2
12.633713006973267,-0.54,0.31,-0.09,0.62
12.638844013214111,-0.81,0.32,-0.47,0.98
12.64755892753601,-0.69,0.27,-0.74,1.04
12.657522916793823,-0.46,0.22,-0.85,0.99
12.667465925216675,-0.39,0.22,-0.76,0.88
12.677175045013428,-0.25,0.12,-0.54,0.6
12.687229871749878,-0.27,0.06,-0.43,0.51
12.69717288017273,-0.52,0.09,-0.26,0.58
12.72881007194519,-0.71,0.18,-0.01,0.73
12.730036973953247,-0.76,0.16,-0.13,0.78
12.731003999710083,-0.49,0.11,-0.05,0.5
12.738136053085327,-0.05,0.03,0.15,0.16
12.747082948684692,0.27,-0.02,-0.09,0.28
12.758247137069702,0.25,-0.08,-0.36,0.44
12.76677393913269,0.15,-0.01,-0.42,0.44
12.776633977890015,0.17,0.13,-0.42,0.47
12.786691904067993,0.03,0.26,-0.49,0.55
12.796624898910522,-0.22,0.5,-1.07,1.2
12.828742980957031,-0.52,0.52,-1.78,1.92
12.83000111579895,-0.72,0.31,-1.74,1.9
12.83097505569458,-0.78,0.12,-1.09,1.34
12.842089891433716,-0.91,0.13,-0.72,1.16
12.845883131027222,-1.13,0.25,-0.69,1.34
12.85598111152649,-0.82,0.62,-0.77,1.28
12.866075992584229,-0.04,0.77,-0.6,0.97
12.876024961471558,0.29,0.61,-0.44,0.8
12.885917901992798,0.2,0.51,-0.6,0.81
12.8959059715271,0.05,0.73,-0.8,1.08
12.934860944747925,0.1,1.26,-0.75,1.46
12.936247110366821,0.21,1.77,-0.18,1.79
12.937216997146606,0.18,2.14,0.23,2.15
12.958877086639404,-0.12,1.95,-0.03,1.95
12.960315942764282,-0.59,2.22,0.03,2.29
12.973793983459473,-0.95,1.85,-0.1,2.08
12.975186109542847,-1.22,1.77,-0.37,2.18
12.991662979125977,-1.01,1.83,-0.36,2.12
12.993088960647583,-0.31,1.63,-0.19,1.67
13.00565218925476,-0.24,1.39,-0.26,1.43
13.033077955245972,-0.63,1.41,-0.38,1.59
13.034322023391724,-0.9,1.51,-0.45,1.81
13.035356044769287,-1.07,1.77,-0.7,2.18
13.037909984588623,-1.26,1.99,-1.08,2.59
13.044533014297485,-1.48,2.07,-1.56,2.98
13.054462194442749,-1.5,2.02,-1.9,3.15
13.064712047576904,-1.36,1.95,-2.17,3.21
13.074297189712524,-1.36,1.77,-2.45,3.31
13.084382057189941,-1.44,1.4,-2.55,3.24
13.094332933425903,-1.08,1.08,-2.4,2.84
13.130522966384888,-0.42,1.3,-2.0,2.42
13.131847143173218,0.35,1.79,-1.62,2.43
13.132821083068848,0.83,2.28,-1.65,2.93
13.137973070144653,2.05,2.64,-1.97,3.87
13.143492937088013,1.29,1.47,-2.97,3.55
13.157896041870117,-0.48,0.13,-3.08,3.11
13.163640975952148,-1.86,-1.67,-2.56,3.57
13.173517942428589,-2.54,-3.47,-1.68,4.61
13.183656930923462,-1.06,-1.96,-0.83,2.37
13.193226099014282,-1.96,-1.94,-1.46,3.12
13.229435205459595,-4.64,-2.5,-2.55,5.85
13.230785131454468,-6.64,-2.39,-2.76,7.57
13.231754064559937,-6.82,-2.27,-2.37,7.56
13.240972995758057,-5.77,-2.07,-1.89,6.41
13.242703199386597,-4.31,-2.18,-1.8,5.15
13.257293939590454,-3.57,-2.27,-1.71,4.56
13.262891054153442,-3.49,-2.05,-1.75,4.4
13.274737119674683,-3.72,-1.58,-1.65,4.36
13.282865047454834,-4.13,-1.24,-1.1,4.45
13.292721033096313,-4.37,-1.07,-0.48,4.52
13.302742004394531,-4.25,-0.7,-0.15,4.3
13.335477113723755,-3.89,-0.15,-0.32,3.9
13.336602926254272,-3.4,0.34,-0.92,3.53
13.337647199630737,-2.9,0.75,-1.51,3.35
13.358972072601318,-2.5,1.07,-1.84,3.28
13.36038613319397,-2.27,1.21,-1.94,3.22
13.374669075012207,-2.23,1.1,-1.96,3.16
13.376074075698853,-1.89,0.94,-1.67,2.69
13.389806985855103,-0.93,0.56,-1.15,1.58
13.391928911209106,-0.2,0.35,-0.81,0.9
13.407140016555786,-0.07,0.53,-0.75,0.92
13.437290906906128,-0.17,0.57,-0.63,0.86
13.438554048538208,-0.24,0.57,-0.32,0.69
13.439486980438232,-0.13,0.58,-0.05,0.59
13.45898699760437,-0.01,0.7,0.49,0.85
13.460418939590454,0.04,0.82,1.66,1.85
13.473798990249634,0.02,0.34,2.57,2.59
13.475275993347168,0.22,0.03,3.15,3.15
13.49183201789856,0.75,0.02,3.63,3.7
13.493306875228882,1.42,-0.23,4.0,4.25
13.507122039794922,2.13,-0.58,4.16,4.7
13.537040948867798,2.94,-0.46,4.1,5.06
13.538419008255005,4.01,-0.06,4.13,5.75
13.539437055587769,4.96,0.16,4.38,6.61
13.558305978775024,5.59,0.39,4.28,7.05
13.559343099594116,6.0,0.63,3.86,7.16
13.575119972229004,6.18,0.89,3.7,7.25
13.576590061187744,6.08,1.16,4.02,7.38
13.591491937637329,6.04,0.78,4.47,7.55
13.592949151992798,5.72,0.29,4.7,7.4
13.607249021530151,4.57,1.5,4.17,6.36
13.63680386543274,3.58,2.59,2.63,5.14
13.638095140457153,6.58,0.97,2.53,7.11
13.63913893699646,16.19,2.33,5.03,17.11
13.65873408317566,22.99,3.11,6.53,24.1
13.6597421169281,12.31,1.17,3.13,12.75
13.674870014190674,-1.56,-1.54,-0.44,2.23
13.676318883895874,-5.93,-0.73,-1.37,6.12
13.691660165786743,-2.69,2.27,0.3,3.53
13.693137884140015,0.15,2.52,2.2,3.34
13.70710802078247,0.52,0.71,1.37,1.62
13.735893964767456,0.52,-0.27,-0.06,0.58
13.737271070480347,0.52,0.04,-0.07,0.52
13.73823094367981,0.25,0.07,0.3,0.39
13.758670091629028,-0.15,-0.01,0.31,0.34
13.759656190872192,-0.21,-0.09,-0.16,0.27
13.775171041488647,0.16,-0.24,-0.48,0.55
13.77664589881897,0.52,-0.28,-0.28,0.65
13.791710138320923,0.33,-0.18,0.2,0.42
13.793154001235962,-0.17,-0.11,0.49,0.53
13.807422876358032,-0.37,0.02,0.42,0.56
13.835669040679932,-0.33,0.01,0.26,0.42
13.836879968643188,-0.3,0.04,0.21,0.36
13.83788514137268,-0.4,-0.05,0.23,0.46
13.858790159225464,-0.32,-0.14,0.24,0.42
13.859820127487183,0.01,-0.17,0.11,0.2
13.87528920173645,0.2,-0.11,-0.12,0.25
13.876748085021973,0.17,0.04,-0.32,0.36
13.891752004623413,0.1,0.16,-0.46,0.49
13.893184900283813,-0.02,0.18,-0.6,0.62
13.90747618675232,-0.2,0.2,-0.48,0.55
13.937684059143066,-0.18,0.2,0.09,0.28
13.939019918441772,-0.04,-0.01,0.61,0.61
13.939990997314453,-0.04,-0.2,0.76,0.78
13.95848298072815,-0.09,-0.18,0.66,0.69
13.95981502532959,-0.06,-0.09,0.47,0.48
13.975372076034546,-0.15,-0.1,0.21,0.27
13.976824045181274,-0.09,-0.04,0.35,0.36
13.99180293083191,0.52,-0.17,0.9,1.05
13.99326205253601,0.84,-0.35,0.99,1.34
14.007386922836304,0.35,-0.26,0.7,0.82
14.036709070205688,-0.33,-0.24,0.23,0.46
14.037986040115356,-0.41,-0.3,-0.12,0.52
14.03897213935852,-0.1,-0.13,-0.04,0.16
14.058495044708252,0.05,0.07,-0.12,0.14
14.059537172317505,0.02,0.2,-0.32,0.37
14.075386047363281,-0.1,0.43,-0.48,0.65
14.076903104782104,-0.28,0.53,-0.56,0.82
14.091925859451294,-0.32,0.46,-0.42,0.7
14.093384981155396,-0.28,0.27,-0.5,0.63
14.107258081436157,-0.25,0.2,-0.79,0.85
14.108676195144653,-0.06,0.25,-0.89,0.92
14.156283140182495,0.2,0.29,-0.74,0.81
14.157397985458374,0.33,0.29,-0.72,0.84
14.158334970474243,0.68,0.16,-0.57,0.9
14.17659306526184,1.06,-0.01,-0.17,1.07
14.17809796333313,0.99,-0.12,0.12,1.0
14.19205117225647,0.5,-0.17,0.37,0.64
14.193523168563843,0.06,-0.1,0.5,0.51
14.208559036254883,-0.15,-0.01,0.32,0.35
14.209971189498901,-0.16,0.03,-0.06,0.17
14.224359035491943,0.09,-0.01,-0.32,0.33
14.253555059432983,0.33,-0.1,-0.38,0.51
14.254868030548096,0.1,-0.12,-0.4,0.42
14.255872011184692,-0.27,0.02,-0.29,0.39
14.277055978775024,-0.18,0.13,-0.16,0.27
14.278095006942749,-0.18,0.21,-0.18,0.32
14.289292097091675,-0.13,0.18,-0.34,0.4
14.290765047073364,0.0,0.08,-0.57,0.57
14.308462858200073,0.08,0.0,-0.61,0.61
14.309938192367554,0.03,-0.01,-0.4,0.4
14.324106931686401,-0.14,0.06,-0.36,0.39
14.354408025741577,-0.07,0.24,-0.25,0.35
14.355743169784546,-0.01,0.34,-0.24,0.41
14.35679316520691,-0.15,0.27,-0.43,0.52
14.376022100448608,-0.2,0.2,-0.53,0.6
14.377511024475098,-0.16,0.15,-0.48,0.52
14.391926050186157,-0.04,0.14,-0.47,0.49
14.393431901931763,0.16,0.13,-0.4,0.45
14.408797979354858,0.12,0.1,-0.47,0.49
14.41021990776062,-0.02,0.09,-0.52,0.52
14.424318075180054,-0.34,0.08,-0.65,0.73
14.453858137130737,-0.68,0.12,-0.58,0.9
14.455172061920166,-0.87,0.17,-0.27,0.92
14.456156015396118,-1.02,0.13,-0.13,1.03
14.475866079330444,-1.22,0.0,-0.24,1.24
14.477294206619263,-1.44,-0.03,-0.38,1.48
14.492207050323486,-1.4,0.08,-0.44,1.46
14.49363899230957,-1.0,0.25,-0.45,1.12
14.508805990219116,-0.54,0.29,-0.46,0.76
14.510303020477295,-0.06,0.27,-0.39,0.47
14.52428412437439,0.28,0.07,-0.27,0.39
14.552690029144287,0.45,-0.07,-0.45,0.64
14.553883075714111,0.38,-0.14,-0.54,0.67
14.554895162582397,0.13,0.02,-0.67,0.68
14.57579493522644,-0.31,0.27,-1.15,1.22
14.576817989349365,-0.86,0.19,-1.28,1.55
14.592207193374634,-1.34,-0.1,-0.86,1.59
14.593684911727905,-1.31,-0.12,-0.33,1.35
14.608843088150024,-0.79,0.16,0.02,0.8
14.61031198501587,0.0,0.46,0.1,0.47
14.624155044555664,0.61,0.45,0.15,0.77
14.652777910232544,0.74,0.08,0.45,0.86
14.654128074645996,0.88,-0.18,0.64,1.1
14.655102968215942,1.05,-0.31,0.87,1.39
14.675888061523438,0.93,-0.46,0.69,1.24
14.676942110061646,0.7,-0.62,0.37,1.0
14.69238018989563,0.43,-0.22,0.07,0.48
14.693889856338501,0.59,0.63,-0.39,0.94
14.708409070968628,0.57,1.25,-0.95,1.67
14.70986294746399,0.4,1.62,-1.32,2.12
14.724444150924683,0.28,2.04,-1.31,2.44
14.752572059631348,-0.23,2.38,-1.15,2.65
14.754026174545288,-1.06,2.68,-1.26,3.14
14.755033016204834,-1.54,2.37,-1.11,3.03
14.776212930679321,-1.5,2.26,-0.85,2.84
14.777260065078735,-1.42,2.61,-0.64,3.03
14.791987180709839,-1.49,2.71,-0.57,3.14
14.79344916343689,-1.37,2.72,-0.44,3.07
14.80893588066101,-1.07,2.68,-0.16,2.89
14.810384035110474,-0.9,2.56,0.11,2.71
14.824258089065552,-0.71,2.7,0.31,2.8
14.853219032287598,-0.8,3.03,0.11,3.13
14.854585886001587,-1.02,3.0,-0.42,3.19
14.855563879013062,-1.32,2.74,-1.08,3.22
14.875704050064087,-1.42,2.34,-1.54,3.14
14.876759052276611,-1.37,1.87,-1.9,2.99
14.892261981964111,-1.14,1.79,-2.16,3.02
14.893728017807007,-0.94,1.45,-2.33,2.9
14.908973932266235,-0.9,1.08,-2.47,2.84
14.910471200942993,-0.43,1.33,-2.66,3.0
14.924422025680542,0.49,2.58,-2.54,3.65
14.925904035568237,1.97,3.97,-2.2,4.94
14.974948167800903,0.23,2.13,-2.9,3.6
14.97611689567566,-1.96,0.57,-2.88,3.53
14.977128028869629,-2.81,-0.24,-2.42,3.71
14.9930579662323,-4.01,-1.89,-2.29,4.98
14.994109869003296,-2.41,-1.34,-1.47,3.12
15.009016990661621,-2.29,-2.38,-1.26,3.53
15.010478973388672,-5.66,-3.09,-1.94,6.73
15.025497198104858,-8.84,-3.38,-2.6,9.81
15.026968002319336,-9.88,-3.54,-2.36,10.75
15.040997982025146,-8.37,-3.39,-1.95,9.23
15.070124864578247,-5.93,-3.23,-2.26,7.12
15.07148814201355,-4.37,-2.84,-2.92,5.97
15.072488069534302,-4.04,-2.07,-3.34,5.63
15.093033075332642,-4.16,-1.22,-3.56,5.6
15.094532012939453,-4.19,-0.52,-3.51,5.49
15.109236001968384,-4.09,-0.28,-3.36,5.3
15.110732078552246,-3.87,-0.36,-3.2,5.03
15.12573790550232,-3.58,-0.39,-2.93,4.64
15.12720799446106,-3.37,-0.21,-2.61,4.26
15.141379117965698,-3.26,0.16,-2.42,4.06
15.169376134872437,-3.19,0.64,-2.37,4.02
15.170708894729614,-2.86,1.19,-2.3,3.85
15.17168116569519,-2.06,1.4,-2.11,3.26
15.192489862442017,-1.17,1.6,-1.76,2.65
15.19349217414856,-0.45,2.04,-1.38,2.5
15.209163904190063,0.13,2.26,-0.98,2.46
15.210652112960815,0.72,2.12,-0.51,2.29
15.225733995437622,1.33,1.84,0.0,2.27
15.227197885513306,1.73,1.57,0.48,2.38
15.241493940353394,1.81,1.32,1.0,2.45
15.270999193191528,1.49,1.16,2.04,2.77
15.272392988204956,1.06,1.05,3.2,3.53
15.273391008377075,0.74,1.0,4.11,4.29
15.292781114578247,0.61,0.85,4.84,4.95
15.294251203536987,0.69,0.56,5.36,5.43
15.309026002883911,1.13,0.21,5.65,5.76
15.310487031936646,1.83,-0.14,5.85,6.13
15.325829029083252,2.59,-0.24,5.91,6.45
15.327298879623413,3.3,-0.08,5.78,6.65
15.341410875320435,3.91,0.05,5.42,6.68
15.370760202407837,4.38,0.41,4.74,6.46
15.372070074081421,4.92,0.97,4.05,6.44
15.373048067092896,5.68,1.2,3.62,6.84
15.393012046813965,6.6,1.25,3.54,7.59
15.394500970840454,7.44,0.98,3.43,8.25
15.408921003341675,7.76,0.92,2.62,8.24
15.410325050354004,6.98,4.27,1.21,8.27
15.42590594291687,8.59,2.27,-0.13,8.88
15.427381038665771,11.53,0.22,0.7,11.55
15.441510915756226,14.77,-0.35,1.16,14.81
15.471343040466309,18.61,-1.07,1.23,18.68
15.472709894180298,14.51,1.35,1.28,14.62
15.47371792793274,2.39,2.15,1.55,3.56
15.49303412437439,-3.82,1.27,4.25,5.85
15.494495153427124,-1.83,0.87,5.25,5.62
15.509221076965332,-0.24,0.92,2.96,3.1
15.510696172714233,-0.97,1.93,0.86,2.32
15.525933027267456,-0.82,1.71,1.14,2.21
15.527386903762817,0.49,-0.11,1.72,1.79
15.542088031768799,0.49,-0.07,0.09,0.5
15.573671102523804,0.58,0.24,-1.9,2.0
15.574950933456421,1.88,-0.17,-2.26,2.94
15.576026201248169,2.69,-0.81,-1.49,3.17
15.593322038650513,1.82,-0.86,-0.17,2.02
15.594802141189575,0.38,-0.47,1.06,1.22
15.609164953231812,-0.32,-0.32,1.67,1.73
15.610629081726074,-0.55,-0.14,1.83,1.91
15.625635862350464,-0.53,-0.02,1.46,1.55
15.627088069915771,-0.44,-0.05,0.78,0.89
15.64147400856018,-0.15,-0.17,0.23,0.32
15.670763969421387,0.16,-0.13,0.01,0.2
15.672146081924438,0.13,-0.09,-0.59,0.61
15.673156976699829,-0.37,-0.07,-1.0,1.06
15.692982912063599,-0.86,0.02,-0.73,1.12
15.694468021392822,-0.83,0.07,-0.29,0.88
15.709328889846802,-0.62,0.2,0.04,0.65
15.71078610420227,-0.41,0.32,0.35,0.62
15.72588300704956,-0.25,0.32,0.23,0.46
15.727265119552612,-0.01,0.34,0.04,0.34
15.741463899612427,0.12,0.3,-0.34,0.46
15.742828130722046,0.02,0.24,-0.99,1.01
15.787818193435669,-0.03,0.26,-1.43,1.45
15.789023160934448,0.1,0.28,-1.33,1.36
15.789993047714233,0.17,0.29,-1.14,1.18
15.81019902229309,0.11,0.22,-0.98,1.01
15.81168007850647,0.03,0.19,-0.57,0.6
15.82576298713684,-0.09,0.21,-0.2,0.3
15.827179193496704,-0.29,0.15,-0.09,0.33
15.842758893966675,-0.37,0.12,-0.15,0.41
15.844204187393188,-0.25,0.07,-0.13,0.29
15.857700109481812,0.04,-0.01,-0.01,0.04
15.883940935134888,0.18,-0.13,0.03,0.22
15.885338068008423,0.23,-0.21,-0.03,0.31
15.886353015899658,0.17,-0.14,0.19,0.29
15.888397932052612,0.04,-0.02,0.27,0.27
15.909629106521606,-0.02,-0.01,0.07,0.07
15.911110162734985,0.06,-0.04,-0.16,0.17
15.925801992416382,0.25,-0.02,-0.22,0.33
15.92729115486145,0.51,-0.11,-0.16,0.54
15.941588163375854,0.72,-0.2,-0.06,0.74
15.9429771900177,0.69,-0.28,-0.06,0.74
15.983527898788452,0.49,-0.22,0.02,0.53
15.984682083129883,0.27,-0.07,0.11,0.29
15.985836029052734,0.13,0.05,0.12,0.18
15.988677978515625,0.07,0.11,0.02,0.13
16.009472131729126,0.0,0.11,-0.08,0.13
16.01069402694702,0.1,0.02,-0.05,0.11
16.025946855545044,0.28,-0.01,0.05,0.28
16.027382135391235,0.44,-0.07,-0.02,0.44
16.041495084762573,0.53,-0.16,-0.01,0.55
16.042983055114746,0.49,-0.19,-0.09,0.53
16.08318018913269,0.46,-0.16,-0.28,0.56
16.08437705039978,0.39,-0.11,-0.22,0.46
16.08567500114441,0.14,-0.15,-0.21,0.29
16.089123964309692,-0.08,-0.14,-0.35,0.38
16.10970401763916,-0.38,0.02,-0.4,0.55
16.11122703552246,-0.86,0.29,-0.49,1.03
16.126118898391724,-1.33,0.61,-0.63,1.59
16.127538919448853,-1.35,0.83,-0.53,1.67
16.141785860061646,-1.1,0.72,-0.48,1.39
16.14325785636902,-0.88,0.38,-0.56,1.11
16.18718409538269,-0.84,0.05,-0.72,1.1
16.188363075256348,-0.9,-0.02,-0.99,1.33
16.1893470287323,-1.06,0.11,-1.29,1.67
16.209994077682495,-1.46,0.28,-1.39,2.03
16.211474180221558,-1.77,0.38,-1.27,2.21
16.225892066955566,-1.75,0.31,-1.02,2.04
16.2273371219635,-1.35,0.22,-0.77,1.56
16.243969202041626,-0.91,0.16,-0.46,1.03
16.245393991470337,-0.76,0.23,-0.59,0.98
16.258297204971313,-0.8,0.4,-1.22,1.51
16.284903049468994,0.55,0.79,-1.15,1.49
16.28623104095459,2.13,0.87,-1.07,2.53
16.28728985786438,2.64,0.88,-1.28,3.06
16.28978419303894,2.43,0.81,-1.17,2.81
16.291414976119995,1.53,1.09,-1.11,2.18
16.29283595085144,0.23,1.88,-1.06,2.17
16.294440031051636,-1.11,2.6,-0.23,2.83
16.29600501060486,-1.54,2.96,0.12,3.33
16.299608945846558,-1.42,2.51,-0.58,2.94
16.30985999107361,-1.5,2.83,0.1,3.2
16.3389630317688,-1.44,2.17,0.62,2.67
16.34010601043701,-1.51,2.07,0.76,2.67
16.340984106063843,-1.36,2.33,1.29,2.99
16.358142137527466,-1.21,2.84,1.36,3.37
16.35920786857605,-1.02,3.17,0.83,3.43
16.375854969024658,-0.59,2.98,0.55,3.08
16.37915015220642,-0.35,2.39,-0.01,2.41
16.39253306388855,-0.85,1.83,-0.65,2.11
16.399420022964478,-1.74,1.71,-1.14,2.69
16.40912699699402,-1.7,1.47,-1.31,2.6
16.441846132278442,-1.36,1.2,-1.68,2.47
16.44317102432251,-1.12,1.05,-2.01,2.52
16.444138050079346,-1.01,0.84,-2.23,2.58
16.45974898338318,-0.99,0.38,-2.3,2.53
16.46081519126892,-0.63,0.2,-2.51,2.59
16.476402044296265,-0.25,0.98,-2.57,2.76
16.478581190109253,0.56,2.27,-2.16,3.18
16.493044137954712,1.94,3.43,-1.74,4.3
16.49846386909485,0.54,2.05,-2.67,3.4
16.5083429813385,-0.93,0.35,-3.12,3.27
16.51854920387268,-1.17,-0.41,-2.76,3.02
16.54700493812561,-1.66,-1.32,-2.89,3.58
16.548185110092163,-2.52,-2.56,-3.09,4.73
16.549404859542847,-0.65,-2.2,-2.37,3.29
16.560942888259888,-0.11,-2.78,-2.09,3.47
16.568132162094116,-2.65,-3.01,-3.31,5.19
16.577941179275513,-4.7,-2.78,-4.12,6.84
16.588041067123413,-5.77,-2.62,-3.84,7.4
16.59779191017151,-5.61,-2.51,-3.06,6.86
16.607980966567993,-4.81,-2.63,-2.48,6.01
16.617635011672974,-4.04,-2.68,-2.39,5.4
16.649327039718628,-3.84,-2.46,-2.55,5.22
16.650736093521118,-4.23,-1.84,-2.66,5.32
16.651750087738037,-4.75,-1.08,-2.5,5.47
16.657058000564575,-5.14,-0.58,-2.03,5.55
16.667062044143677,-5.25,-0.51,-1.44,5.46
16.677170991897583,-5.13,-0.45,-1.05,5.25
16.68716311454773,-4.79,-0.24,-0.97,4.89
16.696979999542236,-4.47,0.05,-1.02,4.58
16.7070369720459,-4.43,0.36,-1.1,4.57
16.716778993606567,-4.53,0.52,-1.15,4.7
16.74808096885681,-4.31,0.64,-1.0,4.47
16.749467134475708,-3.66,0.57,-0.79,3.78
16.75049614906311,-2.91,0.4,-0.69,3.01
16.759698152542114,-2.18,0.7,-0.52,2.34
16.766422033309937,-1.42,0.97,-0.35,1.75
16.776443004608154,-0.64,0.9,-0.28,1.13
16.786468029022217,0.16,0.7,-0.26,0.76
16.796261072158813,0.94,0.55,-0.1,1.09
16.806401014328003,1.69,0.66,0.22,1.82
16.81625008583069,2.33,1.05,0.59,2.62
16.847830057144165,2.7,1.35,1.07,3.2
16.849170923233032,3.1,1.41,1.81,3.85
16.85019087791443,3.55,1.4,2.35,4.48
16.859838008880615,3.86,1.67,2.44,4.86
16.865647077560425,4.15,1.98,2.61,5.28
16.876326084136963,4.43,2.05,3.19,5.83
16.885756015777588,4.73,1.82,3.78,6.32
16.895503044128418,5.14,1.67,4.22,6.85
16.90565299987793,5.51,1.5,4.48,7.25
16.915251970291138,5.6,1.16,4.65,7.37
16.953471899032593,5.45,0.7,4.88,7.34
16.955343008041382,5.32,0.21,5.08,7.35
16.95678687095642,5.2,-0.16,5.33,7.44
16.97745394706726,4.72,-0.6,5.29,7.11
16.97892689704895,4.15,-0.73,5.33,6.79
16.992111921310425,6.32,1.36,4.34,7.78
16.993580102920532,8.16,0.07,3.25,8.78
17.010210037231445,11.87,2.03,4.83,12.97
17.011681079864502,16.49,2.87,7.72,18.43
17.02611517906189,14.26,-0.51,7.53,16.13
17.055795907974243,2.45,0.35,3.52,4.3
17.057122945785522,-4.85,1.18,-0.7,5.04
17.05814290046692,-4.76,2.8,0.77,5.57
17.077183961868286,-2.8,3.89,2.43,5.37
17.078675031661987,-1.82,3.11,1.32,3.83
17.093226194381714,0.94,0.4,0.72,1.24
17.094686031341553,2.78,-0.74,1.17,3.1
17.110009908676147,1.96,-0.53,0.63,2.12
17.11149287223816,0.86,-0.14,0.07,0.87
17.125288009643555,1.04,-0.18,0.04,1.05
17.152122020721436,1.49,-0.38,0.0,1.53
17.153340101242065,1.36,-0.41,0.06,1.42
17.154258012771606,0.84,-0.35,0.44,1.01
17.15646195411682,0.41,-0.26,0.95,1.06
17.163199186325073,0.22,-0.19,1.14,1.17
17.173435926437378,0.26,-0.1,1.01,1.04
17.18320393562317,0.16,0.03,0.28,0.32
17.193445920944214,-0.2,0.15,-0.31,0.39
17.203316926956177,-0.17,0.06,-0.61,0.63
17.21320605278015,-0.27,0.01,-0.3,0.4
17.248239040374756,-0.34,0.15,-0.25,0.44
17.249563932418823,-0.77,0.04,-0.23,0.8
17.25057101249695,-1.12,0.25,-0.19,1.16
17.257309198379517,-1.6,0.22,-0.01,1.61
17.26255488395691,-1.71,0.21,-0.29,1.74
17.276777029037476,-1.43,0.32,-0.63,1.59
17.282830953598022,-0.79,0.29,-0.5,0.97
17.293097972869873,-0.39,0.37,-0.76,0.93
17.302488088607788,-0.2,0.26,-1.29,1.33
17.312517881393433,0.09,-0.1,-1.28,1.28
17.32262396812439,0.22,-0.21,-0.72,0.78
17.3527090549469,0.03,0.06,-0.23,0.23
17.35385012626648,-0.12,0.35,-0.17,0.4
17.354806184768677,-0.01,0.38,-0.37,0.53
17.361818075180054,0.36,0.28,-0.35,0.57
17.371909856796265,0.79,0.1,-0.21,0.82
17.382122039794922,0.79,-0.03,-0.11,0.79
17.392011880874634,0.53,-0.04,0.14,0.54
17.402057886123657,0.25,-0.06,0.45,0.51
17.41158413887024,-0.12,0.0,0.5,0.51
17.42176103591919,-0.32,0.06,0.27,0.42
17.452537059783936,-0.24,0.03,0.14,0.27
17.45366597175598,-0.04,-0.09,0.04,0.1
17.454806089401245,0.19,-0.21,-0.06,0.28
17.461084127426147,0.31,-0.22,-0.26,0.46
17.471036195755005,0.35,-0.14,-0.38,0.53
17.481395959854126,0.3,-0.02,-0.41,0.5
17.49126887321472,0.13,0.04,-0.38,0.4
17.501121044158936,0.08,0.12,-0.43,0.45
17.51091504096985,0.27,0.15,-0.2,0.36
17.520789861679077,0.31,0.09,-0.1,0.33
17.551302194595337,0.09,0.05,-0.19,0.21
17.55250597000122,-0.05,0.06,-0.23,0.24
17.55374503135681,-0.08,0.04,-0.21,0.22
17.560219049453735,-0.09,0.07,-0.18,0.21
17.577027082443237,0.04,0.03,-0.16,0.16
17.580402135849,0.16,-0.03,-0.21,0.26
17.59129309654236,0.26,0.1,-0.3,0.4
17.6003839969635,0.42,0.16,-0.32,0.55
17.610063076019287,0.38,0.08,-0.33,0.5
17.619818925857544,0.29,-0.04,-0.45,0.53
17.651387929916382,0.23,-0.06,-0.47,0.52
17.65258288383484,0.13,-0.09,-0.51,0.53
17.653810024261475,0.05,-0.11,-0.53,0.54
17.659470081329346,-0.13,-0.12,-0.55,0.57
17.67713713645935,-0.2,-0.08,-0.56,0.6
17.679682970046997,-0.18,0.04,-0.42,0.45
17.691142082214355,-0.23,0.13,-0.49,0.55
17.69946599006653,-0.26,0.04,-0.45,0.52
17.70943307876587,-0.43,-0.18,-0.58,0.74
17.719323873519897,-0.86,-0.27,-0.84,1.23
17.75731110572815,-1.48,0.0,-1.12,1.85
17.758454084396362,-1.98,0.58,-1.48,2.53
17.75949788093567,-1.6,1.15,-1.39,2.41
17.77790093421936,-0.82,1.03,-0.97,1.63
17.779340028762817,-0.22,0.53,-0.39,0.69
17.79336905479431,0.25,0.16,0.04,0.29
17.794830083847046,0.57,-0.18,0.08,0.6
17.810127019882202,0.67,-0.19,-0.28,0.75
17.811626195907593,0.71,-0.07,-0.79,1.06
17.826284170150757,0.76,0.17,-1.33,1.54
17.855865001678467,0.53,0.37,-1.8,1.91
17.85716986656189,-0.09,0.7,-1.9,2.02
17.858165979385376,-0.17,1.17,-2.07,2.38
17.877647161483765,0.01,1.53,-1.49,2.13
17.87914490699768,-0.72,1.77,-0.92,2.12
17.893578052520752,-0.96,2.65,-0.48,2.85
17.895071029663086,-0.93,2.95,-0.12,3.09
17.910067081451416,-1.26,3.14,0.36,3.4
17.91155695915222,-1.47,3.17,0.43,3.52
17.925689935684204,-1.12,2.97,0.87,3.29
17.953066110610962,-1.23,2.78,0.77,3.13
17.95447087287903,-1.79,2.63,0.37,3.2
17.95551300048828,-1.49,2.21,0.32,2.68
17.95787501335144,-0.78,2.16,0.48,2.34
17.967242002487183,-0.46,2.22,0.03,2.26
17.97751212120056,-0.45,2.3,-0.61,2.42
17.987267017364502,-0.82,2.17,-1.04,2.54
17.997512102127075,-0.96,1.79,-1.39,2.46
18.007338047027588,-0.82,1.28,-1.73,2.3
18.017051935195923,-0.82,1.1,-1.87,2.31
18.053107976913452,-0.73,0.97,-1.97,2.31
18.0543429851532,-0.6,0.74,-1.9,2.12
18.05533719062805,-0.16,1.08,-2.14,2.4
18.057753086090088,0.62,1.34,-2.64,3.02
18.066560983657837,1.78,2.21,-2.55,3.81
18.07672095298767,1.3,1.51,-2.77,3.41
18.086785078048706,-1.04,0.02,-3.04,3.21
18.09674096107483,-2.52,-0.62,-3.18,4.1
18.10656714439392,-3.57,-1.91,-2.83,4.93
18.11642599105835,-1.94,-0.69,-1.1,2.33
18.12638020515442,-0.97,-1.88,-0.95,2.31
18.159810066223145,-3.45,-2.91,-2.46,5.14
18.160943031311035,-6.05,-2.41,-3.64,7.46
18.16195297241211,-6.89,-1.8,-3.63,7.99
18.17785906791687,-5.91,-1.62,-2.97,6.8
18.179296016693115,-4.31,-2.04,-2.54,5.4
18.190294981002808,-3.21,-2.28,-2.34,4.58
18.195316076278687,-2.5,-2.13,-2.37,4.05
18.206716060638428,-2.18,-1.66,-2.33,3.59
18.215513944625854,-2.16,-1.11,-2.15,3.24
18.225509881973267,-1.96,-0.96,-1.85,2.86
18.258890867233276,-1.54,-1.13,-1.5,2.42
18.26024317741394,-1.21,-1.2,-1.22,2.09
18.261237859725952,-1.27,-1.18,-1.03,2.01
18.278050184249878,-1.82,-0.91,-0.93,2.23
18.279592990875244,-2.55,-0.36,-0.87,2.71
18.29316997528076,-2.87,0.21,-0.59,2.93
18.294965982437134,-2.78,0.44,-0.08,2.81
18.310622930526733,-2.57,0.48,0.37,2.64
18.314894914627075,-2.48,0.54,0.66,2.62
18.324882984161377,-2.5,0.76,0.92,2.77
18.355952978134155,-2.38,1.03,1.21,2.86
18.357347011566162,-2.06,1.06,1.37,2.69
18.358334064483643,-1.77,0.9,1.29,2.36
18.37721085548401,-1.78,0.88,0.92,2.18
18.378618001937866,-2.01,1.01,0.32,2.27
18.393996953964233,-2.07,1.15,-0.17,2.37
18.39548897743225,-1.64,1.29,-0.16,2.09
18.410660982131958,-0.64,1.12,-0.05,1.29
18.414168119430542,0.28,0.45,-0.12,0.54
18.42581009864807,0.63,-0.19,-0.2,0.68
18.455745935440063,0.54,-0.35,-0.08,0.64
18.457122087478638,0.53,-0.04,0.14,0.54
18.45816397666931,0.62,0.28,0.41,0.79
18.47770619392395,0.57,0.55,0.83,1.14
18.479192972183228,0.62,0.67,1.18,1.49
18.493972063064575,0.98,0.55,1.48,1.85
18.495457887649536,1.43,0.56,1.91,2.45
18.510753870010376,1.84,0.47,2.28,2.96
18.513355016708374,2.26,0.28,2.23,3.18
18.524415969848633,2.9,0.36,2.28,3.7
18.563066005706787,3.86,0.5,2.28,4.51
18.564342975616455,4.94,0.54,2.06,5.37
18.565338850021362,5.8,0.37,2.02,6.15
18.57791018486023,6.31,0.15,2.2,6.68
18.57897114753723,6.58,-0.1,2.35,6.98
18.593979120254517,6.81,-0.22,2.38,7.21
18.59544587135315,7.14,-0.26,2.32,7.51
18.61072087287903,7.34,-0.22,2.11,7.64
18.612423181533813,7.19,-0.17,1.82,7.41
18.62534999847412,6.53,-0.08,1.63,6.73
18.65876007080078,4.78,1.78,1.24,5.24
18.660129070281982,4.78,1.3,1.15,5.08
18.661179065704346,6.9,1.03,2.42,7.38
18.6782329082489,11.62,1.29,3.98,12.35
18.67972207069397,14.75,0.86,4.3,15.38
18.693887948989868,9.24,0.58,2.84,9.68
18.69536805152893,-0.59,0.65,2.57,2.71
18.71072006225586,-4.77,-0.18,3.24,5.76
18.71218204498291,-3.38,-0.8,4.04,5.32
18.72630500793457,-0.79,-0.38,3.16,3.27
18.7590811252594,0.37,0.8,0.55,1.03
18.760480165481567,0.03,1.81,-1.57,2.39
18.761487007141113,0.23,1.46,-1.12,1.85
18.778451204299927,1.11,0.07,0.11,1.11
18.779901027679443,1.43,-0.43,0.42,1.55
18.79401206970215,1.12,-0.32,-0.27,1.19
18.795533895492554,0.95,-0.26,-0.75,1.23
18.8109929561615,1.03,-0.28,-0.48,1.17
18.81244206428528,0.67,-0.28,0.15,0.74
18.82601284980774,-0.19,-0.13,0.78,0.81
18.86158585548401,-0.95,0.03,1.09,1.44
18.862935066223145,-0.96,0.13,1.05,1.42
18.86395287513733,-0.3,-0.04,1.12,1.16
18.877899885177612,0.33,-0.32,0.93,1.03
18.878976106643677,0.18,-0.35,0.75,0.84
18.893996000289917,-0.46,0.01,0.6,0.75
18.895462036132812,-0.55,0.13,0.1,0.57
18.91090703010559,-0.08,-0.03,-0.14,0.16
18.91237711906433,0.41,-0.08,-0.1,0.42
18.926270008087158,0.62,-0.18,-0.44,0.78
18.930150985717773,0.42,0.04,-0.57,0.7
18.970668077468872,0.21,0.25,-0.26,0.41
18.971808195114136,0.23,0.14,-0.26,0.37
18.97277307510376,0.16,0.18,-0.19,0.3
18.99493908882141,0.1,0.22,-0.34,0.41
18.996387004852295,0.28,0.31,-0.61,0.73
19.010584115982056,0.66,0.28,-0.97,1.2
19.0120689868927,0.76,0.19,-1.08,1.33
19.027637004852295,0.62,0.09,-1.05,1.22
19.029149055480957,0.36,0.08,-0.72,0.8
19.04302716255188,0.13,0.16,-0.34,0.39
19.071647882461548,0.0,0.14,-0.21,0.25
19.072890996932983,-0.22,0.14,-0.26,0.36
19.073816061019897,-0.51,0.17,-0.22,0.58
19.095025062561035,-0.58,0.13,-0.17,0.61
19.096482038497925,-0.56,0.12,-0.21,0.61
19.11038088798523,-0.61,0.11,-0.42,0.74
19.11186718940735,-0.5,0.08,-0.59,0.77
19.127071142196655,-0.42,-0.07,-0.46,0.62
19.128525972366333,-0.26,-0.08,-0.2,0.33
19.14368510246277,0.03,-0.03,-0.15,0.15
19.172978162765503,0.08,-0.09,-0.22,0.25
19.174299001693726,0.06,-0.05,-0.27,0.28
19.175312042236328,0.15,0.04,-0.32,0.35
19.195525884628296,0.21,0.07,-0.39,0.44
19.197044134140015,0.28,0.16,-0.22,0.39
19.21122717857361,0.41,0.15,-0.1,0.44
19.21269392967224,0.45,0.05,-0.02,0.45
19.227540016174316,0.46,-0.03,0.02,0.46
19.22887897491455,0.46,0.01,-0.04,0.46
19.24279499053955,0.35,0.06,-0.15,0.38
19.269339084625244,0.24,0.14,-0.24,0.36
19.270654916763306,0.1,0.2,-0.28,0.35
19.271673917770386,0.04,0.15,-0.28,0.32
19.27405285835266,-0.11,0.1,-0.32,0.35
19.27732801437378,-0.39,0.07,-0.47,0.61
19.28762412071228,-0.65,0.14,-0.59,0.88
19.297674894332886,-0.75,0.31,-0.69,1.06
19.307574033737183,-0.82,0.4,-0.82,1.22
19.317299127578735,-0.72,0.42,-0.83,1.17
19.327394008636475,-0.63,0.38,-0.64,0.97
19.362547159194946,-0.82,0.25,-0.64,1.06
19.363672971725464,-0.95,0.11,-0.76,1.22
19.364657163619995,-0.93,0.0,-0.81,1.23
19.378204107284546,-0.94,-0.16,-0.75,1.21
19.379287004470825,-0.8,-0.22,-0.79,1.14
19.39449405670166,-0.73,-0.13,-0.71,1.02
19.396651029586792,-0.49,0.01,-0.58,0.75
19.410945177078247,-0.04,0.18,-0.46,0.49
19.416449069976807,-0.04,0.24,-0.67,0.71
19.426457166671753,-0.09,0.38,-0.88,0.96
19.461472988128662,-0.06,0.47,-0.7,0.84
19.46275019645691,-0.19,0.52,-0.54,0.77
19.463826894760132,0.01,0.34,-0.3,0.45
19.478770971298218,0.32,0.26,-0.24,0.47
19.480273008346558,0.42,0.5,-0.3,0.71
19.494210958480835,0.41,0.9,-0.52,1.11
19.495800018310547,0.3,1.33,-0.91,1.63
19.51111602783203,0.07,1.64,-1.07,1.95
19.51580309867859,-0.23,1.85,-1.14,2.18
19.52645993232727,-0.62,1.82,-1.5,2.43
19.56346106529236,-1.14,2.1,-1.66,2.9
19.56476616859436,-1.07,2.92,-1.81,3.59
19.565803050994873,-0.64,3.03,-1.61,3.49
19.578244924545288,-0.74,2.81,-1.57,3.3
19.579293966293335,-1.24,2.71,-1.57,3.36
19.59427809715271,-1.33,2.48,-1.17,3.04
19.595701932907104,-1.35,2.37,-1.04,2.91
19.611334085464478,-1.51,2.28,-1.21,2.99
19.615043878555298,-1.5,2.11,-1.05,2.79
19.62644600868225,-1.06,1.79,-0.63,2.17
19.661144971847534,-0.42,1.49,-0.43,1.6
19.662439107894897,-0.1,1.42,-0.72,1.59
19.663532972335815,-0.17,0.86,-1.4,1.65
19.678438901901245,0.03,0.27,-1.64,1.66
19.679929971694946,0.3,0.72,-1.45,1.64
19.694052934646606,0.23,1.02,-1.3,1.66
19.695499181747437,0.62,0.65,-0.83,1.22
19.711165189743042,1.59,0.88,-0.64,1.92
19.71419906616211,2.82,1.48,-1.48,3.51
19.72651505470276,1.77,0.57,-2.64,3.22
19.734254121780396,0.68,-0.2,-2.64,2.73
19.771723985671997,-0.81,-1.51,-2.33,2.89
19.772871017456055,-1.48,-2.01,-1.79,3.07
19.773853063583374,-0.5,-1.11,-0.53,1.32
19.794969081878662,-2.79,-1.81,-1.02,3.47
19.796442985534668,-6.07,-1.56,-1.88,6.54
19.811375856399536,-7.6,-0.86,-1.55,7.8
19.812844038009644,-6.66,-0.72,-0.79,6.74
19.82784605026245,-4.47,-1.23,-0.76,4.69
19.829236030578613,-3.35,-1.18,-1.09,3.71
19.843379020690918,-3.22,-0.71,-1.44,3.59
19.872092962265015,-3.28,-0.41,-1.52,3.63
19.87343192100525,-3.46,-0.45,-1.28,3.71
19.87445902824402,-3.69,-0.67,-0.96,3.87
19.89476203918457,-3.67,-0.93,-0.68,3.84
19.896258115768433,-3.38,-1.02,-0.65,3.58
19.911039113998413,-3.16,-0.93,-0.89,3.41
19.912456035614014,-3.1,-0.85,-1.14,3.41
19.92784094810486,-2.91,-0.73,-1.28,3.26
19.929328203201294,-2.59,-0.61,-1.37,2.99
19.943228006362915,-2.28,-0.41,-1.33,2.67
19.97043013572693,-2.09,-0.24,-1.2,2.42
19.971809148788452,-2.07,-0.18,-1.12,2.36
19.972779035568237,-2.2,-0.04,-1.08,2.45
19.974973917007446,-2.33,0.25,-1.08,2.58
19.98197603225708,-2.23,0.38,-0.99,2.46
19.99208402633667,-1.94,0.14,-0.82,2.11
20.002218008041382,-1.64,-0.13,-0.62,1.75
20.01232600212097,-1.33,-0.16,-0.32,1.37
20.02198815345764,-1.09,-0.03,-0.06,1.09
20.031986951828003,-0.81,0.15,0.09,0.82
20.061445951461792,-0.23,0.29,0.15,0.39
20.062711000442505,0.5,0.43,0.2,0.68
20.06368613243103,0.88,0.72,0.23,1.16
20.0784809589386,0.84,1.02,0.15,1.32
20.081204175949097,0.52,0.92,0.24,1.08
20.09439206123352,0.14,0.68,0.8,1.05
20.101346969604492,-0.23,0.71,1.58,1.74
20.111247062683105,-0.62,0.98,2.42,2.68
20.12117099761963,-0.95,1.27,3.01,3.4
20.131147146224976,-1.08,1.32,3.15,3.58
20.167104959487915,-0.87,1.44,3.04,3.47
20.168492078781128,-0.16,1.39,2.98,3.29
20.16960120201111,0.75,0.84,2.91,3.12
20.178745985031128,1.46,0.62,2.77,3.19
20.180436849594116,2.07,0.7,2.46,3.29
20.19330906867981,2.81,0.77,1.94,3.5
20.200568914413452,3.58,0.69,1.29,3.86
20.210572957992554,4.2,0.49,0.68,4.28
20.22057604789734,4.59,0.46,0.43,4.63
20.230242013931274,4.74,0.53,0.54,4.8
20.26853919029236,4.82,0.52,0.99,4.94
20.270034074783325,5.08,0.34,1.34,5.26
20.271022081375122,5.61,0.25,1.27,5.75
20.275268077850342,6.34,0.12,1.04,6.42
20.294627904891968,6.47,-0.22,1.04,6.55
20.296014070510864,5.8,-0.35,1.27,5.94
20.31096386909485,4.87,0.14,1.72,5.16
20.31243586540222,3.61,1.43,2.01,4.37
20.32676100730896,4.69,0.03,2.61,5.36
20.32953906059265,5.83,-0.24,3.77,6.94
20.37176489830017,5.91,-0.43,4.1,7.2
20.372932195663452,5.68,-0.51,3.62,6.75
20.37394404411316,4.9,0.38,3.7,6.15
20.376067876815796,4.83,1.36,4.2,6.54
20.378880977630615,5.77,1.19,4.01,7.12
20.388979196548462,3.73,1.01,2.89,4.82
20.399363040924072,0.49,0.89,1.46,1.77
20.409231901168823,-1.2,0.36,-0.41,1.31
20.41907000541687,-0.93,1.05,-1.34,1.93
20.42911410331726,-0.1,1.59,-0.82,1.79
20.465030908584595,0.31,0.56,0.27,0.69
20.46621012687683,0.7,-0.39,0.93,1.22
20.46724009513855,0.81,-0.41,0.79,1.2
20.47702193260193,0.55,-0.27,0.27,0.66
20.47811198234558,0.42,-0.31,0.15,0.54
20.494776964187622,0.52,-0.3,0.55,0.81
20.498316049575806,0.51,-0.18,0.89,1.04
20.51151704788208,0.46,-0.16,1.11,1.21
20.5180561542511,0.44,-0.3,0.87,1.02
20.528037071228027,0.24,-0.28,0.38,0.52
20.538111925125122,-0.01,-0.05,0.21,0.21
20.570937871932983,-0.12,0.02,0.1,0.15
20.572036027908325,-0.2,0.1,-0.22,0.31
20.57301115989685,-0.25,0.11,-0.33,0.42
20.577434062957764,-0.02,-0.07,-0.45,0.45
20.587427854537964,0.06,-0.01,-0.54,0.54
20.59782910346985,0.0,0.06,-0.43,0.43
20.60785984992981,0.13,0.0,-0.07,0.14
20.617605924606323,0.21,0.11,0.24,0.33
20.627508878707886,0.1,0.32,0.22,0.4
20.637338876724243,-0.04,0.36,-0.18,0.4
20.66875195503235,-0.19,0.32,-0.73,0.81
20.669996976852417,0.1,0.31,-1.12,1.16
20.67119598388672,0.69,0.22,-0.97,1.21
20.67677402496338,0.85,0.07,-0.66,1.07
20.69469904899597,0.55,0.0,-0.51,0.75
20.69648504257202,0.12,0.15,-0.42,0.46
20.711462020874023,-0.18,0.3,-0.42,0.54
20.716863870620728,-0.24,0.33,-0.49,0.63
20.72689986228943,-0.16,0.21,-0.48,0.54
20.736696004867554,-0.08,0.1,-0.5,0.51
20.766484022140503,-0.12,0.15,-0.44,0.48
20.767714977264404,-0.17,0.16,-0.3,0.38
20.768891096115112,-0.29,0.1,-0.25,0.39
20.779320001602173,-0.44,0.04,-0.3,0.53
20.78587007522583,-0.46,0.0,-0.35,0.57
20.795840978622437,-0.38,0.06,-0.26,0.46
20.806138038635254,-0.17,-0.03,-0.14,0.22
20.816070079803467,0.1,-0.08,-0.02,0.12
20.825802087783813,0.26,-0.04,0.12,0.28
20.83589506149292,0.3,-0.06,0.0,0.3
20.868321180343628,0.24,-0.06,-0.14,0.28
20.870030164718628,0.33,-0.06,-0.19,0.38
20.870978116989136,0.52,-0.12,-0.16,0.55
20.875338077545166,0.53,-0.22,-0.22,0.61
20.894814014434814,0.28,-0.26,-0.26,0.46
20.89631485939026,0.01,-0.12,-0.2,0.23
20.911653995513916,-0.2,0.13,0.01,0.23
20.91522717475891,-0.31,0.3,0.2,0.47
20.925100088119507,-0.33,0.27,0.26,0.49
20.935065984725952,-0.2,0.18,0.2,0.33
20.971230030059814,-0.04,0.07,0.17,0.18
20.972362995147705,0.05,0.06,0.09,0.11
20.973551988601685,0.18,0.07,-0.15,0.24
20.97512197494507,0.36,0.03,-0.32,0.48
20.98452115058899,0.4,0.01,-0.63,0.74
20.99447202682495,0.36,-0.15,-0.74,0.83
21.004521131515503,0.1,-0.17,-0.84,0.86
21.014721155166626,-0.26,0.02,-0.74,0.78
21.02459692955017,-0.61,0.36,-0.35,0.79
21.034340143203735,-0.68,0.43,-0.31,0.86
21.07056498527527,-0.75,0.07,-0.56,0.93
21.071922063827515,-0.91,-0.15,-0.79,1.21
21.072890043258667,-0.89,-0.02,-0.94,1.29
21.075320959091187,-0.66,0.22,-1.12,1.31
21.083755016326904,-0.79,0.38,-1.15,1.44
21.093921899795532,-1.29,0.43,-1.21,1.82
21.103931188583374,-1.48,0.78,-1.14,2.02
21.113728046417236,-1.34,0.8,-0.94,1.82
21.123822927474976,-1.29,0.49,-1.18,1.81
21.133679151535034,-0.99,0.47,-1.57,1.91
21.17123818397522,-0.66,0.52,-1.79,1.97
21.172844171524048,-0.32,0.86,-1.96,2.16
21.173845052719116,0.56,1.16,-1.48,1.96
21.17596411705017,0.78,1.56,-0.83,1.93
21.182923078536987,0.38,1.66,-0.12,1.7
21.193195104599,-0.29,1.9,0.27,1.94
21.203147172927856,-0.77,2.33,0.25,2.46
21.213216066360474,-1.19,2.46,-0.04,2.73
21.223013162612915,-1.12,2.38,0.16,2.63
21.232913970947266,-0.58,2.18,-0.08,2.25
21.269684076309204,0.02,2.1,-0.09,2.1
21.271013975143433,0.21,1.7,-0.28,1.73
21.271985054016113,-0.11,1.79,-0.9,2.0
21.27441096305847,-0.35,2.07,-1.06,2.35
21.295124053955078,-0.42,2.2,-1.03,2.46
21.296541929244995,-0.51,2.12,-0.96,2.38
21.311833143234253,-0.54,1.95,-1.04,2.27
21.31326198577881,-0.62,1.95,-1.35,2.45
21.32749104499817,-0.77,1.82,-1.58,2.53
21.33197808265686,-0.98,1.59,-1.74,2.55
21.343263864517212,-1.0,1.44,-1.89,2.57
21.37612509727478,-0.8,1.5,-1.86,2.51
21.37807011604309,-0.66,1.46,-1.69,2.32
21.379037141799927,-0.43,1.25,-1.46,1.96
21.396462202072144,-0.03,1.46,-1.15,1.85
21.397897958755493,0.47,1.94,-1.13,2.29
21.4119930267334,1.73,2.43,-1.31,3.25
21.413408041000366,0.89,1.49,-2.22,2.81
21.42866587638855,-1.06,-0.02,-2.27,2.5
21.431366205215454,-1.63,-0.79,-1.72,2.49
21.442244052886963,-2.22,-1.44,-1.81,3.2
21.4762179851532,-3.24,-2.14,-2.0,4.36
21.477530002593994,-2.03,-0.99,-1.27,2.59
21.478513956069946,-2.73,-1.27,-0.93,3.15
21.495621919631958,-4.99,-2.13,-1.74,5.69
21.49666714668274,-6.76,-2.36,-2.01,7.43
21.511975049972534,-7.02,-2.28,-1.61,7.55
21.513442039489746,-5.61,-2.12,-1.43,6.16
21.52877402305603,-4.06,-2.1,-1.75,4.89
21.530428171157837,-3.47,-1.66,-2.08,4.37
21.544177055358887,-3.19,-1.08,-2.34,4.1
21.572985887527466,-3.16,-0.52,-2.44,4.02
21.5743510723114,-3.45,-0.1,-2.36,4.18
21.575337171554565,-3.64,0.19,-2.16,4.23
21.59566307067871,-3.64,0.44,-1.97,4.16
21.59705901145935,-3.68,0.67,-1.82,4.15
21.611674070358276,-3.8,0.9,-1.8,4.3
21.613131999969482,-3.87,1.19,-1.81,4.43
21.628658056259155,-3.86,1.43,-1.75,4.47
21.6301429271698,-3.77,1.4,-1.47,4.28
21.644127130508423,-3.71,1.34,-1.1,4.09
21.672815084457397,-3.71,1.27,-0.84,4.01
21.67415499687195,-3.74,1.21,-0.63,3.98
21.67515802383423,-3.64,1.41,-0.45,3.92
21.69564199447632,-3.27,1.69,-0.3,3.69
21.69709610939026,-2.71,1.72,-0.13,3.21
21.712321996688843,-2.13,1.48,0.08,2.59
21.713826894760132,-1.61,1.25,0.28,2.05
21.728607892990112,-0.98,0.97,0.44,1.44
21.730077028274536,-0.05,0.61,0.54,0.81
21.74493718147278,0.9,0.01,0.47,1.01
21.77714204788208,1.38,-0.74,0.37,1.6
21.778581857681274,1.6,-1.16,0.53,2.04
21.779592037200928,1.94,-1.28,0.86,2.47
21.79555106163025,2.16,-1.24,1.32,2.81
21.796597003936768,2.16,-1.09,1.79,3.0
21.812018156051636,2.18,-0.7,2.25,3.21
21.813464879989624,2.37,-0.3,2.65,3.56
21.828456163406372,2.76,0.09,2.91,4.01
21.829930067062378,3.27,0.33,2.96,4.42
21.844463109970093,3.69,0.88,2.99,4.83
21.87446904182434,4.11,1.63,2.94,5.3
21.87575888633728,4.58,2.39,2.88,5.91
21.87676692008972,5.35,2.83,2.78,6.66
21.895434141159058,6.48,2.75,2.54,7.48
21.896462202072144,7.66,2.48,2.34,8.38
21.911962032318115,8.1,1.97,2.59,8.72
21.91344904899597,7.29,1.54,3.17,8.09
21.928674936294556,6.24,1.23,3.56,7.28
21.930175065994263,5.87,0.77,3.48,6.86
21.944385051727295,5.98,0.09,3.23,6.79
21.973571062088013,6.06,-0.7,2.99,6.79
21.974732160568237,5.73,-1.05,2.77,6.45
21.975746870040894,5.07,-1.31,2.74,5.91
21.99598503112793,4.23,-1.62,2.8,5.32
21.99747586250305,3.51,-1.88,2.72,4.82
22.01244616508484,3.26,-0.06,2.23,3.95
22.013916015625,2.91,0.88,0.93,3.17
22.02867102622986,6.01,-0.02,0.38,6.02
22.030181169509888,11.06,-1.08,0.76,11.13
22.04393696784973,10.32,-0.04,0.21,10.32
22.07257390022278,3.89,1.78,-0.71,4.33
22.073940992355347,-3.01,3.05,0.17,4.28
22.074918031692505,-3.87,3.36,2.51,5.7
22.095678091049194,-2.22,1.42,3.46,4.34
22.096723079681396,-0.53,0.07,2.85,2.89
22.11219096183777,0.65,0.06,2.02,2.12
22.113638162612915,0.96,-0.05,1.62,1.88
22.12889790534973,0.58,-0.37,1.31,1.47
22.130326986312866,0.13,-0.39,0.34,0.53
22.145164012908936,0.26,-0.12,-0.79,0.84
22.146627187728882,0.86,-0.17,-2.04,2.22
22.18928098678589,1.29,-0.15,-2.61,2.91
22.190415143966675,0.87,0.04,-1.61,1.83
22.191445112228394,-0.05,0.02,-0.21,0.21
22.21287703514099,-0.79,0.08,0.59,0.98
22.21441912651062,-1.02,0.16,1.0,1.43
22.227224111557007,-0.96,0.19,1.19,1.54
22.228634119033813,-0.79,0.13,0.71,1.07
22.24570393562317,-0.83,0.12,-0.43,0.94
22.247209072113037,-0.75,0.16,-1.11,1.34
22.26091504096985,-0.48,0.15,-1.15,1.25
22.290935039520264,-0.11,-0.02,-0.91,0.91
22.292316198349,0.15,-0.09,-0.47,0.5
22.293336153030396,0.06,0.1,-0.16,0.19
22.312334060668945,-0.01,0.25,0.13,0.28
22.313744068145752,0.22,0.08,0.19,0.3
22.32876706123352,0.6,-0.07,-0.03,0.6
22.33019185066223,1.12,-0.16,-0.28,1.16
22.34570598602295,1.44,-0.16,-0.33,1.48
22.347105979919434,1.46,-0.12,-0.34,1.5
22.360826015472412,1.25,-0.04,-0.17,1.26
22.38810896873474,0.93,0.01,0.15,0.94
22.38949990272522,0.59,-0.07,0.18,0.62
22.390546083450317,0.3,0.04,0.21,0.36
22.392714977264404,0.32,0.12,0.19,0.39
22.394200086593628,0.33,0.1,-0.06,0.35
22.403563022613525,0.34,0.0,-0.08,0.34
22.413965940475464,0.44,-0.17,0.03,0.47
22.424021005630493,0.48,-0.27,0.17,0.57
22.434036016464233,0.24,-0.14,0.09,0.29
22.443957090377808,-0.12,-0.07,-0.06,0.15
22.47322106361389,-0.35,-0.02,0.02,0.35
22.47437596321106,-0.24,-0.04,-0.06,0.25
22.475373029708862,0.03,-0.1,-0.19,0.21
22.49580407142639,0.09,-0.03,-0.26,0.27
22.496849060058594,0.09,0.06,-0.17,0.2
22.512430906295776,0.02,0.1,-0.09,0.13
22.513870000839233,-0.1,0.09,-0.15,0.2
22.52881693840027,-0.09,0.13,-0.19,0.24
22.53298807144165,0.05,0.14,-0.19,0.24
22.544438123703003,0.23,0.12,-0.08,0.27
22.57800316810608,0.46,0.12,0.13,0.49
22.579236030578613,0.46,0.19,0.02,0.49
22.58009099960327,0.31,0.3,-0.35,0.55
22.596460103988647,0.14,0.31,-0.6,0.68
22.597967863082886,-0.12,0.27,-0.89,0.93
22.61229920387268,-0.27,0.23,-1.05,1.1
22.613701105117798,-0.41,0.12,-1.07,1.15
22.629119157791138,-0.71,0.09,-1.11,1.32
22.632230043411255,-1.03,0.18,-0.99,1.43
22.64451289176941,-1.12,0.37,-0.65,1.34
22.68067502975464,-1.01,0.47,-0.41,1.18
22.68192410469055,-1.1,0.34,-0.52,1.26
22.682925939559937,-1.32,0.13,-0.57,1.44
22.696171045303345,-1.36,0.04,-0.42,1.42
22.697196006774902,-1.25,-0.06,-0.23,1.27
22.712311029434204,-0.74,-0.08,-0.08,0.74
22.713778972625732,-0.17,-0.01,0.14,0.22
22.729217052459717,0.17,0.01,0.11,0.2
22.73138999938965,0.06,0.14,-0.36,0.39
22.744549036026,-0.16,0.19,-1.02,1.04
22.77917504310608,-0.28,0.12,-1.34,1.37
22.780482053756714,-0.43,-0.08,-1.37,1.43
22.781491994857788,-0.28,-0.32,-1.21,1.28
22.79628300666809,-0.13,-0.14,-1.25,1.26
22.79728388786316,-0.22,0.17,-1.46,1.48
22.81240200996399,-0.68,0.56,-1.67,1.88
22.813891172409058,-1.02,0.92,-1.77,2.24
22.829155206680298,0.02,1.38,-1.21,1.83
22.830620050430298,0.78,1.28,-0.74,1.67
22.844513177871704,0.68,1.05,-0.57,1.37
22.87707018852234,0.08,0.99,0.21,1.01
22.87837815284729,-0.74,0.69,0.83,1.3
22.879462957382202,-1.37,0.81,0.68,1.73
22.896220922470093,-1.06,1.14,0.39,1.6
22.897298097610474,-0.33,1.65,0.58,1.77
22.912348985671997,-0.11,1.36,0.36,1.41
22.91382098197937,-0.17,1.3,0.06,1.31
22.92920207977295,0.02,1.31,-0.23,1.33
22.93067193031311,0.23,1.39,-0.36,1.45
22.94468092918396,0.18,1.25,-0.4,1.32
22.949909925460815,0.12,1.46,-0.34,1.5
22.9893000125885,-0.06,1.76,0.05,1.76
22.99047589302063,-0.21,1.49,0.31,1.53
22.991470098495483,-0.55,1.18,-0.01,1.3
23.01306700706482,-0.87,1.16,-0.23,1.46
23.01456618309021,-1.18,1.47,0.0,1.88
23.02926802635193,-1.55,1.81,0.09,2.38
23.030766010284424,-2.05,1.99,-0.26,2.86
23.04590916633606,-2.01,1.96,-0.52,2.85
23.047374963760376,-1.51,1.62,-0.5,2.27
23.06129288673401,-1.13,1.14,-0.74,1.76
23.0891330242157,-0.86,1.03,-1.02,1.68
23.09058117866516,-0.81,0.9,-1.21,1.71
23.091567993164062,-0.66,0.85,-1.22,1.62
23.11294198036194,-0.35,0.88,-1.57,1.83
23.113960027694702,-0.28,0.64,-2.09,2.2
23.13021206855774,0.36,1.13,-1.99,2.31
23.131687879562378,1.21,1.96,-1.48,2.73
23.14649796485901,0.34,1.12,-1.45,1.86
23.147961854934692,-0.3,0.15,-1.2,1.24
23.16115689277649,-0.06,-0.88,-1.21,1.49
23.189248085021973,-0.26,-2.22,-1.78,2.85
23.19056010246277,-1.8,-4.46,-2.71,5.52
23.191559076309204,-5.31,-4.84,-2.95,7.76
23.213465929031372,-5.23,-1.22,-2.06,5.75
23.21497106552124,-5.2,-1.21,-2.36,5.83
23.229372024536133,-7.63,-0.97,-3.39,8.4
23.230889081954956,-9.36,0.17,-3.58,10.02
23.24619698524475,-8.99,0.98,-3.41,9.66
23.24762511253357,-6.8,0.85,-3.2,7.56
23.261266946792603,-4.69,0.0,-3.4,5.79
23.29055905342102,-3.54,-0.04,-3.61,5.05
23.291882038116455,-2.81,0.88,-3.56,4.61
23.292901039123535,-2.3,1.57,-3.21,4.24
23.31261897087097,-2.18,1.35,-2.67,3.7
23.31367301940918,-2.41,0.79,-2.22,3.37
23.329297065734863,-2.73,0.53,-2.01,3.43
23.330780029296875,-2.92,0.66,-2.04,3.62
23.346225023269653,-3.07,0.93,-1.95,3.75
23.347674131393433,-3.23,1.06,-1.42,3.68
23.361457109451294,-3.39,0.87,-0.65,3.55
23.388540983200073,-3.73,0.6,0.15,3.78
23.389907121658325,-3.84,0.22,0.86,3.94
23.39092206954956,-3.47,-0.05,1.38,3.73
23.39307713508606,-3.16,0.11,1.69,3.58
23.396239042282104,-3.07,0.43,1.84,3.6
23.406092882156372,-2.86,0.91,1.97,3.59
23.41636300086975,-2.47,1.32,2.05,3.47
23.426307916641235,-1.87,1.58,1.97,3.14
23.436285972595215,-1.19,1.84,1.78,2.82
23.44620704650879,-0.53,2.11,1.51,2.64
23.481417894363403,0.18,2.32,1.29,2.66
23.482518911361694,0.96,2.4,1.46,2.96
23.48348307609558,1.98,2.26,1.77,3.48
23.49668288230896,2.88,1.95,1.68,3.86
23.49775195121765,3.46,1.51,1.39,4.02
23.512367963790894,4.11,1.14,1.31,4.46
23.515573978424072,5.06,0.78,1.42,5.31
23.5295889377594,6.07,0.26,1.73,6.31
23.535321950912476,6.79,-0.26,1.93,7.06
23.545260190963745,7.13,-0.6,1.97,7.42
23.581146955490112,7.09,-1.07,2.11,7.47
23.582458019256592,6.86,-1.5,2.36,7.4
23.583468198776245,6.71,-1.48,2.73,7.39
23.596508979797363,6.75,-1.62,2.74,7.46
23.5975821018219,6.74,-1.91,2.62,7.47
23.613094091415405,6.61,-2.09,2.65,7.42
23.614662885665894,6.55,-2.23,3.1,7.58
23.629441022872925,6.6,-2.48,3.7,7.96
23.634675979614258,6.27,-2.79,3.84,7.86
23.644572019577026,5.57,-2.31,3.61,7.02
23.681440114974976,5.04,-0.84,3.28,6.07
23.68275809288025,4.6,4.2,1.89,6.5
23.683840036392212,6.71,4.19,0.31,7.91
23.69686508178711,16.22,3.06,0.88,16.52
23.697959184646606,15.46,2.45,1.75,15.75
23.712625980377197,1.25,5.97,-0.73,6.14
23.71368098258972,-7.89,6.16,-0.71,10.03
23.72974419593811,-5.12,2.97,3.59,6.92
23.734014987945557,0.14,-0.26,4.81,4.81
23.74507999420166,2.07,-1.73,3.8,4.66
23.753934144973755,1.94,-0.87,1.91,2.85
23.784958124160767,1.11,-0.26,0.92,1.46
23.786125898361206,0.59,-0.2,-0.17,0.64
23.787374019622803,0.66,-0.3,-0.99,1.22
23.79368805885315,1.71,-0.42,-1.68,2.43
23.803311109542847,2.81,-0.56,-1.96,3.47
23.813411951065063,2.29,-0.49,-1.04,2.56
23.823113203048706,0.56,-0.18,0.82,1.0
23.833389043807983,-1.02,0.04,2.02,2.26
23.84335207939148,-1.64,0.18,1.67,2.34
23.853193044662476,-1.28,0.18,0.79,1.51
23.884356021881104,-0.45,0.18,0.31,0.57
23.88571000099182,-0.06,0.17,-0.08,0.19
23.8867130279541,-0.3,0.08,-0.72,0.78
23.89669704437256,-0.53,0.08,-0.59,0.79
23.902667999267578,-0.42,0.22,-0.3,0.56
23.912975072860718,-0.14,0.12,-0.79,0.81
23.92258620262146,0.13,-0.02,-0.89,0.89
23.932428121566772,-0.12,0.05,-0.49,0.5
23.942533016204834,-0.58,0.18,-0.33,0.69
23.952161073684692,-0.69,0.21,-0.37,0.81
23.98558211326599,-0.42,0.27,-0.53,0.72
23.98697018623352,-0.06,0.22,-0.57,0.61
23.988077878952026,0.08,-0.02,-0.52,0.52
23.995894193649292,0.37,-0.16,-0.27,0.48
24.001646995544434,0.8,-0.19,-0.06,0.82
24.012938976287842,1.0,-0.09,-0.23,1.03
24.021934032440186,0.98,0.09,-0.31,1.03
24.031709909439087,0.83,0.1,-0.17,0.85
24.041762113571167,0.55,0.01,-0.1,0.55
24.05135989189148,0.18,0.06,0.14,0.23
24.084269046783447,-0.1,0.18,0.25,0.32
24.085530996322632,-0.24,0.3,-0.13,0.4
24.086557149887085,-0.18,0.31,-0.22,0.42
24.09627890586853,-0.11,0.09,-0.25,0.28
24.100769996643066,-0.11,-0.12,-0.38,0.41
24.114233016967773,-0.02,-0.12,-0.25,0.27
24.121258020401,-0.02,-0.08,-0.23,0.24
24.13100504875183,-0.1,0.03,-0.4,0.41
24.14095187187195,-0.26,0.14,-0.58,0.65
24.150874853134155,-0.47,0.18,-0.59,0.77
24.188265085220337,-0.5,0.1,-0.48,0.7
24.189543962478638,-0.24,0.05,-0.29,0.37
24.19051194190979,0.02,0.08,-0.18,0.19
24.192924976348877,0.22,0.05,-0.04,0.22
24.200145959854126,0.25,-0.01,0.02,0.25
24.210589170455933,0.19,0.0,-0.29,0.34
24.220423936843872,0.12,0.0,-0.48,0.49
24.23044204711914,0.28,-0.04,-0.41,0.49
24.24003505706787,0.48,-0.17,-0.21,0.55
24.25009799003601,0.35,-0.21,-0.02,0.4
24.28682804107666,0.01,-0.07,0.05,0.08
24.288223028182983,-0.24,0.14,0.09,0.29
24.28918719291687,-0.3,0.21,0.18,0.4
24.29264998435974,-0.36,0.2,0.1,0.42
24.312766075134277,-0.28,0.11,-0.09,0.31
24.314078092575073,0.02,-0.06,-0.01,0.06
24.329510927200317,0.18,-0.09,0.23,0.3
24.330968141555786,0.38,-0.11,0.19,0.43
24.345525979995728,0.47,-0.24,-0.02,0.52
24.349334955215454,0.44,-0.3,-0.2,0.56
24.388230085372925,0.33,-0.16,-0.22,0.42
24.389382123947144,0.22,-0.07,-0.41,0.47
24.390548944473267,0.15,-0.28,-0.44,0.54
24.392690896987915,-0.05,-0.21,-0.33,0.39
24.398661851882935,-0.33,0.05,-0.35,0.48
24.408812046051025,-0.52,0.12,-0.14,0.55
24.418748140335083,-0.53,0.27,-0.36,0.69
24.42889714241028,-0.25,0.41,-0.61,0.77
24.438863039016724,-0.05,0.41,-0.78,0.88
24.448700189590454,-0.12,0.43,-1.13,1.21
24.484045028686523,-0.28,0.26,-1.23,1.28
24.48536205291748,-0.74,0.16,-1.21,1.42
24.48633313179016,-1.2,0.3,-1.12,1.66
24.494549989700317,-1.58,0.38,-0.93,1.87
24.497917890548706,-1.55,0.59,-0.78,1.83
24.513016939163208,-0.83,1.1,-0.77,1.57
24.51804804801941,-0.17,1.19,-1.08,1.61
24.529969930648804,0.28,1.21,-1.42,1.88
24.53799319267273,0.6,1.59,-1.49,2.26
24.54802393913269,0.4,1.95,-1.3,2.37
24.557849168777466,-0.46,2.28,-1.04,2.54
24.58844304084778,-1.11,2.69,-0.89,3.04
24.589607000350952,-1.47,2.79,-0.89,3.27
24.59089493751526,-1.52,2.97,-0.41,3.36
24.59713101387024,-1.68,2.66,-0.3,3.16
24.607185125350952,-1.94,2.52,-0.32,3.19
24.617115020751953,-2.08,2.47,-0.3,3.24
24.627580881118774,-2.03,2.44,-0.36,3.19
24.637269973754883,-1.92,2.34,-0.43,3.05
24.647183179855347,-1.81,1.99,-0.38,2.71
24.656888008117676,-1.76,1.76,-0.14,2.49
24.68826198577881,-1.5,1.98,0.23,2.49
24.689303159713745,-1.64,2.13,0.09,2.68
24.690531969070435,-1.89,2.01,-0.49,2.8
24.696455001831055,-1.7,1.94,-1.31,2.89
24.71336603164673,-1.47,1.62,-1.91,2.9
24.71657395362854,-1.26,1.11,-2.26,2.81
24.729982137680054,-1.0,0.79,-2.21,2.55
24.73635220527649,-0.87,0.46,-2.15,2.36
24.746198892593384,-0.34,0.66,-1.99,2.12
24.756052017211914,0.85,1.85,-1.85,2.75
24.788066148757935,2.73,3.29,-1.38,4.49
24.789290189743042,4.38,4.17,-0.78,6.09
24.790548086166382,2.39,1.89,-1.9,3.59
24.795719861984253,0.3,0.11,-2.92,2.93
24.81361985206604,-1.24,-0.97,-3.37,3.71
24.81574296951294,-3.01,-2.66,-2.93,4.97
24.830039024353027,-2.8,-2.47,-1.89,4.18
24.835620164871216,-1.69,-2.2,-0.94,2.92
24.845643997192383,-4.01,-3.09,-1.41,5.25
24.85559916496277,-6.85,-3.14,-2.05,7.8
24.886688947677612,-8.26,-2.41,-1.82,8.79
24.8879292011261,-7.6,-1.92,-1.39,7.96
24.889329195022583,-5.8,-2.37,-1.38,6.41
24.894762992858887,-4.4,-2.66,-1.59,5.38
24.904890060424805,-3.99,-2.16,-1.58,4.8
24.915268182754517,-4.04,-1.19,-1.37,4.42
24.925148010253906,-3.97,-0.37,-1.0,4.11
24.93514108657837,-3.56,-0.19,-0.79,3.65
24.945054054260254,-3.17,-0.4,-0.9,3.31
24.954771995544434,-2.91,-0.5,-1.08,3.14
24.99347710609436,-2.67,-0.39,-1.29,2.99
24.994790077209473,-2.44,-0.14,-1.49,2.86
24.995781183242798,-2.29,0.08,-1.74,2.87
25.013985872268677,-2.18,0.23,-1.99,2.96
25.015467882156372,-1.92,0.35,-2.02,2.8
25.03023409843445,-1.47,0.28,-1.7,2.26
25.031710863113403,-1.21,0.16,-1.22,1.72
25.046887159347534,-1.25,0.27,-0.84,1.53
25.048351049423218,-1.38,0.67,-0.56,1.63
25.062700986862183,-1.41,1.08,-0.35,1.81
25.09389901161194,-1.32,1.12,-0.16,1.73
25.095257997512817,-1.02,0.99,-0.11,1.42
25.09626603126526,-0.61,0.92,-0.19,1.12
25.11416792869568,-0.34,0.82,-0.2,0.9
25.115214109420776,-0.11,0.85,-0.06,0.85
25.12992000579834,0.06,0.97,0.24,1.0
25.13140296936035,-0.05,1.26,0.84,1.51
25.146992921829224,-0.54,1.42,1.63,2.22
25.14847493171692,-1.01,1.53,2.21,2.87
25.162219047546387,-0.84,1.46,2.71,3.19
25.18962788581848,-0.4,1.08,2.95,3.16
25.1909921169281,-0.09,0.85,3.03,3.14
25.192065954208374,0.28,0.84,3.13,3.25
25.194321870803833,0.9,0.98,3.16,3.42
25.20250701904297,1.77,1.08,3.02,3.66
25.21280789375305,2.73,0.94,2.72,3.96
25.222563982009888,3.56,0.85,2.33,4.33
25.23285984992981,4.16,0.84,1.96,4.67
25.242719888687134,4.7,0.98,1.69,5.08
25.252565145492554,5.31,1.17,1.74,5.7
25.2885160446167,6.03,1.23,1.79,6.4
25.289879083633423,6.64,0.89,1.45,6.85
25.290884971618652,6.93,0.27,0.85,6.98
25.29310393333435,7.06,-0.24,0.44,7.07
25.301804065704346,7.11,-0.53,0.36,7.13
25.31203603744507,7.04,-0.66,0.43,7.08
25.32180094718933,6.85,-0.81,0.56,6.92
25.33216691017151,6.11,0.14,0.55,6.13
25.342028856277466,5.31,0.44,0.39,5.34
25.351875066757202,6.66,-0.27,1.15,6.76
25.361841917037964,8.77,-0.84,2.47,9.14
25.392307996749878,8.92,-1.31,2.88,9.46
25.393512964248657,6.97,-0.23,2.89,7.54
25.39451813697815,6.08,1.03,3.63,7.15
25.413635969161987,5.8,1.34,4.93,7.72
25.41470694541931,2.71,0.67,5.52,6.18
25.43018412590027,-2.42,-0.85,3.26,4.14
25.431687116622925,-4.18,-0.99,1.07,4.42
25.44714617729187,-2.03,0.38,0.14,2.06
25.45110011100769,1.47,2.69,0.76,3.15
25.460888147354126,3.07,2.51,2.08,4.47
25.493377923965454,2.39,-0.38,2.16,3.24
25.494681119918823,1.08,-0.83,1.04,1.71
25.49573016166687,0.37,-0.21,-0.44,0.61
25.514200925827026,0.49,-0.27,-1.5,1.6
25.51572012901306,0.86,-0.12,-1.26,1.53
25.530213117599487,0.69,-0.08,-1.09,1.29
25.531623125076294,0.03,-0.06,-0.83,0.83
25.547152996063232,-0.3,0.21,0.06,0.37
25.5502610206604,-0.38,0.26,0.62,0.77
25.56239104270935,-0.48,0.18,0.43,0.66
25.593197107315063,-0.67,0.27,-0.15,0.73
25.59462285041809,-0.57,0.37,-0.53,0.86
25.595650911331177,0.04,0.17,-0.62,0.64
25.614660024642944,0.58,0.18,-0.54,0.81
25.61615490913391,0.6,0.16,-0.78,0.99
25.63023805618286,0.45,-0.08,-0.79,0.91
25.631666898727417,0.61,-0.14,-0.31,0.69
25.64722514152527,0.38,-0.15,-0.32,0.51
25.64939308166504,0.0,0.03,-0.64,0.64
25.662505865097046,-0.31,0.18,-0.82,0.89
25.689932107925415,-0.41,0.3,-0.97,1.09
25.6913001537323,-0.01,0.31,-0.71,0.77
25.692310094833374,0.43,0.11,-0.32,0.54
25.69887900352478,0.56,-0.06,-0.27,0.62
25.708985090255737,0.59,-0.15,-0.23,0.65
25.71886706352234,0.45,-0.09,-0.03,0.45
25.72930097579956,0.19,-0.01,-0.12,0.22
25.738929986953735,-0.1,0.01,-0.25,0.26
25.748826026916504,-0.16,0.0,-0.3,0.34
25.758862018585205,0.04,-0.08,-0.38,0.39
25.79516911506653,0.13,-0.17,-0.29,0.36
25.796277046203613,0.01,-0.17,-0.23,0.28
25.797280073165894,-0.11,-0.03,-0.08,0.13
25.814414978027344,-0.27,0.14,0.14,0.33
25.81549620628357,-0.39,0.19,0.26,0.5
25.83035111427307,-0.27,0.09,0.18,0.33
25.831813097000122,-0.13,-0.08,0.18,0.23
25.847203016281128,-0.07,-0.18,0.02,0.19
25.84860110282898,0.12,-0.17,0.02,0.2
25.862201929092407,0.22,-0.09,0.1,0.25
25.8938992023468,0.26,0.02,0.0,0.26
25.895177125930786,0.27,0.03,0.04,0.27
25.896165132522583,0.3,0.08,0.17,0.35
25.914355993270874,0.35,0.03,0.21,0.4
25.915427923202515,0.32,-0.07,0.08,0.33
25.930597066879272,0.27,-0.04,0.05,0.27
25.93208408355713,0.19,0.01,-0.06,0.19
25.947641134262085,0.05,0.04,-0.29,0.29
25.949127912521362,-0.17,0.15,-0.58,0.62
25.962754011154175,-0.44,0.17,-0.79,0.92
25.994415998458862,-0.55,0.19,-0.63,0.85
25.995815992355347,-0.7,0.19,-0.7,1.0
25.996719121932983,-1.04,0.19,-1.1,1.52
26.01451301574707,-1.66,0.14,-1.23,2.07
26.01599907875061,-2.36,0.35,-1.3,2.71
26.030009984970093,-2.11,0.69,-0.99,2.43
26.03146195411682,-1.36,0.59,-0.49,1.56
26.04720902442932,-1.03,0.15,-0.49,1.15
26.048562049865723,-0.72,-0.17,-0.57,0.93
26.0625479221344,-0.41,-0.25,-0.45,0.65
26.092325925827026,-0.13,-0.07,-0.47,0.49
26.093720197677612,-0.12,0.17,-0.81,0.83
26.094722986221313,-0.66,0.36,-1.24,1.45
26.113821029663086,-1.48,0.44,-1.55,2.18
26.114907026290894,-1.55,0.64,-1.38,2.17
26.130373001098633,-0.7,0.81,-1.0,1.46
26.131816148757935,0.39,0.81,-1.06,1.38
26.14722204208374,1.12,0.68,-1.24,1.8
26.148701906204224,1.39,0.57,-1.29,1.98
26.16251492500305,1.15,0.71,-1.27,1.85
26.165513038635254,0.49,1.02,-1.21,1.65
26.208036184310913,-0.23,1.46,-1.05,1.81
26.209176063537598,-0.85,1.91,-0.51,2.15
26.210174083709717,-1.34,2.65,-0.63,3.03
26.231669187545776,-1.33,3.29,-0.94,3.67
26.233155012130737,-1.29,3.59,-0.7,3.87
26.247323036193848,-0.99,3.29,-0.06,3.43
26.248740911483765,-0.99,3.04,-0.29,3.21
26.26396608352661,-0.99,2.66,0.01,2.83
26.26533603668213,-0.82,2.59,0.14,2.72
26.279417037963867,-1.06,2.77,-0.26,2.97
26.308665990829468,-1.32,2.56,-0.21,2.88
26.309919118881226,-1.21,1.97,-0.38,2.34
26.310889959335327,-1.12,1.67,-0.72,2.13
26.330749034881592,-1.22,1.61,-0.92,2.21
26.331823110580444,-1.4,1.37,-1.24,2.31
26.347469091415405,-1.5,1.3,-1.58,2.53
26.348954916000366,-1.37,1.35,-1.67,2.54
26.364009141921997,-0.86,1.42,-1.57,2.28
26.36542296409607,-0.42,1.11,-1.24,1.71
26.3796489238739,0.19,0.8,-1.18,1.43
26.408066034317017,0.9,0.91,-1.31,1.83
26.409343957901,2.66,2.15,-1.11,3.59
26.410382986068726,2.58,2.43,-1.63,3.9
26.431166887283325,0.12,1.01,-2.15,2.37
26.432212114334106,-1.08,0.56,-2.14,2.46
26.447574853897095,-1.66,0.3,-2.16,2.74
26.449028968811035,-2.81,-0.64,-2.27,3.66
26.463821172714233,-4.13,-1.1,-2.65,5.02
26.465256929397583,-2.85,0.48,-2.09,3.56
26.47967219352722,-3.2,0.18,-2.33,3.96
26.507416009902954,-5.61,-0.27,-3.27,6.49
26.508862018585205,-7.46,-0.16,-3.44,8.21
26.509857892990112,-7.22,-0.2,-2.81,7.75
26.5309841632843,-5.43,-0.91,-2.09,5.88
26.532052040100098,-3.87,-1.68,-1.74,4.56
26.547800064086914,-3.41,-1.88,-1.86,4.31
26.54926300048828,-3.79,-1.45,-2.2,4.61
26.56411385536194,-4.39,-0.83,-2.31,5.02
26.56555199623108,-4.55,-0.49,-2.06,5.01
26.579729080200195,-4.24,-0.53,-1.81,4.64
26.607523202896118,-3.85,-0.67,-1.83,4.31
26.608936071395874,-3.68,-0.46,-1.81,4.12
26.60994005203247,-3.6,-0.09,-1.8,4.02
26.631759881973267,-3.37,0.16,-1.58,3.72
26.63324809074402,-2.76,0.2,-1.2,3.01
26.64757513999939,-1.96,-0.06,-1.05,2.22
26.64897608757019,-1.26,-0.06,-0.98,1.59
26.664148092269897,-0.88,0.24,-1.0,1.35
26.66557502746582,-1.17,0.45,-0.87,1.52
26.679614067077637,-1.7,0.46,-0.56,1.84
26.70834994316101,-1.98,0.47,-0.11,2.03
26.7097110748291,-1.96,0.48,0.4,2.05
26.710711002349854,-1.83,0.42,0.73,2.01
26.73125910758972,-1.58,0.4,0.89,1.85
26.73232388496399,-1.22,0.3,0.95,1.57
26.74766206741333,-1.0,0.12,0.95,1.38
26.74901509284973,-0.83,0.17,1.12,1.4
26.764178037643433,-0.54,0.44,1.21,1.39
26.765641927719116,-0.23,0.59,1.17,1.33
26.779866933822632,0.04,0.44,1.11,1.19
26.80859398841858,0.25,0.28,1.22,1.27
26.810018062591553,0.57,0.31,1.52,1.65
26.81100106239319,0.89,0.44,1.84,2.09
26.83085799217224,1.08,0.53,2.1,2.42
26.831852197647095,1.28,0.82,2.38,2.82
26.846415996551514,1.72,1.2,2.59,3.33
26.84787917137146,2.25,1.54,2.55,3.73
26.864362955093384,2.64,1.87,2.29,3.96
26.865838050842285,3.11,2.47,2.09,4.48
26.88007616996765,4.12,3.12,2.12,5.58
26.9094021320343,5.32,3.0,1.96,6.41
26.910706043243408,5.93,2.57,1.68,6.67
26.911708116531372,6.05,2.28,1.44,6.62
26.931297063827515,5.71,2.99,1.39,6.59
26.932772874832153,5.64,3.46,1.36,6.75
26.947772979736328,8.15,0.3,1.48,8.28
26.949233055114746,9.35,-0.13,1.89,9.53
26.96420407295227,8.65,-0.14,1.15,8.72
26.96563696861267,7.45,-0.64,0.52,7.49
26.980151891708374,6.58,-0.86,0.51,6.65
26.981693029403687,6.13,-1.01,0.59,6.24
27.0313880443573,5.86,-1.56,0.66,6.09
27.03252601623535,5.42,-1.62,0.71,5.7
27.03349995613098,4.75,-1.57,0.76,5.06
27.044665098190308,4.25,-1.6,0.99,4.64
27.045678853988647,4.43,-1.66,1.43,4.94
27.062417030334473,5.01,-1.4,2.1,5.6
27.064143896102905,8.21,0.21,2.77,8.66
27.081310987472534,8.51,1.25,3.24,9.19
27.082821130752563,3.27,3.34,3.39,5.77
27.096598863601685,-1.65,4.11,3.01,5.35
27.126080989837646,-4.09,2.34,2.15,5.17
27.12758207321167,-3.7,0.78,1.07,3.92
27.1285879611969,-1.86,0.44,0.3,1.93
27.148051023483276,0.95,0.53,1.01,1.48
27.149105072021484,2.66,-0.24,2.24,3.48
27.163163900375366,2.18,-0.9,2.01,3.09
27.16465401649475,1.17,-0.81,0.61,1.54
27.181195974349976,0.81,-0.37,-0.78,1.18
27.182676076889038,1.11,-0.07,-1.23,1.65
27.19673800468445,1.51,-0.13,-1.3,1.99
27.224592924118042,1.31,0.0,-1.03,1.66
27.225888967514038,0.86,0.04,0.09,0.86
27.226911067962646,0.78,-0.28,1.31,1.55
27.24814009666443,0.53,-0.21,1.92,2.0
27.24918007850647,0.06,0.11,1.77,1.77
27.26458716392517,-0.35,0.23,1.12,1.19
27.266098976135254,-0.31,0.26,0.36,0.54
27.281191110610962,-0.07,0.12,-0.5,0.51
27.28264307975769,0.43,0.06,-1.03,1.11
27.29590106010437,0.52,-0.09,-1.17,1.28
27.323249101638794,0.35,0.14,-1.27,1.32
27.324586153030396,-0.01,0.15,-0.73,0.74
27.32566499710083,0.21,0.24,-0.24,0.39
27.32781720161438,0.06,0.19,-0.13,0.23
27.32926106452942,0.05,0.41,-0.3,0.51
27.33075785636902,0.02,0.33,-0.46,0.56
27.33637309074402,-0.22,0.29,-0.76,0.84
27.346742868423462,0.15,0.2,-0.81,0.84
27.35651206970215,0.45,0.07,-0.54,0.7
27.366581201553345,0.35,0.05,-0.49,0.6
27.399597883224487,0.0,0.02,-0.56,0.56
27.40090799331665,-0.41,-0.13,-0.5,0.65
27.40190100669861,-0.7,-0.22,-0.47,0.87
27.413065195083618,-0.68,-0.07,-0.29,0.74
27.415834188461304,-0.63,0.04,-0.24,0.67
27.430958032608032,-0.55,0.03,-0.54,0.77
27.435846090316772,-0.34,0.1,-0.56,0.66
27.44763708114624,-0.19,0.1,-0.5,0.54
27.455857038497925,-0.08,0.12,-0.53,0.54
27.465900182724,-0.16,0.11,-0.55,0.58
27.50120997428894,-0.32,0.06,-0.35,0.47
27.50254797935486,-0.38,0.06,-0.21,0.43
27.50349998474121,-0.24,0.09,-0.36,0.44
27.515236139297485,-0.03,0.13,-0.32,0.34
27.51627802848816,0.22,0.2,-0.05,0.3
27.530876874923706,0.46,0.13,0.0,0.47
27.53503918647766,0.59,0.02,0.0,0.59
27.547948122024536,0.52,-0.13,0.09,0.54
27.555047035217285,0.46,-0.25,0.13,0.53
27.564980030059814,0.44,-0.32,0.02,0.54
27.600250959396362,0.44,-0.28,-0.06,0.52
27.601541996002197,0.34,-0.13,-0.15,0.39
27.602564096450806,0.16,0.12,-0.36,0.41
27.614826917648315,0.02,0.13,-0.57,0.58
27.61584496498108,0.0,-0.08,-0.57,0.57
27.631192922592163,-0.08,-0.13,-0.4,0.42
27.634510040283203,-0.34,0.08,-0.56,0.66
27.64782214164734,-0.8,0.19,-0.58,1.0
27.654760122299194,-1.25,0.2,-0.39,1.32
27.664642095565796,-1.32,0.1,-0.21,1.34
27.70123600959778,-1.02,-0.02,-0.06,1.02
27.702498197555542,-0.83,-0.12,-0.27,0.88
27.703550100326538,-0.79,-0.18,-0.54,0.97
27.71466302871704,-0.79,-0.28,-0.76,1.13
27.715646028518677,-0.96,-0.25,-0.9,1.33
27.730748891830444,-1.12,-0.08,-0.82,1.39
27.733442068099976,-0.88,0.24,-0.29,0.95
27.747860193252563,-0.4,0.73,0.01,0.83
27.753517866134644,0.16,0.99,0.07,1.0
27.76347517967224,0.59,0.69,0.13,0.91
27.77359414100647,0.71,0.2,0.02,0.73
27.80377197265625,0.58,0.01,-0.25,0.63
27.8049418926239,0.54,-0.04,-0.46,0.71
27.806292057037354,0.46,-0.05,-0.82,0.94
27.8128399848938,0.3,0.05,-1.22,1.25
27.823014974594116,0.04,0.2,-1.46,1.47
27.83277201652527,-0.77,0.47,-1.7,1.92
27.842939138412476,-1.48,0.52,-1.82,2.4
27.852803945541382,-1.91,0.74,-1.76,2.7
27.86291813850403,-1.39,1.8,-1.83,2.91
27.87276005744934,-1.01,2.49,-1.95,3.32
27.90336585044861,-1.14,2.84,-1.81,3.55
27.904685020446777,-0.64,3.2,-1.48,3.58
27.9058039188385,-0.26,3.01,-1.02,3.18
27.912472009658813,-0.13,3.0,-0.45,3.03
27.922224044799805,-0.26,3.16,-0.38,3.19
27.932054042816162,-0.39,2.84,-0.48,2.9
27.94213891029358,-0.56,2.46,-0.57,2.58
27.952162981033325,-0.72,2.32,-0.62,2.5
27.96188187599182,-1.04,2.11,-0.79,2.48
27.9719500541687,-1.42,1.87,-0.98,2.54
28.00293517112732,-1.82,1.74,-0.99,2.7
28.004369020462036,-2.25,1.63,-0.98,2.94
28.005380868911743,-2.47,1.66,-1.14,3.18
28.01474690437317,-2.39,1.51,-1.18,3.06
28.02159285545349,-1.87,1.57,-1.07,2.66
28.031173944473267,-1.21,1.63,-1.0,2.26
28.04159903526306,-0.96,1.1,-0.92,1.72
28.051356077194214,-0.39,0.37,-0.54,0.76
28.061525106430054,0.81,1.38,-0.3,1.62
28.071368932724,2.32,2.65,-0.39,3.54
28.10374093055725,2.99,2.33,-1.0,3.92
28.10504412651062,1.31,0.4,-1.76,2.23
28.106064081192017,-0.19,-0.55,-1.94,2.02
28.113607168197632,-1.17,-1.06,-1.5,2.17
28.12083601951599,-2.9,-1.54,-1.4,3.56
28.131162881851196,-4.09,-0.81,-0.89,4.26
28.140851974487305,-2.91,-0.27,-0.24,2.93
28.15062117576599,-3.62,-1.66,-1.2,4.15
28.160743951797485,-5.49,-1.86,-2.1,6.16
28.170698881149292,-5.96,-1.63,-2.14,6.53
28.20688509941101,-4.7,-1.72,-1.83,5.32
28.20827603340149,-3.23,-2.0,-1.72,4.17
28.20924687385559,-2.72,-1.99,-1.83,3.83
28.211580991744995,-3.06,-1.57,-2.0,3.97
28.220038175582886,-3.57,-1.13,-1.88,4.19
28.229973077774048,-3.81,-0.94,-1.55,4.21
28.239854097366333,-3.84,-0.78,-1.27,4.11
28.250185012817383,-3.77,-0.38,-1.1,3.94
28.259952068328857,-3.67,0.16,-0.93,3.78
28.269803047180176,-3.73,0.74,-0.96,3.92
28.307404041290283,-4.03,1.37,-1.29,4.44
28.30883502960205,-4.15,1.7,-1.37,4.68
28.309794187545776,-3.7,1.54,-1.14,4.16
28.31211018562317,-2.88,1.21,-0.94,3.26
28.31906008720398,-2.19,1.02,-0.86,2.56
28.329374074935913,-1.98,0.95,-0.91,2.37
28.339086055755615,-2.19,1.01,-0.93,2.58
28.349292993545532,-2.44,1.03,-0.83,2.77
28.359214067459106,-2.55,0.81,-0.76,2.78
28.369124174118042,-2.42,0.64,-0.77,2.61
28.40568518638611,-2.05,0.54,-0.79,2.26
28.407142877578735,-1.72,0.49,-0.82,1.96
28.408132076263428,-1.54,0.59,-0.79,1.82
28.410994052886963,-1.45,0.76,-0.56,1.73
28.43111300468445,-1.53,0.78,-0.23,1.73
28.432044982910156,-1.59,0.86,0.09,1.8
28.448076963424683,-1.13,1.07,0.29,1.58
28.44945216178894,-0.35,1.14,0.21,1.21
28.463443994522095,0.02,1.1,0.23,1.12
28.46838116645813,0.23,1.03,0.64,1.23
28.505932092666626,0.72,0.82,1.07,1.52
28.507147073745728,1.23,0.52,1.18,1.78
28.50837802886963,1.53,0.45,1.28,2.04
28.51138186454773,1.88,0.59,1.37,2.39
28.531657934188843,2.49,0.8,1.38,2.95
28.532711029052734,3.21,0.77,1.33,3.55
28.548675060272217,3.73,0.54,1.27,3.97
28.550148010253906,4.13,0.37,1.44,4.38
28.564060926437378,4.69,0.26,1.69,4.99
28.567493200302124,5.56,0.2,1.93,5.88
28.580100059509277,6.47,0.01,2.15,6.81
28.608501195907593,6.96,-0.28,2.25,7.32
28.609841108322144,6.86,-0.23,2.4,7.27
28.61081290245056,6.66,-0.08,2.82,7.23
28.63017702102661,6.74,-0.32,3.23,7.48
28.63119101524353,6.83,-0.69,3.52,7.71
28.64509892463684,6.82,-1.05,3.59,7.77
28.646458864212036,6.16,0.59,3.49,7.1
28.665162086486816,5.66,1.31,3.27,6.66
28.66662287712097,7.5,0.13,3.69,8.35
28.680835962295532,9.75,-0.76,3.89,10.52
28.710467100143433,10.86,-1.22,3.23,11.39
28.7119619846344,12.85,1.28,2.78,13.2
28.71299910545349,10.74,3.16,2.21,11.41
28.731958150863647,1.21,3.78,-0.64,4.02
28.73301911354065,-5.64,3.87,-2.07,7.14
28.74850106239319,-4.61,1.96,-0.17,5.01
28.74996018409729,-0.4,0.13,2.0,2.04
28.764937162399292,2.47,-1.12,3.4,4.34
28.766422986984253,3.75,-1.22,3.62,5.35
28.781107187271118,2.53,-0.76,3.26,4.19
28.81014108657837,1.02,-0.61,2.16,2.46
28.811591863632202,0.24,-0.48,1.02,1.15
28.81259298324585,0.02,-0.33,0.24,0.4
28.831860065460205,0.28,-0.14,-0.41,0.51
28.832927942276,0.7,0.08,-0.8,1.06
28.84849190711975,0.94,0.3,-0.47,1.09
28.849990129470825,0.54,0.44,-0.16,0.71
28.865161180496216,-0.36,0.41,-0.26,0.6
28.86661410331726,-1.01,0.37,-0.8,1.34
28.88077187538147,-0.95,0.49,-1.37,1.73
28.91124987602234,-0.31,0.37,-1.1,1.2
28.91254997253418,0.22,0.17,-1.08,1.11
28.91356587409973,0.66,0.03,-1.13,1.3
28.932013988494873,0.84,0.12,-0.78,1.15
28.933021068572998,0.5,0.1,-0.49,0.7
28.9486300945282,0.06,0.04,-0.23,0.24
28.95013999938965,-0.09,0.16,0.05,0.19
28.964988946914673,-0.14,0.13,0.06,0.2
28.966392993927002,0.07,-0.01,0.06,0.09
28.98052406311035,0.59,-0.2,0.12,0.63
29.010982990264893,1.17,-0.41,-0.12,1.24
29.012384176254272,1.36,-0.44,-0.25,1.45
29.013391971588135,1.09,-0.27,-0.18,1.13
29.033589124679565,0.54,-0.03,-0.09,0.54
29.03464913368225,0.16,0.09,-0.02,0.18
29.04897403717041,0.1,0.07,0.12,0.17
29.050427198410034,0.13,0.06,0.03,0.14
29.064975023269653,0.08,-0.02,-0.34,0.34
29.066459894180298,-0.1,-0.04,-0.58,0.58
29.07973885536194,-0.29,0.06,-0.74,0.79
29.111951112747192,-0.45,0.18,-0.79,0.92
29.11332106590271,-0.54,0.24,-0.62,0.85
29.11432385444641,-0.69,0.2,-0.36,0.8
29.132158994674683,-0.69,0.17,-0.22,0.74
29.13313889503479,-0.38,0.05,-0.12,0.4
29.14872407913208,-0.04,-0.1,-0.09,0.14
29.15013098716736,0.07,-0.13,-0.09,0.17
29.16510510444641,-0.05,-0.1,-0.09,0.14
29.166452169418335,-0.1,0.02,-0.14,0.17
29.180780172348022,-0.15,0.07,-0.41,0.44
29.210399866104126,-0.3,0.1,-0.63,0.7
29.211743116378784,-0.39,0.05,-0.48,0.62
29.212795972824097,-0.37,0.09,-0.39,0.54
29.23230814933777,-0.47,0.0,-0.35,0.58
29.233279943466187,-0.78,-0.02,-0.38,0.86
29.24870991706848,-1.21,0.31,-0.25,1.27
29.250160932540894,-1.57,0.56,-0.21,1.68
29.265207052230835,-1.39,0.53,-0.28,1.51
29.266688108444214,-1.04,0.35,-0.17,1.11
29.28096103668213,-0.72,0.08,-0.42,0.83
29.309755086898804,-0.32,-0.04,-0.73,0.79
29.31120800971985,-0.18,-0.03,-0.84,0.85
29.312175989151,-0.29,0.01,-0.84,0.88
29.33242106437683,-0.65,0.16,-1.02,1.22
29.333464860916138,-1.17,0.33,-1.06,1.61
29.3487708568573,-1.63,0.35,-0.73,1.81
29.350213050842285,-2.24,0.45,-1.04,2.51
29.36532187461853,-1.41,0.89,-1.59,2.3
29.366806983947754,0.39,0.57,-1.11,1.3
29.381072998046875,1.3,-0.29,-0.24,1.35
29.38255500793457,1.46,-0.57,0.26,1.58
29.43163800239563,1.07,-0.18,-0.01,1.08
29.43279719352722,0.83,0.12,-0.22,0.86
29.43383288383484,1.0,0.41,-0.15,1.09
29.449424982070923,1.08,0.66,-0.72,1.45
29.450469970703125,0.84,1.28,-1.39,2.06
29.465208053588867,0.95,1.49,-1.42,2.26
29.46661686897278,0.91,1.95,-1.2,2.46
29.482274055480957,0.15,2.48,-0.27,2.49
29.483712911605835,-0.85,2.96,0.11,3.08
29.497681856155396,-1.37,3.41,-0.28,3.68
29.525575876235962,-1.27,3.16,-0.36,3.42
29.526910066604614,-1.12,2.91,-0.05,3.11
29.527889013290405,-1.49,2.72,-0.91,3.23
29.53014898300171,-1.9,2.95,-1.05,3.66
29.53150486946106,-1.57,2.95,-1.04,3.49
29.539697885513306,-1.23,2.75,-1.03,3.18
29.55007815361023,-1.35,2.14,-0.85,2.66
29.55984401702881,-1.37,1.65,-0.47,2.19
29.56991219520569,-1.38,1.48,-0.07,2.02
29.58016610145569,-1.84,1.53,-0.24,2.4
29.61002516746521,-2.31,1.29,-0.39,2.67
29.611203908920288,-2.07,0.89,-0.29,2.27
29.612205028533936,-1.37,0.94,-0.3,1.68
29.632027864456177,-0.57,0.95,-0.34,1.15
29.633065938949585,0.3,0.39,-0.45,0.66
29.648593187332153,0.95,0.3,-0.96,1.38
29.64962410926819,1.93,0.95,-1.4,2.56
29.66546893119812,3.79,2.67,-1.11,4.76
29.669184923171997,3.48,2.83,-1.28,4.66
29.68099617958069,1.04,1.26,-1.75,2.39
29.709930181503296,-0.6,-0.18,-1.82,1.92
29.711305856704712,-1.8,-1.62,-2.03,3.15
29.7122859954834,-3.7,-2.29,-2.16,4.85
29.732321977615356,-3.21,0.01,-1.4,3.5
29.733375072479248,-2.78,-0.65,-2.29,3.65
29.74900794029236,-4.81,-1.58,-3.66,6.24
29.750427961349487,-6.63,-1.65,-3.75,7.79
29.765454053878784,-6.22,-1.66,-3.13,7.15
29.768348932266235,-4.19,-1.81,-2.43,5.17
29.781094074249268,-2.54,-1.89,-2.26,3.88
29.815780878067017,-2.0,-1.47,-2.55,3.55
29.817155122756958,-2.19,-0.79,-2.74,3.59
29.818191051483154,-2.69,-0.49,-2.58,3.75
29.83310103416443,-3.04,-0.5,-2.08,3.71
29.83414602279663,-3.17,-0.53,-1.43,3.51
29.8488290309906,-3.28,-0.47,-0.94,3.44
29.850319147109985,-3.31,-0.21,-0.81,3.41
29.86558985710144,-3.13,0.04,-0.94,3.26
29.867647886276245,-2.91,0.09,-1.08,3.1
29.881124019622803,-2.79,0.11,-1.01,2.96
29.916728019714355,-2.73,0.29,-0.74,2.84
29.917986154556274,-2.66,0.32,-0.36,2.7
29.91902208328247,-2.47,0.25,-0.07,2.48
29.932918071746826,-2.19,0.15,-0.03,2.19
29.933969974517822,-1.99,0.04,-0.16,1.99
29.948424100875854,-2.01,0.03,-0.22,2.02
29.94976019859314,-2.08,0.2,0.03,2.08
29.965617895126343,-2.0,0.25,0.34,2.04
29.967076063156128,-1.84,0.23,0.55,1.93
29.981271982192993,-1.68,0.4,0.59,1.82
30.014625072479248,-1.54,0.46,0.54,1.69
