time,ax,ay,az,atotal
0.008450984954833984,1.74,1.39,-3.02,3.75
0.017845869064331055,0.86,1.4,-1.28,2.08
0.02792191505432129,-0.39,-0.55,-0.05,0.67
0.038568973541259766,-0.86,-0.56,1.42,1.75
0.04783987998962402,-0.23,-0.29,1.21,1.26
0.09321093559265137,0.45,0.04,0.07,0.45
0.0934758186340332,0.33,0.24,-0.76,0.86
0.09373593330383301,-0.03,0.2,-0.59,0.62
0.0939939022064209,-0.17,-0.03,0.17,0.24
0.09772777557373047,0.0,-0.16,0.54,0.56
0.10821986198425293,0.15,-0.09,0.17,0.24
0.11762785911560059,0.01,0.13,-0.34,0.36
0.12769699096679688,-0.27,0.13,-0.47,0.55
0.13847088813781738,-0.27,0.05,-0.17,0.32
0.14780092239379883,-0.08,-0.05,0.24,0.25
0.19292187690734863,0.05,-0.09,0.31,0.32
0.19318890571594238,0.12,-0.03,0.16,0.2
0.1934490203857422,0.14,0.0,-0.01,0.14
0.1937108039855957,0.0,0.01,-0.07,0.07
0.19758892059326172,-0.1,-0.01,0.03,0.1
0.20812392234802246,-0.17,-0.06,0.07,0.19
0.21744775772094727,-0.28,-0.02,0.12,0.3
0.22766995429992676,-0.35,0.0,0.16,0.38
0.2383439540863037,-0.22,-0.05,0.09,0.24
0.24760198593139648,0.03,-0.01,-0.03,0.04
0.29283690452575684,0.13,0.08,-0.12,0.19
0.29308295249938965,0.17,0.07,-0.12,0.21
0.2933478355407715,0.26,-0.01,-0.06,0.26
0.29358577728271484,0.26,0.0,-0.03,0.26
0.2975020408630371,0.16,-0.05,-0.06,0.17
0.30783891677856445,0.05,-0.06,-0.06,0.09
0.31743788719177246,-0.21,0.01,0.18,0.27
0.32747888565063477,-0.35,-0.19,0.32,0.51
0.33817005157470703,-0.31,-0.09,0.34,0.46
0.34748291969299316,-0.54,0.09,0.32,0.63
0.3918910026550293,-0.91,-0.06,0.45,1.01
0.39215707778930664,-0.75,-0.22,0.55,0.95
0.39241981506347656,-0.18,-0.14,0.05,0.23
0.39267992973327637,0.33,0.14,-0.55,0.65
0.3973429203033447,0.65,0.22,-0.94,1.16
0.407822847366333,0.82,0.16,-0.89,1.22
0.4174039363861084,0.83,0.1,-0.48,0.96
0.42740774154663086,0.8,0.0,-0.17,0.81
0.43798398971557617,0.59,-0.01,0.03,0.59
0.44739484786987305,0.29,-0.05,-0.02,0.29
0.4912848472595215,0.03,-0.01,-0.14,0.14
0.49155092239379883,-0.12,0.09,-0.07,0.16
0.49181389808654785,-0.17,0.01,0.14,0.22
0.49207496643066406,-0.26,0.03,0.57,0.62
0.49718689918518066,-0.47,-0.15,0.81,0.94
0.5078198909759521,-0.49,-0.26,0.64,0.84
0.5174498558044434,-0.24,-0.11,0.24,0.35
0.5270428657531738,0.0,0.08,-0.01,0.08
0.5378117561340332,0.07,0.06,-0.04,0.1
0.5471699237823486,0.18,-0.05,0.17,0.25
0.5911679267883301,0.45,-0.07,0.49,0.66
0.5914359092712402,0.63,-0.15,0.53,0.83
0.5916948318481445,0.58,-0.11,0.22,0.63
0.591951847076416,0.25,-0.02,-0.16,0.29
0.5971150398254395,0.0,0.04,-0.18,0.18
0.6075818538665771,0.07,0.06,0.03,0.09
0.6174569129943848,0.12,-0.11,0.11,0.19
0.6269898414611816,-0.17,-0.09,0.01,0.19
0.6376080513000488,-0.51,0.11,-0.13,0.53
0.6471328735351562,-0.44,0.13,-0.1,0.46
0.6908478736877441,-0.24,-0.03,0.08,0.25
0.6911120414733887,-0.18,-0.05,0.31,0.36
0.6913678646087646,-0.2,-0.11,0.28,0.36
0.691627025604248,-0.27,-0.04,0.12,0.29
0.6968660354614258,-0.31,0.01,-0.05,0.31
0.7073619365692139,-0.2,0.05,-0.13,0.24
0.7168488502502441,0.08,0.04,-0.1,0.13
0.7268788814544678,0.29,0.02,0.0,0.29
0.737501859664917,0.36,0.01,0.06,0.36
0.7469620704650879,0.25,-0.03,-0.08,0.26
0.7914838790893555,0.09,-0.04,-0.19,0.21
0.7917499542236328,-0.04,0.01,-0.13,0.13
0.7920129299163818,-0.1,-0.06,-0.01,0.11
0.7922718524932861,-0.09,-0.07,0.06,0.12
0.7966289520263672,-0.05,-0.03,-0.11,0.12
0.8072099685668945,-0.1,0.14,-0.32,0.36
0.8166909217834473,-0.24,0.1,-0.39,0.46
0.8267087936401367,-0.35,0.02,-0.09,0.36
0.8374857902526855,-0.18,-0.09,0.47,0.51
0.8467850685119629,0.29,-0.13,0.67,0.74
0.8913319110870361,0.41,0.02,0.46,0.61
0.8915767669677734,0.3,0.02,0.19,0.35
0.8918309211730957,0.33,-0.1,0.06,0.35
0.89208984375,0.32,-0.13,0.08,0.35
0.8964998722076416,0.09,0.02,0.12,0.15
0.907141923904419,-0.16,0.05,0.12,0.2
0.9165019989013672,-0.2,0.0,0.11,0.22
0.9266147613525391,-0.06,0.01,0.13,0.14
0.9372167587280273,0.08,0.05,0.0,0.09
0.9466190338134766,0.15,0.11,-0.02,0.18
0.9907598495483398,0.21,0.02,0.07,0.22
0.9910259246826172,0.29,-0.09,0.26,0.39
0.9912829399108887,0.25,-0.06,0.48,0.54
0.9915249347686768,0.11,-0.1,0.48,0.5
0.9964637756347656,0.09,-0.1,0.25,0.28
1.0069427490234375,0.14,-0.01,0.0,0.14
1.0163938999176025,0.19,0.09,-0.2,0.29
1.0264620780944824,0.17,0.16,-0.26,0.34
1.0371439456939697,0.2,0.17,-0.19,0.32
1.0465588569641113,0.23,0.09,-0.15,0.28
1.0908780097961426,0.32,-0.01,-0.08,0.33
1.0911438465118408,0.44,-0.16,-0.06,0.47
1.0914039611816406,0.64,-0.32,0.06,0.71
1.0916600227355957,0.83,-0.35,0.45,1.0
1.0962567329406738,0.78,-0.21,0.94,1.23
1.1067888736724854,0.34,-0.09,1.02,1.07
1.1162667274475098,-0.52,-0.11,0.17,0.55
1.126269817352295,-1.35,-0.01,-0.7,1.52
1.1370089054107666,-1.42,0.19,-0.83,1.65
1.146420955657959,-0.59,0.27,-0.28,0.7
1.1902289390563965,0.42,0.15,0.36,0.57
1.1904969215393066,0.72,0.04,0.71,1.01
1.1907649040222168,0.34,-0.09,0.55,0.65
1.1910247802734375,-0.22,-0.25,0.05,0.33
1.1961560249328613,-0.39,-0.26,-0.09,0.47
1.2066929340362549,-0.2,-0.17,0.09,0.27
1.216139793395996,-0.07,0.01,0.12,0.13
1.2261428833007812,-0.18,0.12,0.09,0.23
1.2368817329406738,-0.47,-0.15,-0.21,0.53
1.2461400032043457,-0.71,-0.13,-0.51,0.88
1.290255069732666,-0.65,0.11,-0.5,0.82
1.2905168533325195,-0.27,-0.03,-0.44,0.51
1.2907779216766357,0.12,-0.26,-0.41,0.5
1.2910408973693848,0.1,0.08,0.24,0.27
1.2959718704223633,-0.14,0.08,0.75,0.76
1.3066377639770508,-0.13,-0.16,0.56,0.59
1.3159728050231934,-0.08,-0.11,0.02,0.13
1.3260188102722168,-0.04,0.03,-0.57,0.57
1.3366658687591553,0.08,0.22,-0.6,0.64
1.3461589813232422,0.41,0.19,-0.22,0.5
1.3895068168640137,0.73,0.01,0.26,0.77
1.3897719383239746,0.75,-0.19,0.39,0.86
1.390014886856079,0.41,-0.19,0.33,0.55
1.3902719020843506,0.1,-0.08,0.21,0.24
1.395817756652832,0.16,-0.08,0.18,0.25
1.4063329696655273,0.37,-0.13,0.33,0.51
1.415907859802246,0.43,-0.1,0.42,0.6
1.4258999824523926,0.27,0.03,0.38,0.46
1.4365277290344238,-0.06,0.09,0.24,0.26
1.4460859298706055,-0.31,-0.01,-0.08,0.32
1.4892399311065674,-0.39,-0.11,-0.34,0.52
1.4894979000091553,-0.37,0.05,-0.37,0.52
1.489762783050537,-0.33,0.09,-0.48,0.58
1.4899868965148926,-0.33,0.09,-0.63,0.71
1.4956839084625244,-0.31,0.24,-0.56,0.68
1.5063419342041016,-0.24,0.3,-0.25,0.45
1.5157217979431152,-0.16,0.1,0.22,0.28
1.5257158279418945,-0.03,-0.16,0.58,0.6
1.5363497734069824,0.17,-0.17,0.62,0.66
1.5457630157470703,0.15,-0.04,0.3,0.33
1.5889098644256592,-0.12,0.04,-0.1,0.16
1.5891737937927246,-0.29,0.09,-0.26,0.39
1.589432954788208,-0.26,0.03,-0.28,0.38
1.5896940231323242,-0.3,-0.06,-0.25,0.39
1.5955400466918945,-0.36,0.02,-0.12,0.38
1.6061458587646484,-0.38,0.19,0.04,0.42
1.6155369281768799,-0.39,0.19,0.2,0.47
1.6256048679351807,-0.44,0.09,0.41,0.6
1.6361579895019531,-0.45,-0.02,0.63,0.77
1.645622730255127,-0.28,-0.19,0.55,0.64
1.688598871231079,-0.11,-0.2,0.39,0.45
1.6888608932495117,-0.03,-0.09,0.09,0.13
1.6891188621520996,0.03,0.04,-0.15,0.15
1.689375877380371,-0.03,0.09,-0.35,0.36
1.6954729557037354,0.01,-0.01,-0.5,0.5
1.705993890762329,0.08,-0.06,-0.51,0.51
1.715439796447754,0.18,0.03,-0.44,0.47
1.7254509925842285,0.28,0.05,-0.36,0.45
1.7361159324645996,0.3,0.03,-0.18,0.35
1.7454509735107422,0.23,0.03,0.03,0.23
1.78895902633667,0.2,0.0,0.11,0.22
1.789219856262207,0.1,-0.06,0.18,0.21
1.789477825164795,-0.02,-0.08,0.1,0.12
1.78973388671875,-0.05,-0.06,0.05,0.09
1.7952938079833984,-0.04,-0.03,-0.03,0.05
1.80586576461792,0.04,-0.04,-0.22,0.22
1.8154377937316895,0.11,0.02,-0.18,0.21
1.8253397941589355,0.16,0.15,-0.07,0.23
1.8360929489135742,0.16,0.16,-0.02,0.22
1.8452959060668945,0.02,0.05,-0.03,0.06
1.8888840675354004,-0.16,0.02,0.07,0.17
1.8891477584838867,-0.31,0.0,0.24,0.39
1.8894119262695312,-0.39,-0.04,0.26,0.47
1.8896708488464355,-0.33,-0.05,0.17,0.37
1.8952679634094238,-0.23,-0.07,0.05,0.24
1.9057838916778564,-0.12,0.01,-0.04,0.12
1.9151067733764648,-0.06,0.08,-0.04,0.1
1.9251399040222168,-0.08,0.1,-0.12,0.17
1.9705729484558105,-0.11,0.11,-0.15,0.21
1.9708399772644043,-0.15,0.07,-0.07,0.17
1.9710988998413086,-0.12,0.02,0.14,0.18
1.9713568687438965,-0.09,0.09,0.22,0.25
1.975022792816162,0.0,0.09,0.11,0.14
1.985398769378662,0.09,0.06,0.15,0.18
1.9950408935546875,0.11,0.03,0.16,0.19
2.005652904510498,0.21,-0.09,-0.04,0.23
2.0149359703063965,0.35,-0.15,-0.04,0.38
2.0250778198242188,0.39,-0.04,0.03,0.39
2.0730810165405273,0.43,0.04,-0.1,0.44
2.0733418464660645,0.52,-0.03,-0.3,0.6
2.073603868484497,0.55,-0.05,-0.32,0.63
2.0738449096679688,0.55,0.04,-0.17,0.57
2.0749378204345703,0.48,0.04,0.02,0.48
2.0849170684814453,0.34,-0.08,0.08,0.35
2.0949509143829346,0.23,-0.08,0.03,0.24
2.105491876602173,0.17,0.01,-0.09,0.19
2.114974021911621,0.16,0.05,-0.23,0.28
2.125009059906006,0.16,0.02,-0.26,0.3
2.171328067779541,0.22,0.0,-0.21,0.3
2.1715917587280273,0.18,0.03,-0.13,0.22
2.1718387603759766,0.05,0.03,-0.04,0.07
2.172092914581299,-0.07,0.0,-0.03,0.07
2.174804925918579,-0.14,-0.04,-0.01,0.14
2.18464994430542,-0.22,0.05,0.02,0.22
2.1947638988494873,-0.28,0.04,-0.07,0.29
2.205359935760498,-0.37,0.03,-0.04,0.37
2.2146799564361572,-0.37,0.03,0.04,0.37
2.2248120307922363,-0.26,0.01,-0.03,0.26
2.2713818550109863,-0.12,0.02,-0.21,0.24
2.271653890609741,-0.08,0.04,-0.25,0.26
2.2719099521636963,-0.09,0.09,-0.16,0.2
2.2721667289733887,-0.12,0.04,-0.01,0.12
2.274634838104248,-0.21,-0.01,0.13,0.24
2.284547805786133,-0.41,0.06,0.24,0.47
2.294620990753174,-0.52,0.06,0.08,0.52
2.3053479194641113,-0.44,0.03,-0.13,0.45
2.3147687911987305,-0.26,0.1,-0.21,0.34
2.324666976928711,-0.04,0.07,-0.17,0.18
2.370013952255249,0.07,-0.02,-0.05,0.08
2.3711209297180176,0.12,-0.15,0.04,0.19
2.371393918991089,0.15,-0.18,0.06,0.24
2.371640920639038,0.15,-0.11,0.09,0.2
2.3744077682495117,0.14,-0.06,0.05,0.16
2.3844199180603027,0.07,0.02,0.11,0.13
2.3944787979125977,-0.06,0.05,0.19,0.2
2.405090808868408,-0.17,-0.02,0.16,0.23
2.4144558906555176,-0.19,0.0,0.08,0.2
2.4245269298553467,-0.08,-0.02,-0.03,0.08
2.4352989196777344,0.09,-0.03,-0.02,0.09
2.4702699184417725,0.21,-0.01,0.07,0.22
2.4705309867858887,0.27,-0.05,0.13,0.3
2.470789909362793,0.25,-0.11,0.16,0.31
2.4742958545684814,0.23,-0.1,0.11,0.27
2.4843997955322266,0.22,-0.05,0.04,0.22
2.4942569732666016,0.16,0.01,-0.04,0.16
2.504863739013672,0.07,0.01,-0.07,0.09
2.5143258571624756,0.0,-0.03,-0.02,0.03
2.5243020057678223,-0.03,-0.02,0.1,0.1
2.5349018573760986,-0.04,-0.02,0.12,0.12
2.570981025695801,-0.02,0.0,0.11,0.11
2.571246862411499,0.01,-0.02,0.06,0.06
2.571499824523926,0.05,-0.03,0.02,0.06
2.5741519927978516,0.05,-0.03,0.02,0.06
2.5841288566589355,0.03,-0.05,0.0,0.05
2.594172954559326,0.04,-0.07,-0.02,0.08
2.604856014251709,0.03,0.01,-0.03,0.04
2.6141109466552734,0.03,0.03,-0.03,0.05
2.6243178844451904,0.0,0.01,0.01,0.01
2.6350369453430176,0.0,-0.02,0.06,0.06
2.6698639392852783,0.03,-0.05,0.07,0.09
2.670111894607544,0.09,-0.05,0.09,0.13
2.670374870300293,0.12,-0.02,0.1,0.15
2.6739578247070312,0.11,-0.06,0.16,0.2
2.684138774871826,0.12,-0.11,0.14,0.21
2.6940460205078125,0.1,-0.04,0.08,0.13
2.7045798301696777,0.09,0.01,-0.03,0.09
2.7141659259796143,0.13,0.0,-0.11,0.17
2.7240679264068604,0.17,0.02,-0.11,0.2
2.734862804412842,0.13,0.06,0.02,0.14
2.7699458599090576,0.08,-0.01,0.05,0.09
2.770190954208374,0.02,-0.01,0.04,0.04
2.7704477310180664,0.01,0.01,0.01,0.01
2.773845911026001,-0.02,0.0,-0.01,0.02
2.783812999725342,-0.01,0.0,-0.02,0.02
2.793848991394043,0.0,0.03,-0.02,0.03
2.8044490814208984,0.01,0.02,-0.03,0.03
2.813920021057129,0.01,-0.01,-0.02,0.02
2.8240859508514404,0.02,-0.02,0.02,0.03
2.834712028503418,0.02,-0.03,0.09,0.09
2.8704237937927246,0.02,-0.03,0.11,0.11
2.8706870079040527,-0.02,-0.02,0.1,0.1
2.8709497451782227,-0.09,0.01,0.09,0.12
2.8737149238586426,-0.13,0.02,0.01,0.13
2.8836817741394043,-0.12,0.0,0.03,0.12
2.8937177658081055,-0.03,-0.02,0.04,0.05
2.90421986579895,0.02,0.01,0.04,0.04
2.913695812225342,0.08,0.01,0.02,0.08
2.923719882965088,0.08,-0.01,0.0,0.08
2.9345450401306152,0.03,0.02,-0.03,0.04
2.9697537422180176,-0.02,0.01,-0.03,0.03
2.9700019359588623,-0.13,0.01,0.05,0.13
2.970270872116089,-0.18,-0.03,0.11,0.21
2.9736180305480957,-0.19,-0.02,0.12,0.22
2.9836740493774414,-0.14,0.01,0.06,0.15
2.9936389923095703,-0.01,0.02,-0.07,0.07
3.0040769577026367,0.08,0.03,-0.11,0.13
3.0136048793792725,0.16,0.0,-0.07,0.17
3.023560047149658,0.16,-0.04,0.01,0.16
3.0343117713928223,0.12,-0.05,0.09,0.15
3.0690927505493164,0.05,-0.03,0.06,0.08
3.06968092918396,0.02,0.03,-0.01,0.03
3.069946765899658,0.03,0.09,-0.09,0.13
3.073612928390503,0.07,-0.01,-0.11,0.13
3.0834898948669434,0.09,-0.03,-0.02,0.09
3.093461036682129,0.07,-0.02,0.08,0.1
3.1040849685668945,0.04,-0.06,0.07,0.1
3.1134588718414307,0.03,-0.03,0.0,0.04
3.123465061187744,-0.01,0.04,0.0,0.04
3.1343178749084473,-0.03,0.02,0.01,0.03
3.1695759296417236,-0.02,0.0,0.04,0.04
3.1698379516601562,0.01,-0.02,-0.01,0.02
3.1700987815856934,0.07,-0.01,-0.06,0.09
3.173433780670166,0.13,-0.02,-0.06,0.14
3.1832947731018066,0.12,0.0,0.0,0.12
3.1932830810546875,0.08,0.01,0.05,0.09
3.2040629386901855,0.03,-0.01,0.06,0.06
3.213253974914551,0.03,-0.02,0.04,0.05
3.2233667373657227,0.01,0.01,0.06,0.06
3.2341418266296387,0.01,0.02,0.1,0.1
3.269592761993408,-0.01,-0.03,0.05,0.05
3.2698569297790527,-0.02,0.01,0.04,0.04
3.2701168060302734,-0.01,0.05,-0.04,0.06
3.27315092086792,0.01,0.03,-0.06,0.06
3.2831268310546875,0.03,-0.03,-0.05,0.06
3.2931017875671387,0.06,-0.03,-0.05,0.08
3.3038740158081055,0.07,0.02,-0.04,0.08
3.313322067260742,0.11,0.01,-0.04,0.11
3.323241949081421,0.09,0.02,0.04,0.1
3.3340718746185303,0.05,-0.03,0.06,0.08
3.369576930999756,0.03,-0.02,0.08,0.08
3.369837760925293,0.01,0.02,0.07,0.07
3.3700969219207764,-0.05,-0.01,0.02,0.05
3.373015880584717,-0.07,0.0,-0.01,0.07
3.382936954498291,-0.03,0.0,-0.02,0.03
3.392889976501465,0.07,0.0,-0.06,0.09
3.4038219451904297,0.12,-0.01,-0.07,0.13
3.4129738807678223,0.12,-0.03,-0.01,0.12
3.4230518341064453,0.07,-0.04,0.03,0.08
3.433910846710205,0.01,-0.03,0.05,0.05
3.4685630798339844,-0.04,0.0,0.04,0.05
3.468813896179199,-0.04,0.02,-0.04,0.06
3.4690568447113037,-0.02,0.02,-0.09,0.09
3.4729349613189697,0.04,-0.02,-0.07,0.08
3.482853889465332,0.06,0.0,-0.02,0.06
3.4928150177001953,0.06,-0.01,0.01,0.06
3.503706932067871,0.0,-0.01,0.05,0.05
3.512871742248535,0.01,-0.02,0.05,0.05
3.5228219032287598,0.04,0.01,0.0,0.04
3.533705949783325,0.05,0.0,-0.05,0.07
3.568932056427002,0.07,0.01,-0.12,0.13
3.5691988468170166,0.06,0.02,-0.09,0.11
3.5694580078125,0.07,0.0,-0.03,0.07
3.572748899459839,0.05,-0.01,0.05,0.07
3.582782745361328,0.03,-0.02,0.04,0.05
3.5929207801818848,0.04,-0.02,0.0,0.04
3.6035349369049072,0.03,0.01,-0.03,0.04
3.6127898693084717,0.0,0.03,-0.04,0.05
3.622786045074463,-0.02,0.01,-0.08,0.08
3.633594036102295,0.0,0.03,-0.06,0.06
3.6683199405670166,0.06,0.02,-0.02,0.06
3.6685900688171387,0.12,-0.02,0.03,0.12
3.6688499450683594,0.11,-0.04,0.09,0.14
3.672579765319824,0.05,-0.04,0.09,0.11
3.682593822479248,-0.01,-0.04,0.08,0.09
3.692579746246338,-0.02,-0.04,0.07,0.08
3.7030630111694336,-0.02,-0.04,0.05,0.06
3.712657928466797,0.03,-0.01,-0.02,0.03
3.7225937843322754,0.1,0.01,-0.08,0.12
3.733336925506592,0.13,0.01,-0.09,0.15
3.768673896789551,0.1,0.02,-0.04,0.1
3.7689380645751953,0.02,0.01,0.03,0.03
3.769196033477783,-0.04,-0.01,0.08,0.09
3.7724499702453613,-0.06,-0.03,0.07,0.09
3.782433032989502,-0.03,-0.03,0.05,0.06
3.7924280166625977,0.0,-0.03,0.05,0.05
3.802978992462158,0.03,0.0,0.04,0.05
3.812532901763916,0.02,0.06,0.02,0.06
3.822566032409668,-0.05,0.08,-0.01,0.09
3.8333630561828613,-0.17,0.29,-0.11,0.35
3.8681278228759766,-0.25,0.34,-0.26,0.49
3.8683948516845703,-0.15,0.14,-0.34,0.39
3.8686559200286865,0.19,-0.15,-0.2,0.31
3.8723349571228027,0.61,-0.25,0.11,0.66
3.882317066192627,0.87,-0.11,0.24,0.9
3.892305850982666,0.7,0.0,0.02,0.7
3.9028849601745605,0.19,-0.05,-0.28,0.34
3.912364959716797,-0.23,-0.08,-0.29,0.37
3.9223599433898926,-0.3,-0.11,-0.03,0.32
3.9331207275390625,-0.18,-0.13,0.22,0.31
3.9684877395629883,-0.11,-0.05,0.22,0.25
3.96875,-0.14,-0.02,-0.03,0.14
3.96901273727417,-0.16,0.03,-0.27,0.31
3.9721479415893555,-0.01,0.03,-0.23,0.23
3.9822769165039062,0.14,-0.05,0.0,0.14
3.9921789169311523,0.18,-0.11,0.21,0.29
4.002717018127441,0.13,-0.12,0.25,0.3
4.012244939804077,0.03,-0.08,0.18,0.19
4.022252082824707,0.03,-0.02,0.04,0.05
4.03308892250061,0.09,0.02,-0.03,0.09
4.067990779876709,0.12,0.01,-0.02,0.12
4.068245887756348,0.1,-0.03,0.06,0.12
4.068516731262207,0.02,0.01,0.13,0.13
4.072015762329102,-0.07,0.0,0.15,0.16
4.082108974456787,-0.08,-0.01,0.07,0.1
4.0920729637146,-0.07,0.01,0.0,0.07
4.102589845657349,-0.09,0.04,0.0,0.09
4.112044811248779,-0.12,0.01,0.0,0.12
4.122028827667236,-0.12,-0.02,0.03,0.12
4.132871866226196,-0.08,-0.02,0.06,0.1
4.1682868003845215,-0.03,-0.02,0.06,0.06
4.168553829193115,-0.01,0.0,0.04,0.04
4.168811798095703,0.01,0.01,0.01,0.01
4.171849727630615,0.07,0.0,-0.04,0.08
4.181907892227173,0.12,0.0,-0.03,0.12
4.191931962966919,0.09,0.0,0.03,0.09
4.202510833740234,-0.03,-0.01,0.08,0.08
4.2119598388671875,-0.09,-0.03,0.11,0.14
4.221827030181885,-0.08,0.01,0.05,0.09
4.2326178550720215,0.0,0.03,-0.04,0.05
4.267642974853516,0.08,-0.02,-0.12,0.14
4.267906904220581,0.11,0.0,-0.05,0.12
4.2681639194488525,0.1,-0.03,0.0,0.1
4.271774768829346,0.04,-0.03,0.01,0.05
4.281702041625977,-0.06,-0.03,0.04,0.07
4.291683912277222,-0.08,-0.02,0.06,0.1
4.302376747131348,0.0,-0.01,0.01,0.01
4.311723947525024,0.09,-0.01,-0.03,0.09
4.32164192199707,0.11,-0.01,-0.02,0.11
4.332701921463013,0.09,-0.02,0.01,0.09
4.367963790893555,0.03,-0.02,0.03,0.04
4.368224859237671,-0.01,-0.01,-0.01,0.01
4.368474960327148,0.0,0.0,0.01,0.01
4.371593952178955,0.04,-0.03,0.06,0.07
4.381579875946045,0.09,-0.02,0.08,0.12
4.391571998596191,0.11,-0.01,0.07,0.13
4.4021759033203125,0.04,-0.04,0.06,0.08
4.411633014678955,-0.05,-0.01,0.05,0.07
4.421567916870117,-0.04,-0.01,-0.02,0.04
4.4324469566345215,0.05,-0.01,-0.08,0.09
4.467120885848999,0.05,0.02,-0.01,0.05
4.4673848152160645,0.02,-0.02,0.06,0.06
4.467643737792969,0.06,-0.05,0.08,0.11
4.471444845199585,0.11,-0.04,0.05,0.12
4.48167085647583,0.06,-0.01,0.05,0.07
4.491544961929321,-0.01,-0.03,0.04,0.05
4.502021789550781,-0.07,0.01,0.03,0.07
4.511477947235107,-0.1,0.03,0.03,0.1
4.52146577835083,-0.07,0.0,0.02,0.07
4.532289028167725,-0.02,-0.03,-0.01,0.03
4.567087888717651,0.0,0.0,0.03,0.03
4.5673298835754395,0.05,-0.01,0.03,0.05
4.567586898803711,0.06,-0.02,0.0,0.06
4.571153879165649,0.04,-0.01,0.01,0.04
4.581308841705322,0.03,-0.02,0.02,0.04
4.5912699699401855,0.04,-0.02,0.02,0.04
4.60187292098999,0.07,-0.01,0.01,0.07
4.611356735229492,0.08,-0.02,-0.04,0.09
4.621412754058838,0.05,0.03,-0.04,0.07
4.63210391998291,-0.02,-0.01,0.0,0.02
4.667082786560059,-0.07,-0.03,0.02,0.07
4.667350769042969,-0.06,0.0,-0.03,0.06
4.667593002319336,0.01,0.0,-0.04,0.04
4.671419858932495,0.07,0.03,-0.04,0.08
4.681367874145508,0.05,-0.01,0.02,0.05
4.69129490852356,-0.01,-0.04,0.04,0.05
4.701730728149414,-0.05,-0.03,0.06,0.08
4.71112585067749,-0.08,0.0,0.05,0.09
4.721502780914307,-0.07,0.0,0.02,0.07
4.732156753540039,-0.05,0.0,-0.02,0.05
4.766862869262695,-0.02,0.02,-0.04,0.04
4.767107009887695,-0.02,0.0,-0.05,0.05
4.7673468589782715,-0.03,0.0,-0.03,0.04
4.771245956420898,0.0,0.02,-0.04,0.04
4.781081914901733,0.09,-0.01,-0.09,0.12
4.791102886199951,0.14,0.0,-0.06,0.15
4.801600933074951,0.11,0.0,0.02,0.11
4.8110270500183105,-0.01,-0.03,0.09,0.09
4.82146692276001,-0.13,-0.01,0.12,0.17
4.831923961639404,-0.18,-0.02,0.07,0.19
4.866519927978516,-0.11,-0.02,0.0,0.11
4.866787910461426,0.02,0.02,-0.08,0.08
4.867055892944336,0.16,0.03,-0.14,0.21
4.871274948120117,0.24,0.0,-0.09,0.25
4.880918979644775,0.2,0.01,-0.04,0.2
4.891077041625977,0.11,-0.01,-0.02,0.11
4.9014058113098145,0.03,0.0,-0.01,0.03
4.910948753356934,0.0,0.02,-0.04,0.04
4.920785903930664,0.0,0.04,-0.03,0.05
4.9317307472229,0.0,0.0,-0.02,0.02
4.967041015625,0.0,0.0,0.03,0.03
4.967312812805176,0.01,-0.02,0.07,0.07
4.967566013336182,0.05,-0.02,0.03,0.06
4.970749855041504,0.1,-0.01,-0.06,0.11
4.980931758880615,0.13,0.05,-0.15,0.2
4.990760803222656,0.14,0.07,-0.16,0.22
5.001327991485596,0.11,0.09,-0.12,0.18
5.010671854019165,0.0,0.05,-0.03,0.05
5.02082085609436,-0.07,0.0,0.09,0.11
5.031664848327637,-0.05,-0.04,0.11,0.12
5.067351818084717,0.0,-0.02,0.1,0.1
5.067617893218994,0.02,0.05,0.09,0.1
5.0678839683532715,0.04,0.09,0.01,0.09
5.070559978485107,0.03,0.02,-0.06,0.06
5.080671787261963,0.01,-0.01,-0.03,0.03
5.0905890464782715,-0.03,0.0,-0.04,0.05
5.101215839385986,-0.04,-0.03,-0.06,0.07
5.110599040985107,-0.04,0.0,-0.05,0.06
5.12060284614563,-0.01,0.07,-0.04,0.08
5.13148307800293,0.02,0.17,-0.13,0.21
5.167620897293091,0.05,0.22,-0.25,0.33
5.167893886566162,0.2,-0.12,-0.29,0.37
5.168160915374756,0.38,-0.26,-0.1,0.47
5.170477867126465,0.41,-0.13,0.16,0.45
5.180477857589722,0.27,-0.07,0.16,0.32
5.190470933914185,0.11,-0.05,0.03,0.12
5.201111793518066,-0.03,0.01,-0.02,0.03
5.21050500869751,-0.03,-0.03,0.0,0.04
5.2206199169158936,-0.04,-0.06,0.08,0.1
5.231308937072754,-0.04,0.0,0.09,0.09
5.2667999267578125,-0.02,0.06,0.04,0.07
5.2670698165893555,0.02,0.08,0.02,0.08
5.267340898513794,0.06,0.06,0.04,0.09
5.270301818847656,0.11,0.15,0.08,0.2
5.280313014984131,0.13,0.22,0.03,0.25
5.290370941162109,0.19,0.17,0.04,0.25
5.301032066345215,0.3,0.15,0.2,0.39
5.310319900512695,0.41,0.1,0.32,0.52
5.320443868637085,0.44,0.09,0.31,0.54
5.331188917160034,0.42,-0.03,0.06,0.42
5.366981029510498,0.44,-0.16,-0.19,0.5
5.367255926132202,0.62,-0.24,-0.4,0.77
5.367523908615112,0.84,-0.25,-0.49,1.0
5.370126962661743,1.06,-0.19,-0.32,1.12
5.3802268505096436,1.19,-0.22,-0.26,1.23
5.39020299911499,1.24,-0.3,-0.41,1.34
5.400805950164795,1.14,-0.16,-0.51,1.25
5.410257816314697,1.01,0.11,-0.37,1.08
5.420179843902588,0.91,0.29,-0.14,0.96
5.431071758270264,0.93,0.27,0.16,0.98
5.4670329093933105,0.93,0.21,0.57,1.11
5.4672980308532715,0.82,0.01,0.75,1.11
5.467566013336182,0.03,0.1,1.15,1.15
5.46997594833374,-0.13,-0.22,0.77,0.81
5.480065822601318,0.08,-0.26,0.45,0.52
5.4900548458099365,0.38,-0.11,0.12,0.41
5.500685930252075,0.36,0.17,0.06,0.4
5.510058879852295,0.32,0.08,-0.39,0.51
5.520042896270752,0.2,-0.17,-0.74,0.78
5.5307838916778564,0.27,-0.32,-1.03,1.11
5.567070007324219,0.31,-0.25,-0.76,0.85
5.567342758178711,0.37,-0.32,-0.37,0.61
5.567610740661621,0.3,-0.36,0.05,0.47
5.569954872131348,0.32,-0.37,0.42,0.64
5.57995080947876,0.09,-0.49,0.49,0.69
5.589918851852417,-0.22,-0.7,-0.02,0.73
5.600494861602783,-0.67,-0.62,-0.17,0.92
5.609961032867432,-1.43,-0.99,-0.41,1.78
5.619947910308838,-2.11,-0.86,-0.18,2.28
5.630789756774902,-2.37,0.77,1.75,3.04
5.666996002197266,-2.16,0.69,2.2,3.15
5.667267799377441,-1.6,-0.49,1.01,1.95
5.667536735534668,-0.89,-0.61,0.8,1.34
5.669754981994629,-0.07,-0.43,0.7,0.82
5.679795742034912,0.65,-0.31,0.48,0.86
5.689740896224976,1.19,-0.65,0.0,1.35
5.700397968292236,1.26,-0.82,-0.86,1.73
5.709908962249756,0.18,0.07,-1.23,1.24
5.719964027404785,-1.43,0.76,-1.62,2.29
5.730697870254517,-2.25,0.66,-1.93,3.03
5.76754093170166,-2.17,0.38,-1.66,2.75
5.7678139209747314,-1.65,0.38,-0.48,1.75
5.7680840492248535,-0.88,0.1,0.95,1.29
5.76963996887207,-0.18,-0.5,1.46,1.55
5.779617786407471,-0.01,-0.19,1.19,1.2
5.78961181640625,-0.29,0.36,0.43,0.63
5.8002848625183105,-0.32,0.29,-0.5,0.66
5.809624910354614,-0.39,0.31,-0.69,0.85
5.819914817810059,-0.19,0.11,-0.53,0.57
5.830534934997559,0.1,0.03,-0.25,0.27
5.867929935455322,0.26,0.11,0.01,0.28
5.868227005004883,0.51,-0.01,-0.02,0.51
5.8685197830200195,0.57,0.02,0.17,0.59
5.869484901428223,0.57,0.0,0.31,0.64
5.879554748535156,0.65,0.01,0.43,0.77
5.889437913894653,0.78,0.02,0.49,0.92
5.900171756744385,0.99,-0.04,0.29,1.03
5.909564018249512,1.08,0.05,-0.12,1.08
5.919571876525879,0.76,0.25,-0.52,0.95
5.930469036102295,0.3,0.32,-0.67,0.8
5.968103885650635,0.16,0.21,-0.41,0.48
5.968392848968506,0.42,0.03,-0.08,0.42
5.9686808586120605,0.57,0.03,0.13,0.58
5.969486951828003,0.52,-0.01,0.19,0.55
5.979440927505493,0.26,-0.1,0.12,0.3
5.989408016204834,0.08,-0.13,0.21,0.25
6.00005578994751,0.14,-0.15,0.41,0.45
6.0094170570373535,0.39,-0.15,0.53,0.67
6.019530773162842,0.54,-0.17,0.43,0.71
6.03019380569458,0.32,0.0,0.34,0.46
6.067691802978516,0.02,-0.05,0.0,0.05
6.067980766296387,0.01,-0.09,-0.06,0.1
6.068265914916992,0.4,-0.04,0.27,0.48
6.069272994995117,0.79,-0.19,0.28,0.85
6.079277992248535,0.7,-0.17,0.24,0.75
6.0893707275390625,0.35,-0.19,0.31,0.5
6.0999438762664795,0.06,-0.18,0.45,0.48
6.109227895736694,0.03,-0.18,0.63,0.65
6.119252920150757,0.47,-0.25,0.48,0.71
6.130180835723877,0.81,-0.02,0.32,0.87
6.168004035949707,0.78,0.24,0.4,0.9
6.16828989982605,0.67,0.25,0.61,0.93
6.168601989746094,0.88,0.11,0.79,1.18
6.16914701461792,1.13,0.09,0.71,1.33
6.179131984710693,1.37,0.4,0.74,1.6
6.189394950866699,1.56,0.53,0.38,1.69
6.19973087310791,1.36,0.42,0.28,1.45
6.209137916564941,1.26,0.48,0.52,1.44
6.219116926193237,1.26,0.64,0.57,1.52
6.23003888130188,1.27,1.09,0.64,1.79
6.268678903579712,1.67,1.53,0.46,2.31
6.268970966339111,2.61,2.32,0.26,3.5
6.269252777099609,3.95,3.25,0.27,5.12
6.26953387260437,4.67,3.1,0.54,5.63
6.278956890106201,3.57,2.96,1.66,4.92
6.28922176361084,2.26,2.84,2.75,4.55
6.299644947052002,2.67,4.53,3.42,6.27
6.308946847915649,4.32,7.54,4.41,9.74
6.31899881362915,7.7,7.15,3.1,10.95
6.329969882965088,9.2,6.03,3.03,11.4
6.3680830001831055,9.44,6.53,4.32,12.26
6.368936061859131,9.51,7.0,4.52,12.64
6.369225978851318,9.1,7.41,4.21,12.46
6.369508743286133,9.5,6.79,2.79,12.0
6.378853797912598,10.03,6.31,1.42,11.93
6.388784885406494,10.03,7.59,1.69,12.69
6.39953088760376,10.24,8.29,1.27,13.23
6.408819913864136,8.67,8.07,0.07,11.84
6.418853759765625,4.64,7.7,-2.44,9.31
6.429816961288452,0.97,8.16,-6.42,10.42
6.438848972320557,-1.47,9.19,-7.18,11.75
6.46865177154541,-1.14,6.69,-4.9,8.37
6.468942880630493,1.36,4.42,0.38,4.64
6.469226837158203,-2.41,4.28,3.88,6.25
6.478669881820679,-4.99,0.81,0.02,5.05
6.4887988567352295,-2.11,0.88,0.41,2.32
6.499320030212402,3.65,1.52,2.69,4.78
6.508657932281494,8.17,0.18,3.25,8.79
6.518653869628906,9.62,-1.25,4.05,10.51
6.529573917388916,9.69,-2.97,4.61,11.13
6.538691997528076,9.31,-4.44,4.95,11.44
6.567965984344482,7.52,-4.58,5.43,10.34
6.568450927734375,4.73,-3.57,5.56,8.12
6.568737030029297,2.78,-2.64,4.8,6.14
6.578530788421631,1.78,-1.93,3.91,4.7
6.588490009307861,1.11,-1.78,3.37,3.96
6.599267959594727,0.49,-1.97,3.23,3.81
6.608651876449585,-0.04,-2.07,3.19,3.8
6.618567943572998,-0.35,-2.01,2.95,3.58
6.629549026489258,-0.37,-2.24,2.21,3.16
6.638675928115845,-0.24,-2.54,1.38,2.9
6.668839931488037,0.58,-3.07,0.78,3.22
6.6691389083862305,1.58,-3.34,0.63,3.74
6.669425964355469,2.09,-3.12,0.88,3.85
6.678403854370117,1.18,-2.64,1.4,3.21
6.6883697509765625,-0.86,-2.06,1.47,2.67
6.699107885360718,-2.47,-1.23,0.62,2.82
6.70838189125061,-3.52,0.03,-0.93,3.64
6.718411922454834,-4.7,1.47,-3.01,5.77
6.729395866394043,-6.34,2.96,-5.12,8.67
6.738410949707031,-7.97,3.77,-6.93,11.21
6.768734931945801,-9.08,3.7,-8.08,12.7
6.769021034240723,-9.89,3.64,-8.27,13.39
6.769306898117065,-10.65,3.59,-8.15,13.88
6.778196811676025,-10.92,2.81,-8.38,14.04
6.788218021392822,-10.75,1.75,-7.94,13.47
6.798972845077515,-10.44,0.76,-7.07,12.63
6.8083367347717285,-10.48,-0.35,-7.55,12.92
6.818289756774902,-11.01,-1.27,-8.39,13.9
6.82920503616333,-10.65,-2.03,-8.23,13.61
6.838380813598633,-8.82,-2.51,-6.97,11.51
6.868600845336914,-7.25,0.02,-3.64,8.11
6.868916988372803,-1.8,1.31,-3.94,4.52
6.869218826293945,0.91,0.19,-5.45,5.52
6.878175735473633,-2.85,3.75,-0.27,4.71
6.888073921203613,-1.47,9.75,8.05,12.72
6.898887872695923,6.75,7.76,10.19,14.47
6.90818977355957,5.01,2.87,6.55,8.73
6.9183669090271,-1.99,-1.84,-1.82,3.26
6.92909574508667,-6.28,0.75,-6.39,8.99
6.938162803649902,-9.6,4.56,-8.21,13.42
6.968113899230957,-9.7,4.6,-12.03,16.12
6.9684059619903564,-6.59,4.9,-7.54,11.14
6.968698024749756,-3.08,0.88,-3.34,4.62
6.977946758270264,-0.86,-1.53,-2.09,2.72
6.98793888092041,0.0,-1.19,-0.51,1.29
6.998700857162476,0.31,-0.05,0.62,0.69
7.007856845855713,-0.35,0.26,0.24,0.49
7.017911911010742,-1.69,0.46,-0.19,1.76
7.028881072998047,-2.51,1.02,0.26,2.72
7.038014888763428,-2.45,0.64,0.54,2.58
7.068319797515869,-2.09,-0.38,0.4,2.16
7.068628787994385,-1.46,-0.67,0.14,1.61
7.068949937820435,-0.95,-0.27,-0.28,1.02
7.077798843383789,-0.76,0.14,-1.17,1.4
7.087812900543213,-0.59,0.46,-1.84,1.98
7.098490953445435,-0.42,0.63,-1.52,1.69
7.107836961746216,-0.16,0.4,-0.76,0.87
7.1178388595581055,0.29,0.06,-0.65,0.71
7.128777027130127,0.75,0.08,-1.04,1.28
7.137923955917358,1.01,0.37,-0.98,1.45
7.168777942657471,0.72,0.39,-0.2,0.84
7.169069766998291,0.02,0.08,0.81,0.81
7.1693549156188965,-0.42,-0.21,1.39,1.46
7.177735805511475,-0.31,-0.37,1.16,1.25
7.187648773193359,0.04,-0.19,0.51,0.54
7.198421001434326,0.42,0.08,-0.2,0.47
7.207506895065308,0.74,0.17,-0.64,0.99
7.217668056488037,0.76,0.32,-0.32,0.88
7.228604793548584,0.59,0.15,0.26,0.66
7.237825870513916,0.34,-0.1,0.63,0.72
7.2688307762146,0.18,-0.17,0.92,0.95
7.269139766693115,0.17,-0.21,1.08,1.11
7.269425868988037,0.45,-0.29,1.02,1.15
7.278822898864746,0.77,-0.47,0.86,1.24
7.287569999694824,1.0,-0.49,0.45,1.2
7.298244953155518,1.1,-0.29,0.21,1.15
7.307419776916504,1.17,-0.09,0.35,1.22
7.317539930343628,1.5,-0.03,0.76,1.68
7.328506946563721,1.89,-0.02,1.36,2.32
7.337538957595825,2.31,-0.02,1.85,2.95
7.369067907333374,2.47,0.21,2.38,3.43
7.369361877441406,2.31,0.47,2.24,3.25
7.3696448802948,2.01,0.74,1.15,2.43
7.377318859100342,1.72,1.2,-0.02,2.09
7.387444972991943,1.93,1.92,-0.83,2.84
7.3981359004974365,2.7,2.96,-0.5,4.03
7.4074108600616455,3.21,3.61,0.37,4.84
7.417480945587158,3.1,3.36,1.06,4.69
7.428334951400757,3.13,3.49,1.9,5.05
7.437450885772705,2.84,3.39,2.43,5.04
7.468952894210815,2.91,3.87,2.93,5.65
7.469259738922119,3.59,5.37,3.42,7.3
7.46955680847168,4.92,6.7,3.4,8.98
7.477221965789795,6.59,6.97,2.82,9.99
7.4872727394104,7.71,7.59,3.45,11.35
7.4979777336120605,8.55,8.57,4.83,13.03
7.507420063018799,9.6,9.17,6.08,14.6
7.517292022705078,11.3,8.89,6.66,15.84
7.52810001373291,12.71,8.22,6.27,16.38
7.5373289585113525,13.42,7.6,5.96,16.53
7.569187879562378,13.84,7.49,4.75,16.43
7.569490909576416,10.14,8.5,0.96,13.26
7.569795846939087,0.57,11.49,-5.37,12.69
7.5770769119262695,-8.6,13.92,-14.08,21.58
7.587082862854004,-10.53,15.26,-13.38,22.86
7.5978288650512695,-2.17,10.31,-6.57,12.41
7.607555866241455,2.03,7.92,1.43,8.3
7.617171764373779,-4.99,4.79,2.86,7.48
7.6281678676605225,-6.44,1.82,0.5,6.71
7.637287855148315,-1.07,2.77,2.03,3.59
7.6699090003967285,5.3,1.97,2.42,6.15
7.6702189445495605,9.19,0.44,2.21,9.46
7.67052698135376,10.24,-0.81,2.87,10.66
7.677004814147949,9.93,-2.27,3.6,10.8
7.686992883682251,8.92,-3.55,3.86,10.34
7.697699069976807,7.31,-4.44,4.15,9.5
7.707418918609619,4.99,-4.48,5.25,8.51
7.717240810394287,2.87,-4.43,5.89,7.9
7.727921009063721,1.43,-4.26,5.66,7.22
7.737109899520874,0.85,-3.96,4.78,6.26
7.769283771514893,0.82,-3.96,3.71,5.48
7.769593954086304,0.94,-4.1,3.27,5.32
7.769902944564819,1.35,-4.5,3.05,5.6
7.776978015899658,2.18,-4.95,3.19,6.27
7.786839008331299,3.07,-5.25,3.37,6.95
7.797569751739502,3.35,-5.29,3.33,7.09
7.80682897567749,2.75,-5.19,2.97,6.58
7.816879749298096,1.24,-5.25,2.3,5.86
7.827744960784912,-0.4,-5.38,1.65,5.64
7.837042808532715,-1.27,-5.11,1.59,5.5
7.86912989616394,-1.52,-4.84,1.67,5.34
7.869442939758301,-1.73,-4.2,1.58,4.8
7.869752883911133,-2.34,-3.06,1.19,4.03
7.8767149448394775,-3.68,-1.6,0.09,4.01
7.886731863021851,-6.02,0.24,-2.0,6.34
7.897359848022461,-8.76,2.71,-4.81,10.35
7.906684875488281,-10.49,5.17,-7.55,13.92
7.9167327880859375,-11.17,6.56,-9.25,15.91
7.927798748016357,-11.84,6.35,-10.16,16.84
7.93683385848999,-13.23,4.81,-10.11,17.33
7.96976900100708,-14.41,3.27,-8.95,17.27
7.970082759857178,-15.37,1.99,-7.99,17.43
7.970391750335693,-16.63,1.85,-6.73,18.03
7.976467847824097,-14.82,7.97,-2.55,17.01
7.986475944519043,-8.57,0.67,-11.33,14.22
7.997192859649658,-9.68,-2.46,-12.21,15.77
8.006531953811646,-11.87,2.65,-1.75,12.28
8.016571044921875,-2.38,8.39,6.06,10.61
8.027513980865479,8.76,9.56,3.63,13.46
8.036589860916138,9.03,8.73,-4.72,13.41
8.070221900939941,3.31,10.52,-7.28,13.21
8.070535898208618,-1.01,3.05,-8.92,9.48
8.070839881896973,-4.62,-2.1,-10.69,11.83
8.076446056365967,-8.64,-0.23,-5.4,10.19
8.08640193939209,-10.23,1.07,0.07,10.28
8.097105979919434,-10.53,0.63,1.94,10.72
8.106444835662842,-9.23,-1.08,2.38,9.59
8.11648178100586,-5.12,-1.81,2.02,5.79
8.12737488746643,-0.8,-0.99,1.71,2.13
8.136544942855835,1.88,-0.26,0.99,2.14
8.1698317527771,3.13,0.4,-0.33,3.17
8.170138835906982,3.56,0.9,-2.51,4.44
8.170444011688232,2.44,1.62,-4.4,5.28
8.176300048828125,-0.06,1.9,-4.52,4.9
8.186254024505615,-1.97,0.94,-2.92,3.64
8.197015762329102,-2.26,-0.23,-0.92,2.45
8.206288814544678,-1.53,-0.83,0.78,1.9
8.216307878494263,-0.52,-0.9,1.65,1.95
8.227183818817139,0.19,-0.58,1.4,1.52
8.236352920532227,0.3,-0.21,0.23,0.43
8.270005941390991,0.27,0.13,-0.62,0.68
8.270314931869507,0.33,0.26,-0.47,0.63
8.270617961883545,0.41,0.02,0.25,0.48
8.276092052459717,0.49,-0.27,0.85,1.01
8.2862708568573,0.68,-0.2,0.88,1.12
8.296827793121338,0.94,-0.1,0.25,0.97
8.306285858154297,1.09,0.05,-0.39,1.15
8.316135883331299,1.13,0.17,-0.39,1.2
8.327039957046509,0.94,0.26,0.26,1.0
8.336288928985596,0.57,0.19,0.99,1.15
8.37013292312622,0.37,-0.09,1.25,1.3
8.370446920394897,0.43,-0.27,1.19,1.29
8.370760917663574,0.64,-0.28,1.02,1.23
8.376049995422363,0.89,-0.19,0.91,1.28
8.385993003845215,1.11,-0.11,0.76,1.34
8.396777868270874,1.18,-0.15,0.61,1.33
8.406008958816528,1.22,-0.28,0.35,1.29
8.416042804718018,1.24,-0.11,0.29,1.27
8.426939010620117,1.21,0.03,0.51,1.31
8.436051845550537,1.37,0.18,1.0,1.7
8.47079586982727,1.67,0.1,1.38,2.16
8.471088886260986,1.86,0.1,1.71,2.52
8.471391916275024,1.65,0.44,2.02,2.64
8.47585391998291,1.38,0.58,1.35,2.01
8.485840797424316,1.27,1.13,0.54,1.78
8.496481895446777,1.32,2.13,0.22,2.51
8.505940914154053,2.16,2.97,-0.04,3.67
8.515899896621704,2.49,3.22,-0.27,4.07
8.526660919189453,2.55,3.45,0.07,4.29
8.536022901535034,2.68,3.44,0.69,4.41
8.571268081665039,2.78,3.48,1.73,4.77
8.571574926376343,3.0,3.76,2.65,5.49
8.571877002716064,3.48,5.07,3.66,7.15
8.575616836547852,4.74,6.73,4.09,9.19
8.585630893707275,6.77,7.13,3.53,10.44
8.596396923065186,8.38,7.8,4.1,12.16
8.60579776763916,9.65,9.26,5.87,14.6
8.615787029266357,11.55,10.01,6.96,16.79
8.626599788665771,13.33,9.18,6.93,17.6
8.635872840881348,14.35,7.85,6.4,17.56
8.671397924423218,14.65,6.76,6.36,17.34
8.671717882156372,13.44,6.35,4.14,15.43
8.672022819519043,8.06,6.63,-0.59,10.45
8.675449848175049,-3.16,10.49,-6.97,12.98
8.685522079467773,-13.01,15.6,-12.07,23.62
8.696261882781982,-14.33,16.02,-9.84,23.63
8.705724954605103,-3.7,8.91,-5.12,10.92
8.715630054473877,3.06,6.02,0.68,6.78
8.726394891738892,-2.97,3.64,2.36,5.25
8.735568046569824,-5.19,0.97,0.13,5.28
8.77011775970459,-0.16,1.8,0.32,1.83
8.770431995391846,5.67,1.49,0.33,5.87
8.770736932754517,9.61,0.13,0.02,9.61
8.77535891532898,11.3,-1.02,0.83,11.37
8.785388946533203,11.5,-2.37,1.94,11.9
8.796035766601562,10.86,-3.77,2.63,11.79
8.805404901504517,9.69,-4.81,3.07,11.24
8.81548285484314,8.16,-5.28,3.76,10.42
8.826437950134277,6.3,-5.06,4.76,9.37
8.835521936416626,4.4,-4.52,4.9,7.98
8.870691776275635,2.6,-3.89,3.46,5.81
8.871009826660156,1.13,-3.04,2.27,3.95
8.871316909790039,-0.04,-3.1,1.45,3.42
8.875345945358276,-1.09,-3.36,0.09,3.53
8.885318756103516,-0.95,-3.44,0.04,3.56
8.89594292640686,-0.04,-3.58,0.11,3.58
8.905296802520752,0.98,-4.28,-0.59,4.43
8.915296077728271,1.76,-4.84,0.1,5.15
8.926444053649902,2.38,-5.19,0.42,5.72
8.935286045074463,2.38,-5.26,0.99,5.85
8.970746994018555,1.66,-5.24,1.2,5.62
8.971055030822754,0.3,-4.86,1.05,4.98
8.971364974975586,-1.13,-4.24,0.58,4.42
8.975439071655273,-2.6,-3.51,-0.04,4.36
8.985126972198486,-4.03,-2.58,-0.99,4.88
8.995832920074463,-5.35,-1.39,-2.6,6.1
9.005146026611328,-6.83,-0.07,-4.81,8.35
9.015148878097534,-8.28,1.83,-6.9,10.93
9.052588939666748,-9.34,3.59,-8.48,13.11
9.052880764007568,-9.86,4.38,-9.98,14.69
9.05316686630249,-9.96,4.16,-10.82,15.28
9.055049896240234,-9.72,3.03,-9.96,14.24
9.064976930618286,-9.22,1.6,-8.42,12.58
9.075428009033203,-9.36,0.68,-7.59,12.06
9.085043907165527,-10.62,-0.33,-8.09,13.35
9.095746040344238,-12.46,-1.25,-9.36,15.63
9.104981899261475,-14.53,-1.69,-10.28,17.87
9.115084886550903,-16.14,3.13,-5.93,17.47
9.153954982757568,-10.96,4.55,-5.64,13.13
9.154263019561768,-7.79,-0.69,-7.48,10.82
9.15475082397461,-7.26,10.56,9.12,15.72
9.155060768127441,6.32,12.66,14.15,20.01
9.165006875991821,12.53,7.34,9.75,17.49
9.175251007080078,6.67,1.3,0.23,6.79
9.184865951538086,0.13,0.65,-9.33,9.35
9.195711851119995,-3.99,3.12,-12.2,13.2
9.205050945281982,-6.11,4.71,-8.73,11.65
9.214963912963867,-7.11,2.96,-4.47,8.9
9.254265785217285,-7.57,-0.39,-2.05,7.85
9.254785060882568,-6.71,-1.74,-0.72,6.96
9.255087852478027,-5.51,-1.14,0.6,5.65
9.255390882492065,-3.29,-0.24,0.77,3.38
9.26475191116333,-0.45,-0.05,-0.19,0.49
9.274787902832031,1.4,0.65,-0.83,1.75
9.28473687171936,2.3,1.77,-0.57,2.95
9.295525074005127,2.27,1.34,-0.41,2.66
9.304791927337646,0.88,0.07,-0.59,1.06
9.314970970153809,-0.69,-0.13,-0.65,0.95
9.354283809661865,-1.33,-0.07,-0.84,1.57
9.354594945907593,-1.1,-0.19,-0.97,1.47
9.354907989501953,-0.41,-0.15,-0.73,0.85
9.35520887374878,0.23,-0.22,-0.34,0.46
9.364518880844116,0.68,-0.37,-0.15,0.78
9.374499797821045,0.73,-0.18,0.01,0.75
9.384637832641602,0.48,0.01,0.08,0.48
9.395351886749268,0.11,0.05,0.01,0.12
9.404844760894775,-0.22,0.16,0.22,0.34
9.414620876312256,-0.3,0.13,0.58,0.66
9.453516960144043,-0.09,-0.13,0.73,0.74
9.453841924667358,0.21,-0.22,0.68,0.74
9.454341888427734,0.57,-0.15,0.54,0.79
9.454643726348877,1.0,-0.11,0.31,1.05
9.464395999908447,1.28,-0.11,0.08,1.28
9.474387884140015,1.44,0.04,0.08,1.44
9.484489917755127,1.36,0.17,0.42,1.43
9.495121955871582,1.0,0.19,0.72,1.24
9.504514932632446,0.64,0.0,0.53,0.83
9.51449203491211,0.29,0.03,0.57,0.64
9.553271770477295,0.18,0.06,0.72,0.74
9.553606033325195,0.35,-0.07,0.76,0.83
9.554111957550049,0.78,0.1,0.85,1.15
9.554413795471191,1.13,0.38,0.77,1.41
9.564321994781494,1.35,0.39,0.54,1.5
9.57431697845459,1.31,0.44,0.48,1.46
9.584310054779053,1.06,0.56,0.74,1.4
9.595072746276855,0.99,0.53,1.04,1.53
9.60430383682251,1.44,0.09,1.27,1.92
9.614309787750244,1.94,0.72,1.98,2.86
9.652782917022705,2.76,1.65,1.97,3.77
9.653426885604858,4.0,2.69,1.04,4.93
9.653733730316162,3.61,3.1,1.05,4.87
9.655955791473389,3.31,3.26,0.95,4.74
9.664208889007568,3.21,3.69,1.41,5.09
9.67411994934082,3.12,3.65,1.93,5.17
9.684063911437988,3.48,3.67,2.36,5.58
9.694982051849365,3.92,4.73,3.2,6.92
9.704340934753418,4.99,6.55,3.98,9.14
9.714331865310669,6.93,7.41,3.53,10.74
9.725225925445557,8.4,7.76,3.19,11.87
9.75397777557373,8.78,9.06,4.93,13.54
9.754284858703613,10.01,10.0,6.59,15.6
9.754591941833496,12.21,9.31,6.83,16.8
9.763981819152832,13.86,7.44,6.24,16.92
9.774113893508911,15.07,6.49,5.96,17.45
9.784082889556885,14.79,6.61,3.69,16.61
9.7947678565979,9.09,7.89,-0.51,12.04
9.804040908813477,-1.18,11.16,-7.57,13.53
9.8140869140625,-9.58,15.03,-13.19,22.17
9.825124740600586,-10.89,16.34,-9.36,21.75
9.854559898376465,-3.07,9.34,-4.76,10.92
9.854889869689941,3.0,5.07,0.69,5.93
9.855195045471191,-2.81,2.68,3.16,5.0
9.863866806030273,-6.63,-0.62,1.38,6.8
9.873825073242188,-2.27,0.26,1.12,2.54
9.884091854095459,4.1,0.98,1.5,4.47
9.89470887184143,9.07,0.12,1.25,9.15
9.903948783874512,10.99,-0.82,1.92,11.18
9.913954734802246,10.91,-2.06,2.77,11.44
9.92497992515564,10.0,-3.31,2.99,10.94
9.955450057983398,8.17,-3.88,3.33,9.63
9.955761909484863,5.98,-3.74,4.09,8.15
9.956066846847534,4.2,-3.49,5.0,7.4
9.963716983795166,2.99,-3.33,5.32,6.95
9.973826885223389,1.92,-3.2,4.81,6.08
9.983738899230957,0.85,-3.05,3.72,4.88
9.994457960128784,-0.02,-2.95,2.59,3.92
10.003842830657959,-0.82,-2.65,1.8,3.3
10.013869762420654,-1.08,-2.52,1.32,3.04
10.024826049804688,-0.51,-3.04,0.78,3.17
10.054505825042725,0.74,-3.89,0.62,4.0
10.054815769195557,1.95,-4.29,0.89,4.79
10.055123805999756,2.36,-4.51,1.14,5.21
10.063573837280273,1.79,-4.61,1.47,5.15
10.073702812194824,0.08,-4.17,1.94,4.59
10.08362102508545,-1.95,-3.84,1.67,4.61
10.094351768493652,-3.65,-3.25,0.61,4.92
10.103631973266602,-4.96,-2.2,-1.22,5.56
10.113723754882812,-6.1,-1.01,-3.17,6.94
10.124742984771729,-7.21,0.4,-4.77,8.65
10.153661727905273,-7.88,1.86,-5.61,9.85
10.153975009918213,-7.96,2.86,-5.78,10.24
10.154283046722412,-8.06,3.21,-6.22,10.67
10.163409948348999,-8.77,3.49,-7.27,11.91
10.173486948013306,-9.6,3.9,-8.4,13.33
10.183521747589111,-10.14,4.1,-8.78,14.02
10.194117069244385,-10.9,3.33,-9.2,14.64
10.203491926193237,-12.59,1.88,-10.41,16.44
10.213405847549438,-14.29,0.73,-11.44,18.31
10.224467754364014,-16.21,-0.33,-11.12,19.66
10.253249883651733,-17.62,-2.15,-10.02,20.38
10.253560066223145,-16.65,2.1,-3.49,17.14
10.253866910934448,-11.55,1.61,-3.21,12.09
10.263354778289795,-6.39,-1.42,-2.61,7.04
10.273405075073242,4.41,10.24,11.43,15.96
10.283330917358398,15.39,13.28,17.52,26.83
10.294198989868164,13.94,10.19,15.52,23.21
10.303423881530762,7.76,1.9,3.28,8.63
10.313452959060669,2.6,-0.87,-9.53,9.91
10.3243088722229,-2.56,0.96,-12.25,12.55
10.354722023010254,-8.43,3.79,-5.47,10.74
10.355037927627563,-10.24,1.62,-4.02,11.11
10.355352878570557,-9.34,-2.36,-7.65,12.3
10.36310887336731,-9.41,0.01,-5.58,10.94
10.3731107711792,-8.08,2.77,-2.52,8.9
10.383224964141846,-5.43,2.18,-2.48,6.35
10.394235849380493,-1.72,0.29,-3.01,3.47
10.40316891670227,0.96,0.6,-2.08,2.36
10.413314819335938,2.22,1.62,-0.41,2.77
10.424259901046753,2.04,1.33,0.66,2.52
10.454237937927246,0.42,-0.05,0.16,0.45
10.454546928405762,-1.33,-0.54,-0.62,1.56
10.454850912094116,-2.15,-0.22,-0.67,2.26
10.463044881820679,-1.87,-0.14,-0.55,1.95
10.47296690940857,-0.69,-0.37,-0.12,0.79
10.483160972595215,0.37,-0.34,0.36,0.61
10.494138956069946,0.77,-0.13,0.29,0.83
10.503091812133789,0.47,0.04,-0.39,0.61
10.513138771057129,-0.09,0.14,-1.13,1.14
10.524025917053223,-0.27,0.2,-1.18,1.22
10.554718017578125,0.0,0.17,-0.58,0.6
10.55502700805664,0.27,0.06,0.3,0.4
10.55533504486084,0.26,-0.07,1.02,1.05
10.562922954559326,0.03,-0.25,1.41,1.43
10.572969913482666,-0.09,-0.3,1.33,1.36
10.582994937896729,0.12,-0.19,0.92,0.94
10.594076871871948,0.61,-0.08,0.32,0.69
10.602916955947876,1.19,0.01,0.09,1.19
10.612915992736816,1.77,0.02,0.19,1.78
10.623805046081543,2.22,-0.08,0.51,2.27
10.65441083908081,2.33,-0.25,0.89,2.5
10.654717922210693,1.98,-0.31,1.22,2.34
10.654999732971191,1.25,-0.31,1.56,2.02
10.662824869155884,0.72,-0.5,1.39,1.64
10.67270278930664,0.68,-0.46,0.84,1.17
10.682830810546875,1.0,0.05,0.66,1.19
10.693939924240112,1.52,0.26,0.47,1.61
10.7027268409729,2.02,0.2,0.35,2.05
10.712733745574951,2.49,-0.04,0.35,2.51
10.723670959472656,2.54,0.02,1.04,2.74
10.75495195388794,2.26,0.2,1.59,2.77
10.755255937576294,1.77,0.45,1.53,2.38
10.7555570602417,1.34,0.95,1.22,2.04
10.762610912322998,1.16,1.46,0.86,2.05
10.772602081298828,1.48,2.28,0.44,2.75
10.782728910446167,2.93,3.61,-0.2,4.65
10.793609857559204,3.57,4.79,0.43,5.98
10.802638053894043,3.09,3.92,1.19,5.13
10.81267499923706,3.01,4.02,2.69,5.69
10.823647022247314,3.06,5.26,4.48,7.55
10.855867862701416,4.49,6.91,4.86,9.56
10.856174945831299,6.98,7.26,3.59,10.69
10.856492042541504,8.71,8.53,3.64,12.72
10.862493991851807,9.51,10.44,5.36,15.1
10.872483730316162,10.56,11.44,6.96,17.05
10.882648944854736,12.51,11.03,7.7,18.36
10.89349889755249,14.49,8.88,7.51,18.57
10.902482986450195,15.71,6.99,7.18,18.63
10.912577867507935,16.28,6.24,4.44,17.99
10.923542022705078,12.39,6.46,-0.26,13.97
10.956326007843018,3.26,9.7,-7.0,12.39
10.956639766693115,-5.92,14.66,-13.68,20.9
10.956946849822998,-11.13,16.77,-13.56,24.26
10.962369918823242,-5.9,10.87,-8.64,15.08
10.972294807434082,-1.2,8.05,-0.4,8.14
10.982403755187988,-4.98,4.18,1.28,6.62
10.993027925491333,-5.32,0.41,-0.35,5.34
11.00236177444458,-1.32,0.98,1.64,2.32
11.012350082397461,4.29,0.82,2.44,5.0
11.023453950881958,8.46,-0.38,2.18,8.74
11.056105852127075,10.0,-1.44,2.54,10.41
11.056423902511597,9.96,-2.62,3.06,10.74
11.056726932525635,9.43,-3.88,2.95,10.61
11.062098026275635,8.44,-4.69,2.96,10.09
11.072231769561768,6.77,-4.76,3.76,9.09
11.082365036010742,4.74,-4.47,4.73,8.05
11.09288501739502,2.92,-4.33,4.94,7.18
11.102205753326416,1.54,-4.11,4.46,6.25
11.112213850021362,0.75,-4.07,3.55,5.45
11.123119831085205,0.24,-4.16,2.96,5.11
11.155529022216797,0.55,-4.43,2.52,5.12
11.155838012695312,1.69,-4.58,2.08,5.3
11.156139850616455,2.86,-4.67,2.11,5.86
11.161966800689697,3.36,-4.87,2.06,6.26
11.1719970703125,3.29,-5.18,1.88,6.41
11.182137966156006,2.29,-5.45,1.71,6.15
11.192773818969727,0.44,-5.48,1.4,5.67
11.20208191871643,-1.08,-5.28,0.81,5.44
11.21209192276001,-2.01,-4.71,0.44,5.13
11.223135948181152,-2.62,-3.97,0.03,4.75
11.256199836730957,-3.69,-3.2,-1.49,5.1
11.256517887115479,-5.66,-1.85,-3.82,7.07
11.256821870803833,-8.05,0.12,-6.14,10.12
11.261857032775879,-9.99,2.33,-8.66,13.42
11.271893978118896,-11.25,3.84,-11.05,16.22
11.28200101852417,-11.86,4.16,-11.62,17.11
11.292649745941162,-12.24,3.17,-10.21,16.25
11.301997900009155,-11.65,1.5,-8.42,14.45
11.311954021453857,-10.63,0.73,-7.07,12.78
11.322936058044434,-11.2,-0.21,-8.11,13.82
11.357029914855957,-13.21,-0.78,-10.17,16.68
11.357340812683105,-14.89,-0.44,-10.62,18.29
11.357645034790039,-15.87,-0.77,-9.84,18.68
11.361646890640259,-15.45,-1.65,-7.94,17.44
11.37179684638977,-12.67,2.78,-2.61,13.23
11.3818678855896,-5.77,6.75,-1.77,9.05
11.3925199508667,-1.32,2.58,-3.28,4.37
11.401824951171875,4.2,13.08,12.89,18.83
11.411707878112793,14.97,12.65,16.22,25.44
11.422796726226807,13.32,7.29,9.38,17.84
11.457268953323364,7.87,-1.02,-5.5,9.65
11.457576751708984,3.65,0.12,-13.35,13.84
11.457880973815918,-0.96,6.47,-6.43,9.17
11.461490869522095,-4.63,3.84,-5.63,8.23
11.471523761749268,-8.91,0.51,-7.61,11.72
11.481732845306396,-10.37,-0.75,-5.5,11.76
11.492368936538696,-8.28,-0.53,-3.47,8.99
11.501638889312744,-7.85,0.95,-1.22,8.0
11.511520862579346,-7.7,0.69,-0.35,7.73
11.522665023803711,-3.63,-0.27,-0.99,3.77
11.55898904800415,0.27,0.26,-0.73,0.82
11.55929684638977,1.98,1.16,-0.14,2.29
11.559598922729492,2.65,1.24,0.44,2.95
11.56139087677002,2.04,0.2,0.23,2.06
11.571485042572021,0.23,-0.41,-0.31,0.56
11.581459999084473,-1.31,-0.23,-0.24,1.35
11.59205675125122,-1.81,-0.18,0.07,1.82
11.601507902145386,-1.2,-0.34,0.46,1.32
11.611427783966064,-0.09,-0.42,0.54,0.69
11.622386932373047,0.71,-0.32,-0.05,0.78
11.659607887268066,1.05,-0.06,-0.79,1.31
11.659896850585938,1.13,0.05,-1.14,1.6
11.660181045532227,1.01,0.04,-0.94,1.38
11.66133189201355,0.76,0.03,-0.42,0.86
11.671316862106323,0.4,-0.03,0.39,0.55
11.681562900543213,-0.01,-0.15,0.99,1.0
11.69203805923462,-0.39,-0.16,1.19,1.26
11.70142388343811,-0.47,-0.09,0.94,1.05
11.711328983306885,-0.12,0.03,0.43,0.44
11.722202777862549,0.47,0.11,0.13,0.49
11.758339881896973,1.18,0.13,0.2,1.2
11.758625984191895,1.73,0.07,0.55,1.81
11.758909940719604,1.88,-0.04,1.03,2.14
11.761205911636353,1.71,-0.23,1.5,2.28
11.771074771881104,1.42,-0.48,1.72,2.28
11.7811598777771,1.28,-0.64,1.53,2.09
11.791701793670654,1.37,-0.62,1.17,1.9
11.801105976104736,1.63,-0.27,0.79,1.83
11.811450958251953,1.81,0.2,0.5,1.88
11.822130918502808,1.86,0.5,0.4,1.96
11.858036041259766,1.79,0.28,0.41,1.85
11.858320951461792,1.61,0.15,0.84,1.82
11.858603954315186,1.43,0.36,1.52,2.11
11.861243963241577,1.21,0.61,1.9,2.33
11.871034860610962,1.18,0.72,1.6,2.11
11.881093978881836,1.02,1.25,1.17,1.99
11.891715049743652,1.29,2.18,0.56,2.59
11.90103006362915,1.91,3.46,0.16,3.95
11.911370754241943,2.05,3.59,-0.18,4.13
11.921971797943115,2.23,3.32,-0.16,4.0
11.95880389213562,2.25,3.21,1.24,4.11
11.959074974060059,2.46,3.04,2.64,4.71
11.959349870681763,3.01,3.36,3.47,5.69
11.961133003234863,3.91,5.21,4.35,7.83
11.971015930175781,5.69,7.29,4.65,10.35
11.980857849121094,8.03,8.0,4.02,12.02
11.991504907608032,9.31,9.73,5.44,14.52
12.000863075256348,10.62,11.79,7.72,17.64
12.011283874511719,12.6,11.84,8.43,19.23
12.021655082702637,14.25,9.65,7.86,18.91
12.057244777679443,15.53,7.25,6.52,18.33
12.057522773742676,14.74,6.62,5.09,16.94
12.05778980255127,9.1,6.68,0.49,11.29
12.06119990348816,-1.86,9.62,-7.18,12.14
12.070744037628174,-12.97,15.42,-11.3,23.1
12.080822944641113,-15.99,17.91,-9.37,25.77
12.091293811798096,-8.04,10.61,-6.61,14.86
12.100718975067139,0.31,6.52,-2.95,7.16
12.11072587966919,-4.38,5.5,0.78,7.07
12.121561050415039,-7.53,2.4,-0.41,7.91
12.157529830932617,-2.99,3.29,0.16,4.44
12.157804012298584,4.08,2.62,0.29,4.85
12.158071994781494,9.86,0.74,0.09,9.88
12.160598754882812,12.69,-0.38,0.97,12.73
12.17061996459961,13.44,-1.51,2.22,13.7
12.180608749389648,12.79,-2.97,2.91,13.44
12.191168785095215,11.37,-4.26,3.05,12.51
12.200613021850586,9.44,-5.09,3.72,11.35
12.21055793762207,6.85,-5.17,5.46,10.17
12.221430778503418,4.31,-4.86,6.64,9.28
12.257889747619629,2.54,-4.71,5.93,7.98
12.258162021636963,1.56,-4.7,3.92,6.31
12.258429050445557,0.6,-4.67,2.32,5.24
12.260355949401855,0.04,-4.65,1.62,4.92
12.270370960235596,0.09,-4.53,1.67,4.82
12.280510902404785,0.79,-4.76,1.99,5.21
12.291069984436035,2.07,-5.41,1.93,6.1
12.300477981567383,2.67,-5.71,1.98,6.6
12.310577869415283,2.33,-5.77,1.97,6.52
12.3212890625,1.37,-5.72,1.57,6.08
12.35786485671997,-0.05,-5.38,1.03,5.47
12.358137845993042,-1.18,-5.01,0.44,5.16
12.358407974243164,-2.1,-4.31,0.02,4.79
12.360198020935059,-3.09,-3.43,-0.77,4.68
12.370255947113037,-4.38,-2.08,-2.36,5.39
12.38042688369751,-6.24,0.17,-4.28,7.56
12.390923976898193,-8.31,2.89,-6.63,11.01
12.40026593208313,-9.9,5.47,-9.35,14.67
12.410446882247925,-11.27,7.25,-11.81,17.86
12.42109990119934,-12.75,7.76,-13.85,20.36
12.458679914474487,-13.9,6.41,-14.59,21.14
12.458951950073242,-13.93,3.9,-13.02,19.46
12.459219932556152,-13.44,1.17,-10.91,17.35
12.460125923156738,-13.32,-1.56,-10.18,16.83
12.470213890075684,-13.73,-3.23,-8.7,16.57
12.480295896530151,-13.91,-4.19,-6.92,16.09
12.490777969360352,-13.62,-1.81,-3.56,14.19
12.500287055969238,-10.22,5.61,0.42,11.66
12.510267734527588,-5.4,1.82,-4.29,7.13
12.520920753479004,0.35,9.75,7.33,12.2
12.558410882949829,12.23,12.38,12.87,21.64
12.5586838722229,14.44,8.88,11.54,20.5
12.558953762054443,6.51,1.15,1.15,6.71
12.559985876083374,-0.4,-0.74,-10.79,10.82
12.569992065429688,-3.35,3.56,-14.02,14.84
12.580132961273193,-5.2,4.02,-11.74,13.45
12.59053897857666,-8.0,3.37,-6.55,10.87
12.600000858306885,-8.94,0.5,-3.07,9.46
12.610025882720947,-8.21,-1.16,-1.39,8.4
12.620784759521484,-7.18,-1.23,0.62,7.31
12.65834379196167,-5.38,-1.03,2.0,5.83
12.658609867095947,-1.83,-0.83,1.46,2.48
12.658873081207275,1.53,-0.16,0.07,1.53
12.659852027893066,2.97,1.13,-0.7,3.25
12.669785976409912,2.84,2.05,-1.23,3.71
12.679895877838135,1.08,1.44,-2.24,2.87
12.690402030944824,-1.47,0.54,-2.66,3.08
12.699774742126465,-3.02,0.24,-1.87,3.56
12.709919929504395,-3.45,-0.09,-0.76,3.53
12.720751762390137,-2.68,-0.58,0.28,2.75
12.75862193107605,-1.24,-0.61,0.78,1.58
12.758885860443115,-0.07,-0.34,0.29,0.45
12.75918197631836,0.48,0.05,-0.51,0.7
12.759782791137695,0.66,0.32,-0.98,1.22
12.769636869430542,0.48,0.33,-0.75,0.94
12.779741764068604,0.05,0.15,0.24,0.28
12.790292739868164,-0.23,-0.07,1.36,1.38
12.799691915512085,-0.07,-0.26,1.74,1.76
12.809687852859497,0.68,-0.24,1.22,1.41
12.820460796356201,1.35,-0.02,0.39,1.4
12.85839295387268,1.57,0.25,-0.06,1.59
12.85865306854248,1.44,0.39,0.04,1.49
12.858932971954346,1.14,0.2,0.54,1.27
12.859560012817383,0.86,-0.13,1.06,1.37
12.869552850723267,0.71,-0.39,1.24,1.48
12.879477977752686,0.87,-0.52,1.11,1.5
12.89015793800354,1.36,-0.5,0.87,1.69
12.8995680809021,2.06,-0.52,0.62,2.21
12.909578800201416,2.58,-0.36,0.57,2.66
12.920331001281738,2.74,-0.24,0.6,2.81
12.958759784698486,2.59,-0.14,0.66,2.67
12.959195852279663,2.08,0.27,1.16,2.39
12.959465980529785,1.52,0.71,1.47,2.23
12.959733009338379,1.09,0.98,0.95,1.74
12.969337940216064,0.81,1.31,0.43,1.59
12.979249000549316,1.01,1.51,0.05,1.81
12.989924907684326,1.99,2.35,0.08,3.08
12.999348878860474,3.74,3.69,0.43,5.27
13.00957989692688,3.76,3.76,1.14,5.43
13.020133972167969,3.57,3.61,1.78,5.38
13.058769941329956,3.98,3.97,2.01,5.97
13.059202909469604,4.45,4.73,2.33,6.89
13.059460878372192,4.92,6.62,3.11,8.81
13.059715747833252,6.16,8.75,3.44,11.24
13.069280862808228,8.14,9.51,2.89,12.84
13.079272747039795,9.2,10.76,4.37,14.81
13.089868068695068,10.48,11.62,6.3,16.86
13.0993070602417,11.95,11.23,7.19,17.9
13.109320878982544,13.37,10.14,6.99,18.17
13.12012791633606,14.58,8.47,6.74,18.15
13.159357070922852,15.71,7.11,6.48,18.42
13.15962290763855,15.02,6.67,2.12,16.57
13.159886837005615,7.01,8.25,-4.01,11.54
13.16014575958252,-3.62,12.1,-13.82,18.72
13.169139862060547,-10.92,17.21,-17.47,26.84
13.179224967956543,-8.46,14.19,-11.95,20.38
13.189733028411865,-1.85,9.48,-2.5,9.97
13.199084758758545,-4.48,6.58,3.01,8.51
13.209178924560547,-5.74,2.01,1.97,6.39
13.220009803771973,-1.67,1.2,2.96,3.6
13.259759902954102,4.85,0.64,3.34,5.92
13.26002287864685,9.84,-0.32,2.59,10.18
13.260282039642334,11.3,-1.1,2.41,11.6
13.260543823242188,10.64,-2.11,2.61,11.15
13.26898193359375,9.11,-3.29,2.29,9.95
13.27925992012024,6.93,-3.99,1.76,8.18
13.289562940597534,4.46,-4.19,1.95,6.42
13.299012899398804,2.46,-4.26,2.69,5.6
13.30898904800415,1.05,-4.31,3.5,5.65
13.319707870483398,0.2,-4.57,3.61,5.82
13.360175848007202,-0.22,-5.07,3.14,5.96
13.360439777374268,-0.51,-5.59,2.71,6.23
13.36070203781128,-0.37,-5.89,2.68,6.48
13.3609619140625,0.3,-6.04,2.66,6.6
13.368868827819824,1.4,-6.11,2.31,6.68
13.37930679321289,2.59,-6.06,1.99,6.88
13.389349937438965,3.23,-5.97,1.87,7.04
13.398822784423828,3.31,-6.06,1.81,7.13
13.40881896018982,2.83,-6.11,1.77,6.96
13.419519901275635,1.4,-6.14,1.61,6.5
13.459953784942627,-0.49,-6.0,1.26,6.15
13.460595846176147,-1.68,-5.68,1.01,6.0
13.46085786819458,-2.21,-5.13,0.85,5.65
13.461115837097168,-2.62,-4.37,0.5,5.11
13.468633890151978,-3.52,-3.35,-0.38,4.87
13.478747844696045,-4.97,-1.93,-2.01,5.69
13.489298820495605,-6.93,0.12,-3.96,7.98
13.498692035675049,-9.09,2.46,-6.04,11.18
13.508718967437744,-10.77,4.41,-8.14,14.2
13.519507884979248,-12.01,5.45,-10.09,16.6
13.52865982055664,-13.21,5.86,-11.37,18.38
13.560896873474121,-14.44,5.73,-10.96,19.01
13.561162948608398,-14.33,4.27,-9.21,17.56
13.561420917510986,-12.95,2.31,-7.01,14.9
13.568605899810791,-12.54,0.39,-6.46,14.11
13.578587055206299,-13.45,-1.07,-6.85,15.13
13.589172840118408,-14.57,0.84,-5.2,15.49
13.598561763763428,-10.9,4.98,-4.15,12.68
13.608698844909668,-6.83,-2.13,-10.45,12.66
13.619346857070923,-5.84,7.07,4.75,10.32
13.660346031188965,8.09,15.49,13.81,22.27
13.660611867904663,16.27,13.42,14.32,25.49
13.660871028900146,11.52,6.14,5.45,14.14
13.661128997802734,5.08,-0.2,-7.68,9.21
13.668423891067505,-1.47,2.84,-10.36,10.84
13.678504943847656,-5.83,1.92,-9.52,11.32
13.6890287399292,-10.06,1.31,-6.1,11.83
13.69841480255127,-11.39,0.34,-2.92,11.76
13.708532810211182,-10.38,-0.69,-0.95,10.44
13.71909785270691,-9.56,-0.64,0.72,9.6
13.728425025939941,-7.9,-0.9,1.29,8.05
13.761858940124512,-3.56,-0.83,0.72,3.72
13.762129783630371,0.6,-0.08,-0.21,0.64
13.762712955474854,2.66,0.93,-0.97,2.98
13.768261909484863,3.62,1.84,-1.74,4.41
13.778284072875977,3.1,1.96,-2.63,4.51
13.788879871368408,0.62,0.97,-2.9,3.12
13.798361778259277,-1.66,0.27,-2.07,2.66
13.808311939239502,-2.46,-0.17,-1.1,2.7
13.819101810455322,-2.24,-0.64,-0.22,2.34
13.828357934951782,-1.2,-0.71,0.8,1.6
13.862144947052002,0.27,-0.49,1.13,1.26
13.862738847732544,1.21,-0.34,0.32,1.29
13.862985849380493,1.21,0.08,-0.55,1.33
13.868155002593994,0.7,0.42,-0.65,1.04
13.878174781799316,0.22,0.18,-0.3,0.41
13.88876485824585,-0.08,-0.04,0.61,0.61
13.898070812225342,-0.23,-0.18,1.38,1.41
13.90813398361206,-0.02,-0.42,1.21,1.28
13.918943881988525,0.32,-0.27,0.55,0.69
13.928287029266357,0.58,0.16,0.02,0.6
13.961689949035645,0.78,0.37,-0.21,0.88
13.961949825286865,0.81,0.35,-0.12,0.89
13.96220588684082,0.72,0.3,0.4,0.87
13.967970848083496,0.65,0.12,1.03,1.22
13.97798490524292,0.77,-0.07,1.4,1.59
13.988621950149536,1.11,-0.13,1.41,1.79
13.997961044311523,1.39,-0.03,1.25,1.86
14.007911920547485,1.51,-0.01,1.12,1.88
14.018802881240845,1.7,-0.05,1.06,2.0
14.028218746185303,2.04,-0.07,1.02,2.28
14.062140941619873,2.22,0.29,1.12,2.5
14.062422752380371,2.34,0.44,0.92,2.55
14.062999963760376,2.29,0.6,0.89,2.52
14.067859888076782,1.8,1.05,1.23,2.41
14.077913761138916,1.5,1.27,1.25,2.32
14.088338851928711,2.33,1.87,0.79,3.09
14.097846984863281,3.25,2.63,0.73,4.24
14.107960939407349,3.21,3.07,1.19,4.59
14.118608951568604,3.45,3.17,1.22,4.84
14.127874851226807,3.44,3.37,1.35,5.0
14.162237882614136,3.42,3.52,1.7,5.19
14.162501811981201,3.7,3.76,2.16,5.7
14.163075923919678,4.26,5.0,3.13,7.27
14.16762399673462,5.52,7.26,4.08,9.99
14.177818775177002,7.78,8.55,3.84,12.18
14.188204765319824,9.51,8.97,4.06,13.68
14.197820901870728,10.56,10.23,6.12,15.92
14.207705020904541,12.38,10.96,7.85,18.3
14.218494892120361,14.44,9.69,7.59,18.97
14.22779393196106,15.69,7.61,6.48,18.6
14.262759923934937,15.85,6.94,5.07,18.03
14.263372898101807,13.17,7.28,1.06,15.08
14.263638973236084,4.36,10.65,-4.43,12.33
14.267546892166138,-6.89,16.07,-11.68,21.02
14.277601957321167,-14.26,18.1,-15.01,27.5
14.288105010986328,-9.23,12.35,-10.77,18.8
14.297469854354858,0.67,8.45,-1.58,8.62
14.307636737823486,-2.93,6.47,3.28,7.82
14.318257808685303,-6.95,1.81,0.78,7.22
14.327588081359863,-2.82,1.67,1.22,3.49
14.363004922866821,3.8,2.08,1.74,4.66
14.363263845443726,8.46,1.18,1.28,8.63
14.363524913787842,10.25,0.11,1.42,10.34
14.367389917373657,10.3,-1.16,2.06,10.56
14.377631902694702,9.49,-2.66,2.46,10.15
14.387918949127197,8.05,-3.78,2.75,9.3
14.397378921508789,6.25,-4.34,3.2,8.25
14.407360076904297,4.44,-4.35,4.24,7.52
14.418201923370361,2.82,-4.17,5.34,7.33
14.427463054656982,1.35,-4.19,5.3,6.88
14.4637770652771,0.39,-4.52,3.8,5.91
14.464040756225586,-0.22,-5.04,2.35,5.56
14.464309930801392,-0.53,-5.34,1.81,5.66
14.467236042022705,-0.14,-5.38,2.04,5.75
14.477259874343872,1.39,-5.66,2.01,6.16
14.487858772277832,2.95,-6.01,1.8,6.93
14.497146844863892,3.53,-6.27,1.65,7.38
14.507280826568604,3.2,-6.34,1.57,7.27
14.518028736114502,1.89,-6.22,1.46,6.66
14.527236938476562,-0.19,-6.41,0.73,6.45
14.564387798309326,-1.93,-6.68,-0.16,6.95
14.564653873443604,-2.93,-6.74,-0.68,7.38
14.56491994857788,-3.23,-6.4,-0.79,7.21
14.567025899887085,-2.79,-5.77,-0.65,6.44
14.577221870422363,-2.54,-4.96,-0.54,5.59
14.587609767913818,-3.13,-3.95,-1.16,5.17
14.597149848937988,-4.85,-2.82,-3.37,6.54
14.607101917266846,-7.5,-1.0,-6.21,9.78
14.617857933044434,-10.02,1.74,-8.61,13.32
14.627131938934326,-11.71,4.35,-10.2,16.12
14.66417407989502,-12.73,4.93,-11.49,17.84
14.664440870285034,-12.95,3.49,-12.21,18.13
14.664706945419312,-12.44,2.51,-10.68,16.58
14.667033910751343,-11.98,2.1,-8.68,14.94
14.677087783813477,-12.81,1.44,-8.57,15.47
14.687527894973755,-14.36,2.67,-8.09,16.69
14.697234869003296,-12.11,10.15,-4.45,16.41
14.707200050354004,-4.83,1.15,-14.19,15.03
14.717712879180908,-6.37,6.3,-0.41,8.96
14.72716474533081,1.14,16.67,15.49,22.78
14.765192985534668,12.78,11.16,12.53,21.09
14.76545786857605,8.33,2.14,1.94,8.81
14.765717029571533,2.42,-2.99,-8.36,9.2
14.766826868057251,-1.17,1.57,-4.93,5.3
14.776869773864746,-4.93,4.67,1.39,6.93
14.787416934967041,-8.02,-0.93,-5.24,9.62
14.797124862670898,-11.14,-1.56,-9.75,14.88
14.806805849075317,-11.58,2.44,-6.37,13.43
14.817704916000366,-9.96,4.19,-4.01,11.52
14.826884746551514,-6.73,1.61,-3.85,7.91
14.864680767059326,-1.79,0.07,-2.43,3.01
14.864946842193604,1.49,0.69,-0.3,1.66
14.865204811096191,2.78,1.1,1.33,3.27
14.866803884506226,2.87,0.36,1.77,3.39
14.876805782318115,1.07,-0.49,1.37,1.8
14.88729190826416,-1.16,-0.47,0.28,1.28
14.897058010101318,-2.26,-0.11,-0.48,2.31
14.906743049621582,-2.0,0.0,-0.68,2.11
14.91741394996643,-0.63,-0.15,-0.52,0.83
14.926817893981934,0.68,-0.26,-0.26,0.77
14.965435981750488,1.23,-0.28,-0.55,1.37
14.96570086479187,1.28,-0.08,-0.75,1.48
14.965987920761108,1.06,0.04,-0.67,1.25
14.96663784980774,0.78,0.06,-0.43,0.89
14.976583003997803,0.64,0.09,-0.05,0.64
14.987096786499023,0.53,0.02,0.42,0.67
14.996558904647827,0.39,0.0,0.96,1.03
15.006568908691406,0.27,-0.2,1.14,1.18
15.01716685295105,0.38,-0.29,0.71,0.85
15.026504039764404,0.64,-0.06,0.35,0.73
15.066476821899414,0.94,-0.02,0.3,0.98
15.066740036010742,1.53,-0.03,0.35,1.56
15.066998958587646,2.04,-0.1,1.05,2.29
15.067255973815918,2.2,-0.27,1.78,2.84
15.076426029205322,2.02,-0.61,2.03,2.92
15.086971759796143,1.56,-0.72,1.81,2.49
15.096359729766846,1.01,-0.46,1.32,1.72
15.106404781341553,0.72,0.09,0.65,0.97
15.117146015167236,0.95,0.57,0.08,1.11
15.126380920410156,1.35,0.7,-0.14,1.52
15.166604995727539,1.53,0.72,0.51,1.76
15.166869878768921,1.64,0.11,0.89,1.86
15.167130947113037,1.59,-0.02,1.43,2.13
15.167387962341309,1.16,0.28,1.97,2.3
15.176322937011719,0.88,0.5,1.54,1.84
15.186813831329346,0.74,1.15,0.93,1.65
15.196317911148071,1.65,2.29,0.3,2.83
15.20642375946045,2.34,3.41,0.02,4.13
15.216928005218506,2.75,3.86,-0.07,4.73
15.226409912109375,2.83,3.58,0.37,4.57
15.26624584197998,2.52,3.09,1.56,4.28
15.266507863998413,2.51,3.05,2.59,4.72
15.266769886016846,2.8,3.63,3.3,5.64
15.267026901245117,3.68,5.17,3.56,7.27
15.276158809661865,5.25,6.65,3.21,9.06
15.286689758300781,6.95,7.32,2.9,10.5
15.29609990119934,8.2,8.46,4.29,12.53
15.306181907653809,9.75,9.7,6.42,15.17
15.316909790039062,11.55,9.63,7.36,16.74
15.326106071472168,12.86,8.1,7.13,16.78
15.366899967193604,14.1,6.91,7.1,17.23
15.367162942886353,14.28,6.9,6.47,17.12
15.367424964904785,10.82,6.21,1.56,12.57
15.367685794830322,1.23,8.07,-5.6,9.89
15.376072883605957,-9.72,14.03,-11.51,20.58
15.386533737182617,-14.6,19.1,-9.77,25.95
15.395956993103027,-9.04,13.35,-5.94,17.18
15.405992984771729,1.68,6.53,-2.25,7.1
15.416668891906738,0.4,5.67,2.2,6.09
15.425961017608643,-7.09,2.62,2.14,7.85
15.467964887619019,-4.81,1.85,-0.6,5.18
15.4682297706604,2.43,3.08,-0.81,4.0
15.468488931655884,8.77,2.57,-0.84,9.17
15.468750953674316,12.57,1.83,-0.49,12.71
15.475852012634277,13.91,0.49,0.55,13.92
15.486451864242554,13.49,-1.26,1.46,13.62
15.495836734771729,12.19,-2.76,1.84,12.63
15.505810737609863,10.32,-3.73,2.47,11.24
15.516528844833374,7.85,-3.74,3.87,9.51
15.525850772857666,5.18,-3.46,5.26,8.15
15.568297863006592,2.8,-3.61,5.64,7.25
15.568564891815186,1.01,-3.95,4.88,6.35
15.568824768066406,-0.21,-4.16,3.83,5.65
15.569081783294678,-0.74,-4.44,2.59,5.19
15.575743913650513,-0.84,-4.23,2.06,4.77
15.586266994476318,-0.02,-3.88,1.69,4.23
15.595706939697266,1.22,-3.65,1.23,4.04
15.605676889419556,1.68,-3.82,0.5,4.2
15.616363048553467,1.42,-4.26,-0.12,4.49
15.625720024108887,1.19,-4.4,0.18,4.56
15.66811990737915,0.81,-4.5,1.12,4.7
15.668388843536377,-0.55,-4.49,1.75,4.85
15.668649911880493,-2.78,-4.28,0.88,5.17
15.668909072875977,-4.88,-3.69,-1.1,6.21
15.675631046295166,-6.1,-2.52,-3.2,7.33
15.686137914657593,-6.85,-1.0,-4.92,8.49
15.695505857467651,-7.83,0.74,-5.98,9.88
15.705543041229248,-8.99,1.9,-6.68,11.36
15.716160774230957,-9.85,2.4,-7.26,12.46
15.725614070892334,-10.32,2.41,-8.27,13.44
15.769351959228516,-10.72,2.15,-9.62,14.56
15.769621849060059,-11.55,1.83,-10.6,15.78
15.769892930984497,-12.72,1.37,-10.77,16.72
15.770153999328613,-13.5,0.92,-10.08,16.87
15.77541995048523,-13.84,0.12,-9.26,16.65
15.785961866378784,-13.72,-1.01,-8.91,16.39
15.79540491104126,-13.33,-1.74,-8.44,15.87
15.805499076843262,-11.25,5.24,-2.88,12.74
15.815992832183838,-3.81,4.81,-6.59,9.0
15.825447082519531,-2.77,0.74,-8.33,8.8
15.869552850723267,-4.25,13.32,9.61,16.96
15.869822978973389,7.66,13.48,12.92,20.18
15.870085954666138,11.67,6.44,7.65,15.36
15.870344877243042,3.52,-0.47,-2.67,4.44
15.87523889541626,-3.14,-2.67,-10.59,11.36
15.88583493232727,-4.64,2.45,-6.76,8.55
15.895257949829102,-6.9,5.95,1.29,9.2
15.905271053314209,-8.09,0.8,-1.2,8.21
15.91581106185913,-7.07,-4.46,-7.66,11.33
15.925367832183838,-5.58,-1.22,-5.81,8.14
15.969635963439941,-2.86,2.81,-1.89,4.43
15.969897747039795,-0.63,3.01,-2.76,4.13
15.97015905380249,0.88,1.37,-4.42,4.71
15.970414876937866,1.67,1.46,-3.76,4.36
15.975183010101318,1.37,1.99,-1.57,2.88
15.985678911209106,-0.25,1.07,-0.14,1.1
15.995093822479248,-1.99,0.12,0.22,2.0
16.00512385368347,-2.85,-0.19,0.38,2.88
16.015724897384644,-2.92,-0.38,0.39,2.97
16.025157928466797,-2.33,-0.5,0.48,2.43
16.070208072662354,-1.13,-0.46,0.65,1.38
16.07047390937805,0.13,-0.37,0.61,0.72
16.070733070373535,0.99,-0.26,0.16,1.03
16.07099199295044,1.38,-0.01,-0.49,1.46
16.075010776519775,1.3,0.21,-0.86,1.57
16.08544087409973,0.97,0.19,-0.76,1.24
16.0949649810791,0.55,0.06,-0.44,0.7
16.104984760284424,0.16,-0.02,-0.02,0.16
16.115853786468506,0.07,-0.11,0.48,0.49
16.12503480911255,0.28,-0.21,0.67,0.75
16.17074680328369,0.52,-0.24,0.69,0.89
16.171019077301025,0.82,-0.25,0.72,1.11
16.17128086090088,1.17,-0.19,0.81,1.43
16.171524047851562,1.33,-0.19,1.02,1.68
16.174824953079224,1.22,-0.19,1.21,1.72
16.185365915298462,0.8,-0.15,0.89,1.2
16.19508695602417,0.43,-0.02,0.17,0.46
16.20480489730835,0.59,0.03,-0.09,0.59
16.252191066741943,1.18,-0.05,0.4,1.24
16.25246000289917,1.95,-0.31,1.15,2.28
16.252723932266235,2.62,-0.63,1.75,3.21
16.252964973449707,2.62,-0.88,2.07,3.45
16.254758834838867,2.37,-0.87,1.81,3.1
16.265007972717285,2.04,-0.52,0.92,2.29
16.27483606338501,1.55,0.17,0.07,1.56
16.285318851470947,1.03,0.76,-0.2,1.29
16.294720888137817,0.7,0.94,-0.27,1.2
16.30474090576172,0.65,1.13,-0.18,1.31
16.354081869125366,0.93,1.52,0.07,1.78
16.354537963867188,1.44,1.93,0.38,2.43
16.354798793792725,2.34,2.41,0.63,3.41
16.355056762695312,3.99,3.76,1.17,5.6
16.355312824249268,4.31,5.08,2.5,7.11
16.364577770233154,4.08,5.23,3.28,7.39
16.374714851379395,4.23,6.79,4.04,8.96
16.3851318359375,5.33,8.1,4.11,10.53
16.394519805908203,7.31,8.38,3.46,11.64
16.404679775238037,8.57,9.34,4.2,13.35
16.454335927963257,9.29,10.4,5.09,14.84
16.454598903656006,10.25,10.92,5.67,16.01
16.454858779907227,11.66,10.24,5.96,16.62
16.455115795135498,12.91,8.92,5.68,16.68
16.455370903015137,14.02,7.36,5.53,16.77
16.46440887451172,14.99,6.34,3.51,16.64
16.47452974319458,11.25,7.08,-0.5,13.3
16.484992027282715,1.31,10.67,-6.79,12.71
16.494428873062134,-8.23,13.82,-15.64,22.43
16.50442600250244,-11.42,14.85,-15.13,24.08
16.554897785186768,-3.97,10.34,-6.87,13.03
16.55516791343689,-1.84,8.31,1.97,8.73
16.55543279647827,-5.38,3.59,2.85,7.06
16.55569887161255,-3.45,0.52,1.65,3.85
16.555957794189453,2.17,0.13,2.71,3.47
16.564393043518066,8.02,-0.68,2.69,8.48
16.574440956115723,11.44,-1.4,2.7,11.83
16.58489489555359,12.41,-2.01,3.45,13.03
16.594303846359253,12.06,-2.95,3.94,13.02
16.604264736175537,10.94,-4.0,3.94,12.29
16.654887914657593,8.89,-4.49,4.17,10.79
16.65589475631714,6.12,-4.25,5.0,8.97
16.65616798400879,3.59,-4.05,5.32,7.58
16.65642786026001,1.8,-3.94,4.89,6.53
16.656685829162598,0.82,-3.92,3.95,5.62
16.66414189338684,0.2,-3.98,3.19,5.1
16.67424774169922,-0.14,-4.26,2.79,5.09
16.684716939926147,0.12,-4.6,2.53,5.25
16.694111824035645,0.97,-4.94,2.53,5.63
16.70418405532837,2.02,-5.2,2.55,6.13
16.71485996246338,2.54,-5.54,2.46,6.57
16.755531787872314,2.6,-5.91,2.17,6.81
16.755801916122437,2.39,-5.98,2.16,6.79
16.756064891815186,2.13,-5.74,2.29,6.53
16.756326913833618,1.65,-5.28,2.41,6.03
16.764008045196533,0.48,-4.6,2.42,5.21
16.774178981781006,-1.22,-3.71,1.58,4.21
16.78461980819702,-3.64,-2.43,-0.42,4.39
16.794025897979736,-6.54,-0.87,-3.51,7.47
16.80402183532715,-9.16,1.37,-6.67,11.41
16.81473994255066,-11.07,3.97,-8.68,14.61
16.856506824493408,-12.38,5.58,-9.86,16.78
16.856773853302002,-13.32,5.88,-10.5,17.95
16.857033729553223,-13.72,5.04,-10.56,18.03
16.8572998046875,-12.96,3.47,-9.61,16.5
16.863812923431396,-11.73,2.33,-7.75,14.25
16.87394380569458,-10.96,1.69,-6.6,12.9
16.884451866149902,-11.26,0.74,-7.75,13.68
16.893884897232056,-12.61,0.08,-9.87,16.01
16.903937816619873,-13.6,5.8,-6.42,16.11
16.914741039276123,-10.24,1.11,-11.54,15.46
16.957211017608643,-11.82,-1.79,-8.33,14.57
16.957490921020508,-4.38,11.66,8.04,14.82
16.957751750946045,12.6,14.06,11.4,22.05
16.958009958267212,14.4,10.12,10.55,20.52
16.963796854019165,5.93,2.86,1.26,6.7
16.97384285926819,0.25,-1.44,-7.85,7.98
16.984309911727905,-5.68,1.58,-4.99,7.72
16.99373483657837,-8.12,-1.5,-6.68,10.62
17.00373387336731,-10.93,-2.81,-9.49,14.74
17.014493942260742,-12.67,1.64,-3.83,13.33
17.057209968566895,-11.36,4.52,1.39,12.3
17.057472944259644,-8.21,0.97,-0.14,8.26
17.05773687362671,-3.22,-1.46,-1.28,3.76
17.058003902435303,1.05,-1.01,-1.26,1.92
17.063567876815796,3.61,0.17,-1.43,3.88
17.07379388809204,4.72,1.47,-1.71,5.23
17.084142923355103,4.11,2.04,-2.07,5.03
17.093549728393555,1.0,1.27,-2.16,2.69
17.103628873825073,-1.83,0.27,-1.51,2.38
17.11435890197754,-2.95,-0.28,-0.58,3.01
17.15796184539795,-2.85,-0.7,0.18,2.94
17.15821599960327,-1.73,-0.7,0.81,2.03
17.15847873687744,-0.21,-0.24,0.74,0.8
17.158737897872925,0.61,0.02,-0.19,0.63
17.16344404220581,0.6,0.31,-0.71,0.97
17.173619747161865,0.28,0.28,-0.47,0.61
17.183879852294922,0.08,-0.08,0.06,0.12
17.193418979644775,0.08,-0.22,0.61,0.65
17.203479766845703,0.17,-0.25,0.76,0.81
17.214151859283447,0.32,-0.19,0.58,0.68
17.258153915405273,0.52,-0.06,0.16,0.54
17.2584228515625,0.65,0.15,-0.11,0.67
17.258683919906616,0.69,0.28,-0.03,0.74
17.258939743041992,0.78,0.15,0.22,0.82
17.263428926467896,1.04,-0.06,0.63,1.21
17.2734637260437,1.3,-0.15,1.19,1.76
17.28367280960083,1.51,-0.26,1.61,2.22
17.2932767868042,1.59,-0.4,1.65,2.32
17.30329394340515,1.49,-0.42,1.49,2.14
17.314022064208984,1.4,-0.3,1.36,1.97
17.35850691795349,1.66,-0.4,1.06,2.0
17.3587749004364,2.06,-0.12,1.02,2.3
17.359036922454834,2.3,0.34,1.13,2.58
17.359294891357422,2.35,0.25,0.69,2.46
17.363117933273315,1.93,0.51,0.91,2.19
17.373222827911377,1.41,0.63,1.39,2.07
17.383681774139404,1.25,0.64,1.17,1.82
17.393147945404053,1.15,1.18,0.89,1.87
17.40318489074707,1.48,2.04,0.52,2.57
17.41383385658264,2.3,3.12,-0.02,3.87
17.458659887313843,2.39,3.75,-0.18,4.45
17.458930015563965,2.24,3.6,0.25,4.24
17.459187984466553,2.27,3.33,1.47,4.28
17.45944595336914,2.56,3.1,2.59,4.78
17.463011741638184,2.98,3.49,3.19,5.58
17.473115921020508,3.55,4.86,3.61,7.01
17.483736991882324,4.59,6.6,3.65,8.82
17.493021965026855,6.36,7.32,3.11,10.18
17.50300693511963,8.02,8.19,4.0,12.14
17.51367998123169,9.62,9.74,6.21,15.03
17.55940008163452,11.26,10.65,7.68,17.29
17.55966591835022,12.61,10.21,7.88,18.03
17.559927940368652,13.96,8.23,7.05,17.67
17.56018590927124,14.33,6.79,6.56,17.16
17.56290578842163,11.94,6.11,2.77,13.69
17.573022842407227,3.57,6.91,-3.3,8.44
17.583735942840576,-7.88,11.99,-10.27,17.64
17.592851877212524,-15.07,18.71,-10.95,26.4
17.602922916412354,-11.41,15.36,-7.15,20.42
17.61366295814514,0.93,7.25,-3.46,8.08
17.659658908843994,2.99,6.23,1.03,6.98
17.659929752349854,-5.87,3.46,0.88,6.87
17.660197734832764,-6.66,2.7,-1.7,7.38
17.660456895828247,-0.07,4.17,-1.47,4.42
17.662728786468506,6.87,2.97,-1.42,7.61
17.672802925109863,11.38,1.65,-0.9,11.53
17.68355393409729,12.89,0.24,0.94,12.92
17.692741870880127,12.67,-1.48,2.39,12.97
17.70273494720459,11.62,-3.32,2.65,12.37
17.71345591545105,9.95,-4.58,3.05,11.37
17.760571002960205,7.8,-5.01,4.26,10.2
17.760838985443115,5.44,-5.07,5.65,9.33
17.761099815368652,3.36,-5.1,6.2,8.7
17.761362075805664,1.93,-5.02,5.31,7.55
17.76264786720276,1.01,-4.77,3.95,6.27
17.7726628780365,0.46,-4.68,2.8,5.47
17.783493041992188,0.78,-4.66,2.07,5.15
17.79254984855652,2.03,-4.67,1.85,5.41
17.802629947662354,3.33,-4.58,2.09,6.03
17.813350915908813,3.71,-4.61,1.95,6.23
17.861135959625244,2.9,-4.76,1.41,5.74
17.86140489578247,1.17,-5.08,0.79,5.27
17.861663818359375,-0.37,-5.29,0.34,5.31
17.86194086074829,-0.99,-4.98,0.34,5.08
17.862515926361084,-1.31,-4.57,0.35,4.76
17.872506856918335,-1.96,-4.32,-0.09,4.74
17.883246898651123,-2.87,-3.9,-1.04,4.95
17.892419815063477,-3.83,-2.94,-2.43,5.4
17.90249991416931,-5.07,-1.23,-4.05,6.6
17.913163900375366,-6.86,1.12,-5.93,9.13
17.96113896369934,-8.96,3.58,-7.87,12.45
17.96141481399536,-10.26,4.85,-9.71,14.93
17.96171474456787,-10.41,4.82,-11.04,15.92
17.962157726287842,-10.66,4.12,-11.98,16.55
17.96242094039917,-11.7,3.14,-12.53,17.42
17.972352027893066,-12.78,2.17,-11.92,17.61
17.982865810394287,-13.76,0.56,-11.46,17.91
17.992220878601074,-15.0,-1.53,-11.48,18.95
18.002295970916748,-16.11,-2.81,-10.37,19.36
18.013072967529297,-14.49,4.7,-3.16,15.55
18.06240487098694,-9.52,0.83,-7.51,12.15
18.062670946121216,-7.76,0.2,-3.68,8.59
18.06293296813965,0.55,14.19,11.8,18.46
18.063191890716553,13.79,13.69,11.28,22.46
18.063448905944824,10.9,8.91,5.93,15.27
18.072269916534424,1.96,4.26,-5.19,6.99
18.082741737365723,-4.42,0.54,-10.8,11.68
18.092167854309082,-7.41,-2.14,-11.55,13.88
18.102192878723145,-8.95,-1.72,-6.61,11.25
18.112842082977295,-9.9,-0.39,-1.02,9.96
18.162373065948486,-9.88,0.97,1.89,10.1
18.162643909454346,-7.86,0.44,2.35,8.21
18.16290807723999,-3.77,-1.22,0.53,3.99
18.1631760597229,-0.04,-1.16,-1.09,1.59
18.163434982299805,2.61,0.11,-1.98,3.27
18.172026872634888,4.43,1.8,-2.46,5.37
18.182520866394043,5.18,2.55,-3.23,6.61
18.19199800491333,3.39,1.85,-3.58,5.26
18.202050924301147,-0.08,0.77,-2.88,2.98
18.212687015533447,-2.31,0.23,-1.27,2.64
18.263232946395874,-3.0,-0.34,0.57,3.07
18.263495922088623,-2.73,-1.19,1.53,3.34
18.263754844665527,-1.69,-1.41,1.7,2.78
18.2640118598938,-0.15,-0.66,0.83,1.07
18.26426887512207,0.78,0.17,-0.57,0.98
18.27198886871338,0.88,0.64,-1.15,1.58
18.282378911972046,0.51,0.66,-0.55,0.99
18.29191493988037,-0.06,0.2,0.36,0.41
18.301891803741455,-0.39,-0.22,0.91,1.01
18.312545776367188,-0.31,-0.29,1.04,1.12
18.363313913345337,0.11,-0.21,0.55,0.59
18.363584995269775,0.63,0.01,-0.14,0.64
18.363851070404053,0.99,0.27,-0.18,1.04
18.364107847213745,1.03,0.18,0.33,1.09
18.364362955093384,0.77,0.01,1.02,1.27
18.371885776519775,0.54,-0.07,1.33,1.43
18.38226294517517,0.42,-0.14,1.23,1.3
18.39169979095459,0.53,-0.06,0.96,1.09
18.40184497833252,0.95,0.03,0.63,1.14
18.412442922592163,1.47,0.07,0.56,1.57
18.463815927505493,1.78,-0.03,0.76,1.93
18.464077949523926,1.82,-0.1,1.13,2.14
18.464334964752197,1.93,0.0,1.42,2.39
18.46458888053894,2.21,0.03,1.4,2.61
18.46484375,2.15,0.39,1.38,2.58
18.47171688079834,1.74,0.71,1.14,2.19
18.482443809509277,1.1,0.98,0.92,1.73
18.491697788238525,0.53,1.29,1.15,1.8
18.501516819000244,1.22,1.79,0.93,2.35
18.512259006500244,2.22,2.39,0.6,3.31
18.563203811645508,2.63,3.14,0.75,4.16
18.563464879989624,2.97,3.28,0.86,4.5
18.563724040985107,3.14,3.36,1.35,4.79
18.56398105621338,3.15,3.23,2.01,4.93
18.56423807144165,3.33,3.45,2.54,5.42
18.57156276702881,3.87,4.26,2.88,6.43
18.581950902938843,4.75,6.21,3.58,8.59
18.5914888381958,6.3,8.32,4.17,11.23
18.60133981704712,8.4,8.98,4.23,13.0
18.6121768951416,9.92,10.03,5.74,15.23
18.66455388069153,11.4,11.35,7.97,17.95
18.664819955825806,13.14,10.67,8.78,19.06
18.665080070495605,15.07,8.4,8.05,19.03
18.665336847305298,16.05,7.34,6.92,18.95
18.665600776672363,13.91,7.33,3.59,16.12
18.671417951583862,6.26,8.03,-3.24,10.68
18.681835889816284,-5.66,13.24,-11.69,18.54
18.6913480758667,-15.25,19.93,-13.52,28.5
18.701210975646973,-13.83,16.62,-8.69,23.3
18.711983919143677,-1.71,7.76,-3.86,8.83
18.765094757080078,1.58,5.08,2.47,5.86
18.76536273956299,-4.96,1.54,3.07,6.03
18.765625,-5.06,0.13,1.56,5.29
18.765881061553955,0.95,1.46,1.37,2.21
18.766138076782227,7.1,0.76,0.21,7.14
18.771241903305054,11.14,0.14,-0.24,11.14
18.78178095817566,12.65,-0.37,0.98,12.69
18.791210889816284,12.3,-1.65,2.27,12.61
18.801223754882812,10.67,-3.15,2.73,11.45
18.811885833740234,8.11,-3.95,3.06,9.52
18.866224765777588,5.43,-4.16,3.54,7.7
18.86649179458618,3.11,-4.02,4.04,6.49
18.866760730743408,1.24,-3.42,4.43,5.73
18.867023944854736,-0.1,-3.07,3.65,4.77
18.8676278591156,-1.33,-3.19,2.01,3.99
18.870995044708252,-1.89,-3.63,1.43,4.33
18.881563901901245,-1.13,-4.5,0.38,4.65
18.89102792739868,0.73,-4.47,1.11,4.66
18.901309967041016,2.22,-4.83,0.79,5.37
18.911705017089844,2.69,-5.33,0.77,6.01
18.966335773468018,2.78,-5.77,1.35,6.54
18.966597080230713,2.77,-6.19,1.3,6.9
18.96685791015625,1.7,-6.16,1.69,6.6
18.967116832733154,-0.14,-6.07,1.97,6.38
18.96774387359619,-1.65,-5.92,1.75,6.38
18.971044063568115,-2.68,-5.46,0.97,6.15
18.98135805130005,-3.42,-4.75,-0.53,5.87
18.99086093902588,-4.2,-3.6,-2.01,5.88
19.001147747039795,-5.75,-2.2,-3.56,7.11
19.011570930480957,-8.18,-0.72,-5.34,9.79
19.066744804382324,-10.17,1.06,-6.7,12.22
19.067008018493652,-11.35,2.68,-7.75,14.0
19.067267894744873,-12.41,3.53,-9.23,15.86
19.067879915237427,-13.53,4.08,-10.63,17.68
19.068140029907227,-14.02,3.76,-10.42,17.86
19.07074785232544,-14.01,2.64,-9.45,17.1
19.081249952316284,-14.32,1.73,-8.78,16.88
19.090785026550293,-14.64,0.89,-8.8,17.1
19.101127862930298,-14.31,1.89,-7.72,16.36
19.111424922943115,-10.7,7.6,-4.12,13.75
19.16720676422119,-6.43,-3.31,-14.31,16.03
19.167476892471313,-8.66,1.42,-2.07,9.01
19.168087005615234,2.29,13.41,11.06,17.53
19.168351888656616,14.69,13.37,12.74,23.59
19.168614864349365,12.23,8.08,7.29,16.37
19.170681953430176,4.77,0.9,-4.81,6.83
19.181039810180664,-2.05,1.29,-8.85,9.17
19.190584897994995,-7.64,3.69,-4.87,9.78
19.200645923614502,-9.41,-0.66,-7.16,11.84
19.21127486228943,-11.63,-0.85,-6.19,13.2
19.267371892929077,-11.23,1.08,-1.65,11.4
19.26797890663147,-8.98,1.57,0.6,9.13
19.268252849578857,-5.42,-0.23,-0.26,5.43
19.268513917922974,-1.41,-1.08,-1.32,2.21
19.268774032592773,1.71,-0.04,-1.5,2.27
19.270442962646484,3.55,1.64,-1.49,4.18
19.28093695640564,4.34,2.41,-1.79,5.27
19.290452003479004,2.92,1.49,-2.32,4.01
19.30037498474121,-0.28,0.5,-2.32,2.38
19.3110990524292,-2.25,0.15,-1.43,2.67
19.368161916732788,-2.62,-0.16,-0.18,2.63
19.36843204498291,-1.86,-0.63,1.01,2.2
19.36869192123413,-0.5,-1.01,1.58,1.94
19.368948936462402,0.87,-1.19,0.96,1.75
19.369205951690674,1.64,-0.62,-0.28,1.77
19.37035608291626,1.42,0.46,-0.62,1.61
19.382206916809082,0.64,0.66,-0.4,1.0
19.3902850151062,-0.12,0.17,-0.18,0.27
19.40026092529297,-0.35,-0.03,0.13,0.37
19.410969734191895,-0.02,-0.13,0.51,0.52
19.46855401992798,0.59,-0.36,0.61,0.92
19.468824863433838,1.09,-0.26,0.47,1.21
19.469082832336426,1.27,0.05,0.35,1.31
19.46934485435486,1.24,0.17,0.23,1.27
19.46961498260498,1.17,0.11,0.51,1.28
19.470181941986084,1.28,-0.08,0.96,1.6
19.4806227684021,1.32,-0.23,1.33,1.88
19.49016284942627,1.17,-0.38,1.45,1.9
19.500147819519043,0.96,-0.47,1.41,1.76
19.510936737060547,0.77,-0.52,1.07,1.41
19.569066047668457,0.74,-0.35,0.65,1.04
19.569355010986328,0.77,0.08,0.41,0.87
19.569800853729248,0.86,0.43,0.31,1.01
19.570068836212158,1.11,0.52,0.41,1.29
19.570324897766113,1.3,0.56,0.72,1.58
19.57058095932007,1.46,0.27,0.87,1.72
19.580535888671875,1.47,0.34,1.36,2.03
19.590038776397705,1.28,0.67,1.96,2.43
19.600002765655518,1.09,0.88,1.88,2.34
19.6107120513916,1.54,1.47,1.08,2.38
19.66890788078308,2.79,3.01,0.19,4.1
19.669203758239746,3.27,4.02,-0.33,5.19
19.669655799865723,2.98,4.16,0.15,5.11
19.669914960861206,2.9,3.66,1.45,4.88
19.6701717376709,2.97,3.19,2.91,5.24
19.670429944992065,3.44,3.7,3.81,6.32
19.680463790893555,4.27,5.49,4.33,8.19
19.689908981323242,5.76,7.57,4.28,10.43
19.70005702972412,8.02,8.24,3.46,12.0
19.7105770111084,9.53,9.21,4.11,13.87
19.769739866256714,10.44,10.87,6.24,16.31
19.770006895065308,11.83,11.29,7.87,18.14
19.770278930664062,13.74,9.37,8.25,18.56
19.770537853240967,15.41,7.08,7.78,18.65
19.770797729492188,15.44,6.76,6.01,17.89
19.77105474472046,11.56,6.57,0.68,13.31
19.78014373779297,1.75,9.22,-7.43,11.96
19.78967595100403,-10.06,16.01,-13.6,23.29
19.799715995788574,-16.02,19.14,-13.46,28.35
19.810401916503906,-8.04,11.83,-8.92,16.85
19.868340969085693,1.21,7.38,-1.82,7.69
19.868602752685547,-3.28,5.25,2.49,6.67
19.868896007537842,-5.36,1.06,0.44,5.48
19.869325876235962,-0.4,0.9,0.6,1.15
19.869585037231445,5.79,1.18,1.23,6.03
19.869843006134033,10.42,0.38,1.2,10.49
19.88011884689331,12.69,-0.71,1.37,12.78
19.88953399658203,13.04,-1.87,2.03,13.32
19.899524927139282,12.55,-3.16,2.48,13.17
19.91019582748413,11.42,-4.1,3.2,12.54
19.96965503692627,9.55,-4.41,4.49,11.43
19.969923973083496,6.96,-4.27,5.61,9.9
19.970184803009033,4.36,-4.34,5.67,8.36
19.97044587135315,2.28,-4.37,4.62,6.75
19.970707893371582,0.81,-4.4,2.83,5.29
19.970964908599854,-0.15,-4.22,1.68,4.54
19.979912757873535,-0.66,-3.93,1.27,4.18
19.989393949508667,-0.65,-3.85,0.88,4.0
19.999526977539062,0.37,-4.29,0.38,4.32
20.01018190383911,1.79,-4.85,0.16,5.17
20.070469856262207,2.61,-5.28,0.3,5.89
20.07073974609375,3.02,-5.66,0.48,6.43
20.071003913879395,2.99,-5.92,0.47,6.64
20.0712628364563,2.13,-5.77,0.7,6.19
20.071518898010254,0.46,-5.43,0.76,5.5
20.071778774261475,-1.52,-5.0,-0.03,5.22
20.079757928848267,-3.68,-4.19,-1.71,5.83
20.089265823364258,-5.92,-2.87,-3.96,7.67
20.099300861358643,-8.04,-1.12,-6.22,10.22
20.10999298095703,-9.83,1.04,-8.01,12.72
20.17063593864441,-10.98,3.1,-9.05,14.56
20.170902729034424,-11.59,4.28,-9.71,15.71
20.171170949935913,-11.81,4.55,-10.13,16.21
20.171453952789307,-11.37,4.15,-10.31,15.89
20.171711921691895,-10.98,3.61,-9.36,14.87
20.1719708442688,-11.63,2.78,-8.99,14.96
20.17958688735962,-13.3,1.86,-9.96,16.71
20.189127922058105,-15.18,0.67,-11.07,18.79
20.1991548538208,-16.52,1.25,-9.8,19.24
20.209736824035645,-12.27,6.63,-5.42,14.96
20.270779848098755,-5.88,-1.86,-11.85,13.35
20.271052837371826,-6.88,6.1,4.1,10.06
20.271313905715942,4.25,17.02,17.86,25.03
20.27157187461853,15.54,13.13,16.27,26.04
20.27183198928833,9.47,4.2,7.14,12.58
20.272088050842285,1.42,-3.61,-7.06,8.05
20.27952480316162,-5.92,-0.18,-8.47,10.33
20.28905200958252,-10.29,3.34,-3.19,11.27
20.29897403717041,-10.99,-1.62,-7.42,13.35
20.309632778167725,-12.85,-1.27,-8.03,15.2
20.370868921279907,-11.17,2.5,-3.67,12.02
20.371137857437134,-7.24,3.04,-2.52,8.24
20.371402740478516,-2.7,0.38,-3.79,4.66
20.371660947799683,1.33,-0.19,-3.23,3.49
20.371922969818115,3.86,0.91,-1.96,4.42
20.37218189239502,4.98,2.01,-0.89,5.44
20.37937879562378,3.84,1.66,-0.57,4.22
20.388858795166016,-0.14,0.48,-1.15,1.25
20.398807048797607,-3.09,-0.17,-1.33,3.36
20.409530878067017,-4.03,-0.29,0.01,4.04
20.47158193588257,-3.62,-0.51,1.77,4.06
20.471843957901,-2.14,-0.99,2.31,3.3
20.47210192680359,-0.47,-0.85,1.79,2.03
20.47236680984497,0.64,-0.42,-0.04,0.76
20.472625732421875,1.1,0.02,-2.01,2.29
20.472882747650146,1.25,0.57,-2.64,2.97
20.47919273376465,0.96,0.58,-1.81,2.12
20.489678859710693,0.14,0.05,-0.36,0.38
20.49870991706848,-0.35,-0.11,0.79,0.87
20.509307861328125,-0.37,-0.13,1.37,1.42
20.572253942489624,-0.07,-0.19,1.35,1.36
20.572519779205322,0.34,-0.1,1.1,1.15
20.572778940200806,0.74,0.1,0.8,1.09
20.573039054870605,0.96,0.16,0.55,1.11
20.573302745819092,1.08,0.08,0.44,1.16
20.57353973388672,1.08,-0.06,0.42,1.16
20.578970909118652,1.14,-0.1,0.61,1.29
20.588517904281616,1.25,0.0,1.18,1.71
20.59860897064209,1.37,-0.15,1.78,2.25
20.609226942062378,1.63,-0.62,1.68,2.42
20.618735790252686,1.89,-0.53,1.29,2.34
20.67196798324585,1.89,-0.23,1.15,2.22
20.672231912612915,1.88,-0.06,0.95,2.1
20.672494888305664,1.86,0.2,0.81,2.03
20.67275381088257,1.75,0.37,0.72,1.92
20.673035860061646,1.62,0.49,0.69,1.82
20.67891502380371,1.17,0.83,1.18,1.85
20.68842077255249,0.8,0.98,1.27,1.79
20.69843888282776,0.93,1.17,0.67,1.63
20.70910882949829,1.89,2.29,0.11,2.97
20.71858501434326,2.82,3.47,0.17,4.47
20.772186756134033,2.98,3.88,0.9,4.97
20.77244997024536,3.09,3.8,1.7,5.18
20.772706031799316,3.2,3.72,2.57,5.53
20.77296495437622,3.52,4.12,3.17,6.27
20.77322006225586,4.13,4.96,3.45,7.31
20.778820037841797,4.86,6.83,4.15,9.35
20.788264751434326,6.51,8.93,4.76,12.03
20.798317909240723,9.18,9.95,4.87,14.38
20.80892276763916,11.24,11.09,6.08,16.92
20.81831192970276,12.71,12.03,7.41,19.0
20.873108863830566,14.27,11.07,7.48,19.54
20.873377799987793,15.66,8.5,6.53,18.97
20.873640060424805,16.12,7.03,5.1,18.31
20.873924732208252,13.55,6.58,1.57,15.14
20.87418293952942,3.6,7.6,-5.75,10.18
20.878674030303955,-9.3,12.95,-13.64,20.98
20.888164043426514,-16.82,20.13,-12.01,28.85
20.898141860961914,-12.33,14.61,-7.52,20.54
20.908793926239014,-0.16,6.43,-3.83,7.48
20.918097972869873,-0.89,5.14,1.11,5.33
20.973909854888916,-7.15,1.32,1.13,7.35
20.97417402267456,-4.5,0.49,0.49,4.55
20.97443389892578,2.42,1.37,0.98,2.94
20.974690914154053,8.68,0.49,0.7,8.72
20.974952936172485,11.9,-0.52,1.1,11.96
20.97849702835083,12.42,-1.66,2.75,12.82
20.988003730773926,11.47,-3.29,4.01,12.58
20.997984886169434,9.82,-4.77,4.5,11.8
21.008588790893555,7.63,-5.68,5.26,10.86
21.018041849136353,5.39,-6.2,6.61,10.54
21.07506489753723,3.45,-6.04,7.55,10.26
21.075328826904297,2.04,-5.48,7.23,9.29
21.0755877494812,1.17,-4.8,5.63,7.49
21.075844764709473,0.41,-4.19,4.11,5.88
21.076101779937744,-0.09,-3.87,3.39,5.14
21.078391075134277,0.25,-3.73,2.88,4.71
21.087918758392334,1.07,-3.86,2.58,4.76
21.097932815551758,1.82,-4.39,1.99,5.15
21.10844373703003,1.88,-4.76,1.41,5.3
21.11793088912964,1.23,-4.8,0.93,5.04
21.174970865249634,0.17,-4.92,-0.01,4.92
21.175238847732544,-0.91,-4.95,-1.0,5.13
21.175505876541138,-1.8,-4.77,-1.76,5.39
21.175765991210938,-2.68,-4.42,-2.19,5.61
21.17602777481079,-3.71,-3.94,-2.28,5.87
21.178229808807373,-4.85,-3.38,-2.46,6.4
21.187716007232666,-5.89,-2.26,-3.4,7.16
21.19773292541504,-7.47,-0.5,-5.59,9.34
21.20836877822876,-10.07,1.84,-8.42,13.25
21.217703819274902,-12.7,4.49,-10.9,17.32
21.275763988494873,-14.37,6.3,-12.56,20.09
21.276031970977783,-14.93,5.47,-13.51,20.86
21.27629280090332,-13.86,2.34,-12.59,18.87
21.276550769805908,-11.98,0.36,-9.94,15.57
21.276808738708496,-11.03,-0.38,-8.18,13.73
21.27797508239746,-10.61,6.82,-3.14,12.99
21.287567853927612,-6.18,5.18,-8.12,11.44
21.29755687713623,-6.0,-3.63,-14.68,16.26
21.308233737945557,-8.58,5.42,2.19,10.38
21.317636966705322,1.29,11.63,10.71,15.86
21.37587881088257,11.73,9.57,8.05,17.14
21.376144886016846,7.95,5.41,0.08,9.61
21.376410007476807,0.74,1.73,-9.08,9.27
21.376672744750977,-4.14,3.66,-6.73,8.7
21.37696385383606,-7.59,4.36,-1.67,8.91
21.37793207168579,-8.62,-1.8,-7.12,11.32
21.387322902679443,-10.95,-1.74,-7.36,13.3
21.397510051727295,-10.02,1.68,-2.24,10.4
21.4080548286438,-7.06,2.0,-0.99,7.4
21.417402744293213,-3.32,-0.08,-1.89,3.82
21.476369857788086,-0.1,-0.26,-1.35,1.37
21.47666072845459,1.82,0.51,-0.51,1.95
21.477087020874023,2.62,0.98,-0.31,2.81
21.477346897125244,2.09,0.76,-1.1,2.48
21.4776029586792,0.11,0.5,-2.04,2.1
21.478380918502808,-1.85,0.52,-1.87,2.68
21.487235069274902,-2.39,0.12,-1.01,2.59
21.497271060943604,-1.42,-0.52,-0.25,1.53
21.507848739624023,-0.02,-0.58,0.25,0.63
21.517262935638428,0.93,-0.3,0.26,1.01
21.577148914337158,1.26,-0.04,0.03,1.26
21.577407836914062,1.06,0.04,0.04,1.06
21.57766580581665,0.65,-0.13,0.13,0.67
21.577924728393555,0.46,-0.26,0.09,0.53
21.578181743621826,0.63,-0.13,0.03,0.64
21.578950881958008,0.94,-0.05,0.08,0.94
21.587101936340332,0.94,-0.04,0.5,1.06
21.597137928009033,0.84,-0.11,0.99,1.3
21.60774278640747,0.88,-0.3,1.08,1.42
21.617190837860107,1.23,-0.37,0.71,1.46
21.67748498916626,1.44,-0.18,0.4,1.5
21.677745819091797,1.4,-0.09,0.08,1.4
21.67800807952881,1.34,-0.03,0.01,1.34
21.67826795578003,1.12,0.06,0.34,1.17
21.678525924682617,0.83,0.03,0.87,1.2
21.67929697036743,0.74,-0.09,1.46,1.63
21.687094926834106,0.77,-0.33,1.6,1.8
21.696964740753174,0.82,-0.55,1.17,1.53
21.707597732543945,0.6,-0.28,0.66,0.93
21.717036962509155,0.22,0.09,0.19,0.3
21.777859926223755,0.11,0.24,-0.25,0.36
21.778127908706665,0.34,0.38,-0.11,0.52
21.778398036956787,0.78,0.48,0.38,0.99
21.778658866882324,1.19,0.38,1.03,1.61
21.778918743133545,1.54,0.46,1.71,2.34
21.779703855514526,1.3,0.94,2.3,2.8
21.78715181350708,0.97,1.53,1.95,2.66
21.797039031982422,1.13,2.45,0.79,2.81
21.807503938674927,1.24,3.19,-0.11,3.42
21.816822052001953,1.54,3.45,-0.09,3.77
21.87830686569214,2.04,2.94,0.68,3.64
21.878570079803467,2.41,2.53,2.09,4.07
21.878841876983643,2.76,2.42,2.89,4.67
21.879097938537598,3.29,2.93,3.03,5.34
21.87935996055603,4.21,4.01,2.84,6.47
21.88016986846924,5.6,5.79,2.91,8.56
21.887074947357178,7.44,6.4,2.35,10.09
21.896721839904785,8.6,7.03,2.84,11.46
21.9073588848114,9.26,7.91,4.4,12.94
21.916684865951538,10.07,8.34,5.68,14.25
21.978771924972534,11.61,8.61,6.82,15.98
21.979042053222656,13.82,7.89,7.11,17.42
21.97930097579956,15.21,7.2,5.69,17.76
21.979557037353516,13.82,7.26,3.32,15.96
21.979822874069214,9.39,7.74,-2.67,12.45
21.98060894012451,0.33,13.0,-7.84,15.18
21.987107753753662,-9.49,18.52,-10.19,23.17
21.996522903442383,-13.57,17.44,-9.25,23.95
22.007078886032104,-6.88,10.7,-5.55,13.87
22.01653790473938,2.15,6.55,-1.68,7.09
22.079362869262695,-1.75,6.08,2.27,6.72
22.079628944396973,-6.7,1.48,-1.31,6.98
22.07988977432251,-3.33,1.64,-1.34,3.94
22.08014988899231,2.51,2.87,1.19,3.99
22.080405950546265,7.54,1.3,1.14,7.73
22.08119487762451,10.03,-0.26,1.58,10.15
22.08655285835266,10.34,-1.79,2.74,10.84
22.096482753753662,9.5,-3.46,3.52,10.7
22.107021808624268,8.22,-4.69,4.13,10.32
22.116394996643066,6.48,-5.17,5.52,9.95
22.180832862854004,4.54,-5.22,7.4,10.13
22.18109893798828,2.86,-4.63,8.31,9.93
22.181367874145508,1.86,-3.87,6.97,8.18
22.181626796722412,1.29,-3.21,4.54,5.7
22.181883811950684,0.9,-2.79,2.96,4.16
22.182668924331665,1.34,-2.63,1.81,3.46
22.18630290031433,2.5,-2.69,1.2,3.86
22.19625687599182,3.56,-2.92,1.31,4.78
22.206883907318115,3.89,-3.38,1.6,5.39
22.21624994277954,3.34,-4.05,1.6,5.48
22.28074288368225,1.79,-4.81,1.38,5.31
22.281012058258057,0.09,-5.27,1.4,5.45
22.281271934509277,-0.87,-5.34,1.76,5.68
22.28151273727417,-1.25,-5.34,1.84,5.78
22.281768798828125,-1.6,-5.17,1.42,5.59
22.282542943954468,-2.15,-4.57,0.42,5.06
22.286128044128418,-3.13,-3.7,-1.44,5.05
22.296087741851807,-4.75,-2.61,-3.27,6.32
22.30667495727539,-6.74,-1.08,-4.58,8.22
22.316171884536743,-8.6,0.49,-5.48,10.2
22.381731033325195,-9.69,1.41,-6.35,11.67
22.38200283050537,-9.99,1.69,-7.18,12.41
22.382263898849487,-9.78,1.49,-7.76,12.57
22.38252091407776,-9.13,1.22,-7.38,11.8
22.38277792930603,-8.6,1.13,-6.17,10.64
22.38353991508484,-9.07,1.12,-6.52,11.22
22.38602089881897,-10.42,1.52,-8.22,13.35
22.39601993560791,-12.4,3.0,-9.91,16.15
22.40665578842163,-12.97,10.6,-7.12,18.2
22.416066884994507,-7.67,3.71,-15.71,17.87
22.482411861419678,-9.36,0.26,-11.96,15.18
22.482682943344116,-9.37,9.79,6.14,14.87
22.482945919036865,5.14,13.24,9.34,16.99
22.48320984840393,10.77,10.66,3.76,15.61
22.483468055725098,4.03,3.07,-7.84,9.33
22.484277963638306,-3.88,2.57,-8.3,9.51
22.485832929611206,-10.22,6.58,1.56,12.25
22.495821952819824,-10.71,-1.63,-4.98,11.92
22.50644087791443,-13.29,-4.18,-8.63,16.38
22.51585578918457,-12.54,0.62,-0.9,12.58
22.583158016204834,-7.83,1.96,1.54,8.21
22.583422899246216,-3.38,-0.49,-0.09,3.41
22.583698749542236,-0.08,-1.33,-1.29,1.85
22.583963871002197,2.3,-0.83,-2.15,3.25
22.584219932556152,4.31,0.68,-2.31,4.93
22.585025787353516,5.3,2.05,-2.37,6.15
22.58580493927002,4.27,1.98,-3.16,5.66
22.59569501876831,0.73,1.01,-2.94,3.19
22.606290817260742,-2.35,0.52,-1.28,2.72
22.61577081680298,-3.48,0.02,0.24,3.48
22.6834397315979,-3.44,-0.88,0.8,3.63
22.683709859848022,-2.28,-1.15,0.89,2.7
22.68397283554077,-0.54,-0.35,1.0,1.18
22.684233903884888,0.52,0.23,0.38,0.68
22.68449592590332,0.77,0.25,-0.71,1.07
22.685492038726807,0.73,0.31,-1.39,1.6
22.685754776000977,0.45,0.54,-0.88,1.12
22.695624828338623,0.19,0.37,0.18,0.45
22.706138849258423,0.33,-0.26,0.37,0.55
22.715506076812744,0.59,-0.32,-0.01,0.67
22.784279823303223,0.69,0.03,-0.43,0.81
22.784546852111816,0.54,0.32,-0.45,0.77
22.784828901290894,0.23,0.4,0.12,0.47
22.785268783569336,0.12,0.14,0.77,0.79
22.78552484512329,0.36,-0.09,1.07,1.13
22.78629994392395,0.77,-0.16,0.93,1.21
22.786540031433105,1.15,-0.16,0.59,1.3
22.79546093940735,1.34,0.02,0.56,1.45
22.805907726287842,1.3,0.03,0.77,1.51
22.815417766571045,1.25,-0.15,0.97,1.58
22.884140014648438,1.44,-0.41,1.1,1.85
22.884408950805664,1.8,-0.51,1.0,2.12
22.884665966033936,2.03,-0.15,0.79,2.18
22.88509488105774,1.81,0.49,0.59,1.96
22.88535189628601,1.41,0.73,0.18,1.59
22.88617992401123,1.18,0.52,0.08,1.29
22.88643789291382,1.24,0.23,0.68,1.43
22.895249843597412,1.55,0.04,1.78,2.36
22.90575075149536,2.27,0.49,2.75,3.59
22.915289878845215,3.18,1.43,2.87,4.51
22.9844388961792,3.78,2.49,1.99,4.94
22.98472285270691,3.81,3.23,0.8,5.05
22.985142946243286,3.55,3.8,0.18,5.2
22.985397815704346,3.29,3.92,0.62,5.15
22.985638856887817,3.45,3.92,1.9,5.55
22.98641300201416,4.24,4.88,3.69,7.44
22.98667001724243,5.61,7.39,5.56,10.81
22.995085954666138,7.85,9.5,6.01,13.71
23.005533933639526,10.25,9.81,4.96,15.02
23.015188932418823,11.27,10.64,5.14,16.32
23.085315942764282,11.79,11.32,5.95,17.39
23.08558702468872,13.33,10.75,6.93,18.47
23.08584976196289,15.63,8.8,6.91,19.22
23.086118936538696,15.87,7.83,4.61,18.28
23.086384773254395,12.02,7.55,-0.86,14.22
23.087172031402588,3.03,11.71,-7.71,14.34
23.08744192123413,-7.63,18.37,-13.75,24.18
23.094989776611328,-13.19,18.78,-16.12,28.04
23.105586051940918,-5.58,11.35,-11.0,16.76
23.115006923675537,2.02,8.54,-1.46,8.89
23.18657684326172,-2.97,5.25,1.42,6.19
23.18684673309326,-5.06,0.95,-0.51,5.17
23.18710994720459,-0.75,0.89,0.87,1.45
23.18736696243286,4.6,1.16,1.84,5.08
23.18762993812561,8.23,0.53,1.68,8.41
23.188617944717407,9.4,-0.32,2.08,9.63
23.18888282775879,9.13,-1.64,2.38,9.57
23.194972038269043,8.42,-3.16,2.14,9.24
23.205673933029175,7.68,-4.22,2.27,9.05
23.21480083465576,6.94,-4.56,3.27,8.92
23.287476062774658,6.11,-4.55,4.63,8.91
23.287749767303467,5.08,-4.51,5.64,8.82
23.288352966308594,3.9,-4.62,5.62,8.25
23.28861379623413,2.74,-4.71,4.3,6.94
23.288874864578247,1.75,-4.53,3.31,5.87
23.289671897888184,1.32,-4.34,2.69,5.27
23.28992795944214,1.84,-4.5,2.5,5.46
23.294716835021973,2.94,-5.04,1.32,5.98
23.370977878570557,3.61,-4.75,1.5,6.15
23.37160086631775,3.04,-4.79,1.75,5.93
23.371864795684814,1.93,-5.48,1.41,5.97
23.372128009796143,0.66,-6.22,1.14,6.35
23.372418880462646,-0.4,-6.63,0.91,6.7
23.372676849365234,-1.3,-6.48,1.01,6.68
23.372933864593506,-2.19,-6.19,1.15,6.66
23.375202894210815,-3.19,-6.04,0.8,6.87
23.38456106185913,-4.2,-5.77,-0.17,7.13
23.3945529460907,-5.33,-4.9,-1.49,7.39
23.471921920776367,-6.86,-3.62,-3.27,8.41
23.47219181060791,-8.93,-1.58,-5.04,10.37
23.472476959228516,-11.07,1.09,-5.83,12.55
23.472734928131104,-12.46,3.4,-6.24,14.34
23.473012924194336,-13.24,4.87,-7.01,15.75
23.473280906677246,-13.54,5.69,-8.29,16.86
23.473540782928467,-13.18,6.44,-8.23,16.82
23.474864959716797,-12.48,6.2,-6.75,15.48
23.484641075134277,-11.59,4.99,-6.21,14.06
23.49452781677246,-10.54,3.7,-7.22,13.3
23.572789907455444,-9.54,4.52,-8.15,13.33
23.573067903518677,-5.0,5.92,-11.1,13.53
23.57333278656006,-4.28,-1.89,-18.24,18.83
23.573606967926025,-12.48,-2.72,-9.26,15.77
23.57389783859253,-2.64,9.55,3.28,10.43
23.57431983947754,16.7,19.09,9.47,27.07
23.57458186149597,17.59,19.82,16.62,31.28
23.575366973876953,8.43,7.75,9.84,15.09
23.584348917007446,-3.2,1.21,1.32,3.66
23.594286918640137,-10.44,-5.36,-9.66,15.19
23.67289090156555,-16.49,-6.62,-11.08,20.94
23.673167943954468,-16.48,-1.55,-3.53,16.92
23.673467874526978,-14.17,1.91,2.69,14.54
23.673897743225098,-13.8,1.59,3.95,14.44
23.674160957336426,-9.72,-1.46,1.06,9.88
23.674421787261963,-3.68,-2.29,-1.69,4.65
23.674677848815918,0.47,-1.02,-3.03,3.23
23.67545795440674,3.33,1.26,-3.82,5.22
23.684237957000732,5.65,3.52,-4.28,7.91
23.69410991668701,6.43,4.18,-4.41,8.84
23.704707860946655,4.27,2.4,-3.69,6.13
23.774085998535156,0.04,0.73,-1.68,1.83
23.774348735809326,-2.35,-0.3,0.22,2.37
23.774610996246338,-2.9,-1.33,1.61,3.57
23.77487087249756,-2.35,-1.95,2.32,3.83
23.77512788772583,-0.76,-1.73,2.31,2.98
23.775386810302734,1.12,-0.88,1.11,1.8
23.776179790496826,1.97,-0.05,-0.61,2.06
23.783997058868408,1.67,0.65,-1.6,2.4
23.794034957885742,0.91,0.91,-1.7,2.13
23.804693937301636,0.11,0.58,-1.04,1.19
23.87485694885254,-0.38,0.17,0.19,0.45
23.875128746032715,-0.43,-0.29,0.99,1.11
23.875388860702515,-0.14,-0.54,1.2,1.32
23.875645875930786,0.31,-0.49,1.19,1.32
23.875897884368896,0.9,-0.4,0.89,1.32
23.87615990638733,1.39,-0.22,0.67,1.55
23.87698793411255,1.46,-0.12,0.42,1.52
23.88388991355896,0.99,-0.07,0.27,1.02
23.893828868865967,0.46,-0.18,0.22,0.54
23.90451693534851,0.34,-0.28,0.21,0.48
23.975575923919678,0.6,-0.3,0.52,0.84
23.975847959518433,0.94,-0.39,0.98,1.41
23.976106882095337,1.18,-0.53,1.39,1.89
23.97636890411377,1.61,-0.79,1.55,2.37
23.976624965667725,2.36,-0.75,1.69,2.99
23.976880073547363,3.01,-0.42,1.41,3.35
23.977684020996094,3.22,-0.18,0.58,3.27
23.983750820159912,2.63,0.53,0.6,2.74
23.993710041046143,1.72,0.76,0.69,2.0
24.004323959350586,1.17,0.83,0.53,1.52
24.07604193687439,0.97,1.12,0.45,1.54
24.07630491256714,0.96,1.48,0.54,1.84
24.076563835144043,1.27,2.01,0.66,2.46
24.076823949813843,2.08,2.78,0.5,3.5
24.077082872390747,4.84,4.52,-0.15,6.62
24.07734489440918,6.02,6.11,0.44,8.58
24.078135013580322,5.59,7.64,2.57,9.8
24.08358097076416,6.64,8.49,3.4,11.3
24.093592882156372,8.24,8.39,3.5,12.26
24.104187965393066,9.25,9.44,4.66,14.01
24.176777839660645,9.77,10.71,5.63,15.55
24.177048921585083,10.08,11.56,5.77,16.38
24.17731475830078,10.82,12.09,6.17,17.35
24.177578926086426,12.33,10.96,6.2,17.62
24.177838802337646,13.91,7.94,5.39,16.89
24.17809796333313,14.61,6.31,3.62,16.32
24.17885684967041,13.17,6.03,-1.84,14.6
24.183482885360718,6.42,10.23,-6.06,13.51
24.19342803955078,-1.03,16.4,-12.81,20.83
24.204002857208252,-6.16,17.48,-15.25,24.0
24.277612924575806,-3.94,10.45,-9.78,14.84
24.277878761291504,-2.41,8.26,-0.26,8.6
24.278137922286987,-6.24,4.32,2.3,7.93
24.278400897979736,-5.21,0.28,1.41,5.4
24.278660774230957,0.17,-0.36,2.96,2.98
24.27891778945923,6.35,-0.68,3.86,7.46
24.27970790863037,9.97,-1.25,4.24,10.9
24.283257961273193,10.78,-2.06,4.85,11.99
24.29326891899109,10.01,-3.16,5.18,11.7
24.303849935531616,8.49,-4.32,4.61,10.58
24.378647804260254,6.33,-4.82,4.19,8.99
24.37891387939453,4.24,-4.66,4.2,7.57
24.379179000854492,2.61,-4.25,4.26,6.55
24.37943983078003,1.44,-3.91,4.17,5.89
24.379703998565674,0.65,-3.99,3.65,5.44
24.379963874816895,0.02,-4.33,3.4,5.5
24.380733966827393,-0.13,-4.88,3.54,6.03
24.383141040802002,0.28,-5.56,3.74,6.7
24.393154859542847,1.27,-6.27,3.33,7.21
24.403751850128174,2.12,-6.48,2.86,7.39
24.479182958602905,2.62,-6.44,2.58,7.41
24.479447841644287,2.56,-6.22,2.42,7.14
24.479707956314087,1.9,-6.1,2.18,6.75
24.479968070983887,0.83,-6.14,1.8,6.45
24.48022985458374,-0.05,-5.96,1.91,6.25
24.48048496246338,-0.35,-5.5,2.1,5.89
24.481271743774414,-0.65,-4.77,1.87,5.16
24.483008861541748,-1.74,-3.76,0.59,4.18
24.49294900894165,-4.09,-2.0,-1.5,4.79
24.503582000732422,-7.35,0.75,-3.93,8.36
24.5802218914032,-10.21,4.23,-6.61,12.87
24.58049774169922,-11.96,7.08,-9.46,16.81
24.58076286315918,-13.26,7.83,-12.07,19.56
24.581024885177612,-14.62,6.81,-13.71,21.16
24.58128786087036,-14.94,4.74,-12.96,20.33
24.581547737121582,-14.16,2.99,-9.89,17.52
24.58238697052002,-13.76,1.58,-7.72,15.85
24.58281373977661,-14.21,0.42,-7.08,15.88
24.59278893470764,-14.04,5.05,-4.06,15.46
24.603321075439453,-8.56,5.77,-6.98,12.46
24.68107795715332,-6.85,-4.06,-13.97,16.08
24.681344032287598,-8.54,3.03,1.08,9.12
24.681604862213135,2.41,12.5,12.1,17.56
24.68186593055725,13.04,11.82,12.97,21.86
24.68214702606201,9.81,5.66,4.11,12.04
24.68258786201477,3.62,0.62,-9.8,10.46
24.683372974395752,-1.37,3.64,-12.05,12.66
24.68363380432129,-5.89,6.43,-5.14,10.12
24.692739009857178,-7.77,1.51,-6.7,10.37
24.703322887420654,-9.79,-0.53,-6.01,11.49
24.781455993652344,-9.02,-0.3,-2.46,9.35
24.781726837158203,-7.24,0.11,-0.83,7.28
24.782031059265137,-5.61,0.46,-0.68,5.66
24.78247094154358,-2.95,0.27,-0.92,3.1
24.782728910446167,-0.39,0.53,-1.35,1.5
24.782984733581543,1.03,1.26,-1.45,2.17
24.783753871917725,1.5,1.62,-1.15,2.48
24.784015893936157,0.57,0.87,-0.67,1.23
24.792518854141235,-1.14,0.02,-0.25,1.16
24.80315589904785,-2.0,-0.37,0.11,2.03
24.88226079940796,-1.82,-0.52,0.54,1.96
24.882527828216553,-0.83,-0.56,0.5,1.11
24.882794857025146,0.29,-0.43,0.08,0.52
24.883052825927734,0.88,-0.1,-0.38,0.96
24.883314847946167,0.8,0.15,-0.62,1.02
24.88357400894165,0.53,0.1,-0.67,0.86
24.88437294960022,0.4,-0.04,-0.44,0.59
24.884634971618652,0.55,-0.1,-0.17,0.58
24.89238977432251,0.71,-0.09,-0.03,0.71
24.903093814849854,0.8,-0.02,0.05,0.8
24.984254837036133,0.63,0.03,0.31,0.7
24.984540939331055,0.28,0.14,0.81,0.86
24.984838008880615,0.04,-0.07,1.22,1.22
24.98511505126953,0.46,-0.38,1.11,1.26
24.985414028167725,1.16,-0.4,0.85,1.49
24.985734939575195,1.74,-0.29,0.52,1.83
24.98660898208618,1.82,0.04,0.41,1.86
24.98689079284668,1.42,0.08,0.61,1.54
24.992214918136597,1.16,-0.02,0.47,1.25
25.002853870391846,1.07,-0.08,0.81,1.34
25.083841800689697,1.31,-0.18,1.06,1.69
25.08410406112671,1.51,-0.31,1.02,1.84
25.08436393737793,1.27,-0.22,0.99,1.62
25.0846209526062,0.77,-0.07,0.64,1.0
25.08487892150879,0.43,0.13,0.21,0.49
25.085134983062744,0.6,0.28,-0.02,0.66
25.085893869400024,1.08,0.5,0.38,1.24
25.086161851882935,1.56,0.52,1.02,1.93
25.092105865478516,1.98,0.58,1.86,2.77
25.10269594192505,2.01,1.14,2.85,3.66
25.183335781097412,1.85,1.4,2.47,3.38
25.183600902557373,2.4,2.26,1.07,3.46
25.183866024017334,3.21,3.46,-0.25,4.72
25.184128761291504,2.89,3.64,-0.62,4.68
25.18437099456787,3.15,3.64,-0.13,4.81
25.184627056121826,3.57,3.66,1.53,5.33
25.185420036315918,4.18,3.96,2.92,6.45
25.185680866241455,5.01,5.34,3.9,8.29
25.19196391105652,6.31,7.34,4.34,10.6
25.20256280899048,8.29,8.31,3.7,12.3
25.283865928649902,9.7,8.98,3.89,13.77
25.28413987159729,10.47,10.03,5.33,15.44
25.284406900405884,11.15,10.62,6.7,16.79
25.284667015075684,12.7,10.18,8.14,18.19
25.284926891326904,15.17,8.13,8.63,19.25
25.285184860229492,16.9,7.04,7.01,19.6
25.28596591949463,15.42,6.88,1.61,16.96
25.286228895187378,7.14,9.07,-5.39,12.73
25.29187774658203,-4.08,15.31,-13.01,20.5
25.30237102508545,-11.96,18.68,-16.02,27.36
25.384918928146362,-9.06,13.32,-12.36,20.3
25.38518786430359,0.31,8.19,-3.74,9.0
25.385451793670654,-1.88,7.22,2.86,7.99
25.385714054107666,-6.42,1.76,0.53,6.67
25.38598394393921,-3.92,0.31,0.68,3.99
25.386241912841797,1.85,0.63,2.07,2.84
25.387045860290527,7.38,-0.19,1.84,7.6
25.387313842773438,10.17,-0.93,2.24,10.45
25.391687870025635,10.61,-1.89,3.04,11.19
25.402201890945435,10.0,-3.31,3.18,11.0
25.485687732696533,8.66,-4.45,3.04,10.19
25.48595380783081,6.69,-5.01,3.32,8.99
25.486216068267822,4.63,-5.19,3.93,7.98
25.486475944519043,2.96,-5.04,4.77,7.54
25.486734867095947,1.8,-4.9,5.17,7.34
25.48699688911438,1.07,-5.03,4.66,6.93
25.48778986930847,0.81,-5.34,3.65,6.51
25.488050937652588,1.03,-5.58,2.57,6.22
25.49155592918396,1.31,-5.36,1.97,5.85
25.502063751220703,1.73,-5.2,1.55,5.69
25.586180925369263,1.92,-5.17,1.14,5.63
25.586445808410645,2.11,-5.28,0.88,5.75
25.586708068847656,2.3,-5.54,0.81,6.05
25.586966037750244,1.96,-5.82,0.64,6.17
25.587223052978516,0.76,-5.71,0.58,5.78
25.587483882904053,-0.75,-5.48,0.65,5.56
25.58826780319214,-1.86,-5.11,0.73,5.48
25.58852481842041,-2.58,-4.2,0.46,4.95
25.59140682220459,-3.71,-3.09,-0.96,4.92
25.601930856704712,-5.72,-1.53,-3.22,6.74
25.686418056488037,-8.13,0.99,-5.32,9.76
25.686697959899902,-9.84,3.56,-7.09,12.63
25.686961889266968,-10.67,5.21,-8.92,14.85
25.687219858169556,-11.25,5.5,-10.49,16.33
25.687480926513672,-11.79,4.68,-10.98,16.77
25.68774390220642,-11.78,3.01,-9.88,15.66
25.6885347366333,-11.33,1.64,-8.07,14.0
25.68879795074463,-11.78,0.73,-7.59,14.03
25.691067934036255,-13.28,0.01,-8.5,15.76
25.701802730560303,-15.06,-0.66,-9.7,17.92
25.787356853485107,-16.35,-1.07,-9.32,18.85
25.787632942199707,-15.91,6.17,-2.77,17.28
25.787895917892456,-10.7,-0.07,-8.15,13.45
25.788158893585205,-5.73,1.44,-1.15,6.01
25.78841996192932,6.94,14.15,13.73,20.9
25.78867793083191,16.86,14.62,17.57,28.4
25.78946304321289,12.45,7.12,9.91,17.43
25.78972291946411,5.89,-1.72,-6.17,8.7
25.791135787963867,-0.34,1.13,-11.91,11.96
25.801633834838867,-5.31,4.08,-8.25,10.62
25.88735795021057,-8.33,1.58,-7.28,11.17
25.88762903213501,-11.02,0.38,-5.54,12.34
25.887892961502075,-10.77,-0.07,-2.69,11.1
25.888154983520508,-9.58,0.43,-0.46,9.6
25.888413906097412,-8.19,-0.16,0.03,8.19
25.888673782348633,-4.12,-0.9,-0.81,4.29
25.889458894729614,0.23,-0.05,-1.22,1.24
25.889720916748047,2.82,1.09,-1.68,3.45
25.890978813171387,3.71,2.13,-1.85,4.66
25.90147590637207,3.03,1.69,-1.78,3.89
25.988576889038086,0.31,0.26,-1.72,1.76
25.988842964172363,-1.91,-0.2,-1.01,2.16
25.98910689353943,-2.49,-0.29,-0.13,2.51
25.989370822906494,-2.13,-0.48,0.69,2.28
25.98963689804077,-1.16,-0.49,1.24,1.76
25.989898920059204,-0.11,-0.42,0.73,0.84
25.991214752197266,0.59,-0.22,-0.66,0.91
25.991479873657227,1.01,0.13,-1.66,1.94
25.99177074432373,1.06,0.39,-1.41,1.8
26.001385927200317,0.62,0.23,-0.05,0.66
26.089879035949707,0.11,-0.07,1.13,1.13
26.09017586708069,-0.08,-0.22,1.66,1.67
26.09081506729126,0.15,-0.36,1.23,1.29
26.09107780456543,0.58,-0.17,0.4,0.72
26.091336727142334,0.89,0.16,-0.15,0.91
26.091615915298462,1.06,0.3,-0.12,1.1
26.092423915863037,1.27,0.18,0.3,1.31
26.092683792114258,1.48,0.01,0.81,1.68
26.092959880828857,1.55,-0.11,1.06,1.88
26.101295948028564,1.41,-0.12,1.19,1.84
26.188698768615723,1.05,-0.03,1.46,1.79
26.188978910446167,0.75,-0.18,1.44,1.63
26.18926692008972,0.97,-0.66,0.92,1.49
26.189526081085205,1.44,-0.89,0.63,1.8
26.189786911010742,1.89,-0.66,0.71,2.12
26.190083980560303,2.07,-0.07,0.9,2.25
26.191417932510376,1.92,0.37,0.63,2.05
26.191696882247925,1.42,0.86,0.47,1.72
26.19195294380188,0.77,1.25,0.72,1.63
26.20120096206665,0.39,1.15,0.62,1.36
26.28872776031494,0.5,1.08,0.4,1.25
26.28898787498474,1.39,1.79,0.46,2.31
26.289244890213013,2.59,2.81,0.75,3.89
26.289499759674072,2.95,3.29,1.12,4.55
26.289753913879395,3.0,3.48,1.32,4.78
26.290013790130615,2.96,3.58,1.54,4.89
26.29132890701294,2.83,3.72,1.97,5.07
26.291584968566895,3.05,4.29,2.57,5.85
26.291838884353638,3.72,5.78,3.36,7.65
26.30093002319336,5.0,7.94,4.07,10.22
26.38883090019226,7.14,9.26,4.29,12.45
26.38910675048828,9.33,10.27,5.43,14.89
26.389379024505615,11.28,11.72,7.48,17.9
26.389647006988525,13.07,12.74,9.23,20.45
26.39007592201233,15.05,11.06,9.58,20.99
26.390344858169556,17.13,7.66,7.81,20.32
26.391520023345947,16.98,6.32,4.79,18.74
26.391791820526123,11.92,5.9,-0.99,13.33
26.39206075668335,1.23,8.58,-10.02,13.24
26.400673866271973,-10.4,15.97,-15.39,24.49
26.489233016967773,-15.61,19.05,-13.67,28.16
26.48952293395996,-7.87,10.7,-8.59,15.81
26.489937782287598,0.35,6.88,-1.4,7.02
26.490193843841553,-3.8,5.02,3.2,7.06
26.490450859069824,-5.21,0.8,1.71,5.54
26.49097204208374,-0.86,0.72,2.01,2.3
26.491787910461426,4.97,0.87,2.17,5.49
26.492066860198975,9.39,0.01,1.48,9.5
26.492323875427246,11.3,-0.82,1.72,11.45
26.5006160736084,11.57,-1.9,2.38,11.96
26.58916473388672,10.85,-3.15,2.75,11.62
26.589441776275635,9.23,-3.98,3.01,10.49
26.589866876602173,6.91,-4.07,3.64,8.8
26.590128898620605,4.64,-3.83,4.53,7.53
26.590385913848877,2.82,-3.5,5.11,6.8
26.590646743774414,1.52,-3.42,4.65,5.96
26.591832876205444,0.71,-3.72,3.42,5.1
26.59209394454956,0.29,-4.02,2.63,4.81
26.592350959777832,0.58,-4.32,2.0,4.79
26.600470066070557,1.21,-4.36,1.58,4.79
26.68914794921875,1.98,-4.7,1.08,5.21
26.689454078674316,2.44,-5.13,0.59,5.71
26.689888954162598,2.69,-5.51,0.5,6.15
26.69015073776245,2.66,-5.96,0.72,6.56
26.690414905548096,2.04,-6.4,1.07,6.8
26.690675735473633,0.68,-6.71,1.05,6.82
26.69185781478882,-0.99,-6.97,0.48,7.05
26.69212007522583,-2.22,-6.85,-0.02,7.2
26.69239902496338,-2.81,-6.31,-0.36,6.91
26.700435876846313,-3.32,-5.53,-0.74,6.49
26.78863787651062,-3.91,-4.54,-1.52,6.18
26.788904905319214,-4.76,-3.2,-3.19,6.56
26.789196014404297,-6.14,-1.12,-5.32,8.2
26.789639949798584,-7.95,1.78,-7.55,11.1
26.78989887237549,-9.84,4.59,-9.9,14.69
26.79015874862671,-11.94,6.0,-12.5,18.29
26.791351795196533,-14.26,5.46,-14.24,20.87
26.791625022888184,-15.47,4.17,-13.44,20.91
26.79188585281372,-15.28,3.01,-10.76,18.92
26.800209045410156,-14.94,1.88,-8.56,17.32
26.889654874801636,-15.03,1.03,-7.64,16.89
26.889928817749023,-13.44,7.96,-3.04,15.91
26.89018988609314,-6.63,1.87,-11.75,13.62
26.890451908111572,-7.64,-1.24,-7.38,10.69
26.890713930130005,-0.76,13.19,12.32,18.06
26.89097285270691,14.92,14.6,15.41,25.94
26.892122745513916,13.88,7.99,11.14,19.5
26.892385005950928,7.76,-1.33,-1.36,7.98
26.892688751220703,2.1,-0.83,-5.77,6.19
26.90006685256958,-3.63,2.99,-3.44,5.82
26.990142822265625,-8.23,-0.18,-6.88,10.72
26.990408897399902,-14.65,1.12,-8.64,17.04
26.99067497253418,-15.02,2.62,-7.26,16.88
26.990944862365723,-12.68,3.13,-4.04,13.67
26.99162197113037,-11.15,1.02,-2.53,11.47
26.991882801055908,-5.87,-0.36,-1.65,6.1
26.99269390106201,0.09,0.01,-0.79,0.79
26.992952823638916,3.22,0.41,-0.63,3.3
26.99320888519287,4.45,0.86,-0.21,4.53
26.999961853027344,4.68,0.7,-0.06,4.73
27.091465950012207,2.71,0.07,-0.5,2.75
27.091729879379272,-0.51,-0.01,-0.85,0.99
27.09199094772339,-2.29,-0.05,-0.62,2.37
27.09228277206421,-2.6,-0.33,0.11,2.62
27.092541933059692,-1.48,-0.66,0.59,1.72
27.09279990196228,0.14,-0.63,0.36,0.73
27.093626022338867,1.14,-0.23,-0.54,1.28
27.09389591217041,1.37,0.25,-1.26,1.87
27.094153881072998,1.05,0.36,-1.43,1.81
27.09980583190918,0.47,0.24,-0.73,0.9
27.192049026489258,0.09,0.09,0.28,0.3
27.192343950271606,-0.02,-0.11,0.82,0.82
27.192627906799316,0.14,-0.19,0.85,0.88
27.1929030418396,0.51,-0.1,0.73,0.89
27.193170070648193,0.89,0.05,0.63,1.09
27.193458080291748,1.16,0.02,0.57,1.29
27.194320917129517,1.49,-0.11,0.6,1.61
27.19459104537964,1.76,-0.27,0.68,1.9
27.19485092163086,1.8,-0.22,1.24,2.19
27.19961404800415,1.66,-0.35,1.7,2.4
27.292365074157715,1.47,-0.4,1.7,2.28
27.2926287651062,1.11,-0.46,1.72,2.09
27.292888879776,0.82,-0.48,1.25,1.57
27.29315185546875,0.73,-0.29,0.63,1.0
27.293410778045654,0.9,0.15,0.13,0.92
27.293673038482666,1.2,0.65,-0.09,1.36
27.29447603225708,1.58,0.54,-0.03,1.67
27.294734954833984,1.73,0.65,1.05,2.12
27.294990062713623,1.54,0.76,2.26,2.83
27.29946279525757,1.2,0.7,2.27,2.66
27.392802953720093,1.0,1.04,1.46,2.05
27.39307403564453,1.52,2.32,0.77,2.87
27.393357753753662,2.31,3.6,0.34,4.29
27.39362907409668,2.93,3.58,0.05,4.62
27.3938889503479,3.41,3.38,0.69,4.85
27.39414882659912,3.71,3.27,2.04,5.34
27.39493179321289,4.04,3.21,2.87,5.9
27.395192861557007,4.33,4.33,3.58,7.09
27.395452976226807,5.05,6.56,4.21,9.28
27.39930486679077,6.64,8.07,3.85,11.13
27.492164850234985,8.37,8.92,3.67,12.77
27.492427825927734,9.49,10.67,5.52,15.3
27.492719888687134,11.04,11.73,7.53,17.78
27.49297785758972,12.83,10.57,8.22,18.54
27.49323606491089,14.62,8.33,7.72,18.51
27.493502855300903,15.45,7.32,6.53,18.3
27.494309902191162,12.77,7.01,2.25,14.74
27.494590759277344,3.43,8.39,-5.46,10.58
27.494853019714355,-8.65,14.29,-12.86,21.08
27.499176025390625,-15.75,20.1,-12.63,28.48
27.592444896697998,-10.28,14.04,-9.4,19.77
27.592744827270508,0.9,7.36,-4.36,8.6
27.593016862869263,-1.04,6.32,0.86,6.46
27.593284845352173,-5.71,2.34,-0.06,6.17
27.593568801879883,-2.27,1.64,-0.35,2.82
27.59383988380432,4.02,2.12,1.03,4.66
27.594660758972168,9.15,1.0,1.2,9.28
27.594929933547974,11.79,-0.18,1.73,11.91
27.595207929611206,12.42,-1.62,2.44,12.76
27.599050045013428,11.8,-3.26,2.79,12.55
27.69357681274414,10.26,-4.48,3.24,11.65
27.69385004043579,8.24,-5.23,3.84,10.48
27.69411587715149,6.04,-5.44,4.68,9.37
27.694375038146973,4.04,-5.13,5.51,8.54
27.69463586807251,2.64,-4.8,5.31,7.62
27.694897890090942,1.71,-4.63,3.77,6.21
27.695674896240234,0.93,-4.57,2.34,5.21
27.695937871932983,0.54,-4.68,1.41,4.91
27.696199893951416,0.85,-4.57,1.1,4.77
27.69892692565918,1.96,-4.7,1.01,5.19
27.790602922439575,3.03,-5.04,1.0,5.96
27.79175090789795,3.62,-5.53,1.03,6.68
27.792353868484497,3.72,-5.87,0.91,7.0
27.792616844177246,3.14,-6.07,0.74,6.87
27.792880058288574,1.78,-5.94,0.66,6.23
27.79315495491028,0.44,-5.6,0.66,5.65
27.793941974639893,-0.69,-5.19,0.56,5.26
27.79420280456543,-1.94,-4.63,0.13,5.02
27.794460773468018,-3.62,-3.85,-1.38,5.46
27.798758029937744,-6.12,-2.6,-3.93,7.72
27.80828285217285,-8.93,-0.39,-6.3,10.93
27.892101764678955,-11.0,2.58,-7.79,13.72
27.8923659324646,-12.25,5.28,-8.79,15.97
27.892626762390137,-13.14,6.18,-10.12,17.69
27.89288592338562,-13.45,5.53,-11.03,18.25
27.89314293861389,-12.74,4.73,-9.4,16.52
27.89394187927246,-12.32,3.93,-7.74,15.07
27.89419984817505,-13.08,3.26,-7.96,15.65
27.89446496963501,-13.98,2.76,-8.2,16.44
27.898637771606445,-13.96,5.45,-6.53,16.34
27.90806007385254,-9.83,6.27,-8.66,14.52
27.991365909576416,-10.49,-4.57,-16.35,19.95
27.99164390563965,-13.82,0.29,-2.25,14.0
27.99191188812256,2.08,11.76,8.79,14.82
27.992410898208618,16.3,14.62,12.95,25.43
27.992671966552734,14.53,11.16,11.4,21.57
27.993509769439697,6.5,2.29,0.34,6.89
27.99376893043518,-1.02,-0.85,-6.04,6.18
27.994025945663452,-7.76,0.84,-4.18,8.85
27.998472929000854,-9.5,-2.5,-5.83,11.42
28.00795078277588,-10.62,-2.82,-6.09,12.56
28.09384298324585,-10.56,0.08,-2.74,10.9
28.094110012054443,-9.12,2.32,-0.87,9.45
28.094372749328613,-6.07,1.34,-2.15,6.57
28.094637870788574,-2.15,-0.35,-3.23,3.89
28.09489893913269,1.11,0.04,-2.89,3.09
28.09566879272461,3.3,1.46,-1.94,4.09
28.09592580795288,4.02,2.28,-1.42,4.83
28.096181869506836,2.27,1.57,-1.65,3.21
28.09834384918213,-0.97,0.33,-1.74,2.01
28.107810974121094,-2.87,-0.12,-0.73,2.96
28.193949937820435,-3.02,-0.64,0.66,3.15
28.194244861602783,-1.75,-1.14,1.56,2.6
28.194536924362183,0.07,-1.04,1.87,2.14
28.194804906845093,1.27,-0.51,1.31,1.89
28.19507074356079,1.43,-0.01,0.0,1.43
28.195851802825928,0.74,0.48,-1.22,1.5
28.19611406326294,-0.35,0.63,-1.47,1.63
28.196379899978638,-0.99,0.29,-0.97,1.41
28.198318004608154,-0.78,-0.09,-0.31,0.84
28.207592964172363,-0.29,-0.17,0.34,0.47
28.29261589050293,0.0,-0.02,0.91,0.91
28.292882919311523,0.25,-0.1,0.8,0.84
28.293142795562744,0.49,-0.08,0.35,0.6
28.293399810791016,0.67,0.13,0.14,0.69
28.29365587234497,0.77,0.23,0.11,0.81
28.294395923614502,0.89,0.07,0.22,0.91
28.294657945632935,1.01,-0.11,0.42,1.09
28.2949378490448,1.07,-0.15,0.71,1.29
28.298080921173096,1.02,-0.1,1.12,1.51
28.307490825653076,1.06,-0.22,1.21,1.62
28.392810821533203,1.32,-0.32,1.0,1.68
28.39307188987732,1.52,-0.21,0.88,1.76
28.39334988594055,1.57,-0.07,0.78,1.75
28.393605947494507,1.61,0.1,0.77,1.78
28.393860816955566,1.74,0.28,0.62,1.86
28.394639015197754,1.73,0.43,0.49,1.84
28.394896984100342,1.61,0.45,0.53,1.75
28.39515495300293,1.38,0.54,1.06,1.82
28.39794087409973,1.25,0.73,1.7,2.23
28.407340049743652,1.25,0.83,1.87,2.39
28.492921829223633,2.08,1.51,1.38,2.91
28.49319076538086,3.64,2.89,0.52,4.67
28.49347186088562,4.26,3.71,-0.1,5.64
28.493727922439575,3.55,4.47,0.78,5.76
28.49398183822632,3.46,4.2,1.58,5.66
28.494749069213867,3.66,4.22,2.73,6.21
28.495004892349243,4.25,5.73,4.12,8.23
28.495272874832153,5.73,7.8,4.67,10.74
28.497740745544434,8.13,8.37,3.47,12.17
28.507192850112915,9.39,9.32,3.4,13.65
28.59231185913086,9.77,10.62,4.93,15.24
28.59280490875244,10.71,10.82,6.35,16.49
28.593070030212402,12.57,9.61,7.09,17.33
28.593329906463623,14.02,7.2,7.36,17.39
28.59358787536621,15.09,6.01,7.18,17.75
28.59437394142151,15.05,6.5,3.55,16.77
28.594632863998413,9.39,7.79,-2.65,12.48
28.594907760620117,-1.93,12.04,-11.64,16.85
28.597559928894043,-11.82,18.01,-17.94,28.03
28.607056856155396,-12.2,17.05,-14.09,25.26
28.69193196296692,-2.48,9.55,-5.53,11.31
28.692193031311035,-1.09,7.58,2.68,8.11
28.692453861236572,-5.33,2.76,1.89,6.29
28.69309377670288,-3.13,0.48,0.25,3.17
28.693352937698364,2.85,1.29,1.24,3.36
28.69414186477661,8.21,0.92,0.87,8.3
28.694400787353516,10.66,0.28,1.0,10.71
28.694658756256104,10.99,-0.61,1.85,11.16
28.697458744049072,10.26,-2.01,2.48,10.74
28.7069149017334,8.58,-3.42,2.54,9.57
28.79423475265503,6.32,-4.32,2.86,8.17
28.794517993927002,4.14,-4.81,3.75,7.37
28.79478883743286,2.46,-5.04,4.85,7.41
28.79507303237915,1.19,-5.26,5.53,7.72
28.79533290863037,0.55,-5.58,5.1,7.57
28.796135902404785,0.29,-5.93,3.91,7.1
28.796417951583862,0.05,-6.0,3.23,6.81
28.79683494567871,0.53,-5.99,2.85,6.65
28.79763698577881,1.74,-5.83,2.41,6.54
28.80689287185669,2.86,-5.67,1.86,6.61
28.89301896095276,3.06,-5.66,1.24,6.55
28.893281936645508,2.7,-5.87,0.61,6.48
28.893540859222412,1.91,-6.09,0.2,6.38
28.893810749053955,0.57,-6.42,-0.16,6.44
28.89406991004944,-0.93,-6.76,-0.24,6.82
28.89483094215393,-1.88,-7.01,0.11,7.25
28.89508891105652,-2.09,-7.28,0.34,7.58
28.89534592628479,-1.91,-6.92,0.25,7.18
28.897130966186523,-2.48,-5.45,-0.56,6.01
28.90684700012207,-4.58,-3.93,-2.71,6.61
28.994313955307007,-7.44,-2.13,-5.21,9.32
28.994590759277344,-9.73,0.36,-7.24,12.13
28.99485993385315,-11.39,2.76,-8.56,14.51
28.99514102935791,-12.62,3.91,-9.24,16.12
28.995399951934814,-13.13,3.3,-9.37,16.46
28.996407985687256,-12.68,2.28,-8.27,15.3
28.996667861938477,-12.2,2.08,-6.92,14.17
28.99692678451538,-12.98,2.51,-6.65,14.79
28.997731924057007,-14.57,2.86,-7.57,16.66
29.006414890289307,-16.19,2.66,-8.72,18.58
29.096570014953613,-17.12,1.75,-8.75,19.3
29.09687376022339,-16.55,2.82,-5.14,17.55
29.097168922424316,-14.79,8.86,1.33,17.29
29.097431898117065,-7.7,-2.98,-5.74,10.05
29.09768795967102,4.62,0.96,1.96,5.1
29.098469734191895,17.07,11.69,11.49,23.66
29.098731994628906,19.93,16.76,16.04,30.58
29.098989963531494,20.27,10.77,5.64,23.63
29.099799871444702,16.24,3.62,-3.18,16.93
29.106351852416992,6.1,2.53,-2.66,7.11
29.19376802444458,-2.26,0.8,-3.5,4.24
29.194039821624756,-7.02,-4.5,-9.47,12.61
29.194302082061768,-11.88,-5.37,-11.59,17.44
29.194541931152344,-11.88,-1.45,-6.61,13.67
29.194807052612305,-10.68,3.61,-0.37,11.27
29.195639848709106,-15.03,4.04,1.83,15.67
29.196061849594116,-14.31,-0.22,0.38,14.31
29.1963210105896,-5.75,-1.34,-0.94,5.97
29.19710874557495,0.03,-0.28,-0.77,0.81
29.206339836120605,2.85,0.38,-0.55,2.92
29.297003746032715,4.67,1.0,-0.58,4.81
29.297289848327637,5.42,1.03,-0.78,5.57
29.297566890716553,3.77,0.59,-0.76,3.89
29.297832012176514,0.04,0.25,-0.19,0.31
29.298099040985107,-2.39,-0.37,0.06,2.41
29.29888892173767,-2.95,-1.01,0.05,3.11
29.29915475845337,-1.9,-0.99,0.06,2.14
29.299421787261963,0.21,-0.22,0.21,0.36
29.30024290084839,1.64,0.13,-0.2,1.65
29.306082725524902,1.79,0.22,-0.54,1.88
29.3957257270813,0.99,0.15,-0.46,1.1
29.396025896072388,0.04,0.01,-0.37,0.37
29.396301746368408,-0.34,-0.06,-0.2,0.39
29.39656090736389,-0.21,-0.04,0.09,0.23
29.396827936172485,0.05,0.01,0.51,0.51
29.397616863250732,0.21,-0.02,0.86,0.88
29.397886753082275,0.16,-0.01,1.05,1.06
29.39814281463623,0.04,-0.1,0.92,0.92
29.398951053619385,0.1,-0.22,0.6,0.64
29.40596580505371,0.5,-0.25,0.34,0.65
29.49517583847046,1.14,-0.3,0.34,1.22
29.49563503265381,1.77,-0.41,0.66,1.93
29.4959077835083,2.22,-0.53,1.32,2.63
29.49616575241089,2.58,-0.71,1.87,3.26
29.496421813964844,2.89,-0.84,2.1,3.66
29.49718475341797,3.06,-0.6,2.15,3.78
29.497443914413452,3.09,-0.37,1.73,3.56
29.497705936431885,2.89,-0.33,0.99,3.07
29.49851703643799,2.57,-0.09,0.53,2.62
29.505780935287476,2.15,0.24,0.44,2.2
29.59714388847351,1.63,0.45,0.58,1.78
29.597403049468994,1.25,0.45,0.69,1.49
29.597672939300537,1.12,0.47,0.59,1.35
29.597943782806396,1.08,0.71,0.39,1.35
29.59822702407837,1.24,1.39,0.16,1.86
29.5989990234375,1.55,2.46,-0.08,2.9
29.59925603866577,2.16,3.8,-0.23,4.37
29.599513053894043,3.13,5.26,0.13,6.12
29.60031294822693,3.19,6.35,1.68,7.3
29.605559825897217,3.78,7.45,3.58,9.08
29.6971697807312,5.55,7.87,4.5,10.62
29.697447776794434,7.41,7.88,5.01,11.92
29.697712898254395,8.4,9.43,6.54,14.22
29.69798493385315,9.86,10.9,7.26,16.39
29.69825291633606,11.95,12.34,7.54,18.75
29.699039936065674,13.94,12.05,6.92,19.68
29.699305057525635,15.06,9.83,5.75,18.88
29.699565887451172,15.47,7.27,4.73,17.73
29.700366020202637,15.06,6.18,2.51,16.47
29.70555090904236,9.26,7.97,-0.73,12.23
29.79391098022461,-1.81,12.36,-6.93,14.28
29.794184923171997,-12.72,16.43,-12.48,24.23
29.794469833374023,-14.93,14.7,-13.29,24.81
29.794737815856934,-4.48,8.64,-7.13,12.06
29.795159816741943,-1.79,6.97,-0.04,7.19
29.79593276977539,-5.54,2.87,0.45,6.25
29.796226024627686,-2.19,1.33,0.19,2.56
29.796510934829712,4.19,1.55,1.52,4.71
29.797297954559326,9.33,0.19,1.23,9.41
29.80539608001709,11.86,-1.32,0.98,11.97
29.893869876861572,12.19,-2.49,1.86,12.57
29.894131898880005,11.36,-3.64,2.9,12.27
29.89439582824707,9.88,-4.7,3.54,11.49
29.894652843475342,7.87,-5.24,4.11,10.3
29.895081996917725,5.65,-5.38,4.77,9.14
29.895885944366455,3.64,-5.39,5.11,8.27
29.89616298675537,2.26,-5.37,4.59,7.41
29.896422863006592,1.42,-5.45,3.33,6.54
29.89720582962036,0.88,-5.63,2.35,6.16
29.90518093109131,0.64,-5.83,1.92,6.17
29.99404788017273,0.95,-5.96,1.54,6.22
29.99431586265564,1.84,-5.99,1.42,6.42
29.99461793899536,2.46,-5.98,1.45,6.62
29.995060920715332,2.43,-6.09,1.47,6.71
29.995316982269287,2.13,-6.27,1.56,6.8
29.996131896972656,1.55,-6.42,1.48,6.76
29.99641704559326,0.39,-6.51,1.16,6.62
29.9966778755188,-0.93,-6.33,0.94,6.46
29.997519969940186,-1.98,-5.8,0.89,6.19
30.00518798828125,-2.74,-5.07,0.54,5.78
30.09611701965332,-3.74,-4.15,-0.47,5.6
30.096399784088135,-5.1,-3.02,-2.54,6.44
30.09666395187378,-7.14,-1.14,-4.69,8.61
30.09692907333374,-9.6,1.37,-6.7,11.78
30.09719181060791,-12.12,3.73,-8.65,15.35
