time,ax,ay,az,atotal
0.00401616096496582,0.17,0.06,-0.17,0.24
0.0055370330810546875,0.16,0.02,-0.24,0.28
0.015363216400146484,0.19,0.12,-0.23,0.32
0.0253143310546875,0.31,-0.08,-0.31,0.44
0.0352330207824707,-0.01,0.05,-0.1,0.11
0.04491615295410156,-0.11,0.04,0.03,0.12
0.055074214935302734,-0.02,-0.01,0.11,0.11
0.06547307968139648,-0.1,0.0,0.12,0.15
0.07739734649658203,-0.12,0.03,0.13,0.17
0.10305213928222656,-0.03,0.01,0.16,0.16
0.10493922233581543,0.02,-0.02,0.16,0.16
0.10608434677124023,0.0,-0.02,0.1,0.1
0.12436628341674805,0.07,0.0,0.09,0.11
0.12579011917114258,0.17,-0.02,0.09,0.19
0.1407790184020996,0.11,-0.03,0.07,0.13
0.14411616325378418,0.01,-0.02,0.09,0.09
0.15863800048828125,0.02,-0.02,0.08,0.08
0.16412019729614258,-0.01,-0.01,0.03,0.03
0.17630624771118164,0.01,0.0,0.02,0.02
0.20667409896850586,0.02,0.02,0.05,0.05
0.20869922637939453,0.01,0.02,0.06,0.06
0.21003317832946777,0.1,0.02,0.11,0.15
0.22396421432495117,0.17,0.02,0.13,0.21
0.22531604766845703,0.14,0.01,0.1,0.17
0.24040603637695312,0.08,0.01,0.1,0.12
0.24330711364746094,0.06,0.02,0.15,0.16
0.26133108139038086,0.09,0.01,0.07,0.11
0.263247013092041,0.16,0.0,-0.02,0.16
0.2736520767211914,0.23,-0.01,-0.01,0.23
0.30623722076416016,0.26,0.01,0.05,0.26
0.30810117721557617,0.21,0.02,0.12,0.24
0.3094761371612549,0.16,0.0,0.16,0.22
0.3248112201690674,0.17,-0.05,0.16,0.23
0.32622432708740234,0.14,-0.06,0.12,0.19
0.3406391143798828,0.1,-0.04,0.08,0.13
0.3426332473754883,0.12,-0.03,0.09,0.15
0.35738515853881836,0.19,-0.02,0.11,0.22
0.3624911308288574,0.19,-0.01,0.1,0.21
0.37288808822631836,0.14,0.03,0.05,0.15
0.40460634231567383,0.01,-0.01,-0.02,0.02
0.4063911437988281,-0.16,0.02,-0.07,0.17
0.4077582359313965,-0.2,0.02,-0.14,0.24
0.42467617988586426,-0.05,-0.04,0.01,0.06
0.4260902404785156,0.19,-0.07,0.14,0.24
0.4406912326812744,0.26,-0.03,0.13,0.29
0.4421532154083252,0.16,0.0,0.08,0.17
0.45783233642578125,0.0,0.02,0.04,0.04
0.46228504180908203,-0.15,0.08,0.04,0.17
0.4759082794189453,-0.22,0.05,0.05,0.23
0.48499202728271484,-0.16,0.04,0.13,0.21
0.5063362121582031,-0.03,0.01,0.19,0.19
0.5079841613769531,0.01,0.0,0.17,0.17
0.5114021301269531,0.07,0.03,0.07,0.1
0.5253362655639648,0.18,0.03,-0.03,0.18
0.5312600135803223,0.19,0.01,-0.18,0.26
0.5411701202392578,0.13,0.04,-0.24,0.27
0.5510783195495605,0.06,0.07,-0.26,0.27
0.5612730979919434,-0.04,0.05,-0.11,0.12
0.5742261409759521,-0.08,0.03,0.07,0.11
0.5837152004241943,-0.05,0.02,0.16,0.16
0.6054363250732422,0.01,-0.01,0.2,0.2
0.6070222854614258,0.08,-0.03,0.2,0.21
0.6106581687927246,0.07,-0.02,0.21,0.22
0.6252202987670898,0.06,-0.02,0.17,0.18
0.6305351257324219,0.12,0.01,0.06,0.13
0.6405000686645508,0.14,0.02,-0.04,0.14
0.6504321098327637,0.06,-0.02,-0.07,0.09
0.6604681015014648,0.05,-0.02,-0.02,0.05
0.6732091903686523,0.13,-0.02,0.11,0.17
0.6823410987854004,0.2,-0.02,0.21,0.29
0.7058582305908203,0.19,0.0,0.21,0.28
0.7073931694030762,0.04,0.02,0.15,0.15
0.7098512649536133,-0.1,0.0,0.12,0.15
0.7251172065734863,-0.05,-0.01,0.1,0.11
0.7297911643981934,0.06,-0.04,0.05,0.08
0.739739179611206,0.2,-0.03,0.06,0.21
0.7497692108154297,0.47,-0.05,0.13,0.49
0.7595751285552979,0.66,-0.06,0.16,0.68
0.7702162265777588,0.55,0.03,0.11,0.56
0.7820572853088379,0.23,0.09,0.07,0.25
0.8030142784118652,-0.07,0.12,0.04,0.14
0.8046660423278809,-0.24,0.13,0.0,0.27
0.8091282844543457,-0.25,0.16,0.0,0.29
0.8253540992736816,-0.19,0.11,-0.01,0.21
0.8290741443634033,-0.33,0.13,-0.15,0.38
0.8405711650848389,-0.53,0.11,-0.21,0.58
0.8489990234375,-0.61,0.09,-0.13,0.63
0.8592510223388672,-0.53,-0.01,-0.25,0.58
0.8714380264282227,-0.13,0.09,-0.25,0.29
0.8813080787658691,0.19,0.12,-0.18,0.28
0.9126081466674805,0.27,0.06,-0.1,0.29
0.914154052734375,0.06,-0.04,-0.15,0.16
0.9158463478088379,-0.03,-0.11,-0.21,0.23
0.9224741458892822,0.23,-0.03,-0.06,0.23
0.9282681941986084,0.37,-0.06,0.07,0.38
0.9409523010253906,0.24,-0.03,0.1,0.26
0.9483380317687988,0.15,0.09,0.13,0.21
0.9580252170562744,0.2,0.06,0.05,0.21
0.9685392379760742,0.28,-0.05,-0.18,0.33
0.9803881645202637,0.31,-0.07,-0.32,0.45
1.0105271339416504,0.19,-0.06,-0.33,0.38
1.012263298034668,0.2,0.03,-0.11,0.23
1.0137271881103516,0.32,0.01,0.12,0.34
1.0241103172302246,0.29,-0.05,0.21,0.36
1.0276272296905518,0.14,-0.03,0.23,0.27
1.0409331321716309,-0.03,0.01,0.32,0.32
1.0471892356872559,-0.06,-0.01,0.34,0.34
1.0576391220092773,-0.02,-0.06,0.18,0.19
1.0674872398376465,-0.01,0.03,0.08,0.08
1.08013916015625,-0.07,0.06,0.03,0.09
1.1045470237731934,-0.13,0.01,-0.14,0.19
1.1063003540039062,-0.16,0.03,-0.29,0.33
1.1077632904052734,-0.17,-0.01,-0.42,0.45
1.124920129776001,-0.11,0.04,-0.41,0.42
1.1266422271728516,0.06,0.11,-0.26,0.28
1.1409950256347656,0.14,0.05,-0.14,0.2
1.1467812061309814,0.1,0.06,-0.14,0.18
1.1575040817260742,-0.14,0.13,-0.15,0.24
1.1670432090759277,-0.32,0.09,-0.11,0.35
1.178584098815918,-0.31,-0.03,-0.15,0.34
1.210057258605957,-0.16,-0.04,-0.26,0.3
1.211832046508789,0.09,0.08,-0.21,0.24
1.213287353515625,0.27,0.06,-0.12,0.3
1.2244951725006104,0.23,-0.01,-0.16,0.28
1.2260103225708008,0.07,-0.1,-0.14,0.18
1.2423062324523926,-0.02,-0.05,-0.08,0.09
1.2459301948547363,0.03,0.01,0.04,0.05
1.2578520774841309,0.19,0.0,0.15,0.24
1.2659492492675781,0.35,-0.03,0.14,0.37
1.2782471179962158,0.39,-0.03,0.0,0.39
1.2862563133239746,0.32,0.04,-0.04,0.32
1.3104372024536133,0.18,0.01,-0.04,0.18
1.3119502067565918,0.04,-0.03,-0.04,0.06
1.3152222633361816,-0.01,-0.05,-0.02,0.05
1.3259332180023193,0.03,0.03,-0.07,0.08
1.335341215133667,0.13,0.1,-0.09,0.18
1.3451042175292969,0.19,0.1,-0.06,0.22
1.3554062843322754,0.17,0.08,-0.12,0.22
1.3655400276184082,0.01,0.02,-0.36,0.36
1.3777031898498535,-0.37,0.01,-0.58,0.68
1.3878891468048096,-0.57,0.08,-0.47,0.74
1.4105463027954102,-0.09,0.17,-0.21,0.28
1.4121861457824707,0.43,0.12,-0.31,0.54
1.4145030975341797,0.36,0.12,-0.34,0.5
1.4258050918579102,0.01,0.12,-0.49,0.5
1.4345803260803223,-0.31,0.08,-0.8,0.86
1.4443793296813965,-0.45,0.26,-0.67,0.84
1.4545621871948242,-0.07,0.25,-0.74,0.78
1.4644381999969482,0.53,0.29,-0.59,0.84
1.4747581481933594,0.76,0.37,-0.29,0.89
1.487781047821045,0.62,0.28,-0.43,0.8
1.512814998626709,0.82,-0.06,-0.84,1.17
1.5144500732421875,1.84,-0.96,-1.95,2.84
1.5162091255187988,2.72,-1.65,-3.99,5.1
1.5245752334594727,2.93,-0.42,-5.43,6.18
1.5340232849121094,2.15,0.75,-5.37,5.83
1.5436830520629883,0.88,0.08,-4.2,4.29
1.5537691116333008,0.18,-0.73,-2.65,2.75
1.5635242462158203,0.06,-0.82,-1.43,1.64
1.574092149734497,-0.02,-0.7,-0.39,0.8
1.5873632431030273,-0.3,-0.81,0.45,0.97
1.6096930503845215,-0.58,-0.84,1.12,1.51
1.6113011837005615,-0.77,-0.75,1.59,1.91
1.612943172454834,-0.8,-0.63,1.82,2.08
1.6256823539733887,-0.64,-0.76,2.05,2.27
1.6332030296325684,-0.4,-0.99,2.58,2.79
1.6428852081298828,-0.14,-1.22,3.2,3.42
1.6529631614685059,-0.09,-1.24,3.7,3.9
1.662987232208252,-0.39,-1.17,3.99,4.17
1.672861099243164,-0.87,-0.78,4.18,4.34
1.6832280158996582,-1.37,-0.35,4.26,4.48
1.7189650535583496,-1.88,-0.07,4.22,4.62
1.7208232879638672,-2.44,0.99,4.13,4.89
1.7223782539367676,-3.93,4.76,3.2,6.95
1.741786003112793,-4.85,3.86,-0.01,6.19
1.7433032989501953,-5.13,2.43,-3.54,6.68
1.7580080032348633,-3.91,1.46,-5.38,6.8
1.7594702243804932,-1.36,0.99,-3.52,3.9
1.777771234512329,0.76,0.24,-0.33,0.86
1.779989242553711,1.68,-0.66,0.73,1.94
1.7882952690124512,1.43,-0.97,0.09,1.73
1.8144502639770508,0.73,-0.82,-0.34,1.14
1.8162503242492676,0.63,-0.55,-0.14,0.84
1.8173680305480957,0.97,-0.31,0.29,1.05
1.8214871883392334,0.68,-0.09,0.42,0.8
1.8316140174865723,-0.34,0.09,0.59,0.68
1.841567039489746,-1.14,0.12,1.35,1.77
1.8513703346252441,-0.97,0.11,2.08,2.29
1.861515998840332,-0.42,0.01,2.06,2.1
1.8713691234588623,-0.25,-0.09,1.33,1.35
1.881343126296997,-0.33,0.0,0.18,0.37
1.9144551753997803,-0.52,0.24,-0.93,1.09
1.916295051574707,-0.57,0.32,-1.49,1.62
1.9177112579345703,-0.6,0.3,-1.46,1.6
1.921213150024414,-0.52,0.24,-0.87,1.04
1.9309053421020508,-0.15,0.15,-0.46,0.5
1.9416370391845703,0.02,0.12,-0.84,0.84
1.9507582187652588,0.38,0.08,-0.82,0.9
1.9605622291564941,1.03,-0.09,-0.02,1.03
1.9706761837005615,1.15,-0.11,0.76,1.38
1.980713129043579,0.46,-0.01,1.19,1.27
2.0207271575927734,0.02,-0.01,0.67,0.67
2.0224812030792236,0.36,0.01,0.15,0.39
2.023944139480591,1.03,-0.11,0.03,1.03
2.041856288909912,1.06,-0.12,-0.2,1.08
2.043339252471924,0.47,0.08,-0.23,0.52
2.058145046234131,0.02,0.17,-0.14,0.22
2.0595412254333496,0.0,0.12,-0.16,0.2
2.0748941898345947,0.07,0.08,-0.39,0.4
2.0763862133026123,0.01,-0.04,-0.57,0.57
2.09417724609375,-0.19,0.04,-0.36,0.4
2.0966763496398926,-0.28,0.13,-0.16,0.34
2.1302812099456787,-0.3,0.14,-0.14,0.35
2.1319212913513184,-0.35,0.18,-0.3,0.49
2.1336541175842285,-0.11,0.09,-0.38,0.4
2.1398072242736816,0.36,-0.07,-0.29,0.46
2.1413192749023438,0.38,-0.15,-0.23,0.46
2.1561272144317627,0.27,-0.17,-0.08,0.32
2.1584601402282715,0.1,-0.1,0.15,0.2
2.1705503463745117,0.04,0.0,0.35,0.35
2.178713321685791,0.1,0.03,0.63,0.63
2.188730239868164,0.28,-0.03,0.69,0.74
2.214125156402588,0.51,-0.1,0.31,0.6
2.216001033782959,0.77,-0.05,-0.23,0.8
2.218630313873291,0.77,0.04,-0.32,0.83
2.2285361289978027,0.37,0.1,-0.22,0.44
2.2386550903320312,0.0,0.1,-0.24,0.26
2.2485601902008057,-0.38,0.19,-0.33,0.53
2.2586581707000732,-0.68,0.38,-0.46,0.9
2.2682621479034424,-0.89,0.6,-0.32,1.12
2.2782671451568604,-0.99,0.86,-0.51,1.4
2.2911930084228516,-1.09,1.07,-1.09,1.87
2.3160243034362793,-1.24,1.0,-1.75,2.36
2.3177261352539062,-1.52,0.75,-2.14,2.72
2.3191912174224854,-1.76,0.67,-2.38,3.03
2.3274941444396973,-1.79,0.99,-2.34,3.1
2.34159517288208,-1.72,1.25,-1.83,2.8
2.3476932048797607,-1.67,1.42,-1.75,2.8
2.357570171356201,-1.9,1.55,-2.15,3.26
2.367631196975708,-2.26,1.94,-2.65,3.98
2.377312183380127,-2.75,2.58,-2.68,4.62
2.387517213821411,-3.24,3.91,-2.03,5.46
2.4157299995422363,-3.51,4.51,-2.29,6.15
2.4174532890319824,-3.78,4.57,-1.78,6.19
2.418647289276123,-4.04,4.27,-1.72,6.12
2.4269142150878906,-4.28,4.19,-2.28,6.4
2.4416890144348145,-4.3,4.62,-2.61,6.82
2.4470601081848145,-4.37,4.82,-2.81,7.08
2.458775043487549,-4.68,5.11,-3.05,7.57
2.466832160949707,-4.89,5.26,-3.39,7.94
2.4766361713409424,-4.99,5.38,-3.67,8.2
2.4867262840270996,-4.95,4.99,-3.48,7.84
2.5220561027526855,-4.92,4.47,-4.47,8.01
2.523691177368164,-4.89,4.4,-5.71,8.71
2.525236129760742,-3.93,4.05,-5.28,7.72
2.5426793098449707,-1.7,2.92,-3.84,5.11
2.5441691875457764,2.31,4.02,-2.54,5.28
2.5581750869750977,6.59,6.86,-1.86,9.69
2.5597152709960938,5.59,6.19,-3.29,8.96
2.575104236602783,0.96,3.11,-5.48,6.37
2.5766072273254395,-2.87,0.28,-6.2,6.83
2.590405225753784,-6.17,-2.6,-5.75,8.82
2.6209821701049805,-4.88,-4.26,-3.33,7.28
2.622746229171753,-2.49,-4.62,-2.13,5.66
2.624117136001587,-6.24,-3.65,-3.13,7.87
2.6420750617980957,-9.21,-2.9,-4.15,10.5
2.6435012817382812,-9.24,-3.37,-3.67,10.49
2.658539295196533,-7.82,-4.46,-2.62,9.37
2.6600542068481445,-6.35,-5.24,-2.11,8.49
2.674777030944824,-5.48,-5.35,-2.15,7.95
2.6762542724609375,-5.33,-4.91,-2.23,7.58
2.6910641193389893,-5.45,-4.43,-2.21,7.36
2.7205991744995117,-5.57,-4.06,-2.04,7.18
2.7219290733337402,-5.54,-3.73,-1.59,6.86
2.7229442596435547,-5.42,-3.3,-0.72,6.38
2.742319107055664,-5.33,-2.67,0.18,5.96
2.7438502311706543,-5.22,-2.18,0.58,5.68
2.7582640647888184,-4.98,-1.54,0.17,5.21
2.759758234024048,-4.21,-0.87,-0.81,4.37
2.7751240730285645,-3.02,0.03,-1.01,3.18
2.776599168777466,-1.53,0.87,-0.23,1.77
2.793861150741577,-0.2,1.23,0.5,1.34
2.8187692165374756,0.52,1.37,0.67,1.61
2.820225238800049,0.46,1.72,0.5,1.84
2.821270227432251,0.16,2.5,0.2,2.51
2.842642307281494,0.61,3.23,0.04,3.28
2.8441200256347656,1.74,3.65,0.06,4.04
2.858619213104248,3.19,3.68,0.15,4.87
2.860112190246582,4.48,3.35,0.17,5.59
2.875249147415161,5.36,3.26,-0.05,6.27
2.876735210418701,6.39,3.67,-0.32,7.37
2.894914150238037,7.69,4.3,-0.19,8.81
2.896782159805298,8.88,4.9,0.0,10.14
2.9286141395568848,9.68,5.31,0.09,11.04
2.929849147796631,9.83,5.19,0.38,11.12
2.93109130859375,9.39,4.65,1.08,10.53
2.9437332153320312,8.85,3.93,2.01,9.88
2.945218086242676,8.4,3.12,3.23,9.52
2.9586591720581055,7.42,3.81,4.35,9.4
2.962893009185791,6.95,5.5,5.19,10.27
2.975410223007202,8.23,4.69,5.85,11.13
2.9830901622772217,9.2,4.39,6.26,11.96
2.9927921295166016,9.53,4.1,5.65,11.81
3.0221872329711914,9.06,3.9,4.48,10.83
3.0235071182250977,7.68,3.69,3.36,9.15
3.024524211883545,2.96,2.35,1.39,4.02
3.0424392223358154,-5.94,1.58,-1.61,6.35
3.043924331665039,-11.15,3.3,-2.35,11.86
3.0586180686950684,-5.63,3.57,0.78,6.71
3.0623562335968018,0.42,0.11,2.37,2.4
3.0753660202026367,3.0,-3.12,2.47,4.98
3.082097053527832,4.76,-3.47,1.61,6.1
3.0919370651245117,6.03,-0.23,0.25,6.03
3.12209415435791,4.6,4.18,-0.36,6.22
3.123904228210449,4.2,6.83,0.72,8.05
3.1252522468566895,5.78,3.37,1.54,6.86
3.1424293518066406,5.4,0.88,2.68,6.09
3.143890142440796,4.46,-0.57,3.91,5.95
3.158602237701416,3.07,-1.55,2.93,4.51
3.1613950729370117,2.41,-1.03,1.71,3.12
3.173727035522461,1.83,-0.49,1.32,2.3
3.1814491748809814,1.41,-0.18,0.91,1.68
3.1911540031433105,0.86,-0.11,0.71,1.12
3.224301338195801,0.51,0.04,0.86,1.0
3.226177215576172,0.23,0.14,0.94,0.97
3.227229118347168,-0.02,-0.1,0.49,0.5
3.243016242980957,-0.16,-0.28,-0.39,0.5
3.244394302368164,-0.05,-0.14,-1.07,1.08
3.2585761547088623,0.12,0.11,-1.2,1.21
3.260676145553589,0.13,0.19,-1.09,1.11
3.275451183319092,0.03,0.34,-0.9,0.96
3.2807493209838867,-0.31,0.19,-0.54,0.65
3.292579174041748,-0.16,0.06,0.27,0.31
3.3306381702423096,0.41,0.06,0.89,0.98
3.331961154937744,0.26,-0.1,0.72,0.77
3.3330061435699463,-0.18,-0.06,0.34,0.38
3.3415682315826416,-0.17,0.04,-0.04,0.17
3.342593193054199,0.14,0.04,-0.54,0.55
3.358762264251709,0.48,0.08,-0.9,1.02
3.360208034515381,0.51,0.07,-1.15,1.25
3.3755431175231934,0.23,0.06,-1.21,1.23
3.3798532485961914,0.17,0.0,-0.65,0.67
3.3925881385803223,0.19,-0.14,0.06,0.24
3.4245200157165527,0.0,-0.21,0.32,0.38
3.4261832237243652,-0.08,-0.14,0.26,0.3
3.427178144454956,-0.15,0.03,0.02,0.15
3.4461450576782227,-0.21,0.19,-0.28,0.39
3.4476470947265625,-0.18,0.13,-0.6,0.63
3.4574832916259766,0.14,-0.03,-0.48,0.5
3.459083080291748,0.36,-0.32,-0.23,0.53
3.4756131172180176,0.49,-0.3,-0.09,0.58
3.4791722297668457,0.72,-0.01,0.21,0.75
3.48903226852417,0.56,0.1,0.36,0.67
3.5265631675720215,0.23,0.15,0.21,0.34
3.5279130935668945,0.0,0.18,0.02,0.18
3.528907299041748,-0.04,0.16,-0.13,0.21
3.542642116546631,0.01,0.05,-0.31,0.31
3.5441291332244873,-0.02,0.01,-0.49,0.49
3.558868169784546,-0.1,0.03,-0.5,0.51
3.5603342056274414,-0.19,0.02,-0.59,0.62
3.5749330520629883,-0.29,-0.04,-0.69,0.74
3.578376293182373,-0.33,-0.14,-0.67,0.75
3.5905561447143555,-0.35,-0.25,-0.72,0.83
3.6255531311035156,-0.46,-0.33,-0.87,1.03
3.6269302368164062,-0.51,-0.37,-1.09,1.25
3.6279211044311523,-0.44,-0.28,-0.75,0.91
3.6426992416381836,-0.63,0.01,-0.46,0.78
3.643761157989502,-0.56,0.22,-0.04,0.6
3.6588263511657715,-0.44,0.45,0.51,0.81
3.6603281497955322,-0.61,0.76,0.49,1.09
3.675798177719116,-0.82,1.0,0.3,1.32
3.677460193634033,-1.08,0.91,-0.25,1.43
3.6908082962036133,-1.27,0.7,-0.62,1.57
3.697700023651123,-1.2,0.6,-0.87,1.59
3.7355282306671143,-1.19,0.85,-1.49,2.08
3.7367420196533203,-1.29,0.97,-2.31,2.81
3.737762212753296,-1.41,1.14,-2.65,3.21
3.759702205657959,-1.73,1.35,-2.61,3.4
3.761223316192627,-2.12,1.56,-2.52,3.64
3.775560140609741,-2.26,2.18,-2.56,4.05
3.7770771980285645,-2.52,3.96,-2.29,5.22
3.791842222213745,-2.6,5.16,-1.66,6.01
3.7933261394500732,-2.41,4.32,-1.12,5.07
3.811420202255249,-2.88,4.06,-0.76,5.03
3.8395180702209473,-3.73,4.26,-0.82,5.72
3.8408451080322266,-4.34,4.3,-1.24,6.23
3.8418681621551514,-4.87,4.47,-1.89,6.87
3.858985185623169,-4.88,4.33,-2.21,6.88
3.860039234161377,-4.95,4.3,-3.06,7.23
3.875587224960327,-5.25,4.33,-3.98,7.88
3.876997232437134,-5.25,3.98,-4.11,7.76
3.8917312622070312,-4.8,3.21,-4.07,7.06
3.8932080268859863,-3.99,2.25,-4.2,6.21
3.9075381755828857,-2.73,1.68,-3.85,5.0
3.9334421157836914,-1.56,2.06,-3.86,4.64
3.9349451065063477,-1.68,3.27,-4.44,5.76
3.935965061187744,-1.81,4.3,-4.19,6.27
3.9379281997680664,-0.24,6.0,-2.46,6.48
3.958888053894043,2.53,9.07,-1.2,9.49
3.960325241088867,1.26,7.1,-2.36,7.58
3.975644111633301,-2.41,3.77,-4.59,6.41
3.9771223068237305,-5.48,2.27,-5.67,8.2
3.9910173416137695,-7.25,0.75,-5.36,9.04
3.995347023010254,-7.64,-1.75,-4.5,9.03
4.031206130981445,-4.16,-3.87,-3.26,6.55
4.032358169555664,1.37,-1.27,-1.96,2.7
4.033758163452148,-0.93,-1.08,-1.93,2.39
4.040207147598267,-5.15,-1.76,-3.19,6.3
4.044585227966309,-8.07,-1.8,-3.95,9.16
4.058892250061035,-9.22,-1.93,-3.45,10.03
4.064674139022827,-9.07,-2.32,-2.38,9.65
4.074562072753906,-8.18,-3.2,-1.34,8.88
4.084554195404053,-7.09,-4.02,-0.82,8.19
4.094733238220215,-6.26,-4.35,-0.77,7.66
4.129354000091553,-5.53,-4.35,-0.92,7.09
4.131021022796631,-4.89,-4.19,-1.0,6.51
4.132206201553345,-4.43,-3.81,-0.98,5.92
4.14183235168457,-4.19,-3.45,-1.1,5.53
4.1440510749816895,-4.27,-3.06,-1.2,5.38
4.158889293670654,-4.52,-2.58,-1.22,5.34
4.163930177688599,-4.51,-2.03,-1.26,5.1
4.175711154937744,-3.92,-1.64,-1.56,4.52
4.183784008026123,-2.82,-1.42,-1.8,3.63
4.1938252449035645,-1.67,-1.36,-1.87,2.85
4.230759143829346,-0.88,-1.33,-1.62,2.27
4.232348203659058,-0.37,-1.02,-1.12,1.55
4.233382225036621,0.21,-0.45,-0.62,0.79
4.242512226104736,0.72,0.34,-0.21,0.82
4.244032144546509,0.97,1.17,-0.11,1.52
4.2591681480407715,0.88,2.01,0.24,2.2
4.263284206390381,0.71,2.99,1.21,3.3
4.275723218917847,0.59,3.94,2.09,4.49
4.283079147338867,0.75,4.77,2.58,5.47
4.293068170547485,2.06,5.59,2.44,6.43
4.330945014953613,4.82,6.23,1.74,8.06
4.332330226898193,8.1,6.49,0.13,10.38
4.333406209945679,10.93,6.75,-0.97,12.88
4.34309720993042,10.3,12.28,-1.39,16.08
4.344542026519775,12.95,9.41,-3.13,16.31
4.359230041503906,18.67,4.55,-0.95,19.23
4.362505197525024,18.21,3.65,2.84,18.78
4.375852108001709,14.85,3.84,3.87,15.81
4.382662296295166,12.5,4.14,4.45,13.89
4.3921191692352295,11.22,4.05,5.21,13.01
4.4307942390441895,9.99,4.06,5.93,12.3
4.4321513175964355,8.5,4.8,6.75,11.86
4.43316912651062,6.95,5.81,7.49,11.75
4.442796230316162,4.96,4.03,6.07,8.81
4.444271087646484,-1.28,-0.03,1.45,1.93
4.459116220474243,-8.01,-0.41,-2.07,8.28
4.461781024932861,-5.89,1.36,-1.07,6.13
4.475812196731567,0.89,1.18,0.4,1.53
4.481731176376343,4.36,-0.21,0.72,4.42
4.491305351257324,5.37,0.59,0.21,5.4
4.502097129821777,4.83,3.14,0.52,5.78
4.534444332122803,5.32,3.56,0.48,6.41
4.535608291625977,5.54,1.07,-0.53,5.66
4.536839008331299,4.03,1.53,0.85,4.39
4.540775299072266,2.9,0.54,2.83,4.08
4.550783157348633,2.29,-1.37,2.33,3.54
4.561196327209473,2.36,-1.29,1.77,3.21
4.570979118347168,1.85,-0.79,1.77,2.67
4.5809502601623535,1.34,0.05,1.98,2.39
4.590864181518555,0.41,0.21,1.45,1.52
4.60066819190979,-0.34,0.14,0.72,0.8
4.631163120269775,0.0,0.16,1.03,1.04
4.632451057434082,0.58,0.07,1.08,1.22
4.633501052856445,0.95,0.12,-0.05,0.95
4.640346050262451,0.98,0.17,-1.26,1.6
4.650118350982666,1.0,0.05,-2.05,2.28
4.660251140594482,1.28,-0.18,-1.86,2.26
4.670206069946289,1.44,-0.28,-1.2,1.89
4.680103302001953,1.18,-0.18,-0.61,1.34
4.69034218788147,0.45,-0.04,-0.05,0.45
4.699838161468506,-0.38,0.13,0.57,0.69
4.730562210083008,-0.81,0.29,0.69,1.1
4.731898307800293,-0.87,0.51,0.71,1.23
4.7329182624816895,-0.88,0.68,0.25,1.13
4.740896224975586,-0.83,0.46,-0.29,0.99
4.7496092319488525,-0.46,0.09,-0.58,0.74
4.759416103363037,0.03,-0.26,-0.57,0.62
4.769334316253662,0.65,-0.53,-0.43,0.94
4.77931022644043,0.75,-0.58,-0.37,1.01
4.789492130279541,0.4,-0.37,-0.49,0.73
4.799224138259888,0.37,-0.25,-0.31,0.54
4.82986307144165,0.45,-0.2,0.06,0.49
4.831197261810303,0.17,-0.15,0.12,0.25
4.832210063934326,-0.04,-0.06,-0.07,0.1
4.84131121635437,-0.14,-0.1,0.07,0.18
4.848862171173096,-0.05,-0.14,0.36,0.38
4.859263181686401,0.07,-0.21,0.16,0.27
4.868815183639526,0.09,-0.3,-0.24,0.39
4.878528118133545,0.17,-0.32,-0.36,0.51
4.888664245605469,0.45,-0.08,-0.26,0.52
4.901259183883667,0.57,0.13,0.02,0.58
4.934153079986572,0.23,0.15,0.1,0.29
4.935408115386963,-0.1,0.27,0.21,0.35
4.936833143234253,-0.25,0.53,0.49,0.76
4.939045190811157,-0.41,0.78,0.5,1.01
4.947845220565796,-0.4,0.77,0.17,0.88
4.958288192749023,-0.34,0.55,-0.31,0.71
4.968209266662598,-0.39,0.36,-0.9,1.04
4.978039264678955,-0.48,0.27,-1.39,1.49
4.987945079803467,-0.44,0.24,-1.31,1.4
4.997790336608887,-0.53,0.39,-1.15,1.32
5.034747123718262,-0.84,0.38,-1.29,1.58
5.036099195480347,-1.19,0.57,-1.19,1.77
5.037081241607666,-1.5,0.93,-0.82,1.94
5.039367198944092,-1.81,1.3,-0.62,2.31
5.047287225723267,-2.18,1.58,-0.6,2.75
5.057424068450928,-2.4,1.71,-0.75,3.04
5.067515134811401,-2.78,1.84,-1.28,3.57
5.077301025390625,-3.04,2.31,-1.43,4.07
5.0870912075042725,-2.67,2.82,-1.22,4.07
5.097024202346802,-2.54,2.78,-1.17,3.94
5.133512020111084,-2.56,2.96,-1.1,4.06
5.134763240814209,-2.87,3.19,-1.3,4.48
5.135770320892334,-3.28,3.5,-2.07,5.22
5.138497352600098,-3.49,3.64,-2.64,5.69
5.159358024597168,-3.58,3.81,-2.89,5.97
5.160826206207275,-3.86,4.17,-3.14,6.49
5.177264213562012,-4.48,4.8,-3.32,7.35
5.178743124008179,-5.25,5.21,-3.59,8.22
5.19173002243042,-5.67,5.14,-3.82,8.55
5.196171283721924,-5.93,4.74,-4.06,8.6
5.234276294708252,-5.8,4.07,-4.18,8.22
5.235482215881348,-4.96,3.45,-4.34,7.43
5.236711025238037,-3.28,2.57,-4.26,5.95
5.239290237426758,-2.1,2.92,-4.48,5.74
5.2597880363464355,-1.91,4.98,-4.76,7.14
5.2612810134887695,-1.87,7.09,-4.94,8.84
5.276411056518555,-0.51,9.77,-3.31,10.32
5.277899265289307,1.81,10.99,-1.09,11.19
5.2916460037231445,0.62,6.81,-1.57,7.01
5.295323133468628,-2.06,3.97,-3.74,5.83
5.308460235595703,-4.43,2.49,-5.1,7.19
5.336210250854492,-6.14,0.42,-5.16,8.03
5.337652206420898,-6.93,-3.63,-5.2,9.39
5.338666200637817,-2.74,-6.26,-4.23,8.03
5.360215187072754,3.42,-2.36,-1.66,4.47
5.361716270446777,1.09,-1.66,-1.89,2.74
5.376352310180664,-3.96,-2.39,-3.9,6.05
5.3778462409973145,-7.84,-2.72,-4.35,9.36
5.392946243286133,-9.63,-2.95,-3.11,10.54
5.394595146179199,-9.75,-3.06,-1.16,10.28
5.408544063568115,-8.96,-3.64,0.12,9.67
5.43595027923584,-7.91,-4.32,0.39,9.02
5.437905311584473,-7.03,-4.1,0.07,8.13
5.439017295837402,-6.3,-3.34,-0.48,7.14
5.444239139556885,-5.65,-2.82,-0.81,6.36
5.454380035400391,-5.33,-2.67,-0.85,6.02
5.464054107666016,-5.62,-2.7,-0.54,6.25
5.474297046661377,-6.33,-2.6,-0.06,6.84
5.484185218811035,-6.75,-2.46,0.22,7.18
5.494116306304932,-6.28,-2.18,0.53,6.66
5.504035234451294,-5.4,-1.88,0.44,5.73
5.5342772006988525,-4.65,-1.53,-0.09,4.89
5.535428047180176,-4.05,-1.09,-0.74,4.25
5.536683082580566,-3.29,-0.52,-1.23,3.55
5.543301105499268,-2.12,0.28,-1.28,2.49
5.560042142868042,-0.75,0.75,-0.95,1.42
5.5633721351623535,0.12,0.81,-0.49,0.95
5.574034214019775,0.32,0.93,-0.06,0.98
5.583502292633057,0.48,1.57,0.25,1.66
5.593111038208008,1.18,2.68,0.6,2.98
5.603098154067993,2.25,3.69,0.91,4.41
5.6358802318573,3.43,4.15,1.14,5.5
5.637240171432495,4.37,4.36,1.46,6.34
5.6382482051849365,5.25,4.8,1.42,7.25
5.642585277557373,6.53,5.38,0.88,8.5
5.652462005615234,7.82,6.1,-0.12,9.91
5.662944316864014,6.54,13.42,-0.82,14.95
5.672882080078125,10.85,11.93,-2.45,16.31
5.682743072509766,20.17,7.53,1.49,21.58
5.6925482749938965,21.04,2.63,4.29,21.63
5.702409267425537,16.67,3.08,4.02,17.42
5.7425971031188965,14.34,5.27,4.7,15.98
5.743886232376099,14.34,6.11,5.29,16.46
5.744840145111084,14.28,5.93,5.21,16.31
5.760447025299072,14.18,5.77,4.97,16.09
5.761956214904785,12.52,2.85,3.31,13.26
5.7762792110443115,4.26,-1.85,-1.25,4.8
5.777765274047852,-4.6,0.28,-4.2,6.23
5.792781352996826,-7.05,6.22,-0.24,9.4
5.794292211532593,-2.36,6.5,4.01,7.99
5.808667182922363,4.26,1.67,2.85,5.39
5.839816093444824,7.97,-2.84,0.88,8.5
5.841131210327148,7.38,-0.69,1.32,7.52
5.842147350311279,5.11,1.56,2.74,6.0
5.860375165939331,3.1,-0.39,2.16,3.79
5.861847162246704,2.05,-1.76,1.98,3.34
5.8755412101745605,1.67,-1.28,2.32,3.13
5.8770592212677,1.57,-0.08,2.18,2.68
5.892664194107056,1.3,0.32,1.71,2.17
5.894122123718262,1.08,0.03,1.57,1.9
5.9084320068359375,1.06,-0.11,1.43,1.78
5.9393861293792725,0.79,-0.21,0.94,1.24
5.940688133239746,0.35,-0.1,0.8,0.87
5.941803216934204,0.09,0.06,0.86,0.86
5.9603352546691895,0.14,0.2,0.13,0.27
5.961877346038818,0.26,0.25,-1.48,1.52
5.963902235031128,0.26,0.27,-2.79,2.81
5.970227241516113,-0.08,0.26,-2.99,3.0
5.980307102203369,-0.17,0.2,-2.23,2.24
5.9904351234436035,0.16,-0.01,-1.12,1.13
6.000178337097168,0.23,-0.02,-0.47,0.52
6.037423133850098,-0.13,0.04,-0.26,0.29
6.038885116577148,-0.49,0.15,0.09,0.52
6.039905071258545,-0.78,0.24,0.54,0.97
6.060214042663574,-0.92,0.25,0.63,1.14
6.061689138412476,-0.72,0.14,0.53,0.9
6.076298236846924,-0.34,-0.03,0.4,0.52
6.077797174453735,0.23,-0.13,0.08,0.27
6.092773199081421,0.78,-0.29,-0.13,0.84
6.094221115112305,1.17,-0.41,-0.18,1.25
6.1085991859436035,1.43,-0.39,-0.27,1.5
6.110076189041138,1.48,-0.4,-0.03,1.53
6.1605682373046875,1.23,-0.29,0.21,1.28
6.161683082580566,0.87,-0.16,0.29,0.93
6.162750244140625,0.58,-0.04,0.24,0.62
6.17799711227417,0.33,0.05,0.43,0.54
6.179033279418945,0.15,0.0,0.5,0.52
6.193003177642822,0.13,-0.04,0.52,0.53
6.194475173950195,0.15,-0.01,0.4,0.42
6.210074186325073,0.28,0.01,-0.02,0.28
6.211458206176758,0.4,-0.01,-0.29,0.49
6.225442171096802,0.49,0.09,-0.39,0.63
6.253242015838623,0.53,0.18,-0.57,0.79
6.2546491622924805,0.38,0.22,-0.39,0.58
6.255636215209961,0.0,0.13,-0.47,0.48
6.276749134063721,-0.4,0.03,-0.54,0.67
6.277787208557129,-0.75,0.11,-0.39,0.85
6.293188095092773,-0.85,0.31,-0.22,0.93
6.294625282287598,-0.95,0.55,-0.27,1.13
6.3100621700286865,-1.15,0.69,-0.83,1.57
6.311558246612549,-1.35,0.7,-1.52,2.15
6.325480222702026,-1.5,0.73,-1.63,2.33
6.3541741371154785,-1.8,0.76,-1.37,2.38
6.355549335479736,-2.28,0.68,-1.28,2.7
6.356564998626709,-2.72,0.59,-1.32,3.08
6.377363204956055,-2.95,0.8,-1.35,3.34
6.3788511753082275,-2.54,1.12,-1.52,3.16
6.392847061157227,-2.16,1.22,-1.83,3.08
6.39431619644165,-2.08,1.46,-1.95,3.2
6.410038232803345,-1.68,1.72,-1.98,3.11
6.411509037017822,-1.21,2.1,-2.43,3.43
6.4259772300720215,-1.57,3.61,-2.51,4.66
6.455130100250244,-2.04,4.76,-2.12,5.59
6.457035064697266,-2.31,4.27,-1.91,5.21
6.458059310913086,-2.9,4.43,-1.68,5.55
6.477133274078369,-3.68,4.83,-2.02,6.39
6.478617191314697,-4.56,5.33,-2.79,7.54
6.492801189422607,-4.97,5.56,-3.21,8.11
6.494268178939819,-4.81,5.28,-2.98,7.73
6.5102763175964355,-5.0,5.18,-3.53,8.01
6.511705160140991,-5.56,5.12,-3.97,8.53
6.525536060333252,-5.86,4.74,-3.98,8.52
6.553501129150391,-5.52,3.95,-4.32,8.04
6.554916143417358,-4.74,3.09,-4.63,7.31
6.555910110473633,-3.71,3.07,-4.8,6.79
6.577056169509888,-3.19,4.29,-5.75,7.85
6.578137159347534,-3.65,6.3,-6.22,9.57
6.593452215194702,-3.07,8.3,-5.03,10.17
6.594906330108643,0.87,11.28,-2.14,11.51
6.610251188278198,2.75,10.92,-1.17,11.32
6.6117353439331055,0.28,5.65,-2.9,6.35
6.625690221786499,-2.54,2.36,-5.11,6.17
6.654523134231567,-4.6,-0.32,-6.43,7.91
6.655923128128052,-5.76,-5.26,-7.12,10.56
6.656946182250977,-1.59,-5.8,-4.59,7.56
6.677215099334717,3.73,-2.9,-1.26,4.88
6.67869234085083,0.41,-2.78,-1.75,3.31
6.693296194076538,-4.17,-3.27,-3.84,6.54
6.6948041915893555,-7.65,-3.89,-4.23,9.56
6.710208177566528,-9.15,-4.04,-3.37,10.55
6.711724281311035,-9.19,-4.07,-1.89,10.22
6.725443124771118,-8.5,-4.83,-0.53,9.79
6.754231214523315,-8.01,-5.79,0.2,9.88
6.755591154098511,-7.97,-5.99,0.38,9.97
6.756579160690308,-8.03,-5.33,0.37,9.64
6.777072191238403,-7.85,-4.68,0.46,9.15
6.778131008148193,-7.31,-4.41,0.68,8.56
6.793456077575684,-6.66,-4.23,1.0,7.95
6.794950008392334,-6.19,-4.01,1.11,7.45
6.810366153717041,-6.07,-3.66,0.73,7.12
6.8118391036987305,-6.15,-3.04,0.09,6.86
6.825716018676758,-6.1,-2.08,-0.35,6.45
6.854315280914307,-5.74,-0.91,-0.66,5.84
6.85564923286438,-4.77,0.09,-1.16,4.9
6.856677055358887,-3.21,0.75,-1.67,3.69
6.877000331878662,-1.41,1.29,-1.74,2.58
6.878059148788452,0.22,1.94,-1.38,2.39
6.893491268157959,1.44,2.65,-0.9,3.14
6.894964218139648,2.29,3.39,-0.31,4.1
6.910403251647949,2.75,3.92,0.31,4.79
6.911887168884277,2.86,4.44,1.0,5.37
6.925610065460205,3.03,5.11,1.88,6.23
6.9270920753479,3.23,5.54,2.58,6.91
6.976434230804443,3.24,5.81,2.08,6.96
6.977665185928345,3.44,6.75,1.29,7.68
6.978669166564941,4.89,8.85,1.31,10.19
6.9942052364349365,5.75,15.1,0.49,16.16
6.9956560134887695,9.38,11.62,-0.58,14.94
7.0102832317352295,15.81,6.11,1.03,16.98
7.011756181716919,16.76,2.73,2.3,17.13
7.026845216751099,14.95,2.29,1.92,15.24
7.028314113616943,14.12,2.99,1.71,14.53
7.042257308959961,14.71,4.2,1.99,15.42
7.0715413093566895,15.07,4.63,2.15,15.91
7.073048114776611,14.69,4.17,2.1,15.41
7.074016094207764,14.09,3.81,1.94,14.72
7.093513011932373,11.0,1.03,0.59,11.06
7.094558238983154,2.51,-0.87,-1.95,3.29
7.110351085662842,-5.64,1.68,-2.88,6.55
7.1117942333221436,-5.44,6.66,0.76,8.63
7.1266093254089355,0.57,5.73,2.7,6.35
7.128052234649658,4.1,1.69,1.66,4.73
7.142956256866455,6.61,-0.38,1.08,6.7
7.174199104309082,6.15,-2.61,0.01,6.68
7.175613164901733,4.05,-0.58,0.78,4.16
7.176647186279297,3.27,0.35,2.23,3.97
7.194060325622559,2.69,-0.55,2.08,3.44
7.1951422691345215,2.54,-1.03,2.19,3.5
7.210543155670166,2.52,-0.78,2.25,3.46
7.212041139602661,2.32,-0.37,2.13,3.17
7.226924180984497,1.89,-0.07,1.8,2.61
7.228408336639404,1.34,-0.02,0.97,1.65
7.2423200607299805,0.8,-0.17,-0.15,0.83
7.2724621295928955,0.43,-0.04,-0.44,0.61
7.273837089538574,0.35,0.03,0.13,0.37
7.274827003479004,0.38,-0.11,0.44,0.59
7.2941741943359375,0.33,-0.05,0.26,0.42
7.29523229598999,-0.03,0.18,-0.18,0.25
7.310429096221924,-0.53,0.31,-0.99,1.16
7.311896324157715,-0.42,0.33,-1.55,1.63
7.32616114616394,0.45,0.25,-1.32,1.41
7.327620029449463,1.11,0.05,-0.76,1.34
7.342525005340576,1.11,-0.1,-0.47,1.2
7.370298147201538,0.65,-0.24,-0.23,0.73
7.371740341186523,0.24,-0.16,-0.15,0.32
7.3727641105651855,0.1,0.02,0.1,0.14
7.3748393058776855,0.08,0.0,0.44,0.44
7.376421213150024,0.0,0.02,0.4,0.4
7.3777852058410645,-0.05,0.05,0.3,0.3
7.379409313201904,-0.02,0.17,0.68,0.7
7.389616012573242,0.05,0.23,0.61,0.65
7.399493217468262,0.1,0.18,0.03,0.2
7.409511089324951,0.11,0.09,-0.54,0.55
7.441082000732422,-0.05,0.11,-0.92,0.92
7.442228317260742,-0.22,0.12,-1.0,1.03
7.443221092224121,-0.18,0.02,-0.9,0.91
7.459346294403076,0.03,-0.05,-0.65,0.65
7.460409164428711,0.27,-0.11,-0.37,0.47
7.476693153381348,0.29,-0.17,0.22,0.4
7.478762149810791,0.05,-0.04,0.69,0.69
7.493220329284668,-0.02,-0.02,0.75,0.75
7.4990081787109375,0.17,-0.08,0.65,0.67
7.50882625579834,0.48,-0.1,0.5,0.7
7.54571533203125,0.71,-0.05,0.23,0.74
7.54706335067749,0.85,-0.03,-0.17,0.86
7.548086166381836,0.77,-0.02,-0.5,0.91
7.560599327087402,0.58,-0.01,-0.39,0.69
7.561617136001587,0.3,-0.01,-0.21,0.36
7.577267169952393,-0.19,0.03,-0.28,0.33
7.5787341594696045,-0.87,0.19,-0.49,1.01
7.593805313110352,-1.38,0.54,-0.65,1.61
7.598178148269653,-1.56,0.86,-0.89,1.99
7.609256267547607,-1.57,1.03,-1.2,2.22
7.646320343017578,-1.61,1.07,-1.23,2.29
7.647617340087891,-1.99,0.97,-1.33,2.58
7.648597240447998,-2.25,1.01,-1.38,2.82
7.660942077636719,-2.41,1.13,-1.31,2.96
7.662023067474365,-2.49,1.17,-1.56,3.16
7.6770172119140625,-2.46,1.2,-1.48,3.11
7.678044319152832,-2.33,1.31,-1.68,3.15
7.69388222694397,-2.11,1.76,-2.19,3.51
7.697375297546387,-2.34,3.06,-2.05,4.36
7.707325220108032,-2.52,4.31,-1.61,5.24
7.717341184616089,-2.0,4.06,-1.61,4.8
7.749858140945435,-2.3,3.86,-1.49,4.73
7.751075267791748,-3.04,3.58,-1.97,5.09
7.752279281616211,-3.49,3.6,-2.32,5.52
7.75840425491333,-3.7,3.72,-2.65,5.87
7.766793251037598,-4.16,3.88,-3.01,6.43
7.777074337005615,-4.76,4.12,-3.25,7.08
7.786604166030884,-5.11,4.03,-3.55,7.41
7.79660701751709,-5.39,4.13,-3.74,7.75
7.806786060333252,-5.48,3.96,-3.87,7.79
7.816309213638306,-5.18,3.18,-3.93,7.23
7.848001003265381,-4.72,2.68,-4.11,6.8
7.849342346191406,-3.59,2.19,-3.98,5.79
7.8504133224487305,-2.21,2.66,-3.79,5.13
7.860098123550415,-2.0,4.06,-3.98,6.02
7.8657941818237305,-2.25,5.64,-4.07,7.31
7.875879287719727,-0.76,8.13,-2.9,8.66
7.886181354522705,2.15,10.78,-1.75,11.13
7.89587926864624,0.71,7.68,-2.87,8.22
7.905964136123657,-2.54,3.84,-4.35,6.33
7.915785312652588,-4.53,2.37,-4.84,7.04
7.947993278503418,-5.33,0.46,-4.77,7.16
7.949414253234863,-5.84,-3.29,-5.36,8.58
7.950443267822266,-3.52,-6.27,-5.05,8.78
7.961100101470947,2.16,-3.05,-3.09,4.84
7.965090274810791,1.33,-2.11,-2.94,3.85
7.977020263671875,-3.46,-2.66,-4.4,6.19
7.985658168792725,-7.34,-2.79,-5.06,9.34
7.995192050933838,-9.22,-3.11,-4.36,10.66
8.005160331726074,-9.53,-3.53,-2.91,10.57
8.015050172805786,-9.18,-4.06,-1.32,10.12
8.04642629623413,-8.61,-4.79,-0.13,9.85
8.04776906967163,-8.28,-5.21,0.41,9.79
8.0487961769104,-8.31,-4.64,0.43,9.52
8.0609712600708,-8.17,-3.74,0.62,9.0
8.064263343811035,-7.65,-3.28,1.15,8.4
8.07711410522461,-6.95,-3.04,1.37,7.7
8.084203243255615,-6.68,-2.75,1.11,7.3
8.094354152679443,-6.9,-2.28,0.42,7.27
8.104250192642212,-7.05,-1.67,-0.32,7.25
8.114343166351318,-6.41,-0.54,-0.97,6.5
8.150946140289307,-4.82,0.7,-1.75,5.17
8.152387142181396,-2.65,1.24,-2.58,3.9
8.15338921546936,-0.7,1.42,-2.48,2.94
8.156698226928711,0.56,1.51,-1.5,2.2
8.163894176483154,1.72,1.62,-0.94,2.54
8.177556037902832,3.39,2.35,-0.82,4.2
8.183588027954102,4.71,3.0,-0.57,5.61
8.194160223007202,4.84,2.98,-0.23,5.68
8.203746318817139,4.33,3.29,0.28,5.44
8.213379144668579,4.15,4.18,0.84,5.94
8.249287128448486,4.54,4.79,1.07,6.68
8.250641345977783,5.25,5.19,1.63,7.56
8.251702308654785,6.35,5.27,2.36,8.58
8.260631084442139,7.36,4.74,2.83,9.2
8.262814998626709,7.8,4.51,2.83,9.44
8.276202201843262,6.13,9.49,1.9,11.45
8.282989025115967,7.52,7.59,1.03,10.73
8.29400110244751,12.17,4.65,2.03,13.18
8.30311107635498,14.09,4.07,3.21,15.01
8.312674045562744,13.68,3.57,2.82,14.41
8.34844422340393,13.21,3.93,2.67,14.03
8.349724292755127,13.1,4.73,3.23,14.29
8.3507080078125,12.81,4.96,3.7,14.22
8.36113715171814,12.05,4.9,4.46,13.75
8.362175226211548,10.5,4.49,5.37,12.61
8.3773193359375,5.97,0.71,3.9,7.16
8.381882190704346,-1.77,-2.69,0.48,3.25
8.393866062164307,-6.24,-1.85,-1.06,6.59
8.402148246765137,-2.39,1.28,0.58,2.77
8.412219047546387,2.45,3.38,0.8,4.25
8.449753284454346,3.44,5.41,1.94,6.69
8.451164245605469,6.89,5.71,2.67,9.33
8.452221155166626,8.89,1.63,1.67,9.19
8.459890127182007,5.6,1.08,1.29,5.84
8.46120309829712,2.25,-0.33,2.16,3.13
8.477517127990723,1.55,-1.56,1.73,2.79
8.481454133987427,2.39,-1.42,1.47,3.14
8.491919040679932,2.8,-0.86,1.81,3.44
8.501487255096436,2.78,0.03,2.48,3.72
8.511192321777344,2.0,-0.09,2.49,3.19
8.521153211593628,0.92,-0.1,1.51,1.77
8.55359411239624,0.09,0.14,-0.16,0.23
8.554766178131104,-0.46,0.27,-1.08,1.2
8.555729150772095,-0.34,0.28,-0.7,0.82
8.560659170150757,0.17,0.22,-0.09,0.29
8.570410251617432,0.32,0.22,-0.3,0.49
8.580737113952637,-0.01,0.19,-0.88,0.9
8.590894222259521,0.36,0.05,-1.22,1.27
8.600359201431274,1.48,-0.2,-1.06,1.83
8.610619068145752,1.96,-0.29,-1.17,2.3
8.620473146438599,1.48,-0.23,-0.82,1.7
8.653148174285889,0.7,-0.14,0.07,0.71
8.654337167739868,-0.02,-0.13,0.53,0.54
8.655437231063843,-0.36,-0.05,0.57,0.67
8.659870147705078,-0.17,-0.02,0.45,0.48
8.669751167297363,0.16,0.09,0.21,0.27
8.679948329925537,0.18,0.33,-0.14,0.4
8.689891338348389,0.04,0.34,-0.45,0.56
8.700112342834473,0.03,0.18,-0.71,0.73
8.709866046905518,0.04,0.09,-0.82,0.82
8.719730138778687,0.01,0.09,-0.72,0.72
8.75225019454956,-0.17,0.07,-0.7,0.72
8.753300189971924,-0.41,-0.07,-0.76,0.86
8.754557132720947,-0.62,-0.13,-0.42,0.76
8.759169101715088,-0.7,-0.05,-0.16,0.71
8.777628183364868,-0.63,0.14,-0.2,0.67
8.778761148452759,-0.53,0.26,-0.2,0.62
8.794145107269287,-0.48,0.28,-0.19,0.58
8.799145221710205,-0.29,0.19,-0.15,0.37
8.809880256652832,0.0,0.03,-0.01,0.03
8.819063186645508,0.17,-0.06,0.07,0.19
8.84991717338562,0.22,-0.1,0.06,0.24
8.851100206375122,0.38,0.1,0.17,0.42
8.852241039276123,0.53,0.28,0.17,0.62
8.859654188156128,0.5,0.37,0.0,0.62
8.868465185165405,0.39,0.48,-0.11,0.62
8.878213167190552,0.28,0.42,-0.29,0.58
8.888436317443848,0.16,0.33,-0.54,0.65
8.898046016693115,-0.05,0.12,-0.75,0.76
8.90840220451355,-0.38,0.31,-0.85,0.98
8.918448209762573,-0.84,0.45,-1.17,1.5
8.956721305847168,-1.36,0.34,-1.49,2.04
8.958092212677002,-1.95,0.29,-1.66,2.57
8.959075212478638,-2.57,0.51,-1.66,3.1
8.978072166442871,-3.05,0.84,-1.65,3.56
8.979093074798584,-3.3,1.41,-1.67,3.95
8.99424409866333,-3.18,2.05,-1.74,4.16
8.995715141296387,-3.65,2.66,-2.15,5.0
9.010834217071533,-3.65,3.35,-1.26,5.11
9.012213230133057,-2.79,3.26,-0.78,4.36
9.026485204696655,-3.07,3.19,-0.95,4.52
9.057237148284912,-3.78,3.64,-1.48,5.45
9.058663129806519,-3.94,3.75,-2.21,5.87
9.05968427658081,-3.95,3.96,-2.87,6.28
9.077691078186035,-4.56,4.52,-3.71,7.41
9.078750133514404,-5.39,4.93,-4.41,8.53
9.09423303604126,-6.12,5.09,-4.93,9.36
9.09572720527649,-6.47,5.07,-4.92,9.57
9.112337112426758,-6.18,4.66,-4.72,9.06
9.11379623413086,-5.9,4.06,-4.5,8.45
9.1270170211792,-5.7,3.66,-4.42,8.08
9.15624213218689,-4.91,3.65,-4.37,7.51
9.15758228302002,-3.97,3.82,-4.59,7.17
9.158608198165894,-3.51,4.63,-4.63,7.42
9.177895069122314,-3.47,5.21,-4.84,7.91
9.178942203521729,-2.07,6.77,-3.05,7.7
9.194590091705322,1.88,9.99,0.22,10.16
9.196063041687012,2.1,8.03,-0.05,8.3
9.211371183395386,-0.73,4.74,-2.18,5.26
9.212868213653564,-3.68,4.21,-4.25,7.02
9.226728200912476,-5.18,2.82,-5.14,7.82
9.25461721420288,-5.75,-1.34,-5.45,8.03
9.255995273590088,-5.63,-4.78,-4.1,8.44
9.257007122039795,-1.4,-2.44,-0.76,2.91
9.278148174285889,-1.63,-1.26,-0.07,2.06
9.279201030731201,-5.08,-1.14,-1.8,5.5
9.294511318206787,-8.01,-1.24,-2.96,8.62
9.295994281768799,-9.67,-1.92,-2.63,10.2
9.311589241027832,-9.92,-2.55,-1.8,10.39
9.31307601928711,-9.22,-3.16,-1.11,9.8
9.326699256896973,-7.99,-4.15,-0.89,9.04
9.3281831741333,-6.94,-4.92,-1.02,8.56
9.373922348022461,-6.23,-5.15,-1.04,8.14
9.375094175338745,-5.43,-4.77,-0.89,7.28
9.376079082489014,-4.5,-4.49,-0.87,6.41
9.395205020904541,-3.79,-4.45,-1.01,5.93
9.396696090698242,-3.75,-4.53,-1.14,5.99
9.411266326904297,-4.28,-4.37,-1.03,6.2
9.41277027130127,-4.9,-3.71,-0.06,6.14
9.427940130233765,-5.16,-2.59,0.89,5.84
9.429418087005615,-4.65,-1.98,0.39,5.06
9.443467140197754,-3.42,-1.79,-1.01,3.99
9.475762128829956,-2.1,-1.14,-1.76,2.96
9.477044105529785,-1.05,0.17,-1.0,1.45
9.478062152862549,-0.44,0.93,0.31,1.07
9.49475908279419,-0.21,1.26,2.02,2.39
9.495776176452637,0.17,2.05,3.52,4.07
9.511589050292969,0.61,2.82,4.01,4.94
9.513060092926025,1.21,3.88,3.7,5.49
9.52780818939209,2.93,5.45,2.57,6.7
9.52925729751587,6.37,6.54,0.47,9.14
9.543566226959229,9.64,7.12,-1.25,12.04
9.573187351226807,11.89,7.44,-2.49,14.24
9.574512004852295,10.64,11.02,-2.77,15.56
9.57555103302002,9.98,15.35,-3.55,18.65
9.594811201095581,18.96,9.31,-4.24,21.54
9.596015214920044,23.33,5.18,-0.48,23.9
9.611761093139648,21.87,5.09,2.28,22.56
9.613306045532227,19.25,6.0,3.87,20.53
9.628284215927124,16.95,6.13,5.61,18.87
9.629762172698975,14.52,5.78,7.16,17.19
9.643508195877075,11.01,2.77,5.77,12.73
9.674371242523193,2.03,-2.54,0.43,3.27
9.675704002380371,-7.82,-2.52,-2.53,8.59
9.676706314086914,-8.12,2.13,0.4,8.4
9.6947181224823,0.67,5.41,3.72,6.59
9.695808172225952,6.12,4.2,3.48,8.19
9.711369037628174,9.48,0.17,1.84,9.65
9.712870121002197,9.74,-2.06,-1.06,10.01
9.728265285491943,6.91,1.23,-0.33,7.02
9.729740142822266,4.36,1.39,1.31,4.76
9.74358606338501,2.55,-0.89,0.88,2.84
9.772375106811523,1.98,-1.54,0.86,2.65
9.77376413345337,1.97,-0.94,1.27,2.52
9.774774074554443,1.86,-0.32,1.53,2.42
9.794672012329102,0.98,0.02,1.06,1.44
9.795727252960205,-0.25,0.34,0.54,0.68
9.811602115631104,-0.98,0.33,0.12,1.04
9.813082218170166,-1.28,0.14,-0.47,1.37
9.828182220458984,-1.16,0.09,-1.08,1.58
9.8296480178833,-0.56,0.2,-1.13,1.27
9.84360933303833,0.1,0.22,-0.59,0.63
9.872042179107666,0.57,-0.01,-0.14,0.58
9.873440265655518,1.07,-0.16,-0.33,1.13
9.874457120895386,1.2,-0.14,-0.74,1.41
9.895259141921997,1.06,-0.15,-0.52,1.19
9.896322250366211,1.04,-0.23,-0.22,1.08
9.91145920753479,1.04,-0.15,-0.05,1.05
9.912825107574463,0.78,-0.02,0.3,0.83
9.928065299987793,0.33,-0.03,0.72,0.79
9.929495334625244,-0.09,-0.03,0.85,0.85
9.943155288696289,-0.42,0.12,0.62,0.75
9.971073150634766,-0.5,0.22,0.28,0.61
9.972387313842773,-0.17,0.16,-0.09,0.25
9.973363161087036,0.3,0.01,-0.35,0.46
9.975606203079224,0.6,0.02,-0.33,0.68
9.97700023651123,0.62,0.0,-0.2,0.65
9.979950189590454,0.38,-0.16,-0.21,0.46
9.990060329437256,0.31,-0.21,0.0,0.37
10.000036239624023,0.33,-0.16,0.24,0.43
10.009905338287354,0.14,-0.03,0.27,0.3
10.019837141036987,-0.12,0.06,0.15,0.2
10.053879261016846,0.01,0.01,0.22,0.22
10.055645227432251,0.28,0.01,0.23,0.36
10.056646347045898,0.47,-0.03,0.1,0.48
10.059245109558105,0.55,-0.08,0.14,0.57
10.069225311279297,0.47,-0.02,0.12,0.48
10.07938528060913,0.32,0.08,-0.11,0.34
10.089449167251587,0.23,0.17,-0.28,0.4
10.09949517250061,0.23,0.25,-0.26,0.42
10.109452247619629,0.21,0.31,-0.23,0.43
10.119267225265503,0.07,0.43,-0.38,0.57
10.12911605834961,-0.28,0.44,-0.59,0.78
10.162089347839355,-0.72,0.47,-0.79,1.16
10.16327714920044,-1.22,0.69,-1.09,1.77
10.164283275604248,-1.43,0.8,-1.35,2.12
10.178788185119629,-1.66,0.78,-1.57,2.41
10.17986011505127,-2.0,0.82,-1.92,2.89
10.194809198379517,-2.3,0.91,-1.93,3.13
10.19851016998291,-2.25,1.17,-1.78,3.09
10.209436178207397,-2.24,1.44,-1.75,3.18
10.218249320983887,-2.15,1.78,-1.91,3.38
10.228289127349854,-2.45,2.14,-1.88,3.75
10.261082172393799,-3.42,3.15,-1.27,4.81
10.262465000152588,-3.67,3.97,-1.23,5.54
10.26348614692688,-3.27,4.1,-1.27,5.39
10.27898120880127,-3.19,4.25,-1.35,5.48
10.280063152313232,-3.27,4.14,-1.95,5.62
10.295064210891724,-3.18,4.2,-2.23,5.72
10.297770023345947,-3.5,4.41,-2.7,6.24
10.311801195144653,-4.02,4.66,-3.15,6.91
10.31760311126709,-4.53,4.77,-3.46,7.43
10.327521324157715,-5.07,4.65,-3.88,7.89
10.359743118286133,-5.6,4.69,-4.04,8.34
10.361040115356445,-5.71,4.1,-3.96,8.06
10.362065315246582,-5.35,3.11,-3.97,7.35
10.3787841796875,-4.6,2.46,-4.34,6.78
10.379851341247559,-3.37,2.23,-4.29,5.89
10.3946852684021,-2.7,3.03,-3.86,5.6
10.396799087524414,-2.58,4.33,-4.0,6.43
10.411838054656982,-2.13,5.54,-4.53,7.46
10.416994094848633,-0.19,7.96,-3.12,8.55
10.427192211151123,2.25,10.76,-1.93,11.16
10.460405349731445,0.46,7.07,-2.59,7.54
10.461803197860718,-2.74,3.48,-4.52,6.32
10.462821006774902,-4.6,1.94,-5.5,7.42
10.47901725769043,-5.49,-0.61,-6.08,8.21
10.480098247528076,-5.95,-4.57,-6.21,9.73
10.494699001312256,-1.94,-4.7,-4.16,6.56
10.495878219604492,3.38,-1.59,-1.36,3.97
10.51194715499878,1.32,-1.87,-1.49,2.73
10.516231060028076,-3.08,-2.45,-3.55,5.3
10.527103185653687,-6.69,-2.63,-4.25,8.35
10.564333200454712,-8.49,-2.8,-3.62,9.64
10.566007137298584,-8.9,-3.17,-2.43,9.75
10.567028999328613,-8.59,-3.95,-1.25,9.53
10.57914113998413,-8.2,-4.76,-0.41,9.49
10.580201148986816,-7.92,-4.92,0.18,9.32
10.594886302947998,-7.56,-4.64,0.67,8.89
10.59636402130127,-7.04,-4.26,1.04,8.29
10.611995220184326,-6.39,-3.92,1.24,7.59
10.615435123443604,-5.95,-3.76,1.07,7.11
10.627356052398682,-5.98,-3.28,0.69,6.85
10.664555072784424,-6.34,-2.6,0.25,6.85
10.665704250335693,-6.45,-1.86,-0.19,6.71
10.666731119155884,-5.8,-0.91,-0.42,5.88
10.679151058197021,-4.32,-0.04,-0.62,4.36
10.680235147476196,-2.55,0.19,-1.54,2.98
10.694488048553467,-0.99,0.53,-1.72,2.05
10.695526123046875,-0.17,0.72,-1.07,1.3
10.711948156356812,0.19,0.98,-0.15,1.0
10.714668273925781,0.7,1.66,0.92,2.02
10.727254152297974,1.11,2.29,1.52,2.96
10.763303279876709,1.21,2.92,1.75,3.61
10.764580249786377,1.28,3.65,2.01,4.35
10.765594005584717,1.62,4.23,2.37,5.11
10.77912425994873,2.31,4.43,2.65,5.65
10.780171155929565,3.02,4.26,2.42,5.75
10.794599056243896,3.68,4.32,1.5,5.86
10.795627117156982,5.02,4.82,1.1,7.04
10.812127113342285,7.52,5.14,1.21,9.18
10.81382131576538,9.89,4.97,1.11,11.12
10.827400207519531,8.48,10.17,0.88,13.27
10.863155126571655,10.68,8.42,-0.29,13.6
10.864452123641968,16.65,4.91,0.65,17.37
10.865467071533203,18.33,3.05,2.62,18.76
10.879216194152832,16.6,2.4,3.03,17.04
10.880266189575195,15.18,3.81,3.42,16.02
10.894618034362793,15.11,5.31,4.08,16.52
10.895962238311768,15.31,5.63,4.4,16.89
10.912046194076538,14.24,3.68,3.58,15.13
10.91347622871399,7.92,-1.69,-0.74,8.13
10.928016185760498,-2.52,-2.21,-4.19,5.36
10.93306827545166,-7.28,3.27,-2.72,8.43
10.973028182983398,-3.19,7.56,2.85,8.68
10.974173069000244,1.57,6.47,4.32,7.93
10.975167274475098,6.4,3.06,3.09,7.73
10.995479106903076,8.87,-1.38,1.06,9.03
10.996538162231445,6.16,-1.44,0.05,6.32
11.012088298797607,2.91,-0.11,1.31,3.19
11.013544082641602,1.95,-0.17,1.66,2.56
11.028487205505371,2.25,-0.49,1.78,2.91
11.029895305633545,2.47,-0.12,2.21,3.31
11.04410719871521,2.11,0.01,2.21,3.05
11.07426929473877,1.6,-0.23,1.93,2.51
11.076219081878662,0.82,-0.48,1.34,1.64
11.077229022979736,-0.2,-0.53,0.4,0.69
11.095662117004395,-0.79,-0.22,-0.27,0.86
11.096687316894531,-0.91,0.05,-0.51,1.04
11.112123012542725,-0.53,0.06,-0.37,0.64
11.113595008850098,0.18,-0.03,-0.07,0.19
11.1287522315979,0.88,-0.08,0.24,0.91
11.130150318145752,1.25,-0.13,0.12,1.26
11.144203186035156,1.07,-0.2,-0.47,1.18
11.173800230026245,0.44,-0.09,-1.16,1.24
11.175151348114014,-0.01,0.01,-1.54,1.54
11.176178216934204,0.19,-0.03,-1.49,1.5
11.195337295532227,0.43,-0.09,-1.08,1.16
11.19638204574585,0.38,-0.01,-0.62,0.72
11.211637020111084,0.0,0.08,-0.23,0.24
11.212692260742188,-0.18,0.05,0.1,0.21
11.228890180587769,0.15,0.1,0.72,0.74
11.23038101196289,0.29,0.04,1.1,1.13
11.244250297546387,0.16,0.01,0.87,0.88
11.27306604385376,0.07,0.05,0.35,0.36
11.27444314956665,-0.05,0.09,-0.15,0.18
11.27543830871582,-0.02,0.04,-0.55,0.55
11.296115159988403,0.1,-0.05,-0.57,0.58
11.297134160995483,0.14,-0.08,-0.48,0.5
11.312042236328125,0.04,-0.14,-0.54,0.55
11.313084125518799,-0.14,-0.2,-0.58,0.62
11.328875064849854,-0.31,-0.22,-0.64,0.74
11.330340147018433,-0.21,-0.17,-0.33,0.42
11.344528198242188,0.04,-0.03,-0.06,0.07
11.372591018676758,0.07,0.03,-0.12,0.14
11.373905181884766,0.16,-0.02,-0.17,0.23
11.374884128570557,0.4,0.02,-0.02,0.4
11.395633220672607,0.51,0.13,0.3,0.6
11.396693229675293,0.5,0.35,0.53,0.8
11.411937236785889,0.56,0.61,0.7,1.08
11.412963151931763,0.42,0.63,0.72,1.04
11.428970336914062,0.28,0.63,0.42,0.8
11.430322170257568,-0.08,0.4,-0.23,0.46
11.444391250610352,-0.71,0.12,-0.72,1.01
11.4727201461792,-1.19,0.09,-0.67,1.36
11.474072217941284,-1.23,0.25,-0.76,1.46
11.475112199783325,-1.08,0.45,-1.1,1.6
11.496018171310425,-1.17,0.6,-1.24,1.8
11.497044086456299,-1.57,0.54,-1.28,2.09
11.512040138244629,-1.89,0.6,-1.12,2.27
11.513067245483398,-2.03,0.73,-1.14,2.43
11.528939247131348,-2.41,0.73,-1.59,2.97
11.530290126800537,-2.86,0.79,-2.27,3.73
11.544406175613403,-2.74,1.17,-2.43,3.84
11.57059907913208,-2.11,1.53,-1.98,3.27
11.571917057037354,-1.52,1.74,-1.55,2.78
11.572810173034668,-1.13,1.84,-1.32,2.53
11.57513427734375,-1.43,2.22,-1.13,2.87
11.577812194824219,-2.04,3.29,-1.82,4.27
11.588090181350708,-2.38,4.42,-1.56,5.25
11.597894191741943,-2.38,4.21,-0.79,4.9
11.60790729522705,-3.33,3.76,-1.38,5.2
11.617814064025879,-4.11,3.92,-2.05,6.03
11.62760615348816,-4.33,4.14,-2.35,6.43
11.662451267242432,-4.86,4.55,-2.88,7.25
11.663462162017822,-5.48,4.9,-3.46,8.12
11.664278030395508,-5.69,4.77,-3.54,8.22
11.679293155670166,-5.74,4.43,-3.48,8.04
11.68036413192749,-5.59,3.95,-3.73,7.79
11.695171117782593,-5.2,3.39,-3.94,7.35
11.69701623916626,-4.28,2.47,-3.8,6.23
11.7120943069458,-3.3,2.6,-3.97,5.78
11.71688723564148,-3.25,4.07,-5.0,7.21
11.72700309753418,-3.9,5.78,-6.02,9.21
11.736977100372314,-4.17,6.77,-5.99,9.95
11.767695188522339,-1.38,8.59,-2.97,9.19
11.76887822151184,3.3,10.16,0.06,10.68
11.770118236541748,3.1,6.23,-1.3,7.07
11.776737213134766,0.16,3.12,-4.58,5.54
11.78647232055664,-2.91,1.8,-6.35,7.21
11.796210289001465,-5.08,-0.83,-6.31,8.14
11.806309223175049,-4.6,-5.02,-5.33,8.64
11.816134214401245,1.79,-4.26,-3.27,5.66
11.826511144638062,2.93,-3.03,-2.9,5.11
11.836320161819458,-2.57,-2.66,-3.71,5.23
11.86876630783081,-7.62,-2.17,-4.41,9.06
11.870140075683594,-9.94,-2.18,-3.58,10.78
11.871194124221802,-10.05,-2.76,-1.8,10.57
11.875783205032349,-9.44,-3.74,-0.16,10.15
11.885707139968872,-8.87,-4.52,0.97,10.0
11.895620346069336,-8.72,-4.99,1.24,10.12
11.905372142791748,-8.74,-4.98,0.94,10.1
11.915243148803711,-8.41,-4.49,0.53,9.54
11.925682067871094,-7.61,-4.13,0.15,8.65
11.935647010803223,-6.66,-4.11,0.01,7.82
11.968831062316895,-6.03,-4.17,0.02,7.33
11.970207214355469,-5.74,-4.03,0.03,7.01
11.971278190612793,-5.68,-3.75,-0.03,6.8
11.975579261779785,-5.74,-3.1,-0.3,6.53
11.985045194625854,-5.47,-1.95,-0.88,5.87
11.994916200637817,-4.38,-0.59,-1.82,4.77
12.004785060882568,-2.56,0.0,-2.8,3.79
12.014530181884766,-0.56,0.17,-3.17,3.22
12.024740219116211,1.21,0.64,-2.4,2.76
12.034829139709473,2.63,1.09,-1.39,3.16
12.066680192947388,3.61,1.37,-0.72,3.92
12.067987203598022,3.88,1.8,-0.27,4.28
12.069006204605103,3.3,2.5,0.17,4.14
12.07981824874878,2.78,3.69,1.08,4.74
12.084111213684082,3.06,5.02,2.16,6.26
12.095219135284424,4.25,5.55,2.51,7.42
12.104149341583252,6.02,5.53,2.17,8.45
12.113994121551514,7.96,5.58,1.66,9.86
12.124248027801514,8.28,8.59,1.28,11.99
12.13388729095459,7.63,13.82,-0.18,15.78
12.173793315887451,15.35,10.14,-0.75,18.41
12.175165176391602,21.48,7.91,2.78,23.05
12.17623519897461,21.41,6.89,4.62,22.96
12.19598913192749,19.27,7.22,5.21,21.22
12.197018146514893,17.5,7.27,6.88,20.16
12.21230411529541,15.4,6.34,8.01,18.48
12.213344097137451,12.15,2.53,6.04,13.8
12.229435205459595,3.56,-3.43,-0.32,4.95
12.23093318939209,-5.71,-2.81,-4.15,7.59
12.244790077209473,-7.65,3.82,-0.09,8.55
12.273868083953857,-2.39,6.9,4.51,8.58
12.275177001953125,4.72,2.38,3.57,6.37
12.276148319244385,8.82,-2.13,1.16,9.14
12.293578147888184,8.73,0.38,0.94,8.78
12.294588088989258,6.57,1.98,2.49,7.29
12.313767194747925,3.69,-0.63,1.38,3.98
12.314759254455566,1.91,-1.81,0.69,2.72
12.329294204711914,0.96,-1.03,1.21,1.85
12.330709218978882,1.06,0.05,1.77,2.06
12.344471216201782,1.44,0.18,2.27,2.69
12.373161315917969,1.03,-0.24,1.89,2.16
12.374470233917236,0.49,-0.39,1.0,1.17
12.375356197357178,0.41,-0.05,0.27,0.49
12.396465301513672,0.53,0.14,-0.11,0.55
12.39747428894043,0.54,0.09,-0.33,0.63
12.412438154220581,0.47,0.04,-0.52,0.7
12.413445234298706,0.42,-0.03,-0.68,0.79
12.429786205291748,0.41,0.07,-0.69,0.8
12.431149005889893,0.34,0.18,-0.69,0.78
12.44479513168335,0.32,0.15,-1.06,1.11
12.471983194351196,0.33,0.14,-1.59,1.62
12.47324800491333,0.29,0.14,-1.45,1.48
12.474167346954346,0.1,0.16,-0.62,0.64
12.476060152053833,-0.3,0.11,0.32,0.45
12.481024265289307,-0.59,0.09,0.88,1.06
12.49121618270874,-0.8,0.08,0.66,1.04
12.501236200332642,-0.65,0.06,0.18,0.67
12.510996341705322,-0.29,0.1,-0.09,0.31
12.521043300628662,-0.03,0.1,-0.18,0.2
12.53121018409729,0.17,0.05,-0.23,0.29
12.541166305541992,0.3,0.0,-0.52,0.6
12.573439121246338,0.35,-0.04,-0.63,0.72
12.574766159057617,0.27,-0.06,-0.42,0.5
12.575736999511719,0.24,-0.05,-0.08,0.25
12.596444129943848,0.17,-0.06,0.11,0.21
12.597445011138916,-0.03,-0.02,0.2,0.2
12.612718105316162,-0.04,0.06,0.18,0.19
12.613718032836914,0.16,0.1,0.17,0.25
12.629487037658691,0.31,0.08,0.19,0.37
12.630935192108154,0.41,-0.02,0.16,0.44
12.643773078918457,0.52,-0.13,0.16,0.55
12.67155122756958,0.59,-0.05,0.17,0.61
12.672797203063965,0.57,0.07,0.28,0.63
12.673838138580322,0.48,0.11,0.32,0.58
12.679505348205566,0.2,0.06,0.21,0.29
12.689603328704834,-0.06,-0.02,0.01,0.06
12.699756145477295,-0.32,0.08,-0.11,0.34
12.709538221359253,-0.42,0.3,-0.02,0.51
12.719381332397461,-0.47,0.46,-0.07,0.66
12.729655265808105,-0.56,0.57,-0.54,0.96
12.739563226699829,-0.6,0.64,-1.05,1.36
12.769941329956055,-0.62,0.58,-1.26,1.51
12.77111530303955,-0.81,0.47,-1.29,1.59
12.772274017333984,-1.14,0.44,-1.25,1.74
12.77878713607788,-1.53,0.55,-1.48,2.19
12.788872241973877,-1.88,0.73,-1.73,2.65
12.798644065856934,-2.01,0.76,-1.65,2.7
12.808716297149658,-1.92,0.87,-1.69,2.7
12.819262027740479,-1.69,0.86,-1.79,2.6
12.828985214233398,-1.51,0.96,-1.88,2.59
12.839014053344727,-1.54,1.2,-2.05,2.83
12.871423244476318,-1.85,1.93,-1.92,3.29
12.872542142868042,-2.23,3.32,-1.55,4.28
12.873824119567871,-2.43,3.56,-1.82,4.67
12.878117084503174,-2.65,3.58,-1.25,4.62
12.888207197189331,-3.22,3.39,-1.57,4.93
12.89824914932251,-3.52,3.23,-1.96,5.16
12.908149242401123,-3.51,3.27,-2.1,5.23
12.917814254760742,-3.62,3.46,-2.4,5.55
12.928080081939697,-4.12,3.95,-2.92,6.41
12.938169002532959,-4.6,4.38,-3.39,7.19
12.976668119430542,-4.92,4.48,-3.48,7.5
12.978074073791504,-5.17,4.73,-3.52,7.84
12.979083061218262,-5.38,4.79,-3.81,8.14
12.996575355529785,-5.21,4.24,-3.86,7.74
12.997562170028687,-4.67,3.43,-4.08,7.08
13.01218032836914,-3.59,2.73,-4.04,6.05
13.013188123703003,-2.18,2.59,-3.94,5.19
13.029503345489502,-2.1,3.41,-4.24,5.83
13.03092908859253,-2.35,5.03,-4.48,7.13
13.045602321624756,-1.02,7.13,-3.24,7.89
13.077041149139404,2.78,9.93,-1.27,10.38
13.078357219696045,2.53,7.54,-1.75,8.14
13.079370021820068,-0.6,3.49,-3.72,5.13
13.096691131591797,-3.31,1.66,-4.97,6.19
13.097724199295044,-5.01,-0.39,-5.07,7.13
13.113118171691895,-6.26,-3.73,-5.11,8.9
13.114583015441895,-3.52,-5.98,-4.19,8.1
13.12967824935913,2.98,-2.74,-1.71,4.39
13.131155014038086,1.41,-2.23,-1.56,3.06
13.145061016082764,-3.56,-2.7,-3.44,5.63
13.173756122589111,-7.37,-2.54,-4.24,8.87
13.175203323364258,-9.02,-2.73,-3.53,10.06
13.176221132278442,-9.13,-3.06,-2.06,9.84
13.196638107299805,-8.49,-3.61,-0.72,9.25
13.19767427444458,-7.62,-4.31,0.05,8.75
13.213022232055664,-7.05,-4.7,0.11,8.47
13.21407413482666,-6.65,-4.57,-0.27,8.07
13.229878187179565,-6.22,-4.24,-0.55,7.54
13.231351137161255,-5.74,-3.87,-0.51,6.94
13.245150089263916,-5.4,-3.58,-0.47,6.49
13.275676250457764,-5.31,-3.05,-0.35,6.13
13.276953220367432,-5.41,-2.49,-0.31,5.96
13.277969121932983,-5.35,-2.05,-0.73,5.77
13.29627013206482,-4.9,-1.45,-1.36,5.28
13.297313213348389,-3.96,-0.8,-1.77,4.41
13.312784194946289,-2.62,-0.37,-2.11,3.38
13.313844203948975,-1.19,-0.17,-2.3,2.59
13.329687118530273,-0.29,-0.06,-1.84,1.86
13.331153154373169,0.06,0.13,-0.99,1.0
13.345176219940186,0.21,0.56,-0.35,0.69
13.34666919708252,0.33,1.23,-0.11,1.27
13.395295143127441,0.71,2.16,0.04,2.27
13.396460056304932,1.36,3.01,0.26,3.31
13.397455215454102,1.95,3.57,0.73,4.13
13.414013147354126,2.41,3.9,1.35,4.77
13.415480136871338,2.78,4.24,1.7,5.34
13.429815292358398,3.37,4.72,1.56,6.0
13.431310176849365,4.84,5.54,1.37,7.48
13.446290016174316,7.27,5.99,1.43,9.52
13.447839260101318,9.68,5.85,1.6,11.42
13.461935043334961,11.19,5.7,1.7,12.67
13.493575096130371,9.39,9.97,1.57,13.78
13.494861125946045,10.38,9.03,1.27,13.81
13.495885133743286,14.52,6.2,2.92,16.05
13.513687133789062,14.8,4.94,5.11,16.41
13.514700174331665,13.47,3.02,5.13,14.72
13.529573202133179,11.34,2.85,5.05,12.73
13.530591011047363,10.14,5.06,6.12,12.87
13.546552181243896,8.72,5.74,7.17,12.66
13.54810118675232,6.83,5.36,7.13,11.23
13.562159061431885,2.52,0.25,2.59,3.62
13.594638347625732,-4.85,-1.25,-1.6,5.25
13.595921039581299,-7.55,2.6,-1.49,8.12
13.59695816040039,-0.74,5.06,0.93,5.19
13.613587141036987,5.09,4.3,2.59,7.14
13.614660263061523,8.21,2.36,3.5,9.23
13.629641056060791,9.06,-2.29,0.55,9.36
13.630687236785889,6.36,-1.39,-0.99,6.58
13.64654016494751,4.96,-0.44,0.3,4.98
13.648051261901855,4.27,-0.62,1.03,4.43
13.661952018737793,3.14,-0.66,1.29,3.45
13.691954135894775,1.67,-0.58,1.99,2.66
13.69321322441101,0.95,-0.24,2.05,2.27
13.694230079650879,0.7,-0.03,1.72,1.85
13.713338136672974,0.77,-0.22,1.65,1.83
13.71441125869751,0.79,-0.15,1.02,1.29
13.729554176330566,0.44,0.04,0.35,0.56
13.730581283569336,0.21,-0.19,0.63,0.69
13.74657416343689,0.36,-0.17,0.79,0.88
13.748011112213135,0.52,-0.07,0.52,0.73
13.762354135513306,0.61,-0.0,0.14,0.62
13.793301105499268,0.67,-0.05,-0.09,0.67
13.794602155685425,0.74,-0.09,-0.18,0.76
13.79559326171875,0.81,-0.05,-0.38,0.89
13.813500165939331,0.79,0.06,-0.69,1.05
13.814565181732178,0.66,0.11,-0.72,0.98
13.829673290252686,0.37,0.11,-0.54,0.66
13.8305983543396,-0.17,0.15,-0.22,0.31
13.84648323059082,-0.47,0.18,-0.18,0.53
13.847941160202026,-0.34,0.22,-0.11,0.41
13.862043142318726,-0.18,0.28,0.01,0.33
13.891478061676025,-0.11,0.13,-0.18,0.24
13.892844200134277,0.06,-0.13,-0.3,0.33
13.89380931854248,0.22,-0.12,-0.31,0.39
13.913410186767578,0.38,0.0,-0.34,0.5
13.914475202560425,0.56,-0.1,-0.33,0.65
13.92960500717163,0.59,-0.18,-0.12,0.62
13.930641174316406,0.42,-0.2,0.17,0.49
13.946787118911743,0.22,-0.19,0.47,0.55
13.948276042938232,0.19,-0.1,0.56,0.59
13.962017059326172,0.28,-0.07,0.67,0.72
13.991170167922974,0.49,-0.12,0.62,0.79
13.992603302001953,0.75,-0.18,0.35,0.84
13.99361515045166,0.88,-0.19,0.1,0.9
14.013375282287598,0.86,-0.14,0.17,0.88
14.014462232589722,0.68,-0.07,0.21,0.71
14.030409336090088,0.46,-0.02,0.11,0.47
14.031482219696045,0.29,0.17,-0.07,0.34
14.04685926437378,-0.07,0.32,-0.35,0.47
14.04837703704834,-0.53,0.49,-0.59,0.93
14.062209129333496,-0.74,0.53,-0.83,1.23
14.090867042541504,-0.88,0.45,-1.31,1.64
14.092287063598633,-1.16,0.52,-2.03,2.39
14.09328031539917,-1.49,0.6,-2.3,2.8
14.113733291625977,-1.72,0.71,-2.12,2.82
14.114801168441772,-2.11,0.87,-2.07,3.08
14.129645347595215,-2.74,1.04,-2.12,3.61
14.130673170089722,-3.34,0.95,-1.96,3.98
14.146973133087158,-3.52,1.09,-1.82,4.1
14.14846420288086,-3.54,1.37,-2.36,4.46
14.162216186523438,-2.96,1.72,-2.81,4.42
14.16367220878601,-1.99,2.13,-2.87,4.09
14.208246231079102,-1.51,2.57,-2.99,4.22
14.209426164627075,-1.87,3.71,-2.65,4.92
14.210443019866943,-2.81,5.17,-1.85,6.16
14.23041319847107,-3.29,4.92,-2.69,6.5
14.231460094451904,-3.53,5.45,-2.2,6.85
14.246692180633545,-4.3,5.91,-2.26,7.65
14.248193264007568,-4.88,5.9,-2.92,8.19
14.263593196868896,-4.92,5.92,-3.27,8.36
14.265111207962036,-5.04,5.7,-3.49,8.37
14.27900218963623,-5.32,5.08,-3.86,8.3
14.308704137802124,-5.39,4.52,-4.21,8.19
14.31006121635437,-4.66,3.73,-4.24,7.32
14.31108021736145,-3.42,3.08,-4.5,6.43
14.330008029937744,-2.48,3.08,-5.38,6.67
14.330996036529541,-2.31,4.0,-5.8,7.41
14.346275329589844,-1.6,6.17,-4.63,7.87
14.3472900390625,1.57,9.11,-2.58,9.59
14.363250255584717,3.44,9.81,-2.32,10.65
14.364716053009033,0.47,5.2,-3.7,6.39
14.378953218460083,-2.62,1.4,-4.83,5.67
14.410712242126465,-5.04,-1.35,-4.68,7.0
14.412013053894043,-6.63,-3.46,-4.14,8.54
14.413039207458496,-2.21,-4.47,-3.45,6.06
14.430687189102173,2.52,-4.31,-2.67,5.66
14.431699275970459,-0.75,-4.42,-2.83,5.3
14.4468092918396,-5.76,-3.81,-3.47,7.72
14.447795152664185,-9.09,-3.21,-3.42,10.22
14.463587284088135,-9.81,-3.47,-2.32,10.66
14.464999198913574,-9.07,-4.13,-0.71,9.99
14.479350090026855,-8.0,-4.87,0.38,9.37
14.510775089263916,-7.28,-5.07,0.7,8.89
14.51215124130249,-6.96,-4.83,0.57,8.49
14.513158321380615,-6.67,-4.39,0.43,7.99
14.530582189559937,-6.2,-4.06,0.33,7.41
14.531597137451172,-5.74,-3.78,0.3,6.87
14.546443223953247,-5.44,-3.45,0.18,6.44
14.54749321937561,-5.37,-2.95,0.0,6.12
14.56386113166809,-5.54,-2.27,-0.18,5.98
14.565359115600586,-5.59,-1.56,-0.53,5.82
14.578991174697876,-5.12,-0.94,-0.9,5.28
14.610304355621338,-4.16,-0.45,-1.23,4.36
14.611695289611816,-2.94,-0.06,-1.56,3.32
14.612718105316162,-1.85,0.05,-1.66,2.48
14.630742073059082,-1.39,0.0,-1.18,1.82
14.631771087646484,-1.14,0.2,-0.45,1.24
14.646510124206543,-0.52,0.83,0.26,1.01
14.647861003875732,0.19,1.58,0.73,1.75
14.663892269134521,0.5,2.19,0.96,2.44
14.665375232696533,0.27,2.74,1.12,2.97
14.679318189620972,-0.01,3.54,1.36,3.79
14.712175130844116,0.37,4.35,1.9,4.76
14.713521003723145,1.47,4.83,2.39,5.58
14.714527130126953,2.98,4.92,2.31,6.19
14.730799198150635,4.35,4.85,1.94,6.79
14.731826305389404,5.5,5.1,1.52,7.65
14.74662733078003,6.7,5.75,0.87,8.87
14.747665166854858,6.08,11.81,0.39,13.28
14.7640380859375,8.6,10.42,-1.33,13.57
14.765549182891846,16.02,5.9,-0.18,17.07
14.779238224029541,18.4,3.6,2.1,18.86
14.809989213943481,16.26,3.21,2.36,16.74
14.811321258544922,14.39,4.02,2.66,15.17
14.812347173690796,14.05,4.75,3.28,15.18
14.830562114715576,13.74,4.73,3.8,15.02
14.8316011428833,12.88,3.92,4.55,14.21
14.846758127212524,11.0,1.05,4.15,11.8
14.847788333892822,5.1,-3.06,0.83,6.0
14.863882064819336,-3.06,-3.88,-2.72,5.64
14.865320205688477,-5.86,0.69,-2.72,6.49
14.879274129867554,-2.3,6.85,1.71,7.42
14.909748077392578,4.11,9.68,3.69,11.14
14.911018133163452,9.88,2.14,1.85,10.27
14.912062168121338,8.83,0.37,0.76,8.87
14.930665016174316,6.47,0.47,2.26,6.86
14.931713104248047,3.56,-1.73,2.59,4.73
14.946629047393799,2.05,-2.26,1.84,3.56
14.947663307189941,1.22,-0.87,1.39,2.04
14.963748216629028,0.98,0.3,1.46,1.78
14.96519422531128,1.32,0.2,2.24,2.6
14.979315280914307,1.41,-0.4,2.31,2.73
14.980794191360474,1.21,-0.58,1.68,2.15
15.025061130523682,0.98,-0.25,0.99,1.41
15.026234149932861,0.72,0.07,0.6,0.93
15.027236223220825,0.41,0.17,0.13,0.46
15.047028064727783,0.15,0.28,-0.62,0.69
15.047993183135986,0.12,0.28,-1.34,1.37
15.063765048980713,0.11,0.2,-1.54,1.55
15.065231323242188,0.16,0.16,-1.65,1.66
15.080600261688232,0.36,0.15,-1.64,1.68
15.082017183303833,0.58,0.07,-1.45,1.56
15.095927238464355,0.47,-0.08,-0.99,1.09
15.12692928314209,0.1,-0.05,-0.22,0.24
15.128182172775269,-0.52,0.22,0.53,0.77
15.129224300384521,-1.01,0.37,0.43,1.15
15.147783279418945,-1.06,0.23,0.14,1.09
15.14883804321289,-0.69,0.12,0.11,0.7
15.163817167282104,0.0,0.16,0.04,0.16
15.165367126464844,0.57,-0.08,-0.15,0.59
15.180558204650879,0.68,-0.08,-0.27,0.73
15.181948184967041,0.61,0.11,-0.61,0.86
15.183901309967041,0.39,0.18,-0.79,0.89
15.210555076599121,-0.01,0.3,-0.58,0.65
15.211670160293579,-0.26,0.27,-0.27,0.46
15.212500095367432,-0.36,0.13,-0.07,0.38
15.229682207107544,-0.37,0.11,0.03,0.38
15.230614185333252,-0.46,0.15,-0.02,0.48
15.246660232543945,-0.37,0.13,-0.14,0.41
15.247724056243896,-0.12,0.11,-0.09,0.18
15.262978076934814,0.18,0.07,-0.19,0.27
15.263986110687256,0.43,-0.13,-0.28,0.52
15.27859616279602,0.48,-0.33,-0.27,0.64
15.305768013000488,0.25,-0.3,-0.27,0.47
15.30699110031128,-0.01,0.01,-0.1,0.1
15.307913303375244,-0.19,0.27,0.22,0.39
15.309884071350098,-0.34,0.43,0.33,0.63
15.311179161071777,-0.38,0.43,0.27,0.63
15.312143325805664,-0.38,0.39,0.14,0.56
15.319659233093262,-0.48,0.39,0.02,0.61
15.329918146133423,-0.53,0.38,-0.26,0.7
15.33968734741211,-0.56,0.44,-0.81,1.07
15.349654197692871,-0.71,0.62,-1.11,1.45
15.382420063018799,-1.02,0.89,-1.22,1.82
15.383543014526367,-1.47,0.98,-1.21,2.14
15.38438606262207,-1.61,1.46,-0.58,2.24
15.395808219909668,-1.57,1.62,-0.59,2.33
15.399056196212769,-1.69,1.67,-0.9,2.54
15.413753032684326,-1.85,1.82,-1.1,2.81
15.418936252593994,-1.94,1.82,-1.26,2.94
15.43031620979309,-2.1,1.81,-1.42,3.11
15.43912410736084,-2.24,2.0,-1.44,3.33
15.448698043823242,-2.38,2.27,-1.33,3.54
15.482805252075195,-2.55,2.62,-1.35,3.89
15.483837127685547,-2.77,3.06,-1.78,4.49
15.484671115875244,-3.08,3.26,-2.41,5.09
15.497619152069092,-3.4,3.36,-3.03,5.65
15.498645305633545,-3.86,3.48,-3.44,6.23
15.513833999633789,-4.33,3.76,-3.79,6.87
15.51835322380066,-4.72,4.1,-4.23,7.54
15.530424118041992,-4.86,4.11,-4.44,7.76
15.538097143173218,-4.85,3.92,-4.27,7.55
15.548301219940186,-4.76,3.74,-4.26,7.4
15.585676193237305,-4.69,3.73,-4.55,7.52
15.587135314941406,-4.05,3.31,-4.51,6.9
15.588147163391113,-3.11,2.77,-4.33,6.0
15.59747314453125,-2.86,4.14,-4.22,6.56
15.59855318069458,-2.4,6.01,-4.26,7.74
15.613766193389893,-1.54,6.98,-4.07,8.22
15.617591142654419,1.18,8.97,-2.43,9.36
15.62812328338623,2.52,9.13,-2.32,9.75
15.637845039367676,-0.01,6.36,-3.42,7.22
15.647477149963379,-3.0,4.46,-4.87,7.25
15.686240196228027,-4.94,2.03,-5.36,7.56
15.687765121459961,-6.39,-1.57,-5.4,8.51
15.68884801864624,-7.05,-5.14,-4.91,10.01
15.694345235824585,-2.23,-3.6,-2.14,4.74
15.696911334991455,2.04,-0.99,0.62,2.35
15.713932037353516,-1.11,-1.77,-0.21,2.09
15.716694355010986,-5.61,-1.98,-2.08,6.3
15.730414152145386,-8.9,-2.45,-2.15,9.47
15.73701524734497,-9.96,-2.9,-1.07,10.42
15.746729135513306,-9.5,-3.36,0.17,10.07
15.756839275360107,-8.65,-3.96,1.07,9.57
15.790553092956543,-7.87,-4.55,1.39,9.19
15.791718006134033,-7.23,-4.77,1.24,8.75
15.79294729232788,-6.64,-4.89,0.8,8.28
15.79615831375122,-6.0,-4.86,0.42,7.73
15.806297302246094,-5.36,-4.5,0.3,7.0
15.816084146499634,-5.03,-3.99,0.33,6.42
15.826138019561768,-5.13,-3.33,0.39,6.12
15.836433172225952,-5.49,-2.6,0.12,6.07
15.8461332321167,-5.56,-1.67,-0.7,5.84
15.856048107147217,-4.89,-0.6,-1.65,5.19
15.887921333312988,-3.05,0.35,-2.44,3.92
15.889196157455444,-0.65,0.55,-2.69,2.82
15.890457153320312,1.18,0.24,-2.0,2.33
15.895453214645386,1.48,-0.25,-0.97,1.78
15.914112091064453,1.06,-0.17,-0.09,1.07
15.915131092071533,0.88,0.53,0.18,1.04
15.931011199951172,0.81,1.44,0.12,1.65
15.935052156448364,0.87,2.33,0.45,2.52
15.94632625579834,0.98,2.82,1.08,3.17
15.955381155014038,1.03,3.04,1.43,3.51
15.985698223114014,1.44,3.76,1.5,4.29
15.986895084381104,2.49,4.49,1.38,5.31
15.988053321838379,4.01,5.05,1.28,6.57
15.99721622467041,5.79,5.26,0.85,7.86
16.004621028900146,7.37,5.26,0.27,9.05
16.014578342437744,8.57,5.32,-0.48,10.09
16.02458620071411,8.06,7.84,-0.88,11.27
16.034465312957764,7.36,10.06,-1.39,12.54
16.044859170913696,12.06,5.27,-1.23,13.21
16.05462622642517,14.99,3.33,1.06,15.39
16.087850093841553,14.11,2.03,1.68,14.35
16.08915901184082,12.23,2.36,1.77,12.58
16.090169191360474,11.21,2.97,2.29,11.82
16.093821048736572,10.73,3.68,2.91,11.71
16.114368200302124,10.41,4.07,3.38,11.67
16.115389347076416,9.9,4.33,3.95,11.5
16.13054609298706,8.93,4.38,4.75,11.02
16.133904218673706,6.95,2.45,4.36,8.56
16.14637804031372,1.83,-1.2,1.64,2.73
16.153954029083252,-3.83,-2.36,-0.9,4.58
16.192891120910645,-4.24,-0.8,-0.56,4.35
16.19404125213623,1.27,1.15,0.84,1.9
16.19504404067993,4.83,2.57,0.71,5.51
16.214880228042603,4.52,5.14,1.07,6.92
16.215965270996094,5.5,5.61,0.6,7.87
16.230183124542236,6.17,1.78,-0.65,6.45
16.2312331199646,3.98,1.55,0.15,4.27
16.24762725830078,2.35,0.59,2.3,3.34
16.24910306930542,1.87,-1.32,2.49,3.38
16.26319932937622,2.61,-1.41,2.09,3.62
16.29294729232788,2.4,-0.62,1.9,3.12
16.294349193572998,1.78,-0.02,1.68,2.44
16.295361042022705,1.07,-0.13,1.32,1.7
16.314366340637207,0.36,-0.49,0.75,0.96
16.31543517112732,-0.11,-0.38,0.16,0.42
16.33089518547058,-0.4,0.04,-0.22,0.45
16.33193016052246,-0.53,0.32,-0.43,0.75
16.347726345062256,-0.63,0.36,-0.49,0.87
16.34912633895874,-0.66,0.36,-0.37,0.83
16.36313819885254,-0.59,0.26,-0.24,0.68
16.385369300842285,-0.43,0.06,-0.48,0.64
16.386373043060303,0.0,-0.18,-0.96,0.97
16.387219190597534,0.76,-0.14,-1.24,1.46
16.39349603652954,1.39,0.03,-1.13,1.79
16.401905059814453,1.6,0.07,-0.72,1.75
16.41481113433838,1.39,-0.06,-0.06,1.39
16.421558141708374,0.97,-0.08,0.49,1.08
16.431718349456787,0.42,0.08,0.51,0.66
16.44165325164795,-0.1,0.13,0.18,0.24
16.45155119895935,-0.46,0.04,0.23,0.51
16.49008321762085,-0.3,-0.03,0.44,0.53
16.491557121276855,0.18,-0.1,0.38,0.43
16.492544174194336,0.6,-0.02,0.1,0.6
16.49489402770996,0.71,0.0,-0.46,0.84
16.500940322875977,0.68,-0.07,-0.97,1.18
16.5110821723938,0.61,-0.11,-0.73,0.95
16.520796298980713,0.36,-0.06,-0.24,0.43
16.530840158462524,0.07,0.04,-0.06,0.1
16.54090929031372,-0.1,0.17,0.12,0.23
16.550934314727783,-0.33,0.13,-0.07,0.36
16.560964107513428,-0.4,0.05,-0.22,0.45
16.5920352935791,-0.32,0.07,-0.25,0.41
16.593255043029785,-0.27,0.11,-0.24,0.37
16.5942440032959,-0.24,0.07,-0.43,0.49
16.614943027496338,-0.28,0.05,-0.57,0.63
16.61596417427063,-0.28,0.15,-0.52,0.6
16.630739212036133,-0.23,0.27,-0.35,0.49
16.631794214248657,-0.12,0.29,-0.17,0.35
16.647730350494385,-0.1,0.19,-0.17,0.27
16.650089263916016,-0.18,0.16,-0.22,0.32
16.6635422706604,-0.3,0.21,-0.12,0.38
16.692504167556763,-0.39,0.27,-0.01,0.47
16.69384002685547,-0.42,0.31,-0.19,0.55
16.694895267486572,-0.41,0.29,-0.3,0.58
16.714797019958496,-0.48,0.17,-0.24,0.56
16.71584415435791,-0.58,0.11,-0.46,0.74
16.719277143478394,-0.75,0.09,-0.79,1.09
16.729231119155884,-1.04,0.15,-1.04,1.47
16.73951005935669,-1.25,0.32,-1.05,1.66
16.74959135055542,-1.33,0.48,-0.8,1.62
16.7593731880188,-1.45,0.58,-0.45,1.62
16.791689157485962,-1.31,0.54,-0.55,1.51
16.793094158172607,-1.08,0.55,-0.72,1.4
16.79410409927368,-0.99,0.68,-0.8,1.44
16.814988136291504,-1.02,0.99,-0.59,1.53
16.816042184829712,-1.13,1.24,-0.44,1.73
16.83112621307373,-1.25,1.72,-0.59,2.2
16.832611083984375,-1.71,2.53,-1.7,3.49
16.848095178604126,-2.31,3.57,-2.4,4.88
16.849549293518066,-1.75,3.59,-2.19,4.55
16.863243103027344,-1.85,3.08,-2.19,4.2
16.893274307250977,-2.41,3.09,-1.94,4.37
16.894623279571533,-3.08,3.16,-1.99,4.84
16.895649194717407,-3.61,3.69,-2.41,5.69
16.91473913192749,-4.16,4.21,-2.86,6.57
16.915765285491943,-4.47,4.39,-2.96,6.92
16.931174278259277,-4.66,4.53,-3.17,7.23
16.932632207870483,-5.24,4.65,-3.52,7.84
16.947867155075073,-5.41,4.39,-3.44,7.77
16.949328184127808,-5.2,3.95,-3.54,7.42
16.963518142700195,-4.63,3.44,-3.52,6.75
16.99636721611023,-3.81,2.86,-3.47,5.89
16.99778699874878,-3.38,3.31,-4.07,6.24
16.998817205429077,-3.62,4.78,-4.84,7.7
17.014979124069214,-3.98,6.4,-5.39,9.26
17.016046047210693,-3.98,7.15,-4.85,9.51
17.031357288360596,-0.6,9.18,-1.42,9.3
17.032808303833008,2.75,9.15,0.06,9.55
17.047600269317627,1.54,5.46,-1.65,5.9
17.049052238464355,-1.65,3.35,-4.43,5.79
17.063504219055176,-3.71,2.0,-5.28,6.75
17.09552812576294,-5.0,0.15,-5.0,7.07
17.096909046173096,-5.78,-3.94,-4.85,8.51
17.097925186157227,-2.13,-5.56,-3.18,6.75
17.115238189697266,3.04,-2.61,-0.84,4.09
17.116284132003784,0.24,-2.49,-1.36,2.84
17.13135528564453,-4.5,-2.7,-3.03,6.05
17.132825136184692,-7.82,-2.8,-3.56,9.03
17.148178100585938,-9.15,-3.09,-2.78,10.04
17.149667263031006,-9.16,-3.37,-1.48,9.87
17.163515090942383,-8.3,-4.01,-0.19,9.21
17.197312355041504,-7.32,-4.96,0.5,8.85
17.19860601425171,-6.84,-5.38,0.5,8.71
17.199568271636963,-6.76,-5.2,0.13,8.52
17.21548318862915,-6.54,-4.66,-0.22,8.03
17.21657419204712,-6.02,-4.27,-0.3,7.38
17.231691122055054,-5.44,-4.01,-0.08,6.75
17.233180046081543,-5.36,-3.86,0.29,6.61
17.248122215270996,-5.73,-3.44,0.62,6.71
17.24960231781006,-6.06,-3.12,0.36,6.82
17.263694286346436,-5.98,-2.61,-0.5,6.54
17.293782234191895,-5.14,-1.42,-1.33,5.49
17.295175075531006,-3.43,-0.35,-1.93,3.95
17.296183109283447,-1.37,0.02,-1.95,2.38
17.315290212631226,0.19,0.38,-1.19,1.26
17.316349029541016,1.34,0.86,-0.31,1.62
17.331444263458252,2.43,1.41,0.34,2.82
17.33295512199402,2.6,1.89,0.74,3.29
17.348339080810547,1.88,2.95,1.19,3.69
17.34981417655945,1.55,4.5,1.83,5.09
17.363516330718994,2.34,5.49,2.56,6.49
17.364989280700684,4.15,5.76,2.37,7.48
17.40995216369629,6.18,5.77,1.31,8.55
17.411144256591797,7.65,6.29,0.22,9.9
17.412159204483032,8.89,7.35,0.24,11.53
17.43179416656494,10.81,7.69,0.52,13.27
17.432891130447388,13.03,6.48,0.71,14.56
17.448167324066162,12.99,6.41,0.9,14.51
17.44965124130249,12.06,8.19,1.22,14.62
17.464912176132202,14.75,4.57,1.19,15.48
17.466394186019897,15.53,3.97,2.69,16.25
17.480485200881958,14.99,3.43,3.08,15.68
17.51024103164673,13.29,2.57,2.9,13.84
17.51157522201538,10.66,2.93,3.43,11.57
17.512651205062866,7.86,3.6,3.99,9.52
17.5316481590271,3.14,1.02,2.07,3.89
17.532710075378418,-4.21,-0.96,-2.28,4.88
17.548148155212402,-7.9,1.65,-3.01,8.61
17.549644231796265,-4.0,5.79,1.77,7.25
17.56490421295166,1.54,6.09,4.02,7.45
17.566360235214233,5.45,3.96,3.09,7.41
17.580589294433594,7.77,2.41,1.68,8.3
17.60973834991455,8.39,-0.2,0.32,8.39
17.61111307144165,5.13,0.37,0.32,5.15
17.612073183059692,2.58,0.39,2.05,3.31
17.63169527053833,2.05,-1.19,2.42,3.38
17.632687091827393,2.56,-1.83,2.42,3.96
17.64826202392578,2.77,-0.98,2.23,3.68
17.64965319633484,2.56,-0.02,1.66,3.05
17.66466522216797,2.1,0.18,0.87,2.28
17.666146278381348,1.3,-0.07,0.06,1.3
17.68065118789673,0.43,-0.17,-0.63,0.78
17.70962119102478,-0.21,0.08,-0.87,0.89
17.711410999298096,-0.37,0.44,-0.6,0.83
17.712438106536865,-0.18,0.56,-0.08,0.59
17.732046127319336,0.08,0.36,0.27,0.45
17.733091354370117,0.33,0.06,0.31,0.45
17.748213291168213,0.32,-0.13,-0.09,0.35
17.749669075012207,0.23,0.0,-0.52,0.56
17.76454734802246,0.07,0.19,-0.83,0.85
17.765936136245728,-0.06,0.07,-0.96,0.96
17.780346155166626,0.14,-0.14,-0.94,0.96
17.809535026550293,0.56,-0.09,-0.56,0.79
17.811084270477295,0.82,0.03,-0.14,0.83
17.812068223953247,0.53,-0.02,-0.12,0.54
17.831773281097412,0.1,-0.08,-0.13,0.18
17.832754135131836,0.1,-0.11,-0.07,0.16
17.848084211349487,0.37,-0.12,-0.04,0.39
17.84954309463501,0.34,-0.11,-0.07,0.36
17.86491823196411,-0.18,-0.1,-0.46,0.5
17.866274118423462,-0.47,-0.1,-0.62,0.78
17.880775213241577,-0.27,0.04,-0.04,0.27
17.909707069396973,-0.28,0.09,0.35,0.45
17.91114616394043,-0.35,0.04,0.2,0.4
17.912147998809814,-0.21,0.06,0.04,0.22
17.931564331054688,0.03,0.12,0.06,0.13
17.93260622024536,0.17,0.15,0.09,0.24
17.948405265808105,0.08,0.24,-0.04,0.25
17.9498610496521,-0.1,0.37,-0.09,0.39
17.966228008270264,-0.28,0.38,-0.15,0.49
17.967661142349243,-0.33,0.27,-0.24,0.48
17.980948209762573,-0.12,0.18,-0.43,0.48
18.00898027420044,0.26,0.09,-0.2,0.34
18.010215282440186,0.37,0.0,-0.15,0.39
18.01117515563965,0.25,0.05,-0.23,0.34
18.03200626373291,0.08,0.07,-0.32,0.33
18.03300428390503,-0.13,0.12,-0.32,0.36
18.048410177230835,-0.42,0.22,-0.47,0.66
18.04982018470764,-0.61,0.45,-0.66,1.0
18.065336227416992,-0.68,0.63,-0.84,1.25
18.066818237304688,-0.8,0.66,-0.98,1.42
18.080655097961426,-1.07,0.62,-1.01,1.59
18.109004020690918,-1.4,0.5,-0.98,1.78
18.11037302017212,-1.59,0.46,-0.73,1.8
18.1113920211792,-1.54,0.49,-0.64,1.73
18.131916999816895,-1.48,0.6,-0.79,1.78
18.132991313934326,-1.54,0.8,-1.01,2.0
18.14820432662964,-1.58,0.98,-0.97,2.09
18.14926528930664,-1.82,1.18,-0.84,2.32
18.165430068969727,-1.9,1.69,-1.53,2.96
18.16691017150879,-2.01,2.58,-1.46,3.58
18.180856227874756,-1.54,3.4,-0.59,3.77
18.182335138320923,-1.86,3.26,-0.87,3.85
18.225988149642944,-2.44,3.34,-1.36,4.35
18.22717523574829,-2.81,3.37,-1.86,4.76
18.228180170059204,-2.9,3.36,-2.2,4.95
18.249479293823242,-3.17,3.41,-2.46,5.26
18.250986099243164,-3.66,3.75,-2.87,5.97
18.265034198760986,-4.04,4.27,-2.92,6.56
18.266472339630127,-4.67,4.83,-3.16,7.42
18.28093123435974,-5.14,5.11,-3.63,8.1
18.282357215881348,-5.22,4.87,-3.75,8.06
18.297823190689087,-5.16,4.52,-3.91,7.89
18.327264308929443,-4.87,4.09,-4.2,7.62
18.32864809036255,-4.06,3.44,-4.66,7.07
18.329678058624268,-3.7,3.87,-5.23,7.48
18.34856128692627,-4.25,5.48,-5.84,9.06
18.349594116210938,-4.73,6.74,-6.27,10.34
18.36540126800537,-3.58,7.53,-4.71,9.57
18.366891145706177,0.94,10.65,-0.9,10.72
18.382052183151245,3.33,10.04,0.09,10.57
18.383503198623657,1.13,5.34,-1.66,5.7
18.397385120391846,-2.53,2.75,-4.15,5.58
18.42953109741211,-5.16,1.09,-5.12,7.35
18.43079710006714,-6.8,-1.88,-5.45,8.91
18.43177318572998,-6.41,-6.6,-5.41,10.67
18.449586153030396,-0.1,-5.04,-2.9,5.81
18.451086044311523,3.24,-2.23,-0.63,3.98
18.465280055999756,-0.73,-2.57,-1.7,3.16
18.466736316680908,-5.24,-2.97,-3.29,6.86
18.482279300689697,-8.24,-3.32,-3.34,9.49
18.483713150024414,-9.28,-3.57,-2.28,10.2
18.497286319732666,-9.13,-3.84,-0.86,9.94
18.526832103729248,-8.34,-4.33,0.22,9.39
18.52811622619629,-7.35,-5.06,0.67,8.94
18.52915334701538,-6.57,-5.43,0.42,8.53
18.54911708831787,-6.15,-5.33,-0.11,8.13
18.550191164016724,-5.88,-5.05,-0.49,7.76
18.565243244171143,-5.64,-4.61,-0.55,7.3
18.566707134246826,-5.49,-3.93,-0.31,6.75
18.582147121429443,-5.67,-3.42,-0.04,6.62
18.583633184432983,-5.68,-2.92,0.09,6.38
18.597244262695312,-5.43,-2.42,-0.37,5.95
18.62526035308838,-4.91,-1.66,-1.24,5.32
18.626665115356445,-3.67,-0.86,-2.1,4.31
18.627737045288086,-1.67,-0.41,-2.61,3.12
18.629829168319702,0.31,0.0,-2.27,2.29
18.631213188171387,1.43,0.36,-1.32,1.97
18.632612228393555,1.88,0.68,-0.45,2.04
18.63485813140869,2.27,1.42,0.16,2.68
18.64504313468933,2.23,2.31,0.56,3.25
18.65486717224121,1.67,3.35,1.16,3.91
18.66475009918213,1.14,4.5,2.17,5.12
18.69942331314087,1.3,5.39,2.65,6.14
18.700587272644043,2.03,6.04,1.96,6.66
18.70159101486206,3.47,7.14,1.12,8.01
18.714312076568604,6.3,8.02,0.7,10.22
18.715349197387695,9.79,7.73,0.28,12.47
18.731893062591553,12.49,6.88,0.07,14.25
18.734047174453735,13.46,5.79,0.02,14.65
18.748650074005127,11.99,6.04,0.4,13.43
18.754225254058838,10.08,8.49,1.02,13.21
18.76438808441162,12.87,5.29,1.66,14.01
18.79963517189026,14.41,3.93,3.37,15.31
18.800913333892822,14.07,2.5,3.86,14.8
18.801942348480225,12.82,2.03,3.46,13.43
18.81633234024048,10.93,2.85,3.5,11.82
18.81733512878418,9.1,4.79,4.23,11.11
18.832133293151855,6.76,4.42,3.95,8.99
18.83321213722229,0.14,1.23,0.94,1.55
18.849014282226562,-7.37,1.09,-1.85,7.67
18.853439331054688,-7.31,2.13,-0.66,7.64
18.86427116394043,-0.25,1.99,1.14,2.3
18.900443077087402,5.12,1.57,1.4,5.53
18.901808261871338,6.59,3.17,2.4,7.69
18.902891159057617,7.39,4.25,1.88,8.72
18.91572904586792,7.97,1.18,0.13,8.05
18.916778087615967,5.25,0.82,-0.16,5.31
18.931735038757324,3.26,0.39,1.79,3.73
18.93278408050537,2.33,-1.84,2.21,3.7
18.949987173080444,2.41,-2.16,1.9,3.75
18.9527850151062,2.6,-1.06,1.95,3.41
18.96462106704712,2.42,-0.03,1.74,2.98
18.972793102264404,1.95,0.28,1.31,2.36
19.005052089691162,0.97,0.03,0.86,1.29
19.006234169006348,0.1,0.06,0.74,0.74
19.007505178451538,-0.34,0.22,0.73,0.83
19.014430046081543,-0.6,0.13,0.32,0.69
19.021746158599854,-0.7,0.03,-0.25,0.74
19.031819343566895,-0.8,0.07,-0.45,0.92
19.041845321655273,-0.86,0.16,-0.59,1.05
19.05194115638733,-0.36,0.16,-0.74,0.83
19.061684131622314,0.28,0.03,-1.03,1.06
19.072081089019775,1.24,-0.06,-0.87,1.51
19.103926181793213,1.99,0.02,-0.74,2.12
19.10526704788208,2.04,-0.02,-0.81,2.19
19.10628604888916,1.51,-0.04,-0.58,1.61
19.116515159606934,0.68,0.09,-0.32,0.75
19.12124013900757,0.03,0.12,0.21,0.24
19.131330013275146,-0.23,0.19,0.65,0.71
19.1414532661438,-0.18,0.11,0.73,0.75
19.151305198669434,0.06,-0.03,0.65,0.65
19.161367177963257,0.48,-0.15,0.46,0.68
19.170961141586304,0.75,-0.2,0.31,0.83
19.20376205444336,0.71,-0.13,-0.03,0.72
19.205097198486328,0.55,-0.17,-0.27,0.63
19.206096172332764,0.37,-0.17,-0.25,0.47
19.215869188308716,0.19,-0.03,-0.33,0.38
19.220470190048218,0.0,0.05,-0.44,0.44
19.231054306030273,-0.14,0.14,-0.4,0.44
19.240559101104736,-0.18,0.26,-0.43,0.53
19.250487327575684,-0.2,0.26,-0.39,0.5
19.260554313659668,-0.27,0.17,-0.31,0.44
19.270376205444336,-0.42,0.06,-0.26,0.49
19.303149223327637,-0.3,0.17,-0.35,0.49
19.304335117340088,0.04,0.19,-0.26,0.32
19.305386066436768,0.21,0.17,-0.3,0.4
19.316379070281982,0.11,0.15,-0.57,0.59
19.319621086120605,-0.14,0.17,-0.83,0.85
19.33150625228882,-0.29,0.24,-0.69,0.78
19.34005832672119,-0.35,0.27,-0.38,0.58
19.3497052192688,-0.39,0.25,-0.15,0.48
19.35964822769165,-0.46,0.11,-0.13,0.49
19.36962604522705,-0.47,0.07,-0.29,0.55
19.407677173614502,-0.47,0.22,-0.47,0.7
19.408884048461914,-0.6,0.4,-0.8,1.07
19.409849166870117,-0.84,0.5,-0.99,1.39
19.412074089050293,-1.2,0.62,-0.95,1.65
19.41906499862671,-1.69,0.72,-1.05,2.11
19.429100036621094,-1.98,0.78,-1.09,2.39
19.43894100189209,-2.1,0.79,-0.92,2.42
19.449134349822998,-2.31,0.83,-1.1,2.68
19.459060192108154,-2.44,1.2,-1.62,3.16
19.468935012817383,-2.54,2.09,-1.88,3.78
19.505675315856934,-2.16,3.13,-1.28,4.01
19.507002353668213,-1.92,3.26,-1.26,3.98
19.508045196533203,-2.14,3.36,-1.35,4.2
19.512171268463135,-2.41,3.5,-1.64,4.55
19.532365322113037,-2.5,3.59,-1.62,4.66
19.533363342285156,-2.55,3.58,-1.62,4.68
19.54848623275757,-3.01,3.74,-1.86,5.14
19.54949116706848,-3.73,4.26,-2.18,6.06
19.564664125442505,-4.22,4.31,-2.56,6.55
19.56800603866577,-4.43,4.09,-2.83,6.66
19.606348037719727,-4.65,4.06,-3.13,6.92
19.607579231262207,-4.68,3.8,-3.44,6.94
19.60873508453369,-4.4,3.11,-3.71,6.54
19.612563133239746,-3.9,2.74,-3.86,6.13
19.617420196533203,-3.0,2.48,-4.03,5.6
19.6323561668396,-2.52,2.9,-4.38,5.82
19.637226104736328,-2.93,4.5,-4.69,7.12
19.648759126663208,-3.41,5.83,-5.37,8.62
19.657703161239624,-3.14,6.36,-4.38,8.33
19.66743516921997,0.48,8.99,-1.17,9.07
19.703763008117676,2.68,9.4,-0.82,9.8
19.705080032348633,0.58,6.15,-2.71,6.74
19.70617413520813,-2.37,4.15,-4.67,6.68
19.71591329574585,-4.05,2.69,-5.06,7.01
19.716979026794434,-5.2,-0.31,-5.2,7.36
19.732408046722412,-5.59,-4.81,-5.47,9.18
19.73673725128174,-1.85,-5.82,-4.54,7.6
19.74915623664856,3.9,-1.46,-2.1,4.66
19.756667137145996,1.98,-1.55,-2.11,3.28
19.766595125198364,-3.01,-2.82,-3.74,5.56
19.776507139205933,-7.25,-3.29,-4.35,9.07
19.80772113800049,-9.53,-3.67,-3.58,10.82
19.808885097503662,-10.34,-4.01,-2.0,11.26
19.81026029586792,-10.18,-4.29,-0.29,11.05
19.815813064575195,-9.26,-4.9,0.75,10.5
19.82579231262207,-8.07,-5.54,1.12,9.85
19.835869312286377,-7.15,-5.55,1.15,9.12
19.84595823287964,-6.6,-5.36,1.0,8.56
19.856123208999634,-6.41,-5.17,0.9,8.28
19.866058349609375,-6.47,-4.96,1.04,8.21
19.875863075256348,-6.66,-4.79,1.27,8.3
19.906291007995605,-6.81,-4.42,1.41,8.24
19.907531261444092,-6.73,-3.98,1.24,7.91
19.908762216567993,-6.32,-3.56,0.79,7.29
19.9152250289917,-5.79,-2.85,-0.07,6.45
19.925191164016724,-5.1,-1.63,-1.31,5.51
19.93513011932373,-3.75,-0.07,-2.38,4.44
19.94517230987549,-1.75,1.17,-3.18,3.81
19.95512104034424,0.39,2.5,-3.42,4.25
19.96523427963257,2.7,4.58,-2.8,6.0
19.975001335144043,4.91,5.96,-1.94,7.96
20.007983207702637,5.92,5.22,-1.54,8.04
20.009153127670288,5.66,4.73,-0.86,7.42
20.010457038879395,5.24,5.85,0.23,7.85
20.01448106765747,5.3,6.87,1.21,8.76
20.024517059326172,5.82,7.06,1.62,9.29
20.034558296203613,6.63,7.03,1.22,9.73
20.044434070587158,5.81,11.79,1.02,13.18
20.054692268371582,7.47,12.55,0.36,14.6
20.06454610824585,14.47,6.21,1.77,15.84
20.074379205703735,17.84,3.35,4.48,18.69
20.104615211486816,16.61,2.59,3.98,17.27
20.10580015182495,14.54,3.37,2.98,15.22
20.10701823234558,14.26,4.09,3.15,15.16
20.11772918701172,14.91,4.43,3.4,15.92
20.12354016304016,15.25,3.67,3.52,16.07
20.13356924057007,13.96,0.88,2.39,14.19
20.143895149230957,7.75,-3.52,-1.55,8.65
20.153640270233154,-1.51,-3.18,-4.45,5.67
20.163848161697388,-5.54,2.92,-2.85,6.88
20.173720121383667,-3.03,9.02,2.35,9.8
20.212850093841553,0.8,9.56,3.6,10.24
20.214206218719482,6.29,3.67,1.75,7.48
20.215224266052246,6.37,-2.41,-0.35,6.81
20.233691215515137,2.87,-1.55,-0.33,3.27
20.235156059265137,0.56,0.01,1.25,1.36
20.249016284942627,-0.1,-0.58,1.5,1.61
20.250492095947266,0.52,-1.27,1.65,2.14
20.26612114906311,1.36,-1.03,1.94,2.58
20.267606258392334,2.06,-0.43,2.05,2.93
20.281771183013916,2.5,-0.1,1.57,2.95
20.313756227493286,2.33,-0.05,0.68,2.42
20.315031051635742,1.67,-0.06,0.08,1.67
20.316020011901855,0.77,-0.06,-0.47,0.9
20.333269119262695,0.2,0.01,-0.4,0.44
20.334749221801758,0.1,0.19,0.09,0.23
20.349342346191406,0.1,0.18,0.12,0.23
20.35054612159729,-0.13,0.12,-0.35,0.39
20.365889072418213,-0.54,0.05,-1.19,1.3
20.36737322807312,-0.46,0.0,-1.41,1.48
20.38174533843994,0.38,0.0,-0.69,0.78
20.41247820854187,1.15,0.02,-0.13,1.15
20.41386127471924,1.28,-0.1,-0.11,1.28
20.414883136749268,1.1,-0.25,0.01,1.12
20.43287229537964,0.79,-0.09,0.06,0.79
20.433935165405273,0.45,0.05,0.14,0.47
20.44837522506714,0.29,0.13,0.46,0.55
20.449876308441162,0.2,0.14,0.68,0.72
20.466308116912842,0.36,0.09,0.51,0.63
20.467780113220215,0.73,-0.05,0.23,0.76
20.48174023628235,0.97,-0.12,0.21,0.99
20.51340103149414,0.98,-0.11,0.29,1.02
20.514677047729492,0.77,-0.11,0.18,0.79
20.51563024520874,0.46,-0.07,-0.05,0.46
20.533608198165894,0.11,0.09,-0.14,0.19
20.535069227218628,-0.14,0.19,-0.2,0.3
20.54954433441162,-0.16,0.09,-0.14,0.23
20.551029205322266,-0.05,-0.08,0.16,0.18
20.56636905670166,0.02,-0.14,0.14,0.19
20.56773805618286,0.02,-0.16,-0.06,0.17
20.581624031066895,0.01,-0.17,-0.06,0.18
20.582953214645386,-0.02,-0.06,-0.09,0.11
20.63151216506958,0.04,0.07,-0.17,0.18
20.63269805908203,0.12,0.11,-0.06,0.17
20.633682250976562,0.19,0.14,0.06,0.24
20.650309085845947,0.28,0.16,0.11,0.34
20.65135622024536,0.24,0.05,0.04,0.24
20.66592025756836,0.24,-0.05,-0.06,0.25
20.667266130447388,0.17,-0.09,-0.16,0.25
20.682859182357788,0.01,0.03,-0.3,0.3
20.684319019317627,-0.19,0.25,-0.56,0.64
20.698286056518555,-0.47,0.53,-0.81,1.07
20.72667932510376,-0.7,0.83,-1.01,1.48
20.7280592918396,-0.88,0.97,-1.05,1.67
20.729051113128662,-1.21,0.84,-1.12,1.85
20.749980211257935,-1.62,0.65,-1.37,2.21
20.75098705291748,-1.98,0.59,-1.46,2.52
20.766630172729492,-2.26,0.67,-1.68,2.89
20.76816701889038,-2.42,0.91,-2.04,3.29
20.783088207244873,-2.54,1.18,-2.2,3.56
20.784489154815674,-2.4,1.46,-2.38,3.68
20.798279285430908,-2.33,2.22,-2.1,3.84
20.828659057617188,-2.18,3.62,-1.58,4.51
20.829998016357422,-2.1,3.72,-1.89,4.67
20.83101511001587,-2.17,3.68,-1.38,4.48
20.849655151367188,-2.59,3.47,-1.44,4.56
20.850710153579712,-2.88,3.37,-1.56,4.69
20.866343021392822,-2.98,3.36,-1.84,4.85
20.86780023574829,-3.19,3.44,-2.18,5.17
20.883105278015137,-3.62,3.76,-2.53,5.8
20.88454532623291,-4.17,4.09,-3.18,6.65
20.898767232894897,-4.65,4.04,-3.39,7.03
20.926490306854248,-4.97,4.16,-3.42,7.32
20.92790126800537,-5.11,4.05,-3.57,7.43
20.92893409729004,-4.97,3.6,-3.59,7.1
20.93113422393799,-4.68,3.18,-3.82,6.82
20.93244504928589,-3.91,2.72,-3.94,6.18
20.93750524520874,-2.64,2.68,-3.87,5.39
20.947668075561523,-2.48,3.46,-4.18,5.96
20.957479000091553,-2.89,5.02,-4.03,7.05
20.96794819831848,-2.02,6.96,-3.05,7.86
20.977644205093384,1.39,9.93,-2.12,10.24
21.011969089508057,1.97,9.75,-3.18,10.44
21.013363122940063,-1.08,5.85,-4.28,7.32
21.014385223388672,-3.66,3.53,-4.74,6.95
21.0333092212677,-4.63,1.47,-4.34,6.51
21.03435516357422,-5.15,-2.24,-4.58,7.24
21.04924511909485,-4.76,-6.15,-4.51,8.99
21.050297260284424,0.53,-4.43,-2.48,5.1
21.066590309143066,3.49,-1.94,-0.83,4.07
21.068095207214355,-0.17,-2.49,-2.0,3.19
21.082143306732178,-4.53,-2.97,-3.7,6.55
21.114500999450684,-7.61,-3.47,-3.9,9.22
21.115853309631348,-8.8,-3.72,-2.82,9.96
21.116873264312744,-8.78,-3.88,-1.41,9.7
21.133738040924072,-8.0,-4.57,-0.25,9.21
21.134765148162842,-6.98,-5.56,0.3,8.92
21.14968204498291,-6.36,-5.9,0.24,8.67
21.15121030807495,-6.04,-5.48,-0.02,8.15
21.16684103012085,-5.84,-4.88,-0.18,7.61
21.16830825805664,-5.69,-4.36,-0.15,7.16
21.182164192199707,-5.67,-3.92,0.0,6.89
21.212971210479736,-5.65,-3.52,0.19,6.65
21.21430516242981,-5.7,-3.03,0.31,6.46
21.215347290039062,-5.73,-2.43,0.07,6.22
21.233708143234253,-5.39,-1.6,-0.56,5.65
21.234707355499268,-4.32,-0.47,-1.2,4.5
21.249393224716187,-2.62,0.3,-1.57,3.06
21.250444173812866,-0.83,0.53,-1.61,1.88
21.26659107208252,0.1,0.65,-1.14,1.31
21.268062114715576,0.18,0.96,-0.38,1.04
21.282347202301025,0.45,1.89,0.24,1.95
21.31185817718506,1.22,3.11,0.44,3.36
21.31367301940918,2.09,4.11,0.24,4.61
21.314752101898193,2.59,4.61,0.14,5.28
21.33320426940918,2.93,5.11,0.44,5.9
21.334228038787842,3.61,5.64,0.86,6.75
21.349698066711426,4.38,5.8,0.98,7.33
21.35115122795105,5.12,5.92,0.66,7.85
21.366721153259277,5.96,6.18,0.63,8.6
21.368195056915283,7.41,6.46,1.13,9.89
21.382310152053833,8.89,6.57,1.4,11.14
21.384316205978394,8.1,10.13,1.43,13.04
21.42700433731079,10.95,6.05,1.26,12.57
21.428162097930908,13.3,4.2,2.84,14.23
21.429136276245117,12.66,3.27,3.78,13.61
21.451407194137573,11.58,3.16,3.61,12.53
21.45283603668213,11.14,3.51,3.7,12.25
21.467050075531006,11.02,3.6,3.51,12.11
21.46847414970398,10.44,3.52,3.38,11.52
21.483862161636353,9.25,3.95,3.63,10.69
21.48529314994812,7.7,3.53,3.66,9.22
21.498996257781982,3.51,0.84,2.0,4.12
21.52948808670044,-2.7,-0.86,-0.26,2.84
21.530901193618774,-6.1,-0.79,-1.02,6.23
21.531917095184326,-1.94,0.78,-0.28,2.1
21.550180196762085,2.65,2.83,0.12,3.87
21.551282167434692,5.43,6.24,2.23,8.56
21.566694259643555,9.51,2.08,0.89,9.77
21.568233013153076,7.55,0.12,-0.66,7.57
21.583463191986084,4.23,0.96,0.07,4.33
21.584964275360107,3.29,-0.47,1.98,3.86
21.59877109527588,3.03,-2.1,2.79,4.62
21.628539085388184,2.51,-1.67,2.77,4.09
21.629884243011475,1.59,-0.21,2.36,2.85
21.630901336669922,0.99,0.18,1.62,1.9
21.650033235549927,0.76,-0.19,0.77,1.09
21.651089191436768,0.89,-0.27,0.95,1.32
21.66681718826294,0.88,-0.14,0.99,1.33
21.668317317962646,0.68,-0.1,0.48,0.83
21.683364152908325,0.52,-0.14,0.43,0.68
21.684824228286743,0.3,0.03,-0.08,0.31
21.698795318603516,0.11,0.28,-0.87,0.92
21.7278790473938,0.05,0.3,-1.05,1.09
21.729231119155884,-0.01,0.14,-0.97,0.98
21.73025131225586,0.25,0.03,-0.57,0.62
21.750110149383545,0.85,-0.05,-0.08,0.85
21.751147270202637,1.18,-0.21,-0.14,1.2
21.766854286193848,1.22,-0.21,-0.19,1.25
21.768245220184326,1.05,-0.1,-0.02,1.05
21.78330707550049,0.7,-0.04,0.16,0.71
21.784794330596924,0.25,0.01,0.33,0.41
21.79875922203064,-0.09,0.21,0.55,0.59
21.827378273010254,-0.13,0.32,0.41,0.53
21.82918620109558,0.26,0.19,-0.09,0.33
21.830158233642578,0.76,-0.02,-0.39,0.85
21.850886344909668,0.87,-0.1,-0.32,0.93
21.852243185043335,0.59,-0.1,-0.2,0.63
21.86675715446472,0.27,0.11,-0.24,0.37
21.86821413040161,0.1,0.33,-0.5,0.6
21.88338613510132,-0.02,0.29,-0.49,0.56
21.884854316711426,-0.05,0.16,-0.3,0.34
21.899904251098633,-0.15,-0.04,-0.14,0.2
21.92891025543213,-0.22,-0.19,0.04,0.29
21.930313110351562,-0.22,-0.17,-0.01,0.27
21.931270122528076,-0.19,-0.08,-0.08,0.22
21.950462341308594,-0.09,0.05,-0.07,0.12
21.95151424407959,-0.02,0.17,-0.04,0.17
21.966870307922363,-0.03,0.13,-0.14,0.19
21.968350172042847,0.04,0.11,-0.18,0.21
21.983437061309814,0.16,0.06,-0.1,0.19
21.98490023612976,0.2,-0.01,-0.07,0.21
21.999250173568726,0.22,0.06,-0.04,0.23
22.02880620956421,0.2,0.12,0.02,0.23
22.030059337615967,0.03,0.16,-0.05,0.17
22.031098127365112,-0.16,0.27,-0.24,0.39
22.05021619796753,-0.33,0.39,-0.61,0.79
22.051287174224854,-0.46,0.46,-1.09,1.26
22.066968202590942,-0.68,0.51,-1.21,1.47
22.068450212478638,-0.99,0.65,-1.01,1.55
22.083805084228516,-1.45,0.66,-0.79,1.77
22.085289001464844,-1.88,0.64,-0.76,2.12
22.09897232055664,-1.99,0.8,-0.72,2.26
22.12760305404663,-2.02,0.97,-0.98,2.44
22.128965139389038,-2.16,1.0,-1.25,2.68
22.130004167556763,-2.43,1.16,-1.5,3.08
22.15065312385559,-2.63,1.42,-1.93,3.55
22.15174913406372,-2.67,2.4,-1.58,3.92
22.167195320129395,-1.79,3.3,-0.85,3.84
22.16862726211548,-1.43,3.3,-0.66,3.65
22.183922290802002,-1.72,3.38,-0.93,3.9
22.185367107391357,-2.18,3.25,-1.28,4.11
22.198902130126953,-2.3,2.83,-1.56,3.96
22.200411319732666,-2.5,2.71,-1.83,4.11
22.244640350341797,-2.94,2.71,-2.11,4.52
22.24575424194336,-3.3,2.77,-2.37,4.91
22.246756076812744,-3.65,3.06,-2.73,5.48
22.2674560546875,-4.14,3.5,-3.3,6.34
22.26849913597107,-4.4,3.66,-3.6,6.76
22.283668041229248,-4.55,3.66,-3.78,6.95
22.2850661277771,-4.74,3.65,-4.0,7.19
22.30017328262329,-4.51,3.39,-4.21,7.03
22.301631212234497,-3.74,3.06,-4.14,6.36
22.315951347351074,-2.78,2.73,-4.1,5.65
22.34569215774536,-2.79,3.49,-4.26,6.17
22.34770917892456,-3.62,5.16,-4.34,7.65
22.348727226257324,-4.14,5.74,-4.18,8.21
22.36733102798462,-2.61,6.78,-2.22,7.59
22.368408203125,1.46,9.11,-0.11,9.22
22.38398504257202,1.58,7.84,-1.19,8.08
22.38545513153076,-1.11,5.28,-2.91,6.13
22.40034818649292,-3.9,3.85,-4.23,6.92
22.401815176010132,-5.5,2.37,-4.4,7.43
22.416227340698242,-6.52,-0.49,-4.26,7.8
22.445348262786865,-6.13,-5.62,-4.15,9.29
22.446760177612305,-0.94,-5.62,-2.62,6.27
22.447726249694824,2.46,-1.65,-0.77,3.06
22.46713399887085,-0.99,-1.54,-1.46,2.34
22.468168258666992,-5.2,-2.39,-3.13,6.52
22.483964204788208,-8.3,-2.78,-3.4,9.39
22.485453128814697,-9.71,-2.98,-2.31,10.41
22.500410079956055,-9.69,-3.24,-1.01,10.26
22.501887321472168,-8.58,-3.7,-0.11,9.34
22.516106128692627,-7.06,-4.62,0.33,8.44
22.544918060302734,-5.82,-5.44,0.2,7.96
22.546326160430908,-5.25,-5.48,-0.37,7.59
22.547327041625977,-4.96,-4.95,-1.0,7.07
22.567061185836792,-4.75,-4.25,-1.25,6.49
22.56815004348755,-4.49,-3.6,-1.16,5.87
22.584076166152954,-4.21,-3.07,-0.7,5.25
22.58556818962097,-4.15,-2.49,-0.07,4.84
22.600412130355835,-4.17,-1.89,0.04,4.57
22.601884126663208,-3.83,-1.4,-0.47,4.1
22.616028308868408,-2.93,-0.97,-1.59,3.47
22.6445791721344,-1.5,-0.5,-2.72,3.14
22.646003246307373,-0.07,0.12,-2.86,2.86
22.647025108337402,0.72,0.78,-1.89,2.16
22.667741298675537,0.84,1.15,-0.47,1.49
22.668801307678223,1.4,1.88,0.65,2.43
22.683841228485107,2.13,2.66,0.99,3.54
22.684840202331543,2.23,3.2,1.0,4.02
22.70063829421997,2.03,4.04,1.4,4.73
22.702108144760132,2.5,5.11,1.61,5.91
22.71614408493042,4.06,5.53,1.07,6.94
22.74470019340515,5.79,5.32,0.06,7.86
22.746047019958496,6.73,5.6,-0.76,8.78
22.74706220626831,8.09,6.43,-0.55,10.34
22.767529010772705,10.55,6.2,-0.62,12.25
22.76860523223877,12.56,5.01,-0.27,13.52
22.783682346343994,11.41,6.57,0.32,13.17
22.784709215164185,9.9,7.55,0.79,12.47
22.80049419403076,12.32,3.66,1.94,12.99
22.80199122428894,12.65,3.79,4.59,13.98
22.8162260055542,11.92,2.78,5.26,13.32
22.84267520904541,10.58,2.4,5.07,11.97
22.844041347503662,9.0,2.89,5.01,10.69
22.84504508972168,7.29,4.01,5.17,9.79
22.847469329833984,6.05,5.62,6.27,10.36
22.84897017478943,4.27,4.46,5.91,8.54
22.85035800933838,-0.8,0.45,2.17,2.35
22.853081226348877,-6.06,-0.7,-1.49,6.27
22.86322021484375,-5.25,0.06,-1.88,5.57
22.873062133789062,0.93,1.02,-1.19,1.82
22.883267164230347,4.2,2.07,0.06,4.68
22.915739059448242,6.78,5.67,2.24,9.11
22.916941165924072,10.22,1.93,0.52,10.41
22.91795015335083,8.25,0.19,-1.52,8.39
22.93295907974243,5.29,0.47,-0.37,5.32
22.93400812149048,3.68,-1.07,1.35,4.06
22.950191020965576,2.54,-1.87,2.3,3.9
22.95235824584961,2.02,-1.06,2.8,3.61
22.967098236083984,1.75,0.09,2.47,3.02
22.972244262695312,1.37,0.0,1.62,2.12
22.98280906677246,1.25,-0.4,1.18,1.76
22.992635250091553,1.09,-0.33,1.58,1.94
23.021722316741943,0.63,-0.16,1.74,1.85
23.022902011871338,0.26,-0.29,1.93,1.96
23.024136066436768,0.22,-0.36,1.59,1.64
23.03511118888855,0.43,-0.12,0.44,0.62
23.0420560836792,0.64,0.1,-0.84,1.06
23.051635265350342,0.56,0.21,-1.55,1.66
23.06173801422119,0.46,0.15,-1.78,1.84
23.071775197982788,0.51,0.12,-1.7,1.77
23.081887245178223,0.38,0.16,-1.28,1.34
23.091686248779297,0.09,0.19,-0.88,0.9
23.12342119216919,-0.11,0.2,-0.62,0.66
23.12474012374878,-0.32,0.24,-0.42,0.57
23.12580108642578,-0.51,0.17,-0.12,0.55
23.13192915916443,-0.61,0.08,0.27,0.67
23.141091346740723,-0.47,0.07,0.42,0.63
23.150971174240112,-0.04,0.04,0.34,0.34
23.160784244537354,0.51,-0.03,0.16,0.53
23.17085027694702,0.97,-0.15,0.03,0.98
23.18121910095215,1.22,-0.22,0.09,1.24
23.190945148468018,1.21,-0.26,0.29,1.27
23.22240400314331,1.04,-0.25,0.31,1.11
23.223875045776367,0.72,-0.2,0.24,0.78
23.224908351898193,0.33,-0.02,0.11,0.34
23.23446035385132,0.04,0.1,0.04,0.11
23.24024534225464,-0.23,0.04,0.05,0.23
23.250168323516846,-0.27,0.0,-0.16,0.31
23.260176181793213,0.0,0.04,-0.31,0.31
23.27023220062256,0.28,0.04,-0.38,0.47
23.280423164367676,0.49,0.01,-0.27,0.55
23.290210247039795,0.46,0.07,-0.21,0.51
23.321776151657104,0.24,0.15,-0.27,0.39
23.32310724258423,0.03,0.2,-0.29,0.35
23.324149131774902,-0.11,0.15,-0.22,0.28
23.33462119102478,-0.23,0.19,-0.28,0.4
23.33950114250183,-0.48,0.33,-0.38,0.69
23.350107192993164,-0.69,0.37,-0.51,0.93
23.359361171722412,-0.71,0.44,-0.68,1.07
23.369479179382324,-0.9,0.45,-1.02,1.43
23.379675149917603,-1.25,0.52,-1.37,1.92
23.3894681930542,-1.44,0.64,-1.46,2.14
23.42670202255249,-1.58,0.69,-1.3,2.15
23.428094148635864,-1.71,0.64,-1.01,2.08
23.42905902862549,-1.83,0.64,-1.03,2.19
23.431119203567505,-2.05,0.66,-1.36,2.54
23.438952207565308,-2.07,0.73,-1.51,2.66
23.44882321357727,-1.76,0.73,-1.34,2.32
23.45877504348755,-1.6,0.77,-1.48,2.31
23.468942165374756,-1.44,0.94,-1.89,2.55
23.47884225845337,-1.28,1.51,-2.1,2.88
23.48860502243042,-1.47,2.76,-1.92,3.66
23.52560329437256,-1.89,4.34,-1.74,5.04
23.527005195617676,-1.93,3.98,-2.55,5.1
23.52799129486084,-1.68,3.86,-1.47,4.45
23.530259132385254,-2.38,3.73,-1.2,4.58
23.55071520805359,-3.29,3.56,-1.52,5.08
23.55178213119507,-3.69,3.75,-1.65,5.51
23.56755518913269,-3.66,4.04,-2.1,5.84
23.569047212600708,-3.77,4.16,-2.44,6.12
23.583235263824463,-4.02,4.24,-2.75,6.45
23.5881290435791,-4.48,4.13,-3.36,6.95
23.627018213272095,-4.89,3.97,-3.47,7.19
23.62816619873047,-4.93,3.69,-3.58,7.12
23.629146099090576,-4.66,3.33,-4.14,7.06
23.631582260131836,-4.17,2.96,-4.43,6.76
23.637250185012817,-3.62,3.26,-4.8,6.83
23.64716625213623,-3.7,4.83,-5.26,8.04
23.657190322875977,-4.02,6.14,-5.28,9.04
23.667092323303223,-2.94,7.1,-4.15,8.73
23.67726230621338,1.3,9.54,-2.11,9.85
23.687294006347656,2.82,9.74,-2.41,10.42
23.723562240600586,0.13,6.07,-3.63,7.07
23.72490930557251,-2.51,3.23,-4.54,6.11
23.726089000701904,-4.12,0.21,-4.44,6.06
23.73127317428589,-5.48,-4.04,-4.65,8.24
23.73652410507202,-3.58,-7.21,-3.76,8.88
23.750510215759277,3.59,-4.51,-1.05,5.85
23.756500244140625,3.17,-3.74,-0.54,4.93
23.767369270324707,-1.91,-3.96,-2.37,4.99
23.776440143585205,-6.23,-4.07,-3.51,8.22
23.78656816482544,-8.36,-4.31,-2.94,9.85
23.796537160873413,-8.75,-4.5,-1.79,10.0
23.826242208480835,-8.34,-4.9,-0.61,9.69
23.827455043792725,-7.64,-5.6,0.24,9.47
23.82863712310791,-7.26,-6.19,0.52,9.55
23.835715293884277,-7.04,-5.88,0.48,9.18
23.845795154571533,-6.59,-5.1,0.29,8.33
23.85576820373535,-6.08,-4.53,0.04,7.58
23.8660831451416,-5.61,-3.99,-0.07,6.88
23.87583303451538,-5.19,-3.51,-0.03,6.26
23.885799169540405,-4.96,-2.8,0.06,5.69
23.895740032196045,-4.93,-2.11,-0.2,5.36
23.927321195602417,-4.82,-1.51,-0.74,5.1
23.92845916748047,-4.07,-0.56,-1.44,4.35
23.929436206817627,-2.66,0.14,-2.12,3.4
23.934977054595947,-1.2,0.38,-2.11,2.45
23.945192337036133,-0.35,0.57,-1.29,1.45
23.95513916015625,0.29,0.98,-0.41,1.1
23.965065002441406,1.01,1.62,0.18,1.91
23.975192070007324,1.32,2.23,0.35,2.61
23.985292196273804,0.95,2.78,0.46,2.97
23.994702339172363,0.48,3.53,0.97,3.69
24.027846336364746,0.66,4.31,1.45,4.59
24.029261112213135,1.21,4.47,1.16,4.77
24.03028917312622,1.69,4.87,0.68,5.19
24.051295280456543,3.07,5.95,0.28,6.7
24.052364349365234,5.29,6.32,-0.3,8.24
24.067331314086914,7.52,6.15,-0.54,9.72
24.06836223602295,9.52,5.7,-0.43,11.1
24.084702014923096,10.64,5.03,-0.1,11.76
24.086194038391113,10.56,4.22,0.83,11.4
24.0999813079834,9.97,3.23,2.12,10.69
24.12895917892456,9.37,2.23,3.19,10.14
24.130361080169678,8.04,3.76,3.64,9.59
24.131385326385498,7.0,7.03,3.56,10.54
24.151512145996094,8.73,4.04,3.54,10.25
24.152559280395508,10.15,3.13,4.56,11.55
24.167695999145508,10.26,2.21,4.42,11.38
24.169098138809204,9.45,2.13,3.86,10.42
24.184996128082275,8.29,2.8,3.67,9.48
24.186455249786377,7.02,3.56,3.59,8.65
24.200117111206055,3.19,1.73,1.98,4.13
24.23210906982422,-2.98,-0.05,-0.84,3.09
24.233445167541504,-5.65,1.36,-1.86,6.1
24.234475135803223,-1.25,2.36,-0.01,2.67
24.25151300430298,3.55,2.48,0.67,4.38
24.252581119537354,4.55,4.09,1.68,6.34
24.267980098724365,6.43,4.71,1.54,8.11
24.269474029541016,7.38,0.39,-0.37,7.39
24.28471803665161,4.91,1.53,0.38,5.15
24.286165237426758,3.36,0.5,2.15,4.02
24.300034999847412,2.59,-1.73,2.31,3.87
24.3323712348938,3.05,-1.97,2.28,4.28
24.33366322517395,3.3,-1.03,2.31,4.15
24.334676265716553,2.82,-0.09,2.22,3.59
24.351591110229492,2.02,-0.09,2.07,2.89
24.352581024169922,1.16,-0.19,1.63,2.0
24.36785125732422,0.39,-0.07,0.85,0.93
24.36935520172119,-0.09,0.14,0.12,0.2
24.384916305541992,-0.16,0.26,-0.05,0.3
24.38634204864502,-0.17,0.07,0.07,0.19
24.39995527267456,-0.11,-0.02,-0.34,0.35
24.429079055786133,-0.16,0.03,-1.07,1.08
24.430575132369995,-0.26,0.17,-1.55,1.58
24.431533336639404,-0.12,0.17,-1.42,1.43
24.451757192611694,0.39,0.1,-0.94,1.02
24.45279312133789,1.03,-0.06,-0.63,1.2
24.468021154403687,1.49,-0.19,-0.48,1.57
24.46950101852417,1.46,-0.26,-0.31,1.51
24.484707355499268,1.1,-0.22,0.06,1.12
24.48617720603943,0.49,-0.14,0.32,0.6
24.50018310546875,-0.09,0.04,0.32,0.33
24.53057312965393,-0.45,0.12,0.15,0.48
24.532020092010498,-0.3,0.05,0.37,0.47
24.533048152923584,0.15,-0.05,0.2,0.25
24.551775217056274,0.63,-0.21,-0.21,0.69
24.55285120010376,0.94,-0.23,-0.26,1.0
24.568239212036133,0.99,-0.17,-0.13,1.01
24.569714069366455,0.86,0.03,-0.01,0.86
24.584076166152954,0.65,0.27,-0.17,0.72
24.5855712890625,0.37,0.31,-0.31,0.57
24.600152015686035,0.03,0.23,-0.36,0.42
24.601640224456787,-0.28,-0.03,-0.22,0.35
24.645605087280273,-0.48,-0.14,0.16,0.52
24.646799087524414,-0.56,-0.02,0.25,0.61
24.647813320159912,-0.55,0.18,-0.32,0.66
24.668880224227905,-0.32,0.28,-0.59,0.72
24.670384168624878,-0.08,0.35,-0.38,0.52
24.684811115264893,-0.06,0.35,-0.27,0.44
24.686196327209473,-0.17,0.24,-0.24,0.37
24.701178073883057,-0.27,0.14,-0.27,0.4
24.702641010284424,-0.35,0.12,-0.41,0.55
24.717165231704712,-0.34,0.27,-0.47,0.63
24.74722123146057,-0.19,0.25,-0.35,0.47
24.748542308807373,-0.19,0.21,-0.37,0.46
24.74950408935547,-0.32,0.33,-0.53,0.7
24.768400192260742,-0.44,0.51,-0.62,0.91
24.769440174102783,-0.73,0.68,-0.69,1.21
24.7849383354187,-1.07,0.77,-0.83,1.55
24.786396026611328,-1.35,0.63,-0.95,1.76
24.80130434036255,-1.59,0.49,-1.37,2.15
24.802712202072144,-1.59,0.56,-1.57,2.3
24.81709122657776,-1.71,0.58,-1.49,2.34
24.847156047821045,-2.11,0.61,-1.43,2.62
24.848560333251953,-2.73,0.68,-1.29,3.09
24.849576234817505,-3.16,1.06,-1.32,3.58
24.869214057922363,-3.09,2.23,-1.39,4.05
24.87026834487915,-2.59,3.34,-1.47,4.47
24.8851261138916,-1.78,3.6,-1.21,4.19
24.88660216331482,-1.7,3.59,-1.24,4.16
24.901549339294434,-2.13,3.27,-1.49,4.17
24.903057098388672,-2.59,2.92,-1.53,4.19
24.917182207107544,-3.05,2.98,-1.89,4.66
24.948573112487793,-3.58,3.28,-2.3,5.37
24.94992733001709,-3.99,3.72,-3.01,6.23
24.95095419883728,-4.36,4.34,-3.62,7.13
24.968570232391357,-4.94,4.9,-3.97,8.01
24.969606161117554,-5.51,5.05,-4.34,8.64
24.985104084014893,-5.7,4.9,-4.24,8.63
24.986578226089478,-5.84,4.79,-4.06,8.57
25.000166177749634,-6.0,4.5,-4.54,8.76
25.001599311828613,-5.26,3.68,-4.72,7.96
25.017451286315918,-3.55,2.93,-4.34,6.32
25.04606533050537,-2.73,3.47,-4.93,6.61
25.047495126724243,-3.23,6.11,-5.65,8.92
25.048509120941162,-2.23,8.18,-4.49,9.59
25.068227291107178,2.07,11.56,-1.88,11.89
25.069298267364502,3.31,11.28,-1.87,11.9
25.084898233413696,0.1,6.42,-3.61,7.36
25.085962295532227,-3.12,3.72,-5.05,7.0
25.101522207260132,-4.91,0.94,-5.47,7.41
25.103044033050537,-6.04,-3.52,-5.83,9.1
25.117199182510376,-5.14,-6.87,-4.87,9.86
25.14488935470581,1.98,-4.05,-1.57,4.77
25.14630126953125,3.38,-3.1,0.16,4.58
25.147332191467285,-0.84,-3.55,-1.89,4.1
25.14939832687378,-4.92,-3.77,-3.77,7.25
25.150787353515625,-7.67,-4.34,-3.88,9.62
25.155787229537964,-8.67,-4.68,-2.85,10.25
25.16605019569397,-8.3,-4.81,-1.51,9.71
25.175873279571533,-7.23,-4.87,-0.49,8.73
25.185744285583496,-6.04,-5.2,0.21,7.97
25.195337295532227,-5.34,-5.66,0.52,7.79
25.224794149398804,-5.2,-5.75,0.36,7.76
25.226001262664795,-5.19,-5.44,-0.11,7.51
25.22721529006958,-5.33,-4.84,-0.71,7.23
25.235249042510986,-5.74,-3.98,-0.98,7.05
25.24512529373169,-6.33,-3.13,-0.64,7.09
25.25530433654785,-6.53,-2.49,0.22,6.99
25.265284061431885,-6.18,-2.03,0.95,6.57
25.275496006011963,-5.37,-1.69,0.58,5.65
25.285332202911377,-4.33,-1.23,-0.85,4.58
25.29499912261963,-3.29,-0.43,-1.91,3.82
25.332969188690186,-2.09,0.53,-2.05,2.97
25.334352016448975,-0.75,1.27,-1.3,1.96
25.335361003875732,0.38,1.67,-0.27,1.73
25.352067232131958,1.24,1.88,0.29,2.27
25.353137016296387,1.83,2.44,0.28,3.06
25.368088245391846,1.88,3.27,0.14,3.77
25.369179248809814,1.71,4.21,0.3,4.55
25.385178089141846,1.64,5.09,0.54,5.37
25.38663625717163,2.15,5.96,0.74,6.37
25.400573253631592,3.69,6.63,0.84,7.63
25.404200077056885,5.74,6.6,0.92,8.79
25.44440221786499,7.57,6.37,1.13,9.95
25.44557213783264,8.91,6.03,1.2,10.82
25.446821212768555,9.53,5.54,1.42,11.11
25.448426246643066,9.64,5.06,1.86,11.04
25.45366907119751,9.92,4.63,2.57,11.24
25.463698148727417,9.59,4.88,3.04,11.18
25.473722219467163,8.39,7.09,3.42,11.5
25.48359727859497,9.56,5.14,3.84,11.51
25.493755340576172,10.23,4.29,4.88,12.11
25.503661155700684,10.31,3.27,4.86,11.85
25.534314155578613,10.1,2.68,4.23,11.27
25.535637140274048,9.6,2.88,3.41,10.58
25.536659240722656,8.67,3.87,2.92,9.93
25.552189350128174,7.59,4.86,2.56,9.36
25.553260326385498,3.18,2.45,0.47,4.04
25.568050146102905,-4.24,1.6,-1.55,4.78
25.57262134552002,-6.68,2.67,-0.38,7.2
25.585225105285645,-1.72,2.27,2.17,3.58
25.59279203414917,2.69,-0.64,1.79,3.29
25.602680206298828,5.15,-0.66,1.2,5.32
25.633973121643066,6.1,2.31,0.92,6.58
25.635305166244507,5.69,4.97,1.23,7.65
25.636332035064697,7.05,4.15,0.68,8.2
25.65215826034546,6.77,0.28,-0.47,6.79
25.653245210647583,4.11,0.71,0.8,4.24
25.66833734512329,3.18,0.25,2.54,4.07
25.67194700241089,3.25,-1.12,2.32,4.14
25.685492038726807,3.36,-1.22,1.77,3.98
25.692023277282715,2.5,-0.5,1.2,2.81
25.70193910598755,1.53,0.08,0.84,1.74
25.735027313232422,0.86,0.1,0.73,1.13
25.736411094665527,0.15,-0.09,0.89,0.9
25.737426280975342,-0.44,-0.18,0.75,0.88
25.75222635269165,-0.52,-0.13,0.44,0.69
25.753291130065918,-0.3,0.0,0.27,0.4
25.76849913597107,-0.2,-0.02,0.13,0.23
25.771141052246094,-0.3,-0.07,-0.4,0.5
25.78526210784912,-0.37,-0.04,-1.24,1.29
25.791483163833618,-0.21,0.03,-1.67,1.68
25.80116605758667,0.13,0.08,-1.46,1.46
25.840214252471924,0.58,0.06,-1.2,1.33
25.84159231185913,1.03,0.08,-1.05,1.47
25.842609167099,1.35,0.06,-1.08,1.72
25.852688312530518,1.28,0.04,-0.88,1.55
25.853759288787842,0.6,-0.05,-0.37,0.7
25.868354320526123,-0.41,0.04,0.03,0.41
25.870403289794922,-1.15,0.25,0.63,1.33
25.885675191879272,-1.39,0.4,0.78,1.64
25.890668153762817,-0.88,0.24,0.22,0.93
25.900285243988037,0.4,-0.04,0.12,0.41
25.939218044281006,1.37,-0.28,0.43,1.46
25.940511226654053,1.72,-0.29,0.44,1.79
25.941509246826172,1.52,-0.24,0.14,1.54
25.94253420829773,1.12,-0.22,-0.12,1.14
25.949767112731934,0.77,-0.18,-0.13,0.8
25.959923267364502,0.45,-0.07,0.01,0.45
25.969882011413574,0.32,0.01,0.05,0.32
25.979811191558838,0.11,0.08,-0.06,0.14
25.989990234375,-0.02,0.15,-0.18,0.23
25.999985218048096,0.09,0.2,0.06,0.22
26.038239002227783,0.29,0.18,-0.01,0.34
26.039403200149536,0.47,0.05,-0.33,0.57
26.040415287017822,0.5,-0.07,-0.56,0.75
26.052224159240723,0.32,0.0,-0.64,0.71
26.053229331970215,0.15,0.1,-0.52,0.55
26.06792116165161,0.01,0.14,-0.16,0.21
26.068976163864136,-0.23,0.07,0.11,0.26
26.085743188858032,-0.61,0.04,0.15,0.62
26.089041233062744,-0.95,0.03,0.0,0.95
26.100004196166992,-1.1,0.12,-0.23,1.13
26.13654923439026,-1.09,0.34,-0.48,1.23
26.13784623146057,-0.8,0.49,-0.53,1.07
26.138853073120117,-0.48,0.42,-0.37,0.73
26.152677059173584,-0.56,0.33,-0.49,0.81
26.153743267059326,-0.73,0.21,-0.68,1.01
26.168493270874023,-0.83,0.22,-0.73,1.12
26.169536113739014,-0.96,0.39,-0.83,1.32
26.185648202896118,-1.08,0.58,-1.03,1.6
26.18841028213501,-1.2,0.62,-1.24,1.83
26.200817108154297,-1.44,0.59,-1.55,2.19
26.20816922187805,-1.72,0.75,-1.43,2.35
26.24468421936035,-1.6,0.93,-1.15,2.17
26.245842218399048,-1.47,1.26,-1.32,2.34
26.247129201889038,-1.53,2.31,-1.21,3.02
26.24881935119629,-1.09,3.2,-0.7,3.45
26.257785320281982,-1.27,3.34,-0.87,3.67
26.267536163330078,-1.68,3.28,-1.22,3.88
26.277570247650146,-1.95,2.94,-1.57,3.86
26.28775930404663,-2.3,2.91,-1.95,4.19
26.297712326049805,-2.68,2.94,-2.22,4.55
26.307528018951416,-3.16,3.04,-2.62,5.1
26.33997106552124,-3.58,3.45,-3.07,5.84
26.341376304626465,-4.19,3.95,-3.45,6.71
26.34239435195923,-4.89,4.53,-3.87,7.7
26.35265612602234,-5.43,4.76,-4.19,8.34
26.35678219795227,-5.66,4.7,-4.07,8.4
26.3685040473938,-5.84,4.63,-3.96,8.43
26.376753330230713,-5.79,3.95,-4.1,8.12
26.38687229156494,-5.14,3.14,-4.05,7.25
26.396770000457764,-3.88,2.48,-3.94,6.06
26.406818151474,-2.76,2.49,-3.89,5.38
26.43799114227295,-2.31,4.22,-3.62,6.02
26.43928813934326,-1.72,6.3,-3.23,7.28
26.440291166305542,0.68,8.97,-2.48,9.33
26.4462251663208,2.92,11.27,-2.86,11.98
26.45621633529663,0.2,8.12,-3.87,8.99
26.466336250305176,-3.34,4.94,-4.41,7.41
26.476012229919434,-5.49,2.59,-4.31,7.44
26.486046314239502,-6.59,-0.06,-4.29,7.86
26.496042251586914,-7.14,-3.97,-4.69,9.42
26.506020069122314,-3.7,-5.93,-3.47,7.8
26.537204265594482,2.92,-2.41,-1.25,3.98
26.538552284240723,2.15,-1.65,-1.02,2.89
26.53954315185547,-2.54,-2.25,-2.74,4.36
26.552703142166138,-6.71,-2.6,-3.83,8.15
26.555333137512207,-9.12,-2.88,-3.25,10.1
26.568480014801025,-9.65,-2.97,-1.8,10.25
26.575318336486816,-8.89,-3.41,-0.52,9.53
26.585424184799194,-7.7,-4.23,0.21,8.78
26.59538722038269,-6.66,-4.94,0.26,8.29
26.605138301849365,-6.02,-5.12,-0.22,7.9
26.642154216766357,-5.55,-4.7,-0.78,7.31
26.643571138381958,-5.15,-4.08,-1.04,6.65
26.644658088684082,-4.83,-3.7,-0.99,6.16
26.64888906478882,-4.7,-3.42,-0.8,5.86
26.65455722808838,-4.96,-2.97,-0.43,5.79
26.668809175491333,-5.33,-2.25,-0.24,5.79
26.6743483543396,-5.36,-1.41,-0.56,5.57
26.685683250427246,-4.53,-0.59,-1.24,4.73
26.69472312927246,-2.81,-0.14,-1.82,3.35
26.70440912246704,-1.0,-0.15,-1.92,2.17
26.741321086883545,-0.15,-0.32,-1.26,1.3
26.742704153060913,0.31,0.26,0.06,0.4
26.743805170059204,1.18,1.16,1.08,1.97
26.75226616859436,1.72,1.67,1.23,2.69
26.753716230392456,1.33,2.23,1.08,2.81
26.76853919029236,0.79,3.35,1.31,3.68
26.773784160614014,1.17,4.42,1.61,4.84
26.78568720817566,2.42,5.02,1.49,5.76
26.793857097625732,3.84,5.38,0.88,6.66
26.803816318511963,5.58,6.39,0.7,8.51
26.8425030708313,7.83,7.01,0.8,10.53
26.843793153762817,10.11,6.7,0.9,12.16
26.84483814239502,11.58,6.09,0.97,13.11
26.849234104156494,11.75,5.27,1.23,12.93
26.868934154510498,10.41,5.92,1.88,12.12
26.869990348815918,8.26,9.87,2.51,13.11
26.885818004608154,11.25,5.46,3.21,12.91
26.887246131896973,13.22,3.96,5.2,14.74
26.901304244995117,12.93,3.01,5.64,14.42
26.902815341949463,12.04,2.71,4.94,13.29
26.948121070861816,10.9,3.62,4.74,12.42
26.94926404953003,10.21,4.86,4.89,12.31
26.950292110443115,9.0,4.13,4.4,10.83
26.96960210800171,3.8,0.32,1.51,4.1
26.9706552028656,-3.47,-1.47,-1.85,4.19
26.98556613922119,-5.65,-0.22,-2.38,6.13
26.987056255340576,-0.29,1.98,0.06,2.0
27.002552032470703,4.52,2.86,0.82,5.41
27.004029273986816,5.21,4.63,1.48,7.12
27.018129348754883,6.89,4.9,0.96,8.5
27.019594192504883,7.93,0.28,-1.22,8.02
27.072503089904785,4.93,2.02,-0.43,5.34
27.07371234893799,2.78,1.47,2.22,3.84
27.074689149856567,1.62,-2.02,2.32,3.47
27.086146354675293,1.76,-2.5,1.77,3.53
27.087213039398193,1.65,-1.3,1.34,2.49
27.102399349212646,1.33,0.17,1.38,1.92
27.103801250457764,1.33,0.57,1.82,2.32
27.119392156600952,1.05,-0.15,1.25,1.63
27.120880126953125,0.83,-0.67,0.9,1.39
27.134485244750977,0.95,-0.57,1.15,1.59
27.165271282196045,1.29,-0.15,1.14,1.72
27.16665029525757,1.28,0.08,0.76,1.49
27.167665004730225,0.76,0.13,0.06,0.77
27.18634033203125,0.27,0.14,-0.66,0.72
27.187379121780396,0.17,0.19,-0.9,0.93
27.20240020751953,0.38,0.24,-0.91,1.01
27.203842163085938,0.59,0.27,-1.1,1.27
27.21974802017212,0.73,0.18,-1.18,1.39
27.22126317024231,0.76,0.0,-0.81,1.11
27.23493218421936,0.65,-0.14,-0.23,0.7
27.265634059906006,0.41,-0.12,0.28,0.51
27.266947269439697,0.07,-0.02,0.37,0.37
27.268020153045654,-0.11,0.11,0.05,0.16
27.286330223083496,0.02,0.18,-0.22,0.28
27.287419319152832,0.33,0.06,-0.19,0.38
27.302439212799072,0.66,-0.1,-0.1,0.67
27.303874015808105,0.73,-0.17,-0.15,0.76
27.319462299346924,0.51,-0.13,-0.08,0.53
27.32095718383789,0.22,0.01,-0.14,0.26
27.334818124771118,-0.09,0.09,-0.18,0.22
27.365061283111572,-0.32,0.15,-0.19,0.4
27.366355180740356,-0.46,0.15,-0.24,0.54
27.367319107055664,-0.57,0.11,-0.25,0.63
27.386293172836304,-0.4,0.07,-0.45,0.6
27.387339115142822,-0.07,-0.02,-0.46,0.46
27.402117252349854,0.33,0.04,-0.15,0.36
27.403404235839844,0.46,0.15,-0.01,0.48
27.419525146484375,0.4,0.13,-0.12,0.43
27.42097806930542,0.23,0.06,-0.07,0.24
27.434876203536987,0.07,0.15,-0.06,0.17
27.465341091156006,-0.02,0.24,-0.19,0.3
27.46718120574951,-0.03,0.25,-0.3,0.39
27.468164205551147,-0.1,0.18,-0.12,0.23
27.486451148986816,-0.2,0.01,-0.08,0.21
27.487455129623413,-0.23,-0.09,-0.11,0.27
27.50270414352417,-0.29,-0.13,-0.1,0.33
27.504180192947388,-0.35,-0.08,-0.13,0.38
27.51952815055847,-0.4,0.17,-0.38,0.57
27.520992279052734,-0.48,0.34,-0.7,0.91
27.53498411178589,-0.63,0.49,-0.78,1.11
27.564719200134277,-0.92,0.52,-0.98,1.44
27.56608819961548,-1.31,0.29,-1.38,1.92
27.567159175872803,-1.71,0.09,-1.57,2.32
27.58623719215393,-1.82,0.11,-1.57,2.4
27.587213039398193,-1.62,0.39,-1.56,2.28
27.602220058441162,-1.45,0.65,-1.38,2.1
27.603650093078613,-1.41,0.94,-1.54,2.28
27.619519233703613,-1.65,1.09,-2.24,2.98
27.62099313735962,-1.81,1.46,-2.69,3.55
27.634952068328857,-1.81,2.91,-2.14,4.04
27.665728092193604,-1.54,3.95,-1.76,4.59
27.667163133621216,-1.48,3.97,-1.31,4.43
27.668166160583496,-1.89,3.92,-1.26,4.53
27.686439037322998,-2.41,3.66,-1.27,4.56
27.687451124191284,-2.84,3.53,-1.41,4.74
27.702710151672363,-2.99,3.51,-1.52,4.85
27.70419716835022,-3.43,4.13,-1.78,5.65
27.71975016593933,-4.3,4.72,-2.33,6.79
27.721229076385498,-4.73,4.61,-2.7,7.13
27.734910011291504,-4.97,4.29,-3.07,7.24
27.766656160354614,-5.41,4.46,-3.26,7.73
27.767943143844604,-5.59,4.1,-3.42,7.73
27.76882314682007,-5.38,3.48,-3.74,7.41
27.786845207214355,-4.45,2.87,-3.97,6.61
27.78787922859192,-3.16,2.38,-4.31,5.85
27.803547143936157,-2.27,2.71,-5.02,6.13
27.80503225326538,-2.64,4.42,-5.44,7.48
27.819737195968628,-2.57,6.01,-4.8,8.1
27.82122015953064,0.53,8.34,-2.56,8.74
27.83503222465515,3.76,10.77,-1.75,11.54
27.836507320404053,1.63,8.07,-2.91,8.73
27.884026050567627,-1.85,5.16,-4.55,7.12
27.885220050811768,-4.16,2.86,-4.85,7.0
27.886244297027588,-5.6,-0.52,-5.07,7.57
27.903342247009277,-6.56,-4.64,-5.22,9.58
27.90446424484253,-3.14,-5.55,-3.7,7.37
27.91969633102417,3.09,-2.06,-1.11,3.87
27.921186208724976,1.24,-2.03,-1.1,2.62
27.93613314628601,-3.4,-2.8,-2.8,5.21
27.93758726119995,-7.28,-3.29,-3.47,8.7
27.951751232147217,-9.12,-3.63,-2.52,10.13
27.98199701309204,-9.42,-3.88,-1.05,10.24
27.983817100524902,-8.9,-4.34,0.21,9.9
27.984836101531982,-8.01,-5.22,0.72,9.58
28.003063201904297,-7.27,-5.67,0.46,9.23
28.0041081905365,-6.6,-5.5,-0.01,8.59
28.01961326599121,-5.96,-4.9,-0.22,7.71
28.021114349365234,-5.51,-4.33,-0.24,7.01
28.03631830215454,-5.21,-3.84,-0.08,6.47
28.03781819343567,-5.12,-3.51,-0.13,6.2
28.051685333251953,-5.03,-3.21,-0.28,5.97
28.081382274627686,-4.86,-2.61,-0.47,5.53
28.082781314849854,-4.56,-1.92,-0.96,5.04
28.083842277526855,-3.83,-1.26,-1.66,4.36
28.102939128875732,-2.56,-0.71,-1.97,3.3
28.103983163833618,-1.01,-0.33,-1.96,2.22
28.119553089141846,0.33,0.02,-1.47,1.5
28.121047019958496,1.43,0.78,-0.76,1.79
28.136442184448242,2.3,1.68,-0.18,2.85
28.137924194335938,2.32,2.52,0.2,3.43
28.151790142059326,1.49,3.59,0.45,3.91
28.181145191192627,0.73,4.86,0.75,4.97
28.182587146759033,0.6,6.1,1.26,6.25
28.183597087860107,1.39,7.04,1.64,7.36
28.202867031097412,2.85,7.24,1.18,7.86
28.203887224197388,4.85,7.43,0.54,8.88
28.219658136367798,7.32,7.23,0.23,10.29
28.22070622444153,9.66,6.57,0.21,11.68
28.23630714416504,11.2,5.61,0.39,12.53
28.237799167633057,12.01,4.36,0.67,12.79
28.25191831588745,11.95,2.94,1.09,12.35
28.281243324279785,11.16,2.18,1.8,11.51
28.2827091217041,10.72,2.25,2.63,11.26
28.28373432159424,10.6,2.09,3.34,11.3
28.30283522605896,8.77,4.49,3.87,10.58
28.303908348083496,7.02,6.85,4.02,10.6
28.32007932662964,8.4,3.85,3.98,10.06
28.321550130844116,9.74,2.87,5.08,11.35
28.336538314819336,9.52,1.8,5.05,10.92
28.338016033172607,7.11,1.66,4.43,8.54
28.351935148239136,1.85,0.75,1.75,2.65
28.38197612762451,-5.95,0.99,-1.07,6.12
28.383310317993164,-7.63,4.19,-0.63,8.72
28.384329319000244,-0.39,4.88,0.82,4.96
28.40302324295044,4.71,3.89,-0.03,6.1
28.40409016609192,4.93,4.29,-0.15,6.53
28.41976022720337,4.32,4.5,0.58,6.26
28.420812129974365,5.63,2.12,0.48,6.03
28.43650531768799,4.98,-0.53,-0.07,5.0
28.437981128692627,3.52,-0.59,1.41,3.83
28.451884269714355,3.07,-1.99,2.57,4.47
28.482365131378174,3.37,-2.64,1.91,4.68
28.48365616798401,4.15,-1.53,1.51,4.67
28.484645128250122,4.03,-0.2,1.4,4.27
28.503132343292236,3.08,0.59,1.08,3.31
28.5041241645813,1.89,-0.07,0.94,2.11
28.519784212112427,1.42,-0.29,1.32,1.96
28.52126407623291,0.93,-0.07,1.04,1.39
28.536614179611206,0.02,0.23,0.73,0.76
28.538114070892334,-0.69,0.3,0.85,1.13
28.55195903778076,-0.8,-0.03,0.52,0.95
28.582694053649902,-0.45,-0.1,-0.22,0.51
28.584026336669922,-0.07,-0.01,-0.76,0.76
28.585066318511963,0.34,0.05,-1.23,1.27
28.603472232818604,0.87,0.03,-1.25,1.52
28.604493141174316,1.43,-0.02,-0.96,1.72
28.619962215423584,1.54,-0.13,-1.01,1.84
28.62145233154297,1.26,-0.12,-0.83,1.51
28.63645315170288,0.78,0.0,-0.33,0.84
28.637928009033203,0.26,-0.01,-0.09,0.27
28.65196704864502,0.04,-0.11,0.2,0.23
28.65342903137207,0.13,-0.05,0.49,0.5
28.6978120803833,0.06,-0.05,0.81,0.81
28.69892716407776,0.05,-0.02,0.92,0.92
28.699977159500122,0.11,0.08,0.66,0.67
28.720110177993774,0.25,0.1,0.3,0.4
28.721155166625977,0.57,0.03,-0.02,0.57
28.736215114593506,0.88,-0.12,-0.41,0.97
28.737616062164307,0.87,-0.12,-0.56,1.04
28.753124237060547,0.57,-0.08,-0.33,0.66
28.754584312438965,0.34,-0.07,-0.06,0.35
28.768656253814697,0.17,-0.03,0.12,0.21
28.799175262451172,0.1,-0.02,0.26,0.27
28.800559043884277,0.06,-0.02,0.32,0.32
28.80151128768921,0.02,0.12,0.29,0.31
28.820178031921387,-0.15,0.18,0.16,0.28
28.821235179901123,-0.2,0.14,0.04,0.24
28.83687114715576,0.13,0.09,0.0,0.15
28.838343143463135,0.48,0.05,0.01,0.48
28.85327911376953,0.62,0.04,0.01,0.62
28.854636192321777,0.49,0.08,-0.2,0.53
28.86888027191162,0.2,0.13,-0.42,0.48
28.897922039031982,-0.05,0.21,-0.13,0.25
28.899331092834473,-0.23,0.3,-0.24,0.44
28.900326251983643,-0.44,0.35,-1.05,1.19
28.920080184936523,-0.7,0.45,-1.68,1.87
28.92113208770752,-0.98,0.47,-2.25,2.49
28.936719179153442,-1.11,0.47,-2.56,2.82
28.938115119934082,-1.5,0.35,-2.47,2.91
28.953169345855713,-2.2,0.22,-2.22,3.13
28.954613208770752,-2.67,0.34,-1.63,3.14
28.968709230422974,-2.9,0.79,-1.03,3.17
28.99769616127014,-3.06,1.13,-1.18,3.46
28.999064207077026,-3.2,1.21,-1.74,3.83
29.000071048736572,-3.13,1.13,-2.06,3.91
29.02037811279297,-2.48,1.17,-2.13,3.47
29.02143907546997,-1.85,1.34,-2.33,3.26
29.036450147628784,-1.44,1.9,-2.86,3.72
29.037496089935303,-0.99,2.5,-3.42,4.35
29.053372144699097,-0.94,3.68,-3.2,4.96
29.054854154586792,-1.49,5.12,-1.62,5.57
29.068875312805176,-2.24,4.01,-1.84,4.94
29.09629201889038,-3.17,4.13,-0.89,5.28
29.097729206085205,-4.17,4.54,-1.18,6.27
29.09874725341797,-4.86,5.02,-1.79,7.21
29.100866317749023,-4.82,5.37,-2.14,7.52
29.102277278900146,-4.79,5.02,-2.45,7.35
29.103689193725586,-4.91,4.56,-2.91,7.3
29.105101108551025,-5.06,4.41,-3.74,7.68
29.106354236602783,-5.06,3.93,-4.37,7.75
29.10739016532898,-4.46,3.3,-4.43,7.09
29.116262197494507,-3.42,2.76,-4.56,6.33
29.146937131881714,-2.83,3.5,-5.18,6.86
29.147882223129272,-3.12,5.21,-5.71,8.33
29.14869713783264,-3.29,6.68,-5.41,9.2
29.169210195541382,-1.13,8.42,-3.51,9.19
29.17006206512451,2.07,10.05,-2.1,10.47
29.18641710281372,0.55,6.77,-2.61,7.27
29.187490224838257,-2.42,2.91,-3.88,5.42
29.202949047088623,-4.48,0.68,-4.42,6.33
29.205390214920044,-5.84,-1.93,-4.49,7.61
29.218480110168457,-5.38,-5.84,-4.52,9.13
29.247632026672363,0.7,-5.03,-2.47,5.64
29.249025344848633,3.21,-3.41,-0.96,4.78
29.249908208847046,-1.13,-3.2,-1.75,3.81
29.270419120788574,-5.48,-2.99,-3.38,7.09
29.271470069885254,-8.27,-3.24,-3.39,9.5
29.286712169647217,-9.19,-3.48,-2.19,10.06
29.287761211395264,-8.78,-3.88,-0.96,9.64
29.303317070007324,-7.97,-4.5,-0.09,9.15
29.304421186447144,-7.22,-5.17,0.14,8.88
29.31924319267273,-6.67,-5.24,-0.08,8.48
29.34894609451294,-6.16,-4.73,-0.37,7.77
29.350332260131836,-5.69,-4.25,-0.47,7.11
29.35136318206787,-5.26,-3.96,-0.39,6.59
29.370444297790527,-4.92,-3.79,-0.11,6.21
29.37152910232544,-4.71,-3.49,0.27,5.86
29.38670516014099,-4.69,-3.24,0.41,5.71
29.387766122817993,-4.77,-2.85,0.01,5.55
29.403415203094482,-4.88,-2.02,-0.57,5.31
29.40488314628601,-4.48,-0.92,-1.05,4.69
29.41925811767578,-3.2,-0.22,-1.48,3.53
29.423927307128906,-1.48,0.01,-1.53,2.12
29.46252202987671,-0.16,0.17,-1.04,1.06
29.463680267333984,0.62,0.84,-0.25,1.07
29.464916229248047,1.37,2.05,0.49,2.51
29.46646022796631,1.78,2.99,0.87,3.58
29.473398208618164,1.4,3.69,0.96,4.06
29.483543157577515,1.04,4.78,1.13,5.02
29.493402004241943,1.34,5.97,1.27,6.24
29.503127098083496,2.32,6.96,1.21,7.43
29.513379096984863,4.09,7.58,0.86,8.65
29.523353099822998,6.36,7.66,0.66,9.97
29.553019046783447,8.61,7.38,0.73,11.36
29.554338216781616,10.35,6.85,0.74,12.43
29.555387020111084,11.17,5.91,0.64,12.65
29.563019275665283,11.3,4.73,0.75,12.27
29.5729923248291,11.1,3.53,1.29,11.71
29.58281922340393,10.88,2.83,2.28,11.47
29.59269618988037,10.22,3.22,3.17,11.17
29.602647304534912,8.55,6.13,3.54,11.1
29.612783193588257,9.15,4.15,3.12,10.52
29.622624158859253,9.99,2.91,3.64,11.02
29.65465211868286,9.92,2.72,3.93,11.01
29.655949115753174,9.25,2.83,3.79,10.38
29.656962156295776,8.0,3.51,4.38,9.77
29.67097020149231,5.29,2.56,4.26,7.25
29.672017097473145,-0.81,-0.05,1.89,2.05
29.686706066131592,-6.91,-0.47,-0.6,6.95
29.691676139831543,-5.38,1.23,-0.1,5.51
29.703450202941895,1.28,2.12,0.79,2.59
29.71193814277649,5.17,0.9,1.02,5.34
29.72185707092285,6.07,1.06,0.8,6.21
29.752190113067627,5.35,4.08,0.36,6.73
29.753528118133545,6.11,6.37,0.05,8.82
29.754552125930786,7.57,2.42,-0.78,7.98
29.771886348724365,4.73,1.87,0.34,5.09
29.772963047027588,2.61,0.72,2.62,3.76
29.787198066711426,1.88,-1.76,2.86,3.84
29.791349172592163,2.47,-2.21,2.16,3.95
29.801250219345093,2.73,-1.22,1.33,3.27
29.8111732006073,2.17,-0.24,0.49,2.23
29.82091522216797,1.53,0.17,0.2,1.55
29.859325170516968,0.87,0.04,0.09,0.87
29.860738277435303,0.46,-0.13,-0.05,0.48
29.861821174621582,0.19,-0.08,-0.31,0.37
29.87099027633667,-0.28,0.06,-0.64,0.7
29.872026205062866,-0.69,0.1,-0.63,0.93
29.88700222969055,-0.78,0.07,-0.27,0.82
29.890491008758545,-0.61,0.04,-0.03,0.61
29.903746128082275,-0.17,0.01,-0.25,0.3
29.91059422492981,0.32,-0.06,-0.76,0.82
