time,ax,ay,az,atotal
0.0013899803161621094,0.29,-0.28,-0.37,0.54
0.011263132095336914,0.17,-0.5,-0.18,0.55
0.020606040954589844,-0.81,-0.18,-0.08,0.83
0.03053903579711914,-0.19,0.11,-0.07,0.23
0.04123806953430176,0.03,-0.03,0.19,0.19
0.08153605461120605,-0.01,-0.07,0.23,0.24
0.08179783821105957,0.01,-0.11,0.18,0.21
0.08204007148742676,0.05,-0.11,0.09,0.15
0.08227896690368652,0.05,-0.1,-0.04,0.11
0.09039306640625,0.03,0.01,-0.13,0.13
0.10069108009338379,-0.03,0.02,-0.09,0.09
0.11089491844177246,-0.11,0.01,-0.06,0.12
0.12037801742553711,-0.11,-0.05,-0.03,0.12
0.13030791282653809,-0.07,-0.04,0.07,0.1
0.1410820484161377,-0.04,0.04,0.02,0.06
0.18257403373718262,0.0,0.03,-0.06,0.06
0.18283915519714355,-0.14,0.05,-0.04,0.15
0.18309998512268066,-0.1,0.04,-0.1,0.14
0.18334698677062988,-0.04,0.01,-0.1,0.1
0.19024896621704102,0.12,-0.09,0.06,0.16
0.20043301582336426,0.29,-0.1,0.07,0.31
0.21088099479675293,0.16,0.02,0.02,0.16
0.22016000747680664,-0.03,-0.01,0.04,0.05
0.23021292686462402,-0.08,-0.02,-0.05,0.09
0.24098706245422363,-0.03,-0.01,-0.11,0.11
0.2813570499420166,0.0,0.02,-0.15,0.15
0.28199100494384766,-0.05,0.04,-0.15,0.16
0.28225207328796387,-0.07,0.0,-0.1,0.12
0.28249406814575195,0.02,0.0,-0.04,0.04
0.29023098945617676,0.05,-0.02,0.01,0.05
0.3005411624908447,0.05,0.02,0.02,0.05
0.31073498725891113,0.02,0.01,0.02,0.03
0.32015299797058105,-0.04,0.0,0.03,0.05
0.3301551342010498,-0.09,0.04,0.01,0.09
0.3409709930419922,-0.02,-0.01,-0.02,0.03
0.3501889705657959,0.1,-0.01,-0.05,0.11
0.3818638324737549,0.16,0.0,-0.07,0.17
0.38213300704956055,0.17,0.01,-0.01,0.17
0.3824160099029541,0.09,-0.02,0.05,0.1
0.3900480270385742,-0.07,0.0,0.03,0.07
0.40003204345703125,-0.21,0.05,-0.06,0.22
0.41075706481933594,-0.13,0.03,-0.1,0.16
0.42003297805786133,0.01,-0.03,-0.07,0.07
0.43003201484680176,0.08,0.0,-0.04,0.08
0.4408400058746338,0.08,0.02,0.01,0.08
0.4500429630279541,0.06,0.02,0.05,0.08
0.4819910526275635,0.14,0.01,0.11,0.17
0.4822409152984619,0.19,-0.01,0.11,0.21
0.4824988842010498,0.12,-0.02,0.08,0.14
0.4899170398712158,0.07,-0.01,0.09,0.11
0.49997806549072266,0.06,0.01,0.06,0.08
0.5105559825897217,0.03,-0.03,0.07,0.08
0.5199148654937744,-0.04,-0.01,0.02,0.04
0.52988600730896,-0.04,0.02,0.01,0.04
0.540755033493042,-0.05,0.01,0.06,0.07
0.5499908924102783,-0.11,0.02,0.0,0.11
0.582841157913208,-0.11,0.01,-0.05,0.12
0.5831060409545898,-0.07,-0.04,-0.04,0.09
0.5833649635314941,-0.01,-0.01,-0.07,0.07
0.5897200107574463,0.03,0.0,-0.07,0.07
0.5997178554534912,0.03,0.01,-0.08,0.08
0.6103708744049072,-0.01,0.05,-0.08,0.09
0.6197559833526611,-0.04,0.05,-0.11,0.12
0.6299149990081787,-0.03,0.04,-0.12,0.13
0.6405150890350342,-0.03,-0.01,-0.1,0.1
0.6498739719390869,-0.04,-0.03,-0.05,0.07
0.682607889175415,-0.08,-0.02,-0.01,0.08
0.6828701496124268,-0.07,0.02,0.02,0.07
0.6831099987030029,0.02,0.01,0.02,0.03
0.6896531581878662,0.09,-0.02,-0.05,0.1
0.6996560096740723,0.13,0.0,-0.07,0.14
0.7102611064910889,0.09,0.03,-0.09,0.13
0.7195651531219482,-0.05,0.01,-0.1,0.11
0.7297861576080322,-0.1,0.02,-0.09,0.13
0.740368127822876,-0.03,-0.02,-0.05,0.06
0.7496180534362793,-0.06,-0.04,-0.04,0.08
0.7825019359588623,-0.17,0.0,-0.16,0.23
0.7827639579772949,-0.26,0.07,-0.28,0.38
0.7830049991607666,-0.29,0.05,-0.28,0.4
0.7895028591156006,-0.25,0.07,-0.24,0.35
0.7995221614837646,-0.08,0.04,-0.21,0.22
0.8100800514221191,0.0,-0.04,-0.05,0.06
0.8194589614868164,-0.1,-0.09,-0.17,0.21
0.8294739723205566,-0.09,-0.03,-0.31,0.32
0.8402860164642334,-0.23,0.02,-0.1,0.25
0.8495750427246094,-0.37,-0.01,-0.11,0.38
0.8826239109039307,-0.35,0.01,-0.13,0.37
0.8828880786895752,-0.37,0.02,-0.12,0.38
0.8831470012664795,-0.26,0.07,-0.22,0.34
0.8893191814422607,0.09,0.09,-0.24,0.27
0.8994870185852051,0.28,0.04,-0.04,0.28
0.9099371433258057,0.3,0.01,0.04,0.3
0.9192678928375244,0.3,-0.02,0.09,0.31
0.9293410778045654,0.41,0.02,0.14,0.43
0.9401309490203857,0.58,0.04,0.24,0.62
0.9494431018829346,0.72,0.03,0.31,0.78
0.9828100204467773,0.88,-0.01,0.4,0.96
0.9830570220947266,0.96,-0.01,0.5,1.08
0.9832961559295654,0.96,0.04,0.44,1.05
0.9892430305480957,0.94,0.07,0.32,0.99
0.9991450309753418,0.87,0.06,0.19,0.89
1.0098159313201904,0.77,0.01,0.11,0.77
1.0192179679870605,0.71,0.02,0.09,0.71
1.029306173324585,0.7,0.02,0.14,0.71
1.0400011539459229,0.67,0.04,0.24,0.71
1.0494000911712646,0.61,0.08,0.22,0.65
1.0826680660247803,0.54,0.04,0.2,0.57
1.0829331874847412,0.53,-0.01,0.16,0.55
1.0831921100616455,0.63,0.07,0.13,0.64
1.0890610218048096,0.77,0.11,0.26,0.82
1.099168062210083,0.96,0.11,0.29,1.0
1.1096251010894775,1.23,0.06,0.32,1.27
1.1191070079803467,1.53,0.04,0.4,1.58
1.1290819644927979,1.88,0.07,0.4,1.92
1.1398260593414307,2.3,0.05,0.51,2.35
1.1490809917449951,2.52,0.04,0.73,2.62
1.1827809810638428,2.54,0.11,0.86,2.68
1.1830408573150635,2.4,0.15,0.97,2.59
1.1832969188690186,2.19,0.19,0.86,2.36
1.1889030933380127,2.12,0.36,0.58,2.22
1.1989991664886475,2.31,0.63,0.22,2.4
1.2094829082489014,2.83,0.93,-0.19,2.98
1.2189099788665771,3.15,1.47,-0.27,3.48
1.2289259433746338,3.15,1.94,-0.35,3.71
1.2396690845489502,2.96,2.27,-0.44,3.75
1.2489650249481201,2.3,2.22,-0.6,3.25
1.2832238674163818,1.27,1.68,-1.18,2.41
1.2834889888763428,1.12,1.52,-1.71,2.54
1.2837469577789307,1.47,1.93,-1.36,2.78
1.2888309955596924,1.49,2.31,-0.95,2.9
1.2988431453704834,1.56,2.53,-0.69,3.05
1.309373140335083,1.67,2.57,-0.54,3.11
1.3187329769134521,2.12,2.6,-0.55,3.39
1.3288090229034424,3.11,2.28,-0.16,3.85
1.3394968509674072,4.55,1.98,0.51,4.98
1.3487350940704346,5.05,1.75,0.69,5.38
1.383193016052246,4.94,1.52,0.44,5.18
1.3834588527679443,4.67,1.21,0.64,4.86
1.3837158679962158,4.4,0.7,0.91,4.54
1.3886301517486572,4.12,0.31,1.09,4.27
1.3986279964447021,3.73,0.09,1.11,3.89
1.4092528820037842,3.21,-0.04,1.2,3.42
1.4187180995941162,2.72,-0.08,1.22,2.98
1.4286091327667236,2.32,-0.11,1.28,2.65
1.4393789768218994,1.86,-0.21,1.37,2.31
1.4487521648406982,1.42,-0.23,1.34,1.96
1.4835169315338135,1.1,-0.25,1.27,1.69
1.483781099319458,0.84,-0.32,1.33,1.6
1.4840419292449951,0.61,-0.29,1.43,1.58
1.4884309768676758,0.3,-0.18,1.39,1.43
1.4984638690948486,0.16,-0.14,1.31,1.32
1.5091478824615479,0.22,-0.18,1.43,1.45
1.5185070037841797,0.26,-0.26,1.51,1.55
1.5285389423370361,0.21,-0.29,1.49,1.53
1.5392849445343018,0.01,-0.38,1.52,1.56
1.5485310554504395,-0.3,-0.48,1.4,1.51
1.5839011669158936,-0.59,-0.55,1.21,1.45
1.584162950515747,-0.7,-0.63,1.2,1.52
1.5847408771514893,-0.8,-0.67,1.3,1.66
1.5883738994598389,-0.79,-0.65,1.27,1.63
1.5982840061187744,-0.77,-0.56,1.29,1.6
1.6089210510253906,-0.87,-0.31,1.09,1.42
1.618561029434204,-0.94,-0.12,1.04,1.4
1.6283891201019287,-0.95,-0.11,1.2,1.53
1.6391408443450928,-1.09,-0.18,1.3,1.7
1.6484630107879639,-1.33,-0.26,1.11,1.75
1.6841809749603271,-1.67,-0.3,0.8,1.87
1.6844520568847656,-2.11,-0.36,0.44,2.18
1.6850700378417969,-2.39,-0.55,0.09,2.45
1.688162088394165,-2.46,-0.75,-0.05,2.57
1.69815993309021,-2.53,-0.91,-0.19,2.69
1.7087340354919434,-2.86,-1.07,-0.6,3.11
1.7185120582580566,-3.24,-1.29,-1.02,3.63
1.7282390594482422,-3.77,-1.65,-1.21,4.28
1.7390429973602295,-4.3,-2.05,-1.47,4.98
1.748366117477417,-4.74,-2.52,-1.72,5.63
1.7841780185699463,-5.0,-2.98,-1.97,6.14
1.78444504737854,-5.2,-3.26,-2.12,6.49
1.7850229740142822,-5.43,-3.35,-2.31,6.78
1.788050889968872,-5.15,-2.08,-3.05,6.33
1.7980430126190186,-3.1,-0.71,-2.6,4.1
1.8086211681365967,-4.07,-1.09,-1.14,4.36
1.8184421062469482,-2.9,2.15,-1.71,3.99
1.8281240463256836,3.34,10.73,1.08,11.28
1.8388068675994873,5.7,15.1,0.57,16.15
1.8481409549713135,-1.49,5.6,-1.51,5.98
1.8790500164031982,-5.19,-3.54,-2.29,6.68
1.8793141841888428,-6.6,-3.59,-1.01,7.58
1.8795759677886963,-6.78,-1.31,-1.8,7.13
1.8879830837249756,-5.97,0.27,-3.46,6.9
1.8979198932647705,-4.62,0.53,-1.63,4.92
1.908531904220581,-2.46,0.09,0.49,2.5
1.919105052947998,-0.8,-0.46,0.16,0.93
1.9290390014648438,-0.05,-0.51,-0.4,0.65
1.9387328624725342,0.16,0.15,-0.4,0.45
1.9479749202728271,0.06,0.78,-0.33,0.84
1.9807460308074951,-0.44,0.91,-0.84,1.31
1.9810221195220947,-0.84,0.54,-1.48,1.78
1.981292963027954,-0.69,0.04,-1.65,1.78
1.9878308773040771,-0.36,-0.12,-1.51,1.55
1.9978020191192627,-0.36,-0.01,-1.33,1.37
2.0084290504455566,-0.61,0.12,-1.25,1.39
2.0177290439605713,-0.76,0.12,-1.08,1.32
2.027798891067505,-0.57,0.12,-0.88,1.05
2.0386321544647217,-0.17,0.18,-0.44,0.5
2.047805070877075,0.03,0.27,-0.07,0.28
2.081382989883423,0.12,0.13,-0.05,0.18
2.0816590785980225,0.44,0.08,-0.08,0.45
2.081926107406616,0.64,0.11,0.06,0.65
2.087777853012085,0.41,0.03,0.04,0.41
2.097770929336548,0.04,0.04,-0.1,0.11
2.108283042907715,-0.13,0.08,-0.07,0.16
2.1177539825439453,-0.15,0.12,0.2,0.27
2.127758026123047,-0.07,0.18,0.49,0.52
2.1385600566864014,0.11,0.22,0.77,0.8
2.1478500366210938,0.12,0.27,0.83,0.88
2.1816489696502686,0.07,0.27,0.63,0.68
2.1819241046905518,-0.03,0.25,0.43,0.49
2.1821911334991455,0.0,0.19,0.39,0.43
2.1874611377716064,0.35,0.0,0.36,0.5
2.1974880695343018,0.95,-0.24,0.39,1.05
2.2081010341644287,1.5,-0.41,0.72,1.71
2.2175071239471436,2.03,-0.44,0.87,2.25
2.2275521755218506,2.47,-0.23,0.75,2.59
2.2383339405059814,2.7,0.07,0.59,2.76
2.2475900650024414,2.61,0.07,0.74,2.71
2.28165602684021,2.07,-0.09,0.67,2.17
2.2819268703460693,1.67,-0.19,0.73,1.83
2.2821929454803467,1.84,-0.2,1.05,2.12
2.2874181270599365,2.52,0.02,0.87,2.66
2.2974131107330322,2.79,0.45,0.35,2.84
2.307945966720581,2.3,0.95,0.2,2.49
2.317302942276001,1.64,1.09,0.43,2.01
2.327254056930542,1.33,1.13,0.47,1.8
2.3378641605377197,1.39,1.33,0.42,1.96
2.347306966781616,1.45,1.65,0.62,2.28
2.381848096847534,1.57,1.73,0.69,2.43
2.3821208477020264,1.94,2.32,0.88,3.14
2.3823890686035156,2.39,2.79,1.73,4.06
2.3872179985046387,3.05,2.93,2.2,4.76
2.3972861766815186,4.27,3.33,2.7,6.05
2.4078938961029053,5.33,4.31,2.79,7.4
2.417267084121704,6.74,6.2,2.6,9.51
2.4272890090942383,8.37,7.63,4.38,12.14
2.4380438327789307,8.7,7.47,5.3,12.63
2.447350025177002,8.47,7.5,5.66,12.65
2.481394052505493,7.62,8.77,6.9,13.51
2.481665849685669,7.07,10.89,7.05,14.77
2.4819390773773193,7.56,12.0,5.0,15.03
2.4871671199798584,7.71,10.78,2.91,13.56
2.497102975845337,7.05,8.95,1.41,11.48
2.5077619552612305,5.68,8.12,-0.8,9.94
2.5171921253204346,3.24,8.37,-1.95,9.18
2.5271198749542236,-0.98,9.81,-1.78,10.01
2.5378458499908447,-3.98,10.86,-2.87,11.91
2.547124147415161,-2.74,9.41,-3.1,10.27
2.581845998764038,0.34,5.85,-0.78,5.91
2.5821189880371094,-1.3,1.96,0.39,2.38
2.5823891162872314,-2.28,-0.51,-2.79,3.63
2.5869300365448,-0.95,-0.27,-1.54,1.82
2.5969560146331787,0.85,1.02,0.64,1.47
2.6075780391693115,2.67,1.35,1.71,3.44
2.6170740127563477,2.46,-1.29,2.54,3.76
2.627009153366089,1.2,-4.19,2.73,5.14
2.637626886367798,1.09,-4.94,2.09,5.47
2.6469738483428955,1.28,-4.64,1.45,5.02
2.682184934616089,0.99,-4.3,0.59,4.45
2.6824581623077393,0.72,-4.1,0.26,4.17
2.6827261447906494,0.84,-4.06,0.98,4.26
2.686872959136963,1.11,-4.34,1.72,4.79
2.696850061416626,1.31,-4.64,1.92,5.18
2.707409143447876,1.65,-4.87,1.82,5.45
2.7168128490448,2.08,-5.06,1.61,5.7
2.7268149852752686,2.44,-5.3,1.38,5.99
2.737528085708618,2.64,-5.56,1.28,6.28
2.746904134750366,2.64,-5.9,1.39,6.61
2.7819879055023193,2.18,-6.17,1.54,6.72
2.782254934310913,1.41,-6.23,1.55,6.57
2.782520055770874,0.38,-6.17,1.56,6.37
2.7866251468658447,-0.79,-6.11,1.23,6.28
2.7966349124908447,-1.72,-6.01,0.66,6.28
2.807217836380005,-2.31,-5.84,0.21,6.28
2.816807985305786,-2.99,-5.44,-0.58,6.23
2.8266520500183105,-3.86,-4.89,-1.69,6.45
2.8373360633850098,-4.42,-4.31,-2.57,6.68
2.846708059310913,-4.82,-3.61,-3.0,6.72
2.881523847579956,-5.5,-2.51,-3.64,7.05
2.8817930221557617,-6.99,-1.07,-4.83,8.56
2.88205885887146,-8.71,0.51,-6.16,10.68
2.886414051055908,-9.4,1.69,-6.44,11.51
2.8964719772338867,-8.99,1.82,-5.18,10.53
2.9070661067962646,-7.76,1.33,-3.76,8.72
2.9165360927581787,-6.68,0.88,-3.22,7.46
2.926568031311035,-6.33,0.68,-3.57,7.29
2.9370930194854736,-6.02,-0.05,-3.92,7.18
2.9466099739074707,-5.66,-0.68,-3.59,6.73
2.9809539318084717,-6.03,-0.94,-3.68,7.12
2.981221914291382,-6.9,-0.71,-3.53,7.78
2.9815120697021484,-6.6,1.42,-3.57,7.63
2.986388921737671,-2.93,3.03,-3.75,5.64
2.996387004852295,3.79,2.02,-2.13,4.79
3.006963014602661,13.42,9.77,5.99,17.64
3.016874074935913,19.35,15.43,12.14,27.56
3.0263898372650146,10.46,13.85,1.79,17.44
3.037264108657837,-2.49,4.71,-4.39,6.9
3.0464870929718018,-6.95,-2.38,-1.81,7.56
3.0803539752960205,-9.37,-4.12,-1.47,10.34
3.080639123916626,-10.91,-2.73,-3.81,11.87
3.0809171199798584,-11.16,-0.22,-6.5,12.91
3.0863778591156006,-10.08,2.31,-6.92,12.44
3.096337080001831,-6.12,2.3,-3.68,7.5
3.106835126876831,-2.9,1.02,-1.63,3.47
3.1163060665130615,-0.91,0.15,-1.26,1.56
3.126434087753296,0.23,0.5,-1.11,1.23
3.1374518871307373,0.27,0.99,-1.0,1.43
3.1462671756744385,0.15,1.15,-1.43,1.84
3.181333065032959,-0.34,0.92,-2.1,2.31
3.1816208362579346,-0.87,0.37,-2.09,2.29
3.18190598487854,-1.38,-0.03,-1.04,1.72
3.1864230632781982,-1.59,-0.23,-0.21,1.62
3.196160078048706,-1.24,-0.06,0.3,1.27
3.20676589012146,-0.8,0.25,0.16,0.85
3.216162919998169,-0.62,0.31,-0.37,0.78
3.226227045059204,-0.72,0.12,-0.52,0.89
3.2644200325012207,-0.67,-0.04,-0.26,0.71
3.2646989822387695,-0.53,-0.05,-0.11,0.54
3.2649710178375244,-0.26,-0.04,-0.1,0.28
3.265984058380127,0.22,0.06,-0.12,0.25
3.2760331630706787,0.73,0.12,-0.18,0.76
3.2862820625305176,1.24,0.1,-0.05,1.24
3.2959821224212646,1.51,0.21,0.35,1.56
3.3067400455474854,1.32,0.34,0.74,1.55
3.3161890506744385,0.82,0.39,1.17,1.48
3.325990915298462,0.32,0.21,1.64,1.68
3.3655898571014404,0.42,-0.09,2.16,2.2
3.365885019302368,1.52,-0.46,2.4,2.87
3.3661749362945557,3.01,-0.89,2.41,3.95
3.366461992263794,4.42,-1.2,2.04,5.01
3.37585186958313,5.54,-1.28,1.49,5.87
3.38580584526062,5.67,-1.13,0.76,5.83
3.3958890438079834,4.36,-0.82,0.05,4.43
3.4066340923309326,2.35,-0.45,-0.01,2.39
3.4158661365509033,1.04,-0.27,0.61,1.23
3.4259140491485596,0.94,-0.18,0.9,1.31
3.4651410579681396,1.46,-0.27,1.23,1.92
3.465620994567871,1.89,-0.23,0.95,2.12
3.465906858444214,2.04,-0.15,0.54,2.11
3.46618914604187,1.96,-0.12,0.23,1.97
3.4756839275360107,1.43,-0.16,-0.35,1.48
3.485740900039673,0.65,-0.07,-0.71,0.96
3.4957940578460693,-0.29,0.22,-0.59,0.69
3.5065600872039795,-1.1,0.65,-0.1,1.28
3.5157580375671387,-1.13,1.08,0.45,1.62
3.5258219242095947,-0.44,1.46,0.78,1.71
3.565521001815796,0.23,1.64,1.03,1.95
3.5658071041107178,0.55,1.93,0.89,2.19
3.566092014312744,1.18,2.64,0.95,3.04
3.566373109817505,2.06,3.31,1.2,4.07
3.5756020545959473,3.05,4.01,1.67,5.3
3.585529088973999,4.67,5.13,1.85,7.17
3.5955920219421387,6.78,6.06,2.96,9.56
3.6063010692596436,7.8,6.54,3.92,10.9
3.6157519817352295,8.39,7.48,4.61,12.14
3.6256649494171143,8.42,8.54,5.87,13.35
3.6654200553894043,7.82,9.7,7.43,14.5
3.665820837020874,6.86,10.79,7.81,14.98
3.6661150455474854,6.03,11.21,6.9,14.47
3.6664040088653564,5.35,10.27,5.75,12.92
3.675441026687622,4.82,8.99,3.09,10.65
3.6853621006011963,4.18,8.86,0.26,9.79
3.6953928470611572,2.16,10.24,-1.24,10.53
3.706123113632202,-0.1,11.59,-3.28,12.04
3.7154290676116943,0.12,12.33,-3.32,12.76
3.7254889011383057,2.38,9.78,-1.76,10.21
3.765320062637329,2.24,5.11,0.72,5.62
3.7656118869781494,-1.56,1.94,-2.2,3.32
3.7658979892730713,-0.52,2.0,-4.23,4.7
3.7661800384521484,2.5,4.06,0.14,4.77
3.7752959728240967,4.65,4.73,1.29,6.75
3.7852940559387207,4.34,2.04,0.28,4.8
3.795348882675171,2.78,-1.16,-0.13,3.01
3.8060081005096436,1.98,-2.85,-0.68,3.53
3.8154070377349854,1.98,-2.97,-0.89,3.67
3.825342893600464,1.63,-2.13,-0.27,2.69
3.8362581729888916,0.89,-1.67,0.13,1.89
3.865265130996704,0.44,-2.07,0.28,2.13
3.8655431270599365,0.43,-3.04,0.87,3.19
3.8658130168914795,0.7,-3.94,1.37,4.22
3.875166177749634,1.15,-4.6,1.63,5.01
3.88515305519104,1.68,-5.16,1.75,5.7
3.8951900005340576,2.01,-5.73,2.04,6.4
3.9058401584625244,1.95,-6.31,2.3,6.99
3.9152190685272217,1.81,-6.89,2.54,7.56
3.9252259731292725,1.58,-7.59,2.94,8.29
3.936147928237915,1.19,-8.33,3.28,9.03
3.965353012084961,0.75,-8.88,3.48,9.56
3.9656240940093994,0.11,-9.1,3.3,9.68
3.9658749103546143,-0.79,-9.1,2.95,9.59
3.975248098373413,-1.95,-9.01,2.33,9.5
3.98492693901062,-3.16,-8.7,1.39,9.35
3.9950621128082275,-4.09,-8.14,0.74,9.13
4.005689859390259,-4.71,-7.03,0.22,8.46
4.015061140060425,-4.89,-5.8,-0.72,7.62
4.0250608921051025,-5.81,-4.84,-1.77,7.76
4.035943031311035,-7.56,-3.7,-3.68,9.18
4.0649659633636475,-8.14,-1.57,-5.54,9.97
4.065237998962402,-7.81,1.19,-5.31,9.51
4.065509080886841,-7.26,3.7,-4.11,9.12
4.074859857559204,-7.11,5.11,-4.4,9.79
4.084869146347046,-7.59,5.09,-5.47,10.65
4.094866991043091,-8.15,4.31,-6.68,11.38
4.105499029159546,-7.92,2.55,-6.75,10.71
4.114977121353149,-6.19,1.18,-5.5,8.36
4.124953985214233,-3.87,1.07,-5.24,6.6
4.135782957077026,-2.61,2.58,-5.46,6.57
4.166242837905884,-1.09,4.97,-4.81,7.0
4.166543960571289,0.34,-0.64,-3.29,3.36
4.166830062866211,5.29,2.21,-4.94,7.56
4.174695014953613,14.36,13.95,10.7,22.7
4.184720039367676,14.72,16.62,15.31,26.96
4.194721937179565,-0.54,6.87,-0.91,6.95
4.205486059188843,-9.21,-0.35,-0.48,9.22
4.214832067489624,-10.56,-2.77,2.04,11.1
4.2247819900512695,-10.83,-2.24,-2.82,11.41
4.235696077346802,-8.96,-1.38,-6.91,11.39
4.265240907669067,-6.84,1.01,-8.61,11.04
4.265535116195679,-3.79,1.91,-6.5,7.76
4.2658209800720215,-0.59,0.62,-4.09,4.17
4.274592161178589,0.03,-0.8,-2.94,3.04
4.284597158432007,-0.75,-0.26,-2.37,2.49
4.294688940048218,-1.56,1.02,-2.12,2.82
4.305294036865234,-2.39,1.28,-2.69,3.81
4.314674139022827,-3.05,1.0,-3.24,4.56
4.324674844741821,-3.24,0.76,-2.66,4.26
4.3355019092559814,-2.45,0.45,-1.18,2.75
4.365944147109985,-1.37,0.04,0.25,1.39
4.3662450313568115,-0.74,-0.16,0.73,1.05
4.366541147232056,0.07,-0.13,0.5,0.52
4.374475002288818,0.65,0.0,0.0,0.65
4.384473085403442,0.44,-0.01,-0.48,0.65
4.394518136978149,-0.17,-0.06,-0.7,0.72
4.405056953430176,-0.52,-0.12,-0.63,0.82
4.414599180221558,-0.36,-0.19,-0.28,0.49
4.424515008926392,0.07,-0.13,0.15,0.21
4.43535304069519,0.44,0.09,0.39,0.59
4.466663122177124,0.61,0.33,0.42,0.81
4.466971158981323,0.7,0.42,0.39,0.9
4.467272996902466,0.9,0.31,0.62,1.13
4.474388837814331,1.26,0.25,1.16,1.73
4.484418153762817,1.52,0.21,1.23,1.96
4.4943459033966064,1.81,0.12,0.85,2.0
4.5050108432769775,1.89,-0.03,0.4,1.93
4.514425992965698,1.88,-0.16,0.62,1.98
4.524368047714233,2.17,-0.25,1.02,2.41
4.53528904914856,2.36,-0.33,0.97,2.57
4.566441059112549,2.5,-0.57,1.27,2.86
4.566740036010742,2.79,-0.62,1.38,3.17
4.5670249462127686,2.85,-0.3,0.65,2.93
4.574207067489624,2.38,0.09,0.25,2.39
4.584391832351685,1.86,0.31,0.23,1.89
4.594120979309082,1.45,0.23,0.26,1.49
4.6050660610198975,1.4,-0.17,1.07,1.77
4.614315986633301,1.7,-0.11,1.1,2.02
4.624441862106323,1.82,0.43,0.71,2.0
4.63506293296814,1.38,0.96,0.34,1.71
4.666669130325317,0.91,1.4,0.11,1.67
4.666960954666138,0.97,1.91,0.16,2.14
4.667243003845215,1.41,2.66,0.78,3.11
4.674018144607544,1.76,2.49,1.65,3.46
4.684129953384399,2.53,2.56,1.33,3.83
4.694042921066284,3.25,2.91,1.39,4.57
4.705103158950806,3.75,2.97,1.99,5.18
4.71417498588562,4.57,3.47,1.93,6.05
4.724130868911743,5.59,5.18,1.72,7.81
4.734999895095825,7.53,7.73,2.06,10.98
4.766556024551392,9.9,9.33,3.8,14.12
4.766869068145752,10.86,9.71,4.79,15.33
4.767160177230835,10.21,10.28,6.05,15.7
4.773843050003052,9.84,11.61,7.04,16.76
4.784402132034302,9.97,13.06,3.96,16.9
4.793879985809326,9.54,13.04,2.37,16.33
4.804988145828247,8.77,11.34,2.3,14.51
4.813957929611206,7.86,9.29,-1.01,12.21
4.824025869369507,5.77,8.65,-3.34,10.92
4.8347861766815186,2.38,10.46,-5.25,11.94
4.865864992141724,-0.51,12.75,-4.93,13.67
4.866153955459595,-1.95,10.45,-1.29,10.7
4.866446018218994,-3.33,4.87,1.24,6.02
4.873746156692505,-5.09,1.23,-2.92,5.99
4.883802175521851,-2.6,0.69,-3.57,4.47
4.893776178359985,0.93,1.08,-0.27,1.45
4.904772043228149,3.94,1.29,0.08,4.14
4.913828134536743,5.15,-0.08,0.04,5.15
4.923854112625122,4.66,-1.85,0.46,5.03
4.934589147567749,3.77,-2.86,0.13,4.73
4.966308832168579,2.75,-3.82,-0.24,4.71
4.966602087020874,2.11,-4.53,-0.4,5.01
4.966886043548584,1.65,-4.65,-0.23,4.93
4.973621129989624,1.54,-4.24,0.38,4.52
4.983644008636475,1.27,-4.16,1.06,4.47
4.99366307258606,0.86,-4.7,1.67,5.06
5.004645109176636,0.93,-5.19,2.03,5.64
5.01387095451355,1.26,-5.46,2.07,5.97
5.023618936538696,1.45,-5.3,1.68,5.74
5.034563064575195,1.58,-5.16,1.4,5.57
5.066334962844849,1.66,-5.34,1.5,5.78
5.06662392616272,1.6,-5.82,1.65,6.25
5.066907167434692,1.2,-6.44,1.66,6.75
5.073513031005859,0.59,-6.92,1.7,7.15
5.083500146865845,0.02,-7.28,1.64,7.46
5.093561887741089,-0.59,-7.63,1.43,7.78
5.104634046554565,-1.46,-7.86,1.16,8.07
5.113584041595459,-2.5,-7.78,1.03,8.23
5.12357497215271,-3.42,-7.37,0.79,8.16
5.134442090988159,-4.27,-6.73,-0.02,7.97
5.167018175125122,-5.34,-6.04,-1.8,8.26
5.167310953140259,-7.04,-5.31,-3.9,9.64
5.167596101760864,-8.34,-4.06,-5.21,10.63
5.1734089851379395,-8.37,-2.51,-4.99,10.06
5.183405160903931,-7.88,-1.1,-4.32,9.05
5.193328142166138,-7.8,0.23,-4.38,8.94
5.2038938999176025,-8.04,1.64,-4.85,9.53
5.213452100753784,-7.9,2.76,-5.48,10.0
5.223374128341675,-7.62,2.81,-5.69,9.91
5.2342870235443115,-7.53,2.19,-5.2,9.4
5.266016960144043,-7.6,1.83,-4.72,9.13
5.266311883926392,-7.9,1.1,-5.01,9.41
5.26659893989563,-8.06,0.58,-5.4,9.71
5.273148059844971,-5.84,3.87,-5.8,9.09
5.283252000808716,-1.49,3.57,-2.79,4.76
5.293192148208618,2.71,3.97,-2.87,5.59
5.303869009017944,13.24,14.04,7.08,20.55
5.3132500648498535,20.06,20.75,14.81,32.43
5.323148012161255,7.72,8.7,-2.48,11.89
5.33407187461853,-5.47,-2.06,-0.83,5.9
5.367280006408691,-8.4,-2.81,2.75,9.27
5.367576837539673,-10.2,-2.56,-2.88,10.9
5.3678648471832275,-12.63,-1.11,-8.0,14.99
5.373041868209839,-13.44,2.04,-8.29,15.92
5.38299298286438,-10.42,2.56,-5.54,12.07
5.393101930618286,-5.87,0.73,-4.04,7.16
5.403785943984985,-2.51,-0.26,-2.22,3.36
5.413203954696655,0.04,-0.09,-0.53,0.53
5.4230358600616455,1.41,0.49,0.29,1.52
5.433964014053345,1.22,1.08,-0.28,1.65
5.46769118309021,-0.15,1.28,-1.87,2.27
5.467987060546875,-1.93,0.93,-3.25,3.89
5.468271970748901,-3.26,0.34,-2.83,4.33
5.472923994064331,-3.62,0.08,-0.86,3.72
5.483044862747192,-2.65,0.22,0.57,2.71
5.492879152297974,0.01,0.23,0.32,0.39
5.5036461353302,1.91,-0.42,-0.21,1.96
5.513025999069214,2.35,-1.16,-0.21,2.62
5.522977113723755,1.52,-0.92,0.35,1.81
5.53387713432312,0.37,0.0,0.57,0.67
5.5688841342926025,-0.36,0.36,0.58,0.77
5.569192171096802,-0.59,0.24,0.47,0.79
5.5694849491119385,-0.41,0.07,0.21,0.46
5.572798013687134,-0.04,0.04,0.03,0.06
5.582741975784302,0.36,0.17,-0.14,0.42
5.592810869216919,0.65,0.45,-0.27,0.83
5.603499174118042,0.88,0.66,-0.06,1.1
5.612966060638428,1.09,0.68,0.4,1.34
5.622889041900635,1.11,0.41,0.79,1.42
5.633556127548218,1.15,0.0,1.1,1.59
5.667216062545776,1.5,-0.44,1.46,2.13
5.6675050258636475,2.39,-1.03,1.89,3.21
5.667791128158569,3.88,-1.51,2.05,4.64
5.672406911849976,5.34,-1.49,2.08,5.92
5.682481050491333,6.18,-0.83,1.9,6.51
5.692611932754517,5.7,-0.07,1.24,5.83
5.703234910964966,3.68,0.32,0.35,3.71
5.712566137313843,1.78,0.1,0.26,1.8
5.72254490852356,0.9,-0.24,0.45,1.03
5.733514070510864,1.04,-0.44,0.63,1.29
5.767518043518066,1.8,-0.41,0.59,1.93
5.767809152603149,2.4,-0.15,0.43,2.44
5.768094062805176,2.55,0.08,0.32,2.57
5.772224187850952,2.37,0.23,0.2,2.38
5.782326936721802,1.9,0.64,0.15,2.01
5.7923338413238525,1.28,1.26,0.23,1.81
5.8030290603637695,0.87,1.75,0.28,1.97
5.812372922897339,1.18,2.37,0.23,2.65
5.822393178939819,2.03,3.23,1.55,4.11
5.833247900009155,2.46,3.38,2.86,5.06
5.867671012878418,3.31,3.89,2.78,5.81
5.867959976196289,3.99,5.09,3.02,7.13
5.868242979049683,4.8,6.83,2.71,8.77
5.872146844863892,6.52,8.66,3.39,11.35
5.88216495513916,7.92,9.51,4.92,13.31
5.892206907272339,8.98,9.93,5.34,14.41
5.903090953826904,9.6,10.35,5.64,15.2
5.912532091140747,9.83,10.7,6.29,15.83
5.922230958938599,9.51,11.0,4.97,15.36
5.9333531856536865,8.24,10.8,3.46,14.01
5.968844175338745,6.63,10.2,1.81,12.29
5.969136953353882,5.11,9.11,-2.47,10.73
5.96942400932312,2.09,8.46,-5.46,10.28
5.972050905227661,-0.78,10.0,-5.27,11.33
5.982223987579346,-2.21,11.87,-3.74,12.63
5.992255926132202,-1.43,9.49,-3.91,10.36
6.00283408164978,0.39,3.48,-1.5,3.8
6.012310981750488,-1.56,-0.26,0.95,1.84
6.022294998168945,-4.14,-1.53,-2.54,5.09
6.033139944076538,-2.4,0.57,-2.2,3.3
6.069265127182007,0.92,2.1,1.15,2.56
6.0695531368255615,4.32,1.31,1.66,4.8
6.069838047027588,5.31,-1.12,1.7,5.68
6.072139024734497,4.03,-3.06,2.14,5.49
6.082052946090698,2.25,-3.95,1.16,4.69
6.0920469760894775,1.09,-4.42,0.88,4.63
6.102967023849487,-0.04,-4.73,1.68,5.01
6.112218141555786,-1.43,-4.66,1.85,5.21
6.1222898960113525,-2.47,-4.33,1.54,5.21
6.133033990859985,-2.95,-4.46,1.97,5.69
6.16916298866272,-2.34,-4.86,2.38,5.89
6.169452905654907,-0.81,-5.28,2.42,5.86
6.169738054275513,0.67,-5.58,2.43,6.12
6.1720640659332275,1.62,-5.8,2.43,6.49
6.181938886642456,1.98,-6.06,2.58,6.87
6.1918909549713135,1.77,-6.38,2.77,7.17
6.202614068984985,1.3,-6.82,2.89,7.52
6.212061166763306,0.62,-7.54,2.98,8.13
6.2223219871521,-0.28,-8.41,2.91,8.9
6.232805013656616,-1.07,-9.03,2.71,9.48
6.268758058547974,-1.36,-9.18,2.48,9.6
6.2690489292144775,-1.66,-8.88,2.27,9.31
6.2693421840667725,-2.5,-8.15,1.79,8.71
6.27196192741394,-3.4,-7.59,1.37,8.42
6.281707048416138,-4.38,-7.04,0.53,8.3
6.2917890548706055,-5.44,-5.79,-1.73,8.13
6.302478075027466,-6.76,-4.18,-4.09,8.93
6.311874151229858,-7.88,-1.96,-5.56,9.84
6.322211980819702,-8.08,0.74,-5.91,10.03
6.332651853561401,-7.76,2.74,-4.73,9.49
6.368573904037476,-7.62,3.79,-4.16,9.47
6.368864059448242,-7.65,4.09,-4.73,9.88
6.369149923324585,-7.55,3.46,-5.13,9.76
6.372040033340454,-7.2,2.77,-5.08,9.23
6.381806135177612,-6.7,2.3,-4.83,8.57
6.39151406288147,-6.32,1.92,-4.36,7.91
6.402237176895142,-6.45,1.75,-4.33,7.96
6.411718130111694,-5.91,5.34,-5.8,9.85
6.421696901321411,-0.67,-0.44,-5.52,5.57
6.432510137557983,7.27,2.11,-2.57,7.99
6.468714952468872,19.47,16.37,13.81,28.94
6.469012975692749,19.63,19.23,14.58,31.1
6.46930193901062,1.72,8.01,-1.4,8.31
6.471407175064087,-6.62,0.07,-1.25,6.73
6.481494188308716,-7.06,-2.75,2.04,7.84
6.491418123245239,-9.76,-3.97,-0.96,10.58
6.502035856246948,-11.45,-2.28,-3.45,12.17
6.511592149734497,-9.62,-0.74,-6.26,11.5
6.521496057510376,-6.22,2.16,-7.07,9.66
6.532264947891235,-2.44,2.8,-4.41,5.76
6.568918943405151,-0.09,0.95,-2.03,2.24
6.569198846817017,0.3,-0.52,-1.31,1.44
6.569470167160034,-0.73,0.05,-1.8,1.94
6.5712480545043945,-2.01,1.09,-2.09,3.09
6.581300973892212,-2.49,1.32,-2.43,3.72
6.591242074966431,-2.62,0.88,-2.84,3.96
6.601971864700317,-2.69,0.38,-2.69,3.82
6.611503839492798,-2.95,-0.01,-1.74,3.42
6.6213860511779785,-2.62,-0.12,-0.47,2.66
6.632191896438599,-1.41,-0.04,0.3,1.44
6.669293165206909,0.37,0.15,0.32,0.51
6.669564962387085,1.62,0.03,0.18,1.63
6.6698338985443115,1.9,-0.33,0.01,1.92
6.671129941940308,1.2,-0.26,-0.12,1.23
6.681149959564209,0.15,-0.09,0.03,0.17
6.691169023513794,-0.66,0.04,0.0,0.66
6.7018091678619385,-1.08,-0.02,-0.14,1.08
6.711252927780151,-0.96,-0.18,-0.07,0.97
6.721336126327515,-0.42,-0.12,0.19,0.47
6.732002019882202,0.08,0.02,0.46,0.46
6.768280029296875,0.47,0.15,0.66,0.82
6.768544912338257,0.76,0.2,0.89,1.18
6.768815040588379,0.86,0.16,0.95,1.29
6.770961046218872,0.8,0.12,0.84,1.16
6.78099799156189,0.57,0.09,0.71,0.91
6.79100489616394,0.29,0.15,0.56,0.64
6.801696062088013,0.15,0.24,0.54,0.6
6.811082124710083,0.41,0.1,0.53,0.67
6.821089029312134,1.25,-0.16,0.44,1.33
6.831916093826294,2.64,-0.34,0.72,2.75
6.868352174758911,3.83,-0.46,0.83,3.94
6.868604898452759,4.38,-0.46,1.31,4.59
6.868862867355347,4.4,-0.46,1.72,4.74
6.870949983596802,3.88,-0.67,1.53,4.22
6.880913972854614,3.15,-0.83,1.16,3.45
6.890882968902588,2.35,-0.69,0.63,2.52
6.901506185531616,1.84,-0.31,0.39,1.9
6.9110119342803955,1.62,0.22,0.28,1.65
6.9208738803863525,1.54,0.51,0.26,1.64
6.931673049926758,1.7,0.41,0.26,1.76
6.968932867050171,1.96,0.24,0.18,1.98
6.9692041873931885,2.07,0.16,0.01,2.07
6.969472169876099,1.89,0.27,-0.07,1.91
6.9707629680633545,1.45,0.75,-0.02,1.63
6.980716943740845,1.24,1.52,0.03,1.96
6.99070405960083,1.33,2.49,0.05,2.82
7.00123405456543,1.94,4.17,-0.36,4.61
7.0108020305633545,3.36,6.54,0.38,7.36
7.020738840103149,4.59,7.18,2.67,8.93
7.0315101146698,5.54,7.01,3.26,9.51
7.069220066070557,5.7,6.95,4.42,10.01
7.069475889205933,5.7,7.74,5.44,11.04
7.069739103317261,6.26,9.61,5.94,12.91
7.070760011672974,7.42,11.6,5.97,15.0
7.080611944198608,7.77,11.97,4.9,15.08
7.090574026107788,8.05,11.03,4.06,14.24
7.101139068603516,7.6,9.6,3.73,12.79
7.110702037811279,5.9,7.66,3.02,10.12
7.120744943618774,5.08,5.88,0.49,7.78
7.131541013717651,4.04,5.15,-0.96,6.61
7.168743848800659,1.15,6.76,-2.08,7.16
7.169018030166626,-1.81,9.55,-3.85,10.45
7.169277906417847,-2.14,9.51,-3.65,10.4
7.170440912246704,0.09,5.11,-1.31,5.27
7.180411100387573,-0.73,1.28,0.19,1.48
7.190478086471558,-1.9,-0.48,-2.62,3.27
7.201032876968384,0.32,0.33,-2.44,2.48
7.210525989532471,2.97,1.19,-0.49,3.23
7.220474004745483,5.23,0.96,0.72,5.36
7.231230974197388,5.0,-0.66,1.76,5.34
7.26906418800354,3.65,-2.01,2.06,4.64
7.2693259716033936,2.61,-2.62,1.76,4.09
7.269597053527832,1.53,-3.05,1.48,3.71
7.27031683921814,0.59,-3.48,1.89,4.0
7.280302047729492,-0.07,-3.61,2.03,4.14
7.290256023406982,-0.5,-3.56,2.03,4.12
7.300930023193359,-0.72,-3.81,2.12,4.41
7.310472011566162,-0.72,-4.42,2.19,4.98
7.3203041553497314,-0.46,-4.97,2.21,5.45
7.331063985824585,-0.02,-5.38,2.13,5.78
7.369413137435913,0.39,-5.69,2.03,6.05
7.369855165481567,0.73,-5.79,2.03,6.17
7.37012505531311,0.98,-6.13,2.32,6.62
7.370383024215698,0.94,-6.75,2.66,7.31
7.380202054977417,0.55,-7.25,2.74,7.76
7.390079021453857,0.0,-7.62,2.59,8.04
7.4011030197143555,-0.74,-7.88,2.37,8.26
7.410326957702637,-1.43,-7.9,1.92,8.25
7.420191049575806,-1.98,-7.59,1.75,8.03
7.430925130844116,-2.49,-6.95,1.72,7.58
7.4694390296936035,-3.11,-6.4,1.47,7.26
7.469879865646362,-4.31,-5.72,0.18,7.16
7.47013783454895,-6.11,-4.6,-2.22,7.96
7.470396041870117,-7.7,-2.9,-3.96,9.13
7.4800050258636475,-8.6,-1.25,-4.35,9.71
7.490028142929077,-8.63,-0.19,-3.83,9.44
7.500617027282715,-8.41,0.71,-3.57,9.16
7.510120153427124,-8.29,1.74,-3.6,9.2
7.519986867904663,-7.84,2.29,-3.97,9.08
7.530780076980591,-7.07,2.17,-4.16,8.48
7.570274114608765,-6.73,1.61,-3.68,7.83
7.57053804397583,-7.18,1.02,-3.58,8.08
7.5708019733428955,-8.09,1.65,-4.84,9.57
7.571069002151489,-5.38,4.63,-5.49,8.97
7.579905033111572,-0.6,-1.24,-3.07,3.36
7.590122938156128,2.75,6.92,-4.81,8.86
7.6004509925842285,12.07,18.72,6.91,23.32
7.61081600189209,11.57,24.37,7.2,27.92
7.6198718547821045,1.94,4.46,-3.03,5.73
7.630596876144409,-7.09,-6.64,2.29,9.98
7.670271158218384,-6.43,-5.45,2.17,8.7
7.6705381870269775,-7.11,-4.9,-2.62,9.02
7.670797109603882,-7.24,-1.34,-6.0,9.49
7.671066999435425,-7.23,2.89,-4.91,9.2
7.679731130599976,-5.06,2.98,-2.89,6.54
7.690014123916626,-2.14,0.81,-1.68,2.83
7.700333833694458,-0.12,-0.4,-0.32,0.52
7.7098259925842285,0.78,-0.29,1.01,1.3
7.719805955886841,0.15,0.42,1.05,1.14
7.730512857437134,-1.23,0.82,-0.49,1.55
7.7712061405181885,-2.15,0.79,-2.23,3.19
7.771467924118042,-2.22,0.41,-2.76,3.56
7.77172589302063,-1.52,0.06,-1.87,2.41
7.7719950675964355,-0.88,-0.18,-1.14,1.45
7.7795751094818115,-0.76,-0.18,-1.11,1.35
7.789873838424683,-0.67,-0.01,-1.36,1.51
7.800152063369751,-0.06,0.18,-1.6,1.61
7.80967903137207,0.24,0.14,-1.22,1.25
7.819575071334839,-0.21,0.12,-0.6,0.64
7.8303821086883545,-1.01,0.24,-0.03,1.03
7.839614152908325,-1.31,0.27,0.51,1.43
7.870599031448364,-1.01,0.22,0.7,1.24
7.870859861373901,-0.49,0.16,0.44,0.67
7.8711159229278564,0.05,0.07,0.12,0.14
7.879467964172363,0.47,0.0,-0.01,0.47
7.889404058456421,0.65,0.01,0.12,0.66
7.899964094161987,0.77,0.12,0.29,0.83
7.9096081256866455,0.88,0.23,0.47,1.02
7.919960021972656,0.92,0.24,0.43,1.04
7.930185079574585,0.81,0.27,0.2,0.87
7.939450025558472,0.56,0.25,0.33,0.69
7.970983982086182,0.38,0.18,0.85,0.94
7.971243143081665,0.6,0.15,1.37,1.5
7.971502065658569,1.58,0.01,1.49,2.17
7.979317903518677,2.6,-0.31,1.33,2.93
7.98926305770874,3.29,-0.62,1.3,3.59
7.999837160110474,3.7,-0.7,1.37,4.0
8.00930404663086,3.95,-0.5,1.41,4.22
8.019307851791382,3.74,-0.23,0.97,3.87
8.030025959014893,2.87,-0.19,0.59,2.93
8.039296865463257,1.65,-0.12,0.22,1.66
8.071349859237671,0.66,0.19,-0.12,0.69
8.07160997390747,0.16,0.5,0.03,0.52
8.071868181228638,0.13,0.68,0.22,0.72
8.079181909561157,0.53,0.68,0.71,1.11
8.08917498588562,1.08,0.74,1.08,1.69
8.099776029586792,1.81,0.92,0.85,2.2
8.109265089035034,2.28,1.35,0.8,2.76
8.119163990020752,2.64,1.84,0.76,3.3
8.129932165145874,3.06,2.21,0.66,3.83
8.139198064804077,2.89,2.54,0.89,3.94
8.171149015426636,3.09,2.69,1.07,4.23
8.17140793800354,3.36,2.73,1.39,4.54
8.171663999557495,3.78,3.33,1.5,5.25
8.179046869277954,4.61,4.97,1.44,6.93
8.188956022262573,6.42,6.7,1.87,9.46
8.19959306716919,7.89,7.21,3.26,11.17
8.209095001220703,7.97,7.16,4.18,11.5
8.218988180160522,7.97,7.9,5.24,12.38
8.22977089881897,8.14,9.45,6.4,14.01
8.239071130752563,9.45,11.71,5.44,16.0
8.272014856338501,9.62,12.71,2.6,16.15
8.272289037704468,8.37,11.36,1.82,14.22
8.272549867630005,6.87,9.09,0.27,11.39
8.278867959976196,5.35,7.13,-1.7,9.07
8.288830995559692,2.24,6.61,-1.72,7.18
8.299504041671753,-1.85,8.69,-2.83,9.32
8.308997869491577,-3.6,10.9,-3.76,12.07
8.318909883499146,-0.87,8.12,-2.34,8.49
8.329654932022095,0.98,3.02,0.52,3.21
8.338939905166626,-2.61,-0.58,-0.66,2.75
8.371783971786499,-2.56,-1.3,-3.53,4.55
8.372051000595093,0.36,0.48,-1.85,1.94
8.372312068939209,3.79,1.66,-0.5,4.16
8.378748178482056,5.87,0.67,0.49,5.92
8.388710021972656,5.53,-1.56,1.66,5.98
8.399271011352539,4.28,-3.27,1.99,5.74
8.408933877944946,3.25,-3.93,1.66,5.36
8.418739080429077,2.48,-4.1,1.43,5.0
8.429548978805542,1.7,-3.95,1.7,4.62
8.438789129257202,0.7,-3.56,1.63,3.97
8.4723379611969,-0.27,-3.1,1.25,3.35
8.472601175308228,-0.48,-3.81,1.44,4.1
8.472860097885132,0.0,-4.39,1.6,4.67
8.478618860244751,0.55,-4.51,1.69,4.84
8.488584041595459,0.9,-4.7,1.52,5.02
8.499211072921753,0.91,-4.98,1.23,5.2
8.508772134780884,0.65,-5.41,1.11,5.56
8.518589973449707,0.33,-5.98,1.15,6.09
8.529340982437134,0.01,-6.53,1.26,6.65
8.538710832595825,-0.18,-7.03,1.64,7.22
8.572803974151611,-0.08,-7.45,2.3,7.79
8.573074102401733,-0.05,-7.49,2.47,7.88
8.573333024978638,-0.58,-7.1,2.54,7.56
8.578428030014038,-1.31,-6.37,2.6,7.0
8.588504076004028,-2.2,-5.52,2.02,6.27
8.599045038223267,-3.51,-4.72,0.19,5.88
8.608420133590698,-4.6,-3.89,-1.54,6.21
8.618449926376343,-6.04,-2.33,-2.58,6.96
8.629274129867554,-6.75,-1.07,-2.89,7.42
8.638444185256958,-6.22,-0.37,-2.89,6.86
8.673542022705078,-6.12,0.52,-3.15,6.9
8.674172163009644,-6.84,1.6,-3.52,7.85
8.674433946609497,-7.33,2.39,-4.12,8.74
8.67839503288269,-6.89,2.77,-4.04,8.45
8.688323020935059,-6.47,2.95,-3.4,7.88
8.698888063430786,-6.77,2.89,-3.14,8.0
8.708214044570923,-7.1,2.41,-3.64,8.33
8.718268156051636,-6.99,1.44,-3.69,8.03
8.729102849960327,-6.49,-0.55,-3.45,7.37
8.738384008407593,-6.11,1.26,-4.68,7.79
8.773385047912598,-4.74,1.05,-2.54,5.47
8.773648977279663,-4.09,-0.69,-4.8,6.34
8.774256944656372,4.4,7.71,-4.7,10.04
8.77840805053711,13.48,21.02,12.08,27.73
8.788161039352417,8.11,20.05,8.18,23.12
8.798682928085327,-7.51,0.08,-3.15,8.14
8.808069944381714,-9.22,-7.48,-1.16,11.92
8.818173170089722,-7.45,-6.57,-1.8,10.09
8.82892918586731,-7.95,-4.36,-3.25,9.63
8.8383309841156,-7.21,-0.3,-4.12,8.3
8.873517990112305,-5.33,2.47,-2.43,6.35
8.87378191947937,-2.64,2.27,-0.7,3.55
8.874382019042969,-0.67,0.4,-0.58,0.97
8.878000020980835,-0.33,-0.66,-0.65,0.98
8.888005018234253,-1.02,-0.3,-0.02,1.06
8.898529052734375,-1.66,0.41,0.13,1.71
8.907993078231812,-1.81,0.87,-1.11,2.29
8.918038129806519,-1.6,0.84,-2.12,2.78
8.928804159164429,-1.31,0.4,-2.03,2.44
8.938050031661987,-1.19,0.01,-1.75,2.11
8.973412036895752,-1.16,-0.13,-1.57,1.95
8.973680019378662,-1.25,-0.02,-1.34,1.83
8.974318981170654,-0.75,0.17,-1.28,1.49
8.97789216041565,-0.22,0.29,-1.26,1.31
8.987964868545532,-0.3,0.21,-0.82,0.89
8.99837613105774,-0.61,0.19,-0.14,0.65
9.008013010025024,-0.66,0.23,0.35,0.78
9.01785397529602,-0.33,0.22,0.6,0.71
9.028671026229858,0.1,0.21,0.61,0.65
9.03792405128479,0.25,0.1,0.38,0.46
9.073818922042847,0.16,-0.06,0.21,0.27
9.074396848678589,0.14,0.02,0.06,0.15
9.0746591091156,0.29,0.14,0.08,0.33
9.077949047088623,0.4,0.24,0.39,0.6
9.087855100631714,0.5,0.3,0.73,0.93
9.098302125930786,0.55,0.24,0.87,1.05
9.108024835586548,0.55,0.18,0.78,0.97
9.117802858352661,0.54,0.11,0.74,0.92
9.128475904464722,0.77,-0.01,0.85,1.14
9.13781189918518,1.34,-0.07,0.93,1.63
9.174288034439087,2.1,-0.14,0.94,2.3
9.174533128738403,2.9,-0.26,0.94,3.05
9.174795866012573,3.34,-0.4,0.99,3.5
9.17757797241211,3.34,-0.49,1.05,3.53
9.187650918960571,3.22,-0.36,0.75,3.32
9.198158025741577,2.61,-0.14,0.48,2.65
9.207969903945923,2.24,-0.07,0.91,2.41
9.217609167098999,2.2,0.15,0.93,2.39
9.228445053100586,1.97,0.51,0.57,2.11
9.237674951553345,1.82,1.15,0.16,2.15
9.27481198310852,1.63,1.82,0.12,2.44
9.275073051452637,1.76,2.28,0.63,2.94
9.275331974029541,2.01,2.16,1.0,3.11
9.280032873153687,2.4,2.59,0.97,3.66
9.287474870681763,2.9,2.94,1.31,4.33
9.297989130020142,3.45,3.35,0.99,4.9
9.307976961135864,3.98,3.42,1.46,5.44
9.317352056503296,4.34,3.57,1.71,5.87
9.328099966049194,4.72,4.69,1.4,6.79
9.337354898452759,5.99,6.61,1.61,9.06
9.37424898147583,7.72,7.89,2.94,11.42
9.374706983566284,8.16,8.12,4.43,12.33
9.374965906143188,8.06,8.73,5.75,13.19
9.377188920974731,9.01,9.92,6.57,14.92
9.387203931808472,10.36,10.64,5.41,15.8
9.39769697189331,10.71,10.76,3.88,15.66
9.40723705291748,9.8,10.51,4.24,14.98
9.417232036590576,8.58,10.35,2.05,13.59
9.427937030792236,5.66,9.44,-2.86,11.37
9.437250852584839,1.93,8.94,-5.37,10.6
9.474705934524536,-0.93,10.83,-4.15,11.63
9.474967956542969,-2.37,12.03,-2.26,12.46
9.475226163864136,0.01,7.76,-1.7,7.94
9.477032899856567,0.84,2.99,1.47,3.43
9.487251996994019,-4.09,0.22,0.16,4.09
9.49771499633789,-4.62,0.45,-3.58,5.86
9.507150888442993,-0.74,2.66,-1.57,3.17
9.517205953598022,2.66,2.95,-0.12,3.97
9.527937173843384,4.0,0.84,-0.36,4.1
9.537204027175903,3.37,-1.6,0.06,3.73
9.575481176376343,2.65,-3.27,0.24,4.21
9.575744867324829,2.32,-4.21,0.15,4.8
9.5760018825531,1.84,-4.8,0.5,5.16
9.576978921890259,0.77,-4.58,0.82,4.71
9.586974859237671,-0.16,-4.34,0.99,4.45
9.597602128982544,-0.56,-4.81,1.37,5.03
9.606920003890991,-0.7,-5.01,1.71,5.33
9.616905927658081,0.05,-5.36,2.06,5.74
9.627624034881592,0.95,-5.67,2.02,6.09
9.636977910995483,1.54,-5.83,1.67,6.25
9.677430868148804,1.94,-5.89,1.41,6.35
9.677748918533325,2.06,-6.07,1.57,6.59
9.678046941757202,1.93,-6.37,1.92,6.92
9.678345918655396,1.5,-6.66,2.13,7.15
9.686784982681274,0.61,-7.03,1.93,7.31
9.697463989257812,-0.28,-7.56,1.74,7.76
9.706963062286377,-0.88,-8.1,1.8,8.34
9.716893911361694,-1.21,-8.33,1.64,8.57
9.7275550365448,-1.45,-8.19,1.23,8.4
9.736883878707886,-1.76,-7.68,1.29,7.98
9.775609016418457,-2.37,-6.91,1.17,7.39
9.775872945785522,-3.47,-6.12,0.13,7.03
9.77616000175476,-5.26,-5.32,-1.93,7.72
9.776790857315063,-7.03,-3.98,-3.99,9.01
9.786728143692017,-8.14,-2.27,-4.89,9.76
9.797270059585571,-8.14,-1.55,-3.97,9.18
9.80679202079773,-8.01,-0.82,-3.79,8.89
9.816753149032593,-8.77,0.77,-4.87,10.06
9.827569961547852,-9.72,2.29,-6.34,11.82
9.836766958236694,-9.45,2.74,-6.66,11.88
9.876766920089722,-8.64,2.39,-5.14,10.33
9.877032041549683,-8.56,2.07,-4.02,9.68
9.877291917800903,-9.25,1.7,-4.26,10.32
9.877547979354858,-10.25,1.0,-4.8,11.36
9.886577844619751,-11.06,1.78,-5.29,12.38
9.897177934646606,-5.75,4.47,-4.83,8.73
9.906668901443481,1.66,-0.17,-2.25,2.8
9.916624069213867,8.76,8.01,0.62,11.88
9.92734408378601,22.48,19.23,20.68,36.09
9.936552047729492,17.46,18.84,9.84,27.5
9.97706389427185,5.05,9.89,-6.39,12.81
9.977327108383179,-5.73,-1.65,-2.57,6.49
9.977587938308716,-11.2,-6.09,3.67,13.26
9.977845907211304,-12.07,-4.77,-2.41,13.2
9.986443996429443,-12.59,-2.58,-6.54,14.41
9.997039079666138,-10.35,0.35,-6.07,12.0
10.006473064422607,-6.3,2.01,-4.26,7.86
10.016474962234497,-2.14,1.64,-2.87,3.93
10.027127981185913,1.42,1.19,-2.07,2.77
10.036486864089966,2.33,1.07,-1.39,2.91
10.07771897315979,0.24,1.34,-1.03,1.7
10.077982187271118,-1.47,1.48,-1.33,2.47
10.078250169754028,-2.12,1.11,-2.07,3.16
10.078508138656616,-2.42,0.33,-2.62,3.58
10.086252927780151,-2.13,-0.44,-2.42,3.25
10.096848011016846,-1.13,-0.8,-1.47,2.01
10.106343030929565,-0.27,-0.56,-0.3,0.69
10.116348028182983,-0.12,0.19,0.53,0.57
10.127035856246948,-0.32,0.44,1.6,1.68
10.136459112167358,-0.23,0.27,1.73,1.76
10.177284002304077,0.11,0.12,0.95,0.96
10.177548170089722,0.51,-0.17,0.61,0.81
10.177811861038208,0.91,-0.22,0.5,1.06
10.178070068359375,1.18,-0.12,0.34,1.23
10.186225175857544,1.22,-0.11,0.12,1.23
10.196767091751099,1.21,0.01,-0.03,1.21
10.206223964691162,0.92,0.08,0.06,0.92
10.216142892837524,0.55,0.08,0.14,0.57
10.226799011230469,0.32,0.03,0.23,0.39
10.236201047897339,0.66,0.02,0.75,0.99
10.277708053588867,1.75,0.0,1.37,2.22
10.277971029281616,2.59,-0.15,1.88,3.2
10.278228998184204,3.63,-0.48,2.53,4.45
10.278486967086792,4.37,-0.92,2.35,5.04
10.286018133163452,4.31,-1.1,1.98,4.86
10.296586036682129,3.73,-0.72,1.61,4.12
10.306113004684448,2.58,-0.24,0.77,2.7
10.316076040267944,1.6,0.06,0.45,1.66
10.3266441822052,1.28,0.26,0.1,1.3
10.336039066314697,1.43,-0.05,0.15,1.43
10.37813115119934,1.79,-0.32,0.67,1.93
10.37839388847351,2.27,-0.31,1.11,2.54
10.378659009933472,2.65,-0.09,0.87,2.79
10.37891411781311,2.6,0.16,0.6,2.67
10.386031866073608,1.84,0.55,0.08,1.92
10.396467924118042,0.84,1.18,-0.22,1.46
10.40596318244934,-0.08,1.7,0.06,1.7
10.415884017944336,-0.47,1.99,0.43,2.08
10.426541090011597,0.09,2.04,0.81,2.19
10.435896158218384,1.02,2.39,0.98,2.77
10.47818899154663,1.88,2.93,1.64,3.84
10.47844910621643,2.67,3.15,2.29,4.72
10.478705167770386,3.32,3.37,2.75,5.47
10.478962182998657,4.19,4.66,2.41,6.71
10.485728025436401,5.9,6.73,2.18,9.21
10.496317148208618,7.77,8.12,3.55,11.78
10.505789995193481,8.69,8.46,4.89,13.07
10.515813112258911,9.56,8.74,6.02,14.28
10.526689052581787,10.66,10.43,6.47,16.25
10.536054849624634,11.21,12.15,6.55,17.78
10.578358888626099,10.13,11.95,6.2,16.84
10.578624963760376,8.0,10.97,4.64,14.34
10.578884840011597,5.52,9.07,1.33,10.7
10.579143047332764,3.11,7.56,-2.12,8.44
10.585549116134644,0.68,8.46,-4.08,9.41
10.596225023269653,-2.24,10.96,-3.87,11.83
10.605674982070923,-4.2,11.53,-3.83,12.85
10.615584135055542,-3.23,8.54,-2.58,9.48
10.661297082901001,-1.45,3.63,-0.43,3.93
10.661564111709595,-4.2,0.14,-1.21,4.37
10.661826848983765,-3.06,0.5,-3.01,4.32
10.662091970443726,0.22,1.02,-0.9,1.37
10.66550612449646,3.31,0.81,0.86,3.51
10.675840139389038,4.4,-1.09,1.23,4.69
10.68566107749939,3.59,-3.8,1.44,5.42
10.696067094802856,3.15,-4.37,2.07,5.77
10.705541849136353,3.32,-3.46,2.02,5.2
10.71552586555481,2.96,-3.06,0.97,4.36
10.763143062591553,2.06,-3.58,0.11,4.13
10.76341986656189,1.19,-3.85,0.58,4.07
10.763683080673218,1.11,-3.43,1.31,3.83
10.7639479637146,1.47,-3.35,1.78,4.06
10.765289068222046,2.01,-3.7,1.84,4.59
10.775284051895142,2.6,-4.36,2.01,5.45
10.785310983657837,2.93,-4.93,2.06,6.09
10.795897006988525,2.79,-5.34,1.72,6.26
10.805381059646606,2.41,-5.79,1.47,6.44
10.815369844436646,2.11,-6.32,1.46,6.82
10.862819910049438,1.83,-7.0,1.75,7.44
10.863092184066772,1.36,-7.68,2.07,8.06
10.863355875015259,0.85,-8.23,2.19,8.55
10.863615989685059,0.41,-8.41,2.2,8.7
10.865293025970459,-0.22,-8.63,2.26,8.92
10.875123977661133,-0.71,-8.87,2.18,9.16
10.885193109512329,-1.31,-8.68,2.08,9.02
10.895750045776367,-1.96,-8.16,1.61,8.54
10.90527606010437,-2.69,-7.33,1.02,7.87
10.915290117263794,-4.06,-5.95,-0.78,7.24
10.9630868434906,-5.86,-4.14,-3.27,7.88
10.963351011276245,-6.88,-1.68,-4.81,8.56
10.963618993759155,-6.84,0.63,-4.97,8.47
10.963881015777588,-6.71,2.51,-4.64,8.53
10.965139150619507,-7.58,4.18,-4.66,9.83
10.975054025650024,-9.16,5.91,-4.49,11.78
10.98507285118103,-10.08,7.09,-4.71,13.19
10.995615005493164,-9.71,5.8,-5.4,12.53
11.005125045776367,-8.87,3.75,-6.06,11.37
11.015031099319458,-9.59,2.77,-7.37,12.4
11.06335997581482,-11.04,7.17,-8.02,15.41
11.064702987670898,-5.33,2.6,-2.35,6.37
11.064985036849976,-3.16,-1.95,-5.56,6.68
11.065248966217041,4.94,9.93,-4.33,11.9
11.065507173538208,19.79,11.48,19.76,30.23
11.07486891746521,14.75,12.49,11.35,22.41
11.08486008644104,2.7,5.64,-5.17,8.11
11.095487833023071,-6.78,0.84,-0.47,6.84
11.104993104934692,-10.27,-0.78,1.79,10.45
11.114919900894165,-9.18,1.29,-6.56,11.35
11.125538110733032,-9.44,-0.76,-8.08,12.44
11.16323208808899,-8.39,-0.79,-6.85,10.85
11.1635000705719,-4.22,-0.58,-4.77,6.39
11.163758993148804,-1.46,-0.4,-2.25,2.71
11.164815187454224,0.42,0.4,0.51,0.77
11.17488408088684,1.33,1.01,1.21,2.06
11.184891939163208,0.33,1.0,-0.24,1.08
11.195371866226196,-1.46,0.68,-1.59,2.26
11.204848051071167,-2.68,0.31,-1.86,3.27
11.214763879776001,-3.04,0.18,-1.51,3.39
11.225445032119751,-2.33,0.06,-0.73,2.44
11.264445066452026,-1.09,-0.21,-0.55,1.23
11.26469111442566,-0.28,-0.21,-0.78,0.85
11.264951944351196,-0.01,0.08,-0.76,0.76
11.265209913253784,-0.26,0.28,-0.65,0.75
11.274468183517456,-0.51,0.22,-0.83,0.99
11.284549951553345,-0.47,0.09,-0.94,1.05
11.295148134231567,-0.24,-0.03,-0.56,0.61
11.304512977600098,0.13,-0.1,0.16,0.22
11.314511060714722,0.55,-0.13,0.75,0.93
11.325201034545898,0.99,-0.11,0.88,1.32
11.364521026611328,1.31,-0.03,0.69,1.48
11.364778995513916,1.3,0.07,0.34,1.34
11.365036010742188,0.87,0.12,-0.03,0.87
11.365290880203247,0.6,0.16,0.19,0.64
11.374324083328247,0.61,0.11,0.6,0.86
11.384363889694214,0.91,0.05,0.42,1.0
11.394930124282837,1.11,0.06,0.31,1.15
11.404335975646973,1.22,0.19,0.72,1.42
11.414501905441284,1.35,0.24,0.94,1.66
11.425158977508545,1.53,0.13,1.1,1.88
11.464761972427368,1.77,-0.17,1.18,2.13
11.465008020401001,1.77,-0.69,0.93,2.11
11.465266942977905,1.37,-0.77,0.47,1.64
11.465522050857544,1.04,-0.31,0.2,1.1
11.47428584098816,0.86,0.32,0.15,0.92
11.484325170516968,0.93,0.6,0.15,1.11
11.49492597579956,1.36,0.51,0.37,1.49
11.504309892654419,1.86,0.33,0.66,2.0
11.51498818397522,2.37,0.13,1.31,2.71
11.524977922439575,2.81,-0.01,1.85,3.36
11.564763069152832,2.85,0.12,1.88,3.41
11.565021991729736,2.51,0.8,1.3,2.93
11.565279006958008,2.15,1.61,1.0,2.86
11.565518140792847,2.15,1.78,1.07,2.98
11.574223041534424,2.34,2.08,0.78,3.22
11.584176063537598,3.08,2.42,0.77,3.99
11.594699144363403,3.22,2.41,1.09,4.16
11.604315996170044,3.62,2.38,1.4,4.55
11.614238023757935,4.32,2.76,1.64,5.38
11.624910116195679,4.95,3.38,2.1,6.35
11.666015863418579,5.66,4.85,2.16,7.76
11.666281938552856,7.71,7.2,2.27,10.79
11.666548013687134,10.23,8.77,3.68,13.96
11.666808843612671,10.88,9.05,5.08,15.03
11.67398190498352,9.39,9.11,5.97,14.38
11.684088945388794,8.55,10.32,7.44,15.32
11.694522142410278,8.98,11.03,7.59,16.12
11.704172849655151,8.83,10.09,4.02,13.99
11.714039087295532,7.67,9.27,1.78,12.16
11.724777936935425,6.12,8.17,-0.66,10.22
11.76584506034851,3.7,8.39,-2.94,9.62
11.766111135482788,-0.03,11.06,-2.38,11.31
11.766372919082642,-3.53,12.43,-1.92,13.06
11.766633033752441,-4.78,10.51,-2.71,11.85
11.773874044418335,-2.06,5.54,-1.4,6.07
11.783984899520874,-2.78,1.04,0.28,2.98
11.794449090957642,-5.55,-0.43,-2.04,5.92
11.803956031799316,-2.76,1.25,-3.63,4.72
11.813966035842896,1.57,2.61,-1.14,3.25
11.824641942977905,5.19,1.69,0.98,5.54
11.866788148880005,6.15,-1.96,1.45,6.61
11.867051839828491,5.04,-4.03,1.96,6.74
11.867308855056763,4.26,-4.59,1.9,6.54
11.867564916610718,4.4,-4.43,1.93,6.53
11.87378191947937,4.19,-3.83,1.79,5.95
11.883804082870483,3.22,-3.52,0.96,4.86
11.894477128982544,2.09,-3.74,0.62,4.32
11.903892040252686,1.52,-3.86,1.09,4.28
11.91380500793457,1.4,-4.03,1.38,4.48
11.924538850784302,1.47,-4.3,1.45,4.77
11.966956853866577,1.71,-4.86,1.44,5.34
11.967221975326538,1.8,-5.43,1.21,5.84
11.967488050460815,1.76,-5.98,0.87,6.29
11.967746019363403,1.65,-6.6,0.69,6.83
11.973625898361206,1.47,-7.24,0.76,7.42
11.983617067337036,1.13,-7.66,1.07,7.81
11.994416952133179,0.9,-7.92,1.5,8.11
12.003751039505005,0.53,-8.04,1.71,8.23
12.013656854629517,-0.25,-7.77,1.28,7.87
12.024311065673828,-1.49,-7.12,1.14,7.36
12.067096948623657,-2.67,-6.37,1.01,6.98
12.067360162734985,-3.66,-5.64,-0.06,6.72
12.067618131637573,-5.47,-4.64,-1.78,7.39
12.06787896156311,-7.56,-3.07,-3.95,9.06
12.07345700263977,-8.47,-0.59,-5.74,10.24
12.083484888076782,-8.26,1.68,-5.57,10.1
12.09437108039856,-8.06,3.33,-5.12,10.11
12.103575944900513,-8.68,4.79,-5.5,11.33
12.11353611946106,-9.83,5.75,-6.14,12.93
12.12423586845398,-10.7,4.46,-6.46,13.27
12.167853116989136,-10.66,2.4,-5.8,12.37
12.168123960494995,-10.31,1.08,-4.85,11.44
12.1683828830719,-9.86,0.29,-4.13,10.69
12.168640851974487,-9.33,0.47,-4.18,10.23
12.17330813407898,-7.77,4.12,-4.35,9.81
12.183372974395752,-3.15,0.24,-2.93,4.3
12.194278001785278,-1.2,1.55,-2.95,3.54
12.20349907875061,7.54,10.79,1.97,13.31
12.213618040084839,18.31,12.88,18.35,28.94
12.224169969558716,11.45,11.93,8.36,18.52
12.263638973236084,-2.0,5.13,-6.09,8.21
12.26390290260315,-8.19,0.49,-3.44,8.89
12.264163970947266,-9.43,-3.43,-0.87,10.07
12.264422178268433,-9.06,-1.49,-6.07,11.0
12.273257970809937,-11.01,0.41,-6.83,12.96
12.283257961273193,-9.01,0.37,-5.53,10.57
12.29420018196106,-5.53,-0.03,-3.81,6.71
12.303364038467407,-3.14,0.05,-2.06,3.75
12.313212156295776,-0.62,0.37,-0.35,0.8
12.323966979980469,1.15,0.93,0.94,1.75
12.365447044372559,1.29,1.35,0.89,2.06
12.365708112716675,-0.33,0.89,-0.25,0.98
12.365966081619263,-1.9,0.49,-1.51,2.47
12.366223096847534,-2.76,0.46,-1.8,3.32
12.37311601638794,-3.04,0.2,-1.29,3.3
12.38313102722168,-2.66,-0.16,-0.39,2.69
12.394015073776245,-1.88,-0.15,-0.01,1.88
12.403166055679321,-0.85,0.03,-0.5,0.98
12.41313910484314,-0.08,0.05,-1.33,1.33
12.423727035522461,0.02,-0.04,-1.49,1.49
12.46581506729126,-0.17,-0.04,-0.55,0.57
12.466081857681274,-0.26,0.07,0.42,0.49
12.466344118118286,0.01,0.16,0.93,0.94
12.466600179672241,0.5,0.24,1.13,1.25
12.47284483909607,0.97,0.23,0.77,1.25
12.482923030853271,0.95,0.07,0.1,0.95
12.493470907211304,0.85,0.05,-0.18,0.87
12.503048181533813,0.97,0.23,0.05,0.99
12.51295018196106,1.13,0.28,0.33,1.21
12.523619890213013,1.3,0.13,0.48,1.39
12.565347909927368,1.56,-0.03,0.63,1.68
12.56561017036438,1.74,-0.14,0.97,1.99
12.565850973129272,1.97,-0.14,1.25,2.33
12.566107034683228,2.46,-0.25,1.28,2.78
12.572679042816162,2.87,-0.53,0.78,3.02
12.58279013633728,2.78,-0.72,0.71,2.95
12.593351125717163,2.26,-0.41,0.75,2.41
12.602887868881226,1.65,0.05,0.58,1.74
12.612765073776245,1.64,0.4,0.54,1.77
12.62351107597351,2.09,0.4,0.75,2.25
12.666185140609741,2.1,0.25,0.71,2.23
12.666455030441284,1.87,0.21,0.58,1.96
12.666713953018188,1.94,-0.02,1.08,2.22
12.666977167129517,2.47,0.13,1.36,2.82
12.672646045684814,2.81,0.56,1.05,3.05
12.682829141616821,2.74,1.14,0.65,3.03
12.693257093429565,2.72,1.82,0.42,3.29
12.702694177627563,2.7,2.33,0.54,3.6
12.712620973587036,2.67,2.84,0.82,3.98
12.723330974578857,2.96,3.0,1.42,4.44
12.766040086746216,3.66,3.02,2.19,5.22
12.766300916671753,4.57,3.1,2.76,6.17
12.76656198501587,5.31,3.79,2.92,7.14
12.76681900024414,6.06,5.48,2.91,8.67
12.772503137588501,7.89,8.06,3.08,11.69
12.782511949539185,10.08,9.75,4.46,14.71
12.79308295249939,10.91,9.86,5.61,15.73
12.80255913734436,10.0,10.0,6.28,15.47
12.812520027160645,8.99,11.13,6.9,15.88
12.824609994888306,8.87,11.63,5.8,15.73
12.866477012634277,8.63,10.58,3.54,14.1
12.866744995117188,7.92,9.64,0.86,12.5
12.86700987815857,7.01,9.32,-3.34,12.13
12.867272138595581,4.52,10.85,-5.23,12.86
12.872299909591675,-0.4,12.54,-2.86,12.86
12.88236689567566,-3.87,12.27,-2.89,13.18
12.89293885231018,-3.62,8.14,-2.14,9.16
12.902372121810913,-3.18,3.34,-0.25,4.61
12.912425994873047,-6.11,-0.19,-1.16,6.22
12.923110008239746,-5.22,0.92,-2.87,6.02
12.96756386756897,0.23,1.24,-0.77,1.47
12.96782898902893,4.9,0.16,0.77,4.96
12.968088865280151,6.09,-1.33,1.67,6.45
12.968345880508423,4.79,-3.96,2.91,6.86
12.972210168838501,3.58,-5.44,2.41,6.94
12.982177972793579,3.31,-5.07,1.46,6.22
12.992740869522095,2.88,-4.21,1.34,5.27
13.00226616859436,2.47,-4.32,1.26,5.13
13.01220703125,2.15,-4.64,1.1,5.23
13.022933006286621,1.62,-4.77,1.82,5.35
13.067434072494507,1.43,-5.0,2.23,5.65
13.06769585609436,1.76,-5.31,2.01,5.94
13.067955017089844,2.27,-5.61,1.99,6.37
13.06821084022522,2.4,-5.83,1.75,6.54
13.071972131729126,2.32,-5.95,1.25,6.5
13.082038164138794,2.28,-6.37,1.04,6.84
13.092599153518677,2.18,-7.04,1.28,7.48
13.10211706161499,1.98,-7.55,1.49,7.94
13.112019062042236,1.78,-7.93,1.79,8.32
13.12279200553894,1.3,-8.13,2.02,8.47
13.168459177017212,0.25,-7.98,1.83,8.19
13.168729066848755,-1.17,-7.18,1.59,7.44
13.168992042541504,-2.22,-6.61,1.33,7.09
13.169249057769775,-4.02,-5.94,0.23,7.17
13.171895980834961,-6.91,-4.73,-1.98,8.6
13.181864023208618,-9.08,-2.55,-4.23,10.33
13.192436933517456,-9.26,-0.56,-4.7,10.39
13.202082872390747,-8.25,0.63,-4.1,9.23
13.211881875991821,-7.78,2.27,-3.82,8.95
13.222709894180298,-8.42,4.3,-4.27,10.37
13.26819896697998,-9.23,5.74,-5.19,12.04
13.268462896347046,-9.47,5.64,-5.55,12.34
13.26872205734253,-9.46,4.49,-5.0,11.6
13.268977880477905,-9.68,3.08,-3.96,10.9
13.271775007247925,-10.12,1.48,-3.31,10.74
13.281722068786621,-10.57,1.6,-4.08,11.44
13.29228401184082,-7.38,3.98,-4.74,9.63
13.301772832870483,-3.93,-1.66,-3.61,5.58
13.311711072921753,-2.52,1.08,-4.79,5.51
13.322561979293823,5.57,10.04,-0.26,11.48
13.368839979171753,16.23,11.33,17.1,26.15
13.36910891532898,11.99,10.46,10.41,19.01
13.369371175765991,4.54,9.59,-2.71,10.95
13.369627952575684,-2.21,5.92,-6.98,9.41
13.371691942214966,-7.7,-0.74,-2.52,8.13
13.381580114364624,-9.26,-4.86,-0.66,10.47
13.392199993133545,-9.88,-4.02,-5.68,12.08
13.4027578830719,-9.07,-1.46,-7.54,11.88
13.41169285774231,-9.6,0.03,-4.21,10.48
13.422414064407349,-9.13,0.73,-0.23,9.16
13.469353914260864,-3.43,1.2,1.57,3.95
13.469614028930664,0.67,1.29,1.5,2.08
13.469876050949097,1.02,1.52,-0.34,1.86
13.470133066177368,-0.4,1.26,-2.06,2.44
13.471781969070435,-2.26,0.84,-1.88,3.05
13.481471061706543,-2.61,0.76,-0.97,2.88
13.492064952850342,-2.44,0.03,-0.15,2.44
13.501618146896362,-2.01,-0.57,0.09,2.09
13.51174807548523,-1.13,-0.41,-0.18,1.21
13.522298097610474,0.11,0.34,-1.29,1.33
13.569187879562378,0.87,0.85,-1.79,2.16
13.56945013999939,0.9,0.48,-0.96,1.4
13.569709062576294,0.77,-0.19,-0.34,0.86
13.569965124130249,0.8,-0.34,0.1,0.87
13.571238994598389,1.05,-0.24,0.77,1.32
13.581198930740356,0.83,-0.1,0.67,1.07
13.591880083084106,0.44,0.11,0.15,0.47
13.601432085037231,0.09,0.19,0.0,0.21
13.61158299446106,0.35,0.24,0.13,0.44
13.622100114822388,0.88,0.25,0.24,0.94
13.669929027557373,1.38,0.18,0.43,1.45
13.670192003250122,1.75,0.08,0.6,1.85
13.670436143875122,1.79,0.08,0.76,1.94
13.670724153518677,1.37,0.24,0.98,1.7
13.67117714881897,0.83,0.3,1.14,1.44
13.681164026260376,0.6,0.04,1.25,1.38
13.691786050796509,0.68,-0.47,1.22,1.47
13.701303005218506,0.96,-0.95,1.04,1.7
13.711580038070679,1.07,-0.95,0.76,1.62
13.721986055374146,0.86,-0.47,0.3,1.02
13.77030897140503,0.51,0.11,-0.04,0.52
13.77074408531189,0.5,0.49,-0.07,0.7
13.771007061004639,0.56,0.3,0.32,0.71
13.771261930465698,0.5,-0.14,0.8,0.95
13.77151894569397,0.49,-0.22,0.65,0.84
13.781054019927979,0.72,-0.05,0.33,0.79
13.79160189628601,1.23,0.47,0.7,1.49
13.80114197731018,1.92,0.95,1.01,2.36
13.811062097549438,2.06,1.07,0.59,2.39
13.821755170822144,2.02,1.32,0.16,2.41
13.870909929275513,1.95,1.64,0.28,2.56
13.871168851852417,2.2,1.83,0.09,2.86
13.871409177780151,2.25,1.97,0.09,2.99
13.871668100357056,2.19,1.7,0.59,2.83
13.871925115585327,2.5,1.71,0.8,3.13
13.880848169326782,2.82,2.1,0.99,3.65
13.891402959823608,3.24,2.59,1.39,4.37
13.900938987731934,3.67,3.52,1.77,5.38
13.910950899124146,4.52,5.24,2.01,7.2
13.921612977981567,6.29,7.13,2.9,9.94
13.971112966537476,8.11,8.45,4.13,12.41
13.971372842788696,9.26,8.29,4.63,13.26
13.971634149551392,9.13,7.88,5.41,13.21
13.971894025802612,8.59,8.36,6.67,13.71
13.972156047821045,8.2,9.12,6.6,13.92
13.980799913406372,7.81,9.02,4.59,12.78
13.991356134414673,7.43,8.57,2.77,11.67
14.00082516670227,7.17,8.56,-0.11,11.16
14.010694980621338,6.8,9.71,-2.91,12.2
14.021471977233887,2.95,9.94,-2.52,10.67
14.071923971176147,-2.55,8.88,-0.13,9.23
14.072208166122437,-4.59,8.63,-1.13,9.83
14.072466135025024,-4.47,8.33,-1.03,9.5
14.072723150253296,-6.37,5.61,-0.08,8.48
14.072978973388672,-7.86,2.97,-2.03,8.64
14.08061695098877,-3.88,3.77,-3.92,6.68
14.09119701385498,1.97,4.35,-1.85,5.12
14.100887060165405,6.16,3.5,0.1,7.08
14.110617876052856,6.67,0.67,0.83,6.75
14.12139105796814,5.6,-2.58,1.59,6.36
14.172348976135254,5.36,-4.17,2.23,7.14
14.172609090805054,4.96,-4.77,2.44,7.3
14.172867059707642,4.31,-4.66,2.19,6.71
14.173123121261597,3.66,-4.13,2.08,5.89
14.17337703704834,2.9,-3.78,2.03,5.17
14.180469989776611,2.31,-3.79,1.84,4.8
14.191014051437378,1.99,-4.08,1.94,4.93
14.200587034225464,2.07,-4.38,1.99,5.23
14.210540056228638,2.38,-4.55,1.91,5.47
14.22122311592102,2.43,-4.49,1.67,5.37
14.272361040115356,2.27,-4.54,1.23,5.22
14.272623062133789,2.01,-4.78,0.97,5.27
14.272883176803589,1.73,-5.27,0.91,5.62
14.273151159286499,1.36,-5.88,0.95,6.1
14.273410081863403,0.82,-6.51,1.16,6.66
14.280302047729492,0.22,-6.98,1.22,7.08
14.290945053100586,-0.17,-7.32,1.17,7.41
14.300413846969604,-0.22,-7.5,1.15,7.59
14.310513973236084,-0.23,-7.26,0.9,7.31
14.32102084159851,-0.63,-6.74,0.65,6.8
14.373291969299316,-1.51,-6.05,0.71,6.27
14.373553991317749,-2.52,-5.29,0.35,5.87
14.373818159103394,-4.0,-4.22,-1.37,5.97
14.37408185005188,-6.0,-3.0,-3.13,7.4
14.374338865280151,-7.47,-1.56,-4.24,8.72
14.380125045776367,-7.99,0.17,-4.91,9.37
14.39084792137146,-7.89,1.83,-4.79,9.4
14.400264024734497,-7.79,3.17,-4.53,9.55
14.410136938095093,-8.31,4.24,-5.1,10.63
14.420830011367798,-9.0,4.18,-5.98,11.58
14.473822832107544,-9.26,2.94,-6.18,11.51
14.474085092544556,-9.87,1.71,-5.65,11.5
14.474343061447144,-11.12,0.57,-5.08,12.23
14.474601030349731,-11.87,0.89,-4.81,12.83
14.474857091903687,-8.39,4.61,-5.08,10.83
14.48004412651062,-4.95,0.88,-4.72,6.89
14.490669012069702,-2.08,1.74,-2.82,3.91
14.50024700164795,6.4,8.92,3.92,11.65
14.51006007194519,14.45,9.65,17.47,24.63
14.520753145217896,7.23,6.92,9.71,13.94
14.574289083480835,0.59,4.96,-1.78,5.3
14.574549913406372,-2.94,4.09,-6.49,8.21
14.57480788230896,-6.19,1.1,-0.75,6.33
14.575064897537231,-8.13,-1.02,1.92,8.41
14.57530403137207,-8.33,-1.02,-3.0,8.91
14.579869985580444,-7.1,-0.8,-4.67,8.53
14.590492963790894,-6.0,-0.66,-5.14,7.92
14.599985837936401,-4.63,0.36,-4.17,6.24
14.609998941421509,-1.45,1.23,-2.77,3.35
14.620583057403564,1.66,1.19,-0.47,2.09
14.675195932388306,1.98,1.21,0.68,2.41
14.675459146499634,-0.47,1.13,-0.84,1.48
14.675724029541016,-1.48,0.85,-2.53,3.05
14.67598295211792,-1.53,0.82,-2.33,2.9
14.676241159439087,-1.22,0.41,-1.38,1.88
14.67975401878357,-0.86,-0.36,-0.31,0.98
14.69037413597107,-0.16,-0.81,0.14,0.83
14.699872016906738,0.33,-0.48,0.04,0.58
14.709858179092407,-0.1,0.15,-0.09,0.2
14.72047209739685,-0.93,0.39,-0.29,1.04
14.775365114212036,-1.36,0.39,-0.54,1.51
14.77560806274414,-0.9,0.23,-0.54,1.07
14.775866031646729,0.17,0.22,0.04,0.28
14.776124000549316,0.8,0.13,0.73,1.09
14.776380062103271,0.47,-0.02,0.87,0.98
14.779563188552856,-0.08,-0.01,0.68,0.68
14.790130853652954,-0.31,-0.01,0.51,0.59
14.799781084060669,-0.06,0.1,0.39,0.4
14.80960202217102,0.3,0.17,0.26,0.43
14.820316076278687,0.7,0.16,0.23,0.75
14.875487089157104,1.24,0.06,0.19,1.25
14.875753164291382,1.56,-0.04,0.43,1.61
14.876012086868286,1.61,0.02,0.93,1.85
14.876270055770874,1.67,0.05,1.37,2.16
14.876526117324829,1.93,-0.12,1.28,2.31
14.879481077194214,2.16,-0.49,0.81,2.35
14.889997005462646,2.06,-0.73,0.55,2.25
14.899561166763306,1.51,-0.51,0.44,1.65
14.909425973892212,0.98,-0.14,0.23,1.01
14.920460939407349,0.76,0.32,-0.06,0.82
14.975957155227661,0.9,0.53,-0.08,1.04
14.976217031478882,1.09,0.48,0.27,1.22
14.976473093032837,1.45,0.23,0.65,1.6
14.976729154586792,1.74,0.12,0.93,1.97
14.976984024047852,1.56,0.48,0.86,1.84
14.979564905166626,1.1,1.03,0.45,1.57
14.9898099899292,0.97,1.89,0.02,2.12
14.999439001083374,1.15,2.48,0.29,2.74
15.009333848953247,1.11,2.34,0.92,2.74
15.020020961761475,1.49,2.09,0.76,2.67
15.075994968414307,1.84,2.0,0.7,2.8
15.076256036758423,2.25,1.94,0.66,3.04
15.076514959335327,2.65,2.02,0.5,3.36
15.07676911354065,2.97,2.21,0.56,3.74
15.077047109603882,3.44,2.9,1.01,4.61
15.079434156417847,4.16,4.53,1.39,6.3
15.089715003967285,6.05,6.53,2.04,9.13
15.09928584098816,7.52,8.06,3.32,11.51
15.109246015548706,8.6,9.24,3.79,13.17
15.119848012924194,9.48,9.81,4.39,14.33
15.176460981369019,9.62,9.47,5.66,14.63
15.176722049713135,9.19,8.65,5.97,13.96
15.176980018615723,8.78,7.82,5.06,12.8
15.177237033843994,9.12,7.65,3.31,12.35
15.177494049072266,10.0,8.85,0.34,13.35
15.179001092910767,9.65,10.61,-4.05,14.9
15.189565896987915,4.39,10.35,-8.8,14.27
15.19911789894104,-0.84,11.17,-8.93,14.32
15.20908498764038,-3.7,11.81,-3.42,12.83
15.219756841659546,-6.49,8.58,1.0,10.8
15.229090929031372,-10.33,3.21,4.12,11.57
15.277875185012817,-6.82,1.87,2.83,7.61
15.278136968612671,-0.67,2.85,-0.22,2.93
15.278426885604858,2.73,3.51,0.01,4.44
15.278868913650513,5.08,3.14,-0.58,6.0
15.27944803237915,5.89,1.29,-1.04,6.11
15.289397954940796,6.4,-1.0,-0.55,6.5
15.29892897605896,6.46,-2.63,0.08,6.97
15.308907985687256,5.89,-3.5,0.36,6.86
15.319610834121704,4.7,-3.51,0.66,5.9
15.329001188278198,3.46,-3.15,0.78,4.74
15.378513097763062,2.66,-3.0,0.67,4.06
15.378777980804443,1.89,-3.29,0.65,3.84
15.379038095474243,1.46,-3.98,0.73,4.3
15.379654169082642,1.69,-4.54,0.75,4.9
15.379915952682495,2.4,-4.64,0.61,5.25
15.389348983764648,2.92,-4.6,0.46,5.46
15.398771047592163,2.97,-4.63,-0.1,5.5
15.408773183822632,2.52,-5.13,-0.49,5.73
15.419452905654907,2.35,-5.8,-0.53,6.28
15.428743124008179,2.16,-6.45,-0.45,6.81
15.479090929031372,1.97,-7.07,-0.12,7.34
15.479698896408081,1.9,-7.6,0.45,7.84
15.479963064193726,1.92,-8.01,0.96,8.29
15.480220079421997,1.9,-8.33,1.19,8.62
15.480465173721313,1.74,-8.49,1.19,8.74
15.489117860794067,1.01,-8.17,1.22,8.32
15.498788118362427,0.18,-7.45,1.09,7.53
15.50871205329895,-0.67,-6.8,0.86,6.88
15.51928997039795,-2.24,-6.02,0.0,6.42
15.528723955154419,-4.81,-5.17,-1.58,7.23
15.579048871994019,-7.27,-3.76,-3.14,8.76
15.579318046569824,-8.29,-1.35,-4.32,9.44
15.57994818687439,-8.45,1.01,-4.65,9.69
15.580209970474243,-8.71,2.67,-4.41,10.12
15.580467939376831,-9.5,4.15,-4.32,11.23
15.58903193473816,-10.72,5.51,-4.94,13.02
15.598519086837769,-12.22,6.37,-5.59,14.87
15.608512163162231,-14.09,5.94,-5.16,16.13
15.61923599243164,-15.14,4.2,-3.82,16.16
15.62849497795105,-12.91,2.25,-3.17,13.48
15.678622961044312,-9.83,3.51,-3.0,10.86
15.678884983062744,-8.88,2.73,-5.69,10.89
15.679145097732544,-7.55,-0.6,-6.91,10.25
15.679406881332397,-5.43,7.67,-1.01,9.45
15.680016040802002,1.33,10.15,5.92,11.82
15.688814878463745,13.29,9.16,18.27,24.37
15.698575019836426,10.6,10.06,9.69,17.53
15.708357095718384,4.73,7.7,-2.19,9.29
15.719000101089478,1.08,3.06,-6.2,6.99
15.72839617729187,-1.83,-1.69,-5.91,6.41
15.779215097427368,-3.7,-2.45,-4.09,6.03
15.779485940933228,-5.19,-2.2,-1.7,5.88
15.780079126358032,-6.39,-1.47,-1.17,6.66
15.780338048934937,-7.03,-0.6,-0.94,7.11
15.780598878860474,-6.44,0.17,-0.23,6.44
15.788763046264648,-3.79,0.96,0.19,3.91
15.79826283454895,-2.22,1.2,-0.55,2.58
15.808183908462524,-1.08,1.23,-1.77,2.41
15.818761110305786,0.47,1.07,-2.7,2.94
15.828175067901611,0.93,0.89,-2.39,2.71
15.879256963729858,0.24,0.65,-0.75,1.02
15.87952208518982,-0.51,-0.03,0.8,0.94
15.880105972290039,-0.94,-0.8,1.21,1.72
15.880366086959839,-0.77,-0.87,0.34,1.21
15.880622148513794,-0.07,-0.02,-0.78,0.78
15.888549089431763,-0.02,0.65,-1.23,1.39
15.898053884506226,-0.27,0.58,-0.93,1.12
15.907992124557495,-0.46,0.16,-0.19,0.52
15.918668985366821,-0.39,-0.14,0.33,0.52
15.928086996078491,-0.15,-0.17,0.42,0.47
15.980508089065552,0.29,-0.1,0.33,0.45
15.980772018432617,0.87,-0.08,0.47,0.99
15.981029987335205,1.19,-0.07,0.78,1.42
15.981291055679321,1.17,-0.04,0.66,1.34
15.98154616355896,1.11,0.07,0.31,1.15
15.988409042358398,1.17,0.18,0.15,1.19
15.997814893722534,1.25,0.08,0.15,1.26
16.007982969284058,1.07,-0.05,0.24,1.09
16.01864004135132,0.71,-0.11,0.43,0.83
16.027941942214966,0.51,-0.12,0.59,0.78
16.08011794090271,0.61,-0.07,0.76,0.97
16.08037805557251,0.98,-0.08,0.86,1.3
16.080636024475098,1.34,-0.26,0.82,1.59
16.0809109210968,1.39,-0.53,0.48,1.56
16.081166982650757,1.12,-0.46,0.2,1.22
16.088268041610718,0.69,-0.14,0.1,0.71
16.097700834274292,0.55,0.12,-0.04,0.56
16.107738971710205,0.78,0.23,-0.03,0.81
16.119506120681763,1.07,0.15,0.26,1.11
16.1277859210968,1.46,-0.15,0.58,1.57
16.180531978607178,1.9,-0.34,1.14,2.24
16.180793046951294,2.13,0.01,1.57,2.64
16.181050062179565,1.72,0.51,0.79,1.96
16.181307077407837,1.0,1.07,-0.29,1.49
16.181562185287476,0.71,1.57,-0.61,1.82
16.18807101249695,1.05,1.83,-0.45,2.15
16.197563886642456,1.6,1.9,-0.34,2.5
16.207643032073975,1.92,2.41,-0.09,3.08
16.218212842941284,2.28,3.19,0.85,4.01
16.227625131607056,3.17,3.51,1.65,5.0
16.280874013900757,3.76,4.18,2.22,6.04
16.28113293647766,4.13,5.81,2.35,7.5
16.28139305114746,4.96,7.53,2.37,9.32
16.281648874282837,6.2,8.58,2.29,10.83
16.281904935836792,7.61,8.96,2.84,12.09
16.287960052490234,8.84,9.35,4.29,13.56
16.297438859939575,10.14,9.77,5.73,15.2
16.307559967041016,11.24,9.93,6.17,16.21
16.318132162094116,11.74,9.85,5.93,16.43
16.327441930770874,11.82,9.28,5.08,15.86
16.3817720413208,12.04,8.2,2.54,14.78
16.382036924362183,11.63,7.14,-1.78,13.76
16.382297039031982,9.23,6.77,-7.36,13.6
16.382554054260254,3.18,6.73,-11.84,13.98
16.38280987739563,-5.05,9.3,-10.91,15.19
16.387819051742554,-8.79,11.17,-4.72,14.97
16.397527933120728,-4.83,6.52,-0.85,8.15
16.4073269367218,-4.53,2.0,2.04,5.35
16.41794204711914,-6.21,-0.66,6.33,8.89
16.42730402946472,-1.38,-0.49,5.09,5.29
16.48204493522644,2.62,1.29,2.87,4.09
16.48232102394104,3.55,1.58,0.43,3.9
16.482617139816284,4.51,0.48,-1.82,4.88
16.482882976531982,5.69,-1.05,-2.36,6.24
16.483142137527466,7.15,-2.76,-1.61,7.83
16.48773503303528,7.87,-4.57,-0.23,9.1
16.497287034988403,7.03,-5.88,0.92,9.21
16.50715708732605,3.84,-5.9,1.72,7.24
16.517807960510254,1.2,-4.16,1.41,4.55
16.52726697921753,0.19,-2.83,0.45,2.87
16.582780122756958,-0.02,-2.68,0.23,2.68
16.583045959472656,0.85,-3.62,0.3,3.73
16.583304166793823,1.63,-4.74,0.48,5.03
16.583559036254883,1.96,-5.2,0.59,5.58
16.583817958831787,2.04,-5.05,0.42,5.46
16.587526082992554,1.91,-4.92,0.4,5.29
16.597241163253784,1.54,-5.38,0.62,5.63
16.607115030288696,1.21,-6.18,0.94,6.36
16.617647886276245,0.95,-6.99,1.31,7.17
16.627048015594482,0.8,-7.49,1.5,7.68
16.682837963104248,0.76,-7.63,1.54,7.82
16.68310284614563,0.82,-7.45,1.64,7.67
16.6833598613739,0.52,-7.1,1.69,7.31
16.68361806869507,-0.06,-6.59,1.55,6.77
16.683876991271973,-1.06,-5.92,1.43,6.18
16.687337160110474,-2.6,-5.14,0.69,5.8
16.696902990341187,-4.57,-4.36,-1.26,6.44
16.706867933273315,-5.96,-3.28,-3.14,7.49
16.717592000961304,-6.69,-1.48,-4.2,8.03
16.72692608833313,-7.81,0.73,-4.4,8.99
16.783703088760376,-9.29,2.56,-4.27,10.53
16.78396487236023,-10.78,3.55,-4.19,12.09
16.78422498703003,-11.94,3.94,-4.39,13.31
16.784484148025513,-12.81,4.12,-4.54,14.2
16.784741163253784,-13.44,4.08,-4.08,14.62
16.787235021591187,-13.74,3.52,-3.31,14.56
16.796860933303833,-13.17,2.2,-2.65,13.61
16.806742906570435,-10.99,1.62,-1.95,11.27
16.817419052124023,-9.91,4.48,-1.29,10.95
16.82681393623352,-8.75,0.72,-5.55,10.38
16.883561849594116,-7.2,-0.29,-3.09,7.84
16.883833169937134,-1.94,5.65,2.44,6.45
16.884099006652832,6.73,11.93,7.85,15.78
16.88435697555542,10.47,14.33,10.0,20.37
16.88461709022522,8.88,11.19,2.66,14.53
16.887053966522217,7.92,7.99,-4.61,12.15
16.896631956100464,5.04,3.48,-7.61,9.76
16.9066379070282,2.25,0.95,-4.33,4.97
16.91721510887146,-0.06,-1.1,-0.77,1.34
16.926615953445435,-2.72,-2.66,0.52,3.83
16.984426975250244,-4.98,-3.53,-0.01,6.1
16.98467206954956,-6.55,-3.53,-1.13,7.52
16.984930992126465,-7.39,-2.78,-1.08,7.96
16.985188961029053,-7.24,-0.9,0.31,7.3
16.985449075698853,-6.8,1.13,1.31,7.01
16.98689913749695,-5.74,1.81,0.24,6.02
16.996440172195435,-3.44,1.34,-1.24,3.89
17.00640892982483,-1.29,0.29,-2.49,2.81
17.01709294319153,-0.37,-0.02,-2.33,2.35
17.02645993232727,0.37,0.23,-0.71,0.83
17.08468985557556,1.11,0.27,0.55,1.26
17.0849449634552,1.1,-0.1,0.61,1.26
17.085206985473633,0.4,-0.29,0.13,0.51
17.085464000701904,-0.15,-0.13,-0.49,0.52
17.085741996765137,-0.18,0.03,-0.97,0.98
17.086694955825806,-0.2,0.12,-0.83,0.86
17.09639811515808,-0.18,0.27,-0.27,0.42
17.106364011764526,-0.17,0.34,0.24,0.44
17.11701798439026,-0.1,0.16,0.36,0.4
17.126369953155518,0.0,-0.07,0.32,0.32
17.184951066970825,0.04,-0.14,0.52,0.54
17.185211896896362,0.2,-0.09,0.7,0.73
17.185492038726807,0.54,-0.08,0.6,0.81
17.18593406677246,0.93,0.04,0.44,1.02
17.18619418144226,1.18,0.14,0.29,1.22
17.186987161636353,1.14,0.24,0.25,1.19
17.196234941482544,0.94,0.32,0.27,1.02
17.20615315437317,0.76,0.29,0.23,0.84
17.216856002807617,0.83,0.19,0.38,0.93
17.226192951202393,1.12,-0.06,0.73,1.33
17.285922050476074,1.72,-0.51,1.09,2.09
17.28618884086609,2.63,-1.02,1.21,3.06
17.286448001861572,3.24,-1.04,1.15,3.59
17.286705017089844,3.38,-0.5,0.72,3.49
17.286959886550903,3.0,0.05,0.06,3.0
17.287742853164673,2.57,0.36,-0.51,2.64
17.29616904258728,2.0,0.43,-0.54,2.11
17.306052923202515,1.17,0.56,0.5,1.39
17.31666588783264,0.96,0.42,1.17,1.57
17.326092004776,1.3,0.18,1.11,1.71
17.385989904403687,1.44,0.28,0.87,1.7
17.386250972747803,1.39,0.64,0.55,1.62
17.38650918006897,1.28,1.28,0.41,1.85
17.386762857437134,1.5,2.09,0.26,2.58
17.3870210647583,2.04,2.5,-0.32,3.24
17.387794017791748,2.16,3.18,-0.16,3.84
17.395981073379517,2.42,3.79,0.61,4.53
17.405920028686523,2.89,4.63,1.74,5.72
17.416352033615112,3.31,6.28,3.09,7.74
17.425920963287354,4.24,7.54,3.19,9.21
17.486250162124634,5.74,7.82,2.31,9.97
17.486510038375854,7.05,7.94,2.5,10.9
17.486767053604126,8.05,8.44,3.84,12.27
17.48702311515808,9.07,9.48,5.62,14.27
17.487282037734985,10.55,10.03,6.48,15.93
17.48803997039795,11.88,9.25,5.84,16.14
17.495755910873413,12.31,7.79,4.23,15.16
17.505763053894043,12.04,6.68,2.22,13.94
17.516249895095825,11.35,6.28,-0.58,12.98
17.52583384513855,9.0,7.14,-4.89,12.48
17.58703589439392,1.71,9.31,-9.57,13.46
17.5873019695282,-8.82,11.36,-11.2,18.22
17.587565183639526,-13.71,10.93,-6.47,18.68
17.587825059890747,-7.25,6.3,-1.4,9.7
17.588081121444702,-3.54,4.13,2.26,5.89
17.588846921920776,-5.69,2.32,5.79,8.44
17.59567403793335,-3.37,0.77,6.64,7.48
17.60559105873108,1.13,0.98,4.31,4.56
17.616117000579834,3.52,0.81,1.88,4.07
17.625591039657593,5.2,0.07,0.53,5.22
17.687235116958618,6.43,-1.04,0.37,6.52
17.687495946884155,7.26,-2.37,0.95,7.69
17.687752962112427,7.84,-3.64,2.13,8.9
17.6880099773407,6.62,-4.57,3.34,8.71
17.688265085220337,3.29,-4.16,3.87,6.56
17.68904709815979,1.81,-3.07,3.17,4.76
17.6955668926239,1.5,-2.99,2.54,4.2
17.705433130264282,2.33,-3.56,2.57,4.97
17.715906858444214,3.33,-4.24,2.91,6.12
17.72554302215576,3.78,-4.81,2.87,6.75
17.78760004043579,3.85,-5.22,2.38,6.9
17.787870168685913,3.77,-5.63,2.01,7.06
17.788129091262817,3.36,-6.07,1.87,7.18
17.78838610649109,2.71,-6.43,1.63,7.16
17.788642168045044,1.95,-6.87,1.43,7.28
17.78943705558777,1.33,-7.46,1.32,7.69
17.795356035232544,0.93,-8.16,1.45,8.33
17.805315017700195,0.84,-8.74,1.6,8.92
17.816002130508423,1.01,-9.04,1.61,9.23
17.82533597946167,1.08,-8.86,1.76,9.09
17.88830018043518,0.44,-7.85,1.9,8.08
17.888561964035034,-1.11,-6.56,1.36,6.79
17.888819932937622,-2.47,-5.03,-0.24,5.6
17.889080047607422,-4.38,-3.04,-2.27,5.79
17.889337062835693,-6.39,-0.49,-3.95,7.52
17.89009404182434,-7.84,2.75,-4.93,9.66
17.895205974578857,-9.04,5.65,-5.57,12.02
17.905214071273804,-9.93,7.99,-6.43,14.27
17.971462965011597,-11.25,8.87,-8.16,16.48
17.971729040145874,-13.26,7.31,-10.47,18.4
17.97199296951294,-13.99,5.07,-11.32,18.69
17.972256898880005,-14.24,4.04,-9.5,17.58
17.972517013549805,-14.34,8.49,-4.25,17.19
17.97277283668518,-10.58,3.02,-6.82,12.94
17.975152015686035,-7.77,-0.65,-4.68,9.09
17.985586881637573,-4.25,6.37,5.58,9.47
17.995049953460693,2.83,10.52,10.56,15.17
18.005089044570923,8.44,10.62,10.32,17.04
18.073678016662598,7.94,6.45,3.99,10.98
18.073949098587036,3.98,0.72,-0.23,4.05
18.074239015579224,-1.25,-0.85,-0.44,1.57
18.074671030044556,-4.68,-3.18,-2.22,6.07
18.07493305206299,-6.48,-2.98,-5.39,8.93
18.075191974639893,-8.57,-1.05,-6.53,10.82
18.07545018196106,-9.72,1.68,-5.16,11.13
18.085427045822144,-8.98,2.71,-3.77,10.1
18.095019102096558,-6.12,1.83,-2.54,6.87
18.10503101348877,-2.11,0.76,-1.53,2.71
18.173691987991333,0.63,0.59,-0.57,1.03
18.17396092414856,2.24,0.67,-0.05,2.33
18.174248933792114,2.79,0.53,-0.43,2.87
18.174700021743774,2.17,0.2,-1.31,2.54
18.174959897994995,0.48,0.08,-1.42,1.5
18.175214052200317,-1.38,-0.03,-0.6,1.5
18.175472021102905,-2.46,-0.35,0.92,2.64
18.185309171676636,-2.01,-0.96,1.91,2.93
18.19480586051941,-0.38,-1.26,1.91,2.31
18.204822063446045,0.77,-0.59,1.24,1.57
18.274049997329712,1.19,0.14,-0.19,1.21
18.274502992630005,1.04,0.51,-1.6,1.97
18.274762868881226,0.58,0.66,-2.1,2.27
18.275036096572876,0.21,0.5,-1.58,1.67
18.275294065475464,0.06,0.06,-0.39,0.39
18.275551080703735,0.05,-0.26,0.81,0.85
18.275808095932007,0.33,-0.37,1.46,1.54
18.285166025161743,0.91,-0.28,1.46,1.74
18.294830083847046,1.3,-0.05,1.07,1.68
18.304649114608765,1.32,0.18,0.59,1.45
18.373968839645386,0.94,0.39,0.13,1.02
18.374400854110718,0.33,0.41,-0.23,0.57
18.37466311454773,-0.14,0.3,-0.33,0.46
18.374923944473267,-0.15,0.07,-0.17,0.23
18.37518000602722,0.33,-0.17,0.1,0.38
18.375438928604126,1.12,-0.29,0.44,1.23
18.37569499015808,1.96,-0.31,1.01,2.22
18.38498091697693,2.47,-0.52,0.95,2.69
18.394535064697266,2.15,-0.44,0.42,2.23
18.404510021209717,1.03,0.11,-0.05,1.03
18.41507887840271,0.25,0.47,-0.45,0.69
18.47465491294861,0.15,0.49,-0.54,0.74
18.474915981292725,0.2,0.34,-0.05,0.39
18.475172996520996,0.49,-0.01,0.6,0.77
18.47542905807495,0.8,-0.35,1.04,1.35
18.47568702697754,0.85,-0.3,1.31,1.59
18.47594904899597,0.67,0.17,1.14,1.33
18.484954118728638,0.5,0.62,0.5,0.94
18.49451184272766,0.53,1.04,0.16,1.17
18.50440812110901,0.8,1.19,0.42,1.49
18.514939069747925,1.5,1.14,0.77,2.03
18.57441210746765,2.3,1.42,1.17,2.94
18.57467293739319,2.89,1.77,0.96,3.52
18.574930906295776,2.8,2.64,0.69,3.9
18.575187921524048,2.78,3.18,0.44,4.24
18.575443983078003,3.0,3.31,0.51,4.49
18.575698137283325,3.27,3.4,1.22,4.87
18.584792852401733,3.57,4.39,2.35,6.12
18.594270944595337,3.99,6.09,3.27,7.98
18.604275941848755,4.97,7.11,2.97,9.16
18.614876985549927,6.43,7.43,2.21,10.07
18.67467999458313,7.64,8.0,2.52,11.34
18.674941062927246,8.74,8.7,3.57,12.83
18.67519998550415,9.76,9.38,4.8,14.36
18.67546010017395,10.94,10.07,5.56,15.87
18.675718069076538,12.23,9.82,5.84,16.73
18.67597508430481,12.68,8.57,5.29,16.19
18.684609174728394,11.68,6.94,2.45,13.8
18.69433903694153,8.94,6.29,-2.78,11.27
18.70401406288147,2.44,7.86,-8.93,12.14
18.71457004547119,-7.94,11.33,-11.98,18.3
18.775334119796753,-12.89,14.53,-6.08,20.35
18.775624990463257,-9.26,9.44,-0.59,13.23
18.775895833969116,-1.73,3.84,2.01,4.66
18.776154041290283,-0.36,0.68,4.25,4.31
18.776411056518555,-3.09,-3.17,7.9,9.05
18.776667833328247,-1.77,-2.14,6.07,6.67
18.784332990646362,0.51,1.23,2.26,2.62
18.793948888778687,3.28,1.76,0.29,3.73
18.80389094352722,6.32,0.42,-0.7,6.37
18.814427137374878,8.5,-1.13,-0.56,8.59
18.876138925552368,10.05,-2.49,0.43,10.36
18.87640690803528,11.13,-3.84,2.4,12.01
18.876664876937866,9.1,-4.87,4.75,11.36
18.876921892166138,3.2,-4.2,5.21,7.41
18.877179861068726,0.19,-2.35,3.87,4.53
18.877443075180054,-0.91,-1.4,2.76,3.22
18.884209871292114,-1.48,-1.56,2.36,3.19
18.89594602584839,-1.53,-2.4,2.28,3.64
18.903774976730347,-0.47,-3.3,1.93,3.85
18.91438102722168,0.2,-3.91,1.46,4.17
18.976456880569458,0.19,-4.23,1.02,4.35
18.976716995239258,0.16,-4.44,0.8,4.51
18.97697615623474,0.02,-5.04,1.06,5.15
18.977233171463013,-0.49,-6.04,1.63,6.27
18.977486848831177,-0.97,-7.01,2.0,7.35
18.97776198387146,-1.03,-7.56,1.97,7.88
18.984066009521484,-0.91,-7.49,1.79,7.75
18.993656873703003,-0.54,-6.82,1.87,7.09
19.00510597229004,-0.43,-6.11,2.34,6.55
19.014249086380005,-0.95,-5.42,2.25,5.94
19.077584981918335,-1.61,-4.51,0.86,4.86
19.07784605026245,-2.81,-3.35,-0.86,4.45
19.07810401916504,-4.56,-2.14,-2.29,5.53
19.078363180160522,-6.01,-0.96,-3.47,7.0
19.078622102737427,-6.87,0.31,-3.9,7.9
19.078878164291382,-7.5,1.37,-3.94,8.58
19.083837032318115,-8.45,2.05,-4.61,9.84
19.093505144119263,-9.68,2.67,-6.05,11.72
19.10348105430603,-11.31,2.74,-7.23,13.7
19.114039182662964,-12.49,1.99,-7.42,14.66
19.17751383781433,-11.5,1.13,-6.7,13.35
19.177778959274292,-9.18,6.37,-2.63,11.47
19.17803692817688,-4.26,5.8,-3.4,7.95
19.178294897079468,-2.34,0.7,-8.21,8.56
19.17855191230774,-3.93,2.48,-3.52,5.82
19.178807973861694,-5.23,6.61,3.44,9.1
19.18368101119995,-1.27,11.67,2.38,11.97
19.193377017974854,-1.44,14.64,-0.39,14.71
19.203325986862183,-6.8,6.99,-2.81,10.14
19.213929891586304,-5.44,-2.51,-6.23,8.64
19.278007984161377,-3.07,-4.19,-4.56,6.91
19.278271913528442,-3.32,-3.82,-0.64,5.1
19.278536081314087,-4.35,-2.84,0.85,5.26
19.27879309654236,-4.54,-0.79,0.3,4.61
19.279052019119263,-3.68,0.9,-0.19,3.79
19.27930998802185,-2.59,1.19,-1.01,3.02
19.28369116783142,-1.18,0.95,-1.73,2.29
19.2932710647583,0.4,1.06,-2.03,2.32
19.303097009658813,1.44,1.2,-1.97,2.71
19.31379199028015,1.7,1.09,-1.61,2.58
19.378807067871094,0.92,0.56,-1.29,1.68
19.379069089889526,-1.14,0.16,-0.97,1.5
19.379333019256592,-2.77,-0.23,-0.58,2.83
19.379594087600708,-3.34,-0.57,0.22,3.39
19.379850149154663,-2.4,-0.79,0.84,2.66
19.380110025405884,-0.35,-0.53,0.74,0.97
19.3836669921875,0.77,0.13,-0.04,0.78
19.393160104751587,0.58,0.71,-1.18,1.49
19.40299105644226,-0.46,1.0,-1.69,2.01
19.413676023483276,-1.27,0.87,-1.31,2.02
19.47908091545105,-1.31,0.41,-0.47,1.45
19.479345083236694,-0.9,0.02,0.13,0.9
19.479604959487915,-0.35,-0.12,0.2,0.42
19.479862928390503,0.17,-0.07,0.11,0.21
19.48011803627014,0.47,0.08,0.39,0.61
19.480377912521362,0.55,0.22,0.59,0.83
19.483531951904297,0.5,0.23,0.48,0.73
19.493088006973267,0.4,0.21,0.17,0.48
19.50287413597107,0.35,0.29,-0.03,0.45
19.513532876968384,0.39,0.39,0.0,0.55
19.579169034957886,0.59,0.43,0.33,0.8
19.579427003860474,0.84,0.35,0.81,1.21
19.57968306541443,1.26,0.07,0.99,1.6
19.5799400806427,1.89,-0.31,0.92,2.12
19.580196142196655,2.54,-0.68,0.83,2.75
19.580454111099243,2.58,-0.7,0.79,2.78
19.583400011062622,2.26,-0.36,0.46,2.33
19.59279990196228,1.87,0.06,0.07,1.87
19.602789163589478,1.48,0.49,-0.12,1.56
19.613402128219604,1.22,0.77,-0.27,1.46
19.679313898086548,1.18,0.94,-0.12,1.51
19.679578065872192,1.32,0.96,0.43,1.68
19.679837942123413,1.81,1.0,0.89,2.25
19.680095911026,2.39,1.32,1.67,3.2
19.680350065231323,2.43,1.11,2.36,3.56
19.680605173110962,2.41,1.18,2.48,3.65
19.683454990386963,2.47,1.52,1.85,3.44
19.692718982696533,2.26,1.87,1.04,3.11
19.70268416404724,2.28,2.13,0.33,3.13
19.71330499649048,2.45,2.32,-0.02,3.37
19.779239892959595,2.77,2.37,0.0,3.64
19.77950406074524,3.29,2.41,0.53,4.11
19.779760122299194,3.84,3.34,1.75,5.38
19.780014991760254,4.39,6.34,3.52,8.47
19.780272006988525,5.43,9.16,4.35,11.5
19.78053116798401,7.51,9.64,3.17,12.62
19.783403158187866,9.31,9.58,3.06,13.7
19.792613983154297,10.51,9.87,4.38,15.06
19.80246615409851,11.72,10.56,5.61,16.74
19.81312394142151,12.77,11.13,6.9,18.29
19.880800008773804,13.39,10.54,6.19,18.13
19.881062984466553,12.16,8.94,1.54,15.17
19.881322145462036,8.0,8.1,-6.25,12.98
19.88158106803894,-2.32,9.68,-14.05,17.21
19.881880044937134,-12.57,14.35,-12.52,22.81
19.882297039031982,-12.03,14.27,-5.84,19.55
19.883421182632446,-3.57,7.47,-1.61,8.43
19.892446041107178,-0.89,4.84,1.75,5.22
19.902323007583618,-3.98,2.68,4.18,6.36
19.912898063659668,-3.01,1.14,4.09,5.2
19.980959177017212,1.4,0.92,2.42,2.94
19.981220960617065,4.44,0.99,1.33,4.73
19.98150610923767,5.77,0.23,0.4,5.78
19.981799840927124,6.07,-1.08,-0.59,6.19
19.982218980789185,5.91,-2.46,-1.24,6.52
19.98247504234314,5.76,-3.76,-1.04,6.95
19.983626127243042,5.66,-4.5,0.72,7.26
19.992337942123413,5.15,-5.18,3.4,8.05
20.00216794013977,3.55,-5.44,4.24,7.75
20.01280403137207,1.66,-4.34,3.41,5.76
20.082555055618286,0.83,-3.53,2.2,4.24
20.08281683921814,0.94,-3.91,1.78,4.39
20.083076000213623,1.41,-4.49,1.84,5.05
20.08365297317505,1.66,-4.67,1.58,5.2
20.08391308784485,1.57,-4.54,1.1,4.92
20.08419895172119,1.34,-4.51,0.87,4.78
20.08498215675354,1.05,-4.89,0.9,5.08
20.0922749042511,0.93,-5.56,1.05,5.73
20.102159023284912,0.89,-6.34,1.29,6.53
20.11267399787903,0.69,-6.97,1.52,7.16
20.182286977767944,0.36,-7.3,1.71,7.5
20.182552099227905,0.12,-7.54,1.8,7.75
20.18282198905945,0.07,-7.59,2.07,7.86
20.183083057403564,0.23,-7.31,2.14,7.62
20.18370795249939,0.1,-6.64,1.75,6.86
20.18397307395935,-0.99,-5.75,1.04,5.92
20.18479895591736,-2.92,-4.94,0.28,5.74
20.191943883895874,-4.43,-4.14,-1.12,6.16
20.20193314552307,-5.38,-3.19,-2.78,6.84
20.212512016296387,-6.18,-2.0,-4.0,7.62
20.28308415412903,-7.17,-0.5,-4.56,8.51
20.283679008483887,-8.53,1.07,-4.83,9.86
20.283942937850952,-10.1,2.34,-5.12,11.56
20.284204959869385,-11.37,3.1,-5.28,12.91
20.284471035003662,-12.28,2.95,-5.04,13.59
20.284728050231934,-12.46,1.71,-4.2,13.25
20.28552508354187,-12.09,0.55,-3.31,12.54
20.291756868362427,-11.62,0.34,-3.2,12.05
20.301790952682495,-11.56,0.73,-4.06,12.27
20.312397003173828,-12.66,3.23,-3.68,13.57
20.383383989334106,-10.5,3.01,-6.67,12.79
20.38397717475891,-6.26,1.99,-6.96,9.57
20.384242057800293,-1.44,11.68,4.98,12.77
20.384504079818726,9.21,17.99,14.49,24.86
20.384763956069946,12.29,13.17,14.6,23.18
20.385020971298218,7.8,3.58,2.89,9.05
20.385812997817993,5.04,-1.68,-5.16,7.4
20.391674995422363,2.85,-1.97,-5.98,6.91
20.402493000030518,0.44,-0.18,-3.77,3.79
20.412288904190063,-3.12,-0.63,-3.18,4.49
20.484138011932373,-6.78,0.49,-2.76,7.33
20.48439908027649,-8.74,1.26,-2.57,9.19
20.484657049179077,-9.19,0.82,-2.69,9.61
20.48491406440735,-8.27,0.07,-2.56,8.65
20.485169172286987,-6.34,0.52,-1.22,6.47
20.485424041748047,-3.81,1.2,0.12,3.99
20.486183881759644,-0.9,1.01,0.16,1.36
20.49155902862549,1.19,0.56,-0.39,1.37
20.50142502784729,2.16,0.32,-0.52,2.24
20.512099981307983,2.29,0.11,-0.4,2.32
20.584622144699097,1.73,-0.13,-0.31,1.76
20.584884881973267,0.58,-0.17,-0.2,0.63
20.58514714241028,-0.76,-0.09,-0.12,0.77
20.585410833358765,-1.51,-0.16,-0.13,1.52
20.58567214012146,-1.4,-0.24,-0.45,1.49
20.585931062698364,-0.96,-0.21,-0.8,1.26
20.586724996566772,-0.43,0.05,-0.86,0.96
20.591345071792603,0.09,0.37,-0.57,0.68
20.601226091384888,0.37,0.36,0.06,0.51
20.611862897872925,0.27,0.06,0.58,0.64
20.685023069381714,0.21,-0.2,0.78,0.83
20.68529486656189,0.22,-0.28,0.95,1.01
20.685556173324585,0.26,-0.23,1.15,1.2
20.685811042785645,0.46,-0.18,1.1,1.2
20.68606686592102,0.85,-0.11,0.77,1.15
20.68632197380066,1.13,0.02,0.5,1.23
20.68707013130188,1.14,0.19,0.28,1.18
20.691184997558594,1.01,0.23,0.06,1.03
20.701153993606567,0.95,0.11,-0.12,0.96
20.7117760181427,1.17,-0.07,-0.04,1.17
20.784783124923706,1.64,-0.24,0.29,1.68
20.785051107406616,2.18,-0.42,0.76,2.34
20.78531503677368,2.45,-0.53,1.12,2.74
20.78556203842163,2.33,-0.57,1.12,2.64
20.78582215309143,2.06,-0.44,0.71,2.22
20.78608012199402,1.87,-0.08,0.12,1.87
20.786929845809937,1.62,0.26,-0.29,1.66
20.791110038757324,1.27,0.37,-0.36,1.37
20.801307916641235,0.82,0.34,0.0,0.88
20.811617136001587,0.46,0.21,0.37,0.62
20.885164976119995,0.79,-0.05,0.55,0.96
20.885430097579956,1.38,0.07,1.02,1.71
20.88569188117981,1.6,0.36,1.45,2.18
20.885947942733765,1.52,0.68,1.22,2.06
20.886211156845093,1.36,1.04,0.48,1.77
20.886472940444946,1.19,1.73,-0.21,2.11
20.887264013290405,1.43,2.6,-0.7,3.04
20.890953063964844,2.21,3.21,-1.04,4.03
20.901201009750366,2.74,3.78,-0.16,4.67
20.911522150039673,3.43,4.36,1.84,5.84
20.985350847244263,4.3,6.29,4.0,8.6
20.985615968704224,5.37,9.12,5.5,11.92
20.985874891281128,7.33,10.59,4.49,13.63
20.986135005950928,9.62,11.54,3.02,15.32
20.986398935317993,11.26,12.16,2.88,16.82
20.98665499687195,12.41,12.18,3.76,17.79
20.9874370098114,13.12,12.7,5.05,18.94
20.9908230304718,14.18,12.15,5.88,19.57
21.001056909561157,14.19,9.72,5.16,17.95
21.011322021484375,12.99,6.93,1.39,14.78
21.086761951446533,10.73,6.85,-4.08,13.36
21.087033987045288,3.72,9.92,-8.73,13.72
21.08729386329651,-7.52,12.41,-12.45,19.11
21.087553024291992,-12.14,10.99,-11.86,20.21
21.08781599998474,-5.41,7.04,-4.97,10.17
21.088072061538696,-3.72,4.71,0.36,6.01
21.088842153549194,-4.85,2.42,2.88,6.13
21.09063410758972,-1.78,1.06,3.89,4.4
21.10064387321472,2.75,-0.02,3.93,4.79
21.111217975616455,5.77,-1.08,3.03,6.6
21.186571836471558,6.99,-1.97,1.95,7.51
21.18683886528015,6.87,-2.87,0.48,7.46
21.187100172042847,6.35,-3.68,-1.11,7.42
21.187368154525757,6.28,-4.07,-1.76,7.68
21.187628984451294,6.48,-3.91,-1.0,7.63
21.1878879070282,6.3,-3.4,0.61,7.18
21.18865418434143,5.11,-3.34,1.46,6.27
21.19052290916443,3.1,-3.53,0.85,4.77
21.20052409172058,2.23,-3.66,0.03,4.28
21.211036920547485,2.2,-3.94,0.05,4.51
21.286461114883423,2.63,-4.23,0.61,5.01
21.286729097366333,2.94,-4.46,0.68,5.38
21.286988019943237,3.0,-4.68,0.16,5.56
21.287265062332153,2.8,-5.04,-0.23,5.77
21.287524938583374,2.58,-5.63,-0.35,6.2
21.28778100013733,2.39,-6.44,-0.13,6.87
21.28855800628662,2.02,-7.16,0.36,7.44
21.290394067764282,1.64,-7.74,0.63,7.93
21.300275087356567,0.98,-8.16,0.51,8.23
21.310868978500366,-0.06,-8.44,0.25,8.44
21.386740922927856,-0.8,-8.43,0.22,8.47
21.387004137039185,-1.49,-8.25,0.27,8.38
21.387265920639038,-2.33,-7.8,-0.2,8.14
21.387524843215942,-3.29,-7.01,-1.65,7.91
21.387784957885742,-4.3,-5.9,-3.47,8.08
21.388045072555542,-5.59,-4.66,-4.91,8.77
21.388810873031616,-6.68,-3.05,-5.7,9.29
21.39026188850403,-8.1,-0.9,-5.86,10.03
21.400086164474487,-10.47,1.36,-5.45,11.88
21.410789966583252,-13.01,2.88,-5.07,14.25
21.487601041793823,-14.53,3.19,-5.15,15.74
21.487872838974,-15.05,2.77,-4.93,16.07
21.4881329536438,-15.63,2.45,-4.41,16.42
21.488394021987915,-16.67,2.51,-3.64,17.24
21.48863911628723,-16.67,6.18,-0.9,17.8
21.488896131515503,-9.01,5.66,-5.54,11.99
21.489714860916138,-4.58,4.47,-3.92,7.5
21.490237951278687,1.79,15.12,11.62,19.15
21.50049090385437,10.24,22.52,14.61,28.73
21.510640859603882,9.33,16.78,8.64,21.05
21.58795189857483,6.09,4.64,-5.35,9.34
21.588215112686157,1.39,-2.16,-11.97,12.24
21.588473081588745,-3.42,-1.35,-6.85,7.77
21.588737964630127,-5.04,-1.27,-2.99,5.99
21.588992834091187,-7.01,-2.17,-0.14,7.33
21.589272022247314,-9.63,-2.2,3.18,10.37
21.59025502204895,-10.27,-2.42,4.68,11.54
21.590512990951538,-7.92,-2.7,3.7,9.14
21.59986400604248,-4.69,-2.18,1.08,5.28
21.610499143600464,-2.85,-0.81,-1.5,3.32
21.688634157180786,-0.87,1.43,-3.2,3.61
21.688905954360962,0.91,2.89,-4.6,5.5
21.689187049865723,2.0,3.24,-5.47,6.66
21.689622163772583,2.1,2.42,-4.88,5.83
21.68988299369812,1.25,1.15,-2.36,2.9
21.690139055252075,0.03,0.17,0.07,0.18
21.69091796875,-1.03,-0.76,1.8,2.2
21.691181898117065,-1.39,-1.51,2.72,3.4
21.69971203804016,-0.98,-1.85,1.89,2.82
21.71025013923645,-0.51,-0.92,0.64,1.23
21.787803888320923,-0.03,0.4,-0.34,0.52
21.788070917129517,0.64,1.01,-1.09,1.61
21.78832983970642,1.11,1.02,-1.15,1.89
21.788589000701904,1.12,0.57,-0.56,1.37
21.788864850997925,0.85,0.06,0.4,0.94
21.78912615776062,0.67,-0.31,1.12,1.34
21.790183067321777,0.59,-0.44,1.33,1.52
21.790438890457153,0.7,-0.3,1.02,1.27
21.799586057662964,0.94,-0.01,0.34,0.99
21.810216188430786,1.07,0.24,-0.12,1.1
21.888484001159668,1.17,0.31,-0.12,1.21
21.888764142990112,1.3,0.15,0.25,1.33
21.889230966567993,1.43,-0.11,0.83,1.65
21.88950514793396,1.51,-0.5,1.2,1.99
21.88976216316223,1.35,-0.97,1.12,2.0
21.890019178390503,0.95,-1.18,0.67,1.65
21.890800952911377,0.44,-0.76,0.18,0.89
21.89106297492981,-0.04,0.07,-0.14,0.16
21.89965796470642,-0.27,0.59,-0.33,0.72
21.910034894943237,-0.05,0.74,-0.23,0.77
21.988092184066772,0.58,0.69,0.18,0.91
21.98835301399231,1.23,0.65,0.76,1.58
21.988632917404175,1.53,0.69,1.17,2.04
21.988889932632446,1.6,1.1,1.56,2.49
21.989318132400513,1.84,1.8,1.8,3.14
21.989580869674683,1.89,2.65,2.01,3.82
21.990345001220703,1.89,2.97,1.63,3.87
21.990607976913452,2.21,3.0,0.63,3.77
21.999336004257202,2.65,3.08,-0.01,4.06
22.009966135025024,3.14,3.31,-0.04,4.56
22.089663982391357,3.59,3.61,0.34,5.1
22.090006113052368,3.97,4.42,1.22,6.06
22.090265035629272,4.28,6.68,2.9,8.44
22.090527057647705,5.38,8.71,3.79,10.91
22.090785026550293,7.7,9.32,3.18,12.5
22.091042041778564,9.31,10.16,3.67,14.26
22.0918550491333,10.66,11.61,4.95,16.52
22.09211802482605,12.88,12.67,5.61,18.91
22.099140882492065,14.27,12.59,6.4,20.07
22.109766960144043,13.96,10.86,5.29,18.46
22.189350843429565,12.11,8.43,2.03,14.89
22.189613103866577,9.36,7.25,-3.61,12.37
22.189873933792114,2.32,9.43,-8.78,13.09
22.190139055252075,-8.74,12.96,-9.88,18.49
22.19039797782898,-13.58,14.75,-6.69,21.13
22.19065499305725,-6.78,9.74,-2.49,12.12
22.19145703315735,-2.08,6.12,0.71,6.5
22.19171690940857,-4.78,4.13,3.22,7.09
22.199068069458008,-4.25,3.43,3.9,6.71
22.20957899093628,0.51,3.5,2.78,4.49
22.289214849472046,4.61,2.65,1.28,5.46
22.289491891860962,6.69,1.37,-0.09,6.82
22.289756059646606,7.34,-0.16,-1.14,7.42
22.290016889572144,7.5,-1.74,-1.83,7.91
22.290276050567627,7.54,-3.02,-1.64,8.28
22.290537118911743,7.5,-3.97,0.04,8.48
22.29134488105774,7.12,-4.9,3.1,9.18
22.29160499572754,5.23,-5.89,5.44,9.57
22.298875093460083,2.78,-6.06,4.69,8.15
22.309460878372192,1.72,-4.88,2.34,5.67
22.389463186264038,1.24,-3.93,0.84,4.2
22.389726877212524,1.46,-3.49,0.25,3.79
22.389989137649536,2.18,-3.5,0.44,4.14
22.390246152877808,2.59,-4.12,0.61,4.9
22.390505075454712,2.65,-4.99,0.68,5.69
22.390762090682983,2.5,-5.75,0.86,6.32
22.39155888557434,2.37,-6.47,1.0,6.96
22.391815900802612,2.01,-7.17,1.12,7.53
22.398711919784546,1.66,-7.82,1.27,8.09
22.40936303138733,1.32,-8.24,1.45,8.47
22.489004850387573,0.93,-8.61,1.42,8.77
22.489271879196167,0.76,-8.77,1.5,8.92
22.489537000656128,0.42,-8.47,1.52,8.61
22.4897940158844,-0.35,-7.76,1.04,7.83
22.49005389213562,-1.63,-6.71,0.33,6.91
22.490309953689575,-3.16,-5.71,-1.09,6.61
22.491111040115356,-4.62,-4.75,-3.49,7.48
22.491379022598267,-6.28,-3.47,-5.5,9.04
22.498695135116577,-7.91,-1.38,-6.16,10.12
22.509191036224365,-9.78,1.27,-6.05,11.56
22.589019060134888,-11.97,3.49,-5.77,13.73
22.589287996292114,-12.98,4.51,-5.61,14.84
22.589553117752075,-12.81,4.15,-6.28,14.85
22.589815855026245,-12.96,3.58,-7.03,15.17
22.59007501602173,-14.56,3.14,-7.46,16.65
22.590337991714478,-16.35,2.29,-7.64,18.19
22.591156005859375,-17.89,1.3,-6.85,19.2
22.591413974761963,-17.32,5.49,-1.51,18.23
22.59846305847168,-10.05,2.36,-3.77,10.99
22.609047174453735,-2.78,7.41,3.83,8.79
22.68904185295105,11.07,17.33,17.33,26.89
22.689321994781494,16.39,17.13,18.9,30.31
22.689584016799927,11.12,7.71,4.6,14.29
22.689849138259888,8.13,0.85,-5.43,9.81
22.69011092185974,4.85,0.76,-8.11,9.48
22.69037890434265,-0.96,-0.94,-7.69,7.8
22.69116187095642,-6.16,-0.43,-5.67,8.38
22.69142198562622,-9.41,0.2,-4.61,10.48
22.69831895828247,-10.86,0.27,-3.37,11.37
22.708950996398926,-10.81,-0.03,-1.87,10.97
22.71827483177185,-9.55,-0.32,-0.2,9.55
22.78887701034546,-7.25,-0.09,0.96,7.31
22.789142847061157,-4.23,0.26,0.66,4.28
22.78940510749817,-1.0,0.43,-0.45,1.17
22.78966784477234,1.12,0.48,-1.47,1.9
22.789931058883667,2.03,0.54,-1.62,2.65
22.79069209098816,2.38,0.54,-1.24,2.73
22.790950059890747,2.45,0.47,-0.71,2.59
22.798187017440796,1.59,0.32,-0.08,1.62
22.808822870254517,-0.04,-0.01,0.18,0.18
22.818195104599,-1.24,-0.3,0.17,1.28
22.888831853866577,-1.59,-0.63,-0.38,1.75
22.889107942581177,-1.28,-0.7,-0.88,1.7
22.889371156692505,-0.54,-0.2,-0.72,0.92
22.889636039733887,0.16,0.27,-0.18,0.36
22.889896154403687,0.45,0.41,0.44,0.75
22.890730142593384,0.35,0.34,0.9,1.02
22.890990018844604,0.22,0.13,0.97,1.0
22.898002862930298,0.26,-0.11,0.83,0.87
22.908682107925415,0.43,-0.12,0.8,0.91
22.988465070724487,0.58,0.08,0.81,0.99
22.988734006881714,0.84,0.24,0.56,1.03
22.988981008529663,1.17,0.24,0.12,1.2
22.989248991012573,1.51,0.17,-0.14,1.52
22.989507913589478,1.89,0.06,0.07,1.89
22.989763021469116,2.25,-0.25,0.63,2.34
22.99055790901184,2.47,-0.84,1.27,2.9
22.99081587791443,2.51,-1.32,1.65,3.28
22.997920989990234,2.4,-1.22,1.52,3.09
23.00848698616028,1.98,-0.21,0.87,2.17
23.01784586906433,1.49,0.67,-0.46,1.69
23.088675022125244,1.38,0.97,-1.37,2.17
23.088948011398315,1.54,0.78,-0.87,1.93
23.089208841323853,1.84,0.36,0.52,1.94
23.089473962783813,2.2,0.02,1.46,2.64
23.0897319316864,2.3,-0.14,1.55,2.77
23.090533018112183,2.05,0.06,1.16,2.35
23.090791940689087,1.64,0.67,0.48,1.83
23.097800970077515,1.14,1.47,-0.08,1.86
23.10832905769348,1.23,2.36,-0.69,2.74
23.117706060409546,1.97,3.16,-0.9,3.83
23.188472986221313,2.09,3.67,0.34,4.23
23.18874502182007,2.53,3.31,1.63,4.47
23.18900990486145,3.15,2.86,2.45,4.9
23.189269065856934,3.31,3.89,3.43,6.15
23.18953013420105,3.53,6.7,4.35,8.73
23.190356016159058,4.83,8.74,3.83,10.69
23.190622091293335,7.24,9.82,2.45,12.44
23.197564840316772,8.87,11.21,2.82,14.57
23.208226919174194,10.75,11.98,3.54,16.48
23.21758198738098,12.82,12.21,4.42,18.24
23.289294958114624,14.3,11.56,4.46,18.92
23.28963589668274,14.16,10.12,4.14,17.89
23.28989601135254,13.39,8.35,2.15,15.92
23.29015803337097,11.67,7.76,-1.75,14.12
23.290416955947876,6.29,9.2,-7.21,13.27
23.291220903396606,-4.61,11.46,-11.71,17.02
23.291481971740723,-13.07,12.79,-11.02,21.35
23.297516107559204,-9.54,9.59,-5.24,14.5
23.30807089805603,-3.68,6.3,0.1,7.29
23.317455053329468,-5.08,4.06,3.56,7.41
23.38958716392517,-5.23,2.27,4.54,7.28
23.389862060546875,-0.83,1.57,3.69,4.09
23.39013409614563,3.58,1.1,2.6,4.55
23.390393018722534,5.99,0.59,1.69,6.25
23.39065194129944,6.73,-0.37,0.92,6.8
23.39141297340393,6.65,-1.48,0.15,6.81
23.39167809486389,6.41,-2.63,-0.48,6.94
23.397197008132935,6.29,-3.53,-0.37,7.22
23.407830953598022,6.38,-4.08,1.36,7.69
23.417246103286743,6.21,-4.57,3.65,8.53
23.489455938339233,5.03,-5.23,4.46,8.51
23.489726066589355,3.33,-5.41,3.37,7.19
23.489989042282104,2.81,-5.0,1.58,5.94
23.490248918533325,2.67,-4.65,0.57,5.39
23.49050498008728,2.5,-4.6,0.38,5.24
23.49130892753601,2.49,-4.8,0.6,5.44
23.491579055786133,2.74,-5.3,0.92,6.03
23.49712109565735,2.95,-6.04,1.06,6.8
23.507787942886353,2.83,-6.79,1.04,7.42
23.517325162887573,2.33,-7.53,0.98,7.94
23.589945077896118,1.75,-8.27,1.14,8.52
23.590208053588867,1.17,-8.77,1.74,9.01
23.59046506881714,0.67,-9.05,2.34,9.37
23.590723991394043,0.22,-9.15,2.5,9.48
23.590980052947998,-0.63,-8.78,2.16,9.06
23.591783046722412,-1.69,-7.93,1.61,8.26
23.592038869857788,-2.5,-6.83,1.19,7.36
23.596961975097656,-3.15,-5.69,0.43,6.51
23.609484910964966,-4.27,-4.39,-1.28,6.25
23.61693501472473,-6.2,-2.89,-3.64,7.74
23.689280033111572,-8.53,-0.34,-5.14,9.96
23.6895489692688,-11.54,3.39,-5.53,13.23
23.689815044403076,-15.62,6.71,-5.64,17.91
23.690076112747192,-18.62,6.96,-5.23,20.55
23.690335035324097,-17.49,4.33,-4.57,18.58
23.691105127334595,-13.97,2.4,-3.29,14.55
23.691363096237183,-10.79,2.8,-1.9,11.3
23.69681191444397,-10.4,8.05,0.21,13.15
23.70738387107849,-7.97,7.71,-4.08,11.81
23.71685004234314,-7.12,-0.32,-10.66,12.82
23.78998303413391,-2.55,8.11,0.9,8.54
23.790255069732666,6.57,18.32,7.98,21.03
23.79052710533142,10.25,19.24,7.37,23.01
23.790791988372803,7.52,8.85,-1.9,11.76
23.791049003601074,3.12,1.11,-6.91,7.66
23.791813135147095,-2.58,-0.14,-2.6,3.66
23.792071104049683,-5.9,-2.98,-0.14,6.61
23.796751022338867,-7.6,-4.67,-0.76,8.95
23.807246923446655,-9.4,-4.62,-0.71,10.49
23.816699028015137,-10.22,-2.42,0.45,10.51
23.890268087387085,-9.71,0.61,1.74,9.88
23.890537977218628,-7.66,1.69,1.09,7.91
23.890802145004272,-4.2,1.31,-1.0,4.51
23.89106297492981,-0.95,1.05,-3.15,3.45
23.89131999015808,0.79,1.3,-4.34,4.59
23.892158031463623,1.67,1.72,-4.66,5.24
23.892412900924683,2.0,1.93,-3.9,4.78
23.89666485786438,1.51,1.32,-1.87,2.74
23.907117128372192,0.35,0.32,0.23,0.52
23.91664695739746,-0.76,-0.59,1.48,1.76
23.990478038787842,-1.37,-1.32,2.21,2.91
23.990753889083862,-1.27,-1.5,2.05,2.83
23.991016149520874,-0.31,-0.9,0.86,1.28
23.991278886795044,0.5,0.06,-0.22,0.54
23.991538047790527,0.95,0.56,-1.05,1.52
23.992336988449097,1.28,0.66,-1.33,1.96
23.99259305000305,1.32,0.52,-0.95,1.7
23.996412992477417,1.11,0.25,-0.2,1.15
24.00693917274475,0.83,-0.04,0.6,1.02
24.01646590232849,0.65,-0.22,1.11,1.3
24.09088110923767,0.6,-0.29,1.18,1.35
24.091150999069214,0.68,-0.22,0.88,1.13
24.091409921646118,0.95,-0.03,0.38,1.02
24.091670036315918,1.16,0.14,-0.11,1.17
24.091930150985718,1.24,0.29,-0.18,1.28
24.09269404411316,1.36,0.33,0.29,1.42
24.09296202659607,1.59,0.19,1.0,1.88
24.096288919448853,1.85,-0.13,1.65,2.48
24.106765031814575,2.07,-0.68,1.69,2.75
24.11626100540161,2.01,-1.08,1.13,2.54
24.189959049224854,1.56,-0.58,0.55,1.75
24.190258026123047,1.01,0.35,0.12,1.07
24.190510034561157,0.72,0.77,-0.19,1.07
24.190769910812378,0.73,0.8,-0.32,1.12
24.191025972366333,1.01,0.7,-0.2,1.24
24.191840887069702,1.49,0.62,0.28,1.63
24.192100048065186,1.77,0.7,1.42,2.37
24.196197032928467,1.94,1.18,2.27,3.21
24.20667815208435,2.04,2.08,1.82,3.43
24.216199159622192,2.21,2.77,0.72,3.61
24.289648056030273,2.06,3.25,0.72,3.91
24.28991198539734,2.51,3.03,1.24,4.12
24.29017186164856,3.38,2.74,1.62,4.64
24.29043197631836,4.22,3.0,2.12,5.59
24.290685892105103,4.93,4.81,2.9,7.47
24.29146695137024,5.76,7.58,3.76,10.23
24.2917320728302,7.74,9.01,2.94,12.23
24.295979022979736,9.95,9.93,1.91,14.18
24.306645154953003,11.16,11.58,2.75,16.31
24.316527128219604,11.99,12.56,4.37,17.9
24.390356063842773,12.92,13.12,5.47,19.2
24.390631914138794,13.8,12.88,5.35,19.62
24.39089798927307,14.45,11.36,5.28,19.12
24.391162157058716,12.67,8.82,1.59,15.51
24.391417980194092,7.13,7.4,-5.97,11.88
24.392196893692017,-3.37,10.46,-11.49,15.89
24.39245915412903,-12.51,15.64,-11.11,22.9
24.39590287208557,-10.18,14.07,-6.09,18.4
24.40639615058899,-4.46,8.5,-0.86,9.63
24.41745114326477,-5.73,5.46,2.71,8.36
24.490474939346313,-4.93,3.65,4.13,7.39
24.490736961364746,0.22,2.89,3.88,4.84
24.4909930229187,4.6,1.88,3.28,5.95
24.491248846054077,6.74,0.46,2.23,7.11
24.491504907608032,7.1,-1.04,1.3,7.29
24.49226403236389,6.42,-2.47,0.51,6.89
24.49252200126648,5.45,-3.84,0.02,6.66
24.495758056640625,4.56,-4.59,0.79,6.51
24.50634217262268,3.9,-4.79,3.02,6.87
24.515713930130005,3.58,-5.05,4.68,7.76
24.59177803993225,3.22,-5.04,4.7,7.6
24.592045068740845,2.7,-4.88,3.82,6.75
24.592302083969116,2.51,-4.72,2.74,6.0
24.59255814552307,2.66,-4.63,2.3,5.81
24.59281611442566,2.72,-4.76,2.36,5.96
24.59361696243286,2.82,-5.03,2.24,6.18
24.59387516975403,2.62,-5.36,1.99,6.28
24.59574818611145,2.32,-5.65,1.78,6.36
24.60606098175049,1.92,-6.03,1.58,6.52
24.615564107894897,1.24,-6.6,1.43,6.86
24.690943002700806,0.42,-7.26,1.3,7.38
24.691203832626343,0.0,-7.81,1.5,7.95
24.69146203994751,0.12,-8.15,2.11,8.41
24.691717863082886,0.56,-8.45,2.51,8.83
24.691975831985474,1.1,-8.53,2.43,8.93
24.692744970321655,1.2,-7.8,1.94,8.12
24.693002939224243,-0.53,-6.65,1.1,6.76
24.69538903236389,-2.74,-5.75,-0.1,6.37
24.70602011680603,-4.55,-5.01,-1.77,6.99
24.71542716026306,-6.62,-4.34,-4.21,8.96
24.790940046310425,-8.29,-2.98,-6.19,10.76
24.791202068328857,-9.79,-0.96,-6.62,11.85
24.791471004486084,-11.91,0.85,-6.13,13.42
24.79173493385315,-13.83,1.54,-5.46,14.94
24.79199194908142,-14.01,0.73,-5.07,14.91
24.792754888534546,-12.24,-0.91,-5.02,13.26
24.79302191734314,-9.84,-1.22,-4.69,10.96
24.79527497291565,-9.25,-0.77,-4.58,10.35
24.805814027786255,-10.69,1.11,-4.38,11.6
24.81530499458313,-10.49,8.59,-0.54,13.56
24.89113211631775,-2.89,6.33,-5.36,8.78
24.891417026519775,2.51,14.18,5.25,15.32
24.891679048538208,8.9,26.05,14.46,31.09
24.891939878463745,5.45,17.51,3.65,18.69
24.89220118522644,-1.07,2.2,-12.87,13.1
24.89299201965332,-3.32,-0.07,-14.53,14.9
24.893249988555908,-5.71,0.6,-5.4,7.88
24.895118951797485,-6.96,-1.66,-1.63,7.33
24.90568995475769,-7.54,-2.03,0.34,7.81
24.915163040161133,-8.3,-1.33,2.87,8.88
24.99150800704956,-8.61,-0.97,3.82,9.46
24.99177598953247,-6.64,-1.58,2.34,7.21
24.99203395843506,-2.83,-1.14,0.5,3.09
24.99229097366333,-0.1,0.05,-0.91,0.91
24.992552995681763,1.55,1.32,-2.47,3.2
24.993312120437622,2.51,2.13,-4.6,5.65
24.993569135665894,2.11,2.51,-6.42,7.2
24.99500012397766,0.38,2.46,-6.22,6.69
25.005478143692017,-1.63,1.59,-3.22,3.94
25.015038013458252,-2.51,0.15,-0.01,2.51
25.091572999954224,-2.62,-1.19,2.35,3.71
25.0918390750885,-2.2,-2.06,3.66,4.74
25.092100858688354,-1.03,-2.1,3.24,3.99
25.09235906600952,0.05,-0.96,1.38,1.68
25.092614889144897,0.08,0.24,-0.47,0.53
25.09337306022644,0.08,0.68,-1.92,2.03
25.093630075454712,0.23,0.8,-2.27,2.41
25.094882011413574,0.35,0.68,-1.58,1.75
25.105277061462402,0.41,0.33,-0.63,0.82
25.114842176437378,0.52,0.11,0.1,0.54
25.191033124923706,0.63,0.13,0.62,0.89
25.191293001174927,0.72,0.17,0.92,1.18
25.191549062728882,0.78,0.25,1.15,1.41
25.191805124282837,0.85,0.17,1.14,1.43
25.192059993743896,0.81,0.09,0.87,1.19
25.19282102584839,0.71,0.06,0.53,0.88
25.19307589530945,0.79,0.01,0.26,0.83
25.194676160812378,1.09,-0.2,0.39,1.17
25.20510196685791,1.54,-0.62,0.83,1.85
25.21472406387329,2.44,-1.16,1.12,2.92
25.290338039398193,3.24,-1.43,1.27,3.76
25.29060697555542,3.51,-1.07,1.45,3.94
25.290868043899536,3.15,-0.06,2.03,3.74
25.29112410545349,2.34,0.07,1.84,2.97
25.291383028030396,1.8,-0.18,0.99,2.06
25.292186975479126,1.58,0.21,0.89,1.82
25.292442083358765,1.37,0.9,1.08,1.96
25.2945659160614,1.28,1.32,0.65,1.95
25.305104970932007,1.21,1.58,0.1,1.99
25.31460213661194,1.29,1.86,-0.11,2.26
25.39052987098694,1.82,2.21,-0.29,2.87
25.390794038772583,2.91,3.25,-0.38,4.37
25.391057014465332,3.62,4.06,-0.42,5.45
25.391317129135132,3.08,4.33,0.25,5.31
25.391576051712036,2.91,4.46,0.93,5.4
25.39234495162964,2.63,6.12,2.9,7.26
25.392608880996704,3.25,8.22,4.44,9.89
25.394416093826294,5.23,8.13,3.57,10.3
25.40506386756897,7.06,8.26,3.39,11.38
25.414436101913452,8.27,9.59,4.53,13.44
25.49122405052185,9.64,10.6,5.61,15.38
25.49148917198181,11.79,10.81,5.68,16.97
25.49175000190735,13.62,10.79,5.28,18.16
25.492014169692993,14.02,10.68,5.62,18.49
25.492274045944214,13.47,9.7,4.03,17.08
25.493057012557983,11.07,8.03,-1.49,13.75
25.493316888809204,6.24,9.27,-8.73,14.18
25.494364023208618,-2.66,13.65,-12.14,18.46
25.505166053771973,-10.27,16.96,-9.34,21.91
25.51431393623352,-8.51,12.63,-3.94,15.73
25.591798067092896,-2.42,7.71,0.96,8.13
25.5920729637146,-4.31,5.0,4.14,7.79
25.592334985733032,-6.18,3.67,5.48,9.03
25.592594861984253,-2.66,3.55,4.13,6.06
25.592854022979736,2.46,3.05,2.19,4.48
25.593737840652466,5.45,1.76,0.97,5.8
25.59415888786316,6.37,0.19,0.5,6.39
25.594414949417114,6.43,-1.41,0.18,6.58
25.67564105987549,6.14,-2.85,0.14,6.77
25.67590308189392,5.7,-4.02,1.31,7.09
25.676167964935303,5.08,-4.91,4.02,8.12
25.676424026489258,4.13,-5.42,6.75,9.59
25.676679849624634,3.04,-4.98,6.93,9.05
25.676939010620117,2.08,-3.9,4.59,6.37
25.677196979522705,1.48,-3.7,2.41,4.65
25.677947998046875,1.46,-3.98,1.43,4.47
25.68414306640625,1.64,-4.26,1.72,4.87
25.694238901138306,1.9,-4.71,2.08,5.48
25.775815963745117,2.16,-5.38,2.2,6.2
25.776079893112183,2.31,-6.1,2.15,6.86
25.77634596824646,2.19,-6.83,1.87,7.41
25.776604890823364,1.85,-7.61,1.52,7.97
25.776870012283325,1.71,-8.37,1.49,8.67
25.777127981185913,1.65,-8.81,1.9,9.16
25.7773859500885,1.25,-9.0,1.94,9.29
25.778137922286987,0.16,-8.53,1.71,8.7
25.783912897109985,-0.71,-7.58,1.26,7.71
25.793899059295654,-1.59,-6.91,0.75,7.13
25.87517285346985,-2.94,-6.43,-1.04,7.14
25.875447034835815,-4.9,-5.89,-3.85,8.57
25.87571096420288,-7.17,-4.86,-6.05,10.56
25.875969171524048,-9.21,-3.35,-7.31,12.22
25.8762309551239,-11.87,-1.79,-7.56,14.18
25.87648892402649,-14.84,-0.62,-6.79,16.33
25.87674903869629,-16.73,-0.34,-5.78,17.7
25.877565145492554,-16.77,-0.49,-5.16,17.55
25.88384699821472,-15.2,-0.19,-4.81,15.94
25.893736124038696,-13.06,0.25,-5.03,13.99
25.975786924362183,-11.82,0.98,-5.98,13.28
25.976078987121582,-13.3,6.71,-3.38,15.27
25.97634196281433,-9.92,7.67,-3.63,13.05
25.976603031158447,-4.97,5.22,-1.2,7.3
25.976863145828247,7.3,20.9,13.59,25.97
25.97712206840515,13.53,26.04,11.66,31.57
25.977381944656372,8.54,10.68,-5.89,14.88
25.978185892105103,5.55,1.36,-17.9,18.78
25.98357105255127,1.13,1.17,-11.9,12.01
25.99360489845276,-3.63,-1.5,-6.37,7.48
26.004213094711304,-7.31,-2.03,-4.14,8.64
26.075574159622192,-10.85,-0.83,-0.04,10.88
26.075855016708374,-13.11,0.39,3.68,13.62
26.076148986816406,-13.18,-1.04,4.6,13.99
26.07641291618347,-9.27,-2.89,4.45,10.68
26.076669931411743,-3.93,-2.06,3.76,5.81
26.07692790031433,-0.76,-0.68,2.19,2.41
26.077728986740112,1.51,-0.05,-1.19,1.92
26.0834059715271,2.52,0.46,-5.68,6.23
26.093440055847168,2.77,1.93,-8.14,8.81
26.104016065597534,2.81,4.02,-7.39,8.86
26.17540192604065,1.77,3.63,-4.01,5.69
26.17566418647766,-0.08,0.78,-0.5,0.92
26.175925970077515,-1.16,-1.13,1.89,2.48
26.176185846328735,-1.45,-2.24,3.24,4.19
26.176445960998535,-1.09,-2.65,3.44,4.47
26.17670702934265,0.1,-1.81,2.73,3.27
26.177478075027466,1.09,-0.39,1.63,1.99
26.183436155319214,1.23,0.34,0.27,1.3
26.193323850631714,1.2,0.81,-0.94,1.72
26.203899145126343,1.18,0.84,-1.82,2.32
26.275686979293823,1.09,0.56,-2.12,2.44
26.275949954986572,1.08,0.41,-1.09,1.58
26.276210069656372,1.24,0.27,0.63,1.41
26.27646803855896,1.41,-0.03,2.18,2.59
26.27672505378723,1.39,-0.29,3.0,3.31
26.276984930038452,1.25,-0.48,2.69,3.0
26.277776956558228,0.91,-0.49,1.56,1.87
26.28324294090271,0.58,-0.37,0.55,0.88
26.29321599006653,0.54,-0.41,-0.12,0.68
26.303781032562256,0.84,-0.54,-0.19,1.01
26.37548303604126,1.5,-0.54,0.27,1.61
26.375756978988647,2.11,-0.23,0.6,2.2
26.37604784965515,2.19,0.49,0.61,2.32
26.376307010650635,1.57,0.98,0.36,1.88
26.376567125320435,0.71,0.89,-0.02,1.13
26.376821041107178,0.16,0.69,0.2,0.73
26.377611875534058,0.2,0.57,1.02,1.18
26.383014917373657,0.51,0.6,1.77,1.93
26.39301609992981,0.95,0.81,1.59,2.02
26.403720140457153,1.61,1.6,0.88,2.43
26.475268125534058,2.54,2.47,-0.01,3.54
26.4755380153656,2.63,3.05,-0.12,4.02
26.475805044174194,2.69,3.15,0.21,4.14
26.476072072982788,2.9,2.82,0.97,4.15
26.476336002349854,3.21,2.53,1.89,4.5
26.47659707069397,3.69,2.57,2.45,5.12
26.47741198539734,4.27,2.97,2.47,5.75
26.482944011688232,4.69,4.58,2.77,7.11
26.492905855178833,5.19,7.23,3.5,9.56
26.503432035446167,6.72,8.88,3.19,11.58
26.576401948928833,8.56,9.59,2.96,13.19
26.57667088508606,9.97,10.72,4.58,15.33
26.576940059661865,11.71,11.14,6.07,17.26
26.577205896377563,13.23,10.29,5.87,17.75
26.577472925186157,13.51,9.55,6.12,17.64
26.577733039855957,12.99,9.06,5.42,16.73
26.57852602005005,11.1,7.91,-0.07,13.63
26.58285117149353,4.96,8.32,-8.47,12.86
26.592775106430054,-5.95,12.39,-13.51,19.27
26.603355169296265,-12.25,18.33,-9.59,24.04
26.677024126052856,-10.08,14.97,-3.05,18.3
26.677294969558716,-2.2,6.93,0.49,7.28
26.677558183670044,-0.46,2.88,1.45,3.25
26.677819967269897,-3.71,0.36,3.36,5.01
26.678086042404175,-3.87,0.73,4.8,6.2
26.67834496498108,0.65,1.88,3.05,3.64
26.679152011871338,5.78,1.99,1.44,6.28
26.68263602256775,8.82,0.94,0.44,8.88
26.69256615638733,10.03,-0.61,0.06,10.04
26.70319700241089,10.04,-2.06,0.29,10.25
26.777148962020874,9.29,-3.21,1.28,9.91
26.777410984039307,7.38,-3.87,2.15,8.6
26.777668952941895,4.48,-4.12,2.93,6.75
26.77792501449585,1.97,-3.5,3.5,5.32
26.778180837631226,0.28,-2.06,2.74,3.43
26.77843689918518,-1.35,-0.92,0.89,1.86
26.779245138168335,-3.02,-0.6,-0.61,3.13
26.782588005065918,-3.89,-1.02,-0.94,4.12
26.79245686531067,-2.96,-2.29,-0.38,3.76
26.803092002868652,-1.13,-3.98,0.25,4.14
26.877501964569092,-0.1,-5.35,0.33,5.36
26.877765893936157,0.52,-6.12,0.18,6.14
26.8780300617218,0.78,-6.48,0.38,6.53
26.87828803062439,0.68,-6.86,0.71,6.93
26.878546953201294,0.47,-7.4,1.0,7.48
26.87880301475525,0.19,-8.04,1.25,8.13
26.87958598136902,0.0,-8.67,1.55,8.8
26.88249397277832,0.19,-9.13,1.86,9.31
26.892300844192505,0.52,-8.86,2.1,9.12
26.902908086776733,0.18,-7.76,1.98,8.01
26.97802495956421,-1.57,-6.41,1.38,6.74
26.9782931804657,-3.36,-5.15,0.3,6.15
26.978554010391235,-4.82,-3.92,-1.49,6.38
26.978811025619507,-6.59,-2.7,-3.68,8.01
26.97906994819641,-8.25,-1.12,-5.6,10.03
26.97932505607605,-9.78,0.95,-7.01,12.07
26.980125188827515,-12.06,2.49,-8.08,14.72
26.98220992088318,-14.83,2.21,-8.63,17.29
26.992220163345337,-16.31,0.69,-7.96,18.16
27.002789974212646,-15.57,-0.88,-6.07,16.73
27.076807022094727,-13.99,-2.26,-4.38,14.83
27.077082872390747,-12.42,1.81,-1.37,12.62
27.07734203338623,-8.59,8.82,1.16,12.36
27.07760214805603,-6.18,1.89,-3.95,7.57
27.0778591632843,-1.95,8.99,7.37,11.78
27.078118085861206,5.55,17.01,8.91,19.98
27.07892394065857,6.7,16.68,-6.69,19.17
27.08203387260437,2.19,8.38,-21.56,23.23
27.09205198287964,-0.8,4.14,-16.89,17.4
27.10256314277649,-1.79,0.73,-7.14,7.39
27.176756143569946,-2.81,-3.88,-6.82,8.33
27.177029848098755,-5.32,-4.11,-3.69,7.66
27.177299976348877,-6.28,-1.18,2.08,6.71
27.17756485939026,-8.19,0.14,5.0,9.59
27.17782711982727,-8.91,-1.2,5.69,10.63
27.178097009658813,-4.54,-1.69,5.2,7.1
27.178879976272583,-0.89,-1.15,3.96,4.21
27.181877851486206,0.68,-0.47,2.21,2.35
27.191920042037964,1.34,-0.01,-0.65,1.48
27.202479124069214,0.88,0.46,-4.03,4.15
27.277047872543335,-0.47,1.59,-6.03,6.25
27.27731704711914,-1.8,2.63,-6.06,6.84
27.27757501602173,-2.04,1.68,-4.14,4.91
27.27783203125,-1.41,-0.05,-1.08,1.77
27.27808904647827,-0.49,-0.86,1.28,1.61
27.27834701538086,0.43,-1.05,2.31,2.57
27.2791531085968,1.1,-0.69,1.69,2.13
27.281743049621582,1.03,0.03,0.03,1.03
27.291754961013794,0.52,0.6,-1.36,1.57
27.30235195159912,0.07,0.74,-1.71,1.86
27.376703023910522,-0.1,0.46,-0.91,1.02
27.37697196006775,-0.11,0.11,0.28,0.32
27.377228021621704,0.05,-0.1,0.8,0.8
27.377485036849976,0.45,-0.16,0.33,0.58
27.37774109840393,0.76,-0.01,-0.32,0.82
27.37799596786499,0.95,0.31,-0.2,1.01
27.378802061080933,1.05,0.47,0.52,1.26
27.381585836410522,0.94,0.33,1.14,1.51
27.391559839248657,0.59,0.1,1.23,1.36
27.40218997001648,0.17,-0.08,0.64,0.66
27.47662615776062,-0.11,-0.03,0.01,0.11
27.476891040802002,-0.09,0.28,0.02,0.29
27.4771511554718,0.26,0.47,0.57,0.78
27.477406978607178,0.84,0.28,1.19,1.48
27.47766399383545,1.46,-0.15,1.65,2.2
27.477920055389404,1.91,-0.45,1.66,2.57
27.47871994972229,2.12,-0.26,1.15,2.42
27.481472969055176,1.99,0.28,0.75,2.14
27.491492986679077,1.86,0.55,0.62,2.03
27.501991033554077,1.67,0.59,0.81,1.94
27.57618498802185,2.13,0.25,0.51,2.2
27.576449155807495,2.49,0.44,1.31,2.84
27.57671093940735,2.43,1.37,2.57,3.79
27.57696795463562,2.39,2.09,2.59,4.09
27.577205896377563,2.39,2.42,1.8,3.84
27.57746195793152,2.5,2.8,1.53,4.05
27.578261137008667,2.91,3.01,1.55,4.46
27.581300973892212,3.55,3.16,1.59,5.01
27.591281175613403,4.11,4.02,2.1,6.12
27.60181212425232,4.61,6.08,3.15,8.25
27.67654013633728,5.55,8.29,3.81,10.67
27.676805019378662,7.37,8.72,2.85,11.76
27.67706608772278,8.94,8.92,2.66,12.9
27.677324056625366,10.01,9.59,3.82,14.37
27.67758297920227,11.33,10.32,4.86,16.07
27.677839994430542,12.85,11.22,5.8,18.01
27.678602933883667,13.84,10.93,7.15,19.02
27.681177854537964,12.88,9.11,5.59,16.73
27.691120862960815,8.75,6.94,-1.02,11.21
27.701861143112183,-0.09,7.52,-9.47,12.09
27.77717614173889,-12.24,12.56,-9.46,19.92
27.777454137802124,-16.83,17.65,-2.21,24.48
27.77772307395935,-8.99,12.29,1.26,15.27
27.777989149093628,-0.59,6.02,2.06,6.39
27.77825617790222,-2.41,3.05,2.23,4.48
27.77851700782776,-6.46,2.47,3.06,7.56
27.779340982437134,-3.59,4.68,1.32,6.04
27.781047105789185,2.1,5.37,-0.82,5.82
27.791064023971558,6.42,4.09,-2.18,7.91
27.8016140460968,8.88,2.23,-2.26,9.43
27.87711787223816,10.01,0.43,-1.78,10.17
27.877383947372437,10.29,-1.39,-1.08,10.43
27.87764811515808,10.19,-2.87,0.36,10.59
27.877909898757935,9.54,-3.93,2.57,10.63
27.878172159194946,7.49,-4.83,4.38,9.93
27.878427028656006,4.56,-5.07,5.6,8.82
27.879202127456665,3.07,-4.69,3.99,6.88
27.880955934524536,2.4,-3.9,1.02,4.69
27.890966176986694,1.5,-3.21,-0.79,3.63
27.901448011398315,0.93,-2.68,-1.43,3.17
27.97755217552185,1.55,-2.57,-1.07,3.18
27.977817058563232,2.45,-3.47,-0.19,4.25
27.978085041046143,3.28,-4.9,0.36,5.9
27.978345155715942,3.56,-5.9,0.91,6.95
27.978606939315796,2.92,-6.54,1.03,7.23
27.978864908218384,1.6,-6.92,0.24,7.1
27.979687929153442,0.67,-6.9,-0.47,6.94
27.980782985687256,0.19,-7.08,-0.63,7.11
27.990756034851074,-0.05,-7.64,-0.21,7.64
28.001353979110718,0.13,-8.0,0.52,8.01
28.077912092208862,0.21,-7.75,0.88,7.8
28.078184843063354,-0.44,-7.01,0.55,7.04
28.07845401763916,-1.34,-5.94,-0.57,6.11
28.07871985435486,-2.96,-4.84,-2.6,6.24
28.078991174697876,-5.14,-3.76,-5.06,8.13
28.079256057739258,-7.37,-1.92,-6.99,10.33
28.080091953277588,-9.97,0.63,-8.0,12.79
28.08068585395813,-12.91,2.62,-8.48,15.66
28.090540170669556,-15.56,2.62,-8.6,17.97
28.101353883743286,-16.17,1.02,-7.87,18.01
28.178119897842407,-15.37,-0.18,-6.32,16.61
28.178395986557007,-15.26,-0.56,-4.9,16.03
28.178655862808228,-15.74,-0.65,-3.85,16.21
28.17891812324524,-15.76,1.0,-2.27,15.95
28.179182052612305,-12.16,8.36,1.12,14.79
28.179439067840576,-8.04,0.74,-5.82,9.95
28.180259943008423,-3.05,7.87,4.96,9.78
28.181156873703003,8.67,19.96,15.61,26.78
28.19027590751648,12.8,19.48,10.56,25.58
28.20105814933777,7.78,5.88,-7.13,12.08
28.2778480052948,3.44,-0.48,-18.78,19.09
28.2781240940094,-1.08,0.94,-13.64,13.71
28.278393983840942,-4.4,0.41,-6.92,8.21
28.278658151626587,-7.27,-0.12,-3.81,8.2
28.278928995132446,-9.96,-0.1,-0.76,9.98
28.279191970825195,-11.48,0.11,2.17,11.68
28.28000283241272,-11.43,-1.09,3.56,12.02
28.28044295310974,-8.77,-2.3,4.18,9.98
28.290140867233276,-4.34,-1.7,4.2,6.27
28.300888061523438,-0.61,-0.58,2.92,3.03
28.378628969192505,1.74,0.13,0.21,1.75
28.378907918930054,2.86,0.53,-3.23,4.34
28.37917685508728,3.05,1.06,-5.74,6.58
28.379464864730835,2.49,2.25,-5.6,6.52
28.37974190711975,1.1,2.34,-3.32,4.2
28.38018488883972,-0.52,0.63,-0.92,1.23
28.381015062332153,-1.27,-0.67,0.87,1.67
28.381280183792114,-1.26,-1.3,1.77,2.53
28.39036202430725,-0.69,-1.36,1.52,2.15
28.400819063186646,0.23,-0.73,0.32,0.82
28.478349924087524,0.73,0.15,-0.66,0.99
28.478612184524536,0.83,0.64,-0.98,1.43
28.47887110710144,0.74,0.67,-0.55,1.13
28.479128122329712,0.52,0.22,0.15,0.58
28.47938299179077,0.5,-0.08,0.55,0.74
28.479642152786255,0.58,-0.2,0.67,0.9
28.480590105056763,0.65,-0.21,0.72,0.99
28.480846166610718,0.73,-0.05,0.88,1.14
28.490248918533325,0.95,0.11,0.99,1.37
28.500681161880493,1.31,0.09,0.95,1.62
28.578680992126465,1.55,0.09,0.77,1.73
28.578952074050903,1.49,0.18,0.59,1.61
28.579246997833252,1.26,0.29,0.61,1.42
28.579511880874634,1.06,0.25,0.76,1.32
28.579957962036133,0.91,-0.02,0.94,1.3
28.580228090286255,0.9,-0.43,1.03,1.43
28.581030130386353,1.04,-0.76,1.02,1.64
28.581315994262695,1.23,-0.66,0.89,1.65
28.590222120285034,1.3,-0.05,0.52,1.4
28.600559949874878,1.14,0.66,0.12,1.32
28.678101062774658,0.85,1.1,0.21,1.4
28.678364992141724,0.54,1.16,0.68,1.44
28.67862606048584,0.69,0.77,0.78,1.29
28.678884029388428,1.27,1.05,1.39,2.15
28.67916989326477,1.84,1.56,2.22,3.27
28.67958903312683,2.11,2.3,2.22,3.83
28.680366039276123,2.31,2.8,1.61,3.97
28.680624961853027,2.76,2.84,0.72,4.02
28.69007396697998,3.16,3.09,0.48,4.44
28.70034098625183,3.5,3.3,0.58,4.84
28.778188943862915,3.79,3.47,0.88,5.21
28.778465032577515,4.22,3.81,1.31,5.83
28.778735876083374,4.65,5.07,2.17,7.21
28.779034852981567,5.15,7.49,3.58,9.76
28.779479026794434,6.6,8.9,3.89,11.74
28.77975606918335,8.59,9.21,3.92,13.19
28.780585050582886,10.28,10.46,5.6,15.69
28.780855894088745,12.59,11.19,6.46,18.04
28.78955912590027,14.39,10.76,6.17,18.99
28.80017590522766,15.09,10.79,6.92,19.79
28.878610849380493,14.5,10.08,4.74,18.28
28.878907918930054,10.94,8.51,-2.84,14.14
28.87935709953308,1.98,9.55,-12.2,15.61
28.87962317466736,-9.91,14.94,-14.4,22.99
28.879889011383057,-16.31,18.63,-7.93,25.99
28.880172967910767,-9.66,11.75,-1.95,15.33
28.88096785545349,-1.2,6.28,1.41,6.54
28.881226062774658,-3.87,2.97,2.97,5.71
28.889381170272827,-6.56,1.84,4.39,8.1
28.900084972381592,-2.69,2.78,2.5,4.6
28.97957491874695,2.68,2.99,0.54,4.05
28.979846954345703,6.25,1.93,-0.4,6.55
28.980098009109497,7.71,0.38,-0.4,7.72
28.98036217689514,8.08,-1.42,-0.36,8.21
28.980627059936523,8.14,-3.04,-0.23,8.69
28.980890035629272,8.39,-4.11,0.89,9.38
28.98173689842224,8.3,-4.95,2.37,9.95
28.981996059417725,7.19,-5.5,4.25,10.0
28.98935294151306,4.58,-5.66,5.72,9.25
28.99996590614319,2.6,-5.3,4.52,7.43
29.0798819065094,1.98,-4.49,2.31,5.42
29.08014702796936,1.74,-3.92,0.99,4.4
29.08041000366211,2.08,-3.62,0.4,4.19
29.080671072006226,2.32,-3.84,0.1,4.48
29.080930948257446,2.2,-4.41,-0.12,4.92
29.081188917160034,1.69,-5.08,-0.01,5.35
29.08199715614319,1.06,-5.75,0.36,5.85
29.082258939743042,0.62,-6.42,0.79,6.49
29.089277982711792,0.46,-7.17,1.14,7.27
29.099748849868774,0.33,-7.75,1.34,7.87
29.179735898971558,-0.08,-8.18,1.37,8.29
29.180003881454468,-0.61,-8.32,1.63,8.5
29.180265188217163,-0.73,-7.92,1.91,8.17
29.1805260181427,-0.91,-7.02,1.62,7.26
29.18078899383545,-1.62,-5.91,0.71,6.16
29.181045055389404,-3.02,-5.03,-0.93,5.94
29.18186116218567,-4.92,-4.45,-3.4,7.45
29.182119131088257,-6.87,-3.27,-5.93,9.64
29.188961029052734,-8.95,-1.21,-7.39,11.66
29.19965386390686,-11.74,1.18,-7.47,13.96
29.28029990196228,-15.17,2.49,-6.75,16.78
29.280565977096558,-16.87,1.68,-5.99,17.98
29.280830144882202,-15.97,-0.34,-5.37,16.85
29.28109097480774,-14.05,-1.68,-4.61,14.88
29.281352996826172,-12.65,-1.98,-4.37,13.52
29.281612157821655,-12.13,-1.48,-4.92,13.17
29.28243088722229,-13.02,3.11,-3.59,13.85
29.28269100189209,-11.15,8.18,-1.88,13.95
29.28885817527771,-7.14,1.47,-6.02,9.45
29.29948115348816,2.89,13.63,8.69,16.42
29.380170106887817,12.2,22.01,14.97,29.28
29.38044810295105,11.22,14.35,2.48,18.38
29.38071084022522,7.83,4.09,-13.41,16.05
29.38097310066223,3.28,3.02,-14.88,15.53
29.381237030029297,-1.72,0.73,-9.59,9.77
29.381500959396362,-4.7,-0.42,-5.4,7.17
29.382282972335815,-7.5,-0.53,-2.02,7.78
29.38254404067993,-10.07,-0.3,1.35,10.16
29.388736963272095,-11.22,-0.79,2.99,11.63
29.39933705329895,-10.28,-2.32,2.85,10.91
29.479411840438843,-6.67,-2.33,2.48,7.48
29.47968101501465,-2.7,-0.77,1.84,3.35
29.479942083358765,0.47,0.3,0.05,0.55
29.48020601272583,2.31,0.84,-3.0,3.87
29.480463981628418,2.77,1.61,-5.54,6.39
29.480720043182373,2.33,2.82,-5.82,6.87
29.48151993751526,0.92,2.51,-3.96,4.77
29.48178505897522,-1.04,0.73,-0.94,1.58
29.48856496810913,-2.08,-0.7,1.34,2.57
29.49916696548462,-2.14,-1.81,2.25,3.59
29.57989501953125,-1.36,-2.25,1.84,3.2
29.580157995224,0.02,-1.01,1.07,1.47
29.58041501045227,0.87,0.23,0.42,0.99
29.58067488670349,1.15,0.66,-0.22,1.34
29.580931901931763,1.17,0.71,-0.47,1.44
29.58119297027588,1.12,0.3,-0.65,1.32
29.58199906349182,0.98,0.03,-0.35,1.04
29.582257986068726,0.83,0.01,0.36,0.9
29.588465929031372,0.78,0.02,1.02,1.28
29.59905505180359,0.79,-0.06,1.45,1.65
29.679651975631714,0.97,-0.14,1.42,1.72
29.679919004440308,1.21,-0.15,0.99,1.57
29.680189847946167,1.33,-0.07,0.4,1.39
29.680451154708862,1.29,0.08,0.11,1.29
29.680716037750244,1.22,0.11,0.23,1.24
29.680973052978516,1.17,-0.11,0.61,1.32
29.68175196647644,1.21,-0.5,0.99,1.64
29.68201518058777,1.36,-0.68,1.11,1.88
29.68830418586731,1.45,-0.35,0.88,1.73
29.69888710975647,1.36,0.35,0.52,1.49
29.78195095062256,1.15,0.79,0.35,1.43
29.78221106529236,1.19,0.55,0.25,1.33
29.78246808052063,1.49,0.24,0.67,1.65
29.782726049423218,1.61,0.48,1.84,2.49
29.782986879348755,1.72,0.57,1.86,2.59
29.783243894577026,1.86,1.5,1.1,2.63
29.78401017189026,2.39,2.77,-0.03,3.65
29.784276962280273,2.28,3.22,-0.43,3.96
29.788120985031128,1.84,3.16,0.28,3.66
29.798758029937744,2.12,2.79,1.05,3.65
29.87881302833557,2.63,2.54,1.58,3.98
29.879086017608643,3.18,2.55,1.55,4.36
29.87935996055603,3.54,2.8,1.24,4.68
29.87962317466736,3.67,3.53,1.37,5.27
29.879886865615845,3.82,5.85,2.65,7.47
29.880171060562134,4.63,8.67,4.12,10.65
29.880975008010864,6.94,9.57,3.81,12.42
29.881245851516724,9.15,10.27,4.42,14.44
29.888012170791626,11.0,11.48,5.87,16.94
29.898643970489502,13.29,11.88,5.77,18.73
29.979367971420288,14.74,11.35,5.23,19.32
29.97964906692505,14.92,10.56,5.09,18.97
29.979925870895386,13.6,8.82,1.17,16.25
29.980196952819824,9.11,8.56,-6.39,14.03
29.980475187301636,-1.6,11.74,-12.36,17.12
29.980746030807495,-12.79,16.77,-12.35,24.44
29.981580018997192,-14.3,15.72,-7.95,22.68
29.98183798789978,-4.94,8.73,-2.84,10.42
29.98780608177185,-2.74,5.32,0.69,6.02
29.99853014945984,-6.01,2.52,2.88,7.12
30.080116987228394,-3.31,1.93,2.92,4.81
30.080394983291626,2.14,1.71,2.25,3.54
30.080656051635742,6.01,0.91,1.87,6.35
30.080916166305542,7.87,-0.24,1.83,8.08
30.081176042556763,8.05,-1.77,1.63,8.4
30.081434965133667,7.52,-3.38,0.91,8.29
30.08220601081848,7.05,-4.65,0.59,8.46
30.082475900650024,6.64,-5.42,1.29,8.66
30.087714910507202,5.67,-5.53,3.23,8.55
30.098303079605103,4.1,-5.32,5.31,8.56
30.180572986602783,2.61,-5.34,5.47,8.07
30.180840015411377,1.95,-5.17,3.77,6.68
30.181107997894287,1.99,-4.79,2.24,5.64
30.18136715888977,2.14,-4.34,1.59,5.09
30.181628942489624,1.86,-4.1,1.28,4.68
30.181886911392212,1.52,-4.15,0.97,4.52
