time,ax,ay,az,atotal
0.0069141387939453125,0.18,-0.03,0.08,0.19
0.007807016372680664,0.09,-0.02,0.12,0.15
0.008472919464111328,0.04,0.0,0.1,0.1
0.009096145629882812,0.04,-0.02,0.1,0.1
0.009605884552001953,0.02,-0.06,0.12,0.13
0.029078960418701172,0.01,-0.03,0.08,0.08
0.029772043228149414,0.01,-0.02,0.02,0.03
0.0412900447845459,0.0,-0.04,0.02,0.04
0.042047977447509766,-0.02,0.0,0.01,0.02
0.057630062103271484,-0.09,0.03,-0.01,0.09
0.08367490768432617,-0.09,0.0,0.0,0.09
0.08457517623901367,-0.03,-0.01,-0.03,0.04
0.08526992797851562,0.02,-0.01,0.0,0.02
0.08670616149902344,0.03,-0.06,0.0,0.06
0.08774995803833008,0.04,-0.06,-0.03,0.07
0.08870792388916016,0.07,-0.03,0.0,0.07
0.09029912948608398,0.05,-0.03,-0.02,0.06
0.0912160873413086,-0.03,0.0,0.01,0.03
0.09271502494812012,-0.06,0.02,0.07,0.09
0.09371805191040039,-0.03,-0.01,0.07,0.07
0.11740684509277344,-0.01,-0.02,0.04,0.04
0.11843299865722656,-0.01,-0.04,0.04,0.05
0.11902809143066406,0.0,-0.02,0.0,0.02
0.12080192565917969,0.01,0.03,0.02,0.03
0.12207698822021484,0.07,0.01,0.06,0.09
0.1231241226196289,0.12,-0.03,0.09,0.15
0.1237940788269043,0.07,-0.04,0.03,0.08
0.14223003387451172,0.05,-0.03,-0.05,0.07
0.14296388626098633,0.04,0.0,-0.1,0.1
0.15819406509399414,0.02,0.01,-0.11,0.11
0.1836109161376953,0.07,-0.02,-0.06,0.09
0.1846599578857422,0.13,-0.09,0.0,0.15
0.18536901473999023,0.15,-0.12,0.05,0.19
0.18735790252685547,0.14,-0.05,0.07,0.16
0.20956707000732422,0.12,0.0,0.09,0.15
0.21039915084838867,0.13,0.04,0.13,0.18
0.22250795364379883,0.11,-0.02,0.14,0.17
0.22336196899414062,0.05,-0.08,0.07,0.11
0.24179410934448242,0.03,-0.06,-0.04,0.07
0.24256300926208496,0.11,-0.06,-0.04,0.13
0.286937952041626,0.15,-0.05,0.05,0.16
0.28781795501708984,0.04,0.0,0.02,0.04
0.2885580062866211,0.05,-0.01,-0.05,0.07
0.30849194526672363,0.13,-0.03,-0.04,0.13
0.30933713912963867,0.1,-0.07,0.03,0.12
0.3244900703430176,0.0,-0.09,0.06,0.1
0.32552003860473633,-0.12,-0.08,0.14,0.2
0.34157299995422363,-0.46,-0.02,0.06,0.46
0.3426029682159424,-0.23,0.04,0.03,0.23
0.35679197311401367,-0.19,0.09,-0.03,0.21
0.38924694061279297,-0.09,0.07,-0.05,0.12
0.3903040885925293,0.01,0.04,-0.12,0.12
0.3910179138183594,0.1,0.04,-0.1,0.14
0.4089009761810303,0.19,0.08,-0.03,0.2
0.40983104705810547,0.14,0.01,-0.09,0.16
0.4249720573425293,0.12,-0.07,-0.17,0.21
0.42604494094848633,0.24,-0.11,-0.16,0.3
0.4414939880371094,0.28,-0.14,0.0,0.31
0.4425358772277832,0.1,-0.11,0.1,0.17
0.4572868347167969,-0.15,0.0,0.22,0.26
0.48853015899658203,-0.41,0.14,0.24,0.49
0.4895639419555664,-0.41,0.17,0.16,0.47
0.49030017852783203,0.07,0.03,0.04,0.08
0.5088629722595215,0.89,0.12,-0.12,0.9
0.5097298622131348,1.38,-0.05,-0.14,1.38
0.5247421264648438,0.88,-0.29,-0.21,0.95
0.5255918502807617,-0.02,-0.18,-0.17,0.24
0.5418300628662109,-0.44,-0.02,0.21,0.48
0.5429079532623291,-0.77,-0.03,0.43,0.88
0.557103157043457,-0.95,-0.09,0.48,1.06
0.5889110565185547,-0.75,-0.36,0.32,0.89
0.5899879932403564,-0.34,-0.16,0.01,0.37
0.5908010005950928,0.03,0.17,-0.17,0.24
0.6086790561676025,0.16,0.09,-0.25,0.31
0.6095659732818604,0.09,0.03,-0.22,0.23
0.6250839233398438,-0.04,-0.03,-0.13,0.13
0.6261270046234131,-0.09,-0.04,-0.05,0.11
0.6417088508605957,-0.02,0.01,0.03,0.03
0.642765998840332,0.15,0.11,0.11,0.21
0.656965970993042,0.07,0.05,0.15,0.17
0.657966136932373,-0.09,0.01,0.21,0.22
0.7087159156799316,-0.11,0.0,0.22,0.24
0.7096428871154785,-0.05,0.0,0.07,0.08
0.7103328704833984,0.06,0.0,-0.02,0.06
0.7256159782409668,0.15,-0.09,-0.03,0.17
0.7264480590820312,0.16,-0.15,-0.1,0.24
0.7417278289794922,0.23,-0.21,-0.11,0.33
0.7427411079406738,0.38,-0.15,0.01,0.4
0.7582001686096191,0.45,-0.11,0.04,0.46
0.7592480182647705,0.46,-0.14,-0.02,0.48
0.7738399505615234,0.33,-0.1,-0.05,0.34
0.805927038192749,0.05,-0.01,-0.09,0.1
0.8069829940795898,-0.06,0.13,-0.03,0.14
0.8077869415283203,0.17,0.1,0.25,0.31
0.8255281448364258,0.29,-0.02,0.27,0.39
0.8263800144195557,0.2,-0.1,0.15,0.26
0.8419308662414551,0.02,-0.15,0.07,0.16
0.8429739475250244,-0.14,-0.1,-0.02,0.17
0.8584010601043701,-0.17,0.12,-0.04,0.21
0.8593878746032715,-0.08,0.15,0.01,0.17
0.8741588592529297,-0.02,0.03,-0.02,0.04
0.9063270092010498,-0.04,-0.06,-0.12,0.13
0.9073500633239746,-0.04,-0.09,-0.18,0.2
0.9081010818481445,0.01,-0.08,-0.27,0.28
0.9256010055541992,-0.07,-0.09,-0.3,0.32
0.9264190196990967,-0.18,-0.06,-0.2,0.27
0.9416429996490479,-0.23,0.02,-0.1,0.25
0.9424629211425781,-0.2,0.0,-0.03,0.2
0.9581551551818848,-0.19,-0.04,-0.06,0.2
0.9590568542480469,-0.19,0.05,-0.16,0.25
0.9741950035095215,-0.12,0.06,-0.15,0.2
1.004612922668457,-0.07,0.0,-0.09,0.11
1.0056960582733154,-0.02,-0.03,-0.04,0.05
1.006411075592041,0.03,-0.04,0.02,0.05
1.0257000923156738,0.06,-0.04,0.02,0.07
1.026453971862793,0.06,-0.03,0.05,0.08
1.0272221565246582,0.11,-0.02,0.11,0.15
1.0420031547546387,0.19,-0.01,0.14,0.23
1.042837142944336,0.26,-0.02,0.14,0.29
1.0581321716308594,0.24,0.01,0.12,0.26
1.0590910911560059,0.16,0.05,0.08,0.18
1.1051669120788574,0.09,0.05,-0.03,0.1
1.1060500144958496,0.02,0.05,-0.09,0.1
1.1066861152648926,-0.14,0.04,-0.13,0.19
1.1237878799438477,-0.29,0.0,-0.21,0.35
1.1246860027313232,-0.28,-0.09,-0.18,0.34
1.1418471336364746,-0.16,-0.14,-0.12,0.24
1.1428260803222656,-0.03,-0.14,0.0,0.14
1.1584110260009766,0.07,-0.09,0.1,0.15
1.1593761444091797,0.03,-0.09,0.12,0.15
1.1734650135040283,-0.01,-0.05,0.11,0.12
1.2044448852539062,-0.02,-0.01,0.14,0.14
1.205420970916748,0.0,0.04,0.17,0.17
1.2060928344726562,0.01,0.04,0.18,0.18
1.22552490234375,0.02,-0.03,0.14,0.14
1.2263400554656982,0.03,-0.1,0.12,0.15
1.2415549755096436,0.02,-0.08,0.05,0.09
1.2423548698425293,0.07,-0.04,0.08,0.11
1.2584781646728516,0.04,-0.09,0.04,0.1
1.2594571113586426,0.09,-0.22,-0.05,0.24
1.2743000984191895,0.2,-0.17,-0.02,0.26
1.304481029510498,0.18,-0.02,0.03,0.18
1.3054230213165283,0.12,0.07,0.04,0.14
1.3061120510101318,0.06,-0.01,0.05,0.07
1.3260819911956787,0.04,-0.1,0.11,0.15
1.3269329071044922,-0.03,-0.12,0.15,0.19
1.3417658805847168,-0.22,-0.2,-0.05,0.3
1.342574119567871,-0.14,0.03,0.14,0.2
1.359105110168457,0.03,0.16,0.17,0.23
1.360152006149292,0.07,0.11,0.01,0.13
1.374202013015747,0.01,0.13,-0.04,0.13
1.4056801795959473,0.01,0.05,0.05,0.07
1.4066050052642822,-0.02,0.0,0.11,0.11
1.4072949886322021,-0.04,-0.06,0.09,0.11
1.426527976989746,-0.06,-0.01,0.1,0.11
1.427267074584961,-0.05,0.08,0.13,0.16
1.4417438507080078,-0.05,0.12,0.22,0.25
1.4425220489501953,-0.02,0.06,0.27,0.27
1.4582791328430176,-0.02,-0.04,0.15,0.15
1.4592208862304688,-0.08,-0.15,-0.09,0.19
1.4742279052734375,0.02,-0.13,-0.09,0.15
1.4752311706542969,0.27,0.08,-0.04,0.28
1.5235528945922852,0.69,0.14,-0.21,0.73
1.5245099067687988,0.04,-0.5,-0.33,0.6
1.5253028869628906,-0.6,-0.21,-0.11,0.64
1.5429470539093018,-0.68,0.04,0.02,0.68
1.5439720153808594,-0.48,0.17,0.15,0.53
1.5586061477661133,-0.21,0.2,0.21,0.35
1.5595850944519043,-0.02,0.13,0.13,0.18
1.575639009475708,0.1,0.09,0.02,0.13
1.5765750408172607,0.16,0.02,-0.08,0.18
1.5910749435424805,0.18,-0.03,-0.13,0.22
1.6239089965820312,0.14,-0.08,-0.11,0.19
1.6250200271606445,0.09,-0.08,-0.08,0.14
1.6257829666137695,0.01,-0.04,-0.04,0.05
1.642652988433838,-0.18,-0.08,-0.01,0.19
1.6434969902038574,-0.32,-0.11,0.03,0.33
1.6586761474609375,-0.29,-0.12,0.01,0.31
1.6597161293029785,-0.17,-0.05,0.05,0.18
1.6756720542907715,-0.12,0.0,0.07,0.13
1.676663875579834,-0.18,-0.03,-0.01,0.18
1.690749168395996,-0.18,-0.03,-0.13,0.22
1.722296953201294,-0.08,0.0,-0.22,0.23
1.723343849182129,-0.01,0.0,-0.29,0.29
1.7241079807281494,0.0,0.02,-0.27,0.27
1.7425930500030518,0.0,0.05,-0.11,0.12
1.743299961090088,0.02,0.05,0.04,0.06
1.7588160037994385,-0.1,0.06,0.05,0.12
1.7597861289978027,-0.21,0.01,0.05,0.21
1.7754900455474854,-0.2,-0.03,0.0,0.2
1.776501178741455,-0.21,-0.02,-0.12,0.24
1.790653944015503,-0.17,-0.04,-0.13,0.21
1.8217759132385254,-0.05,-0.02,-0.07,0.08
1.8228540420532227,-0.01,0.01,-0.01,0.01
1.8235840797424316,-0.04,-0.03,0.01,0.05
1.8429219722747803,-0.01,-0.02,0.06,0.06
1.843790054321289,0.01,0.02,0.07,0.07
1.8585269451141357,-0.05,0.02,0.02,0.05
1.8592958450317383,-0.09,-0.01,-0.06,0.1
1.8755779266357422,-0.05,0.03,-0.15,0.16
1.8766570091247559,-0.08,0.01,-0.22,0.23
1.891355037689209,-0.03,-0.11,-0.14,0.18
1.9230849742889404,0.1,-0.13,-0.04,0.16
1.9241461753845215,0.15,0.0,0.02,0.15
1.9249529838562012,0.16,0.01,0.13,0.2
1.9428081512451172,0.12,0.03,0.19,0.22
1.9436240196228027,0.02,0.01,0.19,0.19
1.9562878608703613,-0.01,-0.04,0.16,0.16
1.9571099281311035,0.12,-0.02,0.08,0.14
1.9756598472595215,0.28,-0.02,-0.04,0.28
1.976572036743164,0.28,0.02,-0.12,0.3
1.9910409450531006,0.13,0.07,-0.15,0.21
2.0228400230407715,-0.02,0.06,-0.19,0.2
2.0239028930664062,-0.15,0.05,-0.23,0.27
2.024735927581787,-0.2,-0.02,-0.26,0.32
2.0428810119628906,-0.15,-0.1,-0.18,0.25
2.043704032897949,-0.07,-0.06,-0.17,0.19
2.0584139823913574,-0.09,-0.01,-0.23,0.24
2.059237003326416,-0.21,-0.04,-0.16,0.26
2.075532913208008,-0.25,-0.13,-0.05,0.28
2.076526165008545,-0.18,-0.08,0.07,0.2
2.0910348892211914,-0.09,0.04,0.09,0.13
2.122107982635498,-0.06,0.06,0.12,0.14
2.123166084289551,-0.04,-0.01,0.12,0.12
2.1238040924072266,-0.04,-0.01,0.02,0.04
2.1244568824768066,-0.02,0.02,-0.05,0.05
2.142771005630493,-0.02,-0.01,-0.11,0.11
2.1435489654541016,-0.07,0.01,-0.13,0.14
2.1583869457244873,-0.12,-0.01,-0.1,0.15
2.1592049598693848,-0.1,-0.05,-0.03,0.11
2.175636053085327,-0.06,-0.06,-0.03,0.09
2.176596164703369,-0.08,-0.05,-0.06,0.11
2.2207610607147217,-0.12,0.0,-0.04,0.12
2.221621036529541,-0.09,-0.01,0.0,0.09
2.2222771644592285,-0.1,0.0,0.0,0.1
2.2426910400390625,-0.12,-0.02,0.0,0.12
2.2434799671173096,-0.11,-0.04,-0.01,0.11
2.2584590911865234,-0.1,-0.04,0.01,0.1
2.259268045425415,-0.06,-0.04,0.05,0.08
2.2753090858459473,-0.07,-0.05,0.06,0.1
2.2762560844421387,-0.04,-0.02,0.08,0.09
2.290766954421997,0.08,-0.02,0.1,0.12
2.291651964187622,0.12,-0.02,0.12,0.17
2.3386290073394775,0.1,-0.06,0.1,0.15
2.339570999145508,0.11,-0.07,0.06,0.14
2.3403549194335938,0.17,-0.06,-0.03,0.18
2.36018705368042,0.17,-0.02,-0.1,0.19
2.3610148429870605,0.11,0.0,-0.03,0.11
2.375393867492676,0.05,0.01,0.06,0.07
2.3763480186462402,0.03,0.03,-0.03,0.05
2.3924200534820557,0.13,-0.12,-0.16,0.23
2.393406867980957,0.15,-0.22,-0.2,0.33
2.407805919647217,0.08,-0.06,-0.29,0.3
2.439131021499634,-0.06,-0.12,-0.43,0.45
2.44024395942688,-0.21,-0.45,-0.52,0.71
2.4410181045532227,-0.05,-0.11,0.01,0.12
2.456249952316284,-0.05,0.16,0.18,0.24
2.457106113433838,-0.17,0.33,0.14,0.39
2.4755029678344727,-0.11,0.17,0.15,0.25
2.4763669967651367,-0.02,-0.09,0.05,0.1
2.491879940032959,-0.09,-0.23,0.03,0.24
2.49295711517334,-0.1,-0.15,-0.05,0.18
2.5056300163269043,-0.07,-0.14,-0.05,0.16
2.535572052001953,-0.15,0.0,0.06,0.16
2.5365118980407715,-0.17,0.11,0.2,0.28
2.5373048782348633,-0.04,0.07,0.24,0.25
2.5387420654296875,0.15,0.12,0.15,0.24
2.5399651527404785,0.25,0.19,0.08,0.32
2.5410499572753906,0.25,0.13,0.07,0.29
2.542037010192871,0.12,0.07,0.16,0.21
2.5434398651123047,0.06,0.12,0.28,0.31
2.5446228981018066,0.11,0.17,0.26,0.32
2.5456910133361816,0.14,0.11,0.12,0.21
2.569761037826538,0.16,0.09,0.0,0.18
2.5707931518554688,0.12,-0.15,-0.17,0.25
2.571545124053955,0.07,-0.4,-0.29,0.49
2.5923709869384766,0.33,-0.19,-0.17,0.41
2.5931668281555176,0.86,0.55,-0.25,1.05
2.608947992324829,0.15,-0.88,-0.45,0.99
2.6097450256347656,-0.48,-0.3,0.1,0.57
2.6258511543273926,-0.34,0.44,0.31,0.63
2.626875877380371,-0.3,0.3,0.32,0.53
2.641364097595215,-0.21,-0.02,0.28,0.35
2.670501947402954,-0.15,-0.09,0.17,0.24
2.671416997909546,-0.11,0.02,0.08,0.13
2.6721091270446777,-0.05,0.01,-0.03,0.05
2.6927318572998047,-0.03,-0.09,-0.13,0.16
2.693572998046875,-0.05,-0.16,-0.15,0.22
2.7091619968414307,-0.13,-0.13,-0.11,0.21
2.709981918334961,-0.25,-0.07,-0.08,0.27
2.7258009910583496,-0.25,-0.08,-0.06,0.26
2.7267539501190186,-0.19,-0.07,-0.12,0.23
2.7415170669555664,-0.12,-0.04,-0.11,0.16
2.7714099884033203,0.04,-0.04,0.03,0.06
2.772531032562256,0.13,-0.01,0.06,0.14
2.773244857788086,0.1,0.02,-0.01,0.1
2.793130874633789,0.05,0.03,-0.02,0.06
2.794023036956787,-0.02,-0.01,-0.03,0.03
2.809122085571289,-0.08,-0.03,-0.07,0.11
2.8099818229675293,0.01,0.04,-0.05,0.06
2.8258728981018066,0.12,-0.01,-0.06,0.13
2.82686185836792,0.08,0.0,-0.05,0.09
2.8414268493652344,0.06,0.03,0.05,0.08
2.8725459575653076,0.06,-0.08,0.06,0.11
2.873594045639038,0.02,-0.09,0.03,0.09
2.874281883239746,-0.04,-0.02,0.03,0.05
2.89300799369812,-0.12,-0.01,0.05,0.13
2.893838882446289,-0.1,-0.04,0.07,0.12
2.9092278480529785,-0.08,-0.01,0.01,0.08
2.910061836242676,-0.09,-0.03,-0.06,0.11
2.9261398315429688,-0.07,-0.05,-0.08,0.11
2.927093029022217,-0.05,-0.03,-0.14,0.15
2.9392449855804443,-0.07,-0.02,-0.17,0.18
2.969222068786621,-0.1,-0.03,-0.15,0.18
2.970212936401367,-0.11,-0.02,-0.13,0.17
2.970906972885132,-0.07,-0.06,-0.09,0.12
2.9729390144348145,-0.01,-0.09,-0.04,0.09
2.9739460945129395,0.08,-0.07,0.01,0.1
2.9746241569519043,0.22,-0.04,0.01,0.22
2.9918770790100098,0.39,0.16,-0.12,0.43
2.992666006088257,0.31,-0.05,-0.12,0.33
3.0090889930725098,-0.22,0.05,-0.04,0.22
3.009876012802124,-0.27,-0.16,0.09,0.32
3.0246169567108154,-0.07,-0.09,0.12,0.16
3.0532140731811523,0.14,0.08,0.05,0.16
3.054131031036377,0.17,-0.01,-0.03,0.17
3.0548300743103027,0.05,-0.06,-0.08,0.11
3.056671142578125,-0.02,-0.03,-0.09,0.09
3.0577330589294434,-0.02,-0.02,-0.03,0.04
3.058353900909424,-0.04,-0.03,0.02,0.05
3.075279951095581,-0.04,-0.04,0.04,0.06
3.0759668350219727,0.05,-0.08,0.02,0.09
3.093583106994629,0.19,0.01,-0.01,0.19
3.0943660736083984,0.15,0.06,0.01,0.16
3.133439064025879,0.15,-0.02,0.11,0.18
3.1342029571533203,0.37,0.18,0.19,0.45
3.135806083679199,0.51,0.4,0.2,0.67
3.1390929222106934,0.31,0.22,-0.08,0.38
3.139862060546875,-0.06,-0.07,-0.36,0.37
3.1591758728027344,-0.44,-0.3,-0.51,0.73
3.159929037094116,-0.86,-0.34,-0.28,0.96
3.176185131072998,-0.93,-0.13,0.05,0.94
3.176992893218994,-0.64,0.13,0.0,0.65
3.1915130615234375,-0.52,0.11,-0.04,0.53
3.219712018966675,-0.38,0.0,-0.16,0.41
3.2215750217437744,-0.11,-0.12,-0.37,0.4
3.222316026687622,0.12,-0.09,-0.44,0.46
3.2245330810546875,0.23,-0.02,-0.39,0.45
3.2256288528442383,-0.1,-0.14,-0.26,0.31
3.226285934448242,-0.79,-0.11,0.0,0.79
3.2421000003814697,-1.03,0.12,0.46,1.13
3.2428231239318848,-1.12,0.16,0.44,1.21
3.2592179775238037,-1.12,0.12,0.44,1.2
3.2599220275878906,-0.96,0.03,0.2,0.98
3.3030970096588135,-0.91,0.04,-0.04,0.91
3.3039140701293945,-0.75,-0.09,-0.32,0.82
3.304582118988037,-0.39,-0.04,-0.37,0.53
3.30621600151062,0.08,0.01,-0.39,0.39
3.307353973388672,0.42,0.05,-0.31,0.52
3.30846905708313,0.42,0.1,-0.11,0.44
3.309340000152588,0.04,0.1,0.0,0.1
3.3107528686523438,-0.54,0.09,-0.01,0.54
3.3118081092834473,-0.93,0.11,0.09,0.94
3.3124608993530273,-0.91,0.06,0.24,0.94
3.350597858428955,-0.65,-0.02,0.29,0.71
3.351433038711548,-0.39,0.01,0.15,0.41
3.3532118797302246,-0.24,0.01,-0.01,0.24
3.355496883392334,-0.07,-0.04,-0.17,0.18
3.3760881423950195,0.11,-0.12,-0.41,0.44
3.3768739700317383,0.21,-0.12,-0.44,0.5
3.3925328254699707,0.16,-0.09,-0.42,0.45
3.3933820724487305,0.02,-0.01,-0.34,0.34
3.4101059436798096,-0.01,0.09,-0.23,0.24
3.4111170768737793,-0.17,0.09,-0.15,0.24
3.4549620151519775,-0.48,0.0,-0.1,0.49
3.455803871154785,-0.6,-0.16,-0.03,0.62
3.4565248489379883,-0.34,-0.22,-0.06,0.4
3.4799318313598633,0.03,-0.02,-0.2,0.2
3.480767011642456,0.13,0.12,-0.31,0.35
3.489859104156494,-0.13,0.14,-0.34,0.39
3.4907000064849854,-0.43,0.1,-0.31,0.53
3.509693145751953,-0.49,-0.02,-0.28,0.56
3.5106358528137207,-0.41,-0.04,-0.36,0.54
3.525031089782715,-0.43,0.12,-0.51,0.67
3.5549769401550293,-0.59,0.24,-0.63,0.89
3.5560479164123535,-0.58,0.1,-0.56,0.81
3.556774139404297,-0.36,-0.03,-0.6,0.7
3.576266050338745,-0.25,-0.03,-0.69,0.73
3.5769870281219482,-0.56,-0.01,-0.7,0.89
3.59254789352417,-1.12,0.0,-0.76,1.35
3.593553066253662,-1.4,-0.23,-0.63,1.55
3.6065101623535156,-0.97,-0.27,-0.33,1.05
3.607377052307129,-0.23,-0.15,-0.32,0.42
3.6248910427093506,0.29,-0.16,-0.79,0.85
3.6550889015197754,0.52,-0.07,-0.99,1.12
3.656126022338867,0.11,-0.02,-0.97,0.97
3.6568498611450195,-0.71,0.13,-1.06,1.28
3.676785945892334,-0.91,0.2,-0.89,1.28
3.6774749755859375,-0.38,0.22,-0.43,0.61
3.6927871704101562,-0.21,0.38,-0.38,0.57
3.693624973297119,-0.39,0.5,-0.85,1.06
3.709606170654297,-0.37,0.45,-0.99,1.14
3.7104320526123047,-0.47,0.51,-0.8,1.05
3.725031852722168,-0.79,0.66,-0.7,1.24
3.7260429859161377,-0.94,1.05,-0.73,1.58
3.7730021476745605,-0.77,1.52,-0.62,1.81
3.7738699913024902,-1.06,1.78,-0.92,2.26
3.774567127227783,-1.71,2.12,-1.14,2.95
3.7939369678497314,-2.78,2.86,-0.55,4.02
3.7947609424591064,-3.39,2.61,-1.7,4.6
3.8094048500061035,-3.12,2.51,-3.2,5.12
3.810238838195801,-2.98,3.33,-3.53,5.69
3.8260960578918457,-3.53,4.23,-3.81,6.69
3.8271350860595703,-4.83,4.67,-4.79,8.25
3.841850996017456,-6.37,5.42,-4.92,9.7
3.8723230361938477,-7.85,6.64,-5.41,11.61
3.873373031616211,-9.29,8.13,-6.02,13.73
3.8741259574890137,-10.12,9.24,-6.07,14.98
3.893221855163574,-9.99,9.99,-6.27,15.45
3.894101142883301,-9.31,10.5,-6.72,15.55
3.9096839427948,-8.16,10.47,-6.97,14.99
3.910521984100342,-6.97,9.21,-9.64,15.04
3.926417827606201,-5.67,6.85,-11.11,14.23
3.9274520874023438,-4.38,6.02,-8.55,11.33
3.9421160221099854,-3.1,6.07,-5.23,8.59
3.9730429649353027,-2.53,5.88,-3.29,7.19
3.9741270542144775,-2.72,4.42,-3.42,6.21
3.9749419689178467,-2.51,1.34,-3.61,4.59
3.993523120880127,-2.26,-1.84,-2.9,4.11
3.9943690299987793,-0.08,-1.3,-1.23,1.79
4.009577035903931,0.23,-3.18,-1.36,3.46
4.010612964630127,-3.06,-4.84,-2.87,6.4
4.026299953460693,-6.49,-5.82,-3.44,9.37
4.027329921722412,-8.1,-6.91,-2.78,11.0
4.041949987411499,-7.64,-7.19,-2.04,10.68
4.071167945861816,-5.78,-7.05,-1.39,9.22
4.072397947311401,-3.99,-6.98,-1.0,8.1
4.073182106018066,-2.58,-6.86,-0.97,7.39
4.094449043273926,-1.74,-6.68,-1.26,7.01
4.095317840576172,-1.59,-6.37,-1.66,6.77
4.109549045562744,-1.96,-6.17,-1.46,6.63
4.110391139984131,-2.56,-6.16,-0.74,6.71
4.1267781257629395,-3.01,-6.04,-0.32,6.75
4.127779006958008,-3.01,-5.59,-0.26,6.35
4.1422319412231445,-2.7,-4.95,-0.15,5.64
4.171376943588257,-2.27,-4.14,-0.52,4.75
4.172513008117676,-1.39,-3.4,-1.42,3.93
4.1732399463653564,0.43,-2.25,-1.87,2.95
4.193304061889648,2.08,-0.51,-1.28,2.49
4.194192886352539,2.85,1.3,-1.84,3.63
4.209980010986328,3.66,3.05,-2.88,5.56
4.211004018783569,4.55,4.37,-2.83,6.91
4.2265870571136475,5.65,5.41,-2.22,8.13
4.227643966674805,7.08,6.11,-1.7,9.5
4.2421770095825195,8.4,6.05,-1.76,10.5
4.27272891998291,9.52,5.3,-1.43,10.98
4.273868083953857,9.3,5.19,-1.1,10.7
4.274661064147949,7.81,6.57,-2.2,10.44
4.293650150299072,5.86,7.89,-2.33,10.1
4.294535160064697,4.96,7.81,-0.83,9.28
4.3099730014801025,4.98,6.41,1.18,8.2
4.310992002487183,4.98,5.67,3.56,8.34
4.3265700340271,5.52,5.42,4.57,8.98
4.3276050090789795,6.33,5.23,4.63,9.42
4.3419880867004395,7.16,4.8,4.78,9.85
4.371881008148193,7.88,3.73,4.86,9.98
4.3729729652404785,8.21,1.98,4.66,9.64
4.373684883117676,7.21,0.13,4.57,8.53
4.393573999404907,3.74,-1.93,4.67,6.28
4.3944079875946045,-1.06,-4.61,4.33,6.41
4.40960693359375,-9.9,-8.02,1.39,12.81
4.410522937774658,-22.45,-1.53,-2.93,22.69
4.426498889923096,-18.29,23.45,-3.2,29.91
4.427512168884277,2.94,27.71,-1.99,27.93
4.442134857177734,13.97,6.63,1.14,15.5
4.4715471267700195,17.48,-0.12,8.87,19.6
4.472704887390137,17.51,-0.88,6.45,18.68
4.473510980606079,11.9,-6.17,-0.35,13.4
4.493867874145508,8.21,-6.34,-1.46,10.47
4.494773864746094,6.18,-3.99,-3.65,8.21
4.510068893432617,4.81,-0.99,-5.22,7.16
4.511091947555542,4.32,0.93,-1.13,4.56
4.526618957519531,2.54,1.83,2.61,4.07
4.527626991271973,-0.63,1.29,2.88,3.21
4.542294025421143,-2.1,-0.03,2.99,3.65
4.543356895446777,-0.85,-0.63,3.17,3.34
4.590481996536255,1.17,-0.45,2.18,2.51
4.591456890106201,2.42,-0.39,0.37,2.47
4.592283010482788,3.04,-0.43,-1.04,3.24
4.610814094543457,3.04,-0.03,-1.25,3.28
4.611778020858765,2.19,0.15,-1.09,2.45
4.626391887664795,1.45,-0.37,-0.76,1.67
4.627407073974609,1.16,-1.08,-0.34,1.62
4.643453121185303,0.47,-0.98,0.17,1.1
4.644485950469971,-0.37,0.07,0.7,0.79
4.658845901489258,-0.83,1.0,0.55,1.41
4.6893980503082275,-0.5,1.34,0.09,1.43
4.6904988288879395,0.11,1.14,0.1,1.14
4.691387176513672,0.07,0.61,-0.09,0.62
4.710537910461426,-0.74,0.29,-0.59,0.98
4.711367130279541,-1.59,0.2,-0.81,1.79
4.726770877838135,-2.22,0.27,-1.21,2.54
4.7278008460998535,-2.72,0.27,-1.64,3.18
4.743484020233154,-2.92,0.23,-1.65,3.36
4.7445080280303955,-2.83,0.35,-1.59,3.26
4.758554935455322,-2.54,0.43,-1.35,2.9
4.788937091827393,-2.31,0.37,-0.79,2.46
4.790063858032227,-2.29,0.2,-0.55,2.36
4.790897846221924,-2.18,0.12,-0.76,2.31
4.811020851135254,-1.85,0.31,-0.86,2.06
4.811907052993774,-1.55,0.75,-0.88,1.93
4.82671594619751,-1.65,0.96,-1.02,2.16
4.827749013900757,-2.07,0.99,-1.21,2.59
4.843551158905029,-2.58,1.34,-0.95,3.05
4.844658851623535,-3.43,2.3,-0.8,4.2
4.858870029449463,-4.14,3.29,-0.69,5.33
4.88866400718689,-4.29,3.63,-0.61,5.65
4.889834880828857,-4.67,3.93,-0.71,6.14
4.8906409740448,-5.39,4.05,-1.2,6.84
4.907474040985107,-5.83,4.42,-2.1,7.61
4.908355951309204,-6.78,5.06,-2.76,8.89
4.926458835601807,-8.36,5.52,-3.52,10.61
4.92730188369751,-9.83,6.13,-4.23,12.33
4.943817138671875,-11.03,7.47,-4.4,14.02
4.944849014282227,-11.57,9.95,-4.14,15.81
4.959139823913574,-11.58,13.35,-4.37,18.2
4.9859938621521,-12.09,16.27,-5.58,21.02
4.98695707321167,-11.15,16.1,-6.51,20.63
4.987701892852783,-9.58,13.08,-7.38,17.81
4.9900898933410645,-9.1,10.69,-6.61,15.51
4.9912919998168945,-7.45,12.08,-2.33,14.38
4.992409944534302,-4.06,15.62,0.4,16.14
4.993514060974121,-2.06,15.19,-2.66,15.55
4.994225025177002,-2.38,8.77,-5.88,10.82
4.9950950145721436,-0.24,3.58,-4.32,5.61
4.995777130126953,6.99,4.18,-0.49,8.15
5.0310280323028564,10.78,4.74,0.26,11.77
5.0318498611450195,5.78,2.42,-2.59,6.78
5.03343391418457,-1.12,0.28,-1.13,1.61
5.043395042419434,-5.74,-1.73,1.26,6.12
5.044148921966553,-8.57,-4.67,3.19,10.26
5.060978889465332,-8.86,-7.98,5.27,13.03
5.061789035797119,-7.42,-9.39,6.2,13.47
5.076837062835693,-5.84,-9.66,4.57,12.17
5.077662944793701,-4.54,-9.26,2.03,10.51
5.089569091796875,-3.64,-9.14,0.4,9.84
5.1143598556518555,-3.51,-9.34,-0.18,9.97
5.115355014801025,-3.98,-9.72,-0.35,10.5
5.1161229610443115,-4.66,-10.07,-0.68,11.11
5.126491069793701,-5.34,-10.08,-1.09,11.45
5.127230167388916,-5.45,-9.97,-1.05,11.41
5.143303871154785,-4.77,-10.02,-0.73,11.12
5.144132137298584,-3.84,-10.16,-0.59,10.87
5.1602699756622314,-3.01,-10.36,-0.51,10.8
5.161057949066162,-2.49,-10.66,-0.65,10.96
5.1759748458862305,-2.25,-10.98,-0.7,11.23
5.201596021652222,-1.87,-11.13,-0.61,11.3
5.202633857727051,-1.08,-11.18,-0.21,11.23
5.2033891677856445,-0.12,-11.03,0.49,11.04
5.206492900848389,0.35,-9.92,0.26,9.92
5.207594871520996,0.5,-8.45,-0.84,8.5
5.208700180053711,1.53,-7.68,-1.96,8.07
5.209772109985352,3.77,-6.58,-0.54,7.6
5.210433006286621,4.88,-4.55,3.37,7.47
5.226316928863525,5.14,-2.38,4.07,6.97
5.2269978523254395,5.66,0.35,3.27,6.54
5.240669012069702,5.91,3.34,2.91,7.38
5.2637939453125,5.9,6.54,2.86,9.26
5.26475191116333,6.58,9.3,2.86,11.74
5.265463829040527,8.02,10.39,2.04,13.28
5.275943994522095,9.32,10.51,0.32,14.05
5.2767181396484375,10.44,10.92,-1.58,15.19
5.293215036392212,12.02,10.87,-2.76,16.43
5.294064044952393,13.5,8.96,-2.79,16.44
5.310275077819824,13.46,5.78,-1.38,14.71
5.31112003326416,11.94,2.96,1.59,12.4
5.325470924377441,9.41,2.65,4.02,10.57
5.351577043533325,4.13,4.17,1.95,6.18
5.352695941925049,-7.71,2.03,-5.55,9.71
5.353446006774902,-29.79,8.02,-11.41,32.89
5.356276988983154,-33.69,32.15,-2.59,46.64
5.37704610824585,-7.57,24.05,8.7,26.67
5.377877950668335,4.7,-0.52,4.45,6.49
5.393252849578857,8.44,-5.13,5.82,11.46
5.394098997116089,13.43,-3.8,8.58,16.38
5.409165859222412,12.29,-2.05,5.42,13.58
5.4100189208984375,7.88,-3.47,-0.88,8.65
5.453433036804199,5.83,-1.72,-5.01,7.87
5.4542951583862305,4.95,1.79,-5.25,7.43
5.455957889556885,5.04,1.67,-4.17,6.75
5.4572038650512695,4.91,-0.23,-4.28,6.51
5.458317995071411,5.32,-0.95,-3.89,6.65
5.459412097930908,5.59,-0.01,-1.81,5.87
5.460108041763306,4.18,0.94,1.35,4.49
5.476933002471924,1.38,0.86,3.86,4.18
5.477710008621216,-0.64,0.27,3.88,3.94
5.492612838745117,-1.76,-0.47,2.86,3.39
5.516992092132568,-2.41,-0.77,2.47,3.53
5.517959117889404,-2.25,-0.91,2.07,3.18
5.518711090087891,-0.78,-0.88,0.68,1.35
5.524612903594971,0.99,-0.58,-1.12,1.6
5.525352954864502,2.25,-0.19,-2.2,3.15
5.543917179107666,2.67,0.3,-2.15,3.44
5.544718980789185,2.2,0.64,-1.37,2.66
5.560343980789185,1.4,0.82,-0.75,1.78
5.561177968978882,0.39,0.75,-0.35,0.91
5.576054096221924,-0.97,0.48,-0.07,1.08
5.6035590171813965,-2.35,0.37,0.41,2.41
5.604594945907593,-3.1,0.27,0.36,3.13
5.605241060256958,-2.93,0.2,0.09,2.93
5.607197046279907,-2.08,0.19,-0.34,2.11
5.608366012573242,-1.08,0.34,-0.79,1.38
5.609524965286255,-0.61,0.47,-1.16,1.39
5.610594034194946,-1.08,0.37,-1.41,1.81
5.611250877380371,-2.39,0.19,-1.65,2.91
5.626503944396973,-3.82,-0.16,-1.53,4.11
5.627202987670898,-4.77,-0.31,-1.27,4.94
5.6674981117248535,-4.78,0.22,-1.12,4.91
5.668334007263184,-3.9,0.7,-1.08,4.1
5.670099973678589,-2.65,0.87,-1.2,3.03
5.673269033432007,-1.55,0.93,-1.23,2.18
5.673959970474243,-0.74,1.02,-1.39,1.87
5.6938300132751465,-0.35,1.16,-1.61,2.01
5.694674968719482,-0.73,1.36,-1.35,2.05
5.710394859313965,-1.97,1.74,-0.66,2.71
5.711246967315674,-3.43,2.39,-0.42,4.2
5.726137161254883,-3.98,2.75,-0.04,4.83
5.753322124481201,-3.98,2.52,-0.09,4.71
5.754297971725464,-4.08,2.5,-0.59,4.82
5.755001068115234,-4.15,2.61,-1.1,5.02
5.756685972213745,-4.25,2.91,-1.62,5.39
5.757781982421875,-5.0,3.37,-2.22,6.42
5.759076118469238,-6.22,3.88,-2.6,7.77
5.760339975357056,-7.53,4.26,-2.84,9.1
5.761446952819824,-8.44,4.93,-3.22,10.29
5.762569904327393,-9.14,6.92,-3.7,12.04
5.763719081878662,-10.16,10.08,-4.02,14.86
5.7877888679504395,-10.62,11.97,-4.29,16.56
5.788834095001221,-9.85,12.46,-4.83,16.6
5.789522171020508,-8.59,12.78,-5.75,16.43
5.791676998138428,-7.72,12.3,-5.7,15.6
5.792826175689697,-6.43,11.2,-2.38,13.13
5.793974876403809,-4.3,11.26,0.74,12.07
5.795054912567139,-2.45,11.66,-0.25,11.91
5.795735836029053,-3.05,9.42,-3.9,10.64
5.810091018676758,-3.62,5.31,-5.58,8.51
5.810819149017334,-1.49,1.23,-4.53,4.92
5.827085018157959,4.18,1.31,-1.46,4.61
5.853362083435059,8.76,3.84,0.5,9.57
5.854413986206055,7.07,3.62,-1.63,8.1
5.855152130126953,0.94,1.63,-2.32,2.98
5.857767105102539,-3.89,0.07,-0.5,3.92
5.859126091003418,-6.76,-1.93,2.04,7.32
5.860245943069458,-7.49,-3.88,4.65,9.63
5.861354827880859,-6.24,-5.86,6.14,10.53
5.862030982971191,-4.75,-6.95,6.09,10.39
5.877087116241455,-3.7,-6.87,4.64,9.07
5.87780499458313,-2.77,-6.36,2.89,7.51
5.919105052947998,-2.15,-6.19,1.6,6.74
5.920021057128906,-1.89,-6.58,0.73,6.88
5.921870946884155,-1.98,-7.11,-0.05,7.38
5.923233985900879,-2.42,-7.26,-0.62,7.67
5.924355983734131,-2.64,-7.09,-0.76,7.6
5.925549030303955,-2.31,-7.07,-0.83,7.48
5.926637172698975,-1.89,-7.3,-1.01,7.6
5.927300930023193,-1.59,-7.69,-0.96,7.91
5.943367958068848,-1.65,-8.19,-0.74,8.38
5.944076061248779,-1.96,-8.78,-0.53,9.01
5.986917972564697,-2.3,-9.3,-0.1,9.58
5.987735033035278,-2.24,-9.85,0.66,10.12
5.988662958145142,-1.88,-10.44,1.59,10.72
5.990833044052124,-1.66,-10.84,2.2,11.18
5.992024898529053,-1.56,-10.77,2.58,11.18
5.993030071258545,-0.89,-10.07,2.72,10.46
5.994844913482666,0.47,-9.15,2.11,9.4
5.995897054672241,2.38,-8.36,1.01,8.75
5.996613025665283,4.29,-7.08,0.97,8.33
6.008584022521973,5.25,-5.55,1.52,7.78
6.033723831176758,5.92,-4.11,0.83,7.25
6.0347208976745605,7.02,-2.34,0.43,7.41
6.035454988479614,8.08,-0.23,1.06,8.15
6.043251991271973,8.42,2.15,2.01,8.91
6.0440590381622314,7.96,4.81,2.23,9.56
6.060122966766357,7.26,7.33,2.03,10.51
6.060903072357178,6.63,8.43,1.79,10.87
6.076952934265137,6.23,8.65,1.32,10.74
6.077754974365234,6.23,9.84,0.71,11.66
6.092771053314209,7.18,11.35,-0.54,13.44
6.122016906738281,8.15,10.49,-0.96,13.31
6.123136043548584,7.69,8.28,0.55,11.31
6.12386417388916,6.09,7.12,2.4,9.67
6.14467191696167,3.26,8.16,2.51,9.13
6.145420074462891,-0.44,6.37,-0.04,6.38
6.16011905670166,-8.16,0.46,-5.82,10.03
6.160955905914307,-23.41,3.2,-10.89,26.01
6.177227973937988,-23.24,18.49,-2.85,29.83
6.178083896636963,-6.35,17.64,6.02,19.69
6.192695140838623,2.47,3.95,6.22,7.77
6.2237348556518555,7.53,-2.22,7.14,10.61
6.224763870239258,8.84,-2.9,6.02,11.08
6.225455045700073,6.5,-2.42,3.44,7.74
6.241228103637695,3.49,0.57,0.2,3.54
6.24200701713562,4.38,2.54,-5.47,7.45
6.2604851722717285,7.91,2.26,-8.09,11.53
6.261337041854858,10.63,0.88,-5.72,12.1
6.277086973190308,11.49,-1.31,-3.77,12.16
6.277924060821533,8.91,-1.43,-2.92,9.48
6.292917013168335,5.29,0.36,-1.52,5.51
6.323934078216553,2.26,1.68,0.72,2.9
6.3249030113220215,-0.13,1.64,3.17,3.57
6.3256189823150635,-1.36,0.62,4.82,5.04
6.344825029373169,-1.85,-0.39,5.07,5.41
6.345591068267822,-2.25,-0.77,4.15,4.78
6.360509872436523,-2.0,-1.07,2.5,3.37
6.361330032348633,-1.0,-1.28,0.54,1.71
6.377089023590088,0.17,-0.91,-1.37,1.65
6.3779120445251465,1.13,-0.24,-2.73,2.96
6.392905950546265,1.81,0.25,-3.09,3.58
6.423910140991211,2.04,0.68,-2.53,3.32
6.424919128417969,1.8,0.92,-1.54,2.54
6.4256181716918945,0.91,0.61,-0.52,1.21
6.444694995880127,-0.85,0.22,0.08,0.88
6.445458889007568,-2.78,-0.01,0.31,2.79
6.460715055465698,-4.02,-0.19,0.08,4.02
6.46153998374939,-4.12,-0.06,-0.56,4.15
6.477447986602783,-3.16,0.21,-0.71,3.24
6.478224992752075,-2.27,0.21,-0.76,2.4
6.491909027099609,-1.79,0.09,-0.8,1.96
6.4929680824279785,-1.74,-0.08,-1.05,2.03
6.539491176605225,-1.91,-0.22,-1.18,2.25
6.540348052978516,-2.1,-0.23,-0.74,2.23
6.540992975234985,-2.39,-0.18,-0.17,2.4
6.561254978179932,-2.41,-0.07,0.29,2.42
6.562206029891968,-2.03,0.29,0.18,2.05
6.577473163604736,-1.22,0.51,0.1,1.32
6.578291893005371,-0.37,0.37,0.13,0.53
6.593995094299316,-0.02,0.15,-0.02,0.15
6.595015048980713,-0.14,-0.02,-0.25,0.28
6.6096510887146,-0.42,0.13,-0.42,0.6
6.643025875091553,-0.51,0.52,-0.51,0.88
6.644024848937988,-0.62,0.74,-0.45,1.06
6.644737005233765,-0.89,0.88,-0.41,1.31
6.661241054534912,-1.27,0.88,-0.57,1.64
6.661954879760742,-1.94,1.34,-0.21,2.36
6.6771769523620605,-2.75,1.71,-0.1,3.23
6.678024053573608,-3.52,1.67,-0.69,3.95
6.693953037261963,-4.08,1.88,-0.98,4.59
6.694777011871338,-4.35,1.79,-1.36,4.89
6.709916114807129,-4.48,2.04,-1.91,5.28
6.741621971130371,-4.67,3.06,-2.19,5.99
6.742550849914551,-5.37,4.34,-2.51,7.34
6.743240833282471,-6.42,5.69,-2.96,9.07
6.761427879333496,-7.74,7.09,-3.44,11.04
6.7621941566467285,-8.82,7.94,-3.64,12.41
6.777627944946289,-9.01,8.82,-3.32,13.03
6.778482913970947,-8.51,10.14,-2.64,13.49
6.793727874755859,-7.87,10.93,-2.28,13.66
6.7945239543914795,-6.72,10.76,-2.28,12.88
6.8099799156188965,-5.08,9.26,-2.38,10.82
6.841941833496094,-3.7,7.68,-1.87,8.72
6.8428850173950195,-2.48,8.03,0.04,8.4
6.843544960021973,-1.08,10.13,1.18,10.25
6.861209869384766,-0.63,10.48,0.42,10.5
6.861992835998535,-1.74,7.42,-1.56,7.77
6.877870082855225,-2.64,2.95,-3.06,5.0
6.87868595123291,-1.23,0.46,-2.79,3.08
6.894124984741211,2.21,1.84,-0.99,3.04
6.894958972930908,4.23,4.3,0.18,6.03
6.908117055892944,1.56,4.41,-0.67,4.72
6.939929008483887,-3.27,2.84,-0.4,4.34
6.940980911254883,-7.18,0.22,0.93,7.24
6.941681861877441,-9.65,-2.32,3.01,10.37
6.9609620571136475,-10.16,-4.03,5.92,12.43
6.9617180824279785,-8.9,-5.09,8.1,13.06
6.977692127227783,-7.4,-6.01,7.76,12.29
6.978539943695068,-6.02,-6.08,5.88,10.38
6.994135856628418,-4.63,-6.02,3.77,8.47
6.994959831237793,-3.72,-6.26,2.18,7.6
7.009927034378052,-3.34,-6.45,1.06,7.34
7.042947053909302,-3.28,-6.68,0.08,7.44
7.0438690185546875,-3.39,-6.97,-0.7,7.78
7.04453706741333,-3.35,-7.34,-1.01,8.13
7.061661958694458,-3.16,-7.76,-0.99,8.43
7.062399864196777,-2.95,-8.22,-0.72,8.76
7.077599048614502,-2.33,-8.73,-0.3,9.04
7.078449964523315,-1.67,-9.45,-0.06,9.59
7.094171047210693,-1.2,-10.11,0.08,10.18
7.095005989074707,-1.02,-10.58,0.22,10.63
7.107769966125488,-1.1,-10.78,0.16,10.83
7.1394500732421875,-1.14,-10.83,0.12,10.89
7.140489101409912,-0.94,-10.48,0.41,10.53
7.141170024871826,-0.53,-9.56,0.35,9.58
7.161463022232056,0.01,-8.73,-0.34,8.73
7.16220498085022,1.12,-8.28,-0.15,8.35
7.177811145782471,2.0,-7.19,2.55,7.88
7.1786439418792725,1.87,-5.32,4.79,7.39
7.194415092468262,2.03,-2.91,4.77,5.94
7.195258140563965,2.69,0.02,4.53,5.26
7.2099549770355225,3.11,3.22,4.07,6.05
7.243649005889893,3.67,6.97,3.66,8.68
7.244685173034668,5.08,10.2,3.55,11.93
7.245386123657227,6.79,11.54,3.23,13.77
7.261351108551025,7.57,12.1,2.19,14.43
7.262140989303589,6.93,12.8,1.16,14.6
7.277769088745117,6.02,12.71,1.15,14.11
7.278601169586182,5.13,11.06,2.6,12.46
7.291533946990967,3.23,10.32,4.51,11.71
7.292456150054932,2.95,9.02,4.65,10.56
7.310405969619751,4.7,3.29,0.35,5.74
7.311522006988525,-3.81,0.94,-11.31,11.97
7.363425970077515,-19.46,10.95,-16.09,27.52
7.364300966262817,-21.11,22.19,-3.19,30.79
7.365025043487549,-3.94,7.48,7.24,11.13
7.378477096557617,6.47,-5.39,6.59,10.69
7.379245042800903,11.78,-4.28,5.63,13.73
7.39424204826355,13.18,-0.36,4.75,14.01
7.3950769901275635,9.31,0.79,2.49,9.66
7.411078929901123,5.18,0.8,0.08,5.24
7.411940097808838,2.97,0.91,-0.81,3.21
7.426759958267212,2.52,-0.45,-0.58,2.62
7.4618821144104,2.68,-1.11,-1.48,3.25
7.462769031524658,2.71,-0.43,-2.38,3.63
7.463433027267456,2.71,0.53,-1.84,3.31
7.478549957275391,2.67,0.85,-0.58,2.86
7.479299068450928,2.13,0.4,0.67,2.26
7.494184970855713,1.27,-0.16,1.48,1.95
7.494984149932861,0.61,-0.4,1.55,1.71
7.511127948760986,0.31,-0.44,1.09,1.21
7.512014865875244,0.25,-0.3,0.42,0.57
7.52663516998291,0.37,-0.22,0.03,0.43
7.5607240200042725,0.69,-0.2,0.01,0.71
7.561646938323975,1.05,-0.02,-0.2,1.06
7.562312126159668,1.34,0.15,-0.68,1.51
7.578404903411865,1.53,0.17,-1.17,1.93
7.579166889190674,1.42,0.23,-1.3,1.93
7.594356060028076,1.09,0.23,-0.97,1.47
7.595129013061523,0.62,0.11,-0.6,0.86
7.610985040664673,0.08,0.01,-0.39,0.39
7.611785888671875,-0.47,0.02,-0.16,0.49
7.626389980316162,-0.94,0.05,0.09,0.94
7.660680055618286,-1.26,0.05,0.21,1.27
7.661599159240723,-1.3,0.08,0.2,1.31
7.662276983261108,-1.03,0.19,0.24,1.07
7.678494930267334,-0.66,0.28,0.22,0.74
7.679287910461426,-0.53,0.27,-0.07,0.59
7.693640947341919,-0.65,0.27,-0.5,0.86
7.694422960281372,-1.11,0.06,-0.89,1.42
7.711159944534302,-1.97,-0.31,-1.22,2.33
7.712028980255127,-3.24,-0.66,-1.56,3.65
7.726917028427124,-4.0,-0.42,-1.33,4.23
7.761530876159668,-4.15,0.22,-1.0,4.27
7.762465000152588,-3.98,0.63,-0.96,4.14
7.763139009475708,-3.31,0.66,-1.22,3.58
7.778470039367676,-2.38,0.58,-1.41,2.82
7.779220104217529,-1.92,0.34,-1.33,2.36
7.794589996337891,-1.65,0.15,-1.29,2.09
7.795480966567993,-1.34,0.28,-0.76,1.56
7.811375141143799,-0.94,0.59,-0.51,1.22
7.812219142913818,-0.44,1.06,-0.79,1.39
7.826810836791992,-0.23,1.23,-0.76,1.46
7.863358020782471,-0.68,1.22,-0.82,1.61
7.864262104034424,-1.61,1.22,-0.92,2.21
7.864903926849365,-2.61,1.53,-0.94,3.16
7.878870964050293,-3.2,2.19,-0.64,3.93
7.879626989364624,-3.81,2.69,-0.8,4.73
7.894484996795654,-4.45,2.8,-1.75,5.54
7.895303010940552,-4.85,3.38,-2.34,6.35
7.911288022994995,-5.28,4.42,-2.96,7.49
7.912191867828369,-5.95,5.97,-4.03,9.34
7.927306175231934,-7.26,7.36,-4.76,11.38
7.9636549949646,-8.43,7.95,-5.06,12.64
7.964568138122559,-9.25,8.58,-4.98,13.56
7.9652180671691895,-9.71,9.57,-4.76,14.44
7.978863000869751,-8.94,10.83,-4.74,14.82
7.979630947113037,-7.57,10.39,-5.69,14.05
7.99441385269165,-5.65,7.47,-6.25,11.25
7.995245933532715,-3.91,5.55,-6.47,9.37
8.012900829315186,-2.5,6.67,-5.26,8.85
8.013719081878662,-1.87,8.43,-1.89,8.83
8.027132987976074,-1.39,8.72,-0.25,8.83
8.062841892242432,-1.08,7.09,-1.27,7.28
8.06383991241455,-1.16,4.03,-2.24,4.75
8.064543008804321,-0.71,0.89,-1.79,2.12
8.078964948654175,1.86,0.57,0.18,1.95
8.07970404624939,4.24,0.49,1.87,4.65
8.094561100006104,2.37,-0.74,0.53,2.53
8.095386028289795,-2.51,-1.37,0.72,2.94
8.111536026000977,-6.55,-1.94,3.0,7.46
8.112380981445312,-9.03,-3.35,5.41,11.04
8.12723994255066,-8.93,-4.69,7.48,12.55
8.128278970718384,-6.71,-5.64,8.52,12.22
8.181292057037354,-4.64,-6.41,7.77,11.09
8.182117938995361,-3.39,-6.39,5.99,9.39
8.182801961898804,-2.63,-5.94,4.23,7.75
8.195621013641357,-2.31,-6.06,2.88,7.09
8.196349143981934,-2.41,-6.6,1.81,7.25
8.211884021759033,-2.79,-6.78,1.14,7.41
8.212718963623047,-3.02,-6.7,0.84,7.39
8.227980136871338,-2.89,-6.87,0.82,7.49
8.22879695892334,-2.61,-7.28,0.96,7.79
8.243599891662598,-2.28,-7.5,1.29,7.94
8.28032398223877,-2.03,-7.74,1.62,8.16
8.281280040740967,-2.15,-8.36,2.0,8.86
8.281965970993042,-2.61,-9.05,2.13,9.65
8.295628070831299,-3.29,-9.56,2.27,10.36
8.296402931213379,-3.86,-9.81,2.53,10.84
8.311378002166748,-4.11,-9.78,3.06,11.04
8.312247037887573,-4.12,-9.38,3.58,10.85
8.328207015991211,-3.91,-8.53,3.55,10.03
8.32905387878418,-3.28,-7.63,2.85,8.78
8.34151005744934,-1.78,-6.63,2.53,7.31
8.378024101257324,0.22,-5.36,3.6,6.46
8.378982067108154,1.78,-3.88,4.1,5.91
8.379652976989746,3.31,-2.11,3.4,5.19
8.395410060882568,4.43,-0.03,2.5,5.08
8.39617395401001,4.7,2.47,1.81,5.6
8.411727905273438,4.84,5.28,1.41,7.3
8.412568092346191,5.31,8.01,0.76,9.64
8.428165912628174,5.98,9.42,-0.3,11.16
8.429008960723877,6.82,10.58,-0.49,12.59
8.444003105163574,7.66,11.66,-0.2,13.95
8.482442855834961,8.23,11.73,-0.93,14.35
8.483439922332764,8.74,10.3,-0.93,13.54
8.48408317565918,8.81,7.33,0.28,11.46
8.495803833007812,8.31,4.86,1.68,9.77
8.496551990509033,8.04,4.35,2.03,9.36
8.51145601272583,7.31,3.92,-0.37,8.3
8.512309074401855,2.59,-0.93,-5.54,6.18
8.528151035308838,-7.54,-2.41,-11.72,14.14
8.528993129730225,-20.09,5.98,-13.22,24.78
8.54405403137207,-17.17,23.17,-2.94,28.98
8.578176021575928,-3.59,15.89,3.37,16.63
8.57918095588684,2.21,0.19,5.33,5.77
8.5798921585083,5.73,-5.77,8.6,11.83
8.59551191329956,7.38,-4.72,8.64,12.3
8.596276998519897,4.91,-1.47,4.95,7.12
8.611515998840332,3.08,-0.45,0.96,3.25
8.612433910369873,2.83,1.1,-1.92,3.59
8.628183841705322,3.7,1.82,-1.98,4.57
8.62905502319336,5.15,-0.08,-1.38,5.33
8.644413948059082,5.66,-1.11,-1.85,6.05
8.678192138671875,5.42,0.33,-2.16,5.84
8.67916488647461,4.1,1.12,-1.11,4.39
8.67983603477478,2.09,0.65,0.56,2.25
8.695395946502686,0.43,0.21,1.07,1.17
8.696141958236694,-0.5,-0.37,0.71,0.94
8.711487054824829,-0.78,-0.64,0.67,1.21
8.712356090545654,-0.35,-0.36,0.63,0.8
8.728385925292969,0.54,-0.19,-0.02,0.57
8.72921895980835,1.26,-0.19,-0.78,1.49
8.74186396598816,1.63,-0.15,-0.88,1.85
8.775779962539673,1.7,-0.09,-0.58,1.79
8.776747941970825,1.37,0.07,-0.17,1.38
8.777451992034912,0.76,0.3,0.25,0.85
8.795708179473877,-0.02,0.41,0.23,0.47
8.796440124511719,-0.66,0.29,-0.23,0.75
8.811822891235352,-0.92,0.08,-0.53,1.06
8.812661170959473,-0.95,-0.07,-0.62,1.13
8.828466892242432,-0.99,-0.11,-0.69,1.21
8.829293012619019,-0.92,-0.19,-0.57,1.09
8.8441481590271,-0.64,-0.06,-0.24,0.68
8.880383968353271,-0.42,0.2,0.03,0.46
8.881340980529785,-0.35,0.34,-0.07,0.49
8.881997108459473,-0.22,0.43,-0.01,0.48
8.895787000656128,-0.23,0.37,0.01,0.43
8.896546840667725,-0.54,0.24,-0.23,0.63
8.911890029907227,-0.92,0.03,-0.4,1.0
8.91272497177124,-1.22,-0.1,-0.42,1.29
8.92839002609253,-1.61,-0.02,-0.59,1.71
8.929265022277832,-2.01,0.18,-0.87,2.19
8.944250106811523,-2.09,0.34,-0.97,2.32
8.945263862609863,-1.94,0.36,-1.02,2.22
8.99593210220337,-1.76,0.3,-0.96,2.02
8.996721029281616,-1.49,0.41,-0.88,1.77
8.997397899627686,-1.21,0.52,-0.77,1.52
9.013092041015625,-1.01,0.53,-0.6,1.28
9.013936996459961,-0.7,0.52,-0.43,0.97
9.028354167938232,-0.47,0.53,-0.35,0.79
9.029191970825195,-0.46,0.62,-0.08,0.77
9.045191049575806,-0.87,0.69,0.02,1.11
9.04601001739502,-1.29,0.7,-0.06,1.46
9.060731887817383,-1.64,0.87,-0.2,1.86
9.094934940338135,-1.89,1.08,-0.3,2.19
9.095859050750732,-2.09,1.05,-0.5,2.39
9.09652304649353,-2.35,1.15,-0.66,2.69
9.112689018249512,-2.55,1.37,-0.77,2.99
9.113412857055664,-2.63,1.7,-0.97,3.27
9.12863302230835,-2.92,1.96,-1.21,3.71
9.12948203086853,-3.32,2.15,-1.4,4.19
9.145206928253174,-3.93,2.59,-1.75,5.02
9.146026134490967,-4.8,3.52,-2.23,6.35
9.160862922668457,-5.88,4.73,-2.69,8.01
9.196906089782715,-6.96,5.85,-3.56,9.76
9.197938919067383,-8.16,7.3,-3.99,11.65
9.198606014251709,-9.17,9.1,-3.57,13.4
9.21284794807434,-9.71,10.68,-3.44,14.83
9.213708877563477,-10.52,11.17,-4.61,16.02
9.229266166687012,-10.91,10.43,-4.86,15.85
9.230087995529175,-10.47,9.44,-4.19,14.7
9.24535608291626,-9.6,8.48,-3.14,13.18
9.246253967285156,-8.23,8.47,-1.68,11.92
9.261288166046143,-6.05,9.76,-0.51,11.49
9.296077966690063,-3.14,10.89,-0.32,11.33
9.296954154968262,-1.46,9.22,-1.26,9.41
9.29762887954712,-1.32,4.29,-3.18,5.5
9.310378074645996,-1.17,-0.7,-4.15,4.36
9.311166048049927,1.12,-2.0,-3.26,3.98
9.328720092773438,4.81,-0.07,-1.33,4.99
9.329564094543457,5.81,0.99,-1.94,6.2
9.345561981201172,2.07,0.27,-3.9,4.42
9.346421957015991,-2.69,-0.62,-3.26,4.27
9.361039161682129,-5.02,-2.36,-1.92,5.86
9.397540092468262,-5.11,-4.39,-0.67,6.77
9.398496150970459,-4.21,-5.36,0.39,6.82
9.399183988571167,-3.34,-5.53,1.03,6.54
9.412622928619385,-2.92,-5.42,1.27,6.28
9.41335391998291,-2.86,-5.28,1.23,6.12
9.428828001022339,-2.63,-5.09,1.12,5.83
9.429680824279785,-2.12,-4.84,1.13,5.4
9.445364952087402,-1.76,-4.58,1.04,5.01
9.446241855621338,-1.63,-4.48,0.65,4.81
9.46092414855957,-1.56,-4.66,0.11,4.91
9.497437953948975,-1.43,-4.99,-0.42,5.2
9.498404026031494,-1.05,-5.34,-0.83,5.5
9.499081134796143,-0.55,-5.65,-1.21,5.8
9.51257610321045,-0.19,-6.03,-1.32,6.17
9.513375043869019,0.06,-6.54,-1.16,6.64
9.528678894042969,0.33,-7.2,-0.64,7.23
9.529544830322266,0.5,-7.78,-0.05,7.79
9.545607089996338,0.56,-7.84,0.29,7.86
9.546473979949951,0.95,-7.53,0.59,7.61
9.560882091522217,1.45,-7.35,0.39,7.5
9.597209930419922,2.28,-7.18,0.05,7.53
9.598152160644531,3.24,-6.58,1.18,7.42
9.598793983459473,3.32,-5.9,2.67,7.27
9.613011837005615,3.4,-4.98,2.71,6.61
9.613795042037964,4.48,-3.52,2.75,6.32
9.628957986831665,5.96,-2.1,2.83,6.92
9.629826068878174,6.79,-0.68,2.54,7.28
9.645918846130371,7.3,0.85,2.01,7.61
9.64673399925232,8.0,2.09,1.34,8.37
9.660928964614868,8.93,2.88,1.05,9.44
9.69762396812439,9.78,3.76,1.02,10.52
9.698626041412354,10.39,5.26,0.82,11.67
9.699383974075317,10.91,6.3,0.05,12.59
9.712864875793457,11.16,6.17,-0.87,12.78
9.713563919067383,11.14,5.46,-0.87,12.43
9.728986024856567,10.67,4.45,0.0,11.56
9.729799032211304,8.34,6.51,0.3,10.58
9.745694160461426,3.0,8.2,-1.87,8.92
9.746501922607422,-9.85,9.38,-8.02,15.79
9.76101303100586,-28.52,20.85,-11.82,37.25
9.76204800605774,-20.03,24.55,2.14,31.75
9.815680027008057,-0.7,3.19,7.53,8.2
9.816521167755127,4.03,-4.61,4.72,7.73
9.817203044891357,9.71,-3.15,7.7,12.78
9.829791069030762,14.33,-0.4,8.68,16.75
9.830543994903564,11.95,-0.33,3.94,12.58
9.845566034317017,7.56,-1.27,-1.43,7.79
9.84634017944336,5.21,-0.21,-3.72,6.4
9.861891984939575,4.56,0.35,-3.96,6.04
9.862739086151123,4.15,-0.21,-4.14,5.86
9.877954006195068,4.24,-0.15,-3.82,5.7
9.914620876312256,4.65,0.89,-2.48,5.34
9.91560983657837,4.01,1.25,-0.74,4.26
9.916282176971436,2.03,0.65,1.19,2.44
9.929442882537842,-0.17,-0.03,1.99,1.99
9.930211067199707,-1.6,-0.5,2.02,2.62
9.942770004272461,-1.94,-0.81,1.83,2.78
9.943619966506958,-1.17,-0.67,1.1,1.74
9.961915969848633,0.3,-0.12,0.09,0.33
9.962760925292969,1.47,0.17,-0.99,1.78
9.97867488861084,2.03,0.16,-1.68,2.63
10.016181945800781,1.83,0.19,-1.76,2.54
10.01712703704834,0.96,0.26,-1.53,1.82
10.017855167388916,-0.03,0.08,-1.17,1.17
10.02930212020874,-0.78,-0.14,-0.58,0.98
10.030065059661865,-1.34,-0.07,0.04,1.34
10.04573392868042,-1.83,0.18,0.24,1.85
10.046599864959717,-2.18,0.22,-0.15,2.19
10.062268018722534,-2.05,0.08,-0.62,2.14
10.063086986541748,-1.49,0.02,-0.65,1.62
10.077931880950928,-1.03,0.24,-0.69,1.26
10.115002155303955,-0.86,0.51,-0.7,1.22
10.116084098815918,-1.01,0.68,-0.54,1.33
10.116754055023193,-1.45,0.58,-0.46,1.62
10.129519939422607,-1.89,0.19,-0.57,1.98
10.130321025848389,-2.16,-0.26,-0.7,2.28
10.1457359790802,-2.39,-0.48,-0.75,2.55
10.146528959274292,-2.4,-0.42,-0.78,2.55
10.16220998764038,-1.9,-0.05,-0.87,2.09
10.163012981414795,-1.23,0.35,-0.98,1.61
10.17784309387207,-0.67,0.54,-0.97,1.29
10.215244054794312,-0.23,0.51,-1.0,1.14
10.21619200706482,-0.02,0.57,-0.88,1.04
10.216882944107056,-0.04,0.76,-0.67,1.01
10.229928016662598,-0.22,0.7,-0.48,0.87
10.230701923370361,-0.58,0.54,-0.41,0.89
10.24600887298584,-1.03,0.59,-0.61,1.33
10.246839046478271,-1.74,0.96,-0.39,2.02
10.262356996536255,-2.37,1.16,-0.38,2.66
10.263178825378418,-2.64,1.52,-0.54,3.09
10.27794098854065,-2.82,1.96,-0.88,3.54
10.315771102905273,-2.97,2.26,-1.27,3.94
10.316694974899292,-2.96,2.4,-1.72,4.18
10.317373037338257,-3.03,2.75,-1.92,4.51
10.329779148101807,-3.52,2.97,-2.14,5.07
10.33052110671997,-4.26,2.88,-2.32,5.64
10.34576416015625,-4.9,2.83,-2.3,6.1
10.346598148345947,-5.48,3.56,-2.44,6.97
10.362328052520752,-6.24,5.17,-2.95,8.62
10.363178014755249,-7.23,6.93,-3.5,10.6
10.378185987472534,-8.27,8.57,-3.99,12.56
10.41795802116394,-9.78,10.08,-5.14,14.95
10.418994903564453,-10.47,10.94,-5.48,16.1
10.419700145721436,-9.67,11.26,-6.08,16.03
10.429618835449219,-8.54,11.02,-7.11,15.65
10.430356979370117,-7.53,10.19,-8.02,14.99
10.445562839508057,-6.42,9.69,-5.86,13.01
10.446419954299927,-5.16,9.29,-2.18,10.84
10.462476015090942,-3.66,8.96,-0.4,9.68
10.463332176208496,-3.33,7.77,-1.48,8.58
10.478026866912842,-3.85,5.23,-2.86,7.09
10.51614499092102,-3.03,1.63,-2.75,4.4
10.517155170440674,-0.55,-0.9,-2.33,2.55
10.517843008041382,4.39,0.48,-0.64,4.46
10.529989004135132,7.7,1.75,-0.06,7.89
10.530746936798096,6.21,1.25,-2.62,6.85
10.545811176300049,0.59,0.11,-3.35,3.4
10.546658039093018,-3.95,-1.3,-1.72,4.5
10.562117099761963,-6.39,-3.62,0.07,7.34
10.562985897064209,-6.81,-5.57,1.71,8.96
10.578317165374756,-5.37,-6.15,2.57,8.55
10.579389095306396,-3.28,-6.13,2.45,7.37
10.634274005889893,-1.54,-6.33,1.72,6.73
10.63512897491455,-0.27,-6.38,0.64,6.41
10.635794162750244,0.46,-6.35,-0.31,6.37
10.646440029144287,0.58,-6.62,-1.0,6.72
10.647162914276123,0.12,-6.96,-1.58,7.13
10.662417888641357,-0.63,-7.14,-1.89,7.41
10.663264989852905,-1.17,-7.22,-1.93,7.56
10.679450035095215,-1.35,-7.21,-1.91,7.57
10.680276870727539,-1.26,-7.26,-1.74,7.57
10.694605827331543,-1.11,-7.45,-1.42,7.66
10.73371410369873,-0.99,-7.91,-0.88,8.02
10.734621047973633,-0.7,-8.68,0.1,8.7
10.735289096832275,-0.37,-9.44,0.66,9.47
10.74693489074707,-0.23,-9.81,0.72,9.83
10.747668027877808,-0.17,-9.9,0.72,9.92
10.762495994567871,-0.15,-9.56,0.74,9.58
10.763350009918213,0.05,-8.49,0.45,8.5
10.779445171356201,0.56,-7.3,-0.57,7.34
10.78029203414917,1.9,-6.44,-1.96,6.99
10.794908046722412,3.98,-5.37,-1.28,6.8
10.83619999885559,5.03,-4.21,0.73,6.59
10.837202072143555,5.52,-3.0,1.29,6.41
10.837924003601074,6.06,-1.13,1.6,6.36
10.842828035354614,6.28,1.08,1.68,6.58
10.843548059463501,6.2,3.17,1.19,7.06
10.86241602897644,6.29,4.65,0.37,7.83
10.863173961639404,6.68,5.22,-0.6,8.49
10.879262924194336,7.25,5.79,-0.8,9.31
10.880095958709717,8.28,6.88,-0.78,10.79
10.894680976867676,9.01,7.47,-1.35,11.78
10.933974981307983,9.17,7.55,-1.96,12.03
10.935099124908447,9.32,7.54,-1.41,12.07
10.935790061950684,8.93,7.0,-0.3,11.35
10.946824073791504,7.69,6.03,1.35,9.86
10.947575092315674,5.93,5.05,3.89,8.7
10.9634530544281,3.44,5.26,5.54,8.37
10.964325904846191,-1.23,4.97,3.71,6.32
10.979804039001465,-10.09,1.41,-0.42,10.19
10.980640888214111,-25.1,1.67,-3.9,25.45
10.9951810836792,-27.19,13.03,-1.1,30.17
11.0332670211792,-8.09,19.2,4.75,21.36
11.034253120422363,3.42,10.24,3.24,11.27
11.034945964813232,10.02,1.43,4.09,10.91
11.045339107513428,12.21,-0.8,5.49,13.41
11.046128988265991,9.68,-1.06,2.44,10.03
11.062478065490723,5.16,0.12,-1.77,5.45
11.06331491470337,3.57,-0.77,-6.43,7.39
11.079395055770874,5.61,-1.12,-8.23,10.02
11.080245018005371,8.07,0.38,-6.34,10.26
11.09509801864624,9.46,-0.29,-4.25,10.37
11.134584903717041,8.39,-1.11,-2.59,8.85
11.135687828063965,5.5,-0.04,-0.41,5.51
11.136445999145508,1.76,1.33,2.38,3.24
11.143543004989624,-1.59,1.91,4.62,5.24
11.14430284500122,-3.14,1.09,4.76,5.8
11.16258716583252,-3.38,0.18,3.48,4.85
11.163375854492188,-3.07,-0.24,2.02,3.68
11.176568984985352,-2.24,-0.8,0.7,2.47
11.1774320602417,-1.17,-1.32,-0.43,1.81
11.195324897766113,0.26,-1.28,-1.84,2.25
11.234239101409912,1.98,-0.69,-3.21,3.83
11.235205173492432,3.09,-0.05,-3.25,4.48
11.235887050628662,3.02,0.2,-1.66,3.45
11.24574089050293,1.76,0.25,0.09,1.77
11.246510028839111,0.12,0.35,1.02,1.08
11.260164022445679,-1.09,0.43,1.38,1.81
11.260922908782959,-1.54,0.36,1.28,2.03
11.279412031173706,-1.72,0.14,0.48,1.79
11.280277013778687,-1.62,0.03,-0.24,1.63
11.295094013214111,-1.29,0.09,-0.71,1.47
11.335291862487793,-0.99,0.4,-1.0,1.46
11.336200952529907,-0.96,0.56,-0.9,1.43
11.336866855621338,-1.31,0.57,-1.03,1.76
11.347118854522705,-1.86,0.35,-1.02,2.15
11.347882986068726,-2.5,-0.12,-0.96,2.68
11.362690925598145,-2.99,-0.52,-0.9,3.16
11.36353588104248,-3.03,-0.49,-0.73,3.15
11.379580020904541,-2.52,-0.1,-0.84,2.65
11.380404949188232,-1.72,0.2,-1.13,2.06
11.395094871520996,-0.74,0.39,-1.29,1.53
11.396142959594727,0.06,0.62,-1.25,1.39
11.452083110809326,0.16,0.81,-1.0,1.29
11.452939987182617,-0.16,0.8,-0.6,1.01
11.453603029251099,-0.65,0.58,-0.29,0.91
11.462421894073486,-1.38,0.37,-0.26,1.45
11.463213920593262,-2.0,0.26,-0.21,2.02
11.479436874389648,-2.2,0.15,-0.21,2.21
11.480204105377197,-1.83,0.35,-0.58,1.95
11.493865013122559,-1.55,1.24,-1.11,2.27
11.494676113128662,-1.53,2.01,-1.17,2.78
11.512210845947266,-1.89,2.3,-1.19,3.2
11.55216097831726,-2.66,2.28,-1.24,3.71
11.553152084350586,-3.42,2.5,-1.27,4.42
11.553834915161133,-4.15,2.76,-1.35,5.16
11.560837984085083,-4.63,2.88,-1.77,5.73
11.561606884002686,-5.15,3.87,-2.15,6.79
11.57947587966919,-6.15,5.42,-2.21,8.49
11.580265045166016,-7.37,6.08,-2.75,9.94
11.596147060394287,-8.5,7.12,-3.06,11.5
11.596994876861572,-9.52,8.71,-2.96,13.23
11.612307071685791,-10.21,9.78,-3.14,14.48
11.653864860534668,-10.62,10.58,-3.5,15.39
11.654819011688232,-11.03,10.67,-4.73,16.05
11.655539989471436,-10.59,10.2,-5.91,15.84
11.661309003829956,-9.37,9.16,-6.11,14.45
11.66209101676941,-7.8,8.61,-4.05,12.3
11.679821968078613,-5.94,9.69,-1.71,11.49
11.68067216873169,-3.97,11.55,-1.1,12.26
11.696300983428955,-2.8,11.31,-1.55,11.75
11.697139024734497,-1.95,7.03,-2.2,7.61
11.712331056594849,-0.73,1.42,-2.97,3.37
11.75347089767456,2.48,0.05,-2.75,3.7
11.754482984542847,7.98,2.08,-1.11,8.32
11.7551589012146,10.22,2.51,-1.55,10.63
11.761577129364014,5.94,0.81,-4.03,7.22
11.76227617263794,-0.34,-0.56,-2.92,2.99
11.779860973358154,-4.51,-2.62,-0.66,5.25
11.780662059783936,-6.64,-5.1,1.12,8.44
11.796709060668945,-6.71,-6.85,2.51,9.91
11.797504901885986,-5.23,-7.03,3.56,9.45
11.812068939208984,-3.41,-6.8,3.86,8.53
11.853564977645874,-1.96,-6.86,3.2,7.81
11.854517936706543,-1.18,-6.89,2.13,7.3
11.855237007141113,-1.21,-7.0,1.11,7.19
11.860261917114258,-1.83,-7.28,0.39,7.51
11.861006021499634,-2.69,-7.65,-0.19,8.11
11.87972116470337,-3.32,-7.95,-0.68,8.64
11.880584955215454,-3.51,-8.29,-0.84,9.04
11.896223068237305,-3.13,-8.65,-0.64,9.22
11.897093057632446,-2.51,-8.98,-0.39,9.33
11.911780834197998,-1.97,-9.34,-0.08,9.54
11.953760147094727,-1.65,-9.83,0.36,9.97
11.954740047454834,-1.58,-10.31,0.65,10.45
11.95548701286316,-1.66,-10.79,0.93,10.95
11.960976123809814,-1.71,-11.22,1.05,11.39
11.961745977401733,-1.55,-11.28,1.4,11.47
11.980102062225342,-1.38,-10.79,1.94,11.04
11.98094892501831,-1.06,-9.7,2.26,10.01
11.996415138244629,-0.55,-8.32,2.04,8.58
11.997257947921753,0.38,-6.91,1.27,7.03
12.012208938598633,2.24,-5.38,1.04,5.91
12.054200172424316,3.93,-3.3,2.52,5.71
12.055193901062012,4.68,-1.28,3.16,5.79
12.055928945541382,5.85,0.83,1.65,6.13
12.059754848480225,7.28,3.67,0.54,8.17
12.060503959655762,8.35,7.53,0.64,11.26
12.07986307144165,9.27,11.43,1.28,14.77
12.080621004104614,10.37,13.63,0.73,17.14
12.09640097618103,11.34,13.87,-0.73,17.93
12.097249984741211,11.3,11.37,-1.97,16.15
12.111802101135254,10.35,7.87,-1.85,13.13
12.155560970306396,8.97,5.88,-0.8,10.75
12.157122135162354,7.93,4.99,0.39,9.37
12.157792091369629,7.31,5.27,1.45,9.12
12.159937858581543,5.15,6.33,0.37,8.16
12.161037921905518,-1.96,2.32,-4.64,5.54
12.161736011505127,-16.76,0.39,-10.29,19.67
12.162394046783447,-31.1,9.7,-8.84,33.75
12.163084983825684,-15.33,20.43,5.45,26.11
12.179537057876587,-0.68,10.7,5.88,12.22
12.180256843566895,4.47,2.99,4.77,7.18
12.19632601737976,8.34,-0.03,7.05,10.92
12.237800121307373,8.7,-2.07,5.97,10.75
12.23873496055603,6.45,-1.76,2.67,7.19
12.23953104019165,4.75,-1.28,-1.19,5.06
12.242773056030273,5.52,-0.69,-4.71,7.28
12.243513107299805,7.41,1.21,-6.23,9.75
12.262159824371338,9.25,1.55,-5.05,10.65
12.262917041778564,9.19,0.26,-3.49,9.83
12.280147075653076,7.24,-0.45,-2.53,7.68
12.280943870544434,4.8,-0.15,-1.44,5.01
12.294713020324707,2.24,0.61,0.14,2.32
12.337669849395752,-0.26,0.97,1.8,2.06
12.33868408203125,-1.9,0.62,3.41,3.95
12.339391946792603,-2.18,-0.12,3.94,4.5
12.342888832092285,-1.71,-0.68,3.26,3.74
12.343728065490723,-0.9,-0.74,2.11,2.41
12.3630850315094,0.17,-0.51,1.0,1.13
12.36387300491333,1.05,-0.21,-0.35,1.12
12.380014896392822,1.51,0.0,-1.54,2.15
12.38084888458252,1.59,0.22,-2.0,2.56
12.395293951034546,1.43,0.43,-1.9,2.41
12.43983507156372,1.05,0.4,-1.51,1.88
12.440989971160889,0.36,0.1,-1.02,1.08
12.441683053970337,-0.71,-0.05,-0.65,0.96
12.443917989730835,-1.8,0.04,-0.08,1.8
12.445056915283203,-2.62,0.02,0.2,2.62
12.446168899536133,-2.81,0.09,0.01,2.81
12.446866035461426,-2.38,0.23,-0.3,2.4
12.447919845581055,-1.85,0.43,-0.59,1.98
12.448593139648438,-1.66,0.5,-1.06,2.03
12.461873054504395,-1.89,0.28,-1.43,2.38
12.503072023391724,-2.17,-0.33,-1.26,2.53
12.50412893295288,-2.54,-0.97,-1.15,2.95
12.504853010177612,-2.89,-0.84,-1.19,3.23
12.511579990386963,-2.76,-0.13,-1.2,3.01
12.512338161468506,-2.14,0.45,-1.31,2.54
12.530213832855225,-1.44,0.55,-1.21,1.95
12.531093120574951,-1.06,0.39,-1.22,1.66
12.546978950500488,-0.81,0.29,-1.22,1.49
12.547795057296753,-0.7,0.31,-1.0,1.25
12.562231063842773,-0.7,0.31,-0.81,1.11
12.60561990737915,-0.7,0.33,-0.59,0.97
12.606663942337036,-1.1,0.39,-0.75,1.38
12.607350826263428,-1.41,0.5,-0.76,1.67
12.610080003738403,-1.56,0.77,-0.77,1.9
12.629781007766724,-1.9,1.3,-1.06,2.53
12.63060998916626,-2.2,1.98,-1.14,3.17
12.646943092346191,-2.6,2.61,-0.62,3.73
12.647799968719482,-3.42,2.79,-1.09,4.54
12.662049055099487,-4.08,3.32,-1.66,5.51
12.662897109985352,-4.47,3.64,-1.79,6.03
12.723358154296875,-5.39,3.96,-2.42,7.11
12.724193096160889,-6.68,4.66,-2.87,8.63
12.72486686706543,-7.85,5.51,-3.32,10.14
12.726855039596558,-8.83,6.83,-3.57,11.72
12.727994918823242,-9.58,8.99,-3.66,13.63
12.72908902168274,-10.03,10.76,-3.69,15.16
12.730195999145508,-9.73,11.91,-4.2,15.94
12.731307983398438,-9.06,12.15,-5.43,16.09
12.732152938842773,-7.87,11.42,-6.78,15.43
12.733263969421387,-7.5,10.43,-7.88,15.07
12.774166107177734,-7.8,9.24,-5.55,13.3
12.775207996368408,-7.97,8.76,-1.94,12.0
12.775899887084961,-6.48,10.02,-0.15,11.93
12.77794098854065,-4.11,10.89,0.41,11.64
12.779036045074463,-2.27,7.32,-0.41,7.67
12.779707908630371,-1.57,1.26,-2.45,3.17
12.796463012695312,0.25,-1.04,-2.78,2.97
12.79719591140747,5.2,0.59,-1.18,5.36
12.813425064086914,8.91,2.07,-0.36,9.15
12.81421709060669,6.55,1.32,-2.64,7.18
12.870694160461426,0.52,0.45,-2.68,2.76
12.87157392501831,-3.75,-1.04,-1.19,4.06
12.872254848480225,-5.88,-3.61,-0.1,6.9
12.879386901855469,-5.87,-5.88,1.28,8.4
12.880145072937012,-4.37,-6.77,2.4,8.4
12.896729946136475,-2.61,-6.72,2.37,7.58
12.897562980651855,-1.24,-7.16,1.6,7.44
12.913480997085571,-0.6,-7.83,1.06,7.92
12.914332866668701,-0.38,-7.54,-0.03,7.54
12.930042028427124,-0.76,-7.03,-1.18,7.16
12.931036949157715,-1.44,-7.28,-1.56,7.58
12.99241304397583,-1.94,-7.64,-1.33,7.99
12.993245124816895,-2.16,-8.02,-1.28,8.4
12.993927955627441,-2.03,-8.24,-1.26,8.57
13.014219999313354,-1.8,-8.47,-1.18,8.73
13.01496410369873,-1.78,-8.78,-1.01,9.01
13.030027866363525,-1.97,-9.26,-0.61,9.48
13.030828952789307,-2.13,-9.96,-0.05,10.18
13.046911001205444,-1.93,-10.62,0.47,10.8
13.04771900177002,-1.37,-11.11,0.8,11.22
13.062932014465332,-0.64,-11.46,1.08,11.52
13.109169006347656,-0.05,-11.48,1.3,11.55
13.110169887542725,0.15,-10.95,1.28,11.02
13.110870838165283,0.32,-9.87,1.1,9.93
13.130878925323486,1.19,-8.76,0.49,8.85
13.131646156311035,2.98,-7.83,-0.22,8.38
13.147222995758057,4.85,-6.42,0.53,8.06
13.14808201789856,5.99,-4.53,1.91,7.74
13.163661003112793,6.99,-2.47,2.11,7.7
13.16449499130249,7.74,-0.14,1.89,7.96
13.179533958435059,7.89,2.85,1.81,8.58
13.226784944534302,7.78,6.29,1.66,10.14
13.227788925170898,8.11,8.97,1.28,12.16
13.228487968444824,9.08,10.13,0.77,13.62
13.247639179229736,10.43,11.07,0.14,15.21
13.2484130859375,11.26,10.93,-1.3,15.74
13.26385498046875,11.12,9.74,-3.15,15.11
13.264688968658447,10.05,9.54,-3.16,14.21
13.280366897583008,8.01,9.34,-1.23,12.36
13.28122091293335,5.13,10.07,0.09,11.3
13.295671939849854,0.83,7.12,-1.64,7.35
13.341614961624146,-9.0,3.05,-6.26,11.37
13.342756032943726,-24.54,5.57,-9.77,26.99
13.343482971191406,-24.24,16.09,-0.04,29.09
13.364201068878174,-6.77,12.46,7.78,16.17
13.364943027496338,1.42,2.82,5.2,6.08
13.380496978759766,7.25,-1.84,7.04,10.27
13.381339073181152,11.18,-2.5,8.97,14.55
13.397183895111084,9.59,-0.21,6.67,11.68
13.398212909698486,5.6,-0.34,1.31,5.76
13.412706851959229,3.54,-0.77,-3.35,4.93
13.460063934326172,2.76,0.44,-4.84,5.58
13.461053848266602,3.61,0.96,-4.3,5.69
13.461790084838867,4.61,0.12,-4.78,6.64
13.48091983795166,5.02,-0.25,-5.03,7.11
13.481657028198242,5.14,-0.03,-3.64,6.29
13.49710202217102,4.4,0.31,-0.94,4.5
13.497926950454712,2.41,0.4,2.01,3.16
13.513574123382568,0.26,0.17,3.75,3.76
13.514384984970093,-1.14,0.16,3.65,3.82
13.529422998428345,-1.73,0.28,2.71,3.22
13.577293872833252,-2.07,0.03,2.28,3.07
13.578393936157227,-1.78,-0.74,1.89,2.69
13.579100131988525,-0.39,-1.11,0.66,1.34
13.597540855407715,1.21,-0.95,-1.0,1.83
13.598307132720947,2.36,-0.23,-1.97,3.08
13.614076137542725,2.93,0.48,-1.91,3.53
13.614913940429688,2.53,0.69,-1.35,2.94
13.630261898040771,1.33,0.64,-0.67,1.62
13.631219863891602,0.03,0.4,-0.09,0.41
13.646603107452393,-1.19,0.0,0.41,1.25
13.694322109222412,-2.25,-0.2,0.55,2.32
13.695909023284912,-2.78,-0.16,0.35,2.8
13.696606159210205,-2.39,0.04,-0.15,2.39
13.714247941970825,-1.32,0.34,-0.47,1.44
13.715008020401001,-0.37,0.49,-0.8,1.0
13.727309942245483,-0.18,0.34,-1.1,1.16
13.72815990447998,-0.9,-0.08,-1.33,1.6
13.747437000274658,-1.95,-0.57,-1.48,2.51
13.748268127441406,-2.71,-0.77,-1.41,3.15
13.76270604133606,-2.88,-0.49,-1.26,3.18
13.810565948486328,-2.47,0.02,-1.51,2.89
13.811568975448608,-1.83,0.34,-1.7,2.52
13.812304973602295,-1.21,0.36,-1.62,2.05
13.831180095672607,-0.79,0.25,-1.51,1.72
13.831931114196777,-0.71,0.22,-1.25,1.45
13.847350120544434,-0.75,0.36,-0.87,1.2
13.848175048828125,-0.76,0.58,-0.48,1.06
13.863741874694824,-0.94,0.65,-0.34,1.19
13.864568948745728,-1.23,0.47,-0.41,1.37
13.87965703010559,-1.51,0.42,-0.58,1.67
13.880656003952026,-1.75,0.48,-0.7,1.94
13.944463014602661,-1.85,0.65,-0.83,2.12
13.94529914855957,-1.95,1.05,-0.9,2.39
13.945986032485962,-1.88,1.54,-1.03,2.63
13.964674949645996,-1.8,2.22,-0.9,2.99
13.965420961380005,-2.35,2.93,-0.95,3.87
13.980584144592285,-3.32,3.44,-1.28,4.94
13.981420993804932,-3.8,3.47,-1.09,5.26
13.99723196029663,-4.45,3.51,-1.31,5.81
13.998083114624023,-5.41,4.33,-1.86,7.17
14.013030052185059,-6.38,5.57,-2.29,8.77
14.059895038604736,-7.22,6.76,-3.02,10.34
14.06093692779541,-8.11,8.33,-3.61,12.17
14.061630964279175,-9.03,9.98,-3.58,13.92
14.081337928771973,-9.8,10.77,-4.31,15.18
14.082113027572632,-10.51,10.49,-5.25,15.75
14.094440937042236,-10.66,10.09,-5.1,15.53
14.095272064208984,-10.1,9.56,-5.65,15.01
14.114022016525269,-9.66,7.87,-5.68,13.69
14.114879131317139,-8.72,6.69,-3.24,11.45
14.129686832427979,-6.63,7.54,-1.29,10.12
14.177867889404297,-3.67,9.37,-1.14,10.12
14.178814888000488,-1.36,9.62,-0.98,9.76
14.17952585220337,-0.51,5.79,-1.9,6.11
14.198101997375488,-0.54,0.18,-3.29,3.33
14.198860168457031,0.82,-2.11,-3.38,4.06
14.214180946350098,4.67,-0.86,-1.97,5.14
14.215021133422852,7.48,0.52,-1.21,7.59
14.229373931884766,6.28,0.48,-2.96,6.95
14.230252027511597,1.33,-0.49,-3.37,3.65
14.246814012527466,-2.41,-2.2,-2.21,3.94
14.296831130981445,-4.59,-4.79,-1.22,6.74
14.297762870788574,-5.39,-6.81,-0.13,8.68
14.298436164855957,-4.94,-7.56,1.03,9.08
14.314722061157227,-3.87,-7.29,1.59,8.4
14.315490007400513,-2.78,-7.02,1.35,7.67
14.330933094024658,-1.84,-6.9,0.92,7.2
14.331765174865723,-1.21,-6.54,0.5,6.66
14.347584962844849,-1.33,-6.22,0.06,6.36
14.348394870758057,-2.07,-6.15,-0.24,6.49
14.36324691772461,-2.85,-6.31,-0.37,6.93
14.41060495376587,-3.2,-6.64,-0.53,7.38
14.411561965942383,-3.24,-6.87,-0.68,7.62
14.41225290298462,-3.1,-6.98,-0.53,7.65
14.431293964385986,-2.65,-7.11,-0.22,7.59
14.432016849517822,-2.02,-7.45,-0.05,7.71
14.447585105895996,-1.3,-7.94,-0.12,8.04
14.448446035385132,-0.61,-8.52,0.12,8.54
14.464137077331543,-0.07,-8.88,0.05,8.88
14.46491003036499,0.31,-8.88,-0.2,8.88
14.479907035827637,0.62,-8.44,-0.24,8.46
14.52803897857666,1.18,-7.63,-0.2,7.72
14.529070854187012,1.89,-6.85,-0.77,7.14
14.529782056808472,2.98,-6.35,-1.53,7.17
14.548272132873535,4.39,-5.41,-0.29,6.97
14.549056053161621,4.81,-3.9,1.91,6.48
14.564363956451416,4.92,-2.21,2.28,5.85
14.565212965011597,5.5,-0.27,1.65,5.74
14.58118486404419,6.03,2.01,1.32,6.49
14.582010984420776,6.39,4.8,1.14,8.07
14.59623098373413,7.15,7.79,1.16,10.63
14.644020080566406,8.77,9.89,0.49,13.22
14.644989967346191,10.75,9.85,-0.41,14.58
14.645671844482422,12.04,7.97,-0.62,14.45
14.664492130279541,12.08,5.8,-0.61,13.41
14.665256023406982,11.3,4.52,-0.51,12.18
14.681156158447266,10.68,4.09,0.14,11.43
14.681997060775757,9.5,5.06,1.06,10.81
14.695883989334106,5.68,7.77,0.84,9.66
14.696745872497559,-1.28,6.5,-2.34,7.02
14.713451862335205,-16.58,6.9,-7.16,19.33
14.761660099029541,-33.54,16.61,-6.33,37.95
14.76268196105957,-15.79,19.48,7.64,26.21
14.763399124145508,0.53,3.66,6.38,7.37
14.781639099121094,4.77,-1.34,3.51,6.07
14.782389163970947,8.66,-0.21,6.13,10.61
14.797439098358154,9.48,0.53,6.23,11.35
14.79823899269104,5.94,0.14,1.29,6.08
14.814423084259033,4.5,-2.37,-2.83,5.82
14.81529712677002,4.68,-2.62,-5.39,7.6
14.830234050750732,5.76,-0.79,-5.53,8.02
14.831372022628784,7.13,0.04,-4.77,8.57
14.894904136657715,6.94,0.2,-3.97,7.99
14.895751953125,5.29,0.71,-2.54,5.91
14.896414041519165,3.03,1.24,-0.18,3.27
14.91559100151062,0.48,1.35,2.38,2.77
14.91637396812439,-1.46,0.77,3.51,3.87
14.92819595336914,-2.32,-0.26,3.05,3.84
14.929049968719482,-2.39,-0.87,2.19,3.35
14.947691917419434,-1.54,-0.91,1.25,2.18
14.94848895072937,-0.34,-0.73,0.4,0.89
14.96350908279419,0.69,-0.44,-0.84,1.17
15.011582851409912,1.62,-0.27,-1.95,2.54
15.012517929077148,2.54,-0.44,-2.03,3.28
15.013169050216675,2.75,-0.37,-1.17,3.01
15.031540870666504,1.88,-0.14,0.05,1.88
15.032318115234375,0.61,0.22,0.69,0.94
15.047863006591797,-0.15,0.62,1.18,1.34
15.048683166503906,-1.03,0.47,1.11,1.58
15.064439058303833,-1.92,0.14,0.19,1.93
15.065255165100098,-1.68,-0.1,-0.44,1.73
15.080236911773682,-0.72,-0.16,-0.77,1.06
15.129169940948486,0.29,0.0,-0.95,0.99
15.130161046981812,0.73,0.12,-0.75,1.05
15.130853176116943,0.61,0.24,-0.44,0.78
15.148563861846924,0.24,0.35,-0.25,0.49
15.149371147155762,-0.4,0.28,-0.41,0.63
15.164448022842407,-1.23,0.1,-0.48,1.32
15.165243148803711,-2.01,-0.14,-0.53,2.08
15.181792974472046,-2.5,-0.18,-0.88,2.65
15.182608127593994,-2.31,0.03,-1.05,2.53
15.196806907653809,-1.56,0.4,-1.29,2.06
15.246026039123535,-0.96,0.77,-1.43,1.88
15.246960163116455,-0.89,0.87,-1.29,1.79
15.247620105743408,-1.1,0.8,-1.22,1.82
15.264948844909668,-1.3,0.79,-1.13,1.89
15.265719890594482,-1.42,0.69,-0.82,1.77
15.281201839447021,-1.47,0.54,-0.77,1.74
15.282027959823608,-1.39,0.47,-0.56,1.57
15.297840118408203,-1.32,0.63,-0.69,1.61
15.298683166503906,-1.41,1.36,-0.91,2.16
15.312766075134277,-1.51,1.8,-0.57,2.41
15.362560033798218,-1.95,1.97,-0.36,2.79
15.363610982894897,-2.52,1.94,-0.42,3.2
15.364306926727295,-3.14,1.95,-0.63,3.74
15.38221001625061,-3.68,2.06,-1.0,4.33
15.382923126220703,-3.92,2.27,-1.47,4.76
15.396919012069702,-4.1,2.55,-2.08,5.25
15.397740840911865,-4.48,3.3,-2.65,6.16
15.41247296333313,-5.29,4.2,-2.91,7.35
15.41329288482666,-6.24,5.23,-3.65,8.92
15.43027114868164,-7.39,6.93,-4.32,11.01
15.47930908203125,-8.46,8.81,-4.78,13.11
15.480278015136719,-8.85,10.46,-5.03,14.59
15.48096513748169,-9.24,11.18,-6.08,15.72
15.498484134674072,-8.97,11.02,-6.6,15.66
15.499249935150146,-7.9,10.37,-6.89,14.74
15.514811038970947,-6.76,8.9,-7.4,13.4
15.515632152557373,-6.98,7.98,-5.69,12.03
15.530878067016602,-7.5,8.69,-2.34,11.71
15.53173303604126,-6.11,10.51,0.21,12.15
15.547291040420532,-4.06,11.03,0.3,11.75
15.596866130828857,-2.93,7.65,-0.97,8.24
15.59781789779663,-2.15,2.12,-1.66,3.44
15.598520994186401,-0.29,-0.97,-1.22,1.58
15.615108013153076,4.21,0.33,0.8,4.29
15.615885972976685,7.55,1.45,1.8,7.89
15.631382942199707,6.23,0.45,-0.07,6.24
15.6322340965271,0.6,-0.48,-1.17,1.39
15.648138046264648,-3.96,-1.65,0.11,4.29
15.648972988128662,-6.61,-3.88,0.88,7.71
15.663763046264648,-7.44,-5.78,1.45,9.53
15.71380090713501,-6.29,-6.7,2.16,9.44
15.714776039123535,-4.5,-6.8,2.32,8.47
15.715485095977783,-2.78,-6.57,1.56,7.3
15.732210159301758,-1.15,-6.47,0.49,6.58
15.732990980148315,-0.1,-6.19,-0.41,6.2
15.748150825500488,0.12,-5.82,-1.11,5.92
15.748985052108765,-0.28,-5.69,-1.61,5.92
15.764682054519653,-0.96,-5.78,-1.92,6.16
15.765509128570557,-1.58,-6.09,-2.01,6.6
15.780281066894531,-1.76,-6.49,-1.91,6.99
15.781291007995605,-1.52,-6.84,-1.72,7.21
15.850399017333984,-1.27,-7.15,-1.53,7.42
15.851225852966309,-1.31,-7.47,-1.25,7.68
15.851902961730957,-1.47,-7.87,-0.79,8.04
15.865221977233887,-1.45,-8.46,-0.19,8.58
15.865981101989746,-1.28,-9.09,0.42,9.18
15.882369041442871,-1.07,-9.59,0.73,9.67
15.883174896240234,-1.0,-9.82,0.95,9.91
15.89809799194336,-0.9,-9.68,1.32,9.81
15.898919105529785,-0.65,-9.14,1.62,9.3
15.913758039474487,-0.1,-8.17,1.73,8.35
15.963299989700317,0.52,-7.0,1.39,7.15
15.96434497833252,1.45,-5.95,0.56,6.14
15.965052127838135,3.33,-4.73,0.16,5.78
15.982445001602173,5.47,-2.84,1.0,6.24
15.983201026916504,7.1,-0.89,0.98,7.22
15.997867107391357,8.02,1.17,-0.59,8.12
15.998664855957031,8.32,4.03,-1.6,9.38
16.014796018600464,8.94,6.86,-1.3,11.34
16.01563310623169,10.23,8.45,-0.61,13.28
16.030456066131592,11.71,9.61,-0.65,15.16
16.082859992980957,12.58,10.0,-0.89,16.09
16.083898067474365,11.92,8.13,-0.84,14.45
16.084596157073975,10.02,7.42,-0.59,12.48
16.098866939544678,8.17,6.89,0.04,10.68
16.099629878997803,6.97,5.64,2.06,9.19
16.114748001098633,3.97,6.47,3.69,8.44
16.11555814743042,-2.51,5.93,2.48,6.9
16.131999015808105,-14.69,2.84,-1.33,15.02
16.132900953292847,-33.84,6.82,-4.27,34.78
16.147722005844116,-25.89,20.86,3.41,33.42
16.198549032211304,-1.49,14.22,7.67,16.22
16.199530124664307,7.82,2.32,3.95,9.06
16.200237035751343,10.25,0.18,6.08,11.91
16.215487003326416,9.15,-0.22,4.87,10.36
16.216243028640747,4.71,-0.76,-1.09,4.89
16.231587886810303,2.67,-2.75,-6.24,7.32
16.232444047927856,4.91,-3.75,-9.68,11.48
16.245545864105225,8.43,-0.84,-9.16,12.47
16.246378898620605,11.26,0.64,-5.72,12.64
16.264132976531982,11.51,0.09,-2.31,11.73
16.316288948059082,8.15,0.62,0.45,8.18
16.317353010177612,2.63,1.6,2.46,3.94
16.318022966384888,-2.16,1.52,4.09,4.86
16.33231210708618,-4.49,0.71,4.68,6.52
16.33307695388794,-4.37,-0.23,4.23,6.08
16.348551988601685,-3.18,-0.75,3.19,4.56
16.34934401512146,-1.61,-0.81,1.75,2.51
16.365067958831787,0.11,-0.93,-0.32,0.98
16.36590814590454,2.09,-0.9,-2.33,3.25
16.38072395324707,3.64,-0.46,-3.65,5.17
16.43393898010254,3.92,-0.04,-3.21,5.06
16.434921979904175,2.8,0.12,-1.63,3.24
16.43557095527649,1.41,0.13,-0.03,1.41
16.449252128601074,0.18,0.25,1.11,1.15
16.44997215270996,-0.92,0.32,1.42,1.72
16.46508502960205,-1.69,0.18,0.99,1.96
16.465907096862793,-2.08,0.03,-0.05,2.08
16.48148012161255,-2.02,-0.11,-0.82,2.18
16.482300996780396,-1.2,-0.01,-1.07,1.6
16.49721598625183,-0.15,0.23,-1.0,1.03
16.550078868865967,0.4,0.39,-0.88,1.04
16.551021099090576,0.18,0.43,-0.79,0.91
16.551702976226807,-0.61,0.27,-0.85,1.08
16.565616130828857,-1.64,-0.09,-0.86,1.85
16.566378116607666,-2.16,-0.31,-0.53,2.24
16.581779956817627,-2.09,-0.22,-0.32,2.12
16.582592010498047,-1.81,0.08,-0.29,1.83
16.5982608795166,-1.29,0.38,-0.63,1.48
16.599050045013428,-0.61,0.71,-0.91,1.3
16.614124059677124,-0.48,0.87,-0.91,1.34
16.66682004928589,-0.84,0.78,-1.1,1.58
16.667736053466797,-1.18,0.68,-1.18,1.8
16.66844415664673,-1.62,0.55,-1.19,2.08
16.68247103691101,-2.08,0.53,-1.36,2.54
16.683262825012207,-2.47,0.87,-1.26,2.9
16.698328971862793,-2.97,1.29,-1.07,3.41
16.699182987213135,-3.18,1.52,-0.8,3.61
16.715255975723267,-3.48,1.87,-0.97,4.06
16.71611785888672,-3.61,2.32,-1.26,4.47
16.730731964111328,-3.53,2.69,-1.49,4.68
16.731775045394897,-3.62,2.84,-1.96,5.0
16.801899909973145,-3.91,2.99,-2.32,5.44
16.802767038345337,-4.4,3.33,-2.68,6.13
16.803439140319824,-5.01,4.1,-2.99,7.13
16.815551042556763,-5.61,5.38,-3.28,8.43
16.81633710861206,-6.32,6.95,-3.56,10.04
16.83177399635315,-7.36,8.56,-3.91,11.94
16.83261203765869,-8.63,10.55,-4.62,14.39
16.84858202934265,-9.98,11.72,-6.05,16.53
16.84943389892578,-9.81,11.49,-6.58,16.47
16.86493682861328,-7.76,10.92,-6.55,14.91
16.91812515258789,-6.06,10.0,-7.11,13.68
16.91978096961975,-6.35,8.04,-5.61,11.68
16.920480012893677,-6.99,6.65,-1.5,9.76
16.932587146759033,-5.72,7.47,0.97,9.45
16.933382987976074,-3.43,8.6,0.25,9.26
16.948686122894287,-1.78,7.07,-1.89,7.53
16.949533939361572,-0.6,3.5,-2.46,4.31
16.9652738571167,2.51,2.28,-0.97,3.52
16.966157913208008,7.48,2.61,0.74,7.95
16.98033595085144,8.3,1.13,-0.23,8.37
17.035155057907104,4.07,-0.69,-1.61,4.43
17.03609299659729,-0.57,-1.75,-0.2,1.85
17.036757946014404,-3.85,-2.97,0.84,4.93
17.049299955368042,-5.39,-4.23,1.27,6.96
17.050034999847412,-4.93,-5.16,1.64,7.32
17.06514000892639,-3.56,-5.88,2.0,7.15
17.065988063812256,-2.35,-6.28,1.89,6.96
17.08249282836914,-1.51,-7.02,1.33,7.3
17.08329200744629,-1.09,-7.4,0.6,7.5
17.097759008407593,-1.21,-7.39,-0.14,7.48
17.15378189086914,-1.81,-7.61,-0.56,7.84
17.154807090759277,-2.72,-7.97,-0.7,8.45
17.155499935150146,-3.46,-8.28,-0.67,8.99
17.166139125823975,-3.76,-8.54,-0.55,9.34
17.166872024536133,-3.69,-8.69,-0.41,9.44
17.1820969581604,-3.48,-8.88,-0.29,9.54
17.182916164398193,-3.31,-9.16,-0.18,9.74
17.198312997817993,-3.25,-9.5,-0.12,10.04
17.199159145355225,-3.24,-9.85,-0.11,10.36
17.214404106140137,-3.31,-10.14,-0.16,10.66
17.26975393295288,-3.31,-10.51,-0.17,11.02
17.270673990249634,-3.07,-10.83,-0.07,11.25
17.2713680267334,-2.58,-11.06,0.31,11.36
17.280372142791748,-2.13,-10.94,0.7,11.16
17.28111982345581,-1.63,-10.47,0.92,10.63
17.298529148101807,-1.05,-9.56,1.05,9.67
17.29934310913086,-0.59,-8.25,0.58,8.29
17.31529188156128,0.14,-7.0,0.21,7.0
17.316192150115967,1.9,-5.51,0.62,5.86
17.331503868103027,3.35,-3.24,2.53,5.3
17.387789011001587,3.84,-0.38,3.29,5.07
17.38880705833435,4.32,3.22,1.63,5.62
17.38950204849243,4.2,7.31,-0.66,8.45
17.39926505088806,4.23,10.86,-1.64,11.76
17.400056838989258,5.99,12.36,-0.95,13.76
17.415570974349976,9.03,12.48,-0.91,15.43
17.416412830352783,11.74,13.19,-2.66,17.85
17.42952299118042,12.6,13.43,-4.35,18.92
17.430402040481567,10.57,11.64,-3.77,16.16
17.44803500175476,6.04,11.19,-2.03,12.87
17.50542116165161,2.61,10.92,0.44,11.23
17.506422996520996,0.0,7.83,1.78,8.02
17.50712490081787,-9.39,6.26,-2.03,11.46
17.513993978500366,-22.68,11.73,-2.92,25.7
17.51477813720703,-16.71,13.9,5.67,22.46
17.532002925872803,-2.2,2.96,6.85,7.77
17.532778024673462,4.02,-3.36,4.96,7.21
17.54896903038025,8.52,-3.31,6.93,11.47
17.54982089996338,9.69,-0.07,6.68,11.76
17.5643949508667,7.66,0.4,0.71,7.7
17.622140884399414,5.17,-0.58,-4.63,6.96
17.623097896575928,4.26,-0.26,-4.66,6.31
17.62379503250122,5.12,-1.13,-3.89,6.52
17.632128953933716,5.83,-1.59,-4.11,7.3
17.632864952087402,5.75,-0.13,-3.01,6.49
17.649272918701172,4.4,1.62,-0.28,4.69
17.650104999542236,2.11,1.65,1.64,3.14
17.665313959121704,0.05,0.54,2.08,2.14
17.666125059127808,-1.07,-0.11,2.03,2.29
17.68144202232361,-1.35,-0.41,2.16,2.57
17.682467937469482,-0.95,-0.38,1.78,2.05
17.75566005706787,0.26,-0.39,0.61,0.76
17.756496906280518,1.76,-0.69,-0.61,1.98
17.757179021835327,3.06,-0.73,-1.46,3.46
17.76314401626587,3.52,-0.4,-1.41,3.81
17.763944149017334,2.74,0.08,-0.92,2.89
17.781970977783203,1.39,0.54,-0.36,1.53
17.782724857330322,0.44,0.82,0.43,1.02
17.79902195930481,-0.07,0.66,1.05,1.24
17.799842834472656,-0.52,0.15,0.92,1.06
17.814680099487305,-0.91,-0.29,0.28,0.99
17.873281955718994,-1.08,-0.28,-0.17,1.12
17.874239921569824,-1.18,0.11,-0.41,1.25
17.87492799758911,-1.41,0.51,-0.74,1.67
17.879003047943115,-1.43,0.77,-0.82,1.81
17.879740953445435,-1.24,0.7,-0.73,1.6
17.899067878723145,-1.38,0.54,-0.5,1.56
17.899899005889893,-1.81,0.32,-0.28,1.85
17.915687084197998,-2.26,0.1,-0.44,2.3
17.9165301322937,-2.55,-0.03,-0.66,2.63
17.931164026260376,-2.62,-0.02,-0.77,2.73
17.989141941070557,-2.38,0.08,-0.96,2.56
17.990648984909058,-1.76,0.19,-1.2,2.13
17.991394996643066,-1.08,0.39,-1.36,1.77
17.996528148651123,-0.85,0.69,-1.33,1.72
17.997266054153442,-1.01,1.07,-1.01,1.78
18.01597499847412,-1.28,1.09,-0.56,1.77
18.01680302619934,-1.84,1.29,-0.39,2.28
18.03213405609131,-2.23,1.66,-0.08,2.78
18.03293800354004,-2.13,1.52,0.3,2.63
18.047745943069458,-1.9,1.27,0.11,2.28
18.105659008026123,-1.75,1.1,-0.38,2.1
18.106614112854004,-1.46,1.1,-0.83,2.0
18.107304096221924,-1.46,1.21,-1.37,2.33
18.11310386657715,-1.88,1.4,-1.82,2.96
18.11385202407837,-2.61,1.45,-2.11,3.65
18.132357120513916,-3.3,1.36,-2.21,4.19
18.133173942565918,-3.94,1.54,-2.11,4.72
18.149049997329712,-4.49,2.32,-2.19,5.5
18.149869918823242,-5.07,3.79,-2.12,6.67
18.164538860321045,-5.88,5.41,-2.15,8.27
18.22357988357544,-7.08,7.14,-2.83,10.44
18.224611043930054,-9.13,8.4,-3.64,12.92
18.225337982177734,-10.24,8.73,-3.75,13.96
18.22981309890747,-10.17,9.25,-4.09,14.34
18.249310970306396,-9.93,10.68,-5.36,15.53
18.2500581741333,-9.53,12.68,-6.81,17.26
18.265611171722412,-8.15,13.74,-6.3,17.17
18.266464948654175,-6.48,11.12,-3.93,13.45
18.28180694580078,-5.22,8.48,-2.13,10.18
18.28284502029419,-4.04,8.34,-0.67,9.29
18.357500076293945,-4.11,8.47,-1.13,9.48
18.358397006988525,-4.43,6.07,-1.95,7.76
18.35906410217285,-3.12,1.43,-1.94,3.94
18.36350703239441,-0.49,-1.44,-1.73,2.3
18.36457586288452,4.63,0.72,-0.1,4.68
18.36527395248413,8.73,2.71,0.76,9.17
18.381968021392822,7.51,2.31,-2.13,8.14
18.382678985595703,1.59,1.08,-3.57,4.05
18.399261951446533,-3.38,-0.51,-2.09,4.0
18.40006995201111,-6.32,-3.48,-0.45,7.22
18.47217297554016,-7.66,-6.14,1.17,9.88
18.47300386428833,-7.27,-7.25,2.56,10.58
18.473680019378662,-5.57,-6.9,3.12,9.4
18.481099128723145,-3.55,-6.32,2.42,7.64
18.481842041015625,-1.77,-6.41,1.36,6.78
18.49906897544861,-0.67,-6.57,0.42,6.61
18.499887943267822,-0.71,-6.67,-0.34,6.71
18.515717029571533,-1.54,-6.92,-0.72,7.12
18.51655101776123,-2.44,-7.17,-0.94,7.63
18.531255960464478,-3.0,-7.44,-1.27,8.12
18.5916428565979,-3.02,-7.66,-1.42,8.35
18.592691898345947,-2.54,-7.77,-1.28,8.27
18.593358993530273,-1.79,-7.9,-1.1,8.17
18.59579086303711,-1.04,-8.17,-1.01,8.29
18.615720987319946,-0.55,-8.67,-0.84,8.72
18.61649990081787,-0.26,-9.26,-0.64,9.28
18.63304615020752,-0.17,-9.69,-0.51,9.7
18.633912086486816,-0.16,-9.63,-0.28,9.63
18.64852285385132,0.31,-9.01,0.34,9.02
18.649435997009277,1.01,-8.15,0.44,8.22
18.664474964141846,1.69,-7.34,0.09,7.53
18.728675842285156,2.86,-6.34,0.74,6.99
18.729663848876953,3.59,-4.49,2.86,6.42
18.730341911315918,3.69,-2.13,3.58,5.56
18.74693202972412,4.48,0.5,2.35,5.08
18.747716903686523,5.45,3.41,1.13,6.52
18.765889167785645,6.22,6.92,0.47,9.31
18.766860008239746,7.53,10.48,-0.35,12.9
18.77995204925537,9.97,13.12,-1.53,16.54
18.780795097351074,12.76,12.46,-2.68,18.03
18.79833984375,14.3,9.57,-3.89,17.64
18.861589908599854,13.74,7.49,-3.63,16.06
18.86268186569214,11.78,6.11,-2.36,13.47
18.863390922546387,10.25,4.93,-0.95,11.41
18.883246898651123,8.85,5.45,1.0,10.44
18.88402795791626,5.63,6.96,2.43,9.27
18.89939594268799,-0.22,5.2,2.65,5.84
18.90024495124817,-10.01,3.9,-0.47,10.75
18.91617488861084,-25.79,5.96,-3.04,26.64
18.91708517074585,-27.74,14.65,2.6,31.47
18.93212890625,-3.03,10.47,7.57,13.27
18.99496102333069,7.44,-0.22,1.22,7.54
18.99592900276184,10.71,-1.9,2.88,11.25
18.996669054031372,12.99,1.89,6.99,14.87
19.017037868499756,11.06,1.49,2.37,11.4
19.017818927764893,5.92,-1.63,-5.14,8.0
19.03268003463745,3.51,-2.36,-7.77,8.84
19.03355312347412,4.64,-2.19,-6.25,8.08
19.049768924713135,6.29,-1.54,-3.27,7.25
19.050605058670044,6.31,0.28,0.31,6.32
19.065145015716553,3.44,2.2,2.19,4.63
19.128461837768555,-0.37,1.81,3.0,3.52
19.129515171051025,-2.2,0.31,3.1,3.81
19.130192041397095,-1.91,-0.66,2.53,3.23
19.149842023849487,-0.66,-0.76,1.14,1.52
19.15056800842285,1.13,-0.28,-0.6,1.3
19.16650104522705,2.9,0.08,-1.76,3.39
19.16739797592163,3.59,0.07,-2.4,4.31
19.183154106140137,2.8,0.03,-2.54,3.78
19.183988094329834,1.66,-0.15,-1.8,2.45
19.198634147644043,0.56,-0.28,-0.59,0.86
19.263200998306274,-0.41,-0.04,0.59,0.71
19.264298915863037,-0.85,0.19,1.06,1.37
19.264974117279053,-0.66,0.34,0.69,1.01
19.283812999725342,-0.44,0.27,0.24,0.56
19.28460693359375,-0.64,0.17,0.05,0.66
19.299540996551514,-0.83,0.21,-0.35,0.92
19.300400018692017,-0.75,0.28,-0.52,0.95
19.313547134399414,-0.62,0.27,-0.39,0.78
19.31432795524597,-0.58,0.27,-0.39,0.74
19.331897020339966,-0.72,0.41,-0.46,0.94
19.397436141967773,-1.05,0.65,-0.39,1.29
19.398385047912598,-1.36,0.78,-0.3,1.59
19.399033069610596,-1.54,0.7,-0.24,1.7
19.4168438911438,-1.75,0.37,-0.36,1.82
19.417628049850464,-2.04,0.02,-0.64,2.13
19.432816982269287,-2.26,-0.2,-0.84,2.41
19.43358302116394,-2.14,-0.04,-0.88,2.31
19.44984006881714,-1.81,0.46,-1.15,2.19
19.450684070587158,-1.41,0.74,-1.65,2.29
19.46542501449585,-0.93,1.16,-1.7,2.25
19.53065586090088,-0.57,1.36,-1.18,1.88
19.531697034835815,-0.77,1.52,-0.9,1.92
19.53239917755127,-1.36,1.54,-0.63,2.14
19.550482034683228,-2.08,1.4,-0.35,2.53
19.551252841949463,-2.91,1.41,-0.36,3.25
19.566385984420776,-3.76,1.62,-0.59,4.13
19.567336082458496,-4.27,1.87,-1.03,4.77
19.583379983901978,-4.56,2.29,-1.65,5.36
19.58422088623047,-4.76,2.92,-2.2,6.0
19.598660945892334,-5.1,3.7,-2.79,6.89
19.664347171783447,-5.82,4.18,-3.27,7.87
19.66543197631836,-6.66,4.32,-3.57,8.7
19.66619110107422,-7.44,4.88,-3.64,9.61
19.684167861938477,-8.22,6.31,-3.51,10.94
19.684929847717285,-8.9,8.58,-4.58,13.18
19.699739933013916,-9.83,11.48,-5.51,16.08
19.70061492919922,-9.91,13.25,-5.99,17.59
19.716619968414307,-8.39,12.6,-7.8,17.02
19.717468976974487,-7.55,11.41,-9.54,16.67
19.73220705986023,-7.45,10.56,-7.54,14.96
19.733258962631226,-6.76,10.14,-3.18,12.59
19.81658101081848,-5.27,10.67,-0.14,11.9
19.81740093231201,-4.58,10.03,-0.62,11.04
19.818087100982666,-4.22,6.46,-1.92,7.95
19.834635972976685,-2.54,1.23,-2.28,3.62
19.835404872894287,0.37,-2.01,-2.38,3.13
19.849853038787842,5.83,-0.38,-0.88,5.9
19.850697994232178,9.44,1.41,-0.01,9.54
19.866346836090088,7.55,0.75,-1.89,7.81
19.86718201637268,1.17,-0.77,-2.57,2.92
19.8823881149292,-4.36,-1.84,-0.65,4.77
19.948657989501953,-7.82,-3.58,1.43,8.71
19.949659824371338,-8.81,-5.28,3.17,10.74
19.95035409927368,-7.28,-5.88,4.35,10.31
19.967474937438965,-4.96,-5.75,3.91,8.54
19.96832299232483,-2.83,-5.79,2.46,6.89
19.98366689682007,-1.13,-6.31,1.52,6.58
19.984517097473145,-0.29,-6.34,0.2,6.34
19.999969959259033,-0.19,-5.68,-1.04,5.77
20.000825881958008,-0.72,-5.39,-1.67,5.68
20.015780925750732,-1.18,-5.55,-1.93,5.99
20.082039833068848,-1.62,-6.0,-1.94,6.51
20.08376693725586,-1.73,-6.47,-1.66,6.89
20.084481954574585,-1.35,-6.99,-1.18,7.21
20.1004900932312,-0.87,-7.56,-0.68,7.64
20.101258039474487,-0.69,-8.12,-0.32,8.15
20.11659002304077,-0.97,-8.82,0.12,8.87
20.11742115020752,-1.57,-9.58,0.95,9.75
20.13321304321289,-2.1,-10.09,1.77,10.45
20.13404607772827,-2.34,-10.21,2.49,10.76
20.1492018699646,-2.3,-9.83,3.06,10.54
20.216948986053467,-1.83,-9.07,3.26,9.81
20.21791696548462,-1.17,-8.3,2.64,8.78
20.2185959815979,0.27,-7.66,1.88,7.89
20.2338650226593,2.47,-6.76,1.78,7.41
20.23461604118347,4.38,-5.49,1.63,7.2
20.250298976898193,6.05,-3.94,0.54,7.24
20.25113296508789,7.82,-1.89,-0.2,8.04
20.266615867614746,9.45,0.57,0.26,9.47
20.267467975616455,10.45,3.37,1.1,11.03
20.282824993133545,10.74,6.63,1.92,12.76
20.350850105285645,10.53,9.39,2.51,14.33
20.35178804397583,10.29,10.5,2.46,14.9
20.352473974227905,10.55,11.11,2.15,15.47
20.367584943771362,10.76,10.03,1.7,14.8
20.3683500289917,10.4,6.48,1.25,12.31
20.383519172668457,10.24,4.78,1.51,11.4
20.384400844573975,9.8,5.37,1.22,11.24
20.400392055511475,6.95,8.4,-1.2,10.96
20.401216983795166,-1.7,7.06,-7.45,10.4
20.41587996482849,-21.32,9.61,-13.97,27.24
20.483724117279053,-33.7,22.67,-8.11,41.41
20.484766960144043,-10.69,16.1,8.2,20.99
20.48550510406494,2.52,-2.19,4.93,5.95
20.500900983810425,6.41,-1.98,4.51,8.08
20.501662015914917,10.72,3.27,8.23,13.9
20.516995906829834,9.61,4.19,4.75,11.5
20.517828941345215,6.26,-0.33,-0.97,6.34
20.533216953277588,5.18,-3.1,-2.86,6.67
20.53403091430664,4.99,-3.1,-2.53,6.39
20.549323081970215,5.4,-2.2,-3.76,6.93
20.61825203895569,5.67,-0.61,-4.11,7.02
20.619313955307007,5.06,1.04,-1.94,5.51
20.62003183364868,3.75,1.86,0.18,4.18
20.634128093719482,1.92,1.07,1.18,2.49
20.63485598564148,0.22,0.07,2.15,2.16
20.65046787261963,-0.51,-0.25,2.46,2.52
20.6512770652771,-0.61,-0.32,1.87,1.99
20.667377948760986,-0.65,-0.26,0.84,1.09
20.66815185546875,-0.14,-0.2,-0.05,0.24
20.679589986801147,0.55,-0.38,-0.41,0.78
20.74932599067688,1.22,-0.69,-1.01,1.72
20.75031304359436,1.73,-0.82,-1.67,2.54
20.751023054122925,1.86,-0.56,-1.69,2.57
20.76503086090088,1.4,0.07,-0.98,1.71
20.76582384109497,0.62,0.59,-0.11,0.86
20.7839298248291,-0.25,0.69,0.13,0.74
20.784793853759766,-1.09,0.44,0.03,1.17
20.800395011901855,-1.81,0.15,-0.2,1.82
20.80126714706421,-1.97,-0.01,-0.29,1.99
20.816221952438354,-1.78,0.01,-0.59,1.87
20.81729507446289,-1.43,0.21,-0.82,1.66
20.905094146728516,-1.05,0.38,-0.69,1.31
20.905925035476685,-0.82,0.57,-0.55,1.14
20.906649112701416,-0.8,0.59,-0.49,1.1
20.917903900146484,-0.99,0.35,-0.52,1.17
20.918703079223633,-1.2,-0.02,-0.45,1.28
20.933948040008545,-1.32,-0.25,-0.37,1.39
20.934802055358887,-1.51,-0.11,-0.45,1.57
20.950276851654053,-1.74,0.29,-0.87,1.96
20.95114302635193,-1.83,0.64,-1.18,2.26
20.96573305130005,-1.87,0.64,-1.53,2.49
21.03596305847168,-1.78,0.61,-2.0,2.74
21.036921977996826,-1.51,0.67,-1.89,2.51
21.037642002105713,-1.54,0.74,-1.54,2.3
21.051049947738647,-1.98,0.82,-0.94,2.34
21.051866054534912,-2.52,0.93,-0.63,2.75
21.065443992614746,-2.91,1.55,-0.78,3.38
21.06633186340332,-3.0,1.89,-0.62,3.59
21.0814151763916,-3.12,1.82,-0.82,3.7
21.082261085510254,-3.44,2.0,-1.27,4.17
21.09960699081421,-3.82,2.47,-1.76,4.87
21.17038106918335,-4.21,2.98,-2.2,5.6
21.171873092651367,-4.53,3.36,-2.35,6.11
21.172610998153687,-4.92,4.1,-2.5,6.87
21.184176921844482,-5.59,5.39,-2.57,8.17
21.184975147247314,-6.48,6.94,-2.97,9.94
21.20027995109558,-8.08,8.92,-3.73,12.6
21.201233863830566,-10.08,10.74,-3.9,15.23
21.217141151428223,-10.85,11.26,-3.66,16.05
21.218038082122803,-10.21,10.69,-3.86,15.27
21.23321294784546,-9.38,10.16,-5.19,14.76
21.304533004760742,-8.9,9.91,-6.84,14.97
21.30545711517334,-7.58,9.77,-5.33,13.46
21.306161880493164,-5.07,8.87,-2.18,10.44
21.3179030418396,-2.67,8.68,-1.03,9.13
21.31868004798889,-1.98,8.74,-0.76,8.99
21.331037044525146,-2.72,6.46,-1.44,7.15
21.33183193206787,-2.99,3.22,-1.91,4.79
21.350736141204834,-1.98,-0.08,-2.04,2.84
21.351594924926758,1.53,-0.04,-1.14,1.9
21.3661630153656,5.27,0.96,-0.1,5.35
21.435749053955078,6.27,1.17,-1.29,6.5
21.43671703338623,3.19,0.37,-2.73,4.21
21.437440872192383,-1.89,-1.22,-1.93,2.96
21.45163106918335,-5.51,-3.33,0.23,6.44
21.452425003051758,-7.36,-5.78,2.13,9.59
21.466978073120117,-7.54,-7.24,2.92,10.85
21.467823028564453,-6.23,-7.21,3.4,10.11
21.48406195640564,-4.22,-6.54,3.47,8.52
21.484922885894775,-2.18,-6.43,2.53,7.24
21.49989104270935,-0.79,-6.53,0.97,6.64
21.57105803489685,-0.42,-6.82,-0.26,6.83
21.572054862976074,-0.81,-7.27,-0.95,7.37
21.572760105133057,-1.46,-7.73,-1.42,7.99
21.584789991378784,-1.93,-8.12,-1.84,8.54
21.58555793762207,-1.99,-8.52,-2.13,9.0
21.600605964660645,-1.85,-8.89,-2.09,9.31
21.601484060287476,-1.6,-9.16,-1.69,9.45
21.617269039154053,-1.24,-9.41,-1.09,9.55
21.618101119995117,-0.9,-9.55,-0.57,9.6
21.632830142974854,-0.62,-9.56,-0.22,9.58
21.702322959899902,-0.13,-9.63,0.19,9.63
21.703909873962402,0.53,-9.76,0.72,9.8
21.704647064208984,0.91,-9.79,0.89,9.87
21.718154907226562,0.95,-9.49,0.58,9.55
21.718925952911377,1.05,-8.36,0.54,8.44
21.733716011047363,1.76,-6.56,0.06,6.79
21.734568119049072,3.05,-4.78,-1.3,5.81
21.750842094421387,5.18,-2.96,-1.62,6.18
21.751683950424194,6.71,-0.91,-0.16,6.77
21.766226053237915,7.17,1.39,0.12,7.3
21.835765838623047,7.68,4.34,-0.37,8.82
21.836742877960205,8.24,7.9,-0.79,11.44
21.837424993515015,8.87,11.03,-0.8,14.17
21.85150909423828,9.85,11.18,-0.08,14.9
21.852280139923096,11.0,9.35,0.62,14.45
21.867539882659912,11.66,7.44,0.66,13.84
21.868359088897705,11.42,5.46,0.53,12.66
21.88440990447998,10.6,4.14,0.98,11.42
21.885324001312256,8.91,5.24,1.47,10.44
21.89759111404419,5.34,8.59,0.97,10.16
21.89867115020752,-1.99,7.71,-2.66,8.39
21.98904514312744,-19.46,12.57,-8.14,24.55
21.989924907684326,-35.7,27.44,-5.5,45.36
21.990615844726562,-14.09,19.32,6.07,24.67
22.00190496444702,2.97,-3.5,3.21,5.6
22.0026798248291,6.91,-5.0,3.16,9.09
22.01743984222412,11.44,-1.09,5.44,12.71
22.01824712753296,13.2,-1.63,5.36,14.33
22.03418803215027,8.71,-2.56,0.84,9.11
22.0350341796875,5.74,-1.88,-1.8,6.3
22.04974889755249,4.71,-0.75,-2.83,5.54
22.119659900665283,4.26,-0.22,-1.49,4.51
22.12067985534668,3.84,0.24,-0.28,3.85
22.12140703201294,2.52,1.0,0.15,2.71
22.13503885269165,0.63,1.04,1.2,1.7
22.135812997817993,-0.42,0.48,1.8,1.9
22.15081787109375,-0.6,-0.07,0.93,1.1
22.15169405937195,-0.35,-0.59,-0.03,0.68
22.164643049240112,0.47,-0.91,-0.44,1.11
22.16548490524292,1.66,-0.5,-1.17,2.09
22.18337106704712,2.51,-0.15,-2.0,3.21
22.25420904159546,2.68,-0.23,-1.97,3.33
22.255929946899414,2.08,-0.21,-1.22,2.42
22.256615161895752,0.74,-0.04,-0.24,0.77
22.268079042434692,-0.57,0.29,0.23,0.67
22.26886296272278,-0.99,0.53,0.7,1.32
22.284273147583008,-0.88,0.27,0.76,1.19
22.285130977630615,-0.41,-0.04,0.49,0.64
22.30087184906006,0.05,-0.01,0.16,0.16
22.301687955856323,0.41,0.08,-0.13,0.43
22.31693410873413,0.69,0.0,-0.31,0.75
22.38744592666626,0.71,-0.06,-0.25,0.75
22.388341903686523,0.37,-0.07,-0.03,0.37
22.389086961746216,-0.01,-0.18,0.03,0.18
22.401925086975098,-0.13,-0.3,0.08,0.33
22.402695178985596,-0.09,-0.18,0.1,0.22
22.41759705543518,-0.02,0.0,-0.1,0.1
22.41841983795166,0.13,0.25,-0.18,0.33
22.43441104888916,0.05,0.61,-0.02,0.61
22.435256004333496,-0.67,0.83,-0.2,1.08
22.450037002563477,-1.69,0.61,-0.19,1.8
22.5210280418396,-2.47,0.27,0.05,2.48
22.521972179412842,-3.13,0.33,-0.15,3.15
22.52266216278076,-3.32,0.66,-0.94,3.51
22.535109996795654,-2.67,0.93,-1.5,3.2
22.5359148979187,-2.03,0.86,-1.91,2.91
22.55125904083252,-1.81,0.64,-2.08,2.83
22.552154064178467,-1.85,0.41,-1.87,2.66
22.56818699836731,-2.07,0.5,-1.27,2.47
22.569118976593018,-2.49,0.81,-0.89,2.76
22.583548069000244,-2.96,1.18,-0.57,3.23
22.65270495414734,-3.3,1.56,-0.4,3.67
22.65383291244507,-3.63,1.91,-0.62,4.14
22.65452814102173,-4.02,2.33,-0.88,4.72
22.665206909179688,-4.59,2.74,-1.48,5.54
22.665992975234985,-5.43,3.26,-2.26,6.72
22.684956073760986,-6.25,3.87,-2.78,7.85
22.6858229637146,-7.03,4.85,-3.31,9.15
22.701079845428467,-7.78,6.24,-3.65,10.62
22.70202112197876,-7.98,8.11,-3.97,12.05
22.716865062713623,-8.68,11.01,-4.04,14.59
22.785871982574463,-10.31,13.01,-4.46,17.18
22.78754997253418,-9.97,12.28,-4.45,16.43
22.788262844085693,-8.55,10.39,-5.26,14.44
22.80194091796875,-7.68,9.57,-6.19,13.74
22.80274486541748,-6.12,10.24,-5.33,13.06
22.817861080169678,-3.38,11.44,-3.03,12.3
22.81871509552002,-1.35,12.32,-1.92,12.54
22.834472179412842,-1.87,11.06,-1.86,11.37
22.835318088531494,-2.84,5.86,-2.54,6.98
22.85039496421814,-2.28,0.28,-2.75,3.58
22.92107391357422,-0.76,-2.64,-1.55,3.15
22.922082901000977,2.67,-1.19,0.98,3.08
22.922799110412598,4.11,1.14,1.61,4.55
22.935264110565186,1.78,2.04,-1.52,3.1
22.936017990112305,-3.09,1.97,-3.02,4.74
22.95133113861084,-6.56,0.65,-1.52,6.76
22.952166080474854,-7.25,-1.98,0.24,7.51
22.96789312362671,-6.06,-3.56,2.47,7.44
22.96874499320984,-4.27,-4.69,4.46,7.75
22.983543872833252,-2.88,-5.61,4.69,7.85
22.98456597328186,-2.16,-5.55,2.65,6.51
23.071165084838867,-1.89,-5.21,0.74,5.59
23.072011947631836,-1.57,-5.4,-0.39,5.63
23.072679042816162,-1.62,-5.3,-0.82,5.6
23.08562183380127,-1.63,-5.22,-2.25,5.91
23.086379051208496,-1.5,-5.55,-2.7,6.35
23.101133823394775,-1.33,-6.21,-2.43,6.79
23.102023124694824,-0.94,-6.87,-2.18,7.26
23.118024826049805,-0.8,-7.35,-1.97,7.65
23.118839979171753,-0.72,-7.81,-1.62,8.0
23.13355302810669,-0.7,-8.37,-1.02,8.46
23.20279884338379,-0.71,-9.08,-0.61,9.12
23.203814029693604,-0.7,-9.95,-0.32,9.97
23.204530954360962,-0.59,-10.72,-0.04,10.73
23.21891212463379,-0.61,-11.17,0.41,11.19
23.21970796585083,-0.75,-10.96,0.83,11.01
23.23433494567871,-0.41,-10.04,1.21,10.12
23.235183000564575,0.18,-8.8,1.12,8.87
23.251559019088745,0.82,-7.55,0.25,7.59
23.252410888671875,2.39,-6.64,-0.66,7.08
23.267019987106323,4.34,-5.0,0.04,6.62
23.336740970611572,5.64,-2.79,1.2,6.4
23.337789058685303,7.45,-0.85,0.63,7.52
23.33847999572754,8.8,1.12,-0.05,8.87
23.352088928222656,9.05,3.9,-0.28,9.85
23.352890968322754,9.75,7.0,-0.25,12.0
23.368127822875977,11.67,8.96,-0.65,14.72
23.36898899078369,13.39,9.13,-1.28,16.25
23.384891033172607,13.8,9.09,-1.92,16.63
23.385756015777588,13.47,8.35,-2.85,16.1
23.398782968521118,13.37,7.03,-2.92,15.38
23.468634128570557,12.24,6.91,-1.63,14.15
23.469696044921875,7.48,10.04,0.09,12.52
23.47042202949524,-3.45,10.78,-0.82,11.34
23.48577308654785,-26.59,20.62,-4.89,34.0
23.486557006835938,-39.27,33.18,-1.39,51.42
23.501342058181763,-10.68,10.37,10.2,18.04
23.502163887023926,6.68,-10.79,8.01,15.0
23.51832389831543,11.04,-6.93,7.45,15.01
23.519189834594727,15.18,-4.14,8.97,18.11
23.53382682800293,13.5,-3.03,6.84,15.43
23.603930950164795,6.63,-1.94,-1.47,7.06
23.604928016662598,3.47,-1.44,-7.67,8.54
23.60565710067749,3.8,-0.15,-8.25,9.08
23.61885905265808,5.3,0.67,-4.58,7.03
23.619646072387695,5.21,0.33,-3.32,6.18
23.634818077087402,2.87,0.98,-2.17,3.72
23.6356258392334,0.83,1.35,0.44,1.64
23.6503849029541,0.08,0.82,2.31,2.45
23.65117883682251,-0.6,-0.04,2.07,2.15
23.665719032287598,-0.66,-0.95,1.5,1.89
23.734827995300293,0.45,-1.34,0.78,1.61
23.7358341217041,2.07,-0.99,-0.15,2.29
23.736572980880737,3.28,-0.19,-1.08,3.45
23.749832153320312,3.25,0.48,-1.5,3.61
23.750627040863037,2.48,0.55,-1.0,2.73
23.765108108520508,1.15,0.57,-0.05,1.28
23.7658748626709,-0.02,0.29,0.46,0.54
23.782328128814697,-0.58,-0.25,0.12,0.64
23.783132076263428,-0.25,-0.62,-0.19,0.69
23.798439025878906,0.51,-0.49,-0.09,0.71
23.866859912872314,0.89,-0.11,0.15,0.9
23.867884159088135,0.82,0.11,0.24,0.86
23.868578910827637,0.35,0.23,0.31,0.52
23.882369995117188,-0.43,0.28,0.25,0.57
23.883100986480713,-0.98,0.34,0.09,1.04
23.898645877838135,-1.07,0.4,-0.15,1.15
23.89944887161255,-0.86,0.57,-0.26,1.06
23.915637016296387,-0.74,0.87,-0.58,1.28
23.916432857513428,-0.76,1.1,-0.8,1.55
23.93425416946411,-1.04,0.98,-0.92,1.69
24.005203008651733,-1.61,0.57,-0.89,1.92
24.006165027618408,-2.22,0.04,-0.63,2.3
24.00685405731201,-2.57,-0.29,-0.48,2.63
24.017990112304688,-2.62,0.01,-0.58,2.68
24.01879096031189,-2.34,0.85,-0.89,2.64
24.035292148590088,-1.85,1.35,-1.14,2.55
24.036224842071533,-1.64,1.3,-1.49,2.56
24.05203104019165,-1.88,1.2,-1.56,2.72
24.052917957305908,-2.31,1.1,-1.45,2.94
24.067384958267212,-2.83,1.16,-1.42,3.37
24.068420886993408,-3.11,1.33,-1.42,3.66
24.1546049118042,-2.99,1.45,-1.49,3.64
24.155433177947998,-2.69,1.54,-1.6,3.48
24.15614414215088,-2.63,1.81,-1.58,3.56
24.16934895515442,-3.09,2.24,-1.63,4.15
24.170138835906982,-3.94,2.72,-1.73,5.09
24.185068130493164,-4.97,3.28,-1.86,6.23
24.18591594696045,-6.01,3.68,-2.22,7.38
24.202043056488037,-6.99,4.02,-2.86,8.55
24.202895164489746,-7.89,4.72,-3.72,9.91
24.217597007751465,-8.6,6.1,-4.45,11.44
24.286170959472656,-8.83,8.39,-5.59,13.4
24.28722596168518,-9.46,11.64,-6.85,16.48
24.287955045700073,-9.77,14.0,-7.38,18.59
24.302557945251465,-8.67,13.79,-8.4,18.32
24.30334997177124,-7.44,12.8,-8.99,17.32
24.318693161010742,-6.19,12.17,-6.97,15.32
24.31957197189331,-4.47,11.56,-3.07,12.76
24.33514094352722,-3.42,10.81,-0.63,11.35
24.336002826690674,-4.08,8.78,-0.97,9.73
24.35096001625061,-4.07,6.09,-0.77,7.36
24.4202561378479,-2.27,2.18,-0.16,3.15
24.42185688018799,1.08,-0.59,0.08,1.23
24.42256999015808,6.17,0.05,1.17,6.28
24.436102867126465,8.35,0.27,0.57,8.37
24.436890125274658,4.84,-1.03,-1.68,5.22
24.451950073242188,-1.66,-1.73,-0.8,2.52
24.452741146087646,-6.65,-2.62,1.68,7.34
24.468770027160645,-8.79,-4.19,3.73,10.42
24.46960997581482,-7.51,-5.53,5.1,10.62
24.484341144561768,-4.74,-6.85,5.58,10.02
24.553272008895874,-2.7,-7.23,4.84,9.1
24.55427312850952,-1.46,-6.61,2.89,7.36
24.55498194694519,-0.73,-6.17,1.0,6.29
24.569129943847656,-0.55,-6.6,0.06,6.62
24.569885969161987,-0.74,-7.09,-0.37,7.13
24.585288047790527,-1.13,-7.29,-0.71,7.41
24.58614206314087,-1.54,-7.17,-0.86,7.38
24.601752996444702,-1.74,-6.93,-0.79,7.18
24.602617025375366,-1.67,-6.88,-0.65,7.1
24.617682933807373,-1.47,-6.94,-0.39,7.1
24.686506986618042,-1.34,-7.13,-0.18,7.25
24.68749189376831,-1.36,-7.66,0.04,7.77
24.688188076019287,-1.49,-8.38,0.62,8.53
24.702288150787354,-1.71,-8.93,1.2,9.17
24.70307493209839,-1.88,-9.04,1.58,9.36
24.71811008453369,-1.65,-8.76,2.31,9.2
24.718913078308105,-1.1,-8.05,2.88,8.62
24.736587047576904,-0.73,-7.13,2.41,7.56
24.73741102218628,-0.29,-6.28,1.37,6.43
24.751363039016724,1.78,-5.42,1.13,5.81
24.82003688812256,4.4,-4.38,2.0,6.52
24.821035861968994,5.91,-3.08,1.57,6.84
24.821741104125977,7.08,-1.36,0.37,7.21
24.83593988418579,8.12,0.43,-0.17,8.13
24.83670997619629,8.81,2.22,0.1,9.08
24.852284908294678,9.5,4.06,1.39,10.42
24.853121995925903,10.12,4.98,2.6,11.57
24.86880397796631,10.23,4.88,2.76,11.66
24.86962604522705,9.9,5.42,1.61,11.4
24.88447093963623,9.68,5.9,0.69,11.35
24.953518867492676,9.98,5.37,0.34,11.33
24.954472064971924,11.15,4.54,0.09,12.03
24.955152988433838,12.72,3.25,0.58,13.14
24.96965503692627,12.58,2.44,1.31,12.88
24.97042989730835,6.28,4.6,-1.26,7.88
24.985629081726074,-9.9,7.31,-8.87,15.16
24.986449003219604,-38.68,22.98,-14.45,47.25
25.002352952957153,-34.41,36.96,1.45,50.51
25.00322389602661,-1.54,5.75,9.75,11.42
25.017892837524414,11.56,-8.32,4.36,14.89
25.086534023284912,13.82,1.84,6.12,15.22
25.087480068206787,16.71,2.81,8.68,19.03
25.088160037994385,9.46,-2.38,3.49,10.36
25.103140830993652,4.45,-5.58,-0.93,7.19
25.103880882263184,3.74,-4.8,-4.83,7.76
25.11873197555542,4.2,-1.65,-3.87,5.94
25.11956000328064,4.77,0.74,-1.92,5.19
25.13300085067749,3.75,2.05,-1.74,4.61
25.133795976638794,1.8,2.3,-0.59,2.97
25.15226411819458,0.66,1.25,0.91,1.68
25.153273105621338,-0.02,0.19,1.56,1.57
25.237401962280273,-0.81,-0.5,1.2,1.53
25.238221168518066,-0.88,-0.79,0.14,1.19
25.238890171051025,0.65,-0.61,-1.01,1.34
25.25312304496765,2.67,-0.28,-1.48,3.06
25.253901958465576,3.53,-0.07,-1.39,3.79
25.267596006393433,2.93,-0.25,-1.01,3.1
25.26840591430664,1.61,-0.46,-0.25,1.69
25.285717964172363,0.45,-0.47,0.47,0.8
25.286540031433105,-0.25,-0.26,0.58,0.68
25.301486015319824,-0.42,0.04,0.26,0.49
25.370646953582764,-0.23,0.32,0.25,0.46
25.371597051620483,0.16,0.47,0.15,0.51
25.37229013442993,0.51,0.35,-0.05,0.62
25.386409044265747,0.38,0.11,-0.11,0.41
25.387173175811768,-0.15,-0.1,-0.27,0.32
25.402462005615234,-0.56,-0.12,-0.49,0.75
25.403280019760132,-0.76,0.03,-0.39,0.85
25.419078826904297,-0.9,0.37,-0.32,1.02
25.41989517211914,-0.96,0.73,-0.3,1.24
25.43487000465393,-1.03,0.88,-0.22,1.37
25.50362491607666,-1.15,0.78,-0.41,1.44
25.505467891693115,-1.41,0.52,-0.71,1.66
25.506163120269775,-1.82,0.1,-0.96,2.06
25.519991874694824,-1.88,-0.18,-0.92,2.1
25.520741939544678,-1.72,-0.05,-1.14,2.06
25.53560209274292,-1.52,0.41,-1.37,2.08
25.536416053771973,-1.29,0.74,-1.61,2.19
25.552610874176025,-1.42,0.96,-1.78,2.47
25.553418159484863,-1.72,1.2,-1.59,2.63
25.56802201271057,-1.98,1.32,-1.45,2.78
25.636106967926025,-2.3,1.56,-1.03,2.96
25.63715100288391,-2.75,1.75,-0.78,3.35
25.637847900390625,-3.03,1.83,-0.92,3.65
25.653287887573242,-3.33,2.08,-0.94,4.03
25.654085159301758,-3.76,2.28,-0.97,4.5
25.669154167175293,-4.04,2.34,-1.35,4.86
25.669975996017456,-4.33,2.26,-1.78,5.19
25.68566608428955,-4.72,2.41,-2.14,5.71
25.68646001815796,-4.98,2.75,-2.58,6.24
25.701601028442383,-5.23,3.2,-3.0,6.82
25.76978898048401,-5.87,3.97,-3.29,7.81
25.77077007293701,-6.75,4.99,-3.73,9.18
25.77152705192566,-7.68,7.02,-4.36,11.28
25.786447048187256,-9.17,9.22,-4.79,13.85
25.787210941314697,-10.03,9.98,-5.92,15.33
25.80242109298706,-9.76,10.13,-7.0,15.71
25.803245067596436,-8.69,10.66,-7.75,15.78
25.819270133972168,-7.64,12.06,-9.06,16.9
25.820112943649292,-6.51,13.25,-8.54,17.05
25.83475399017334,-5.42,12.47,-4.8,14.41
25.90290904045105,-4.91,11.47,-1.5,12.56
25.903900146484375,-4.44,10.41,-0.66,11.33
25.904573917388916,-3.95,7.68,-2.17,8.9
25.91993999481201,-3.45,3.0,-3.25,5.6
25.920701026916504,-1.84,-0.45,-2.83,3.4
25.9360671043396,2.41,0.47,-0.76,2.57
25.936918020248413,5.92,1.43,0.9,6.15
25.952560901641846,5.41,0.96,-0.92,5.57
25.953373908996582,0.63,-0.06,-2.06,2.15
25.96816396713257,-3.99,-1.1,-0.52,4.17
26.036457061767578,-6.7,-3.19,1.25,7.52
26.03746509552002,-7.42,-5.38,2.88,9.6
26.038197994232178,-6.23,-6.68,4.19,10.04
26.053357124328613,-4.51,-7.18,4.37,9.53
26.054162979125977,-3.2,-7.1,3.18,8.41
26.069278955459595,-2.21,-6.99,1.41,7.46
26.07013988494873,-1.6,-7.03,0.12,7.21
26.085899829864502,-1.37,-6.87,-0.69,7.03
26.08673906326294,-1.62,-6.74,-1.09,7.01
26.10158109664917,-1.93,-6.74,-1.34,7.13
26.169466972351074,-2.01,-6.78,-1.51,7.23
26.170508861541748,-1.86,-6.92,-1.58,7.33
26.171265125274658,-1.56,-7.16,-1.53,7.48
26.187042951583862,-1.35,-7.39,-1.27,7.61
26.187798976898193,-1.11,-7.78,-0.77,7.89
26.202509880065918,-0.93,-8.31,-0.25,8.36
26.203349113464355,-0.77,-9.01,0.03,9.04
26.219520092010498,-0.67,-9.66,0.36,9.68
26.22032904624939,-0.72,-9.96,0.72,10.01
26.23549509048462,-0.7,-9.7,1.11,9.78
26.23660182952881,-0.42,-8.85,1.3,8.95
26.321535110473633,0.22,-7.75,0.88,7.8
26.322386980056763,1.8,-7.0,0.41,7.23
26.323069095611572,4.04,-6.1,1.26,7.42
26.33370304107666,5.01,-4.69,2.74,7.38
26.334484100341797,5.52,-2.92,2.57,6.75
26.35297203063965,6.98,-0.63,1.72,7.21
26.353811979293823,8.47,1.93,1.32,8.78
26.369287967681885,9.71,5.2,1.92,11.18
26.37012815475464,11.02,8.67,2.73,14.28
26.385202884674072,12.04,10.44,2.08,16.07
26.453218936920166,12.52,9.88,0.82,15.96
26.454195022583008,12.92,8.86,0.61,15.67
26.4548659324646,13.2,6.34,1.37,14.7
26.46987295150757,13.0,2.93,2.59,13.57
26.470614910125732,11.93,0.87,3.94,12.59
26.486271858215332,9.96,1.83,4.11,10.92
26.487141132354736,3.58,3.28,-1.48,5.07
26.499840021133423,-14.75,4.3,-11.77,19.35
26.500695943832397,-41.8,21.77,-21.27,51.7
26.518556118011475,-29.55,39.22,1.37,49.12
26.58034896850586,-1.7,8.0,9.67,12.66
26.581984996795654,11.49,-8.11,5.87,15.23
26.582690000534058,15.61,1.23,9.57,18.35
26.584674835205078,19.26,4.26,8.76,21.58
26.585837841033936,13.14,-1.07,3.38,13.6
26.586920976638794,6.82,-4.21,1.17,8.09
26.587594032287598,3.76,-4.02,-1.09,5.61
26.602438926696777,1.9,-1.66,-2.53,3.57
26.60316801071167,2.25,0.23,-2.32,3.24
26.619408130645752,3.35,1.41,-3.33,4.92
26.67986488342285,3.68,1.83,-2.99,5.08
26.68095588684082,3.12,1.06,-1.16,3.49
26.681628942489624,2.14,0.31,-0.05,2.16
26.683775901794434,0.92,0.06,0.2,0.94
26.685053825378418,-0.88,0.33,0.21,0.96
26.6860990524292,-2.31,0.42,0.22,2.35
26.68678617477417,-2.72,-0.33,0.49,2.78
26.703667163848877,-1.8,-1.45,0.37,2.34
26.704365968704224,-0.26,-1.6,-0.61,1.73
26.719337940216064,1.12,-0.87,-1.56,2.1
26.780184030532837,1.95,0.0,-1.33,2.36
26.78121304512024,1.9,0.66,-0.43,2.05
26.78188991546631,1.18,0.75,0.08,1.4
26.784306049346924,0.32,0.57,0.22,0.68
26.785287857055664,-0.42,0.36,-0.03,0.55
26.787200927734375,-0.77,0.11,0.24,0.81
26.78828001022339,-1.06,-0.08,0.39,1.13
26.78895092010498,-1.49,-0.01,-0.09,1.49
26.799744129180908,-1.58,0.27,-0.29,1.62
26.800477981567383,-1.19,0.47,-0.26,1.3
26.878592014312744,-0.82,0.67,-0.33,1.1
26.879454135894775,-0.75,0.74,-0.44,1.14
26.88011884689331,-0.98,0.6,-0.49,1.24
26.882415056228638,-1.7,0.23,-0.58,1.81
26.903031826019287,-2.5,-0.19,-0.62,2.58
26.903836965560913,-2.89,-0.33,-0.7,2.99
26.919679164886475,-2.7,-0.03,-0.95,2.86
26.920519828796387,-2.03,0.41,-1.34,2.46
26.935067176818848,-1.26,0.74,-1.62,2.18
26.935872077941895,-0.67,0.93,-1.54,1.91
27.015516996383667,-0.54,1.09,-1.3,1.78
27.016345977783203,-0.63,1.08,-1.17,1.71
27.017033100128174,-0.84,1.09,-1.29,1.88
27.037075996398926,-1.6,1.23,-1.19,2.34
27.03785991668701,-2.65,1.35,-0.9,3.1
27.05296301841736,-3.32,1.13,-0.88,3.61
27.05379605293274,-3.62,1.03,-1.19,3.94
27.0696439743042,-3.77,1.33,-1.54,4.28
27.070449829101562,-3.72,1.75,-1.85,4.5
27.085331916809082,-3.6,2.26,-2.06,4.72
27.150094032287598,-3.95,2.78,-2.18,5.29
27.151050090789795,-4.75,3.21,-2.17,6.12
27.151767015457153,-5.7,3.62,-2.06,7.05
27.1705641746521,-6.59,4.45,-2.07,8.21
27.171299934387207,-7.47,6.35,-2.39,10.09
27.185394048690796,-8.63,9.21,-3.12,13.0
27.186259984970093,-10.33,11.9,-4.3,16.33
27.199779987335205,-11.1,13.12,-4.81,17.84
27.200764179229736,-10.2,12.42,-5.01,16.83
27.217571020126343,-9.27,11.43,-6.1,15.93
27.2187819480896,-9.07,10.81,-5.43,15.11
27.300964832305908,-8.3,10.26,-2.57,13.44
27.301833152770996,-6.85,10.53,-0.98,12.6
27.30252504348755,-5.35,10.72,-1.21,12.04
27.321044921875,-3.74,8.96,-1.3,9.79
27.321878910064697,-2.14,4.13,-1.69,4.94
27.336488008499146,-0.83,-1.15,-2.98,3.3
27.337347984313965,2.33,-2.18,-3.36,4.63
27.353432178497314,6.72,-0.46,-2.75,7.27
27.354293823242188,7.85,0.73,-3.97,8.82
27.36885905265808,4.14,0.49,-5.89,7.21
27.43333387374878,-1.4,-0.29,-5.05,5.24
27.434278964996338,-5.1,-1.78,-3.46,6.41
27.43497610092163,-6.81,-3.57,-2.13,7.97
27.45401382446289,-6.89,-4.9,-0.44,8.46
27.45479702949524,-5.62,-5.82,1.42,8.21
27.469599962234497,-4.09,-6.73,2.52,8.26
27.47042417526245,-2.94,-7.36,2.12,8.2
27.486774921417236,-2.27,-7.48,1.27,7.91
27.48757314682007,-1.84,-7.04,0.23,7.28
27.502347946166992,-2.01,-6.38,-1.02,6.76
27.567370891571045,-2.16,-6.13,-2.31,6.89
27.568495988845825,-2.18,-6.41,-2.39,7.18
27.569247007369995,-1.88,-6.75,-2.54,7.45
27.58780002593994,-1.43,-6.76,-2.79,7.45
27.588487148284912,-1.03,-6.66,-2.93,7.34
27.60348415374756,-0.66,-6.79,-2.74,7.35
27.604331970214844,-0.13,-7.18,-2.37,7.56
27.619750022888184,0.47,-7.85,-1.99,8.11
27.62057399749756,0.93,-8.53,-1.69,8.74
27.635714054107666,1.16,-8.94,-1.77,9.18
27.699788093566895,1.34,-8.92,-1.55,9.15
27.70076084136963,2.04,-8.64,-1.31,8.97
27.70143413543701,2.96,-8.35,-1.54,8.99
27.720673084259033,4.3,-8.0,-1.58,9.21
27.721444129943848,5.25,-7.0,0.17,8.75
27.73683786392212,5.06,-5.52,1.98,7.74
27.73767399787903,5.55,-3.47,2.46,6.99
27.75367784500122,6.73,-1.16,2.54,7.28
27.7545108795166,7.42,1.22,2.61,7.95
27.76899290084839,7.59,4.25,2.52,9.05
27.833327054977417,8.29,7.48,2.17,11.37
27.834419012069702,10.09,9.27,1.6,13.79
27.83511996269226,12.07,9.28,1.37,15.28
27.854099988937378,13.49,8.93,1.57,16.25
27.85484504699707,14.06,8.24,1.73,16.38
27.870038986206055,13.99,6.04,2.24,15.4
27.870864868164062,13.19,4.02,3.73,14.28
27.886791944503784,10.03,5.94,4.5,12.49
27.88760995864868,2.96,7.03,0.39,7.63
27.90034008026123,-13.97,7.27,-8.47,17.88
27.964444160461426,-38.84,19.45,-14.78,45.88
27.96555185317993,-28.93,28.8,2.78,40.91
27.966248989105225,-2.12,3.81,8.41,9.47
27.987727165222168,7.78,-6.67,3.62,10.86
27.988494873046875,12.9,0.54,6.85,14.61
28.003808975219727,16.12,5.57,7.17,18.5
28.00464701652527,12.09,2.18,1.56,12.38
28.020220041275024,7.24,-2.83,-1.99,8.02
28.021217823028564,5.25,-3.96,-2.29,6.96
28.036075115203857,4.14,-3.3,-2.8,5.98
28.100332975387573,3.44,-1.43,-2.86,4.69
28.101255893707275,3.46,0.77,-2.1,4.12
28.101943016052246,3.51,2.3,-0.4,4.21
28.120914936065674,2.78,1.71,1.31,3.51
28.12167000770569,1.27,0.21,2.24,2.58
28.13682508468628,-0.12,-0.47,2.18,2.23
28.137648105621338,-0.48,-0.7,1.31,1.56
28.153696060180664,-0.64,-0.36,0.2,0.76
28.154519081115723,0.14,0.36,-0.87,0.95
28.16917085647583,1.17,0.46,-1.19,1.73
28.232189178466797,1.23,-0.65,-1.13,1.79
28.233253955841064,0.97,-1.48,-1.12,2.09
28.233932971954346,1.0,-1.26,-0.69,1.75
28.254021167755127,0.92,-0.43,-0.11,1.02
28.25477409362793,0.44,0.29,0.69,0.86
28.27006196975708,-0.18,0.79,1.0,1.28
28.27089786529541,-0.6,0.9,0.83,1.36
28.287045001983643,-0.59,0.58,-0.5,0.96
28.28787088394165,-0.12,0.05,-0.93,0.93
28.30271291732788,-0.05,-0.32,-1.0,1.05
28.303725957870483,-0.55,-0.28,-0.73,0.95
28.3850519657135,-0.82,0.04,-0.72,1.09
28.38587999343872,-0.81,0.36,-0.59,1.06
28.386528968811035,-0.83,0.64,-0.28,1.08
28.40444803237915,-1.0,0.82,-0.39,1.35
28.40522003173828,-1.19,0.83,-0.88,1.69
28.420313835144043,-1.48,0.55,-1.12,1.93
28.42112398147583,-2.05,0.05,-1.25,2.4
28.4371280670166,-2.76,-0.43,-1.35,3.1
28.43795108795166,-3.17,-0.41,-1.2,3.41
28.452757835388184,-3.06,0.3,-1.27,3.32
28.517056941986084,-2.5,0.82,-1.39,2.97
28.51800799369812,-1.76,0.97,-1.48,2.49
28.518682956695557,-1.15,1.02,-1.53,2.16
28.537764072418213,-1.07,1.06,-1.53,2.14
28.538480043411255,-1.49,1.04,-1.3,2.23
28.55357313156128,-2.12,1.04,-1.1,2.6
28.55432415008545,-2.8,1.16,-0.87,3.15
28.570552825927734,-3.27,1.43,-0.82,3.66
28.57139492034912,-3.51,1.77,-0.83,4.01
28.586183071136475,-3.5,2.07,-0.96,4.17
28.65145492553711,-3.68,2.35,-1.15,4.51
28.65240716934204,-4.08,2.65,-1.51,5.09
28.653111934661865,-4.54,3.0,-1.92,5.77
28.672728061676025,-5.07,3.44,-2.34,6.55
28.673481941223145,-5.82,4.36,-2.87,7.81
28.687530994415283,-6.85,5.91,-3.43,9.67
28.68837594985962,-7.43,8.39,-4.18,11.96
28.703804969787598,-9.04,11.6,-5.14,15.57
28.704673051834106,-10.88,12.9,-6.14,17.95
28.719948053359985,-10.21,12.2,-5.69,16.89
28.784221172332764,-9.1,11.69,-6.46,16.16
28.785222053527832,-8.85,11.74,-8.13,16.8
28.78592014312744,-8.62,11.16,-6.85,15.67
28.804771900177002,-7.38,10.61,-3.13,13.29
28.805519104003906,-5.35,11.08,-0.55,12.31
28.820575952529907,-3.47,10.67,0.17,11.22
28.82142996788025,-1.89,6.8,-0.89,7.11
28.837502002716064,-1.18,1.04,-2.93,3.32
28.8383469581604,0.17,-2.38,-3.59,4.31
28.853046894073486,4.29,-1.76,-2.26,5.15
28.918384075164795,6.5,-1.0,-1.55,6.75
28.91934585571289,4.46,-1.09,-3.38,5.7
28.92002010345459,-0.71,-1.24,-3.32,3.61
28.93802785873413,-4.93,-2.03,-1.74,5.6
28.9387788772583,-6.99,-3.85,-0.33,7.98
28.954122066497803,-7.19,-5.7,1.15,9.24
28.954957962036133,-5.92,-6.88,2.55,9.42
28.97038984298706,-4.56,-7.34,3.12,9.18
28.97121810913086,-3.76,-7.58,2.42,8.8
28.98652195930481,-3.2,-7.53,1.23,8.27
29.052520990371704,-2.55,-7.18,0.23,7.62
29.05347204208374,-2.14,-6.88,-0.45,7.21
29.05419898033142,-1.93,-6.69,-0.84,7.01
29.071220874786377,-1.79,-6.51,-1.15,6.84
29.072003841400146,-1.68,-6.3,-1.58,6.7
29.087546825408936,-1.53,-6.06,-2.04,6.57
29.088343143463135,-1.53,-5.98,-2.3,6.58
29.10391902923584,-1.52,-6.14,-2.17,6.68
29.10474395751953,-1.19,-6.58,-1.74,6.9
29.11940097808838,-0.56,-7.22,-1.25,7.34
29.183588981628418,0.15,-7.74,-0.82,7.78
29.185101985931396,0.78,-8.03,-0.71,8.09
29.185796976089478,1.15,-8.03,-0.64,8.13
29.204960823059082,1.26,-7.66,-0.67,7.79
29.205742835998535,1.07,-7.13,-1.08,7.29
29.220655918121338,1.31,-6.75,-1.18,6.97
29.22148895263672,2.87,-6.38,0.35,7.0
29.237316131591797,4.33,-5.53,2.99,7.63
29.23817491531372,5.05,-4.11,4.75,8.05
29.253118991851807,5.66,-1.89,4.78,7.64
29.318423986434937,6.14,1.15,3.83,7.32
29.31941795349121,7.07,4.86,2.62,8.97
29.3200900554657,9.34,8.33,2.42,12.74
29.338263988494873,12.49,10.61,2.44,16.56
29.339056968688965,15.28,11.95,1.69,19.47
29.35398292541504,16.77,11.55,1.21,20.39
29.354882955551147,15.94,7.87,1.5,17.84
29.370774030685425,13.9,5.72,3.01,15.32
29.371601104736328,12.19,4.73,5.11,14.03
29.386465072631836,10.74,3.31,7.05,13.26
29.387508869171143,7.44,2.14,5.62,9.56
29.465703010559082,-5.29,-0.58,-4.28,6.82
29.466503143310547,-32.78,-0.31,-17.94,37.36
29.467188835144043,-51.11,29.94,-17.36,61.72
29.488564014434814,-18.44,41.01,3.97,45.13
29.48935103416443,9.89,3.11,5.88,11.91
29.503982067108154,18.31,-6.3,12.54,23.06
29.504825115203857,18.91,0.9,13.97,23.52
29.52071714401245,13.54,-0.91,4.43,14.27
29.521541118621826,6.44,-5.55,-1.75,8.67
29.536498069763184,4.5,-5.28,-1.79,7.16
29.602355003356934,3.94,-2.56,-3.74,6.0
29.60335397720337,4.67,0.01,-4.83,6.71
29.6040620803833,6.33,1.32,-2.66,6.99
29.621467113494873,5.94,1.97,-1.07,6.34
29.62221908569336,3.64,2.18,-0.53,4.27
29.637478828430176,1.17,1.43,1.06,2.13
29.63831090927124,-0.54,0.33,2.66,2.73
29.655370950698853,-1.14,0.12,2.34,2.6
29.656210899353027,-1.95,0.15,0.56,2.03
29.669909954071045,-2.07,0.07,-1.21,2.39
29.735018014907837,-1.54,-0.51,-1.72,2.36
29.736598014831543,-0.69,-1.94,-1.3,2.43
29.737282037734985,0.69,-2.45,-1.33,2.87
29.75507116317749,1.69,-1.3,-1.21,2.45
29.755851984024048,2.02,0.04,-0.37,2.05
29.7708740234375,1.79,0.78,0.32,1.97
29.771661043167114,1.36,0.99,0.28,1.7
29.788044929504395,0.5,0.82,0.24,0.98
29.788882970809937,-0.23,0.32,0.12,0.41
29.8033709526062,-0.72,-0.07,0.34,0.79
29.867455005645752,-1.24,-0.03,0.0,1.24
29.868404865264893,-1.17,0.16,-0.43,1.25
29.869112014770508,-0.87,0.34,-0.65,1.13
29.888390064239502,-0.9,0.52,-0.92,1.38
29.889170169830322,-0.89,0.72,-0.99,1.51
29.904221057891846,-0.96,0.82,-0.93,1.56
29.905035972595215,-1.31,0.85,-1.01,1.85
29.921049118041992,-1.95,0.62,-1.32,2.43
29.921907901763916,-2.66,0.09,-1.59,3.1
29.936784029006958,-3.19,-0.47,-1.51,3.56
30.001895904541016,-3.28,-0.38,-1.48,3.61
30.002843856811523,-2.64,0.39,-1.53,3.07
30.003535985946655,-1.63,0.83,-1.69,2.49
30.021944046020508,-0.83,0.84,-1.86,2.2
30.02270197868347,-0.61,0.88,-1.71,2.01
30.038133144378662,-1.17,1.03,-1.35,2.06
30.038981914520264,-2.38,1.48,-0.76,2.9
30.054697036743164,-3.77,2.15,-0.18,4.34
30.055532932281494,-4.69,2.32,-0.02,5.23
30.070111989974976,-5.2,2.28,-0.1,5.67
30.134886026382446,-5.42,2.5,-0.45,5.98
30.13589096069336,-5.47,2.85,-1.25,6.29
30.13657283782959,-5.59,3.2,-2.2,6.8
30.155212879180908,-6.03,3.55,-2.91,7.57
30.155983924865723,-6.8,3.98,-3.32,8.55
30.170945167541504,-7.55,4.56,-3.45,9.47
30.171783924102783,-8.15,5.82,-3.6,10.64
30.18812084197998,-8.89,8.05,-4.25,12.72
30.188940048217773,-10.31,10.98,-5.53,16.04
30.203389167785645,-11.5,12.76,-6.21,18.26
30.26905584335327,-10.95,12.47,-6.45,17.8
30.270028114318848,-9.85,11.63,-7.64,17.04
30.270727157592773,-8.92,12.06,-7.55,16.79
30.288596153259277,-7.1,12.88,-4.75,15.45
30.289341926574707,-4.28,13.11,-2.36,13.99
30.304471969604492,-2.83,11.94,-2.17,12.46
30.30533194541931,-2.57,8.19,-2.29,8.88
30.321163177490234,-2.04,3.06,-2.73,4.58
30.321985960006714,-1.1,-1.79,-3.03,3.68
30.336966037750244,2.32,-3.36,-1.74,4.43
30.403915882110596,6.57,-2.34,0.03,6.97
30.404945850372314,6.58,-2.08,-0.88,6.95
30.405647039413452,2.41,-2.42,-3.0,4.54
30.42185688018799,-2.95,-2.87,-2.86,5.01
30.422659873962402,-6.74,-4.14,-1.54,8.05
30.43786907196045,-8.12,-6.1,-0.02,10.15
30.43868589401245,-7.28,-7.21,1.66,10.37
30.454763889312744,-5.55,-7.31,3.07,9.67
30.455604076385498,-4.01,-6.99,3.2,8.67
30.470155954360962,-2.88,-6.9,2.12,7.77
30.471192836761475,-2.34,-6.84,0.98,7.29
30.55160403251648,-2.36,-6.49,0.41,6.91
30.552410125732422,-2.51,-6.23,0.17,6.71
30.553068161010742,-2.55,-6.25,-0.3,6.75
30.568989992141724,-2.52,-6.4,-1.02,6.95
30.56971311569214,-2.34,-6.53,-1.66,7.13
30.585215091705322,-1.94,-6.61,-2.06,7.19
30.585994005203247,-1.28,-6.73,-1.87,7.1
30.601886987686157,-0.29,-6.8,-1.52,6.97
30.602686882019043,0.84,-6.94,-1.27,7.1
30.61793613433838,1.78,-7.08,-0.99,7.36
30.68091106414795,2.29,-7.01,-0.48,7.39
30.681843042373657,2.77,-6.85,-0.32,7.39
30.682451963424683,3.32,-6.75,-0.77,7.56
30.684908866882324,4.48,-6.23,-0.22,7.67
30.686220169067383,5.41,-5.21,1.95,7.75
30.687498092651367,6.15,-4.08,3.24,8.06
30.688644886016846,7.38,-2.57,3.31,8.48
30.689942836761475,8.14,-0.89,3.14,8.76
30.691220998764038,8.13,1.07,3.25,8.82
30.692495822906494,8.21,3.44,3.19,9.45
30.75272297859192,9.2,5.67,2.68,11.13
30.753737926483154,10.64,6.99,2.14,12.9
30.754414081573486,11.72,7.48,1.74,14.01
30.76759386062622,12.76,7.88,1.16,15.04
30.768339157104492,13.43,6.87,-0.19,15.08
30.784912109375,13.6,5.1,-1.24,14.57
30.78571605682373,13.71,4.22,-0.45,14.35
30.801960945129395,13.05,4.12,1.02,13.72
30.80274486541748,9.06,6.72,0.57,11.29
30.820399045944214,-1.11,4.7,-4.7,6.73
30.886402130126953,-22.74,7.19,-11.25,26.36
30.88741397857666,-43.77,26.12,-8.57,51.68
30.888123035430908,-20.21,29.32,7.29,36.34
30.90554714202881,4.05,-0.76,3.76,5.57
30.906335830688477,11.29,-5.85,5.63,13.9
30.921568870544434,15.13,1.35,9.25,17.78
30.922450065612793,14.75,1.15,6.38,16.11
30.93834114074707,8.68,-3.27,0.36,9.28
30.939226150512695,5.82,-4.32,-1.65,7.43
30.953864097595215,4.44,-2.98,-3.84,6.58
31.017974853515625,4.06,-1.15,-4.57,6.22
31.0189471244812,4.59,0.45,-2.9,5.44
31.019624948501587,4.4,1.48,-1.76,4.96
31.03873109817505,3.27,1.71,-0.8,3.77
31.03946590423584,1.71,0.97,0.79,2.11
31.054944038391113,0.28,0.19,2.42,2.44
31.055835008621216,-0.52,-0.09,2.68,2.73
31.07116413116455,-0.78,-0.37,1.66,1.87
31.07203197479248,-0.42,-0.61,0.36,0.82
31.087246894836426,0.36,-0.41,-0.55,0.77
31.152796983718872,1.22,-0.15,-1.22,1.73
31.15376615524292,1.57,-0.03,-1.54,2.19
31.154454946517944,1.22,-0.27,-1.48,1.93
31.172260999679565,0.89,-0.77,-1.34,1.78
31.173043966293335,0.81,-0.94,-0.74,1.44
31.188465118408203,0.51,-0.33,-0.15,0.62
31.189321994781494,-0.01,0.54,0.21,0.57
31.204923152923584,-0.48,0.85,0.37,1.04
31.205806970596313,-0.85,0.54,0.09,1.01
31.220818042755127,-0.87,0.15,-0.11,0.88
31.28531789779663,-0.74,0.01,-0.3,0.79
31.286324977874756,-0.92,0.03,-0.53,1.06
31.287015914916992,-1.05,0.12,-0.64,1.23
31.306265830993652,-1.06,0.28,-0.43,1.17
31.307022094726562,-1.11,0.56,-0.13,1.25
31.32176899909973,-1.19,0.78,-0.15,1.43
31.322701930999756,-1.39,0.64,-0.48,1.6
31.33917498588562,-1.7,0.12,-0.62,1.81
31.340036869049072,-2.01,-0.5,-0.65,2.17
31.354079961776733,-2.27,-0.64,-0.98,2.55
31.416563987731934,-2.27,-0.21,-1.21,2.58
31.417552947998047,-1.94,0.35,-1.49,2.47
31.418318033218384,-1.5,0.67,-1.72,2.37
31.439332962036133,-1.28,0.8,-1.78,2.33
31.44009017944336,-1.37,0.95,-1.56,2.28
31.455317974090576,-1.51,1.02,-1.42,2.31
31.456195831298828,-1.59,1.04,-1.1,2.19
31.471582889556885,-1.76,1.12,-0.82,2.24
31.4724440574646,-1.94,1.13,-0.71,2.35
31.487584114074707,-2.16,1.25,-0.74,2.6
31.48863697052002,-2.55,1.59,-0.9,3.13
31.569631099700928,-3.14,2.11,-1.11,3.94
31.570484161376953,-3.5,2.41,-1.35,4.45
31.571144104003906,-3.65,2.44,-1.59,4.66
31.589115142822266,-3.9,2.58,-2.12,5.13
31.58989715576172,-4.18,2.85,-2.52,5.65
31.60219097137451,-4.61,3.18,-2.82,6.27
31.603063106536865,-5.42,3.88,-3.06,7.33
31.622614860534668,-6.4,5.26,-2.98,8.8
31.623438835144043,-7.28,7.29,-3.28,10.81
31.637710094451904,-8.7,9.95,-3.94,13.79
31.70050811767578,-10.61,11.57,-4.86,16.43
31.701497077941895,-10.73,11.05,-4.92,16.16
31.70217514038086,-9.95,10.06,-5.21,15.07
31.72244095802307,-9.51,9.95,-6.4,15.17
31.723217964172363,-8.93,10.46,-6.08,15.03
31.73880386352539,-7.1,10.7,-3.25,13.24
31.73968505859375,-4.6,10.28,-1.47,11.35
31.75542402267456,-3.07,9.36,-1.79,10.01
31.756253957748413,-2.3,7.47,-1.67,7.99
31.770648956298828,-1.53,3.63,-1.66,4.27
31.833390951156616,-0.78,-1.05,-2.67,2.97
31.83503484725952,0.98,-2.81,-2.53,3.9
31.835755825042725,4.08,-1.22,-1.16,4.41
31.85573101043701,4.79,-0.47,-0.89,4.89
31.856510162353516,2.57,-0.26,-3.12,4.05
31.871968030929565,-1.56,-0.52,-3.95,4.27
31.872792959213257,-5.18,-1.66,-3.03,6.22
31.888600826263428,-6.9,-3.87,-1.43,8.03
31.889453887939453,-6.73,-5.97,0.36,9.0
31.902312994003296,-5.52,-6.79,2.17,9.01
31.965293884277344,-4.26,-6.76,3.26,8.62
31.966360092163086,-3.43,-6.61,2.91,7.99
31.967026948928833,-2.98,-6.67,1.98,7.56
31.96914291381836,-2.74,-6.77,1.15,7.39
31.970346927642822,-2.82,-6.79,0.59,7.37
31.97143316268921,-2.87,-6.84,0.13,7.41
31.972093105316162,-2.63,-6.82,-0.52,7.32
31.98829984664917,-2.39,-6.69,-1.39,7.23
31.989015102386475,-2.03,-6.52,-2.01,7.11
32.00458097457886,-1.6,-6.56,-2.28,7.12
32.06368017196655,-1.16,-6.82,-2.25,7.27
32.064695835113525,-0.49,-7.28,-1.95,7.55
32.06537914276123,0.19,-7.81,-1.61,7.97
32.068110942840576,0.56,-8.05,-1.36,8.18
32.08864784240723,1.01,-7.83,-0.84,7.93
32.08943796157837,1.71,-7.51,-1.0,7.76
32.10568189620972,2.57,-7.32,-1.74,7.95
32.10649585723877,3.97,-6.64,-1.14,7.81
32.12092304229736,4.81,-5.39,1.2,7.32
32.12195682525635,5.43,-4.03,2.35,7.15
32.19900894165039,6.41,-2.27,1.93,7.06
32.199838161468506,6.65,-0.04,1.28,6.77
32.20048999786377,6.49,2.6,0.98,7.05
32.20229482650757,7.21,5.26,0.82,8.96
32.203299045562744,8.9,7.51,0.43,11.65
32.2052321434021,10.69,9.03,0.35,13.99
32.20629405975342,12.03,9.82,0.11,15.52
32.20695400238037,12.82,9.17,-0.37,15.76
32.2216100692749,13.16,7.13,-0.29,14.97
32.2223060131073,12.79,5.24,0.97,13.85
32.29683208465576,11.66,4.45,2.68,12.76
32.297693967819214,10.06,4.68,4.49,11.96
32.29836988449097,6.49,6.79,4.78,10.53
32.301987171173096,-0.61,5.22,1.23,5.39
32.322465896606445,-16.42,3.54,-5.7,17.73
32.323298931121826,-40.25,16.12,-8.62,44.2
32.338757038116455,-26.71,29.52,6.76,40.38
32.33966684341431,0.74,5.85,6.99,9.14
32.35433101654053,8.81,-6.64,1.16,11.09
32.35514998435974,12.67,0.28,6.45,14.22
32.416067123413086,15.23,3.99,6.14,16.89
32.4170708656311,11.18,-0.7,-0.76,11.22
32.417781829833984,7.13,-4.25,-4.11,9.26
32.41986703872681,6.16,-3.79,-4.77,8.66
32.42095494270325,5.59,-2.33,-6.09,8.58
32.42160415649414,4.98,-0.6,-5.21,7.23
32.43838310241699,4.42,0.69,-2.77,5.26
32.43912315368652,3.11,1.7,-0.7,3.61
32.455442905426025,1.21,1.66,1.41,2.49
32.45626401901245,-0.64,0.65,3.59,3.7
32.47060203552246,-1.66,-0.31,4.48,4.78
32.530843019485474,-1.46,-0.89,3.43,3.83
32.53181600570679,-0.58,-0.89,1.71,2.01
32.53247404098511,0.66,-0.37,0.37,0.84
32.53529095649719,1.58,-0.1,-0.43,1.64
32.55588912963867,1.78,-0.47,-1.11,2.14
32.55667209625244,1.88,-0.76,-1.9,2.77
32.572153091430664,2.02,-0.76,-2.36,3.19
32.5729398727417,2.11,-0.33,-1.97,2.9
32.587679862976074,1.62,0.32,-0.68,1.78
32.58852005004883,0.52,0.62,0.41,0.9
32.667685985565186,-0.54,0.5,0.86,1.13
32.66853404045105,-1.24,0.24,0.92,1.56
32.66920804977417,-1.63,0.09,0.63,1.74
32.68983197212219,-1.87,-0.04,-0.08,1.87
32.69059085845947,-1.59,-0.05,-0.67,1.72
32.70510005950928,-0.83,0.13,-0.84,1.18
32.705946922302246,-0.22,0.37,-0.88,0.97
32.72217607498169,-0.02,0.49,-0.84,0.97
32.72292613983154,-0.18,0.51,-0.66,0.85
32.73768901824951,-0.68,0.47,-0.62,1.03
32.799663066864014,-1.33,0.27,-0.56,1.46
32.800665855407715,-1.94,-0.13,-0.52,2.01
32.80133390426636,-2.17,-0.41,-0.61,2.29
32.80339002609253,-1.9,-0.26,-0.85,2.09
32.80444097518921,-1.45,0.27,-1.3,1.96
32.80510091781616,-1.12,0.67,-1.77,2.19
32.82110095024109,-0.94,0.91,-1.88,2.29
32.82182502746582,-1.04,0.95,-1.7,2.2
32.839158058166504,-1.41,0.91,-1.48,2.23
32.83993101119995,-1.74,1.09,-1.12,2.33
32.912424087524414,-2.17,1.42,-1.02,2.78
32.91325807571411,-2.65,1.59,-1.06,3.26
32.91392803192139,-3.17,1.82,-1.05,3.8
32.91974592208862,-3.64,2.17,-1.08,4.37
32.92054605484009,-3.91,2.29,-1.27,4.7
32.93920397758484,-3.99,2.57,-1.55,4.99
32.940043926239014,-4.01,2.85,-1.94,5.28
32.95567607879639,-4.14,3.14,-2.35,5.7
32.95652389526367,-4.56,3.4,-2.63,6.26
32.97140407562256,-5.27,3.69,-2.87,7.04
33.03103804588318,-6.18,4.4,-3.04,8.17
33.03199005126953,-7.26,5.89,-3.04,9.83
33.03263187408447,-8.69,8.29,-4.14,12.7
33.035789012908936,-10.95,10.65,-5.34,16.18
33.036911964416504,-12.14,11.34,-5.52,17.5
33.03815317153931,-11.0,10.4,-5.72,16.18
33.03943395614624,-9.82,9.46,-7.08,15.36
33.04059100151062,-9.32,9.66,-8.25,15.75
33.04174304008484,-7.86,10.81,-6.9,15.04
33.04297113418579,-4.68,11.63,-3.86,13.11
33.099621057510376,-1.67,10.9,-2.3,11.26
33.10068202018738,-1.25,8.91,-2.61,9.36
33.101409912109375,-1.83,5.71,-2.25,6.4
33.10344696044922,-1.24,1.76,-1.59,2.67
33.10445690155029,-0.03,-2.31,-1.65,2.83
33.10638904571533,2.55,-2.48,-0.76,3.63
33.107717990875244,5.07,-0.6,1.01,5.2
33.10881805419922,4.17,-0.83,-0.12,4.25
33.10947799682617,-0.07,-1.43,-2.45,2.83
33.12166500091553,-4.93,-1.66,-2.08,5.6
33.17804503440857,-8.19,-2.92,-0.23,8.69
33.17898893356323,-9.08,-4.81,1.79,10.43
33.1796510219574,-7.53,-6.31,3.35,10.37
33.18833684921265,-5.17,-6.99,4.26,9.68
33.18912315368652,-3.54,-7.04,4.06,8.86
33.20581007003784,-2.56,-6.75,2.91,7.78
33.2066650390625,-2.04,-6.39,1.71,6.92
