time,ax,ay,az,atotal
0.0034437179565429688,-0.81,-1.83,-1.47,2.48
0.013426780700683594,-0.18,0.07,-0.18,0.26
0.02317976951599121,0.07,1.15,-0.29,1.18
0.036690711975097656,-0.13,1.36,-0.96,1.66
0.0588078498840332,-0.27,0.61,-0.56,0.87
0.060443878173828125,0.04,-0.05,0.13,0.14
0.06276178359985352,0.37,-0.42,0.46,0.72
0.07279586791992188,0.2,-0.34,0.35,0.52
0.08295083045959473,-0.1,-0.14,0.1,0.19
0.09274482727050781,-0.17,-0.12,-0.05,0.21
0.10276174545288086,-0.09,-0.04,-0.03,0.1
0.1127767562866211,0.0,-0.05,0.01,0.05
0.12589788436889648,-0.07,-0.11,0.06,0.14
0.1327807903289795,-0.06,0.02,0.2,0.2
0.15633082389831543,0.09,-0.03,0.13,0.16
0.15811681747436523,0.1,-0.03,0.02,0.1
0.1620028018951416,-0.04,0.07,-0.02,0.08
0.17221593856811523,-0.13,0.13,-0.04,0.18
0.18255996704101562,-0.14,0.08,-0.12,0.2
0.1920328140258789,-0.12,-0.02,-0.14,0.18
0.20213890075683594,-0.03,-0.03,-0.02,0.04
0.21205878257751465,0.11,-0.05,0.06,0.13
0.22213387489318848,0.13,-0.11,0.0,0.17
0.23488473892211914,0.08,-0.09,0.21,0.24
0.2653226852416992,0.09,-0.12,0.39,0.41
0.2669677734375,0.25,-0.26,0.35,0.5
0.2683677673339844,0.34,-0.28,0.24,0.5
0.28196096420288086,0.16,-0.17,0.31,0.38
0.283444881439209,0.02,-0.08,0.38,0.38
0.2987527847290039,-0.1,-0.15,0.2,0.26
0.3010978698730469,-0.29,-0.08,0.11,0.32
0.31716299057006836,-0.12,0.18,0.0,0.21
0.3214578628540039,0.24,0.2,-0.31,0.44
0.33335280418395996,0.42,0.02,-0.47,0.63
0.3601877689361572,0.51,-0.26,-0.45,0.72
0.36210179328918457,0.33,-0.53,-0.16,0.64
0.36354875564575195,-0.03,-0.42,0.68,0.79
0.3831608295440674,-0.18,-0.11,0.85,0.87
0.38466978073120117,0.05,0.2,0.46,0.5
0.39934587478637695,0.32,0.19,-0.05,0.37
0.4008657932281494,0.43,0.01,-0.28,0.51
0.41661691665649414,0.26,-0.02,0.18,0.31
0.42279577255249023,0.14,-0.09,0.52,0.54
0.43228864669799805,0.2,-0.25,0.07,0.32
0.4602546691894531,0.1,-0.17,0.17,0.26
0.4620699882507324,0.24,0.16,-0.29,0.4
0.46352577209472656,-0.27,0.01,0.47,0.54
0.4831657409667969,-0.13,0.29,0.41,0.51
0.4846687316894531,-0.08,-0.13,0.34,0.37
0.499208927154541,-0.12,-0.29,0.43,0.53
0.5006327629089355,-0.12,-0.18,0.57,0.6
0.5166687965393066,-0.12,-0.09,0.45,0.47
0.5223379135131836,-0.15,-0.04,0.15,0.21
0.5323097705841064,-0.11,-0.03,-0.11,0.15
0.5588397979736328,-0.14,0.06,-0.05,0.16
0.5606379508972168,-0.33,0.14,0.25,0.43
0.5621588230133057,-0.41,-0.01,0.32,0.52
0.5690946578979492,-0.37,-0.14,0.38,0.54
0.5792226791381836,-0.38,-0.11,0.52,0.65
0.5891628265380859,-0.39,-0.11,0.36,0.54
0.5989868640899658,-0.33,-0.01,0.33,0.46
0.6088457107543945,-0.22,0.01,0.18,0.28
0.6188158988952637,-0.12,0.01,0.0,0.12
0.6309299468994141,-0.03,0.06,-0.15,0.16
0.6410417556762695,0.03,0.06,-0.36,0.36
0.6664566993713379,-0.04,0.18,-0.3,0.35
0.6680936813354492,0.0,0.27,-0.41,0.49
0.6697828769683838,0.03,0.17,-0.65,0.67
0.6840176582336426,-0.06,0.18,-0.64,0.66
0.6882607936859131,-0.29,0.32,-0.34,0.54
0.698908805847168,-0.41,0.3,0.09,0.51
0.7082219123840332,-0.47,0.08,0.44,0.64
0.717869758605957,-0.56,-0.12,0.69,0.89
0.7281527519226074,-0.54,-0.15,0.61,0.82
0.7381157875061035,-0.41,0.06,0.54,0.68
0.7630019187927246,-0.14,0.11,0.19,0.26
0.7648367881774902,-0.08,0.03,-0.24,0.25
0.7676029205322266,-0.25,0.24,-0.27,0.43
0.7830898761749268,-0.41,0.33,-0.35,0.63
0.787531852722168,-0.56,0.25,-0.58,0.84
0.7992897033691406,-0.72,0.29,-0.76,1.08
0.8072938919067383,-0.92,0.43,-0.72,1.24
0.817631721496582,-1.14,0.53,-0.64,1.41
0.8300356864929199,-1.21,0.5,-0.6,1.44
0.8372559547424316,-1.21,0.4,-0.58,1.4
0.8623678684234619,-1.15,0.37,-0.58,1.34
0.8641748428344727,-1.09,0.4,-0.71,1.36
0.8668227195739746,-1.06,0.52,-0.98,1.53
0.8832559585571289,-1.06,0.69,-1.3,1.81
0.8867249488830566,-1.1,0.81,-1.39,1.94
0.8966717720031738,-1.31,0.96,-1.0,1.9
0.9066677093505859,-1.71,1.16,-0.62,2.15
0.9170389175415039,-2.06,1.28,-0.77,2.54
0.9293956756591797,-2.35,1.51,-0.96,2.95
0.9391307830810547,-2.66,2.29,-1.04,3.66
0.9626989364624023,-2.71,3.09,-1.69,4.44
0.9645788669586182,-2.43,3.76,-2.72,5.23
0.9660818576812744,-1.86,4.28,-3.63,5.91
0.9832248687744141,-1.98,4.61,-4.11,6.48
0.9859619140625,-1.77,4.07,-4.6,6.39
0.9971237182617188,-1.6,3.31,-4.24,5.61
1.0060358047485352,-1.33,3.09,-3.6,4.92
1.015542984008789,-0.43,2.9,-3.51,4.57
1.0262057781219482,0.38,2.52,-2.88,3.84
1.036181926727295,0.52,2.16,-2.17,3.1
1.0686697959899902,0.76,2.1,-1.59,2.74
1.0703988075256348,0.89,1.92,-0.94,2.31
1.071793794631958,1.22,2.72,0.23,2.98
1.0824036598205566,0.39,1.63,-0.44,1.73
1.0851569175720215,-1.65,-0.04,-2.37,2.88
1.0982987880706787,-3.54,-0.14,-2.24,4.19
1.1051197052001953,-5.19,0.1,-1.8,5.49
1.1164708137512207,-6.35,-0.1,-1.42,6.5
1.1252107620239258,-6.69,-0.5,-0.7,6.74
1.135422706604004,-6.35,-0.89,0.41,6.42
1.1695818901062012,-5.7,-1.33,1.25,5.98
1.1713178157806396,-5.22,-1.77,1.71,5.77
1.1727657318115234,-5.31,-2.1,1.72,5.96
1.1836466789245605,-5.86,-2.19,1.95,6.55
1.1850919723510742,-6.46,-2.36,2.03,7.17
1.1993956565856934,-6.67,-2.57,2.21,7.48
1.204359769821167,-6.38,-2.99,2.25,7.39
1.21616792678833,-5.75,-3.55,2.01,7.05
1.2241277694702148,-5.13,-3.82,1.72,6.62
1.2365798950195312,-4.69,-3.96,1.02,6.22
1.2668828964233398,-4.24,-3.68,0.69,5.65
1.2685878276824951,-3.44,-3.08,0.73,4.67
1.270014762878418,-2.08,-2.86,0.79,3.62
1.2833099365234375,-0.8,-2.87,0.58,3.03
1.284822940826416,-0.03,-3.0,0.29,3.01
1.3004426956176758,0.35,-3.17,0.1,3.19
1.3036057949066162,0.43,-3.29,0.32,3.33
1.315384864807129,0.63,-3.59,0.57,3.68
1.3234896659851074,0.94,-3.87,0.94,4.09
1.3336949348449707,1.36,-3.89,0.64,4.17
1.3691768646240234,1.89,-3.31,0.77,3.88
1.3710367679595947,2.52,-3.35,1.02,4.31
1.3724579811096191,3.06,-3.34,1.61,4.8
1.3836658000946045,3.84,-2.88,2.85,5.58
1.3851819038391113,4.82,-2.68,3.41,6.48
1.3997278213500977,5.49,-2.55,3.13,6.81
1.4028358459472656,5.32,-1.92,2.23,6.07
1.4161927700042725,5.13,-1.41,1.98,5.67
1.4226279258728027,5.35,-1.53,1.85,5.86
1.432966709136963,5.55,-1.67,1.25,5.92
1.446420669555664,5.83,-1.73,0.73,6.12
1.4720048904418945,6.29,-1.82,0.56,6.57
1.4736778736114502,6.74,-1.99,0.59,7.05
1.475273847579956,7.21,-2.12,0.86,7.56
1.4818649291992188,8.23,-1.79,1.85,8.62
1.492136001586914,9.54,-1.54,2.62,10.01
1.5024189949035645,10.02,-1.79,2.8,10.55
1.5121238231658936,7.8,-2.41,2.49,8.53
1.5218758583068848,5.17,-3.24,3.62,7.09
1.531829833984375,4.74,-4.14,4.49,7.73
1.5424447059631348,3.21,-3.87,2.64,5.67
1.5685877799987793,-7.98,-3.29,-5.59,10.28
1.570180892944336,-24.17,10.49,-31.87,41.35
1.5717837810516357,-28.56,57.46,-6.16,64.46
1.5850918292999268,-14.66,61.36,23.2,67.21
1.5912327766418457,-5.04,16.56,-10.54,20.26
1.6013259887695312,-0.17,-9.3,-1.5,9.42
1.6114997863769531,4.5,-19.45,3.34,20.24
1.6212007999420166,9.97,-21.23,4.55,23.89
1.631760835647583,11.83,-17.36,4.87,21.56
1.6450719833374023,9.22,-9.52,4.36,13.95
1.6680049896240234,5.04,-2.52,3.84,6.81
1.6696066856384277,1.26,1.62,-0.53,2.11
1.6712868213653564,-0.95,5.05,-5.5,7.52
1.6846699714660645,-1.06,7.53,-5.55,9.41
1.6908459663391113,-0.64,6.13,-2.05,6.49
1.7005319595336914,0.06,0.54,1.11,1.23
1.7103328704833984,1.01,-2.46,2.52,3.66
1.720749855041504,1.23,-3.13,1.91,3.86
1.7303247451782227,0.6,-1.65,0.89,1.96
1.7411036491394043,-0.11,0.55,-0.52,0.76
1.7679476737976074,-0.25,1.2,-1.86,2.22
1.7695579528808594,0.07,0.71,-1.49,1.65
1.7713558673858643,0.19,-0.08,-0.19,0.28
1.7851848602294922,-0.05,-0.3,0.62,0.69
1.7901837825775146,-0.32,-0.01,0.65,0.72
1.7998697757720947,-0.41,0.31,0.32,0.6
1.8101298809051514,-0.37,0.41,-0.04,0.55
1.8200926780700684,-0.42,0.37,-0.3,0.63
1.830265998840332,-0.48,0.35,-0.52,0.78
1.843458652496338,-0.37,0.34,-0.62,0.79
1.8710379600524902,-0.37,0.25,-0.55,0.7
1.8725337982177734,-0.5,0.14,-0.8,0.95
1.8741836547851562,-0.5,0.25,-0.85,1.01
1.8845229148864746,-0.41,0.4,-0.57,0.8
1.8891468048095703,-0.28,0.43,-0.14,0.53
1.8989849090576172,-0.31,0.27,0.15,0.43
1.9092397689819336,-0.51,0.14,0.26,0.58
1.9189486503601074,-0.81,0.11,0.16,0.83
1.9290738105773926,-0.87,0.22,-0.27,0.93
1.9425148963928223,-0.85,0.32,-0.65,1.11
1.9699058532714844,-0.82,0.4,-0.9,1.28
1.9714927673339844,-0.67,0.42,-0.95,1.23
1.973130702972412,-0.42,0.32,-0.85,1.0
1.9846348762512207,-0.26,0.21,-0.8,0.86
1.9883418083190918,-0.41,0.2,-0.48,0.66
1.9984259605407715,-0.95,0.32,-0.26,1.03
2.0082359313964844,-1.43,0.55,-0.25,1.55
2.0180916786193848,-1.49,0.7,-0.33,1.67
2.0278098583221436,-1.07,0.65,-0.65,1.41
2.040705680847168,-0.72,0.48,-0.87,1.22
2.0725159645080566,-0.81,0.4,-0.85,1.24
2.0741708278656006,-1.15,0.46,-0.43,1.31
2.075821876525879,-1.6,0.69,-0.18,1.75
2.080495834350586,-1.65,1.11,-0.14,1.99
2.0876097679138184,-1.55,1.53,-0.31,2.19
2.099785804748535,-1.52,1.85,-0.76,2.51
2.1076297760009766,-1.88,2.26,-0.9,3.07
2.117311954498291,-2.56,3.07,-0.34,4.01
2.127401828765869,-2.76,3.43,-1.21,4.56
2.137356758117676,-3.0,3.93,-1.62,5.2
2.1731066703796387,-3.6,4.39,-1.96,6.0
2.175015926361084,-4.38,5.02,-2.13,6.99
2.17642879486084,-5.07,6.07,-2.14,8.19
2.1797237396240234,-5.67,8.06,-1.77,10.01
2.1998608112335205,-6.65,10.17,-2.5,12.4
2.201375961303711,-8.04,12.14,-3.48,14.97
2.2155346870422363,-9.97,13.31,-4.96,17.35
2.2170917987823486,-11.94,13.46,-5.72,18.87
2.2296128273010254,-12.8,12.9,-6.83,19.41
2.236466884613037,-12.34,11.38,-8.09,18.63
2.2494916915893555,-11.36,9.9,-8.44,17.27
2.2734718322753906,-9.13,10.14,-6.32,15.03
2.275371789932251,-5.33,11.68,-2.57,13.09
2.2769017219543457,-0.78,11.88,-2.06,12.08
2.2860817909240723,1.05,6.85,-5.1,8.6
2.3000316619873047,0.57,1.33,-5.08,5.28
2.305908679962158,-1.26,-3.24,-4.16,5.42
2.3159358501434326,0.24,-1.44,0.63,1.59
2.3259849548339844,3.34,-1.99,6.8,7.83
2.3361806869506836,-0.03,-7.09,0.62,7.11
2.348813772201538,-4.91,-8.07,-3.13,9.95
2.3738248348236084,-7.84,-5.46,-1.47,9.66
2.3753387928009033,-9.47,-2.99,-0.49,9.94
2.376617908477783,-9.88,-2.62,-0.03,10.22
2.3853888511657715,-8.08,-3.98,0.24,9.01
2.400298833847046,-5.1,-5.82,1.28,7.84
2.405153751373291,-3.74,-7.22,1.85,8.33
2.416738986968994,-4.13,-7.81,1.65,8.98
2.4250268936157227,-5.02,-6.82,1.26,8.56
2.435098648071289,-5.55,-5.78,0.53,8.03
2.4452056884765625,-5.35,-5.39,-0.2,7.59
2.471895694732666,-4.85,-5.23,-0.47,7.14
2.4735898971557617,-4.4,-5.66,-0.78,7.21
2.4750547409057617,-4.29,-6.31,-1.07,7.7
2.4846549034118652,-4.26,-6.73,-1.08,8.03
2.494640827178955,-3.97,-6.87,-0.85,7.97
2.504377841949463,-3.38,-6.95,-0.52,7.74
2.514265775680542,-2.83,-7.2,-0.39,7.74
2.5243217945098877,-2.67,-7.48,-0.21,7.94
2.534341812133789,-2.81,-7.42,0.13,7.93
2.544773817062378,-2.9,-6.82,0.94,7.47
2.5741958618164062,-2.56,-5.4,1.41,6.14
2.5757017135620117,-1.01,-4.1,1.15,4.37
2.5769476890563965,1.65,-3.3,0.87,3.79
2.5838069915771484,4.04,-1.94,1.59,4.75
2.600301742553711,5.42,-0.25,3.07,6.23
2.6036338806152344,5.97,1.51,3.91,7.29
2.6159708499908447,6.57,3.55,4.02,8.48
2.6234560012817383,7.83,5.35,3.17,9.99
2.633408784866333,9.72,6.96,2.19,12.15
2.646326780319214,12.13,8.53,1.84,14.94
2.6786856651306152,14.54,9.12,1.54,17.23
2.6802737712860107,16.55,9.12,1.73,18.97
2.681638717651367,18.26,8.81,2.36,20.41
2.7006118297576904,19.66,7.7,3.04,21.33
2.7020959854125977,20.78,5.43,3.77,21.8
2.7168188095092773,20.27,1.87,4.23,20.79
2.718289852142334,16.37,-0.97,4.54,17.01
2.7334537506103516,8.33,-1.56,2.99,8.98
2.7349019050598145,-3.43,-5.0,-4.46,7.52
2.7540178298950195,-19.77,-2.75,-25.37,32.28
2.7775659561157227,-33.63,29.72,-19.88,49.08
2.779528856277466,-19.18,61.32,30.08,70.94
2.7810139656066895,-9.72,26.98,1.79,28.73
2.801180839538574,-0.85,-1.45,-2.53,3.03
2.802663803100586,5.5,-11.95,3.25,13.55
2.816649913787842,9.14,-17.43,2.41,19.82
2.8180928230285645,11.79,-16.17,1.41,20.06
2.833401679992676,12.02,-10.74,3.28,16.44
2.8348536491394043,8.88,-4.3,5.74,11.41
2.849946975708008,4.13,-0.6,1.14,4.32
2.8728067874908447,0.11,1.98,-3.82,4.3
2.8745758533477783,-1.08,5.08,-3.62,6.33
2.8760857582092285,-1.05,6.57,-1.23,6.76
2.8814358711242676,-0.53,2.09,-0.12,2.15
2.89162278175354,0.5,-1.87,1.21,2.28
2.9012937545776367,1.33,-2.73,1.3,3.3
2.9113826751708984,1.34,-2.02,0.86,2.57
2.921527862548828,0.6,-0.32,0.24,0.72
2.9314777851104736,0.19,0.61,-0.63,0.89
2.9411308765411377,0.3,0.56,-0.63,0.89
2.977747917175293,0.32,0.05,-0.34,0.46
2.9794528484344482,0.06,-0.12,0.02,0.13
2.9809117317199707,-0.28,0.13,0.21,0.37
3.0008058547973633,-0.45,0.37,-0.05,0.58
3.0022428035736084,-0.58,0.44,-0.23,0.76
3.0168488025665283,-0.53,0.48,-0.38,0.8
3.0183229446411133,-0.4,0.44,-0.39,0.71
3.034226894378662,-0.48,0.3,-0.39,0.68
3.0363948345184326,-0.69,0.24,-0.62,0.95
3.050126791000366,-0.85,0.3,-0.76,1.17
3.0542826652526855,-0.81,0.39,-0.98,1.32
3.0851569175720215,-0.61,0.4,-0.97,1.21
3.0867767333984375,-0.45,0.5,-0.42,0.79
3.0881338119506836,-0.58,0.51,0.04,0.77
3.102353811264038,-0.84,0.51,0.15,0.99
3.1037378311157227,-0.92,0.48,0.16,1.04
3.117058753967285,-0.85,0.39,0.19,0.95
3.1197798252105713,-0.79,0.19,0.16,0.82
3.1334638595581055,-0.64,0.02,-0.3,0.7
3.139547824859619,-0.47,-0.01,-0.54,0.71
3.149549961090088,-0.23,0.12,-0.65,0.69
3.176069736480713,0.14,0.29,-0.53,0.62
3.177968978881836,0.34,0.42,-0.27,0.6
3.1794028282165527,0.13,0.49,0.08,0.51
3.18934965133667,-0.39,0.57,0.17,0.71
3.199246883392334,-0.91,0.81,0.3,1.25
3.2092058658599854,-1.49,1.02,0.26,1.82
3.21919584274292,-1.98,1.29,0.48,2.41
3.2292778491973877,-2.17,1.35,0.15,2.56
3.2389678955078125,-1.95,1.52,-0.28,2.48
3.2489688396453857,-1.72,1.55,-0.78,2.44
3.273782730102539,-1.64,1.74,-1.15,2.65
3.275453805923462,-1.69,2.04,-1.57,3.07
3.278547763824463,-1.99,2.51,-1.79,3.66
3.288803815841675,-2.41,2.98,-2.02,4.33
3.30061674118042,-2.87,3.37,-2.27,4.97
3.308382987976074,-3.21,3.74,-2.28,5.43
3.318241834640503,-3.54,4.11,-2.14,5.83
3.328436851501465,-4.07,4.99,-1.56,6.62
3.338629722595215,-5.03,6.32,-1.32,8.18
3.3510618209838867,-6.34,7.8,-1.48,10.16
3.376199722290039,-8.31,9.48,-2.08,12.77
3.377814769744873,-10.25,10.82,-3.49,15.3
3.3787827491760254,-11.33,11.53,-4.25,16.71
3.3884339332580566,-11.86,11.56,-5.48,17.44
3.3975629806518555,-11.73,10.84,-7.04,17.45
3.407601833343506,-11.46,9.78,-8.12,17.11
3.4177968502044678,-10.22,10.98,-5.75,16.06
3.4273667335510254,-6.26,13.78,-2.25,15.3
3.4382266998291016,-0.75,14.42,-2.72,14.69
3.447603702545166,2.13,10.58,-4.62,11.73
3.4807119369506836,1.34,4.37,-5.49,7.14
3.482339859008789,-2.74,-0.78,-5.51,6.2
3.483752727508545,-4.89,-3.79,-5.46,8.25
3.4999499320983887,-0.45,-0.01,-0.77,0.89
3.5014758110046387,3.42,-0.66,4.88,5.99
3.517049789428711,-0.39,-4.15,-0.17,4.17
3.518486976623535,-5.07,-4.51,-2.17,7.12
3.533890724182129,-7.8,-2.66,-0.14,8.24
3.536623954772949,-9.71,-1.26,0.41,9.79
3.549846649169922,-11.57,-1.13,-0.08,11.62
3.583589792251587,-11.41,-1.52,0.6,11.52
3.585308790206909,-8.79,-2.98,1.72,9.43
3.5867257118225098,-6.1,-4.81,2.24,8.08
3.6011908054351807,-4.86,-6.04,1.86,7.97
3.6026439666748047,-4.8,-6.28,1.36,8.02
3.6171107292175293,-4.9,-5.47,0.52,7.36
3.618574857711792,-4.68,-4.68,-0.45,6.63
3.6336917877197266,-4.37,-4.42,-1.5,6.39
3.635765790939331,-4.18,-4.41,-2.32,6.5
3.6499948501586914,-3.9,-4.63,-2.82,6.67
3.6824898719787598,-3.5,-4.99,-2.93,6.76
3.684443950653076,-3.11,-5.53,-2.94,6.99
3.6858949661254883,-2.7,-6.17,-2.75,7.27
3.701253890991211,-2.17,-6.79,-2.65,7.6
3.7027196884155273,-1.67,-7.38,-2.6,8.0
3.7170357704162598,-1.38,-7.81,-2.35,8.27
3.718507766723633,-1.28,-7.85,-1.67,8.12
3.7336788177490234,-1.33,-7.51,-0.82,7.67
3.735076904296875,-1.0,-6.69,-0.26,6.76
3.753046989440918,0.33,-5.79,-0.13,5.8
3.780284881591797,2.43,-5.12,0.19,5.67
3.781622886657715,4.09,-4.05,1.26,5.89
3.78262996673584,4.88,-2.57,2.42,6.02
3.8012609481811523,5.27,-0.82,2.78,6.01
3.8026976585388184,6.4,1.82,2.96,7.28
3.8173537254333496,8.71,4.98,2.98,10.46
3.818786859512329,11.65,7.91,2.71,14.33
3.834012985229492,14.82,11.06,2.91,18.71
3.835495948791504,17.18,13.19,2.47,21.79
3.854614734649658,19.11,13.37,1.51,23.37
3.8573389053344727,21.47,11.55,2.39,24.49
3.888274669647217,22.02,11.03,3.24,24.84
3.88991379737854,18.46,14.45,3.79,23.74
3.891207695007324,11.09,7.72,-1.7,13.61
3.9011669158935547,-2.5,3.49,-9.44,10.37
3.903970718383789,-12.07,23.84,-6.1,27.4
3.9175329208374023,-13.47,40.74,8.02,43.65
3.923642873764038,-13.89,9.49,-1.71,16.9
3.9341328144073486,-5.01,-5.79,1.43,7.78
3.943680763244629,5.35,-8.1,3.74,10.4
3.9534497261047363,11.67,-10.51,7.62,17.45
3.9815096855163574,13.29,-10.08,6.64,17.95
3.9834389686584473,9.34,-4.76,1.94,10.66
3.9846768379211426,3.04,0.31,1.32,3.32
4.001587867736816,-0.29,2.35,-2.75,3.62
4.003049850463867,-0.64,3.12,-5.31,6.19
4.01741886138916,1.18,2.32,-1.65,3.08
4.023098945617676,1.78,0.16,1.38,2.25
4.033467769622803,0.8,-1.03,2.58,2.89
4.042981863021851,0.28,-0.9,1.13,1.47
4.052617788314819,0.91,-0.22,-0.59,1.1
4.083868980407715,1.37,0.13,-0.61,1.5
4.085296869277954,1.24,-0.3,0.08,1.27
4.086289882659912,1.09,-0.57,0.33,1.27
4.101441860198975,1.06,-0.41,-0.09,1.14
4.10287880897522,0.89,-0.04,-0.46,1.0
4.117447853088379,0.7,0.16,-0.39,0.81
4.122318744659424,0.55,0.1,0.07,0.56
4.132099866867065,0.33,-0.07,0.55,0.64
4.142265796661377,-0.01,-0.14,0.83,0.84
4.1523377895355225,-0.34,-0.04,0.74,0.81
4.183255672454834,-0.41,0.11,0.4,0.58
4.184711933135986,-0.17,0.19,-0.13,0.28
4.185654878616333,0.25,0.12,-0.53,0.59
4.198722839355469,0.36,0.0,-0.72,0.8
4.201577663421631,0.02,0.05,-0.69,0.69
4.217749834060669,-0.42,0.26,-0.38,0.62
4.221419811248779,-0.68,0.35,-0.08,0.76
4.233852863311768,-0.8,0.35,0.18,0.89
4.241167783737183,-0.84,0.35,0.29,0.95
4.251792907714844,-0.87,0.48,0.28,1.03
4.292017936706543,-0.81,0.6,0.03,1.0
4.293461799621582,-0.64,0.58,-0.3,0.91
4.294426918029785,-0.51,0.56,-0.36,0.83
4.296635866165161,-0.57,0.56,-0.33,0.86
4.317953824996948,-0.8,0.6,-0.4,1.07
4.319392681121826,-1.04,0.72,-0.51,1.36
4.33383584022522,-1.43,0.88,-0.69,1.81
4.335359811782837,-1.77,1.11,-0.76,2.22
4.3498358726501465,-1.89,1.26,-0.83,2.41
4.351313829421997,-2.01,1.4,-1.01,2.64
4.396270751953125,-1.77,1.74,-1.22,2.76
4.397463798522949,-1.66,1.83,-1.27,2.77
4.398456811904907,-1.86,2.01,-1.02,2.92
4.418429851531982,-2.28,2.16,-0.99,3.29
4.419918775558472,-2.64,2.47,-0.95,3.73
4.4339258670806885,-2.74,2.87,-1.07,4.1
4.435375690460205,-2.71,3.12,-1.23,4.31
4.450743675231934,-2.82,3.36,-1.31,4.57
4.452205657958984,-3.12,3.53,-1.32,4.89
4.46985387802124,-3.45,3.53,-1.44,5.14
4.496639728546143,-3.73,3.62,-1.57,5.42
4.498096942901611,-4.41,4.12,-1.62,6.24
4.499165773391724,-5.7,5.34,-1.36,7.92
4.518103837966919,-7.17,6.97,-1.12,10.06
4.519561767578125,-8.44,8.28,-2.06,12.0
4.5341997146606445,-9.36,8.9,-3.88,13.48
4.535676002502441,-9.9,8.89,-5.63,14.44
4.550910949707031,-10.13,8.64,-6.78,14.94
4.552355766296387,-10.52,8.78,-7.75,15.74
4.566358804702759,-10.42,11.1,-6.94,16.73
4.591745853424072,-7.91,15.2,-3.65,17.51
4.593193769454956,-2.96,15.87,-4.04,16.64
4.594247817993164,1.16,11.99,-7.03,13.94
4.596428871154785,1.83,6.81,-6.39,9.51
4.618048667907715,-1.59,2.28,-5.5,6.16
4.619509696960449,-5.42,-1.78,-4.09,7.01
4.634011745452881,-3.74,-2.93,-4.32,6.42
4.6354899406433105,3.55,1.54,1.03,4.0
4.649962902069092,5.81,-1.57,3.95,7.19
4.651472806930542,0.31,-4.32,-1.87,4.71
4.666540861129761,-5.11,-4.56,-1.57,7.02
4.69440484046936,-8.41,-3.67,0.05,9.17
4.6957879066467285,-10.78,-2.87,-0.08,11.15
4.696847915649414,-12.25,-2.48,-0.34,12.5
4.7185750007629395,-11.28,-2.86,0.08,11.63
4.720091819763184,-7.99,-4.21,1.09,9.09
4.7338457107543945,-5.26,-5.56,1.77,7.85
4.735339879989624,-4.36,-6.39,1.49,7.87
4.751258850097656,-4.61,-6.69,1.33,8.23
4.752738952636719,-4.75,-6.31,0.77,7.93
4.76619291305542,-4.5,-5.66,-0.07,7.23
4.792588710784912,-4.13,-5.25,-0.87,6.73
4.793903827667236,-3.87,-4.97,-1.39,6.45
4.7949018478393555,-3.68,-4.97,-1.54,6.37
4.797302722930908,-3.73,-5.04,-1.36,6.41
4.806835651397705,-3.78,-5.42,-1.1,6.69
4.817134857177734,-3.59,-5.9,-0.65,6.93
4.827115774154663,-3.15,-6.24,-0.14,6.99
4.837037801742554,-2.7,-6.44,0.08,6.98
4.846920967102051,-2.44,-6.38,0.29,6.83
4.856646776199341,-2.23,-5.98,0.58,6.4
4.886847972869873,-1.85,-5.32,1.08,5.73
4.8881707191467285,-1.35,-4.38,1.7,4.88
4.889188766479492,-0.05,-3.31,1.74,3.73
4.901208877563477,2.19,-2.19,1.76,3.56
4.906143665313721,4.54,-0.83,1.87,4.97
4.9178948402404785,6.49,1.07,2.72,7.11
4.926357746124268,8.16,3.33,3.59,9.51
4.936067819595337,9.37,5.07,3.44,11.19
4.945964813232422,10.44,6.83,3.41,12.93
4.955854892730713,11.46,8.69,3.79,14.87
4.985718727111816,13.03,9.5,4.45,16.72
4.9871039390563965,14.61,9.0,5.08,17.89
4.988111972808838,15.76,7.3,6.15,18.42
5.001757860183716,16.55,5.18,7.47,18.88
5.005439758300781,14.17,4.08,6.55,16.13
5.017958879470825,12.89,9.57,4.87,16.77
5.025787830352783,13.39,4.76,-6.14,15.48
5.035459995269775,3.34,-1.15,-20.32,20.62
5.045312881469727,-6.33,16.86,-18.28,25.66
5.055774688720703,-4.67,48.57,6.11,49.17
5.090765953063965,-6.84,19.94,-8.29,22.65
5.092202663421631,-2.44,-3.35,-3.35,5.32
5.09326171875,4.36,-6.64,5.33,9.56
5.1004087924957275,7.87,-12.79,8.0,17.01
5.104830741882324,10.75,-14.34,8.03,19.63
5.116854667663574,8.73,-6.88,7.2,13.24
5.124558925628662,3.48,-0.96,2.86,4.6
5.134568691253662,0.19,1.35,-1.79,2.25
5.144556999206543,-1.45,3.86,-3.86,5.64
5.1543238162994385,-1.57,4.67,-2.55,5.54
5.192790985107422,-0.37,1.42,0.43,1.52
5.194054841995239,1.01,-1.45,2.27,2.87
5.195028781890869,1.69,-1.98,1.47,2.98
5.197152853012085,1.76,-1.24,-0.64,2.24
5.218028783798218,1.77,0.02,-1.77,2.5
5.219494819641113,1.4,0.31,-1.36,1.97
5.235151767730713,0.67,-0.22,-0.36,0.79
5.236634731292725,0.26,-0.43,0.05,0.5
5.250380992889404,0.41,-0.13,-0.2,0.47
5.253625869750977,0.67,0.19,-0.45,0.82
5.294825792312622,0.69,0.17,-0.3,0.77
5.295965671539307,0.59,-0.07,0.04,0.59
5.29693078994751,0.44,-0.23,0.44,0.66
5.31891393661499,0.07,-0.2,0.71,0.74
5.320387840270996,-0.15,-0.09,0.69,0.71
5.334517955780029,-0.2,0.01,0.52,0.55
5.3359599113464355,-0.17,0.14,0.31,0.38
5.351571798324585,-0.05,0.13,-0.09,0.16
5.353019714355469,0.0,0.02,-0.4,0.4
5.366853713989258,-0.12,0.07,-0.23,0.26
5.395166873931885,-0.28,0.17,-0.11,0.34
5.396546840667725,-0.3,0.19,-0.25,0.43
5.397505760192871,-0.14,0.2,-0.38,0.45
5.418938875198364,-0.01,0.19,-0.32,0.37
5.42042875289917,0.02,0.13,-0.13,0.18
5.434276819229126,-0.09,0.06,0.19,0.21
5.435718774795532,-0.22,0.09,0.22,0.32
5.451671838760376,-0.38,0.23,0.05,0.44
5.4531097412109375,-0.53,0.39,-0.17,0.67
5.466911792755127,-0.61,0.5,-0.38,0.87
5.468362808227539,-0.58,0.55,-0.53,0.95
5.5123608112335205,-0.5,0.51,-0.58,0.92
5.513510704040527,-0.61,0.55,-0.63,1.03
5.5145018100738525,-1.04,0.65,-0.51,1.32
5.535664796829224,-1.59,0.87,-0.27,1.83
5.537115812301636,-1.97,1.02,-0.47,2.26
5.551286697387695,-2.1,1.15,-0.85,2.54
5.5526628494262695,-2.09,1.35,-1.16,2.74
5.568538665771484,-1.93,1.61,-1.71,3.03
5.569986820220947,-1.58,1.91,-2.23,3.33
5.587484836578369,-1.47,2.2,-2.51,3.64
5.615626811981201,-1.82,2.7,-2.14,3.89
5.616970777511597,-2.33,3.18,-2.23,4.52
5.617955684661865,-2.84,4.27,-1.65,5.38
5.636192798614502,-3.47,5.35,-1.28,6.5
5.637613773345947,-4.21,6.28,-1.05,7.63
5.648585796356201,-5.08,7.59,-0.89,9.17
5.6500208377838135,-6.05,8.9,-1.76,10.9
5.668231964111328,-6.77,9.64,-3.03,12.16
5.669774770736694,-7.13,10.12,-3.32,12.81
5.68147087097168,-7.9,10.66,-3.61,13.75
5.707864761352539,-9.46,11.11,-4.84,15.37
5.709226846694946,-9.97,11.54,-6.03,16.39
5.710332870483398,-9.41,11.06,-7.67,16.42
5.716105937957764,-9.19,9.66,-9.6,16.42
5.717038869857788,-8.98,10.45,-8.21,16.03
5.734799861907959,-6.74,13.46,-4.1,15.6
5.736287832260132,-2.36,13.9,-4.32,14.74
5.751506805419922,1.13,9.23,-6.01,11.07
5.752968788146973,0.32,2.84,-5.58,6.26
5.7669408321380615,-3.32,-1.64,-4.63,5.92
5.792946815490723,-3.29,-0.17,-0.42,3.32
5.794252872467041,0.3,0.96,5.32,5.41
5.7953057289123535,-1.48,-3.85,0.68,4.18
5.799320697784424,-5.08,-4.74,-2.79,7.48
5.818055868148804,-7.67,-2.25,-1.93,8.22
5.819089889526367,-9.56,-0.83,-1.94,9.79
5.834781646728516,-9.53,-0.77,-1.7,9.71
5.839378833770752,-7.09,-2.14,-0.88,7.45
5.850220680236816,-4.48,-3.97,0.33,5.99
5.859233856201172,-3.71,-5.41,1.12,6.65
5.8939208984375,-4.22,-6.26,1.44,7.68
5.895073890686035,-4.59,-6.41,1.46,8.01
5.896245956420898,-4.5,-6.38,0.98,7.86
5.898433685302734,-4.42,-6.05,0.14,7.49
5.908531665802002,-4.42,-5.63,-0.6,7.18
5.918580770492554,-5.03,-5.12,-1.07,7.25
5.928538799285889,-5.78,-5.1,-1.3,7.81
5.9387078285217285,-6.21,-5.14,-0.99,8.12
5.948637962341309,-6.04,-5.52,-0.96,8.23
5.958375930786133,-5.47,-5.86,-0.75,8.05
5.994273662567139,-5.15,-6.2,-0.37,8.06
5.995646953582764,-5.03,-6.65,-0.09,8.33
5.996590852737427,-4.97,-7.09,-0.19,8.66
5.998852729797363,-4.9,-7.51,-0.3,8.97
6.007803916931152,-4.78,-7.69,-0.45,9.06
6.017947673797607,-4.61,-7.53,-0.35,8.83
6.027791976928711,-4.41,-6.94,-0.09,8.22
6.037877798080444,-3.94,-5.85,0.42,7.06
6.047889709472656,-2.8,-4.76,0.66,5.56
6.057768821716309,-1.07,-3.82,0.35,3.98
6.095464706420898,0.98,-2.22,0.86,2.57
6.096778869628906,3.63,0.05,1.68,4.0
6.097771883010864,6.53,2.49,2.45,7.4
6.119119882583618,8.88,5.13,2.91,10.66
6.120635986328125,10.67,8.15,4.11,14.04
6.135089874267578,12.57,10.73,4.99,17.26
6.136683940887451,14.63,11.6,4.64,19.23
6.148834705352783,16.37,11.49,4.03,20.4
6.150360822677612,17.32,11.98,3.56,21.35
6.164797782897949,15.59,15.93,1.99,22.37
6.191186904907227,15.45,18.65,-1.2,24.24
6.192594766616821,16.25,17.95,-7.1,25.23
6.193594932556152,6.85,19.6,-7.52,22.08
6.197369813919067,-1.28,29.56,-1.42,29.62
6.2062458992004395,-1.57,14.74,-0.16,14.82
6.219902992248535,-0.72,-3.21,0.94,3.42
6.226670742034912,2.52,-3.47,5.54,7.0
6.236233711242676,4.92,-5.55,7.31,10.41
6.246246814727783,6.18,-8.46,4.33,11.33
6.256128787994385,7.37,-4.02,2.42,8.73
6.266356945037842,5.19,1.25,2.16,5.75
6.2984089851379395,2.13,1.35,-0.4,2.55
6.2995758056640625,-0.25,0.21,-2.49,2.51
6.300588846206665,-0.87,0.6,-1.82,2.1
6.319314002990723,0.39,0.73,0.07,0.83
6.320795774459839,1.81,-0.15,1.22,2.18
6.333962917327881,2.21,-0.64,0.77,2.42
6.3354668617248535,1.68,-0.63,-0.1,1.79
6.351982831954956,1.05,-0.39,-0.3,1.15
6.355244874954224,0.93,-0.23,0.18,0.97
6.3670008182525635,0.84,-0.37,0.72,1.16
6.397028923034668,0.64,-0.33,0.77,1.05
6.398319721221924,0.41,0.06,0.29,0.5
6.399294853210449,0.14,0.39,-0.16,0.44
6.419282913208008,0.21,0.44,-0.24,0.54
6.4207377433776855,0.48,0.16,-0.06,0.5
6.435279846191406,0.5,-0.28,0.0,0.57
6.4367828369140625,0.32,-0.52,-0.27,0.66
6.451863765716553,0.03,-0.32,-0.49,0.58
6.454539775848389,-0.25,0.1,-0.18,0.32
6.467376708984375,-0.32,0.27,-0.06,0.42
6.496540784835815,-0.41,0.28,-0.18,0.52
6.497935771942139,-0.59,0.37,-0.25,0.73
6.498962879180908,-0.68,0.38,-0.37,0.86
6.5188658237457275,-0.64,0.34,-0.27,0.77
6.520338773727417,-0.54,0.31,-0.09,0.62
6.534911870956421,-0.45,0.24,-0.12,0.52
6.536334991455078,-0.39,0.21,-0.18,0.47
6.552177906036377,-0.48,0.24,0.1,0.54
6.55368185043335,-0.56,0.26,0.32,0.69
6.5673828125,-0.63,0.31,0.29,0.75
6.596075773239136,-0.67,0.39,0.2,0.8
6.59749174118042,-0.49,0.4,-0.02,0.63
6.598503828048706,-0.39,0.39,-0.11,0.56
6.619151830673218,-0.61,0.52,-0.09,0.8
6.620605945587158,-0.85,0.63,-0.57,1.2
6.635211944580078,-1.28,0.77,-0.91,1.74
6.63671088218689,-1.69,0.97,-0.93,2.15
6.652101993560791,-1.86,1.06,-0.87,2.31
6.65356183052063,-1.88,1.17,-0.77,2.34
6.667411804199219,-1.91,1.48,-1.09,2.65
6.70386266708374,-1.98,1.98,-1.34,3.1
6.70512580871582,-2.09,2.4,-1.46,3.5
6.706119775772095,-2.4,3.23,-1.13,4.17
6.719190835952759,-2.65,3.96,-1.12,4.89
6.72029972076416,-2.92,4.3,-1.33,5.36
6.734945774078369,-3.07,4.41,-1.7,5.63
6.736400842666626,-3.15,4.39,-1.95,5.74
6.7527947425842285,-3.26,4.39,-2.1,5.85
6.754235744476318,-3.8,4.64,-1.92,6.29
6.76666784286499,-4.76,5.57,-1.58,7.49
6.7986979484558105,-5.95,6.66,-2.07,9.16
6.800078868865967,-7.3,7.81,-3.02,11.1
6.801050662994385,-8.76,8.52,-3.84,12.8
6.817436695098877,-9.8,9.17,-3.73,13.92
6.818436861038208,-10.36,9.7,-4.52,14.89
6.832194805145264,-10.57,9.7,-6.55,15.77
6.833585739135742,-11.15,10.05,-8.27,17.13
6.8521809577941895,-12.06,12.61,-7.82,19.12
6.8536529541015625,-9.81,17.62,-4.21,20.6
6.866016864776611,-3.95,18.17,-5.26,19.32
6.897746801376343,0.42,12.23,-7.83,14.52
6.899042844772339,0.5,5.5,-7.98,9.7
6.90012788772583,-3.45,1.35,-6.03,7.07
6.918791770935059,-6.08,-2.74,-5.03,8.35
6.919893741607666,-3.0,-2.46,-4.71,6.1
6.93533992767334,4.0,-0.43,1.57,4.31
6.936805725097656,4.63,-5.54,0.55,7.24
6.952108860015869,-1.54,-7.72,-4.63,9.13
6.953598976135254,-6.46,-8.02,-3.21,10.78
6.967533826828003,-9.4,-7.99,-2.37,12.56
6.998668670654297,-11.55,-7.46,-2.33,13.94
7.000503778457642,-13.05,-6.9,-2.57,14.98
7.0015387535095215,-13.4,-7.22,-2.72,15.46
7.019672870635986,-11.96,-7.58,-1.29,14.21
7.021159648895264,-9.49,-7.89,0.21,12.34
7.034953832626343,-7.87,-8.35,0.43,11.48
7.03641676902771,-7.64,-8.13,0.42,11.16
7.052097797393799,-8.22,-7.22,0.26,10.94
7.0536158084869385,-8.45,-6.57,-0.58,10.71
7.0664448738098145,-8.1,-6.26,-1.25,10.31
7.069835662841797,-7.45,-5.88,-1.62,9.62
7.113098859786987,-6.72,-5.34,-2.01,8.81
7.11423397064209,-6.05,-4.63,-2.36,7.97
7.115236759185791,-5.31,-3.79,-2.72,7.06
7.1361658573150635,-4.38,-2.8,-2.98,5.99
7.137642860412598,-3.42,-1.66,-3.29,5.02
7.152103900909424,-2.69,-0.57,-3.73,4.63
7.153573989868164,-2.39,0.78,-4.04,4.75
7.168673992156982,-2.19,3.09,-3.46,5.12
7.170119762420654,-1.87,6.32,-3.24,7.34
7.1843647956848145,-0.97,10.02,-4.38,10.97
7.214411735534668,0.84,14.37,-5.32,15.34
7.215737819671631,3.3,19.71,-4.6,20.5
7.216757774353027,6.05,24.58,-3.71,25.58
7.233880996704102,8.77,23.64,-4.85,25.67
7.235397815704346,11.03,19.43,-3.86,22.67
7.24997878074646,13.72,17.07,-2.11,22.0
7.251468658447266,16.95,14.85,-0.94,22.55
7.265786647796631,21.05,14.56,2.26,25.69
7.267340660095215,22.73,13.17,7.8,27.4
7.283084869384766,17.23,7.96,6.81,20.16
7.311040878295898,10.05,6.0,6.24,13.26
7.31227970123291,8.63,8.22,8.01,14.35
7.313350677490234,11.66,7.09,6.87,15.27
7.3159027099609375,14.39,4.27,4.98,15.81
7.317798852920532,13.91,2.8,4.47,14.87
7.328033924102783,10.96,1.62,4.35,11.9
7.337841987609863,5.59,1.12,2.32,6.15
7.347988843917847,0.07,-1.32,-0.73,1.51
7.357949733734131,-4.52,-8.66,-3.94,10.53
7.367726802825928,-10.26,-10.69,-7.05,16.4
7.396971702575684,-20.03,-4.05,-9.07,22.35
7.398194789886475,-18.32,12.54,6.28,23.07
7.399197816848755,-5.21,23.54,22.07,32.68
7.418900966644287,0.67,17.38,4.91,18.07
7.419968843460083,5.14,4.76,-7.85,10.52
7.435171842575073,11.88,1.07,-4.34,12.69
7.436733722686768,13.2,-1.95,-0.72,13.36
7.4525299072265625,9.37,-4.04,0.31,10.2
7.456978797912598,4.36,-4.91,1.82,6.81
7.467523813247681,2.05,-4.38,1.22,4.98
7.504077911376953,2.69,-1.71,-0.93,3.32
7.505924701690674,3.65,1.03,-1.23,3.98
7.5069358348846436,3.02,1.55,-0.54,3.43
7.519221782684326,1.56,0.08,0.55,1.65
7.520280838012695,0.25,-0.56,1.8,1.9
7.535434722900391,-0.71,-0.12,2.48,2.58
7.536958694458008,-1.1,0.03,2.06,2.33
7.552384853363037,-0.51,-0.02,1.33,1.42
7.556294918060303,0.29,-0.01,0.77,0.82
7.5660929679870605,0.43,-0.04,0.04,0.43
7.603194713592529,0.1,0.16,-0.55,0.58
7.604467868804932,-0.02,0.31,-1.4,1.43
7.6055028438568115,0.28,0.06,-2.22,2.23
7.61953067779541,0.65,-0.34,-2.43,2.53
7.620575904846191,0.5,-0.55,-1.84,1.98
7.635523796081543,0.02,-0.22,-0.2,0.29
7.636999845504761,-0.45,0.16,1.35,1.43
7.652232646942139,-1.01,0.38,1.93,2.21
7.655510902404785,-1.33,0.52,1.37,1.97
7.667978763580322,-1.06,0.42,-0.17,1.15
7.70417594909668,-0.49,0.2,-1.61,1.69
7.705513954162598,-0.34,0.27,-1.98,2.02
7.706561803817749,-0.86,0.55,-1.3,1.65
7.719583988189697,-1.48,0.65,-0.47,1.68
7.720632791519165,-1.54,0.57,0.19,1.65
7.735718727111816,-1.06,0.4,0.25,1.16
7.7371838092803955,-0.5,0.23,0.18,0.57
7.752448797225952,-0.19,0.11,0.24,0.32
7.754673957824707,-0.14,-0.01,0.2,0.24
7.767753839492798,-0.06,-0.07,0.07,0.11
7.802980899810791,0.11,-0.02,0.03,0.11
7.804191827774048,0.21,0.06,0.05,0.22
7.805218696594238,0.12,0.1,0.02,0.15
7.819832801818848,-0.19,0.21,0.2,0.34
7.820883750915527,-0.46,0.3,0.26,0.6
7.835538864135742,-0.63,0.36,0.09,0.73
7.8370277881622314,-0.71,0.41,-0.25,0.85
7.852531909942627,-0.76,0.54,-0.31,0.98
7.854022979736328,-0.86,0.71,-0.64,1.28
7.867801666259766,-1.12,0.82,-1.01,1.71
7.874071836471558,-1.52,1.11,-0.85,2.06
7.914859771728516,-1.87,1.6,-0.53,2.51
7.915978908538818,-1.85,1.84,-0.82,2.73
7.916974782943726,-1.6,2.13,-1.22,2.93
7.936403751373291,-1.58,2.34,-1.89,3.39
7.937872886657715,-1.49,2.73,-2.02,3.7
7.952462673187256,-1.56,2.83,-1.92,3.75
7.953948974609375,-2.0,2.72,-1.58,3.72
7.969048976898193,-2.72,2.84,-0.98,4.05
7.970546722412109,-3.34,3.21,-0.53,4.66
7.984532833099365,-3.83,3.73,-0.43,5.36
8.013588905334473,-4.41,4.51,-0.46,6.32
8.015559673309326,-5.36,5.32,-0.73,7.58
8.016557693481445,-6.48,6.23,-1.15,9.06
8.036207675933838,-7.44,7.24,-1.66,10.51
8.037677764892578,-8.43,8.51,-2.24,12.18
8.052698850631714,-9.91,9.95,-3.63,14.5
8.054212808609009,-11.32,11.33,-4.52,16.64
8.068322658538818,-12.48,11.62,-5.85,18.02
8.069829940795898,-13.46,11.48,-6.54,18.86
8.082401752471924,-11.7,13.84,-3.86,18.52
8.1110258102417,-6.39,14.86,-3.85,16.62
8.112315654754639,-0.16,13.2,-6.24,14.6
8.113355875015259,2.82,9.61,-4.94,11.16
8.115808963775635,0.95,3.3,-5.24,6.26
8.12146782875061,-3.58,-1.07,-5.31,6.49
8.13174295425415,-5.35,-4.19,-5.59,8.79
8.141409873962402,-0.34,-1.22,-4.88,5.04
8.15158486366272,5.16,-0.37,1.31,5.33
8.161939859390259,2.56,-4.36,-1.14,5.18
8.171729803085327,-3.58,-5.45,-4.1,7.7
8.201228857040405,-7.37,-5.46,-2.27,9.44
8.202646732330322,-10.13,-4.93,-1.69,11.39
8.20369577407837,-12.49,-4.41,-1.85,13.37
8.219878673553467,-13.9,-4.18,-1.92,14.64
8.220909833908081,-12.98,-4.27,-0.76,13.68
8.23518180847168,-10.02,-4.92,1.17,11.22
8.241469860076904,-7.61,-5.9,1.76,9.78
8.25262975692749,-6.77,-6.46,1.57,9.48
8.261217832565308,-7.19,-5.87,1.53,9.4
8.270877838134766,-7.76,-4.99,0.97,9.27
8.308688879013062,-7.36,-4.91,0.05,8.84
8.31007194519043,-6.4,-4.91,-0.75,8.1
8.31109881401062,-5.48,-4.84,-1.28,7.42
8.318954944610596,-4.72,-4.81,-1.65,6.93
8.336018800735474,-3.96,-4.79,-1.93,6.5
8.337539672851562,-3.18,-4.7,-2.11,6.05
8.352707862854004,-2.49,-4.64,-2.05,5.65
8.35421895980835,-1.94,-4.67,-2.07,5.46
8.368258953094482,-1.41,-4.39,-2.08,5.05
8.37015676498413,-0.83,-3.53,-1.72,4.01
8.412836790084839,-0.12,-2.2,-1.16,2.48
8.414040803909302,0.94,-0.68,-1.43,1.84
8.415030002593994,2.74,0.87,-1.83,3.4
8.436580657958984,5.03,2.72,-1.57,5.92
8.437642812728882,7.6,5.31,-0.08,9.27
8.452911853790283,10.07,8.23,1.18,13.05
8.454436779022217,11.89,10.83,1.76,16.17
8.46784782409668,13.25,12.54,2.11,18.36
8.469321727752686,14.69,12.87,2.48,19.68
8.484956741333008,16.07,11.82,2.41,20.09
8.514883995056152,17.04,10.86,2.86,20.4
8.516194820404053,17.53,10.04,3.49,20.5
8.51721477508545,17.9,8.68,4.05,20.3
8.536203861236572,16.77,10.97,4.28,20.49
8.537271976470947,16.07,10.16,4.66,19.57
8.552677869796753,13.33,4.63,1.09,14.15
8.55423378944397,3.08,-3.18,-4.48,6.29
8.569278717041016,-8.9,-3.54,-10.1,13.91
8.57074785232544,-15.69,11.75,-4.43,20.09
8.584674835205078,-9.62,33.96,11.78,37.21
8.612476825714111,-4.13,17.94,1.72,18.48
8.613998889923096,3.92,2.23,-2.48,5.14
8.615036964416504,9.0,-5.09,1.84,10.5
8.617169857025146,9.36,-9.76,2.05,13.67
8.618522882461548,9.43,-8.46,1.32,12.73
8.628029823303223,8.31,-4.68,2.57,9.87
8.637966871261597,4.98,-2.0,0.89,5.43
8.647974967956543,1.84,0.22,0.19,1.86
8.657898902893066,-0.02,1.96,0.43,2.0
8.66781997680664,-0.74,1.62,-0.13,1.78
8.677796840667725,-0.13,0.53,-0.14,0.56
8.70932388305664,0.87,-0.01,0.45,0.97
8.710532665252686,1.03,-0.48,0.79,1.38
8.711813926696777,0.67,-0.84,0.95,1.43
8.717137813568115,0.34,-0.77,0.66,1.06
8.727152824401855,0.18,-0.38,0.08,0.42
8.737007856369019,0.4,0.03,-0.27,0.48
8.747049808502197,0.56,0.07,-0.34,0.65
8.756794929504395,0.64,-0.01,-0.47,0.79
8.767335891723633,0.78,0.01,-0.26,0.82
8.777109861373901,0.67,-0.02,0.01,0.67
8.808849811553955,0.4,-0.01,0.21,0.45
8.810158729553223,0.06,-0.03,0.17,0.18
8.81121277809143,-0.04,0.0,0.22,0.22
8.817407846450806,-0.01,0.04,0.3,0.3
8.835961818695068,-0.12,0.06,0.18,0.22
8.837016820907593,-0.39,0.17,-0.1,0.43
8.852609872817993,-0.44,0.31,-0.41,0.67
8.856032848358154,-0.22,0.37,-0.64,0.77
8.868176937103271,-0.03,0.3,-0.92,0.96
8.87630581855774,-0.06,0.21,-1.02,1.04
8.908902883529663,-0.24,0.25,-0.41,0.53
8.910092830657959,-0.58,0.33,0.25,0.71
8.911388874053955,-0.85,0.41,0.37,1.01
8.9162278175354,-0.86,0.56,0.29,1.06
8.925890922546387,-0.75,0.6,0.09,0.96
8.93595266342163,-0.67,0.5,-0.3,0.88
8.945508003234863,-0.73,0.43,-0.5,0.98
8.955346822738647,-0.81,0.42,-0.6,1.09
8.965820789337158,-0.81,0.47,-0.77,1.21
8.975496768951416,-0.8,0.53,-0.9,1.31
9.006325721740723,-0.8,0.63,-0.84,1.32
9.00755786895752,-1.07,0.69,-0.85,1.53
9.008567810058594,-1.67,0.86,-0.98,2.11
9.019325733184814,-2.34,1.25,-0.85,2.78
9.024942874908447,-2.77,1.73,-0.51,3.3
9.035057783126831,-2.53,1.98,-0.52,3.25
9.044926881790161,-2.04,2.1,-1.25,3.18
9.054534912109375,-1.52,2.74,-1.36,3.41
9.06507682800293,-1.59,3.23,-1.52,3.9
9.07490086555481,-2.27,3.65,-1.21,4.46
9.110838890075684,-3.27,3.92,-1.17,5.23
9.112259864807129,-4.11,4.25,-1.22,6.03
9.113240718841553,-4.51,4.82,-1.47,6.76
9.11560869216919,-4.7,5.51,-2.13,7.54
9.135767936706543,-5.01,6.35,-2.84,8.57
9.136769771575928,-5.77,7.21,-3.6,9.91
9.150341987609863,-7.58,8.16,-4.14,11.88
9.153751850128174,-9.57,9.61,-3.68,14.05
9.169797897338867,-10.9,10.71,-3.74,15.73
9.174379825592041,-11.54,10.86,-5.15,16.66
9.20959997177124,-11.72,9.98,-7.92,17.31
9.210753917694092,-11.96,9.09,-9.67,17.86
9.211991786956787,-10.85,11.96,-6.76,17.5
9.21689486503601,-6.9,15.55,-3.48,17.36
9.223428726196289,-1.24,14.45,-5.45,15.49
9.234343767166138,1.64,8.89,-7.61,11.81
9.24346399307251,0.13,2.76,-8.06,8.52
9.253016948699951,-3.53,-1.27,-5.94,7.02
9.263286828994751,-4.82,-4.39,-5.45,8.49
9.273090839385986,0.31,-1.22,-2.25,2.57
9.309830665588379,5.39,-1.75,3.46,6.63
9.311210870742798,2.28,-6.12,-1.25,6.64
9.312203884124756,-3.48,-7.31,-4.35,9.19
9.316065788269043,-7.5,-7.36,-2.5,10.8
9.336115837097168,-10.43,-6.31,-1.71,12.3
9.33713984489441,-12.58,-5.02,-1.65,13.64
9.35286569595337,-13.41,-4.11,-1.49,14.1
9.353896856307983,-11.44,-4.19,-0.47,12.19
9.368643760681152,-7.83,-5.33,0.64,9.49
9.372489929199219,-5.4,-6.64,0.86,8.6
9.41124176979065,-4.94,-7.44,0.62,8.95
9.412441730499268,-5.6,-6.93,0.12,8.91
9.41365385055542,-5.99,-6.01,-0.82,8.52
9.415639877319336,-5.68,-5.56,-1.81,8.15
9.436056852340698,-5.2,-5.42,-2.43,7.89
9.437124729156494,-4.7,-5.57,-2.89,7.84
9.45276165008545,-4.11,-5.88,-3.18,7.84
9.453674793243408,-3.46,-6.07,-3.3,7.72
9.468546867370605,-2.78,-6.19,-3.24,7.51
9.471752882003784,-2.2,-6.37,-3.14,7.43
9.484718799591064,-1.91,-6.42,-3.32,7.47
9.511292934417725,-1.84,-5.8,-3.07,6.81
9.512631893157959,-1.64,-4.74,-2.26,5.5
9.513662815093994,-1.0,-3.55,-1.44,3.95
9.521365880966187,0.08,-1.93,-1.06,2.2
9.53612995147705,1.42,-0.12,-1.02,1.75
9.54093885421753,3.08,2.34,-0.17,3.87
9.552862882614136,5.21,6.14,1.84,8.26
9.560816764831543,7.64,10.8,3.5,13.68
9.570917844772339,9.86,15.69,4.14,18.98
9.581710815429688,11.46,19.33,3.57,22.75
9.612791776657104,12.58,20.54,2.74,24.24
9.613974809646606,13.89,19.41,1.61,23.92
9.61512279510498,15.77,16.73,2.36,23.11
9.620454788208008,17.33,13.14,4.19,22.14
9.630851745605469,18.31,10.73,5.75,21.98
9.640209674835205,18.35,10.96,6.48,22.33
9.64998483657837,17.76,9.15,8.15,21.57
9.660094738006592,11.85,4.18,5.46,13.7
9.670324802398682,0.85,-1.36,0.37,1.64
9.680169820785522,-8.08,-5.64,-7.74,12.53
9.711619853973389,-15.2,-2.44,-12.74,19.98
9.712793827056885,-13.38,12.29,-0.58,18.17
9.714065790176392,-3.86,23.84,9.83,26.07
9.719616889953613,0.31,9.06,1.69,9.22
9.736241817474365,6.05,-0.4,0.23,6.06
9.739471912384033,11.26,-3.48,0.61,11.8
9.752969741821289,11.28,-4.16,1.57,12.12
9.759461879730225,7.11,-3.05,1.59,7.89
9.76937198638916,2.96,-2.45,2.81,4.76
9.779425859451294,0.85,-1.57,1.57,2.37
9.810938835144043,0.9,0.33,0.5,1.08
9.812025785446167,1.25,1.45,0.44,1.96
9.812920808792114,1.2,1.02,0.31,1.6
9.818743705749512,0.97,-0.31,-0.14,1.02
9.836199760437012,0.97,-0.9,0.18,1.33
9.838701725006104,1.2,-0.67,0.36,1.42
9.853033781051636,0.96,-0.27,0.18,1.01
9.85868787765503,0.58,0.05,-0.12,0.59
9.869117736816406,0.51,0.11,-0.18,0.55
9.878845691680908,0.61,-0.11,0.07,0.62
9.916838884353638,0.65,-0.35,0.23,0.77
9.91805386543274,0.69,-0.44,0.2,0.84
9.919057846069336,0.7,-0.34,0.22,0.8
9.937112808227539,0.41,-0.05,0.33,0.52
9.938190937042236,-0.05,0.15,0.34,0.37
9.952708721160889,-0.28,0.2,0.06,0.34
9.954181671142578,-0.26,0.19,-0.22,0.39
9.969647884368896,-0.19,0.2,-0.37,0.46
9.971056938171387,-0.05,0.12,-0.74,0.75
9.985381841659546,0.13,0.02,-0.99,0.99
10.014279842376709,0.17,0.03,-0.84,0.85
10.015686988830566,-0.12,0.13,-0.41,0.44
10.016689777374268,-0.55,0.22,-0.12,0.6
10.036650657653809,-0.9,0.36,-0.07,0.97
10.037708759307861,-1.02,0.56,-0.02,1.16
10.052814960479736,-0.82,0.57,-0.13,1.0
10.053851842880249,-0.65,0.41,-0.22,0.79
10.07010269165039,-0.71,0.3,-0.33,0.83
10.071492671966553,-0.94,0.32,-0.51,1.11
10.085538864135742,-1.05,0.51,-0.64,1.33
10.115628719329834,-0.98,0.6,-0.81,1.4
10.11693286895752,-0.81,0.64,-0.81,1.31
10.117860794067383,-0.63,0.63,-0.68,1.12
10.136802673339844,-0.62,0.64,-0.58,1.06
10.13785982131958,-0.88,0.73,-0.57,1.27
10.154756784439087,-1.23,0.9,-0.48,1.59
10.156199932098389,-1.59,1.03,-0.29,1.91
10.170247793197632,-1.85,1.05,-0.22,2.13
10.1716947555542,-2.0,1.16,-0.13,2.31
10.18578290939331,-2.27,1.51,-0.25,2.73
10.215043783187866,-2.38,1.92,-0.55,3.1
10.216369867324829,-2.44,2.46,-1.1,3.63
10.217402935028076,-2.28,3.22,-1.42,4.19
10.236958980560303,-1.96,3.66,-1.59,4.44
10.237983703613281,-1.82,3.77,-1.77,4.54
10.252817869186401,-2.11,3.48,-1.86,4.47
10.254312992095947,-2.57,3.17,-1.77,4.44
10.270269870758057,-2.9,3.12,-1.38,4.47
10.271736860275269,-3.42,3.52,-1.21,5.05
10.286167860031128,-4.19,4.15,-1.67,6.12
10.287639856338501,-4.94,5.06,-1.86,7.31
10.33147668838501,-6.29,6.16,-2.29,9.09
10.33269476890564,-8.21,7.32,-3.47,11.53
10.333702802658081,-9.53,8.62,-3.8,13.4
10.353709697723389,-10.24,9.49,-4.03,14.53
10.35474967956543,-10.8,9.8,-5.36,15.53
10.370170831680298,-11.84,9.74,-7.96,17.27
10.371651649475098,-12.21,12.28,-7.68,18.94
10.383904933929443,-10.06,16.62,-4.78,20.0
10.385388851165771,-4.11,16.66,-6.57,18.37
10.402578830718994,1.3,12.73,-7.94,15.05
10.433384895324707,2.11,6.2,-6.27,9.06
10.434679985046387,-1.77,0.76,-6.12,6.41
10.435722827911377,-5.65,-2.27,-4.34,7.47
10.454062938690186,-3.22,-2.06,-3.88,5.44
10.455115795135498,4.54,3.15,1.07,5.62
10.470411777496338,6.9,-0.39,3.33,7.67
10.47188687324524,1.52,-4.24,-3.07,5.45
10.486962795257568,-4.4,-5.1,-2.92,7.34
10.488452911376953,-8.57,-5.31,-1.1,10.14
10.502221822738647,-11.73,-5.23,-0.95,12.87
10.53183889389038,-13.57,-5.2,-0.77,14.55
10.533260822296143,-12.88,-5.57,-0.14,14.03
10.534284830093384,-9.21,-6.15,1.37,11.15
10.553724765777588,-5.91,-7.01,1.45,9.28
10.554714679718018,-4.86,-7.65,0.96,9.11
10.570709705352783,-5.58,-7.25,0.96,9.19
10.57215166091919,-6.63,-6.67,0.8,9.43
10.586942672729492,-6.99,-6.58,0.23,9.6
10.588454723358154,-6.87,-6.73,-0.45,9.62
10.60185980796814,-6.42,-6.82,-0.96,9.41
10.630282878875732,-5.85,-6.83,-1.15,9.06
10.631663799285889,-5.19,-6.82,-1.28,8.66
10.632592678070068,-4.43,-6.92,-1.43,8.34
10.65390682220459,-3.73,-7.08,-1.54,8.14
10.654948711395264,-3.21,-7.25,-1.39,8.04
10.670413970947266,-2.88,-7.28,-1.13,7.91
10.671876907348633,-2.61,-6.88,-0.72,7.39
10.686956882476807,-2.42,-6.17,0.03,6.62
10.688379764556885,-2.21,-4.94,1.0,5.5
10.702855825424194,-1.52,-3.29,0.95,3.74
10.734686851501465,0.11,-1.36,0.84,1.6
10.735971927642822,2.64,1.38,1.68,3.42
10.736992835998535,5.56,5.12,3.05,8.15
10.754822731018066,8.47,9.4,4.71,13.5
10.75583791732788,10.65,13.57,4.96,17.94
10.769087791442871,12.32,17.46,4.55,21.84
10.770599842071533,13.82,19.92,4.64,24.68
10.785890817642212,15.11,18.86,3.14,24.36
10.787336826324463,16.31,15.95,1.97,22.89
10.800846815109253,17.14,13.11,2.91,21.77
10.830758810043335,17.13,10.78,3.36,20.51
10.832080841064453,16.17,12.42,2.58,20.55
10.833076000213623,15.64,7.42,0.79,17.32
10.853858947753906,7.66,-0.42,-2.99,8.23
10.854918956756592,-3.86,-4.87,-7.34,9.61
10.869950771331787,-14.21,-2.39,-12.92,19.35
10.870993852615356,-14.85,14.06,-1.74,20.52
10.887150764465332,-4.56,28.22,12.45,31.17
10.8886137008667,0.42,8.45,2.81,8.91
10.90222978591919,4.15,-5.65,0.7,7.04
10.93225383758545,9.79,-3.62,2.35,10.69
10.933682918548584,10.92,-4.1,3.07,12.06
10.93467378616333,7.37,-3.19,0.24,8.03
10.953871726989746,3.34,-0.13,1.35,3.6
10.954907894134521,0.93,0.81,0.55,1.35
10.970019817352295,0.55,0.5,-0.78,1.07
10.971076965332031,1.33,0.15,-0.83,1.57
10.987171649932861,1.92,0.13,-0.99,2.16
10.988619804382324,1.81,0.06,-0.73,1.95
11.00260591506958,1.2,-0.17,0.26,1.23
11.032065868377686,0.55,-0.51,1.14,1.36
11.033466815948486,0.36,-0.59,1.08,1.28
11.034429788589478,0.46,-0.26,0.6,0.79
11.054414749145508,0.61,-0.06,0.22,0.65
11.055463790893555,0.62,-0.09,0.03,0.62
11.069946765899658,0.57,-0.07,0.27,0.63
11.070972919464111,0.45,-0.18,0.34,0.59
11.087177753448486,0.56,-0.26,0.12,0.62
11.08864688873291,0.75,-0.22,-0.09,0.78
11.10256290435791,0.67,-0.14,-0.28,0.73
11.103985786437988,0.33,-0.03,-0.38,0.5
11.149791717529297,-0.05,0.1,-0.21,0.23
11.151014804840088,-0.28,0.16,-0.04,0.32
11.151979923248291,-0.4,0.11,-0.35,0.54
11.170430660247803,-0.3,0.1,-0.4,0.5
11.171456813812256,-0.13,0.12,-0.53,0.55
11.187054872512817,-0.04,0.12,-0.54,0.55
11.188262939453125,-0.17,0.18,-0.49,0.54
11.203531742095947,-0.45,0.27,-0.34,0.62
11.204994678497314,-0.77,0.42,-0.08,0.88
11.21896481513977,-0.92,0.57,0.04,1.08
11.251843929290771,-0.89,0.52,-0.21,1.05
11.253230810165405,-0.65,0.42,-0.4,0.87
11.25424575805664,-0.54,0.33,-0.44,0.77
11.270934820175171,-0.6,0.35,-0.5,0.85
11.271979808807373,-0.65,0.41,-0.74,1.06
11.287662982940674,-0.66,0.53,-0.79,1.15
11.289151668548584,-0.83,0.58,-0.81,1.29
11.30424165725708,-1.1,0.65,-0.91,1.56
11.305657863616943,-1.38,0.78,-1.27,2.03
11.319563865661621,-1.56,1.05,-1.38,2.33
11.352385997772217,-1.68,1.33,-1.1,2.4
11.353793859481812,-1.7,1.48,-0.96,2.44
11.354793787002563,-1.74,1.55,-0.93,2.5
11.371217727661133,-2.17,1.88,-0.66,2.94
11.372286796569824,-2.71,2.58,-0.59,3.78
11.387077808380127,-3.12,3.37,-1.03,4.7
11.388558864593506,-3.27,4.25,-1.07,5.46
11.403978824615479,-3.71,4.65,-1.29,6.08
11.405375957489014,-4.01,5.15,-1.44,6.68
11.419387817382812,-4.18,5.39,-2.02,7.11
11.450328826904297,-4.45,5.88,-2.26,7.71
11.45180892944336,-5.23,6.79,-2.67,8.97
11.452801704406738,-6.28,7.69,-3.32,10.46
11.471035957336426,-7.32,8.98,-3.23,12.02
11.472100734710693,-9.19,10.34,-3.94,14.38
11.487022876739502,-11.16,11.19,-5.29,16.66
11.48802900314331,-11.74,11.41,-6.28,17.53
11.504247665405273,-11.14,10.11,-8.02,17.04
11.505781650543213,-10.9,8.45,-8.92,16.42
11.519640922546387,-9.8,10.72,-5.17,15.41
11.549400806427002,-6.4,14.29,-1.46,15.72
11.550753831863403,-1.02,13.17,-4.66,14.0
11.55176067352295,1.46,7.02,-7.28,10.21
11.570806980133057,-0.27,1.22,-7.1,7.2
11.571861743927002,-3.7,-2.74,-5.59,7.24
11.586944818496704,-3.98,-4.54,-5.01,7.84
11.587954998016357,1.91,-0.68,0.83,2.19
11.604368686676025,4.43,-3.89,3.24,6.72
11.6058828830719,-0.55,-7.48,-2.62,7.94
11.619578838348389,-5.39,-7.85,-2.96,9.97
11.649495840072632,-8.77,-7.32,-1.32,11.49
11.6508469581604,-11.32,-6.16,-0.79,12.91
11.651834964752197,-13.1,-5.09,-0.68,14.07
11.671109676361084,-13.16,-4.23,-0.17,13.82
11.672146797180176,-10.72,-4.58,0.84,11.68
11.68707275390625,-7.78,-5.78,1.65,9.83
11.688122749328613,-6.29,-6.74,1.89,9.41
11.704218864440918,-6.23,-6.89,1.98,9.49
11.705643653869629,-6.46,-6.28,1.51,9.13
11.719813823699951,-6.26,-5.8,0.46,8.54
11.74899673461914,-5.89,-5.56,-0.43,8.11
11.750431776046753,-5.42,-5.43,-1.24,7.77
11.751425743103027,-4.74,-5.27,-1.85,7.32
11.770823001861572,-3.96,-5.02,-2.34,6.8
11.771900653839111,-3.14,-4.96,-2.58,6.41
11.78696084022522,-2.43,-5.14,-3.02,6.43
11.7879798412323,-2.0,-4.98,-2.96,6.12
11.804240703582764,-1.59,-4.1,-2.14,4.89
11.805729866027832,-0.76,-3.14,-1.72,3.66
11.819726943969727,0.89,-2.33,-2.11,3.26
11.850253820419312,2.92,-1.48,-2.36,4.03
11.851541996002197,4.6,-0.37,-2.06,5.05
11.852634906768799,5.74,1.26,-0.55,5.9
11.870867729187012,6.45,3.32,1.07,7.33
11.87194299697876,7.05,5.55,2.39,9.28
11.883710861206055,8.33,7.95,3.69,12.09
11.88479471206665,10.2,10.28,4.74,15.23
11.900555849075317,12.01,11.76,4.97,17.52
11.901614665985107,13.1,11.92,4.6,18.29
11.917407989501953,13.72,11.65,4.67,18.59
11.91886568069458,13.78,10.96,4.63,18.2
11.965056896209717,13.87,10.38,4.94,18.01
11.966212749481201,14.5,9.44,4.92,17.98
11.96723484992981,13.83,10.62,4.32,17.96
11.988184928894043,12.83,10.56,5.38,17.46
11.9892737865448,9.93,6.77,3.71,12.57
12.003875732421875,0.61,-0.63,-1.08,1.39
12.00492787361145,-9.82,-3.4,-6.55,12.28
12.021116733551025,-16.06,4.96,-6.3,17.95
12.022634983062744,-9.59,25.45,8.62,28.53
12.036208868026733,-3.76,18.37,4.07,19.18
12.064741849899292,2.47,3.17,0.07,4.01
12.066102981567383,9.78,-2.38,0.26,10.06
12.066998958587646,11.12,-6.27,1.56,12.86
12.087579727172852,7.75,-6.14,0.63,9.9
12.088606834411621,3.79,-4.26,1.9,6.01
12.10391879081726,1.07,-2.09,1.15,2.61
12.104918003082275,0.39,0.03,-0.96,1.03
12.122523784637451,1.47,1.4,-1.66,2.62
12.123944759368896,2.45,0.95,0.03,2.62
12.136648654937744,2.22,-0.36,1.9,2.94
12.165339946746826,0.83,-0.87,1.97,2.3
12.1666259765625,-0.16,-0.12,1.25,1.26
12.167451858520508,-0.06,0.34,0.55,0.64
12.187579870223999,0.64,0.05,-0.06,0.64
12.188548803329468,1.04,-0.4,-0.11,1.11
12.203922748565674,0.84,-0.41,-0.03,0.93
12.204956769943237,0.58,-0.07,-0.4,0.7
12.22069787979126,0.61,0.15,-0.99,1.17
12.221719741821289,0.66,0.21,-1.07,1.27
12.236117839813232,0.66,0.1,-0.39,0.77
12.265608787536621,0.51,-0.26,0.29,0.64
12.266641855239868,0.29,-0.51,0.57,0.81
12.26742172241211,0.14,-0.44,0.48,0.66
12.289496898651123,0.25,-0.11,0.13,0.3
12.290485858917236,0.36,0.16,0.08,0.4
12.303959846496582,0.39,0.13,-0.13,0.43
12.304999828338623,0.35,0.06,-0.18,0.39
12.320421695709229,0.06,0.06,-0.35,0.36
12.32173776626587,-0.35,0.34,-0.32,0.58
12.336554765701294,-0.65,0.59,-0.26,0.91
12.365002870559692,-0.73,0.59,-0.51,1.06
12.366236686706543,-0.71,0.47,-0.61,1.04
12.36699390411377,-0.67,0.43,-0.5,0.94
12.388108730316162,-0.7,0.46,-0.31,0.89
12.389033794403076,-0.73,0.46,-0.25,0.89
12.404223918914795,-0.76,0.42,-0.18,0.88
12.405216693878174,-0.81,0.37,-0.08,0.89
12.420799732208252,-0.93,0.41,-0.28,1.05
12.421826839447021,-0.98,0.56,-0.71,1.33
12.435540676116943,-0.98,0.75,-1.08,1.63
12.463743686676025,-0.95,0.86,-1.45,1.93
12.465072870254517,-1.16,0.83,-1.81,2.3
12.466002941131592,-1.45,1.05,-1.55,2.36
12.468234777450562,-1.55,1.15,-1.3,2.32
12.469468832015991,-1.7,1.27,-0.98,2.33
12.47070598602295,-1.84,1.98,-0.31,2.72
12.471880912780762,-2.12,2.65,-0.3,3.4
12.473126888275146,-2.53,3.09,-0.52,4.02
12.478424787521362,-2.94,3.39,-0.52,4.51
12.488755702972412,-3.24,3.52,-0.84,4.85
12.51993179321289,-3.33,3.68,-1.26,5.12
12.520786762237549,-3.41,4.08,-1.45,5.51
12.521488666534424,-3.83,4.64,-1.81,6.28
12.536866664886475,-4.56,5.27,-2.33,7.34
12.538037776947021,-5.38,6.35,-2.54,8.7
12.55402684211731,-6.31,7.68,-2.86,10.34
12.55814790725708,-7.48,9.13,-3.75,12.38
12.570876836776733,-8.86,10.2,-5.38,14.54
12.578045845031738,-9.85,10.88,-6.39,16.0
12.587661743164062,-10.11,10.53,-7.85,16.57
12.620940685272217,-9.85,8.92,-9.09,16.1
12.622038841247559,-9.75,8.21,-8.35,15.23
12.622885704040527,-7.63,11.57,-4.29,14.5
12.638136863708496,-3.77,13.75,-2.91,14.55
12.639001846313477,0.35,12.15,-4.54,12.97
12.65444564819336,1.53,6.56,-5.89,8.94
12.657386779785156,-1.53,1.22,-6.03,6.33
12.67091679573059,-4.68,-2.58,-5.49,7.66
12.677513837814331,-3.93,-5.25,-6.84,9.47
12.686989784240723,1.67,-1.73,-2.36,3.36
12.697242736816406,3.63,-3.42,1.4,5.18
12.727934837341309,-2.09,-6.11,-3.38,7.28
12.728908777236938,-7.14,-6.23,-3.01,9.94
12.729928970336914,-10.37,-5.69,-1.6,11.93
12.736686706542969,-13.4,-4.84,-1.33,14.3
12.746667861938477,-15.6,-3.72,-0.99,16.06
12.756642818450928,-15.44,-3.19,0.36,15.77
12.76675271987915,-12.22,-4.02,2.2,13.05
12.776670932769775,-8.72,-5.51,2.65,10.64
12.786613941192627,-7.16,-6.51,2.13,9.9
12.796716690063477,-7.3,-6.25,1.68,9.75
12.827207803726196,-7.57,-5.03,0.79,9.12
12.828338861465454,-6.81,-4.5,-0.7,8.19
12.829363822937012,-5.42,-4.16,-1.93,7.09
12.835742950439453,-4.02,-3.84,-2.72,6.18
12.846033811569214,-2.99,-3.68,-3.5,5.89
12.855798721313477,-2.28,-3.46,-4.12,5.84
12.865932941436768,-1.68,-3.27,-4.47,5.78
12.875903844833374,-1.05,-3.33,-4.61,5.78
12.885775804519653,-0.43,-3.66,-4.67,5.94
12.896002769470215,-0.13,-3.7,-3.77,5.28
12.927189826965332,-0.43,-3.16,-2.17,3.85
12.928335666656494,-0.34,-2.35,-1.13,2.62
12.929222822189331,0.78,-1.61,-0.62,1.89
12.935320854187012,2.07,-0.82,0.35,2.25
12.945271968841553,2.84,0.4,1.77,3.37
12.955161809921265,3.05,2.41,3.86,5.47
12.965048789978027,3.86,5.19,6.08,8.87
12.974883794784546,5.63,7.88,7.22,12.07
12.985138893127441,7.79,10.18,7.54,14.87
12.99527382850647,9.97,12.43,6.87,17.35
13.028793811798096,12.62,14.72,6.71,20.51
13.030186653137207,15.34,15.66,6.12,22.75
13.031184673309326,17.81,14.17,4.94,23.28
13.034825801849365,19.72,11.53,4.79,23.34
13.05464482307434,20.51,9.72,4.73,23.18
13.05567479133606,20.52,10.45,2.64,23.17
13.070854663848877,20.6,6.75,0.48,21.68
13.074158668518066,13.17,-0.29,-4.77,14.01
13.086833953857422,-1.53,-5.01,-11.43,12.57
13.094485759735107,-14.11,5.19,-13.06,19.91
13.133074760437012,-17.28,31.41,3.68,36.03
13.13431692123413,-13.44,24.38,5.03,28.28
13.135340690612793,-1.88,4.5,0.3,4.88
13.155080795288086,6.55,-3.95,0.77,7.68
13.156132698059082,9.32,-10.77,2.02,14.38
13.17117691040039,10.91,-11.2,1.27,15.68
13.172217845916748,10.94,-7.37,3.48,13.64
13.188069820404053,7.62,-3.13,4.07,9.18
13.189565658569336,3.33,-0.69,1.91,3.9
13.203626871109009,0.5,1.96,0.56,2.09
13.234338760375977,-0.85,2.92,-0.39,3.06
13.235570907592773,-0.64,1.51,0.06,1.64
13.236578941345215,0.51,0.4,1.51,1.64
13.254982948303223,0.73,-0.42,1.93,2.1
13.256019830703735,0.58,-1.1,1.52,1.96
13.270935773849487,0.71,-0.89,0.69,1.33
13.272018909454346,0.66,-0.39,0.05,0.76
13.288212776184082,0.51,-0.12,-0.27,0.58
13.289751768112183,0.48,-0.05,-0.55,0.73
13.303500652313232,0.71,-0.06,-0.69,0.99
13.33404278755188,1.25,-0.06,-0.7,1.43
13.335211753845215,1.36,-0.04,-0.59,1.48
13.336022853851318,0.73,-0.01,-0.26,0.77
13.355015754699707,0.17,-0.01,0.11,0.2
13.356013774871826,0.01,-0.04,0.46,0.46
13.371046781539917,0.0,-0.07,0.45,0.45
13.372044801712036,0.01,-0.05,0.3,0.3
13.388153791427612,-0.08,0.06,0.23,0.25
13.389640808105469,-0.25,0.13,-0.3,0.41
13.403884887695312,-0.23,0.18,-0.96,1.0
13.43229079246521,-0.15,0.37,-1.03,1.1
13.433541774749756,-0.27,0.43,-0.73,0.88
13.434374809265137,-0.42,0.31,-0.49,0.71
13.455405712127686,-0.53,0.24,-0.16,0.6
13.456442832946777,-0.58,0.28,0.05,0.64
13.47125768661499,-0.58,0.36,0.14,0.69
13.47219181060791,-0.47,0.43,0.11,0.64
13.487829685211182,-0.39,0.39,-0.24,0.6
13.488861799240112,-0.56,0.38,-0.68,0.95
13.503820896148682,-0.99,0.51,-0.66,1.29
13.505281925201416,-1.55,0.62,-0.67,1.79
13.55100679397583,-1.75,0.68,-1.07,2.16
13.552175998687744,-1.46,0.77,-1.37,2.14
13.553144931793213,-1.23,0.93,-1.44,2.1
13.571995735168457,-1.31,1.0,-1.37,2.14
13.573046684265137,-1.69,1.05,-1.14,2.29
13.586421966552734,-1.95,1.13,-0.84,2.4
13.587859869003296,-1.88,1.23,-0.94,2.43
13.604575872421265,-1.35,1.38,-1.08,2.21
13.60602879524231,-1.15,1.57,-1.22,2.29
13.620599746704102,-1.41,2.17,-0.67,2.67
13.651189804077148,-1.85,2.63,-0.93,3.34
13.6526038646698,-2.3,3.43,-0.82,4.21
13.653611660003662,-3.02,4.07,-0.65,5.1
13.671896934509277,-3.79,4.59,-0.8,6.0
13.67292070388794,-4.13,4.97,-1.64,6.66
13.687773704528809,-4.11,5.31,-2.34,7.11
13.688849925994873,-4.3,6.02,-2.73,7.88
13.704484939575195,-5.16,6.71,-3.49,9.15
13.705979824066162,-6.33,7.88,-3.43,10.67
13.719963788986206,-8.0,9.53,-3.47,12.91
13.749076843261719,-10.08,10.83,-4.29,15.4
13.750494956970215,-11.65,11.73,-5.62,17.46
13.751545906066895,-11.68,11.1,-7.89,17.94
13.771944999694824,-11.08,8.81,-9.05,16.8
13.773006916046143,-10.91,7.89,-8.33,15.83
13.788288831710815,-9.15,11.53,-4.28,15.32
13.789320945739746,-4.81,14.62,-2.7,15.62
13.805188655853271,0.36,12.73,-6.05,14.09
13.806671857833862,1.39,6.36,-8.5,10.7
13.820742845535278,-1.43,1.08,-7.95,8.14
13.851062774658203,-5.15,-2.71,-5.76,8.18
13.852320671081543,-3.87,-2.13,-3.32,5.52
13.853381872177124,2.6,0.32,2.8,3.83
13.871907711029053,2.53,-4.4,0.42,5.09
13.872965812683105,-2.54,-6.25,-4.1,7.89
13.888233661651611,-6.44,-5.98,-2.62,9.17
13.889291763305664,-9.34,-4.86,-1.72,10.66
13.904729843139648,-11.52,-3.88,-1.96,12.31
13.905768871307373,-12.68,-3.38,-2.01,13.27
13.920778751373291,-11.32,-3.73,-1.09,11.96
13.94848084449768,-8.7,-5.13,0.08,10.1
13.949792861938477,-6.83,-6.58,0.67,9.5
13.95060396194458,-6.22,-7.49,0.84,9.77
13.972142696380615,-6.38,-6.93,0.67,9.44
13.973230838775635,-6.44,-6.03,-0.14,8.82
13.988110780715942,-6.06,-5.8,-1.15,8.46
13.989122867584229,-5.4,-5.65,-1.83,8.02
14.004964828491211,-4.72,-5.59,-2.17,7.63
14.006054878234863,-4.21,-5.61,-2.52,7.45
14.020760774612427,-3.77,-5.75,-2.86,7.44
14.049824714660645,-3.31,-5.92,-3.21,7.5
14.051232814788818,-2.79,-6.07,-3.53,7.55
14.052214860916138,-2.34,-6.03,-3.86,7.53
14.071812868118286,-2.22,-5.47,-3.39,6.8
14.072855949401855,-2.19,-4.56,-2.38,5.59
14.088994979858398,-1.53,-3.36,-1.59,4.01
14.090017795562744,0.13,-2.43,-1.95,3.11
14.105592727661133,2.1,-1.54,-2.19,3.4
14.107088804244995,3.96,0.69,-1.0,4.14
14.12072467803955,5.69,3.97,1.11,7.02
14.149251937866211,7.44,7.38,2.96,10.88
14.150537967681885,9.47,10.8,4.0,14.91
14.151538848876953,11.18,13.72,3.87,18.11
14.168654918670654,12.37,16.16,2.96,20.56
14.169786930084229,13.81,17.9,1.95,22.69
14.184984683990479,16.31,17.57,1.78,24.03
14.186165809631348,18.97,14.55,1.98,23.98
14.202234745025635,20.73,11.3,4.38,24.01
14.203754901885986,21.28,9.95,6.47,24.36
14.221076965332031,19.76,10.86,7.5,23.76
14.253431797027588,15.3,6.14,7.2,17.98
14.254800796508789,3.45,-0.8,1.75,3.95
14.255627870559692,-8.2,-5.12,-6.42,11.6
14.272327899932861,-18.38,-0.47,-12.53,22.24
14.273424863815308,-17.32,24.96,2.5,30.48
14.28814172744751,-7.25,27.68,8.41,29.82
14.289191722869873,-0.58,4.3,2.8,5.16
14.305120944976807,7.09,-2.28,1.93,7.69
14.306168794631958,11.91,-5.34,1.96,13.19
14.3209707736969,11.99,-5.93,1.52,13.46
14.322383880615234,8.82,-3.84,-0.42,9.62
14.36744499206543,4.82,-2.22,-0.2,5.31
14.368588924407959,1.92,-0.86,-1.1,2.37
14.369576930999756,0.88,1.09,-1.32,1.92
14.388914823532104,1.05,1.36,0.11,1.72
14.389960765838623,1.09,-0.37,1.54,1.92
14.404715776443481,0.68,-1.38,2.29,2.75
14.405784845352173,0.28,-0.71,2.15,2.28
14.422004699707031,0.38,-0.19,1.0,1.08
14.423479795455933,0.92,-0.08,0.21,0.94
14.43660283088684,1.21,-0.15,-0.13,1.22
14.468093872070312,1.05,-0.29,-0.06,1.09
14.469212770462036,0.85,-0.22,0.3,0.92
14.470038890838623,0.89,-0.23,0.29,0.96
14.488969802856445,0.96,-0.44,-0.22,1.07
14.490030765533447,0.8,-0.36,-0.51,1.01
14.504825830459595,0.36,-0.09,-0.66,0.75
14.505875825881958,-0.09,0.22,-0.5,0.55
14.52189588546753,-0.48,0.45,0.51,0.83
14.522947788238525,-0.64,0.47,0.97,1.25
14.537399768829346,-0.53,0.25,0.12,0.59
14.566362857818604,-0.08,0.24,-0.94,0.97
14.567527770996094,0.17,0.34,-1.33,1.38
14.568341732025146,-0.18,0.41,-1.12,1.2
14.588751792907715,-0.72,0.46,-0.64,1.06
14.589687824249268,-1.0,0.45,-0.41,1.17
14.604597806930542,-0.91,0.48,-0.36,1.09
14.605576992034912,-0.86,0.6,-0.12,1.05
14.622026920318604,-0.93,0.59,0.09,1.1
14.623034000396729,-0.9,0.47,0.07,1.01
14.637448787689209,-0.68,0.27,-0.09,0.73
14.664637804031372,-0.6,0.09,-0.26,0.66
14.665810823440552,-0.55,0.12,-0.5,0.75
14.666589736938477,-0.51,0.26,-0.6,0.82
14.668875694274902,-0.45,0.5,-0.51,0.84
14.670050859451294,-0.54,0.64,-0.53,0.99
14.67124891281128,-0.87,0.79,-0.36,1.22
14.672436714172363,-1.24,0.94,-0.16,1.56
14.681909799575806,-1.74,1.04,-0.14,2.03
14.692116737365723,-2.06,1.56,-0.1,2.58
14.70232081413269,-2.19,2.05,-0.59,3.05
14.73517370223999,-2.24,2.49,-1.1,3.52
14.736125946044922,-2.34,2.81,-1.26,3.86
14.736892700195312,-2.58,3.1,-1.32,4.24
14.75440788269043,-2.7,3.4,-1.74,4.67
14.755245685577393,-2.68,3.61,-2.27,5.03
14.77184772491455,-2.66,3.69,-2.49,5.18
14.77290678024292,-2.83,3.62,-2.38,5.17
14.78859567642212,-3.41,3.79,-1.99,5.47
14.791147708892822,-4.28,4.44,-1.82,6.42
14.803923845291138,-5.24,5.25,-2.18,7.73
14.836055755615234,-6.63,6.02,-2.93,9.42
14.837203979492188,-7.99,6.84,-3.05,10.95
14.83803677558899,-8.92,7.68,-2.65,12.06
14.856077671051025,-9.44,7.92,-3.25,12.74
14.857131958007812,-9.83,7.96,-4.81,13.53
14.871762752532959,-10.68,8.04,-6.89,15.03
14.872782707214355,-11.79,10.5,-7.35,17.41
14.888452768325806,-10.61,16.15,-5.32,20.04
14.890472888946533,-5.82,18.97,-5.62,20.62
14.904316902160645,-0.08,16.53,-8.39,18.53
14.937483787536621,2.14,9.99,-7.85,12.88
14.938551902770996,-0.19,3.46,-7.68,8.42
14.939448833465576,-4.87,0.03,-5.68,7.48
14.956500768661499,-5.26,-2.77,-5.19,7.89
14.957542896270752,1.65,1.51,-3.55,4.19
14.970358848571777,7.92,3.41,3.33,9.24
14.971373796463013,5.08,-2.07,0.93,5.56
14.988717794418335,-1.76,-4.56,-3.49,6.0
14.98974895477295,-7.02,-5.44,-1.97,9.09
15.004494667053223,-10.85,-5.27,-1.33,12.13
15.037377834320068,-13.28,-4.78,-1.46,14.18
15.038598775863647,-13.32,-4.4,-1.13,14.07
15.039401769638062,-9.63,-4.7,0.4,10.72
15.056033849716187,-5.18,-6.14,0.89,8.08
15.057021856307983,-2.79,-7.58,0.33,8.08
15.072924852371216,-2.61,-8.29,-0.1,8.69
15.073916912078857,-3.58,-8.17,-0.46,8.93
15.088838815689087,-4.28,-7.82,-0.98,8.96
15.089855670928955,-4.3,-7.37,-1.95,8.75
15.104562759399414,-4.1,-6.67,-2.7,8.28
15.109165668487549,-3.91,-6.12,-3.1,7.89
15.149203777313232,-3.74,-5.8,-3.26,7.63
15.150353908538818,-3.63,-5.7,-3.09,7.43
15.151155948638916,-3.81,-5.83,-2.41,7.36
15.172929763793945,-4.12,-6.23,-1.69,7.65
15.17399787902832,-3.96,-6.63,-1.14,7.8
15.188326835632324,-3.37,-6.82,-1.12,7.68
15.189398765563965,-2.85,-6.8,-1.48,7.52
15.205880880355835,-2.77,-6.27,-1.63,7.04
15.207339763641357,-2.91,-5.36,-1.39,6.25
15.221316814422607,-2.65,-4.1,-0.84,4.95
15.250524997711182,-1.44,-2.35,-0.43,2.78
15.251866817474365,1.0,-0.4,-0.48,1.17
15.25267481803894,4.12,1.6,-0.62,4.46
15.272603988647461,7.0,3.88,-0.39,8.01
15.273623943328857,9.38,6.73,0.51,11.55
15.288740873336792,10.85,9.75,1.08,14.62
15.289808750152588,12.1,12.67,1.71,17.6
15.30249285697937,13.43,14.96,2.29,20.23
15.30358076095581,14.96,16.28,2.23,22.22
15.319060802459717,16.06,15.53,1.77,22.41
15.34709882736206,16.89,14.4,3.73,22.5
15.348288774490356,17.26,12.65,6.27,22.29
15.349142789840698,16.46,12.48,7.19,21.87
15.351333856582642,15.43,12.23,8.33,21.37
15.372159957885742,11.98,5.6,4.63,14.01
15.3732008934021,0.15,-3.78,-2.47,4.51
15.388701915740967,-12.93,-5.02,-12.2,18.47
15.389733791351318,-20.4,14.21,-6.24,25.63
15.403772830963135,-13.36,32.51,11.43,36.95
15.406524658203125,-4.54,15.19,5.8,16.88
15.44933271408081,3.28,-0.52,1.58,3.67
15.450275897979736,10.11,-3.47,1.45,10.78
15.451096773147583,12.01,-6.93,1.06,13.9
15.473140716552734,11.05,-6.46,-0.62,12.81
15.474171876907349,7.63,-3.6,-0.82,8.47
15.488778829574585,4.19,-1.31,-0.35,4.4
15.489820957183838,1.86,0.45,-1.26,2.29
15.505895853042603,0.85,1.21,-0.63,1.6
15.506905794143677,0.67,0.61,0.93,1.29
15.521731853485107,0.51,-0.43,2.19,2.28
15.552172660827637,0.13,-0.74,3.4,3.48
15.553197860717773,-0.28,-0.47,3.03,3.07
15.554011821746826,-0.15,-0.37,1.12,1.18
15.573327779769897,0.64,-0.28,-0.46,0.83
15.574397802352905,1.28,-0.14,-0.94,1.59
15.588689804077148,1.26,-0.12,-0.75,1.47
15.5897216796875,0.88,-0.13,-0.46,1.0
15.605249881744385,0.67,-0.09,-0.31,0.74
15.606298923492432,0.7,-0.17,-0.51,0.88
15.62151575088501,0.74,-0.28,-0.9,1.19
15.650083780288696,0.52,-0.23,-1.12,1.25
15.65127182006836,0.0,0.09,-0.25,0.26
15.65208888053894,-0.55,0.28,1.13,1.28
15.672548770904541,-0.86,0.26,1.36,1.62
15.673604965209961,-0.64,0.33,0.47,0.85
15.687503814697266,-0.02,0.41,-0.61,0.73
15.688543796539307,0.56,0.28,-1.11,1.27
15.70553183555603,0.7,-0.08,-1.04,1.25
15.706584930419922,0.28,-0.17,-0.64,0.71
15.721596717834473,-0.39,0.13,-0.26,0.48
15.75075078010559,-0.96,0.5,0.0,1.08
15.751928806304932,-1.13,0.74,0.06,1.35
15.752744674682617,-0.92,0.68,0.04,1.14
15.772669792175293,-0.79,0.41,0.01,0.89
15.773743867874146,-0.83,0.25,-0.13,0.87
15.78901982307434,-0.75,0.12,-0.52,0.92
15.790037870407104,-0.72,0.1,-0.9,1.15
15.80547571182251,-0.61,0.33,-1.01,1.22
15.806506872177124,-0.47,0.53,-0.85,1.1
15.821173667907715,-0.43,0.71,-0.72,1.09
15.847583770751953,-0.52,0.84,-0.93,1.35
15.848636865615845,-0.86,1.07,-0.86,1.61
15.84947681427002,-1.29,1.31,-0.62,1.94
15.851511001586914,-1.91,1.36,-0.66,2.43
15.872347831726074,-2.33,1.78,-0.01,2.93
15.873413801193237,-2.58,1.91,-0.25,3.21
15.888948917388916,-2.51,2.38,-0.29,3.47
15.890023708343506,-2.34,2.56,-0.55,3.51
15.904314994812012,-2.17,2.69,-0.87,3.56
15.905303001403809,-2.17,2.77,-1.52,3.83
15.920984745025635,-2.35,2.98,-1.87,4.23
15.9490647315979,-2.6,3.28,-1.82,4.56
15.950209856033325,-3.04,3.44,-1.85,4.94
15.950998783111572,-3.64,3.71,-1.79,5.49
15.953524827957153,-4.24,4.27,-1.74,6.26
15.962615966796875,-4.94,4.94,-2.21,7.32
15.97243595123291,-5.77,5.87,-2.68,8.65
15.982225894927979,-6.96,6.84,-3.26,10.28
15.992347717285156,-8.63,7.92,-3.93,12.35
16.002371788024902,-10.13,9.19,-4.51,14.4
16.012120723724365,-11.07,9.89,-5.23,15.73
16.04399871826172,-11.62,9.79,-6.25,16.42
16.045103788375854,-12.3,9.73,-8.04,17.62
16.0459246635437,-11.79,13.53,-5.75,18.84
16.058082818984985,-7.98,17.67,-3.73,19.74
16.061641693115234,-1.63,16.94,-6.78,18.31
16.071549892425537,1.34,11.24,-8.65,14.24
16.08153486251831,-0.51,5.03,-9.07,10.38
16.091675758361816,-5.16,0.99,-6.49,8.35
16.10149097442627,-7.32,-2.8,-4.98,9.28
16.11160182952881,-2.22,-0.19,-2.97,3.71
16.144468784332275,5.07,1.63,3.15,6.18
16.14571976661682,4.06,-3.26,1.09,5.31
16.146511793136597,-1.83,-5.14,-2.45,5.98
16.15638494491577,-6.36,-5.3,-0.5,8.29
16.160817861557007,-9.56,-4.71,0.53,10.67
16.17227268218994,-11.73,-3.98,0.63,12.4
16.180920839309692,-12.13,-3.91,0.79,12.76
16.19071865081787,-9.53,-4.71,1.58,10.74
16.200798988342285,-5.79,-6.13,2.27,8.73
16.21068286895752,-3.76,-7.53,2.01,8.65
16.242249965667725,-3.55,-8.02,1.67,8.92
16.243955850601196,-4.27,-7.22,1.16,8.46
16.24477767944336,-4.67,-6.1,0.33,7.68
16.25618886947632,-4.6,-5.31,-0.77,7.06
16.260096788406372,-4.33,-4.78,-1.67,6.66
16.272368907928467,-4.11,-4.51,-1.96,6.4
16.279860973358154,-4.17,-4.42,-2.02,6.4
16.28983497619629,-4.34,-4.61,-2.03,6.64
16.299792766571045,-4.35,-4.98,-1.86,6.86
16.30992579460144,-4.15,-5.3,-1.37,6.86
16.34852695465088,-3.83,-5.52,-0.73,6.75
16.34993886947632,-3.55,-5.77,-0.17,6.77
16.35090684890747,-3.4,-5.96,0.38,6.87
16.352978706359863,-3.49,-6.1,0.87,7.08
16.3595187664032,-3.83,-5.98,1.41,7.23
16.36956477165222,-3.87,-5.21,2.18,6.84
16.37939691543579,-3.23,-3.7,2.91,5.7
16.389310836791992,-1.38,-1.76,3.23,3.92
16.399462699890137,1.44,0.21,3.8,4.06
16.40942883491516,4.92,2.59,4.73,7.29
16.44698476791382,8.31,5.25,5.9,11.46
16.44837999343872,11.66,8.28,7.28,16.04
16.449265956878662,14.43,11.17,7.62,19.77
16.452399730682373,16.04,13.0,7.3,21.89
16.47182583808899,16.86,13.85,6.56,22.78
16.472923755645752,15.77,16.75,3.37,23.25
16.485920906066895,15.67,20.27,-0.55,25.62
16.488476753234863,18.65,15.37,-13.48,27.67
16.5046067237854,17.85,8.59,-24.4,31.42
16.50815773010254,10.94,7.95,-15.01,20.2
16.550850868225098,2.98,26.75,-6.57,27.7
16.552047729492188,7.05,28.24,-5.69,29.65
16.553103923797607,6.39,6.81,1.98,9.54
16.573181867599487,0.68,-3.17,6.12,6.92
16.574216842651367,-2.74,-11.14,9.42,14.84
16.58906888961792,-0.51,-14.1,4.78,14.89
16.590104818344116,5.13,-10.56,5.36,12.9
16.605952739715576,6.77,-4.15,5.39,9.59
16.606979846954346,4.96,0.78,4.19,6.53
16.622071743011475,1.8,3.08,1.71,3.95
16.65192484855652,-1.72,2.66,-1.04,3.33
16.653167724609375,-2.8,1.53,-1.97,3.74
16.65399169921875,-0.61,0.74,-1.51,1.78
16.6732759475708,2.41,-0.05,-0.61,2.48
16.67436385154724,3.65,-0.79,-1.07,3.88
16.68947696685791,2.74,-0.96,-1.32,3.18
16.69052481651306,1.29,-0.38,-0.59,1.46
16.706045866012573,0.92,-0.2,0.12,0.94
16.70702576637268,1.05,-0.47,1.0,1.52
16.720902919769287,0.64,-0.54,1.3,1.54
16.72234869003296,0.1,-0.32,1.06,1.11
16.76686382293701,-0.1,0.08,0.7,0.71
16.768011808395386,-0.08,0.2,0.4,0.45
16.769046783447266,-0.16,0.19,0.39,0.46
16.790336847305298,-0.18,0.15,-0.04,0.23
16.791329860687256,0.03,0.17,-0.87,0.88
16.80605173110962,0.21,0.22,-1.58,1.6
16.807065963745117,0.16,0.19,-1.7,1.71
16.82326078414917,0.03,0.05,-1.49,1.49
16.82474994659424,-0.19,0.07,-0.97,0.99
16.838441848754883,-0.72,0.36,-0.26,0.84
16.86911177635193,-1.47,0.68,0.14,1.62
16.870452880859375,-1.65,0.84,-0.1,1.85
16.87126088142395,-0.97,0.79,-0.44,1.32
16.88990592956543,-0.56,0.54,-0.55,0.95
16.890995979309082,-0.86,0.41,-0.36,1.01
16.905869960784912,-1.05,0.42,-0.21,1.15
16.906861782073975,-0.96,0.34,-0.6,1.18
16.92328977584839,-0.81,0.35,-0.98,1.31
16.924726963043213,-0.88,0.5,-0.96,1.39
16.938389778137207,-0.92,0.67,-0.76,1.36
16.965216875076294,-0.77,0.79,-0.62,1.26
16.96625781059265,-0.65,0.85,-0.58,1.21
16.9671049118042,-0.74,0.9,-0.49,1.26
16.969441890716553,-1.15,0.91,-0.23,1.48
16.97056484222412,-1.59,1.06,0.41,1.95
16.974498748779297,-1.78,1.16,0.98,2.33
16.98474884033203,-1.85,1.34,0.76,2.4
16.994728803634644,-1.87,2.2,-0.04,2.88
17.004827976226807,-2.01,2.98,-0.3,3.6
17.014694690704346,-2.44,3.51,0.02,4.27
17.044087886810303,-2.7,3.54,-0.4,4.47
17.045182704925537,-2.56,3.28,-1.36,4.37
17.045994758605957,-2.19,3.04,-2.55,4.53
17.05548667907715,-2.02,3.26,-3.18,4.98
17.064472675323486,-2.43,3.62,-3.53,5.6
17.073872804641724,-3.35,4.34,-2.99,6.24
17.08414578437805,-4.8,5.48,-2.24,7.62
17.093968868255615,-6.61,6.89,-2.31,9.82
17.10398578643799,-8.32,8.68,-2.6,12.3
17.113772869110107,-9.96,10.94,-3.86,15.29
17.150848865509033,-10.75,11.8,-6.84,17.36
17.15198588371277,-10.73,10.77,-8.27,17.3
17.152849674224854,-11.0,9.85,-7.71,16.65
17.173451900482178,-11.21,11.18,-5.56,16.78
17.17452383041382,-9.0,14.37,-3.1,17.23
17.188196659088135,-3.27,14.08,-5.96,15.63
17.189265727996826,2.06,12.04,-6.94,14.04
17.206106662750244,2.48,6.74,-5.71,9.17
17.20716667175293,-2.38,1.36,-5.61,6.24
17.222187995910645,-6.3,-2.35,-4.4,8.03
17.253675937652588,-3.25,-1.69,-4.12,5.51
17.254953861236572,4.44,2.28,0.18,4.99
17.255964756011963,5.06,-1.34,0.49,5.25
17.273393869400024,-0.73,-2.86,-2.66,3.97
17.27446484565735,-5.16,-2.65,-0.75,5.84
17.289583683013916,-8.68,-2.48,-0.95,9.07
17.29061985015869,-11.34,-2.12,-1.93,11.69
17.307116985321045,-12.25,-1.96,-2.09,12.58
17.30859375,-10.43,-2.34,-1.14,10.74
17.322202682495117,-7.37,-3.53,-0.34,8.17
17.35161781311035,-5.56,-4.87,0.04,7.39
17.35290765762329,-5.18,-5.87,0.3,7.83
17.3536958694458,-5.31,-6.06,0.56,8.07
17.373186826705933,-5.04,-5.88,0.13,7.74
17.374250888824463,-4.62,-5.66,-0.6,7.33
17.389785766601562,-4.44,-5.84,-1.18,7.43
17.390833854675293,-4.69,-5.9,-1.32,7.65
17.406601905822754,-5.09,-5.86,-1.21,7.85
17.408023834228516,-5.21,-5.77,-1.1,7.85
17.422237873077393,-5.12,-5.66,-0.97,7.69
17.45385479927063,-5.08,-5.64,-0.73,7.62
17.455127716064453,-5.22,-5.72,-0.32,7.75
17.456113815307617,-5.37,-5.64,0.37,7.79
17.473670959472656,-5.21,-5.62,0.95,7.72
17.47474980354309,-4.75,-5.79,1.18,7.58
17.489563941955566,-4.4,-5.74,1.39,7.36
17.490524768829346,-4.12,-5.11,1.76,6.79
17.507023811340332,-3.45,-3.74,2.48,5.66
17.50849986076355,-1.62,-2.18,2.42,3.63
17.522220849990845,1.47,-0.48,1.79,2.36
17.523716926574707,4.68,1.39,1.34,5.06
17.569156646728516,7.27,3.84,1.38,8.33
17.570371866226196,9.4,7.11,1.78,11.91
17.5713849067688,12.02,10.36,2.19,16.01
17.587151765823364,15.35,12.99,2.35,20.24
17.588255882263184,18.79,14.48,3.15,23.93
17.603424787521362,21.31,13.99,4.05,25.81
17.604471683502197,22.28,12.36,4.36,25.84
17.623445987701416,21.4,10.48,4.91,24.32
17.624952793121338,18.57,8.81,4.44,21.02
17.636878967285156,16.01,13.32,3.88,21.18
17.666160821914673,16.02,7.62,-1.44,17.79
17.667585849761963,6.36,-5.63,-9.58,12.8
17.668571949005127,-7.85,-5.57,-17.9,20.32
17.670593738555908,-17.84,19.56,-12.27,29.17
17.671891689300537,-15.53,40.85,10.43,44.92
17.679359912872314,-8.13,14.8,3.89,17.32
17.689441680908203,1.33,-3.28,1.32,3.77
17.699352741241455,9.62,-4.93,6.26,12.49
17.709386825561523,11.84,-8.52,4.71,15.32
17.719409942626953,11.43,-8.56,0.14,14.28
17.74963665008545,8.23,-3.79,0.52,9.07
17.750574827194214,3.77,-0.3,0.84,3.87
17.751346826553345,0.81,1.99,-0.14,2.15
17.75870680809021,-0.34,2.0,-1.11,2.31
17.76886796951294,0.44,0.67,-0.55,0.97
17.778857707977295,1.26,0.04,-0.33,1.3
17.78874683380127,1.16,-0.28,0.14,1.2
17.798877716064453,0.78,-0.76,0.85,1.38
17.808493852615356,0.66,-0.95,1.03,1.54
17.818564891815186,0.76,-0.66,0.47,1.11
17.848814964294434,0.88,-0.14,-0.16,0.9
17.84976077079773,0.81,0.17,-0.1,0.83
17.851366996765137,0.7,-0.03,0.05,0.7
17.85797882080078,0.78,-0.32,0.15,0.85
17.86819887161255,0.81,-0.31,0.33,0.92
17.87824583053589,0.67,-0.16,0.2,0.71
17.887999773025513,0.37,-0.07,-0.05,0.37
17.897986888885498,0.15,0.03,-0.09,0.17
17.90776491165161,0.06,0.04,-0.39,0.39
17.917743682861328,-0.05,0.15,-0.45,0.47
17.95466899871826,-0.26,0.19,-0.57,0.65
17.955781936645508,-0.39,0.24,-0.77,0.89
17.956663846969604,-0.46,0.36,-0.79,0.98
17.973275661468506,-0.43,0.45,-0.8,1.01
17.97435998916626,-0.45,0.47,-0.48,0.8
17.989856719970703,-0.65,0.45,-0.06,0.79
17.990917682647705,-0.91,0.37,0.12,0.98
18.006473779678345,-1.03,0.49,0.44,1.22
18.007486820220947,-1.03,0.53,0.15,1.16
18.02308678627014,-0.94,0.48,-0.26,1.08
18.056354999542236,-0.67,0.41,-0.27,0.83
18.057716846466064,-0.39,0.28,-0.21,0.52
18.05875587463379,-0.3,0.13,-0.34,0.47
18.074365854263306,-0.32,0.19,-0.57,0.68
18.07540798187256,-0.37,0.34,-0.56,0.75
18.08986186981201,-0.5,0.41,-0.34,0.73
18.09084987640381,-0.89,0.53,-0.02,1.03
18.106554985046387,-1.28,0.81,-0.06,1.51
18.1075439453125,-1.68,1.06,-0.39,2.02
18.1228928565979,-2.04,1.51,-0.12,2.54
18.155435800552368,-2.05,1.76,-0.53,2.75
18.156765937805176,-1.99,1.93,-1.26,3.04
18.15777587890625,-1.93,2.67,-1.43,3.59
18.17408800125122,-2.26,3.28,-1.57,4.28
18.175147771835327,-2.74,3.94,-1.48,5.02
18.18994665145874,-3.18,4.18,-1.64,5.5
18.190987825393677,-3.39,4.15,-1.79,5.64
18.206790924072266,-3.42,4.09,-1.72,5.6
18.208258867263794,-3.77,4.39,-1.57,5.99
18.222655773162842,-4.54,5.19,-1.78,7.12
18.252675771713257,-5.49,6.01,-2.35,8.47
18.25399684906006,-6.75,7.01,-2.68,10.09
18.25482988357544,-8.55,8.61,-3.18,12.54
18.273887872695923,-10.06,10.44,-4.08,15.06
18.274940967559814,-10.82,11.43,-5.22,16.58
18.287742853164673,-11.22,11.47,-6.83,17.43
18.28886890411377,-12.08,10.26,-8.99,18.22
18.30668592453003,-12.54,12.04,-7.42,18.9
18.307682991027832,-9.56,16.07,-4.1,19.14
18.314600944519043,-2.86,15.89,-6.2,17.29
18.324843883514404,2.3,11.83,-7.04,13.95
18.358534812927246,2.03,4.87,-6.17,8.11
18.359733819961548,-2.84,-0.33,-5.9,6.55
18.360745906829834,-5.96,-3.93,-5.03,8.73
18.37479281425476,-3.34,-3.98,-5.44,7.52
18.375833988189697,3.93,0.41,-0.54,3.98
18.390039920806885,5.29,-3.09,0.52,6.14
18.394051790237427,-0.96,-5.38,-4.28,6.94
18.406705856323242,-6.07,-6.06,-3.27,9.17
18.414154767990112,-9.22,-6.39,-2.22,11.43
18.42392587661743,-12.21,-5.92,-2.24,13.75
18.457268714904785,-14.23,-5.03,-1.82,15.2
18.458675861358643,-14.36,-4.77,-1.07,15.16
18.459699869155884,-12.02,-5.06,0.83,13.06
18.47417187690735,-9.26,-6.1,1.8,11.23
18.475202798843384,-7.46,-7.26,1.37,10.49
18.49021077156067,-6.93,-7.11,1.16,9.99
18.493164777755737,-6.85,-5.66,0.69,8.91
18.506619930267334,-6.6,-4.98,-0.45,8.28
18.513539791107178,-5.74,-4.89,-1.55,7.69
18.52320384979248,-4.8,-4.88,-2.15,7.17
18.55534267425537,-4.14,-4.88,-2.58,6.9
18.556663990020752,-3.67,-4.79,-3.0,6.73
18.55766987800598,-3.23,-4.66,-3.17,6.49
18.574309825897217,-2.78,-4.64,-3.07,6.21
18.57531976699829,-2.38,-4.7,-2.98,6.05
18.590348720550537,-2.08,-4.34,-2.69,5.51
18.592468738555908,-1.7,-3.47,-1.96,4.33
18.606889724731445,-1.07,-2.05,-0.3,2.33
18.612372875213623,0.07,-0.19,0.84,0.86
18.622416973114014,2.15,1.4,0.59,2.63
18.6539568901062,4.42,2.95,0.67,5.35
18.655075788497925,6.49,5.55,1.83,8.73
18.655895709991455,8.26,9.13,2.87,12.64
18.674205780029297,9.76,12.63,3.06,16.25
18.675278663635254,11.2,15.31,2.81,19.17
18.689321994781494,12.72,15.91,1.85,20.45
18.69182276725769,14.21,14.63,1.01,20.42
18.703901767730713,16.43,13.16,1.75,21.12
18.71150779724121,18.36,10.66,2.54,21.38
18.72256565093994,19.39,9.93,4.94,22.33
18.760260820388794,19.53,10.1,5.38,22.63
18.761600971221924,19.06,7.58,5.82,21.32
18.762650966644287,15.11,6.32,3.49,16.74
18.77459478378296,4.78,-3.57,-3.8,7.07
18.775656700134277,-6.84,-3.65,-11.43,13.81
18.790291786193848,-11.67,16.84,-6.18,21.4
18.79129385948181,-9.12,28.12,3.22,29.73
18.807320833206177,-1.48,14.13,2.89,14.49
18.81068468093872,7.48,-0.23,-1.83,7.7
18.82087278366089,11.17,-7.44,0.47,13.42
18.859201908111572,10.99,-7.6,3.53,13.82
18.86052179336548,7.83,-5.02,3.4,9.9
18.86154270172119,4.33,-3.56,3.07,6.39
18.87470579147339,1.58,-1.23,2.24,3.0
18.875784873962402,0.06,1.23,0.64,1.38
18.89026379585266,-0.43,1.09,0.72,1.37
18.891302824020386,0.01,-0.02,0.82,0.82
18.90704584121704,1.13,-0.33,0.0,1.17
18.910034656524658,1.88,0.06,-0.2,1.89
18.92288875579834,1.52,-0.06,-0.53,1.61
18.958412647247314,0.7,-0.13,-0.61,0.93
18.959587812423706,0.15,0.07,-0.6,0.62
18.960387706756592,0.2,0.17,-0.71,0.75
18.97427797317505,0.45,0.28,-0.52,0.74
18.975343704223633,0.54,0.29,-0.49,0.78
18.990135669708252,0.46,-0.05,-0.54,0.71
18.991177797317505,0.18,-0.49,-0.62,0.81
19.00812578201294,-0.14,-0.66,-0.29,0.73
19.009326934814453,0.25,-0.53,0.26,0.64
19.023221969604492,0.46,-0.13,0.81,0.94
19.058796882629395,-0.1,0.39,0.94,1.02
19.06012487411499,-0.64,0.6,0.46,0.99
19.061145782470703,-0.35,0.37,-0.37,0.62
19.07442879676819,0.21,0.1,-0.82,0.85
19.075486660003662,0.19,0.08,-0.78,0.8
19.09028196334839,-0.25,0.23,-0.56,0.65
19.09132981300354,-0.63,0.42,-0.48,0.89
19.106990814208984,-0.71,0.57,-0.31,0.96
19.108771800994873,-0.66,0.54,-0.1,0.85
19.123023986816406,-0.56,0.38,0.0,0.67
19.128862857818604,-0.52,0.2,0.14,0.57
19.168540954589844,-0.56,0.02,0.07,0.56
19.16972589492798,-0.62,-0.04,-0.31,0.69
19.17072582244873,-0.54,0.07,-0.56,0.78
19.190785884857178,-0.3,0.25,-0.67,0.77
19.19182777404785,-0.17,0.45,-0.73,0.87
19.20698595046997,-0.35,0.65,-0.79,1.08
19.20802879333496,-0.7,0.88,-0.76,1.35
19.22434377670288,-1.07,1.03,-0.68,1.63
19.225778818130493,-1.4,1.13,-0.49,1.86
19.2394757270813,-1.8,1.2,-0.49,2.21
19.270490646362305,-2.03,1.32,-0.34,2.44
19.271761894226074,-1.91,1.42,-0.27,2.39
19.27276587486267,-1.93,1.65,-0.61,2.61
19.29089069366455,-1.86,2.11,-1.06,3.0
19.291963815689087,-1.72,2.61,-1.27,3.37
19.307239770889282,-1.87,2.86,-1.28,3.64
19.308294773101807,-2.27,2.93,-1.16,3.88
19.324049949645996,-2.69,3.0,-0.96,4.14
19.325509786605835,-2.83,3.13,-1.18,4.38
19.339602947235107,-2.97,3.09,-1.73,4.62
19.36900782585144,-3.25,3.33,-1.41,4.86
19.37040877342224,-4.01,3.8,-1.01,5.61
19.371415853500366,-5.11,4.76,-1.04,7.06
19.390894889831543,-6.19,5.82,-1.78,8.68
19.391941785812378,-7.35,7.0,-2.48,10.44
19.406964778900146,-8.73,8.24,-2.82,12.33
19.40800380706787,-10.03,9.62,-2.64,14.14
19.424420833587646,-11.0,10.41,-3.12,15.46
19.425904750823975,-12.13,10.48,-4.31,16.59
19.439592838287354,-13.72,12.37,-4.28,18.96
19.46917486190796,-12.49,17.16,-2.25,21.34
19.470484733581543,-6.75,18.36,-5.12,20.22
19.471537828445435,0.18,14.87,-9.48,17.63
19.4911048412323,2.76,9.57,-7.46,12.44
19.492169857025146,-0.78,3.22,-6.37,7.18
19.50712776184082,-5.96,-0.51,-4.79,7.66
19.508173942565918,-6.83,-4.18,-5.43,9.67
19.524348735809326,0.23,-0.66,-3.53,3.59
19.52583885192871,7.4,0.42,1.97,7.66
19.5396409034729,4.81,-4.53,-1.07,6.69
19.56792974472046,-2.67,-6.25,-4.35,8.06
19.569101810455322,-7.46,-7.02,-2.47,10.53
19.56989097595215,-10.97,-6.95,-2.24,13.17
19.591355800628662,-13.54,-6.19,-2.53,15.1
19.59242868423462,-14.64,-5.39,-2.47,15.79
19.607468843460083,-13.29,-5.0,-1.36,14.26
19.608503818511963,-10.09,-5.64,0.55,11.57
19.62430191040039,-7.66,-6.67,1.71,10.29
19.62556266784668,-6.77,-7.25,2.36,10.19
19.639906883239746,-7.03,-6.5,2.81,9.97
19.67002773284912,-7.45,-5.17,2.16,9.32
19.67135000228882,-7.2,-4.66,0.51,8.59
19.672367811203003,-6.84,-4.39,-0.55,8.14
19.69124984741211,-6.38,-4.05,-1.16,7.64
19.69229483604431,-5.62,-3.57,-1.71,6.87
19.707366943359375,-4.72,-3.17,-2.34,6.14
19.70839285850525,-3.78,-2.99,-2.7,5.52
19.724528789520264,-2.89,-2.97,-3.2,5.23
19.726011753082275,-2.23,-2.74,-3.56,5.01
19.73977565765381,-1.74,-2.15,-3.65,4.57
19.76936674118042,-1.12,-1.12,-3.13,3.5
19.770643711090088,-0.07,0.43,-2.52,2.55
19.771658897399902,1.38,2.09,-2.63,3.63
19.791412830352783,2.9,3.55,-2.76,5.35
19.79251480102539,4.45,5.82,-2.42,7.71
19.807201862335205,6.37,9.39,-1.18,11.4
19.808265686035156,8.83,13.49,0.26,16.12
19.821309804916382,12.17,16.8,0.77,20.75
19.8228497505188,15.54,16.33,1.07,22.56
19.837565898895264,17.38,13.85,1.41,22.26
19.86660885810852,17.73,12.6,1.55,21.8
19.86772084236145,17.78,11.39,1.51,21.16
19.86855983734131,18.97,10.63,2.25,21.86
19.871036767959595,20.48,9.22,4.51,22.9
19.872535705566406,21.64,6.74,7.71,23.94
19.882996797561646,20.24,4.98,9.45,22.88
19.892891883850098,16.22,5.09,10.18,19.81
19.902800798416138,12.88,5.56,8.32,16.31
19.912765979766846,6.55,7.7,3.27,10.62
19.922735691070557,-0.76,3.96,-2.69,4.84
19.932681798934937,-8.65,-8.99,-10.82,16.51
19.96392583847046,-24.37,-9.35,-29.42,39.33
19.965030670166016,-33.95,16.04,-18.67,41.93
19.965913772583008,-14.02,39.2,29.91,51.26
19.97197198867798,-1.39,21.63,11.81,24.68
19.982032775878906,5.87,0.11,-1.52,6.06
19.991981983184814,10.56,-8.89,0.88,13.83
20.001967906951904,12.01,-12.46,2.73,17.51
20.01170778274536,11.74,-10.65,-0.2,15.85
20.0220468044281,10.2,-6.49,1.74,12.21
20.032017707824707,6.3,-3.28,2.16,7.42
20.066346883773804,1.77,-1.27,1.38,2.57
20.067436695098877,-0.78,1.28,1.32,1.99
20.06821870803833,-1.33,2.98,-0.37,3.28
20.071334838867188,-0.53,1.92,-1.1,2.27
20.0811767578125,0.62,0.4,0.25,0.77
20.091341972351074,1.11,-0.5,0.5,1.31
20.101005792617798,0.95,-1.04,0.14,1.41
20.111331939697266,0.75,-0.76,0.08,1.07
20.12116289138794,0.73,-0.18,-0.38,0.84
20.13095998764038,0.76,0.08,-0.47,0.89
20.16323471069336,0.68,-0.06,-0.29,0.74
20.164378881454468,0.51,-0.2,-0.16,0.57
20.165202856063843,0.44,-0.15,-0.13,0.48
20.171512842178345,0.39,-0.1,-0.32,0.51
20.18071484565735,0.17,0.05,-0.23,0.29
20.19097375869751,-0.11,0.2,0.05,0.23
20.20045781135559,-0.34,0.2,0.23,0.45
20.21023178100586,-0.31,0.14,0.17,0.38
20.220510959625244,-0.11,0.02,-0.5,0.51
20.2304527759552,0.02,0.13,-0.78,0.79
20.263441801071167,-0.11,0.32,-0.61,0.69
20.26451086997986,-0.37,0.3,-0.73,0.87
20.265333652496338,-0.59,0.23,-0.8,1.02
20.27198886871338,-0.74,0.3,-0.67,1.04
20.27998185157776,-0.87,0.43,-0.62,1.15
20.29077672958374,-0.95,0.62,-0.29,1.17
20.299928665161133,-0.73,0.7,0.0,1.01
20.30954885482788,-0.33,0.46,-0.04,0.56
20.31969976425171,-0.12,0.18,0.15,0.26
20.32938289642334,-0.12,-0.01,0.15,0.19
20.370404720306396,-0.16,-0.04,-0.02,0.16
20.371659755706787,-0.2,0.06,-0.19,0.28
20.37271285057068,-0.32,0.2,-0.47,0.6
20.39196491241455,-0.45,0.42,-0.76,0.97
20.392993927001953,-0.69,0.61,-0.84,1.24
20.407497882843018,-1.26,0.88,-0.78,1.72
20.408514976501465,-1.84,1.21,-0.95,2.39
20.423653841018677,-2.42,1.37,-1.19,3.02
20.425160884857178,-2.6,1.73,-0.69,3.19
20.4399356842041,-2.16,1.94,-0.45,2.93
20.46950078010559,-1.72,2.15,-1.09,2.96
20.470687866210938,-1.56,2.81,-1.6,3.59
20.4714937210083,-1.93,3.42,-1.57,4.22
20.491410732269287,-2.58,4.01,-1.08,4.88
20.492411851882935,-3.28,4.35,-0.96,5.53
20.50770092010498,-3.86,4.49,-1.11,6.02
20.508712768554688,-4.12,4.66,-1.3,6.35
20.52436065673828,-4.35,4.92,-1.59,6.75
20.525412797927856,-5.04,5.49,-2.03,7.72
20.53999376296997,-6.23,6.35,-3.28,9.48
20.569530963897705,-7.33,7.3,-4.23,11.17
20.570775985717773,-8.3,8.81,-2.99,12.46
20.571595668792725,-9.99,11.19,-2.71,15.24
20.591535806655884,-11.55,12.42,-7.12,18.39
20.592622756958008,-12.44,11.27,-11.13,20.14
20.607622861862183,-12.26,10.87,-10.04,19.21
20.60867977142334,-9.91,13.49,-6.12,17.82
20.621436834335327,-4.92,14.76,-4.88,16.3
20.622527837753296,0.51,12.82,-5.89,14.11
20.640132904052734,2.17,7.52,-5.13,9.35
20.668335914611816,-1.13,1.03,-6.44,6.61
20.669496774673462,-5.38,-2.52,-6.35,8.69
20.670289993286133,-5.65,-5.6,-7.2,10.72
20.69165587425232,0.76,-2.16,-4.19,4.77
20.692726850509644,6.55,-1.26,3.08,7.34
20.70788884162903,3.6,-6.0,-0.89,7.05
20.70890784263611,-3.3,-7.91,-5.0,9.92
20.7248797416687,-8.19,-8.52,-3.8,12.41
20.72594165802002,-12.11,-8.38,-3.25,15.08
20.74028491973877,-15.09,-7.16,-2.63,16.9
20.741782665252686,-16.15,-5.31,-1.68,17.08
20.78648567199707,-14.12,-4.29,0.05,14.75
20.787683963775635,-10.79,-5.25,1.52,12.09
20.788695812225342,-8.44,-6.36,1.7,10.7
20.808339834213257,-8.04,-6.65,1.28,10.51
20.809435844421387,-8.91,-5.27,1.29,10.43
20.82447576522827,-9.36,-4.0,0.47,10.18
20.825535774230957,-8.61,-3.66,-1.12,9.42
20.84133768081665,-7.46,-3.7,-2.53,8.7
20.84285068511963,-6.42,-3.71,-3.25,8.09
20.857059955596924,-5.57,-3.53,-3.98,7.7
20.887709856033325,-4.67,-3.1,-4.62,7.26
20.889012813568115,-3.53,-2.66,-5.16,6.79
20.89003276824951,-2.05,-2.29,-5.54,6.33
20.908321857452393,-0.28,-1.85,-5.43,5.74
20.909384727478027,1.33,-1.37,-5.1,5.44
20.924476861953735,2.27,-0.85,-5.01,5.56
20.925508975982666,2.66,0.03,-4.62,5.33
20.94093370437622,2.38,1.03,-4.06,4.81
20.94194984436035,2.6,2.56,-3.47,5.03
20.957321882247925,3.89,5.02,-2.44,6.8
20.986737728118896,5.99,8.36,-1.51,10.39
20.988123893737793,8.97,13.43,-0.92,16.17
20.989113807678223,12.53,19.71,-0.3,23.35
21.005347728729248,16.17,21.79,0.77,27.14
21.006383895874023,19.37,18.33,2.96,26.83
21.02178978919983,20.95,14.84,5.65,26.28
21.022849798202515,19.96,11.49,6.36,23.89
21.041204929351807,18.14,10.94,7.3,22.4
21.042259693145752,18.47,11.28,9.19,23.51
21.057225704193115,18.46,9.68,9.97,23.1
21.08730697631836,13.17,10.22,9.62,19.24
21.088505744934082,5.98,6.07,6.01,10.42
21.089298725128174,0.49,2.37,-0.42,2.45
21.108686923980713,-6.87,-6.15,-8.52,12.55
21.109765768051147,-17.27,-5.92,-17.97,25.61
21.124764919281006,-21.0,13.13,-6.11,25.5
21.12580680847168,-8.86,23.07,12.52,27.7
21.14134168624878,-0.31,11.02,7.46,13.31
21.142443656921387,7.06,1.52,2.54,7.65
21.15712070465088,12.66,-3.46,-0.96,13.15
21.187938690185547,13.45,-4.62,-1.29,14.27
21.189260959625244,10.85,-3.69,0.82,11.48
21.19017791748047,5.86,-2.86,2.41,6.95
21.208600997924805,1.84,-2.8,1.34,3.6
21.209669828414917,0.53,-0.93,0.71,1.28
21.224875926971436,1.15,0.94,1.48,2.09
21.225947856903076,1.67,0.11,1.67,2.36
21.241215705871582,1.37,-1.07,0.78,1.9
21.24224090576172,0.74,-0.53,0.37,0.98
21.25742197036743,0.43,0.31,0.13,0.54
21.287822723388672,0.4,0.28,-0.01,0.48
21.28891897201538,0.6,-0.09,0.34,0.69
21.28973388671875,0.73,-0.4,0.35,0.9
21.30864191055298,0.69,-0.52,-0.05,0.86
21.30971884727478,0.82,-0.28,-0.37,0.94
21.324694871902466,0.92,-0.14,-0.18,0.94
21.325625896453857,0.81,-0.19,0.15,0.84
21.34155583381653,0.6,-0.27,0.17,0.67
21.342622756958008,0.29,-0.28,-0.09,0.41
21.357407808303833,0.1,-0.15,-0.33,0.37
21.38888382911682,0.13,0.0,-0.24,0.27
21.390077829360962,0.13,-0.01,0.09,0.15
21.390958786010742,0.15,-0.07,0.3,0.34
21.408799648284912,0.15,-0.05,0.06,0.16
21.409783840179443,0.07,0.08,-0.41,0.42
21.424683809280396,-0.14,0.22,-0.64,0.69
21.425747871398926,-0.41,0.31,-0.59,0.78
21.441561698913574,-0.67,0.38,-0.52,0.92
21.44260883331299,-0.75,0.45,-0.25,0.9
21.457488775253296,-0.61,0.37,-0.16,0.73
21.486599922180176,-0.47,0.25,-0.29,0.6
21.48772096633911,-0.54,0.27,-0.53,0.8
21.488516807556152,-0.77,0.45,-0.53,1.03
21.508769989013672,-1.0,0.52,-0.46,1.21
21.509835720062256,-1.01,0.5,-0.51,1.23
21.524711847305298,-0.98,0.53,-0.64,1.28
21.525701999664307,-1.02,0.74,-0.98,1.59
21.541501998901367,-1.07,0.91,-1.18,1.83
21.542818784713745,-1.21,0.99,-1.09,1.9
21.55742883682251,-1.49,1.01,-0.88,2.0
21.55888271331787,-1.86,1.05,-0.7,2.24
21.60473084449768,-2.05,1.09,-0.51,2.37
21.60590696334839,-1.91,0.99,-0.35,2.17
21.606847763061523,-1.62,0.99,-0.37,1.93
21.625547885894775,-1.61,1.37,-1.13,2.39
21.62657594680786,-1.74,2.03,-1.46,3.04
21.64094591140747,-1.83,2.95,-0.79,3.56
21.64200186729431,-2.38,3.76,-0.54,4.48
21.658761978149414,-2.48,4.21,-0.72,4.93
21.660234928131104,-2.64,4.14,-1.27,5.07
21.6739559173584,-2.75,3.8,-1.66,4.97
21.7060546875,-2.94,3.54,-1.59,4.86
21.707379817962646,-3.37,3.82,-1.26,5.24
21.70840072631836,-4.44,4.54,-1.83,6.6
21.725660800933838,-5.75,5.71,-2.55,8.49
21.726706981658936,-6.93,7.38,-3.11,10.59
21.74139976501465,-8.54,8.88,-4.47,13.1
21.742453813552856,-10.21,10.19,-5.3,15.36
21.755536794662476,-11.47,11.37,-5.43,17.03
21.757035732269287,-12.5,11.14,-7.28,18.25
21.774025917053223,-13.5,11.06,-8.12,19.24
21.804344654083252,-12.07,15.01,-5.52,20.03
21.805659770965576,-7.11,16.93,-6.02,19.32
21.806591987609863,-0.67,14.34,-9.33,17.12
21.8255877494812,2.94,10.69,-7.06,13.14
21.82661199569702,0.69,4.06,-6.59,7.77
21.841461658477783,-4.76,-0.41,-5.89,7.58
21.84257173538208,-5.45,-2.16,-4.76,7.55
21.85806179046631,1.97,3.34,-1.94,4.33
21.85911273956299,6.61,2.24,2.67,7.47
21.874194860458374,2.09,-3.2,-2.54,4.58
21.90305995941162,-4.28,-4.46,-4.03,7.37
21.9042067527771,-8.61,-4.41,-1.99,9.87
21.904979705810547,-11.86,-4.41,-2.09,12.82
21.925355911254883,-13.74,-4.66,-2.02,14.64
21.92641592025757,-12.73,-4.93,-1.06,13.69
21.94105291366577,-9.35,-5.55,0.46,10.88
21.942080974578857,-7.02,-7.14,0.97,10.05
21.959892749786377,-6.32,-8.6,0.87,10.7
21.961379766464233,-6.62,-8.66,0.79,10.92
21.974438667297363,-7.13,-7.69,0.51,10.49
22.004594802856445,-7.25,-6.93,-0.48,10.04
22.005863666534424,-6.78,-6.68,-1.39,9.61
22.00664186477661,-6.05,-6.63,-1.73,9.14
22.0255868434906,-5.41,-6.91,-1.86,8.97
22.026607990264893,-5.0,-7.19,-2.05,8.99
22.041602849960327,-4.73,-7.35,-2.27,9.03
22.04265785217285,-4.39,-7.4,-2.48,8.95
22.05855894088745,-3.93,-7.25,-2.56,8.63
22.059598922729492,-3.39,-7.03,-2.63,8.23
22.07315492630005,-2.95,-6.8,-2.74,7.9
22.1007719039917,-2.7,-6.15,-2.4,7.13
22.10186195373535,-2.62,-5.03,-1.44,5.85
22.10271692276001,-2.15,-3.33,-0.46,3.99
22.10500979423523,-0.63,-1.61,-0.6,1.83
22.106223821640015,1.57,0.33,-0.52,1.68
22.107510805130005,3.81,3.7,0.54,5.33
22.10887384414673,6.0,8.53,2.21,10.66
22.11575698852539,8.57,14.06,3.26,16.78
22.126161813735962,11.46,19.3,2.99,22.64
22.13623881340027,14.34,20.19,2.56,24.89
22.169018745422363,16.35,17.08,3.29,23.87
22.170175790786743,17.71,16.39,4.82,24.6
22.17098569869995,18.8,14.96,4.62,24.46
22.19102668762207,19.28,13.14,3.44,23.58
22.191865921020508,19.21,13.83,1.97,23.75
22.208297729492188,19.69,13.98,1.26,24.18
22.209319829940796,18.05,4.87,-0.49,18.7
22.22538685798645,7.28,-3.18,-3.58,8.71
22.226415872573853,-6.14,-6.67,-9.77,13.32
22.240664958953857,-17.76,-2.09,-12.57,21.85
22.270907878875732,-18.89,14.98,2.26,24.21
22.27200698852539,-8.94,26.28,9.6,29.37
22.272852897644043,-0.46,7.72,0.34,7.74
22.292264938354492,5.58,-6.79,-0.24,8.79
22.293349742889404,10.34,-5.16,2.91,11.91
22.308480739593506,14.13,-1.74,2.93,14.53
22.309521675109863,11.7,-0.84,1.51,11.82
22.325387001037598,5.66,0.25,0.36,5.67
22.3264217376709,1.57,-0.19,0.89,1.81
22.34088683128357,0.24,-0.38,0.41,0.6
22.344347953796387,1.04,0.05,0.98,1.42
22.387489795684814,1.7,0.1,1.05,2.0
22.38865900039673,1.38,-0.36,0.67,1.57
22.389662742614746,0.81,-0.71,0.46,1.17
22.409225940704346,0.53,-0.66,0.3,0.89
22.410303831100464,0.54,-0.58,0.05,0.79
22.425203800201416,0.58,-0.46,-0.03,0.74
22.42622685432434,0.82,-0.17,-0.28,0.88
22.441917896270752,1.02,0.1,-0.3,1.06
22.443358898162842,0.87,0.15,-0.08,0.88
22.45789098739624,0.62,-0.01,0.0,0.62
22.490043878555298,0.45,-0.12,0.12,0.48
22.49133276939392,0.3,-0.2,0.03,0.36
22.492352962493896,0.19,-0.11,0.03,0.22
22.509358882904053,0.11,0.06,0.22,0.25
22.510400772094727,-0.06,0.08,0.0,0.1
22.525380849838257,-0.13,0.1,-0.58,0.6
22.526420831680298,-0.09,0.18,-0.95,0.97
22.542175769805908,-0.04,0.22,-1.04,1.06
22.54365587234497,0.0,0.11,-0.92,0.92
22.557817935943604,-0.01,0.02,-0.75,0.75
22.587735652923584,-0.19,0.15,-0.25,0.34
22.588971853256226,-0.56,0.32,-0.08,0.64
22.58977174758911,-0.73,0.52,-0.22,0.92
22.60907483100891,-0.54,0.52,-0.29,0.8
22.610036849975586,-0.37,0.36,-0.18,0.54
22.625115871429443,-0.42,0.2,-0.03,0.46
22.626144886016846,-0.52,0.16,-0.16,0.56
22.64192771911621,-0.36,0.24,-0.37,0.56
22.642854690551758,-0.25,0.38,-0.43,0.62
22.657848834991455,-0.33,0.5,-0.48,0.76
22.687793731689453,-0.64,0.56,-0.55,1.01
22.688929796218872,-1.08,0.72,-0.63,1.44
22.689766883850098,-1.41,0.98,-0.7,1.85
22.709088802337646,-1.7,1.2,-0.83,2.24
22.710153818130493,-2.09,1.39,-0.77,2.62
22.725494861602783,-2.34,1.57,-0.83,2.93
22.726539850234985,-2.54,1.8,-0.84,3.22
22.741981983184814,-2.31,2.17,-0.87,3.28
22.743324756622314,-1.96,2.45,-1.57,3.5
22.758108854293823,-1.92,2.96,-1.59,3.86
22.788245677947998,-2.26,3.48,-1.38,4.37
22.789564847946167,-2.76,3.74,-1.34,4.83
22.79050588607788,-3.17,3.88,-1.36,5.19
22.80935287475586,-3.4,4.04,-1.72,5.55
22.810404777526855,-3.67,4.26,-2.05,5.98
22.825381755828857,-4.11,4.64,-2.36,6.63
22.826430797576904,-4.74,5.31,-2.65,7.59
22.841871738433838,-6.01,6.19,-3.51,9.31
22.842890739440918,-7.18,7.13,-4.24,10.97
22.858227729797363,-7.77,7.97,-3.93,11.8
22.88908886909485,-8.4,8.6,-3.99,12.66
22.890774726867676,-9.27,8.89,-5.55,13.99
22.891567707061768,-10.38,8.75,-8.52,16.02
22.909308910369873,-11.09,8.8,-10.57,17.66
22.910391807556152,-9.78,12.56,-8.82,18.19
22.925070762634277,-6.23,16.47,-5.55,18.46
22.92613983154297,-1.29,16.27,-5.03,17.07
22.94352388381958,1.9,10.89,-6.33,12.73
22.94498872756958,0.55,3.86,-7.21,8.19
22.95724081993103,-3.4,0.19,-5.75,6.68
22.986510753631592,-4.98,-3.28,-6.02,8.47
22.987688779830933,-0.14,-1.93,-5.85,6.16
22.9885196685791,6.38,0.83,1.1,6.52
23.009377002716064,4.09,-3.72,0.26,5.53
23.010405778884888,-3.05,-5.86,-3.85,7.64
23.025779724121094,-8.21,-6.19,-1.89,10.45
23.026817798614502,-12.0,-5.69,-0.78,13.3
23.042198657989502,-14.48,-4.7,-0.14,15.22
23.043226718902588,-14.29,-3.8,0.98,14.81
23.058161735534668,-10.54,-4.3,1.77,11.52
23.08820676803589,-6.6,-5.73,1.42,8.85
23.089268684387207,-5.07,-6.71,0.74,8.44
23.09008288383484,-5.64,-6.81,0.32,8.84
23.10908794403076,-6.4,-6.27,0.06,8.95
23.110142707824707,-6.07,-6.04,-0.73,8.59
23.12580180168152,-5.33,-5.97,-1.82,8.2
23.126831769943237,-4.7,-5.74,-2.68,7.88
23.142263889312744,-4.14,-5.31,-3.28,7.48
23.14322566986084,-3.49,-4.91,-3.72,7.08
23.157694816589355,-2.73,-4.9,-4.03,6.9
23.159153938293457,-1.96,-5.13,-4.1,6.85
23.203803777694702,-1.21,-5.33,-3.98,6.76
23.2049617767334,-0.6,-5.17,-3.65,6.35
23.205955982208252,-0.39,-4.62,-3.11,5.58
23.226245880126953,-0.34,-3.99,-2.93,4.96
23.22730588912964,-0.11,-3.04,-2.76,4.1
23.242039680480957,0.46,-1.93,-2.1,2.88
23.243106842041016,1.33,-0.73,-1.07,1.85
23.25938081741333,2.57,0.81,0.47,2.73
23.26081895828247,4.09,2.85,2.19,5.44
23.274788856506348,5.85,5.2,3.43,8.54
23.303809881210327,7.75,7.41,4.13,11.49
23.305025815963745,9.36,9.47,4.12,13.93
23.305835723876953,10.71,11.42,3.96,16.14
23.326512813568115,12.48,13.02,4.33,18.54
23.32758665084839,14.27,12.78,4.54,19.68
23.34240198135376,15.35,11.81,5.02,20.0
23.343440771102905,15.64,10.97,5.59,19.9
23.359113693237305,15.41,10.12,5.93,19.36
23.360113859176636,15.31,9.16,6.53,18.99
23.374764919281006,15.2,7.49,7.53,18.54
23.40550684928894,14.57,6.2,8.64,18.03
23.407524824142456,10.57,4.63,6.01,13.01
23.408552646636963,2.34,1.16,2.97,3.95
23.426495790481567,-4.41,-1.66,-1.64,4.98
23.427549839019775,-12.59,-6.53,-11.63,18.34
23.44248867034912,-21.33,4.77,-19.49,29.28
23.443521976470947,-13.08,34.21,4.09,36.85
23.45928382873535,-3.32,24.42,9.34,26.35
23.460320949554443,2.28,0.57,0.56,2.41
23.474952697753906,9.89,-5.91,0.02,11.52
23.504661798477173,12.75,-8.75,3.86,15.93
23.50587797164917,10.47,-7.04,2.71,12.9
23.506688833236694,5.42,-3.48,3.33,7.25
23.5262348651886,1.77,-0.75,3.41,3.91
23.527231693267822,-0.05,1.29,-0.12,1.29
23.54231882095337,0.39,1.12,-1.03,1.57
23.5433406829834,1.77,-0.27,-0.21,1.8
23.55912685394287,2.29,-0.89,0.02,2.45
23.56014585494995,1.56,-0.17,0.81,1.76
23.574889659881592,0.4,0.13,0.75,0.85
23.60656976699829,0.12,-0.01,0.07,0.13
23.60786199569702,0.52,-0.14,-0.04,0.54
23.608864784240723,0.96,-0.36,-0.3,1.06
23.62679386138916,1.1,-0.45,-0.25,1.21
23.62778377532959,0.95,-0.26,-0.08,0.98
23.64250898361206,0.61,-0.05,-0.13,0.62
23.643595695495605,0.36,0.13,-0.12,0.4
23.65930700302124,0.32,0.15,-0.17,0.39
23.660374879837036,0.27,0.03,-0.12,0.29
23.67489194869995,0.09,-0.1,-0.08,0.15
23.707559823989868,-0.11,-0.07,-0.03,0.13
23.70886993408203,-0.12,0.04,-0.05,0.13
23.70976495742798,-0.02,0.14,0.02,0.14
23.72667694091797,0.14,0.16,-0.13,0.24
23.72773265838623,0.22,0.08,-0.69,0.72
23.74240279197693,0.11,0.12,-0.85,0.86
23.743441820144653,-0.23,0.22,-0.58,0.66
23.75945281982422,-0.6,0.29,-0.26,0.71
23.760907649993896,-0.72,0.35,-0.04,0.8
23.77490472793579,-0.56,0.34,-0.08,0.66
23.804658889770508,-0.36,0.3,-0.24,0.52
23.805860996246338,-0.38,0.25,-0.08,0.46
23.806692838668823,-0.58,0.2,0.05,0.61
23.826483726501465,-0.68,0.13,-0.16,0.71
23.827529907226562,-0.62,0.16,-0.44,0.77
23.84228777885437,-0.51,0.24,-0.69,0.89
23.84330177307129,-0.51,0.35,-0.88,1.07
23.85921573638916,-0.65,0.54,-0.94,1.26
23.860244750976562,-0.84,0.69,-0.97,1.45
23.87468981742859,-1.08,0.87,-0.85,1.62
23.902507781982422,-1.44,0.99,-0.9,1.96
23.903648853302002,-1.81,1.09,-0.97,2.32
23.90444779396057,-1.82,1.31,-0.64,2.33
23.906466960906982,-1.57,1.45,-0.47,2.18
23.907631874084473,-1.51,1.57,-0.63,2.26
23.908828735351562,-1.4,1.74,-0.83,2.38
23.912028789520264,-1.77,1.98,-1.56,3.08
23.922353744506836,-2.03,2.6,-1.84,3.77
23.932458877563477,-2.24,3.1,-1.82,4.23
23.94194793701172,-2.28,3.44,-1.78,4.49
23.952143669128418,-2.4,3.57,-1.96,4.72
23.981534957885742,-2.6,3.76,-1.99,4.98
23.98249888420105,-3.01,4.05,-1.85,5.37
23.983527660369873,-3.85,4.75,-1.47,6.28
23.991524696350098,-5.05,5.79,-1.71,7.87
24.001574993133545,-6.25,7.08,-2.28,9.71
24.01183581352234,-7.69,8.73,-2.87,11.98
24.021665811538696,-9.5,10.5,-4.46,14.84
24.031401872634888,-10.79,11.71,-5.75,16.92
24.042004823684692,-11.22,11.67,-7.33,17.77
24.05106496810913,-11.03,9.88,-9.01,17.33
24.08154296875,-11.02,8.57,-9.58,16.93
24.082597732543945,-9.93,11.47,-6.44,16.48
24.083441734313965,-6.13,14.99,-3.79,16.63
24.09172773361206,-0.54,14.31,-5.71,15.41
24.100607872009277,2.29,8.89,-7.31,11.73
24.110758781433105,0.38,2.29,-7.58,7.92
24.120879650115967,-4.06,-1.65,-5.42,6.97
24.13076686859131,-5.36,-4.05,-4.62,8.15
24.1405827999115,0.56,-0.12,-0.75,0.94
24.15062665939331,4.46,-1.32,3.07,5.57
24.182344913482666,0.04,-5.18,-2.62,5.8
24.183424949645996,-4.96,-5.84,-3.71,8.51
24.184266805648804,-8.31,-5.04,-1.97,9.91
24.19015073776245,-10.81,-4.27,-1.87,11.77
24.200138807296753,-12.16,-3.9,-1.7,12.88
24.210057735443115,-10.94,-3.93,-0.88,11.65
24.21998691558838,-8.14,-4.85,0.2,9.47
24.229833841323853,-6.25,-6.18,0.88,8.83
24.240108966827393,-5.78,-7.22,1.18,9.32
24.250118732452393,-6.12,-7.34,1.09,9.61
24.282512664794922,-6.34,-6.67,0.56,9.21
24.28358268737793,-6.03,-6.02,-0.45,8.53
24.284393787384033,-5.47,-5.51,-1.26,7.86
24.289936780929565,-4.89,-5.17,-1.83,7.34
24.299452781677246,-4.44,-5.01,-2.36,7.09
24.309403896331787,-4.01,-5.02,-2.72,6.97
24.31921887397766,-3.49,-5.17,-2.96,6.9
24.32932686805725,-2.91,-5.4,-2.98,6.81
24.339248657226562,-2.35,-5.68,-3.11,6.88
24.349352836608887,-1.92,-5.84,-3.19,6.92
24.38747477531433,-1.78,-5.34,-2.51,6.16
24.388648986816406,-1.65,-4.41,-1.72,5.01
24.389447689056396,-0.83,-3.42,-1.34,3.76
24.409972667694092,0.84,-2.53,-1.01,2.85
24.4110107421875,2.59,-1.58,-0.36,3.05
24.426229000091553,3.85,-0.08,0.92,3.95
24.427279949188232,4.63,2.27,2.48,5.72
24.442726850509644,5.52,5.22,3.33,8.29
24.44377565383911,6.78,8.22,3.68,11.27
24.45892882347107,8.39,11.02,3.44,14.27
24.48983883857727,10.46,13.89,2.96,17.63
24.49117684364319,13.0,16.11,3.0,20.91
24.49205493927002,15.29,15.6,3.69,22.15
24.50788688659668,17.04,13.0,4.84,21.97
24.508985996246338,17.96,10.81,6.8,22.03
24.526248931884766,18.06,9.15,8.55,21.97
24.527310848236084,17.11,8.47,8.95,21.08
24.542728900909424,14.89,10.95,7.41,19.91
24.543718814849854,12.21,7.26,5.18,15.12
24.558917999267578,3.48,-2.03,-1.05,4.16
24.588600873947144,-7.84,-6.74,-10.55,14.77
24.5898277759552,-18.53,1.35,-18.42,26.16
24.59065079689026,-17.47,30.1,2.63,34.9
24.610220909118652,-8.82,27.93,11.02,31.29
24.611251831054688,-1.48,2.59,3.8,4.83
24.626317977905273,5.6,-5.27,1.26,7.79
24.627367973327637,11.35,-7.46,1.3,13.64
24.642762660980225,12.33,-7.05,1.49,14.28
24.643728733062744,9.71,-3.59,1.81,10.5
24.65889072418213,4.78,-1.09,2.27,5.4
24.689863681793213,1.04,-0.11,1.14,1.54
24.691008806228638,0.0,0.7,0.64,0.94
24.691836833953857,0.36,0.54,0.68,0.94
24.71064281463623,1.05,-0.14,0.15,1.06
24.7116436958313,1.28,-0.26,0.0,1.3
24.726216793060303,1.12,-0.17,0.73,1.34
24.727277755737305,0.94,-0.31,0.71,1.21
24.74294877052307,0.69,-0.4,0.06,0.79
24.743956804275513,0.69,-0.21,-0.21,0.75
24.7587947845459,1.01,-0.17,-0.32,1.07
24.760214805603027,1.24,-0.4,-0.21,1.31
24.80617380142212,1.17,-0.46,0.16,1.26
24.807331800460815,0.72,-0.25,0.41,0.86
24.808390855789185,0.26,0.14,0.53,0.6
24.827146768569946,0.13,0.25,0.07,0.29
24.828200817108154,0.26,0.12,-0.41,0.5
24.842644691467285,0.41,-0.04,-0.47,0.62
24.843692779541016,0.23,-0.2,-0.24,0.38
24.859988689422607,-0.1,-0.12,-0.01,0.15
24.861429691314697,-0.15,0.06,-0.26,0.3
24.875342845916748,-0.07,0.26,-0.5,0.56
24.90653896331787,-0.12,0.34,-0.63,0.72
24.907923698425293,-0.3,0.3,-0.46,0.62
24.90891981124878,-0.53,0.31,-0.08,0.61
24.928098678588867,-0.6,0.26,-0.12,0.66
24.929144859313965,-0.57,0.3,-0.21,0.67
24.9429669380188,-0.55,0.34,-0.26,0.69
24.943983793258667,-0.56,0.3,-0.15,0.65
24.945005893707275,-0.51,0.27,-0.01,0.57
24.94640278816223,-0.32,0.24,-0.08,0.4
24.954503774642944,-0.28,0.2,-0.06,0.34
24.984715938568115,-0.36,0.2,0.03,0.41
24.985633850097656,-0.44,0.2,0.04,0.48
24.98738670349121,-0.44,0.18,-0.06,0.47
24.993961811065674,-0.38,0.17,-0.38,0.56
25.004095792770386,-0.39,0.22,-0.75,0.87
25.01409888267517,-0.56,0.34,-0.88,1.09
25.024072647094727,-0.93,0.56,-0.83,1.36
25.033930778503418,-1.24,0.75,-0.54,1.54
25.043893814086914,-1.46,0.85,-0.26,1.7
25.05387592315674,-1.57,1.09,-0.22,1.92
25.085574865341187,-1.41,1.29,-0.91,2.11
25.086512804031372,-1.17,1.64,-1.27,2.38
25.08753776550293,-1.16,2.22,-1.23,2.79
25.09325385093689,-1.46,2.78,-1.25,3.37
25.103257656097412,-1.79,3.0,-1.27,3.71
25.113265991210938,-2.11,2.94,-1.53,3.92
25.123453855514526,-2.14,2.79,-1.88,3.98
25.133205890655518,-2.0,2.79,-2.04,3.99
25.14313578605652,-2.04,2.99,-2.13,4.19
25.153002738952637,-2.48,3.36,-2.08,4.66
25.192194938659668,-3.4,3.97,-1.87,5.55
25.193458795547485,-4.47,4.97,-1.84,6.93
25.194469928741455,-5.39,5.75,-2.43,8.24
25.210604667663574,-6.31,6.46,-2.49,9.36
25.211670875549316,-7.71,7.65,-2.32,11.1
25.22631072998047,-9.33,9.4,-2.86,13.54
25.22738265991211,-10.38,10.73,-4.29,15.53
25.243286848068237,-10.63,10.66,-6.6,16.43
25.244789838790894,-10.66,9.3,-8.35,16.42
25.259026765823364,-10.88,9.73,-7.96,16.62
25.29101276397705,-9.06,13.73,-4.34,17.01
25.29240369796753,-4.29,15.09,-4.1,16.21
25.29341697692871,1.09,12.95,-5.98,14.3
25.31053590774536,3.01,8.31,-4.77,10.04
25.311612844467163,-0.53,2.49,-5.65,6.19
25.326733827590942,-5.14,-1.25,-4.43,6.89
25.327849864959717,-4.65,-3.15,-4.66,7.29
25.343571662902832,2.5,1.43,-1.49,3.24
25.345045804977417,5.57,-0.51,1.93,5.91
25.359155654907227,0.39,-4.19,-3.21,5.29
25.39083981513977,-5.15,-4.54,-3.3,7.61
25.39216184616089,-8.66,-3.72,-1.59,9.55
25.393152713775635,-11.27,-2.99,-1.77,11.79
25.411279678344727,-12.4,-2.51,-1.67,12.76
25.412277698516846,-10.75,-2.61,-0.99,11.1
25.4262957572937,-7.85,-3.75,-0.13,8.7
25.427310943603516,-6.26,-5.15,0.55,8.12
25.444037914276123,-6.12,-6.19,1.07,8.77
25.445481777191162,-6.51,-6.46,1.16,9.24
25.458134651184082,-6.57,-6.1,0.68,8.99
25.489906787872314,-6.22,-5.88,-0.14,8.56
25.491171836853027,-5.85,-5.85,-0.89,8.32
25.49217987060547,-5.61,-5.78,-1.32,8.16
25.510539770126343,-5.23,-5.81,-1.5,7.95
25.511546850204468,-4.77,-5.79,-1.6,7.67
25.526692867279053,-4.25,-5.82,-1.68,7.39
25.527745723724365,-3.82,-6.04,-1.85,7.38
25.543291807174683,-3.5,-6.25,-1.95,7.42
25.544827938079834,-3.2,-6.33,-1.98,7.36
25.55992364883423,-2.97,-6.0,-1.58,6.87
25.561392784118652,-2.91,-5.5,-0.95,6.29
25.605220794677734,-2.83,-4.77,-0.08,5.54
25.606383800506592,-2.58,-3.64,0.61,4.5
25.6073899269104,-1.35,-2.4,0.68,2.83
25.627341747283936,1.02,-0.72,0.87,1.52
25.62843370437622,3.57,1.53,1.43,4.13
25.643083810806274,5.52,4.14,2.34,7.28
25.644075870513916,6.85,7.12,2.91,10.29
25.660728931427002,8.33,10.12,3.31,13.51
25.66219472885132,10.55,12.85,3.37,16.96
25.67488193511963,13.41,15.1,2.64,20.36
25.70555591583252,16.13,15.29,1.04,22.24
25.706939697265625,18.1,13.85,0.31,22.79
25.70807695388794,19.53,12.34,1.15,23.13
25.72746992111206,20.06,10.11,2.09,22.56
25.728521823883057,18.64,9.84,2.63,21.24
25.743156909942627,16.76,11.71,2.77,20.63
25.744196891784668,12.99,4.39,0.17,13.71
25.760339736938477,3.6,-3.42,-3.5,6.07
25.761809825897217,-9.22,-3.47,-9.61,13.76
25.775871753692627,-16.7,16.08,-5.24,23.76
25.806151866912842,-11.39,30.97,5.59,33.46
25.807456970214844,-3.3,10.37,1.13,10.94
25.808462858200073,4.07,-4.61,-0.7,6.18
25.827366828918457,10.53,-3.97,3.14,11.68
25.82840394973755,12.7,-4.13,5.18,14.32
25.843148708343506,9.29,-4.55,0.49,10.35
25.844148874282837,5.13,-0.59,0.15,5.16
25.85992193222046,2.19,0.71,1.12,2.56
25.86094379425049,0.89,-0.29,0.26,0.97
25.875926971435547,0.98,-0.91,0.49,1.42
25.90819478034973,1.22,-0.79,0.51,1.54
25.909510850906372,1.18,-0.21,0.4,1.26
25.910507678985596,1.08,0.41,0.6,1.3
25.927820682525635,0.84,0.25,0.33,0.93
25.928908824920654,0.78,-0.21,-0.27,0.85
25.943570852279663,0.86,-0.4,-0.06,0.95
25.944597721099854,0.83,-0.56,0.1,1.0
25.96066379547119,0.97,-0.63,-0.02,1.15
25.96214485168457,1.1,-0.45,0.25,1.21
25.97619390487671,0.87,-0.17,0.38,0.96
26.00782585144043,0.56,0.04,0.07,0.56
26.009074687957764,0.42,0.18,-0.34,0.56
26.009979724884033,0.34,0.22,-0.29,0.49
26.02758479118347,0.09,0.05,0.04,0.11
26.028592824935913,-0.01,-0.07,0.22,0.23
26.043375968933105,0.09,-0.03,0.17,0.19
26.044418811798096,0.16,0.01,-0.08,0.17
26.06055784225464,0.06,0.1,-0.32,0.34
26.062023878097534,-0.12,0.23,-0.62,0.67
26.07616090774536,-0.18,0.29,-0.84,0.9
26.105195999145508,-0.2,0.29,-0.78,0.85
26.10628080368042,-0.19,0.23,-0.61,0.67
26.107102870941162,-0.21,0.11,-0.59,0.63
26.12735676765442,-0.36,0.21,-0.46,0.62
26.128411769866943,-0.59,0.43,-0.2,0.75
26.143553733825684,-0.68,0.54,-0.18,0.88
26.14457678794861,-0.61,0.54,-0.17,0.83
26.160202980041504,-0.39,0.49,-0.12,0.63
26.161210775375366,-0.2,0.38,0.02,0.42
26.176052808761597,-0.27,0.34,0.2,0.47
26.20596981048584,-0.55,0.45,-0.02,0.71
26.20724868774414,-0.73,0.58,-0.32,0.98
26.208260774612427,-0.87,0.64,-0.55,1.21
26.22739887237549,-1.02,0.71,-0.84,1.5
26.22844386100769,-1.23,0.86,-1.24,1.94
26.243539810180664,-1.55,1.18,-1.38,2.38
26.24457287788391,-2.0,1.56,-1.27,2.83
26.260742664337158,-2.67,2.03,-1.33,3.6
26.262133836746216,-2.93,2.66,-1.38,4.19
26.275367736816406,-2.94,3.01,-1.5,4.46
26.304126739501953,-2.83,3.54,-1.61,4.8
26.30547571182251,-2.93,3.96,-1.78,5.23
26.306338787078857,-3.37,4.41,-1.75,5.81
26.32779884338379,-4.07,4.92,-1.88,6.65
26.328866958618164,-4.79,5.48,-2.29,7.63
26.343878746032715,-5.4,6.13,-2.94,8.68
26.344915866851807,-5.98,6.83,-3.72,9.81
26.361403942108154,-6.6,7.87,-3.87,10.97
26.362854957580566,-7.79,9.72,-4.08,13.1
26.375868797302246,-10.08,11.56,-5.7,16.36
26.377400875091553,-12.03,12.69,-7.71,19.11
26.422566890716553,-12.27,11.83,-9.63,19.57
26.42377996444702,-11.61,9.23,-10.25,18.02
26.424800872802734,-10.96,8.51,-9.08,16.58
26.444576740264893,-8.64,12.96,-4.23,16.14
26.445592880249023,-3.65,15.99,-2.38,16.57
26.460558891296387,1.33,11.85,-6.24,13.45
26.461620807647705,2.04,4.68,-8.43,9.85
26.477125883102417,-1.4,-0.21,-6.81,6.95
26.47834277153015,-4.29,-3.51,-4.79,7.32
26.492963790893555,-0.06,-0.77,-0.18,0.79
26.522886753082275,5.02,-1.01,5.09,7.22
26.52424383163452,1.56,-5.69,-0.87,5.96
26.525245666503906,-4.1,-6.98,-3.77,8.92
26.54408288002014,-8.02,-6.3,-1.75,10.34
26.545143842697144,-10.69,-5.1,-1.43,11.93
26.56052589416504,-12.26,-4.36,-1.15,13.06
26.561577796936035,-11.27,-4.13,0.09,12.0
26.57723093032837,-7.78,-5.18,0.96,9.39
26.578275680541992,-5.3,-6.33,1.3,8.35
26.592992782592773,-4.98,-7.04,1.36,8.72
26.62435483932495,-5.63,-6.74,1.16,8.85
26.625646829605103,-5.94,-6.11,0.68,8.54
26.62657070159912,-5.79,-6.01,-0.11,8.34
26.644094944000244,-5.68,-6.08,-0.76,8.35
26.645136833190918,-5.64,-6.03,-1.24,8.34
26.660639762878418,-5.29,-6.24,-1.56,8.32
26.66166067123413,-4.67,-6.52,-1.85,8.23
26.676950931549072,-3.99,-6.92,-1.99,8.23
26.67811870574951,-3.36,-7.34,-1.96,8.3
26.692859649658203,-2.87,-7.77,-1.9,8.49
26.7238028049469,-2.68,-8.06,-1.8,8.68
26.725053787231445,-2.79,-7.78,-1.28,8.36
26.72603487968445,-3.0,-7.15,-0.61,7.77
26.74406671524048,-2.77,-6.3,0.28,6.88
26.745137691497803,-1.61,-5.02,0.55,5.3
26.76098084449768,-0.15,-3.52,-0.04,3.52
26.761981964111328,1.37,-1.19,0.33,1.84
26.776184797286987,3.76,1.86,1.05,4.32
26.77761173248291,6.84,5.36,1.76,8.86
26.791202783584595,10.03,9.18,2.6,13.84
26.820476770401,12.93,13.28,2.32,18.67
26.821800708770752,15.14,16.66,1.62,22.56
26.822643756866455,16.54,17.91,1.77,24.44
26.824946880340576,17.76,17.05,2.32,24.72
26.826266765594482,18.94,15.11,2.66,24.37
26.827372789382935,18.34,16.39,2.67,24.74
26.830020904541016,17.59,17.18,3.2,24.79
26.840250968933105,16.01,13.0,2.25,20.74
26.85022783279419,7.98,0.65,-0.55,8.02
26.860122680664062,-6.45,-3.86,-4.19,8.6
26.89409875869751,-17.08,12.51,-2.88,21.36
26.895081996917725,-16.09,23.39,5.58,28.93
26.895903825759888,-7.93,9.49,6.26,13.86
26.90933084487915,1.2,-1.85,3.45,4.09
26.910191774368286,9.28,-1.23,2.47,9.68
26.927193880081177,12.82,-4.3,1.2,13.57
26.92928385734558,11.59,-4.13,-1.41,12.38
26.943963766098022,7.15,-1.88,-1.98,7.65
26.9492027759552,2.86,-0.47,-1.84,3.43
26.95908784866333,0.49,0.39,-2.95,3.01
26.996041774749756,0.16,0.31,-0.68,0.76
26.997745990753174,0.97,-0.35,3.37,3.52
26.99861192703247,1.02,-1.09,4.03,4.29
27.010931968688965,0.31,-0.65,1.56,1.71
27.011985778808594,-0.01,0.48,-0.07,0.48
27.02755379676819,0.27,0.58,-0.05,0.64
27.028584003448486,0.66,-0.33,0.48,0.88
27.043933868408203,0.81,-0.76,0.62,1.27
27.048645973205566,0.79,-0.62,0.02,1.0
27.058324813842773,0.98,-0.21,-0.74,1.24
27.096651792526245,1.34,0.07,-1.22,1.81
27.097790718078613,1.44,0.03,-1.19,1.86
27.09859800338745,0.96,-0.12,-0.7,1.19
27.111048698425293,0.23,-0.08,0.12,0.27
27.112119674682617,-0.28,0.1,0.73,0.78
27.127264976501465,-0.48,0.15,0.83,0.97
27.128314971923828,-0.21,0.08,0.38,0.44
27.143699884414673,0.3,0.08,-0.28,0.41
27.147777795791626,0.54,0.07,-0.75,0.92
27.15782880783081,0.32,0.12,-0.65,0.73
27.1681866645813,-0.06,0.2,-0.22,0.3
27.20206594467163,-0.27,0.13,-0.08,0.31
27.203117847442627,-0.25,0.15,-0.09,0.3
27.20404291152954,-0.28,0.36,-0.16,0.48
27.20710277557373,-0.44,0.52,-0.4,0.78
27.227781772613525,-0.52,0.65,-0.46,0.95
27.22884488105774,-0.6,0.6,-0.45,0.96
27.24382495880127,-0.69,0.47,-0.25,0.87
27.247235774993896,-0.63,0.39,0.08,0.74
27.258922815322876,-0.55,0.27,0.08,0.61
27.267047882080078,-0.55,0.3,-0.12,0.63
27.303040981292725,-0.59,0.48,-0.43,0.87
27.304215908050537,-0.51,0.65,-0.87,1.19
27.30532693862915,-0.52,0.92,-1.0,1.45
27.30720281600952,-0.95,1.32,-0.9,1.85
27.316582679748535,-1.59,1.73,-0.72,2.45
27.326767921447754,-1.98,1.83,-0.56,2.75
27.33646869659424,-2.37,1.73,-0.36,2.95
27.346569776535034,-2.67,1.58,-0.32,3.11
27.356472969055176,-2.71,1.52,-0.43,3.13
27.36604380607605,-2.46,1.55,-1.04,3.08
27.396968841552734,-2.21,1.82,-2.03,3.5
27.398075819015503,-2.02,2.31,-2.72,4.1
27.398883819580078,-1.96,2.88,-2.92,4.54
27.412027835845947,-2.24,3.42,-2.55,4.81
27.41578483581543,-3.06,3.83,-2.02,5.3
27.427629947662354,-4.24,4.29,-1.56,6.23
27.435484886169434,-5.24,4.68,-1.51,7.18
27.445592880249023,-5.97,5.12,-1.59,8.02
27.45583176612854,-6.59,6.04,-2.12,9.18
27.465540885925293,-7.04,7.24,-3.29,10.62
27.499201774597168,-7.76,8.53,-4.93,12.54
27.50072979927063,-8.82,9.7,-6.08,14.45
27.5017409324646,-10.07,10.57,-6.24,15.87
27.51181387901306,-11.49,10.69,-7.66,17.46
27.515056848526,-11.91,12.68,-7.25,18.84
27.524938821792603,-9.1,16.57,-5.26,19.62
27.534761905670166,-3.26,16.08,-7.2,17.91
27.544745922088623,1.94,13.51,-7.13,15.39
27.5550479888916,2.27,7.89,-5.44,9.84
27.565123796463013,-2.15,1.69,-5.92,6.52
27.60322880744934,-6.33,-1.81,-4.41,7.92
27.60456371307373,-4.46,-2.72,-5.33,7.46
27.605533838272095,3.77,2.83,-1.73,5.02
27.607810974121094,6.42,-0.14,0.95,6.49
27.614229679107666,1.03,-3.67,-4.02,5.53
27.624547958374023,-4.41,-4.06,-3.61,6.99
27.634267807006836,-7.54,-3.39,-2.58,8.66
27.644354820251465,-9.56,-2.8,-3.15,10.44
27.654205799102783,-10.0,-2.11,-2.53,10.52
27.66435480117798,-7.93,-2.4,-1.58,8.43
27.701220989227295,-5.52,-3.69,-0.63,6.66
27.702610969543457,-4.77,-5.02,0.54,6.94
27.70350694656372,-5.21,-6.2,1.41,8.22
27.70722198486328,-5.98,-6.54,1.89,9.06
27.72787380218506,-6.5,-6.53,1.62,9.35
27.728879928588867,-6.99,-6.04,0.62,9.25
27.744159698486328,-7.33,-5.63,-0.29,9.24
27.745139837265015,-7.15,-5.41,-0.83,9.0
27.760579824447632,-6.54,-5.36,-1.13,8.53
27.763341903686523,-5.85,-5.6,-1.17,8.18
27.801779747009277,-5.37,-6.23,-1.12,8.3
27.802903652191162,-5.01,-6.74,-1.16,8.47
27.80415391921997,-4.45,-7.03,-1.38,8.43
27.80768084526062,-3.69,-7.08,-1.67,8.15
27.812579870224,-2.96,-7.23,-1.93,8.04
27.827845811843872,-2.45,-7.28,-2.12,7.96
27.832568883895874,-2.11,-6.91,-1.89,7.46
27.842811822891235,-1.64,-5.84,-1.16,6.17
27.85270380973816,-0.34,-4.65,-0.96,4.76
27.86239194869995,2.38,-3.45,-1.42,4.42
27.898036003112793,5.32,-2.25,-1.37,5.93
27.899290800094604,7.63,-0.55,-0.72,7.68
27.90011167526245,9.16,2.18,0.73,9.44
27.91202187538147,10.0,5.2,2.17,11.47
27.91304874420166,11.18,8.16,3.8,14.35
27.927770853042603,12.63,10.78,5.42,17.46
27.93195676803589,13.17,12.46,5.84,19.04
27.943959712982178,12.79,12.93,5.89,19.11
27.951690673828125,13.24,13.41,6.82,20.04
27.961915969848633,14.33,13.03,7.64,20.82
27.972014904022217,14.62,11.53,8.35,20.4
28.004366874694824,14.11,9.73,8.81,19.27
28.005539894104004,14.49,11.61,6.19,19.57
28.006436824798584,14.06,6.61,-1.34,15.59
28.011133670806885,3.06,-5.47,-12.55,14.02
28.021361827850342,-12.37,0.32,-24.87,27.77
28.031449794769287,-17.16,37.42,-5.37,41.51
28.041857719421387,-11.68,37.1,9.49,40.03
28.051071882247925,-3.76,4.23,1.96,5.98
28.061091899871826,4.01,-6.28,2.16,7.75
28.070915699005127,8.66,-10.76,4.58,14.55
28.103014945983887,10.55,-12.53,3.83,16.82
28.103940963745117,11.07,-6.67,4.52,13.69
28.10501766204834,7.3,-1.49,4.5,8.7
28.110378742218018,2.57,1.35,0.78,3.0
28.128028869628906,0.03,1.98,-2.57,3.24
28.130318880081177,0.3,0.43,-1.75,1.82
28.144171714782715,1.56,-0.28,0.83,1.78
28.150144815444946,1.44,-0.21,2.78,3.13
28.160220861434937,0.39,-0.12,1.9,1.94
28.170499801635742,0.22,0.02,0.0,0.22
28.202017784118652,0.99,0.09,-0.94,1.36
28.202988862991333,1.52,-0.32,-0.77,1.73
28.204097747802734,1.36,-0.81,0.09,1.58
28.209479808807373,1.03,-0.98,0.33,1.45
28.21976375579834,1.05,-0.65,0.18,1.24
28.22982168197632,1.19,-0.17,-0.11,1.2
28.239872932434082,0.98,0.07,-0.38,1.05
28.249562740325928,0.43,0.18,0.05,0.46
28.259596824645996,0.03,0.18,0.59,0.61
28.269373893737793,-0.07,-0.02,0.48,0.48
28.300716876983643,0.1,-0.1,0.04,0.14
28.301819801330566,0.44,-0.19,-0.82,0.94
28.302668809890747,0.58,-0.08,-1.17,1.3
28.308793783187866,0.42,0.05,-0.86,0.95
28.319166660308838,0.25,0.09,-0.27,0.37
28.328754901885986,0.05,0.09,-0.37,0.38
28.338915824890137,-0.27,0.2,-0.62,0.7
28.348752975463867,-0.63,0.47,-0.21,0.81
28.35896873474121,-0.92,0.44,0.17,1.03
28.369033813476562,-0.95,0.3,0.14,1.0
28.408517837524414,-0.78,0.37,0.01,0.86
28.409844875335693,-0.48,0.44,-0.31,0.72
28.41087579727173,-0.3,0.43,-0.51,0.73
28.428690910339355,-0.39,0.38,-0.47,0.71
28.429722785949707,-0.61,0.37,-0.24,0.75
28.444623947143555,-0.8,0.42,-0.2,0.92
28.445656776428223,-0.94,0.52,-0.52,1.19
28.460815906524658,-1.11,0.67,-0.88,1.56
28.462268829345703,-1.19,0.79,-1.05,1.77
28.477048873901367,-1.32,0.84,-1.05,1.88
28.50513482093811,-1.52,0.85,-1.15,2.08
28.50649380683899,-1.51,0.91,-1.27,2.17
28.50732684135437,-1.44,1.09,-1.46,2.32
28.528681755065918,-1.61,1.42,-1.6,2.67
28.529677867889404,-1.88,1.91,-1.83,3.24
28.54442071914673,-2.11,2.42,-1.96,3.76
28.545423984527588,-1.94,2.93,-1.74,3.92
28.562041759490967,-1.96,3.53,-1.56,4.32
28.563499927520752,-2.31,3.98,-1.28,4.77
28.577115774154663,-3.07,4.32,-0.96,5.38
28.605615854263306,-3.84,4.55,-1.1,6.05
28.606847763061523,-4.21,4.85,-1.47,6.58
28.607675790786743,-4.35,5.55,-1.87,7.29
28.628742694854736,-4.71,6.18,-3.02,8.33
28.62979483604431,-5.5,7.04,-3.92,9.75
28.644869804382324,-6.89,8.37,-3.88,11.51
28.64592981338501,-8.72,10.18,-3.42,13.83
28.661717891693115,-10.46,11.52,-4.71,16.25
28.662738800048828,-11.13,11.74,-6.92,17.59
28.67733669281006,-10.86,10.33,-9.34,17.66
28.705159664154053,-10.7,8.94,-10.69,17.56
28.706270694732666,-10.25,11.69,-7.28,17.16
28.70709466934204,-7.06,15.67,-3.67,17.57
28.72871971130371,-1.42,15.26,-5.34,16.22
28.729780673980713,1.51,9.58,-6.64,11.75
28.744780778884888,-0.1,2.34,-6.85,7.23
28.745810985565186,-4.06,-2.14,-5.27,6.98
28.761971950531006,-5.14,-5.04,-4.82,8.66
28.763405799865723,0.84,-1.21,-0.17,1.48
28.777216911315918,5.06,-2.43,4.6,7.25
28.77869486808777,0.54,-6.45,-1.11,6.56
28.823351860046387,-4.86,-7.31,-3.0,9.27
28.82454776763916,-8.35,-6.84,-1.2,10.86
28.82554292678833,-10.65,-5.69,-1.02,12.11
28.846925735473633,-11.72,-4.92,-1.35,12.78
28.847954750061035,-10.2,-4.48,-0.82,11.17
28.858412742614746,-6.88,-5.33,-0.2,8.7
28.85942792892456,-4.47,-6.73,0.31,8.08
28.878472805023193,-4.28,-7.82,0.41,8.92
28.879952907562256,-5.44,-7.96,0.23,9.64
28.8939528465271,-6.34,-7.31,-0.19,9.67
28.92587685585022,-6.25,-6.2,-0.72,8.83
28.927180767059326,-5.49,-5.28,-1.34,7.73
28.928192853927612,-4.52,-4.82,-1.91,6.87
28.945361852645874,-3.93,-4.47,-2.35,6.39
28.9464328289032,-3.8,-3.98,-2.29,5.96
28.961437702178955,-3.85,-3.44,-1.66,5.42
28.96265482902527,-3.37,-3.06,-1.44,4.77
28.97887086868286,-2.25,-3.05,-1.77,4.18
28.980336666107178,-1.17,-3.12,-2.1,3.93
28.993976831436157,-0.78,-2.76,-2.01,3.5
29.026227951049805,-0.7,-2.13,-1.48,2.68
29.027587890625,-0.09,-1.56,-0.85,1.77
29.028581857681274,0.84,-1.1,-0.38,1.43
29.045676708221436,1.69,-0.42,0.16,1.74
29.046738862991333,2.28,0.35,0.9,2.47
29.06133794784546,3.04,1.32,1.77,3.75
29.06239891052246,4.5,2.51,2.63,5.78
29.078752994537354,6.4,3.63,3.26,8.04
29.080195903778076,7.82,4.5,3.39,9.63
29.094071865081787,8.75,5.48,3.2,10.8
29.124393939971924,9.63,7.17,3.54,12.51
29.125775814056396,12.34,9.19,4.9,16.14
29.126778841018677,15.24,9.0,5.43,18.51
29.145115852355957,16.28,8.03,5.72,19.03
29.146169662475586,15.52,7.93,6.69,18.66
29.161836862564087,14.44,7.56,7.58,17.97
29.162867784500122,14.57,6.94,8.33,18.16
29.178508758544922,14.51,6.84,7.7,17.79
29.179964780807495,13.09,8.48,5.17,16.43
29.193888664245605,8.79,1.39,-0.17,8.9
29.223666667938232,-1.3,-6.15,-9.6,11.47
29.224995851516724,-13.43,-1.65,-19.44,23.68
29.226051807403564,-16.64,33.24,-4.05,37.39
29.245393753051758,-11.53,36.94,12.19,40.57
29.246426820755005,-3.74,5.69,3.9,7.84
29.261624813079834,6.11,-4.73,2.15,8.02
29.262654781341553,11.14,-10.43,3.98,15.77
29.27868890762329,12.23,-10.5,2.27,16.27
29.28014898300171,10.01,-5.43,2.12,11.58
29.29427480697632,4.97,-1.49,3.03,6.0
29.32425284385681,0.73,0.79,0.82,1.35
29.325538873672485,-0.74,1.71,-1.05,2.13
29.326504707336426,0.35,0.4,-0.25,0.58
29.346006870269775,1.98,-0.51,0.15,2.05
29.347038745880127,1.92,-0.03,0.66,2.03
29.361525774002075,0.73,0.4,0.82,1.16
29.362546920776367,0.04,0.13,0.28,0.31
29.37851881980896,0.18,-0.18,0.21,0.33
29.379544734954834,0.81,-0.44,-0.09,0.92
29.394118785858154,1.13,-0.57,-0.33,1.3
29.425330877304077,1.02,-0.4,0.0,1.09
29.426666736602783,0.84,-0.18,0.13,0.86
29.427671909332275,0.62,-0.06,0.14,0.63
29.445347785949707,0.44,-0.03,0.07,0.44
29.446401834487915,0.34,0.07,0.01,0.34
29.461814880371094,0.26,0.08,-0.2,0.33
29.462833881378174,0.13,0.03,-0.38,0.4
29.47895097732544,-0.01,0.11,-0.15,0.18
