time,ax,ay,az,atotal
0.002135038375854492,0.02,-0.37,-0.64,0.73
0.003117084503173828,-0.06,-0.26,-1.04,1.07
0.0040819644927978516,-0.18,-0.45,-1.13,1.22
0.010935068130493164,-0.27,0.93,-0.15,0.97
0.020937204360961914,-0.03,0.06,-0.07,0.09
0.030775070190429688,-0.07,-0.19,0.02,0.2
0.04106903076171875,-0.21,0.16,-0.09,0.27
0.05096793174743652,-0.42,0.16,-0.22,0.5
0.06093716621398926,-0.45,0.03,-0.2,0.49
0.07076907157897949,-0.31,-0.03,-0.08,0.32
0.09873318672180176,0.01,0.06,0.11,0.12
0.09991192817687988,0.22,-0.07,0.1,0.25
0.10120320320129395,0.34,-0.06,0.22,0.4
0.11036992073059082,0.32,-0.02,0.15,0.35
0.12015223503112793,0.2,-0.03,0.1,0.22
0.12995696067810059,0.08,-0.09,0.12,0.17
0.14031004905700684,0.06,-0.09,0.17,0.2
0.15031790733337402,0.19,-0.06,0.14,0.24
0.16025614738464355,0.25,0.0,0.06,0.25
0.16998600959777832,0.14,0.04,-0.05,0.15
0.19798707962036133,0.0,0.07,-0.11,0.13
0.19915008544921875,-0.04,0.07,-0.13,0.15
0.20029401779174805,-0.02,0.04,-0.11,0.11
0.2093489170074463,-0.1,0.05,-0.07,0.13
0.21911001205444336,-0.14,0.03,-0.03,0.14
0.22910809516906738,-0.09,0.01,-0.02,0.09
0.23954105377197266,-0.01,-0.02,-0.02,0.03
0.24945402145385742,0.09,-0.04,0.04,0.1
0.25932812690734863,0.06,-0.05,0.11,0.13
0.2693610191345215,-0.01,-0.02,0.15,0.15
0.3039209842681885,-0.01,-0.04,0.18,0.18
0.30533814430236816,-0.03,-0.05,0.18,0.18
0.3061802387237549,-0.05,-0.08,0.19,0.21
0.308582067489624,-0.02,-0.07,0.28,0.28
0.31859803199768066,0.0,-0.07,0.28,0.28
0.3289680480957031,0.01,-0.09,0.2,0.21
0.3387770652770996,0.04,-0.06,0.16,0.17
0.3485701084136963,0.08,-0.03,0.12,0.14
0.3586761951446533,0.08,0.0,0.01,0.08
0.36864590644836426,0.09,0.02,-0.05,0.1
0.40564894676208496,0.1,0.0,-0.09,0.13
0.40709424018859863,0.05,0.01,-0.12,0.13
0.4079430103302002,0.03,0.01,-0.11,0.11
0.4263269901275635,0.07,0.0,-0.06,0.09
0.4278080463409424,0.16,-0.05,-0.11,0.2
0.4422619342803955,0.28,-0.06,-0.18,0.33
0.4436929225921631,0.38,-0.06,-0.14,0.4
0.45928215980529785,0.42,-0.1,-0.01,0.43
0.4607231616973877,0.4,-0.12,0.18,0.45
0.47866201400756836,0.29,-0.08,0.44,0.53
0.5045959949493408,0.28,-0.09,0.48,0.56
0.5059459209442139,0.28,-0.15,0.38,0.49
0.5069749355316162,0.13,-0.19,0.18,0.29
0.5263490676879883,0.19,0.13,0.21,0.31
0.5278201103210449,0.22,0.15,0.19,0.32
0.542593240737915,0.26,-0.09,0.02,0.27
0.5440890789031982,0.33,-0.05,-0.1,0.34
0.559434175491333,0.32,-0.01,-0.2,0.37
0.5608360767364502,0.06,0.11,-0.24,0.27
0.5732040405273438,-0.12,0.05,-0.14,0.19
0.6040332317352295,-0.11,-0.06,0.09,0.15
0.6056458950042725,-0.01,-0.08,0.33,0.33
0.6066648960113525,0.07,-0.04,0.38,0.38
0.6264810562133789,-0.11,0.01,0.29,0.31
0.627913236618042,-0.24,-0.05,0.14,0.28
0.6428039073944092,-0.32,-0.01,0.09,0.33
0.6442580223083496,-0.31,-0.02,0.11,0.32
0.6594569683074951,-0.27,-0.05,0.18,0.32
0.660815954208374,-0.16,-0.02,0.23,0.28
0.6754891872406006,0.02,-0.04,0.32,0.32
0.6778051853179932,0.1,-0.09,0.37,0.39
0.7201590538024902,0.16,-0.11,0.44,0.48
0.7214100360870361,0.14,-0.13,0.47,0.5
0.7223730087280273,-0.04,-0.12,0.4,0.41
0.7436492443084717,-0.26,-0.05,0.37,0.45
0.7451751232147217,-0.34,-0.06,0.32,0.47
0.7582061290740967,-0.26,-0.09,0.34,0.43
0.7596619129180908,0.0,-0.04,0.45,0.45
0.7759969234466553,0.35,-0.15,0.41,0.55
0.7774689197540283,0.44,-0.17,0.28,0.54
0.7957370281219482,0.27,-0.07,0.17,0.32
0.8236219882965088,-0.01,-0.06,0.11,0.12
0.8252050876617432,-0.26,-0.04,0.14,0.29
0.8262240886688232,-0.25,0.02,0.24,0.34
0.8435261249542236,0.01,-0.04,0.24,0.24
0.8448901176452637,0.18,-0.06,0.12,0.22
0.8595280647277832,0.14,-0.02,0.0,0.14
0.8609530925750732,-0.02,0.06,-0.07,0.09
0.8761260509490967,-0.18,0.09,-0.09,0.22
0.8776030540466309,-0.28,0.13,-0.11,0.32
0.8916740417480469,-0.41,0.12,-0.09,0.43
0.9168479442596436,-0.44,0.07,-0.06,0.44
0.9182710647583008,-0.38,0.02,-0.06,0.38
0.9192812442779541,-0.28,0.05,-0.12,0.3
0.9221301078796387,-0.23,0.07,-0.25,0.34
0.9425430297851562,-0.34,0.12,-0.31,0.47
0.9440171718597412,-0.44,0.16,-0.34,0.57
0.9595201015472412,-0.56,0.11,-0.43,0.71
0.9609560966491699,-0.76,0.13,-0.47,0.9
0.9747710227966309,-0.81,0.14,-0.46,0.94
0.9762051105499268,-0.81,0.07,-0.45,0.92
1.016834020614624,-0.9,0.01,-0.34,0.96
1.0183279514312744,-0.63,0.0,-0.23,0.67
1.0194120407104492,-0.13,0.0,-0.12,0.17
1.0221600532531738,0.19,0.04,-0.14,0.23
1.0429151058197021,0.15,0.07,-0.21,0.26
1.0443952083587646,-0.14,0.1,-0.15,0.22
1.0595219135284424,-0.49,0.0,-0.17,0.51
1.060967206954956,-0.69,-0.12,-0.07,0.7
1.0747148990631104,-0.53,-0.07,0.2,0.57
1.0762100219726562,-0.01,0.06,0.32,0.32
1.1202161312103271,0.22,0.11,0.18,0.3
1.1216561794281006,0.01,0.07,-0.03,0.07
1.1226611137390137,-0.1,-0.01,-0.16,0.18
1.1437098979949951,0.18,-0.01,-0.18,0.25
1.1450831890106201,0.51,0.11,-0.24,0.57
1.1596601009368896,0.64,0.17,-0.33,0.73
1.1611669063568115,0.43,0.09,-0.18,0.47
1.176044225692749,0.17,0.04,-0.14,0.22
1.1774590015411377,0.02,0.07,-0.15,0.16
1.195519208908081,-0.14,0.17,-0.17,0.27
1.2237811088562012,-0.28,0.22,-0.25,0.43
1.225161075592041,-0.4,0.2,-0.16,0.47
1.2261760234832764,-0.43,0.16,0.04,0.46
1.2433412075042725,-0.39,0.1,0.02,0.4
1.2447941303253174,-0.09,0.21,-0.15,0.27
1.259558916091919,0.3,0.21,-0.38,0.52
1.2609279155731201,0.43,0.12,-0.53,0.69
1.277238130569458,0.16,0.22,-0.52,0.58
1.2786991596221924,-0.2,0.39,-0.45,0.62
1.2957351207733154,-0.23,0.47,-0.4,0.65
1.3240630626678467,0.0,0.54,-0.46,0.7
1.3253490924835205,0.26,0.61,-0.7,0.96
1.3263561725616455,0.45,0.73,-0.95,1.27
1.3434631824493408,0.64,0.79,-1.16,1.54
1.344947099685669,0.96,0.5,-1.78,2.08
1.3591151237487793,0.55,1.21,-2.65,2.96
1.360619068145752,0.29,0.89,-2.66,2.81
1.3762099742889404,0.58,0.15,-2.15,2.23
1.377681016921997,1.05,-0.48,-2.5,2.75
1.3957021236419678,1.19,-0.4,-3.23,3.46
1.423671007156372,1.2,-0.26,-3.37,3.58
1.4249942302703857,1.39,-0.59,-2.88,3.25
1.4260132312774658,1.85,-1.2,-2.2,3.11
1.4434471130371094,2.23,-1.43,-1.89,3.25
1.4449388980865479,1.87,-1.55,-1.58,2.89
1.4598639011383057,0.77,-0.88,-0.38,1.22
1.4613301753997803,-0.41,-0.58,0.2,0.73
1.4749739170074463,-2.07,-1.24,-0.21,2.42
1.4764149188995361,-3.02,-0.91,-0.17,3.15
1.4918780326843262,-2.35,-0.95,0.31,2.55
1.4933559894561768,-1.48,-1.3,0.58,2.05
1.5389270782470703,-1.17,-0.94,0.57,1.6
1.5401132106781006,-1.1,-0.82,0.66,1.52
1.541121006011963,-0.99,-0.85,0.67,1.46
1.560575008392334,-0.67,-0.13,0.39,0.78
1.5620911121368408,0.08,-0.26,0.01,0.27
1.574836015701294,0.19,-0.5,0.59,0.79
1.5762932300567627,-0.23,-0.54,1.29,1.41
1.5933640003204346,-0.46,-0.74,1.98,2.16
1.5948760509490967,-0.18,-0.61,2.29,2.37
1.6120591163635254,0.76,-0.25,0.8,1.13
1.6424400806427002,-0.37,1.09,0.66,1.32
1.643787145614624,-0.07,1.92,3.24,3.76
1.6448252201080322,0.25,-0.21,3.63,3.64
1.6607282161712646,-0.5,-0.12,2.65,2.69
1.662156105041504,-0.55,0.78,3.17,3.31
1.676482915878296,-0.28,0.23,4.27,4.28
1.677973985671997,-1.76,1.0,4.18,4.64
1.6931860446929932,-3.64,2.3,4.02,5.89
1.694674015045166,-3.61,2.34,3.62,5.62
1.7088050842285156,-2.51,1.62,1.7,3.43
1.7354261875152588,-1.71,1.44,-0.71,2.34
1.736807107925415,-0.91,1.45,-1.93,2.57
1.7378520965576172,0.77,1.09,-0.94,1.63
1.7402660846710205,1.97,0.29,0.38,2.02
1.7416541576385498,1.91,-0.62,0.22,2.02
1.7428600788116455,1.54,-0.86,-0.62,1.86
1.747697114944458,1.26,-0.52,-0.82,1.59
1.7578589916229248,0.65,-0.38,-0.67,1.0
1.7681372165679932,-0.14,-0.3,-0.37,0.49
1.7779641151428223,-0.61,-0.17,0.31,0.7
1.805091142654419,-0.88,0.12,1.12,1.42
1.8063271045684814,-1.1,0.34,1.45,1.85
1.8072960376739502,-1.47,0.29,0.72,1.66
1.8251211643218994,-1.63,0.51,-0.35,1.74
1.8272058963775635,-1.36,0.71,-1.41,2.08
1.8431122303009033,-0.88,0.74,-2.1,2.39
1.8472249507904053,-0.42,0.44,-2.16,2.24
1.8600151538848877,-0.23,0.29,-1.88,1.91
1.8671720027923584,0.02,0.18,-1.29,1.3
1.8769571781158447,0.59,0.13,-0.76,0.97
1.9118869304656982,0.76,0.06,-0.44,0.88
1.9132070541381836,0.5,0.08,-0.21,0.54
1.914233922958374,0.29,0.11,-0.01,0.31
1.9273321628570557,0.21,-0.06,-0.08,0.23
1.9288280010223389,0.32,-0.2,-0.18,0.41
1.9435632228851318,0.4,-0.12,0.09,0.42
1.9464900493621826,0.35,-0.05,0.16,0.38
1.958420991897583,0.25,-0.09,0.03,0.26
1.9661610126495361,0.27,-0.13,0.02,0.3
1.9764039516448975,0.24,-0.04,0.13,0.27
2.0132410526275635,0.01,0.0,0.18,0.18
2.0145652294158936,-0.37,0.05,0.09,0.38
2.015644073486328,-0.68,0.16,0.1,0.7
2.0279152393341064,-0.76,0.2,-0.05,0.78
2.0294249057769775,-0.64,0.17,-0.25,0.7
2.043241024017334,-0.48,0.14,-0.38,0.62
2.0460140705108643,-0.42,0.12,-0.5,0.66
2.0603182315826416,-0.46,0.14,-0.62,0.78
2.065690040588379,-0.43,0.17,-0.69,0.83
2.0755059719085693,-0.32,0.23,-0.65,0.76
2.113395929336548,-0.01,0.13,-0.36,0.38
2.1147072315216064,0.29,0.0,-0.12,0.31
2.1157310009002686,0.53,-0.1,-0.07,0.54
2.1269071102142334,0.65,-0.14,-0.12,0.67
2.1279451847076416,0.64,-0.18,-0.07,0.66
2.1434950828552246,0.5,-0.08,0.01,0.5
2.1449971199035645,0.29,0.09,-0.21,0.36
2.160184144973755,-0.09,0.08,-0.44,0.45
2.1648900508880615,-0.51,0.14,-0.24,0.58
2.1753671169281006,-0.74,0.26,-0.03,0.78
2.2087740898132324,-0.97,0.37,-0.06,1.03
2.2100720405578613,-1.16,0.4,-0.17,1.23
2.211050033569336,-1.0,0.23,-0.11,1.03
2.2271459102630615,-0.67,0.11,0.26,0.72
2.228623151779175,-0.72,0.0,0.37,0.8
2.2433359622955322,-0.88,-0.14,0.08,0.89
2.2448298931121826,-1.13,0.03,-0.52,1.24
2.26141095161438,-1.53,0.33,-1.19,1.96
2.264198064804077,-1.77,0.59,-1.81,2.59
2.2739601135253906,-1.79,0.75,-2.22,2.94
2.2845962047576904,-1.62,0.73,-2.26,2.87
2.3162381649017334,-1.06,0.48,-1.38,1.8
2.3174240589141846,0.06,0.02,-0.22,0.22
2.318749189376831,0.35,-0.34,0.41,0.63
2.323308229446411,0.48,-0.07,0.38,0.61
2.3337600231170654,0.64,0.51,-0.26,0.85
2.343446969985962,0.82,0.89,-1.32,1.79
2.353426218032837,1.55,1.24,-2.13,2.91
2.3634040355682373,2.09,1.47,-2.23,3.39
2.3734519481658936,1.55,1.79,-1.75,2.94
2.383286237716675,0.42,2.64,-0.97,2.84
2.414923906326294,-0.61,4.01,0.46,4.08
2.416222095489502,-1.73,4.2,0.12,4.54
2.4172260761260986,-2.46,4.69,-0.14,5.29
2.423748016357422,-1.98,4.87,0.49,5.27
2.4330930709838867,-1.7,4.44,0.07,4.75
2.443881034851074,-1.61,3.83,-0.1,4.15
2.452955961227417,-1.36,3.21,-0.17,3.49
2.4625861644744873,-1.39,2.76,-0.48,3.12
2.4727962017059326,-1.73,2.3,-0.88,3.0
2.48298716545105,-2.05,2.17,-1.13,3.19
2.5151491165161133,-2.14,1.9,-1.33,3.15
2.516592025756836,-2.12,1.53,-1.71,3.12
2.517559051513672,-1.95,1.12,-1.91,2.95
2.52709698677063,-1.53,0.88,-1.97,2.64
2.5320842266082764,-0.69,0.34,-1.97,2.11
2.5424439907073975,0.08,0.34,-1.95,1.98
2.551995038986206,0.59,1.44,-1.99,2.52
2.5618369579315186,1.8,2.98,-1.75,3.89
2.5719869136810303,2.97,4.03,-1.74,5.29
2.5816850662231445,1.18,1.72,-2.54,3.28
2.6145269870758057,-0.28,-0.6,-2.82,2.89
2.6159651279449463,-1.54,-2.34,-3.3,4.32
2.6169850826263428,-3.47,-4.53,-3.52,6.7
2.627411127090454,-1.49,-4.07,-2.86,5.19
2.6314120292663574,-0.4,-2.88,-2.14,3.61
2.643493890762329,-2.97,-2.82,-2.6,4.85
2.651384115219116,-5.7,-2.92,-3.38,7.24
2.661128044128418,-7.38,-3.12,-3.06,8.57
2.671135187149048,-7.24,-3.27,-1.99,8.18
2.6809799671173096,-5.64,-3.55,-1.1,6.75
2.7198421955108643,-3.81,-3.73,-0.67,5.37
2.7211790084838867,-2.86,-3.44,-0.45,4.49
2.7221639156341553,-2.75,-2.87,-0.43,3.99
2.723980188369751,-2.81,-2.21,-0.39,3.59
2.7303531169891357,-2.74,-1.8,-0.27,3.28
2.740490198135376,-2.66,-1.54,-0.21,3.08
2.750757932662964,-2.59,-1.0,-0.14,2.77
2.760580062866211,-2.4,-0.5,0.0,2.45
2.7703511714935303,-2.06,-0.31,0.06,2.08
2.7803430557250977,-1.5,-0.22,0.02,1.51
2.814995050430298,-0.77,-0.09,-0.01,0.77
2.816394090652466,-0.07,0.23,-0.09,0.25
2.817420244216919,0.29,0.61,-0.14,0.68
2.8272900581359863,0.17,0.94,-0.15,0.96
2.8298730850219727,-0.39,1.32,0.02,1.37
2.8436009883880615,-0.97,1.8,0.43,2.08
2.8498971462249756,-0.77,1.92,0.61,2.15
2.8602259159088135,0.09,2.02,0.64,2.12
2.8698570728302,1.09,2.09,0.69,2.45
2.879502058029175,1.61,1.79,0.5,2.45
2.9166529178619385,1.66,1.61,0.25,2.32
2.9180400371551514,1.72,1.58,0.05,2.33
2.9191129207611084,1.84,1.53,-0.08,2.39
2.926100015640259,1.77,1.47,0.04,2.3
2.9290881156921387,1.44,1.28,0.4,1.96
2.942858934402466,1.14,0.86,0.84,1.65
2.9490292072296143,1.06,0.29,1.2,1.62
2.9606800079345703,0.97,-0.08,1.49,1.77
2.9689910411834717,0.93,-0.22,1.82,2.05
2.9788870811462402,0.86,-0.4,2.13,2.33
3.0157558917999268,0.94,-0.39,2.43,2.63
3.0171239376068115,1.4,-0.59,2.61,3.01
3.0182340145111084,1.81,-0.87,2.71,3.37
3.0277559757232666,2.15,-0.97,2.97,3.79
3.029218912124634,2.62,-1.02,3.42,4.42
3.04384708404541,3.0,-0.96,3.76,4.9
3.048248052597046,3.28,-0.81,3.64,4.96
3.060375928878784,3.62,-0.81,3.23,4.91
3.068166971206665,4.16,-0.89,2.84,5.11
3.0779812335968018,4.77,-0.92,2.57,5.49
3.088550090789795,5.1,-0.49,2.38,5.64
3.120784044265747,4.97,3.37,1.06,6.09
3.121941089630127,6.3,1.62,-0.02,6.5
3.1229500770568848,10.54,1.21,0.37,10.61
3.1445460319519043,14.93,2.26,2.43,15.29
3.146083116531372,14.68,1.09,2.34,14.9
3.160593032836914,6.28,-1.46,0.87,6.5
3.1620800495147705,-2.22,-2.2,0.5,3.16
3.1767051219940186,-5.31,-0.79,1.5,5.57
3.1781740188598633,-2.93,0.47,2.98,4.2
3.1926960945129395,-0.84,1.21,3.57,3.86
3.2202110290527344,-1.61,1.42,2.3,3.14
3.2220051288604736,-2.06,1.29,0.98,2.62
3.2231171131134033,-0.1,0.77,1.47,1.66
3.226534128189087,1.71,0.09,1.85,2.52
3.2366621494293213,1.81,-0.22,1.37,2.28
3.2470030784606934,1.33,-0.37,0.54,1.48
3.2569470405578613,1.2,-0.35,-0.32,1.29
3.266771078109741,1.04,-0.35,-1.45,1.81
3.276719093322754,0.68,-0.13,-2.04,2.15
3.286623239517212,0.66,-0.08,-1.3,1.46
3.316210985183716,0.21,-0.24,0.05,0.32
3.3173820972442627,-0.81,-0.04,0.8,1.13
3.3186872005462646,-1.51,0.23,0.72,1.68
3.3260419368743896,-1.51,0.52,0.65,1.72
3.3361520767211914,-1.1,0.61,0.43,1.32
3.346247911453247,-0.5,0.24,-0.09,0.56
3.3561511039733887,0.05,0.03,-0.55,0.55
3.3658370971679688,0.28,0.23,-0.47,0.59
3.3757710456848145,0.19,0.3,-0.59,0.68
3.3865320682525635,-0.31,0.34,-0.95,1.05
3.4184350967407227,-0.69,0.45,-0.99,1.28
3.4196250438690186,-0.44,0.4,-0.67,0.89
3.421208143234253,-0.19,0.22,-0.54,0.61
3.4251129627227783,0.25,0.05,-0.46,0.52
3.4482462406158447,1.08,0.01,-0.25,1.1
3.449740171432495,1.45,-0.08,-0.13,1.45
3.4602210521698,1.35,-0.16,-0.27,1.38
3.465149164199829,1.06,-0.27,-0.19,1.11
3.477283239364624,0.74,-0.28,0.09,0.79
3.485272169113159,0.37,-0.18,0.21,0.46
3.5212819576263428,0.0,-0.01,0.11,0.11
3.522681951522827,-0.24,0.11,-0.04,0.26
3.5237162113189697,-0.2,0.14,-0.03,0.24
3.545069932937622,0.03,0.11,-0.01,0.11
3.5464890003204346,0.07,0.08,-0.01,0.1
3.5608670711517334,-0.09,0.1,-0.1,0.16
3.562274217605591,-0.33,0.1,-0.23,0.41
3.576997995376587,-0.54,0.11,-0.39,0.67
3.578479051589966,-0.61,0.13,-0.46,0.77
3.593611001968384,-0.49,0.16,-0.39,0.64
3.6217551231384277,-0.46,0.13,-0.43,0.64
3.6229841709136963,-0.68,0.05,-0.5,0.84
3.6239659786224365,-0.82,0.07,-0.37,0.9
3.644562005996704,-0.79,0.1,-0.19,0.81
3.6460280418395996,-0.58,0.03,-0.07,0.58
3.6606762409210205,-0.23,-0.07,0.09,0.25
3.662147045135498,0.17,-0.13,0.08,0.22
3.6769769191741943,0.15,-0.23,-0.18,0.32
3.678462028503418,-0.27,-0.21,-0.54,0.63
3.6929380893707275,-0.51,-0.11,-0.59,0.78
3.719440221786499,-0.46,-0.03,-0.1,0.47
3.7208800315856934,-0.54,0.16,0.17,0.58
3.7219300270080566,-0.68,0.33,-0.09,0.76
3.7245419025421143,-1.18,0.42,-0.32,1.29
3.732856035232544,-1.4,0.5,-0.21,1.5
3.743201971054077,-0.88,0.5,0.18,1.02
3.7530860900878906,-0.34,0.37,0.25,0.56
3.76311993598938,-0.16,0.15,-0.16,0.27
3.7730090618133545,-0.26,0.0,-0.67,0.71
3.782794237136841,-0.47,-0.04,-0.95,1.06
3.8178369998931885,-0.86,0.19,-1.21,1.49
3.819397211074829,-1.16,0.42,-1.3,1.79
3.8203961849212646,-1.41,0.58,-1.16,1.91
3.8241610527038574,-1.35,0.61,-1.05,1.81
3.8440940380096436,-1.01,0.47,-0.87,1.41
3.845539093017578,-0.56,0.11,-0.39,0.69
3.860821008682251,0.18,0.06,0.29,0.34
3.862260103225708,0.62,0.14,0.44,0.77
3.8761842250823975,0.76,0.01,0.16,0.77
3.882153034210205,1.05,-0.1,0.02,1.05
3.8930251598358154,1.46,-0.11,-0.09,1.46
3.925513982772827,1.58,-0.27,-0.34,1.63
3.9268460273742676,1.4,-0.26,-0.4,1.47
3.927872896194458,0.94,-0.04,-0.43,1.03
3.9447591304779053,0.54,0.23,-0.28,0.65
3.9462521076202393,0.48,0.44,0.16,0.67
3.960987091064453,0.29,0.8,0.2,0.87
3.962449073791504,-0.25,1.63,-0.02,1.64
3.9774601459503174,-0.89,1.89,-0.45,2.13
3.9811851978302,-1.25,1.95,-0.79,2.44
3.993197202682495,-0.96,1.75,-0.5,2.05
4.020615100860596,-0.76,1.33,-0.53,1.62
4.0219361782073975,-0.5,0.81,-0.32,1.0
4.022948980331421,0.02,0.67,0.06,0.67
4.030600070953369,0.41,1.12,0.0,1.19
4.040982007980347,0.67,1.41,0.03,1.56
4.050986051559448,0.95,1.48,-0.04,1.75
4.060834169387817,1.48,1.64,0.12,2.21
4.070539236068726,1.57,1.65,0.23,2.28
4.080681085586548,1.24,1.74,0.03,2.13
4.0906031131744385,0.7,1.97,-0.13,2.09
4.119330167770386,-0.05,1.87,-0.43,1.91
4.120503187179565,-0.7,1.81,-0.77,2.08
4.121793985366821,-1.32,1.72,-0.98,2.37
4.129964113235474,-1.74,1.62,-1.32,2.71
4.140295028686523,-1.7,1.57,-1.6,2.81
4.150013208389282,-1.7,1.46,-1.94,2.96
4.160171031951904,-1.69,1.34,-2.03,2.96
4.169800043106079,-1.72,1.23,-1.88,2.82
4.1797850131988525,-1.91,1.02,-1.87,2.86
4.189874887466431,-1.75,1.14,-1.58,2.61
4.219893217086792,-1.58,1.55,-1.09,2.46
4.221119165420532,-1.53,1.42,-0.92,2.28
4.222464084625244,-0.99,1.34,-0.67,1.79
4.22911810874939,0.41,1.77,-0.72,1.95
4.23942494392395,0.71,1.21,-1.66,2.17
4.249429941177368,-0.01,0.52,-2.11,2.17
4.25944709777832,-0.33,0.17,-1.75,1.78
4.2691991329193115,-0.35,-0.48,-1.2,1.33
4.279067039489746,-0.6,-1.06,-1.33,1.8
4.289096117019653,-1.89,-2.5,-2.2,3.82
4.326426029205322,-4.47,-4.28,-2.8,6.79
4.327783107757568,-5.12,-2.68,-1.97,6.1
4.328793048858643,-4.16,-1.68,-1.43,4.7
4.344801187515259,-4.97,-2.42,-1.92,5.85
4.346282243728638,-6.48,-2.42,-2.26,7.27
4.360971212387085,-7.32,-1.91,-2.24,7.88
4.362437009811401,-6.97,-1.23,-2.04,7.36
4.377245187759399,-5.93,-0.61,-1.93,6.26
4.378697156906128,-4.94,-0.07,-2.03,5.34
4.393131971359253,-3.91,0.38,-2.23,4.51
4.421946048736572,-2.88,0.71,-2.22,3.7
4.423265218734741,-2.18,0.78,-1.97,3.04
4.42423415184021,-2.11,0.72,-1.44,2.65
4.443681955337524,-2.49,0.59,-0.83,2.69
4.44511604309082,-2.84,0.54,-0.31,2.9
4.458621025085449,-2.94,0.66,0.03,3.01
4.460055112838745,-2.76,0.92,0.22,2.91
4.478092908859253,-2.27,1.03,0.17,2.49
4.47959303855896,-1.74,1.13,0.02,2.07
4.494155168533325,-1.32,1.4,-0.09,1.92
4.523883104324341,-0.94,1.58,-0.07,1.83
4.525213956832886,-0.46,1.51,0.03,1.57
4.526231050491333,0.04,1.27,0.17,1.28
4.544860124588013,0.37,1.15,0.31,1.24
4.546317100524902,0.66,1.21,0.42,1.44
4.561134099960327,0.83,1.18,0.48,1.52
4.562598943710327,0.87,1.15,0.56,1.54
4.577691078186035,0.92,1.12,0.76,1.63
4.57916522026062,1.04,0.96,1.07,1.77
4.593289136886597,1.28,0.84,1.4,2.07
4.6212451457977295,1.51,0.72,1.75,2.42
4.622697114944458,1.56,0.5,2.02,2.6
4.623694181442261,1.46,0.38,2.22,2.68
4.645126104354858,1.43,0.26,2.42,2.82
4.646600008010864,1.57,0.0,2.53,2.97
4.660948991775513,1.79,-0.25,2.58,3.15
4.662436008453369,1.94,-0.31,2.65,3.29
4.677744150161743,2.14,-0.35,2.78,3.52
4.679208993911743,2.35,-0.39,2.8,3.67
4.694117069244385,2.55,-0.43,2.86,3.85
4.696463108062744,2.72,-0.52,2.81,3.94
4.739167928695679,3.01,-0.42,2.63,4.01
4.740304231643677,3.47,-0.37,2.44,4.25
4.741318941116333,3.9,-0.44,2.15,4.47
4.762021064758301,4.14,-0.47,1.94,4.59
4.7634899616241455,4.29,-0.5,1.86,4.7
4.777431011199951,4.44,-0.52,1.85,4.83
4.7788660526275635,4.73,-0.52,1.91,5.12
4.794479131698608,5.11,-0.61,1.99,5.51
4.795943975448608,5.26,-0.85,2.01,5.69
4.809601068496704,5.06,-1.0,1.96,5.51
4.836028099060059,4.72,-0.97,1.92,5.18
4.837445020675659,4.34,-0.1,1.72,4.66
4.838473081588745,4.78,1.25,1.16,5.07
4.840870141983032,8.29,0.07,1.02,8.35
4.844475984573364,10.43,1.46,1.81,10.68
4.854269027709961,9.28,1.8,2.19,9.7
4.864851236343384,5.59,-0.95,1.03,5.76
4.874780893325806,0.57,-2.16,-0.06,2.23
4.88460898399353,-2.55,-1.08,0.55,2.82
4.894453048706055,-2.31,-0.62,1.25,2.69
4.923914194107056,-1.01,-1.21,1.23,1.99
4.925081968307495,-0.3,-1.34,1.26,1.86
4.926058053970337,0.36,-0.41,1.76,1.84
4.933656930923462,0.97,0.66,2.63,2.87
4.943959951400757,0.88,1.1,3.07,3.37
4.953955888748169,0.37,0.93,2.87,3.03
4.964076042175293,0.04,0.1,1.82,1.82
4.973952054977417,0.3,-0.4,0.16,0.52
4.98367714881897,0.85,-0.21,-0.94,1.28
4.993694067001343,0.83,0.44,-1.45,1.72
5.025168180465698,0.26,0.85,-0.7,1.13
5.026335954666138,-0.49,0.71,0.49,0.99
5.027327060699463,-0.99,0.27,0.95,1.39
5.045362234115601,-0.7,-0.1,0.54,0.88
5.046832084655762,0.01,-0.38,-0.09,0.39
5.061340093612671,0.56,-0.32,0.14,0.66
5.062924146652222,0.59,0.06,0.51,0.78
5.077984094619751,-0.14,0.3,-0.17,0.37
5.083172082901001,-0.26,0.46,-0.73,0.9
5.093493223190308,0.14,0.28,-0.53,0.61
5.130965948104858,0.46,0.39,-0.27,0.66
5.132411241531372,0.52,0.34,0.04,0.62
5.133402109146118,0.44,0.06,0.22,0.49
5.144769906997681,0.12,0.04,-0.02,0.12
5.145790100097656,0.09,0.19,-0.6,0.63
5.161329984664917,0.12,0.15,-0.96,0.97
5.16278600692749,0.2,0.23,-1.11,1.15
5.178022146224976,-0.15,0.34,-1.21,1.26
5.182223081588745,-0.44,0.36,-0.97,1.12
5.1935789585113525,-0.31,0.26,-0.62,0.74
5.227809190750122,-0.24,0.15,-0.3,0.41
5.229098081588745,-0.52,0.09,-0.02,0.52
5.230142116546631,-0.53,0.12,0.1,0.55
5.245687007904053,-0.11,-0.02,0.33,0.34
5.247158050537109,0.28,-0.1,0.37,0.47
5.261229038238525,0.69,-0.18,0.22,0.74
5.262717008590698,0.8,-0.21,0.16,0.84
5.278135061264038,0.73,-0.2,0.12,0.76
5.281429052352905,0.59,-0.17,0.04,0.61
5.293551206588745,0.3,-0.14,-0.14,0.35
5.332866907119751,0.06,-0.06,-0.34,0.35
5.334110975265503,0.14,0.01,-0.34,0.36
5.335116147994995,0.32,-0.04,-0.27,0.42
5.345393896102905,0.7,-0.13,-0.17,0.73
5.346856117248535,0.97,-0.1,0.15,0.98
5.361455202102661,0.75,0.04,0.25,0.79
5.362905025482178,0.43,0.09,0.18,0.47
5.377918004989624,0.15,0.01,0.12,0.19
5.38067102432251,-0.16,-0.09,-0.06,0.19
5.393532037734985,-0.38,-0.13,-0.11,0.41
5.428344011306763,-0.51,-0.12,-0.05,0.52
5.429735898971558,-0.62,-0.09,0.04,0.62
5.430753946304321,-0.77,0.0,0.26,0.81
5.4454450607299805,-0.83,0.07,0.17,0.85
5.4468910694122314,-0.85,0.08,-0.21,0.87
5.461405992507935,-0.8,0.15,-0.36,0.89
5.46283221244812,-0.79,0.28,-0.3,0.89
5.4780261516571045,-0.94,0.36,-0.53,1.13
5.4798829555511475,-1.25,0.38,-0.7,1.48
5.493285894393921,-1.56,0.49,-0.65,1.75
5.4997498989105225,-1.14,0.53,-0.26,1.28
5.542351961135864,-0.43,0.22,0.15,0.5
5.54352593421936,0.07,0.0,0.1,0.12
5.5445311069488525,0.32,-0.12,-0.15,0.37
5.562244176864624,0.35,-0.18,-0.21,0.44
5.563726186752319,0.27,-0.13,0.01,0.29
5.578152894973755,0.17,-0.05,0.19,0.25
5.579602956771851,-0.1,0.07,0.22,0.25
5.594865083694458,-0.62,0.17,0.07,0.64
5.596277952194214,-0.9,0.2,-0.29,0.96
5.609682083129883,-0.79,0.24,-0.5,0.96
5.6360321044921875,-0.79,0.35,-0.8,1.17
5.637273073196411,-0.54,0.59,-1.23,1.46
5.63831901550293,-0.22,0.43,-1.42,1.49
5.640216112136841,-0.16,0.15,-1.17,1.19
5.661134958267212,-0.41,-0.06,-0.69,0.8
5.66217303276062,-0.7,-0.1,-0.13,0.71
5.678157091140747,-1.05,0.07,0.11,1.05
5.679593086242676,-1.41,0.3,-0.13,1.44
5.69377589225769,-1.33,0.36,-0.4,1.43
5.698310136795044,-0.56,0.26,-0.33,0.7
5.735771894454956,0.61,0.06,-0.25,0.66
5.737037897109985,1.11,-0.16,-0.2,1.13
5.738261938095093,0.77,-0.3,-0.18,0.84
5.740941047668457,0.27,-0.4,-0.13,0.49
5.761516094207764,0.38,0.03,0.51,0.63
5.762994050979614,0.71,0.16,0.85,1.11
5.7782862186431885,0.82,0.04,0.73,1.09
5.7797770500183105,0.76,-0.04,0.76,1.07
5.794016122817993,0.81,-0.09,0.5,0.95
5.7974889278411865,0.94,-0.05,0.34,1.0
5.836059093475342,0.9,-0.14,0.31,0.96
5.837263107299805,0.57,-0.14,0.19,0.61
5.838409185409546,0.25,-0.24,-0.17,0.38
5.840922117233276,0.01,-0.23,-0.46,0.51
5.861433029174805,-0.24,0.05,-0.71,0.75
5.86250901222229,-0.36,0.53,-0.73,0.97
5.877996206283569,-0.56,0.65,-0.76,1.14
5.879472017288208,-0.65,0.89,-0.83,1.37
5.8939149379730225,-0.34,1.02,-0.39,1.14
5.896772146224976,-0.33,0.78,0.41,0.94
5.936082124710083,-0.3,0.61,1.02,1.22
5.93726110458374,-0.53,0.98,1.85,2.15
5.938472032546997,-0.15,1.49,2.22,2.67
5.940983057022095,-0.27,1.94,1.5,2.46
5.961604118347168,-0.26,2.0,0.54,2.08
5.962651014328003,-0.22,2.09,-0.23,2.11
5.978070020675659,-0.37,1.8,-0.77,1.99
5.979536056518555,-0.27,1.72,-1.32,2.18
5.994077920913696,-0.26,1.84,-1.47,2.36
5.995916128158569,-0.18,1.84,-1.66,2.48
6.036102056503296,-0.18,2.01,-1.82,2.71
6.037272214889526,-0.31,2.16,-1.65,2.73
6.038563966751099,-0.54,2.26,-1.61,2.82
6.041239976882935,-0.82,2.15,-1.38,2.68
6.061928033828735,-0.92,2.16,-0.98,2.54
6.063390016555786,-1.09,2.23,-0.65,2.56
6.078425168991089,-1.26,1.82,-0.43,2.25
6.079899072647095,-1.31,1.57,-0.34,2.07
6.094009160995483,-1.41,1.39,-0.4,2.01
6.095499038696289,-1.46,1.09,-0.41,1.86
6.137639045715332,-0.94,1.39,-0.52,1.75
6.1387879848480225,-0.31,1.68,-0.95,1.95
6.139959096908569,-0.36,1.38,-1.5,2.06
6.1414759159088135,-0.49,1.48,-1.8,2.38
6.1446311473846436,-0.18,1.26,-1.69,2.11
6.154677152633667,1.34,1.88,-1.36,2.67
6.164969205856323,2.39,2.24,-1.93,3.8
6.1749632358551025,0.9,1.15,-2.6,2.98
6.18477201461792,-0.15,0.53,-2.3,2.36
6.194842100143433,-1.26,-0.38,-2.49,2.81
6.231032133102417,-3.02,-2.12,-2.61,4.51
6.232177972793579,-4.66,-3.4,-2.29,6.2
6.233222007751465,-4.26,-1.65,-0.96,4.66
6.24557900428772,-3.64,-1.41,-1.08,4.05
6.246639013290405,-4.68,-2.18,-2.16,5.59
6.262068033218384,-6.1,-2.38,-2.68,7.07
6.264029026031494,-6.57,-2.07,-2.47,7.31
6.278127908706665,-5.59,-1.71,-1.95,6.16
6.2841222286224365,-4.28,-1.87,-1.64,4.95
6.294086217880249,-3.44,-2.0,-1.49,4.24
6.303944110870361,-2.88,-1.57,-1.41,3.57
6.335021018981934,-2.54,-1.04,-1.19,2.99
6.336220979690552,-2.66,-0.81,-0.86,2.91
6.3375022411346436,-3.11,-0.76,-0.37,3.22
6.343152046203613,-3.54,-0.53,0.2,3.58
6.353191137313843,-3.72,-0.12,0.58,3.76
6.363188982009888,-3.54,0.32,0.58,3.6
6.3733580112457275,-3.29,0.77,0.22,3.38
6.383356094360352,-3.26,1.11,-0.33,3.45
6.393334150314331,-3.15,1.19,-0.82,3.46
6.403081178665161,-2.9,1.22,-1.03,3.31
6.434377908706665,-2.45,1.35,-1.01,2.97
6.435720205307007,-1.92,1.21,-0.85,2.42
6.436811208724976,-1.5,0.99,-0.64,1.9
6.443092107772827,-1.13,0.85,-0.38,1.46
6.45228910446167,-0.65,0.55,-0.21,0.87
6.462321043014526,-0.18,0.37,-0.09,0.42
6.472523927688599,0.22,0.52,0.2,0.59
6.482397079467773,0.75,0.58,0.6,1.12
6.492592096328735,1.29,0.47,1.07,1.74
6.502371072769165,1.64,0.53,1.47,2.26
6.534024000167847,1.91,0.66,1.72,2.65
6.53525710105896,2.24,0.55,1.95,3.02
6.53630518913269,2.45,0.43,2.26,3.36
6.544668912887573,2.44,0.45,2.56,3.56
6.551610231399536,2.36,0.63,2.8,3.71
6.561428070068359,2.48,0.9,2.94,3.95
6.57187819480896,2.86,1.07,2.99,4.27
6.581603050231934,3.19,1.08,2.9,4.44
6.5918262004852295,3.34,0.97,2.65,4.37
6.601639986038208,3.52,0.86,2.42,4.35
6.632611989974976,3.89,0.7,2.3,4.57
6.633969068527222,4.44,0.41,2.21,4.97
6.634982109069824,4.91,0.06,2.12,5.34
6.645777940750122,5.05,-0.23,1.93,5.41
6.650879144668579,4.89,-0.37,1.73,5.2
6.661000967025757,4.74,-0.43,1.65,5.03
6.670838117599487,4.72,-0.63,1.62,5.02
6.681124925613403,4.74,-0.85,1.55,5.05
6.6910340785980225,4.72,-1.0,1.45,5.03
6.70098614692688,4.6,-1.16,1.26,4.9
6.738481044769287,4.37,-1.29,1.11,4.68
6.73983907699585,4.05,-1.39,0.99,4.39
6.740811109542847,3.73,-1.31,0.89,4.05
6.74297308921814,5.11,0.98,0.65,5.24
6.750132083892822,6.6,1.36,0.17,6.74
6.7602410316467285,7.93,0.8,-0.3,7.97
6.770153045654297,6.98,1.27,1.22,7.19
6.780317068099976,4.84,-1.28,0.9,5.08
6.790263891220093,0.98,-1.9,0.21,2.14
6.800149202346802,-2.09,-0.88,1.01,2.48
6.836773157119751,-2.35,-0.72,2.23,3.31
6.83818507194519,-1.4,-0.66,3.37,3.7
6.839155912399292,-0.06,0.61,4.49,4.53
6.841357946395874,-0.17,1.23,4.5,4.66
6.861901044845581,-1.1,0.93,3.04,3.36
6.8629150390625,-1.1,0.44,1.39,1.82
6.878598928451538,-0.19,0.06,0.27,0.33
6.880062103271484,0.44,0.3,0.01,0.53
6.894706964492798,0.51,0.57,0.28,0.81
6.8992180824279785,0.58,0.2,-0.19,0.64
6.93793511390686,0.76,-0.23,-1.1,1.35
6.939035177230835,0.9,-0.23,-1.46,1.73
6.940130949020386,1.15,-0.33,-1.25,1.73
6.941282033920288,1.34,-0.12,-0.44,1.41
6.948596239089966,1.1,0.16,0.29,1.14
6.958713054656982,0.57,0.03,0.67,0.88
6.968786001205444,-0.23,0.02,0.43,0.48
6.978794097900391,-0.53,0.16,0.0,0.55
6.988614082336426,-0.18,0.33,0.14,0.4
6.998637914657593,-0.15,0.39,0.06,0.42
7.034627199172974,-0.2,0.24,-0.53,0.61
7.035995006561279,0.0,0.27,-0.89,0.93
7.037137031555176,0.31,0.38,-0.81,0.94
7.045346975326538,0.56,0.29,-0.6,0.87
7.04793906211853,0.76,0.29,-0.66,1.04
7.060720205307007,0.76,0.28,-0.69,1.06
7.0681068897247314,0.63,0.11,-0.64,0.9
7.078566074371338,0.29,0.12,-0.5,0.59
7.087885141372681,0.0,0.27,-0.15,0.3
7.097860097885132,-0.14,0.22,-0.05,0.26
7.107885122299194,-0.06,0.15,-0.21,0.26
7.138021230697632,0.01,0.07,-0.2,0.21
7.139159917831421,-0.01,0.04,-0.05,0.06
7.140360116958618,-0.09,0.06,-0.03,0.11
7.147068023681641,-0.19,0.03,-0.26,0.32
7.157166242599487,-0.33,0.08,-0.5,0.6
7.167269945144653,-0.32,0.15,-0.37,0.51
7.177629232406616,-0.41,0.08,-0.08,0.42
7.187328100204468,-0.46,0.02,-0.12,0.47
7.1971518993377686,-0.14,-0.08,-0.05,0.16
7.207227945327759,-0.08,-0.07,-0.08,0.13
7.237999200820923,-0.2,0.08,-0.41,0.46
7.23915696144104,-0.15,0.21,-0.36,0.44
7.240292072296143,-0.15,0.11,-0.07,0.19
7.246596097946167,-0.24,-0.07,0.16,0.29
7.256443023681641,-0.49,-0.22,0.29,0.61
7.2665910720825195,-0.69,-0.18,0.31,0.77
7.276679039001465,-0.73,-0.01,0.14,0.74
7.286410093307495,-0.76,0.15,-0.24,0.81
7.296402215957642,-0.85,0.24,-0.62,1.07
7.306180238723755,-0.81,0.29,-0.63,1.06
7.3368470668792725,-0.69,0.29,-0.32,0.81
7.33799409866333,-0.71,0.24,0.08,0.75
7.339233160018921,-0.83,0.24,0.47,0.98
7.3457090854644775,-0.99,0.28,0.43,1.11
7.3625218868255615,-0.53,0.2,0.31,0.64
7.36580491065979,0.09,-0.05,0.41,0.42
7.378803014755249,0.38,-0.42,0.38,0.68
7.385831117630005,0.25,-0.52,0.12,0.58
7.395441055297852,-0.13,-0.34,-0.26,0.44
7.405531167984009,-0.57,0.0,-0.76,0.95
7.436706066131592,-0.98,0.31,-0.99,1.42
7.437941074371338,-0.88,0.53,-0.6,1.18
7.439168214797974,-0.45,0.45,-0.3,0.7
7.444958925247192,-0.17,0.23,-0.2,0.34
7.462309122085571,-0.02,-0.02,0.04,0.04
7.464800119400024,0.12,-0.14,0.38,0.42
7.477230072021484,0.1,0.04,0.36,0.37
7.48487401008606,-0.14,0.32,-0.11,0.36
7.494762182235718,-0.22,0.23,-0.45,0.55
7.504832983016968,-0.1,0.01,-0.29,0.3
7.5400049686431885,0.22,-0.26,0.02,0.34
7.541150093078613,0.22,-0.35,0.21,0.46
7.542052984237671,-0.52,-0.2,-0.01,0.55
7.5628821849823,-0.68,0.08,-0.17,0.7
7.563940048217773,-0.14,0.13,-0.01,0.19
7.578973054885864,0.29,0.05,-0.04,0.29
7.580454111099243,0.74,-0.03,-0.08,0.74
7.596137046813965,1.1,0.04,-0.07,1.1
7.597615003585815,1.17,0.15,-0.06,1.18
7.611490964889526,1.04,0.49,-0.25,1.17
7.640433073043823,0.93,0.46,-0.43,1.12
7.641855955123901,0.88,0.77,-0.41,1.23
7.642950057983398,0.85,1.24,-0.74,1.67
7.663006067276001,0.56,1.5,-0.97,1.87
7.664489030838013,-0.03,1.75,-0.76,1.9
7.679033994674683,-0.22,1.46,-0.88,1.71
7.6804869174957275,-0.35,1.6,-0.81,1.82
7.695828199386597,-0.65,1.96,-0.72,2.18
7.69725489616394,-0.45,2.43,-0.44,2.51
7.711252927780151,-0.47,2.51,-0.24,2.56
7.740407228469849,-0.85,2.91,0.02,3.03
7.741864919662476,-1.0,2.94,0.39,3.12
7.742858171463013,-0.87,2.5,0.71,2.74
7.763184070587158,-0.97,2.46,0.75,2.74
7.7645251750946045,-1.19,2.44,1.19,2.96
7.779027223587036,-1.19,2.04,1.3,2.69
7.780371904373169,-1.32,1.95,0.8,2.48
7.79566502571106,-1.14,2.24,0.5,2.56
7.79709005355835,-0.8,2.31,0.24,2.45
7.811387062072754,-0.8,2.09,-0.21,2.24
7.84100604057312,-0.92,1.85,-0.46,2.11
7.842430114746094,-0.94,1.53,-0.51,1.86
7.843404054641724,-0.94,1.22,-0.78,1.72
7.862927198410034,-0.81,0.86,-1.03,1.56
7.864382982254028,-0.36,0.87,-1.18,1.5
7.87912392616272,-0.11,1.57,-1.07,1.9
7.880602121353149,0.27,2.49,-0.91,2.66
7.895872116088867,1.25,2.79,-0.75,3.14
7.8973400592803955,2.9,3.29,0.36,4.4
7.911875009536743,2.14,2.37,-0.24,3.2
7.91415810585022,-0.55,0.12,-1.92,2.0
7.958640098571777,-2.5,-1.48,-2.62,3.91
7.95981502532959,-3.34,-2.38,-2.51,4.8
7.960825204849243,-3.56,-3.25,-2.63,5.49
7.979968070983887,-1.91,-2.54,-2.76,4.2
7.98140811920166,-0.81,-1.69,-2.89,3.44
7.99578595161438,-3.35,-1.0,-3.58,5.0
7.997225999832153,-5.87,-0.85,-4.07,7.19
8.01273512840271,-6.93,-0.95,-3.68,7.9
8.014190912246704,-6.24,-0.97,-2.96,6.97
8.028084993362427,-4.83,-1.19,-2.65,5.63
8.055378198623657,-3.93,-1.41,-2.52,4.87
8.056782007217407,-3.75,-1.31,-2.51,4.69
8.057809114456177,-3.87,-1.04,-2.43,4.68
8.059914112091064,-4.07,-0.73,-2.14,4.65
8.061337232589722,-4.26,-0.57,-1.65,4.6
8.070013046264648,-4.33,-0.42,-1.3,4.54
8.08038592338562,-4.15,-0.19,-1.29,4.35
8.090335130691528,-3.6,0.08,-1.47,3.88
8.100481033325195,-2.92,0.31,-1.57,3.32
8.110491037368774,-2.39,0.32,-1.47,2.82
8.139333009719849,-2.02,0.28,-1.31,2.42
8.140455961227417,-1.7,0.34,-0.96,1.98
8.141459226608276,-1.46,0.31,-0.45,1.55
8.164631128311157,-1.42,0.36,0.0,1.46
8.165710210800171,-1.66,0.48,0.26,1.74
8.178777933120728,-2.06,0.74,0.38,2.22
8.18026614189148,-2.36,0.95,0.44,2.58
8.196279048919678,-2.24,1.04,0.61,2.54
8.199589967727661,-1.63,1.11,0.92,2.17
8.211384057998657,-1.0,1.09,1.13,1.86
8.241336107254028,-0.68,1.12,1.11,1.71
8.24271011352539,-0.52,1.2,0.89,1.58
8.243713140487671,-0.26,1.09,0.61,1.27
8.262770891189575,0.12,0.85,0.44,0.96
8.26363205909729,0.41,0.79,0.59,1.06
8.275110960006714,0.28,0.99,0.92,1.38
8.278459072113037,0.0,1.24,1.24,1.75
8.294727087020874,0.08,1.4,1.37,1.96
8.298635244369507,0.45,1.42,1.5,2.11
8.311599016189575,0.88,1.07,1.56,2.08
8.34663701057434,1.17,0.77,1.69,2.19
8.348043203353882,1.42,0.68,1.91,2.47
8.349102020263672,1.8,0.65,2.14,2.87
8.363945007324219,2.36,0.64,2.26,3.32
8.365453004837036,3.06,0.42,2.23,3.8
8.379306077957153,3.74,0.24,2.24,4.36
8.380795240402222,4.47,0.04,2.11,4.94
8.396267175674438,5.32,-0.14,1.87,5.64
8.39803409576416,6.2,-0.27,1.7,6.43
8.411843061447144,6.96,-0.52,1.54,7.14
8.44681191444397,7.36,-0.82,1.47,7.55
8.448275089263916,7.54,-1.03,1.46,7.74
8.449279069900513,7.82,-1.32,1.46,8.06
8.46346116065979,7.82,-0.61,1.28,7.94
8.464810132980347,7.44,0.19,0.84,7.48
8.479104042053223,9.18,-0.38,0.88,9.22
8.480593919754028,12.38,-0.07,1.82,12.51
8.496401071548462,13.81,-0.04,2.24,13.99
8.49790906906128,11.64,0.04,1.85,11.78
8.511758089065552,8.15,-0.86,1.92,8.41
8.545600175857544,4.91,-3.17,2.59,6.39
8.546968221664429,1.52,-2.91,4.38,5.47
8.547991037368774,-0.97,-1.03,6.38,6.53
8.563622236251831,-1.91,-0.97,6.7,7.03
8.56512188911438,-1.57,0.71,5.92,6.16
8.579284906387329,-1.99,3.37,3.55,5.28
8.580778121948242,-3.87,3.98,-0.52,5.57
8.596311092376709,-3.87,3.28,-2.89,5.83
8.597685098648071,-1.12,0.93,-1.64,2.19
8.611322164535522,0.9,-0.33,0.61,1.13
8.645684003829956,1.84,-0.43,0.45,1.94
8.64702296257019,2.21,-0.42,-1.11,2.5
8.64798903465271,2.51,-0.66,-1.81,3.16
8.662264108657837,2.55,-0.67,-1.16,2.88
8.663254022598267,1.5,-0.32,-0.08,1.53
8.677089929580688,0.25,-0.14,0.84,0.88
8.678509950637817,-0.69,0.01,1.09,1.29
8.69663119316101,-1.25,0.32,0.92,1.58
8.698042154312134,-1.19,0.62,0.63,1.48
8.711885213851929,-0.86,0.56,0.36,1.08
8.715610027313232,-0.64,0.33,0.0,0.72
8.75628399848938,-0.67,0.18,-0.24,0.73
8.75741696357727,-0.49,0.15,-0.62,0.8
8.758439064025879,0.01,0.13,-0.99,0.99
8.780355215072632,0.43,0.13,-1.05,1.14
8.781752109527588,0.53,0.14,-0.94,1.08
8.796296119689941,0.45,0.15,-0.5,0.68
8.797771215438843,0.22,0.14,-0.27,0.37
8.81296420097351,-0.19,0.2,-0.26,0.37
8.814265966415405,-0.46,0.22,-0.14,0.52
8.828460931777954,-0.41,0.2,-0.02,0.45
8.85776400566101,-0.19,0.17,-0.07,0.26
8.859140157699585,0.15,0.05,-0.08,0.17
8.86015009880066,0.41,-0.02,-0.01,0.41
8.879849195480347,0.35,-0.01,0.16,0.38
8.88131594657898,0.19,-0.08,0.35,0.4
8.896241903305054,-0.05,-0.15,0.23,0.27
8.897719144821167,-0.32,-0.03,0.1,0.33
8.913011074066162,-0.44,0.04,0.17,0.47
8.914493083953857,-0.48,0.08,0.21,0.53
8.929033994674683,-0.61,0.08,0.15,0.63
8.958706140518188,-0.48,0.03,0.07,0.48
8.960026979446411,0.04,-0.11,-0.04,0.12
8.961030006408691,0.6,-0.09,0.0,0.6
8.980117082595825,0.76,0.04,-0.08,0.76
8.981614112854004,0.59,0.13,-0.35,0.69
8.996430158615112,0.45,0.15,-0.44,0.64
8.997908115386963,0.35,0.09,-0.49,0.6
9.01331114768982,0.06,0.08,-0.46,0.47
9.014739036560059,-0.29,0.1,-0.27,0.4
9.028634071350098,-0.57,0.16,-0.02,0.59
9.05622410774231,-0.79,0.21,-0.08,0.82
9.057630062103271,-0.93,0.24,-0.2,0.98
9.05859923362732,-0.97,0.2,-0.26,1.02
9.06096601486206,-0.64,0.17,0.02,0.66
9.062587022781372,-0.23,0.15,0.09,0.28
9.072799921035767,-0.02,0.16,-0.25,0.29
9.08305811882019,0.15,0.07,-0.52,0.54
9.093001127243042,0.14,0.02,-0.43,0.45
9.10294508934021,-0.05,0.05,-0.21,0.22
9.112661123275757,-0.34,0.04,-0.08,0.35
9.148942232131958,-0.73,0.04,0.13,0.74
9.150047063827515,-1.1,0.07,0.26,1.13
9.15107011795044,-1.09,0.14,0.1,1.1
9.163953065872192,-0.53,0.11,0.0,0.54
9.1650230884552,0.11,-0.06,-0.05,0.13
9.179956197738647,0.41,-0.18,-0.24,0.5
9.181927919387817,0.24,-0.21,-0.43,0.53
9.196645021438599,-0.28,-0.18,-0.38,0.5
9.20206093788147,-0.93,0.03,-0.31,0.98
9.211904048919678,-1.41,0.22,-0.44,1.49
9.247668027877808,-1.16,0.33,-0.18,1.21
9.249027967453003,-0.68,0.37,0.03,0.77
9.250044107437134,-0.53,0.34,-0.24,0.67
9.263621091842651,-0.58,0.44,-0.66,0.98
9.264693975448608,-0.68,0.5,-1.0,1.3
9.278646230697632,-0.72,0.44,-0.98,1.29
9.281306982040405,-0.42,0.14,-0.46,0.63
9.296952962875366,-0.27,-0.1,-0.08,0.29
9.30122709274292,-0.39,-0.05,-0.09,0.4
9.31101107597351,0.06,0.11,0.06,0.13
9.347076177597046,0.56,0.27,0.23,0.66
9.348375082015991,0.71,0.14,0.13,0.73
9.349397897720337,0.99,-0.16,0.09,1.0
9.363503217697144,1.13,-0.34,-0.14,1.18
9.364819049835205,1.13,-0.3,-0.25,1.19
9.37969422340393,0.93,-0.21,-0.03,0.95
9.381200075149536,0.42,-0.06,0.13,0.44
9.396494150161743,0.0,0.26,0.29,0.38
9.400548219680786,-0.37,0.38,0.47,0.7
9.410458087921143,-0.49,0.6,0.65,1.01
9.448780059814453,-0.27,1.1,0.78,1.37
9.450088024139404,-0.53,1.41,0.32,1.53
9.45109510421753,-0.75,1.52,0.15,1.7
9.46392011642456,-0.62,1.43,0.22,1.57
9.464985132217407,-0.36,1.18,0.2,1.24
9.479855060577393,0.25,1.05,0.48,1.18
9.481364965438843,1.06,0.91,0.51,1.48
9.496654033660889,1.42,0.93,0.45,1.75
9.499815225601196,0.85,1.37,-0.27,1.63
9.511826038360596,0.35,1.62,-0.49,1.72
9.519535064697266,0.07,1.65,-0.58,1.75
9.552879095077515,0.01,1.79,-0.93,2.01
9.554033041000366,0.03,2.24,-1.0,2.45
9.555171012878418,-0.04,2.47,-1.24,2.76
9.560282945632935,-0.01,2.39,-1.26,2.7
9.58003306388855,-0.13,2.24,-1.15,2.52
9.581536054611206,-0.47,2.0,-1.09,2.32
9.596806049346924,-0.92,1.8,-1.22,2.36
9.598876237869263,-0.72,1.91,-0.98,2.26
9.612114191055298,-0.38,2.02,-0.41,2.09
9.619004011154175,-0.49,1.45,-0.45,1.59
9.657757043838501,-0.67,1.11,-0.9,1.57
9.658918142318726,-0.81,0.89,-1.05,1.59
9.6599280834198,-1.07,0.47,-0.84,1.43
9.680361032485962,-1.17,0.44,-0.71,1.43
9.681693077087402,-0.39,0.68,-0.5,0.92
9.696722030639648,0.45,0.55,-0.58,0.91
9.698210954666138,0.8,1.11,-0.93,1.65
9.713176965713501,2.0,1.95,-0.82,2.91
9.71459412574768,3.19,2.75,-1.12,4.35
9.72866702079773,2.22,2.26,-2.33,3.93
9.755999088287354,0.29,1.08,-3.03,3.22
9.757376909255981,-1.6,0.09,-2.49,2.96
9.758352994918823,-2.55,-0.64,-2.15,3.39
9.760662078857422,-3.53,-2.1,-2.29,4.7
9.767459154129028,-2.91,-2.04,-1.98,4.06
9.77807903289795,-2.67,-2.77,-2.07,4.36
9.787781000137329,-5.75,-3.23,-3.53,7.48
9.797604084014893,-8.61,-3.12,-4.27,10.1
9.807574033737183,-9.05,-2.76,-3.75,10.17
9.817483186721802,-7.67,-2.66,-3.29,8.75
9.847454071044922,-6.16,-2.4,-3.01,7.26
9.84877324104309,-5.07,-1.49,-3.17,6.16
9.84976315498352,-4.16,-0.54,-3.32,5.34
9.864012956619263,-3.52,0.16,-2.61,4.38
9.866739988327026,-3.55,0.5,-1.68,3.95
9.87978196144104,-3.96,0.71,-1.08,4.16
9.886895895004272,-4.07,1.04,-0.78,4.27
9.89680004119873,-3.89,1.36,-0.51,4.15
9.906732082366943,-3.68,1.63,-0.3,4.03
9.91655421257019,-3.31,1.65,0.03,3.69
9.953128099441528,-2.79,1.67,0.51,3.29
9.954495191574097,-2.24,1.76,1.03,3.02
9.955597162246704,-1.92,1.69,1.43,2.93
9.960079908370972,-1.93,1.75,1.59,3.05
9.966027021408081,-1.88,1.9,1.54,3.08
9.98008108139038,-1.46,1.66,1.49,2.66
9.98621392250061,-0.92,1.36,1.57,2.27
9.99716591835022,-0.5,1.05,1.52,1.91
10.00617003440857,-0.12,0.73,1.41,1.59
10.015958070755005,0.18,0.6,1.37,1.5
10.05082392692566,0.24,0.6,1.31,1.46
10.052139043807983,0.13,0.69,1.29,1.46
10.053045988082886,0.27,0.61,1.39,1.54
10.055145025253296,0.43,0.29,1.45,1.53
10.065453052520752,0.44,0.1,1.62,1.68
10.075111150741577,0.69,0.0,1.73,1.86
10.085285902023315,1.21,-0.18,1.69,2.08
10.0955069065094,1.73,-0.37,1.68,2.43
10.105262041091919,2.03,-0.54,1.64,2.66
10.115149021148682,2.05,-0.49,1.55,2.61
10.150692224502563,2.09,-0.27,1.46,2.56
10.152015924453735,2.33,-0.02,1.48,2.76
10.153000116348267,2.65,0.19,1.55,3.07
10.161556959152222,2.9,0.37,1.39,3.23
10.164307117462158,3.02,0.25,1.13,3.23
10.179315090179443,3.13,0.07,0.94,3.26
10.184598207473755,3.44,0.23,0.8,3.53
10.195162057876587,3.8,0.28,0.53,3.84
10.204353094100952,4.07,0.1,0.29,4.08
10.214235067367554,4.28,-0.02,0.32,4.29
10.250152111053467,4.41,-0.15,0.48,4.43
10.25145411491394,4.63,-0.21,0.56,4.66
10.252454042434692,4.98,-0.25,0.58,5.01
10.263892889022827,5.28,-0.48,0.57,5.33
10.264989137649536,5.21,-0.66,0.73,5.3
10.280253171920776,4.99,-0.81,0.99,5.15
10.283895015716553,4.85,-1.04,1.23,5.11
10.295552968978882,4.55,-0.61,1.32,4.77
10.303714036941528,4.17,-0.16,1.32,4.37
10.313512086868286,4.74,-1.05,2.03,5.26
10.323736906051636,4.66,-1.07,3.42,5.87
10.357034921646118,4.43,-1.37,4.05,6.15
10.358205080032349,6.67,-0.7,4.56,8.11
10.359214067459106,9.32,0.28,5.23,10.69
10.381125211715698,8.33,0.93,5.38,9.95
10.382619142532349,4.19,0.53,6.16,7.46
10.397205114364624,0.15,-0.87,5.41,5.48
10.398658990859985,-2.64,-1.73,2.6,4.08
10.414043188095093,-3.46,-0.51,-0.65,3.55
10.415510892868042,-2.65,1.84,-2.18,3.89
10.433576107025146,-1.02,3.39,-1.41,3.81
10.46216106414795,1.04,2.01,0.52,2.32
10.463482141494751,2.47,-0.52,1.75,3.07
10.464550018310547,2.56,-0.51,1.43,2.97
10.481017112731934,1.63,-0.27,0.49,1.72
10.482535123825073,1.11,-0.56,0.09,1.24
10.497214078903198,1.14,-0.73,0.33,1.39
10.498682022094727,0.99,-0.45,0.62,1.25
10.513602018356323,0.21,-0.09,0.61,0.65
10.515023946762085,-0.64,-0.12,0.04,0.65
10.529245138168335,-0.96,0.09,-0.35,1.02
10.556429147720337,-0.77,0.3,-0.37,0.9
10.557853937149048,-0.41,0.38,-0.44,0.71
10.558836221694946,-0.2,0.37,-0.55,0.69
10.56146502494812,-0.09,0.38,-0.67,0.77
10.571415185928345,-0.19,0.23,-0.59,0.66
10.582699060440063,-0.32,0.29,-0.63,0.76
10.591644048690796,-0.45,0.36,-0.58,0.81
10.601697206497192,-0.34,0.3,-0.49,0.66
10.611436128616333,-0.21,0.31,-0.59,0.69
10.621378183364868,-0.23,0.44,-0.84,0.97
10.65179705619812,-0.23,0.33,-0.91,0.99
10.653122186660767,-0.1,0.15,-0.81,0.82
10.65414023399353,0.18,0.06,-0.72,0.74
10.664501905441284,0.5,-0.05,-0.42,0.65
10.67056393623352,0.65,-0.05,0.04,0.65
10.680835008621216,0.37,-0.04,0.4,0.54
10.690788984298706,-0.13,-0.05,0.51,0.52
10.700753927230835,-0.15,0.13,0.7,0.72
10.710930109024048,0.01,0.08,0.75,0.75
10.720604181289673,0.02,-0.06,0.61,0.61
10.75913119316101,0.03,-0.1,0.42,0.43
10.760565996170044,0.07,-0.09,0.2,0.23
10.761576890945435,0.09,0.02,0.0,0.09
10.78081202507019,0.03,0.19,-0.24,0.3
10.782222986221313,-0.22,0.19,-0.25,0.38
10.79728102684021,-0.44,0.21,-0.31,0.57
10.79871392250061,-0.54,0.21,-0.5,0.76
10.813626050949097,-0.68,0.26,-0.62,0.95
10.815118074417114,-0.73,0.28,-0.63,1.0
10.829221963882446,-0.69,0.21,-0.57,0.91
10.857165098190308,-0.68,0.16,-0.6,0.92
10.858452081680298,-0.68,0.16,-0.73,1.01
10.859318017959595,-0.81,0.09,-0.7,1.07
10.881145238876343,-0.77,0.09,-0.41,0.87
10.882558107376099,-0.23,0.02,0.05,0.23
10.897195100784302,0.25,-0.01,0.44,0.5
10.898662090301514,0.31,-0.1,0.4,0.51
10.914045095443726,0.03,-0.15,0.1,0.18
10.91551423072815,-0.19,0.0,-0.01,0.19
10.929397106170654,-0.39,0.15,-0.05,0.42
10.958564043045044,-0.62,0.17,-0.25,0.68
10.959909200668335,-0.62,0.13,-0.23,0.67
10.960848093032837,-0.51,0.17,-0.19,0.57
10.980878114700317,-0.46,0.26,-0.32,0.61
10.98236608505249,-0.34,0.28,-0.4,0.59
10.997377157211304,-0.34,0.21,-0.34,0.52
10.998736143112183,-0.2,0.1,-0.26,0.34
11.013885021209717,0.19,-0.08,-0.05,0.21
11.01534104347229,0.23,-0.23,-0.04,0.32
11.029297113418579,0.02,-0.33,-0.32,0.46
11.056007146835327,-0.22,-0.35,-0.57,0.7
11.057948112487793,-0.35,-0.22,-0.7,0.81
11.05892300605774,-0.45,-0.21,-0.65,0.81
11.061135053634644,-0.77,-0.16,-0.33,0.85
11.06754207611084,-0.97,0.27,-0.09,1.01
11.077935934066772,-1.1,0.91,-0.33,1.46
11.087762117385864,-1.17,0.84,-0.66,1.58
11.097810983657837,-0.96,0.11,-0.59,1.13
11.107664108276367,-0.25,-0.44,-0.04,0.5
11.117851972579956,0.52,-0.71,0.34,0.94
11.127707242965698,0.65,-0.49,0.22,0.84
11.158643960952759,0.66,-0.27,0.18,0.73
11.15985894203186,0.65,-0.09,0.52,0.83
11.160861015319824,0.4,0.06,0.61,0.73
11.18112301826477,0.42,0.22,0.43,0.64
11.182605981826782,1.19,0.07,0.19,1.2
11.197374105453491,1.7,-0.24,0.07,1.71
11.198867082595825,1.58,-0.12,-0.13,1.58
11.214048147201538,1.24,-0.02,-0.29,1.27
11.216869115829468,1.21,0.21,0.07,1.23
11.230027914047241,1.04,0.53,0.23,1.18
11.258105039596558,0.42,0.7,-0.21,0.84
11.259496927261353,0.5,1.14,-0.27,1.27
11.260492086410522,0.42,1.59,-0.77,1.81
11.2812340259552,0.35,1.62,-2.2,2.75
11.28273892402649,0.45,2.79,-2.6,3.84
11.297670125961304,0.11,3.27,-1.32,3.52
11.29911494255066,-0.46,2.93,-0.94,3.11
11.314316987991333,-0.65,2.93,-1.18,3.22
11.315950155258179,-0.89,3.11,-0.69,3.3
11.329472064971924,-1.04,3.44,0.04,3.59
11.356560945510864,-1.44,3.54,0.05,3.82
11.35793423652649,-2.09,3.53,-0.09,4.1
11.358910083770752,-2.34,3.34,0.44,4.1
11.365440130233765,-2.28,2.96,0.75,3.81
11.375547170639038,-1.97,2.75,0.83,3.48
11.385762929916382,-1.95,2.25,0.76,3.07
11.395784139633179,-1.92,1.7,0.63,2.64
11.405602216720581,-1.83,1.45,0.35,2.36
11.415472030639648,-1.77,0.99,-0.08,2.02
11.425379991531372,-1.75,0.73,-0.57,1.97
11.456792116165161,-1.33,0.44,-0.71,1.57
11.457932233810425,-0.49,0.8,-0.23,0.96
11.459243059158325,-0.15,2.3,-0.77,2.43
11.46468997001648,1.22,3.05,-1.11,3.46
11.474749088287354,3.45,3.9,-1.06,5.31
11.48501992225647,1.58,1.32,-2.12,2.95
11.494945049285889,-1.85,-1.94,-2.84,3.9
11.504796028137207,-5.3,-5.42,-3.79,8.47
11.51469111442566,-7.84,-6.25,-3.31,10.55
11.524457216262817,-5.88,-3.2,-1.5,6.86
11.561721086502075,-5.64,-3.26,-2.47,6.96
11.563500165939331,-7.64,-3.17,-4.05,9.2
11.564515113830566,-8.2,-1.81,-4.34,9.45
11.581293106079102,-6.56,-0.72,-3.73,7.58
11.582772970199585,-4.71,-0.55,-3.28,5.76
11.59737515449524,-3.8,-0.58,-3.0,4.87
11.598822116851807,-3.52,-0.32,-2.68,4.43
11.61443305015564,-3.44,0.23,-2.43,4.21
11.615909099578857,-3.3,0.7,-2.18,4.01
11.633692979812622,-3.19,0.83,-1.76,3.73
11.663496017456055,-3.13,1.03,-1.19,3.5
11.664860963821411,-3.01,1.27,-0.76,3.35
11.66587519645691,-2.72,1.45,-0.64,3.14
11.681103944778442,-2.24,1.67,-0.6,2.85
11.68219804763794,-1.58,1.65,-0.44,2.32
11.697619199752808,-1.02,1.3,-0.23,1.66
11.699111223220825,-0.62,1.0,-0.13,1.18
11.714179039001465,-0.17,0.79,-0.1,0.81
11.71567702293396,0.47,0.58,-0.04,0.74
11.72977900505066,1.08,0.38,-0.11,1.15
11.75868010520935,1.38,0.28,-0.23,1.42
11.760038137435913,1.5,0.21,-0.23,1.53
11.760937929153442,1.58,0.14,-0.11,1.59
11.781464099884033,1.66,-0.04,0.16,1.66
11.782912015914917,1.65,-0.13,0.48,1.72
11.797763109207153,1.47,0.02,0.79,1.66
11.79923415184021,1.23,0.25,1.11,1.67
11.814207077026367,0.94,0.44,1.41,1.75
11.815672159194946,0.64,0.59,1.75,1.95
11.830402135848999,0.37,0.54,2.09,2.19
11.860429048538208,0.34,0.29,2.45,2.49
11.861805200576782,0.55,-0.07,2.74,2.79
11.862824201583862,0.74,-0.28,2.89,2.99
11.880869150161743,0.91,-0.23,2.93,3.07
11.882290124893188,1.12,-0.22,2.88,3.09
11.897701978683472,1.28,-0.18,2.8,3.08
11.899141073226929,1.62,-0.02,2.74,3.18
11.914582014083862,2.37,-0.11,2.56,3.49
11.916006088256836,3.07,-0.51,2.23,3.82
11.929924011230469,3.37,-0.64,1.92,3.93
11.931421041488647,3.55,-0.4,1.62,3.92
11.977751970291138,3.82,-0.15,1.35,4.05
11.978949069976807,4.16,-0.18,1.19,4.33
11.979982137680054,4.51,-0.4,1.15,4.67
11.998282194137573,4.73,-0.52,1.17,4.9
11.999361038208008,4.85,-0.5,1.19,5.01
12.012749910354614,4.81,-0.44,1.09,4.95
12.01426100730896,4.57,-0.3,1.07,4.7
12.03108811378479,4.47,-0.15,1.22,4.63
12.032560110092163,4.6,0.07,1.27,4.77
12.046355962753296,4.07,0.6,0.81,4.19
12.074326038360596,5.32,0.9,0.62,5.43
12.076355218887329,6.58,0.75,1.17,6.72
12.077372074127197,7.27,0.29,2.11,7.57
12.079421043395996,8.73,-0.48,2.21,9.01
12.080836057662964,8.12,-0.59,1.87,8.35
12.090389966964722,6.15,-0.08,1.98,6.46
12.10042691230774,4.74,-1.66,2.11,5.44
12.110379934310913,2.31,-3.02,2.31,4.44
12.120265007019043,0.1,-1.99,3.04,3.63
12.129993200302124,-0.9,-1.41,3.57,3.94
12.159935235977173,-1.44,-0.57,4.0,4.28
12.161076068878174,-1.39,0.7,3.96,4.25
12.162090063095093,-1.53,1.63,2.62,3.44
12.18099308013916,-1.73,2.52,0.3,3.07
12.182056188583374,-1.47,2.79,-0.88,3.27
12.196907043457031,-0.39,1.61,-0.36,1.69
12.1994149684906,0.52,-0.21,0.72,0.91
12.214595079421997,0.89,-0.36,1.02,1.4
12.219362020492554,1.09,-0.19,0.24,1.13
12.229876041412354,1.17,-0.42,-1.24,1.75
12.260664224624634,1.1,-0.13,-1.78,2.09
12.26201605796814,0.98,0.14,-0.9,1.33
12.263025045394897,0.53,0.03,0.41,0.67
12.281712055206299,-0.18,-0.05,0.89,0.9
12.283211946487427,-0.59,-0.07,0.77,0.97
12.298027038574219,-0.5,-0.05,0.57,0.75
12.299480199813843,-0.11,-0.12,0.38,0.41
12.314618110656738,0.01,0.08,0.3,0.31
12.318519115447998,-0.13,0.25,0.14,0.31
12.32835602760315,-0.34,0.23,-0.12,0.42
12.367482900619507,-0.43,0.28,-0.42,0.66
12.368721008300781,-0.51,0.28,-0.64,0.86
12.369646072387695,-0.57,0.37,-0.78,1.03
12.38142204284668,-0.49,0.41,-0.72,0.96
12.382491111755371,-0.16,0.33,-0.43,0.56
12.397945165634155,0.26,0.14,-0.39,0.48
12.399420022964478,0.72,0.08,-0.45,0.85
12.414761066436768,0.9,-0.04,-0.27,0.94
12.417800188064575,0.56,0.09,-0.06,0.57
12.430272102355957,0.02,0.18,-0.02,0.18
12.464039087295532,-0.25,0.16,-0.02,0.29
12.465389013290405,-0.21,0.08,0.03,0.22
12.466408014297485,0.03,-0.07,0.09,0.11
12.482096910476685,0.22,-0.16,0.18,0.32
12.483602046966553,0.21,-0.21,0.28,0.4
12.498045206069946,0.08,-0.18,0.27,0.33
12.499552011489868,-0.04,-0.04,0.42,0.42
12.514549970626831,-0.06,0.12,0.54,0.55
12.517007112503052,-0.07,0.12,0.16,0.21
12.530126094818115,0.13,0.07,-0.12,0.19
12.5628502368927,0.38,-0.03,-0.25,0.45
12.564292192459106,0.51,-0.17,-0.32,0.62
12.565298080444336,0.45,-0.12,-0.31,0.55
12.582029104232788,0.25,-0.02,-0.32,0.4
12.583519220352173,0.08,0.09,-0.09,0.15
12.598095178604126,-0.09,0.24,0.0,0.25
12.59952998161316,-0.23,0.34,-0.04,0.41
12.614814043045044,-0.22,0.36,-0.12,0.43
12.616252183914185,-0.21,0.41,-0.34,0.57
12.630327939987183,-0.18,0.41,-0.41,0.6
12.663432121276855,-0.2,0.42,-0.34,0.57
12.664814233779907,-0.47,0.36,-0.5,0.77
12.665841102600098,-0.73,0.29,-0.68,1.03
12.681719064712524,-0.96,0.25,-0.7,1.21
12.682780027389526,-1.21,0.28,-0.65,1.4
12.69681191444397,-1.14,0.32,-0.54,1.3
12.69828200340271,-0.74,0.28,-0.19,0.81
12.714839220046997,-0.31,0.16,0.06,0.35
12.716345071792603,0.02,0.01,0.13,0.13
12.730293035507202,0.06,-0.14,0.06,0.16
12.735557079315186,-0.01,-0.31,0.07,0.31
12.775485038757324,-0.2,-0.5,0.09,0.54
12.776628017425537,-0.4,-0.61,-0.16,0.74
12.777620077133179,-0.35,-0.65,0.02,0.73
12.79906702041626,-0.38,-0.5,0.22,0.66
12.800554990768433,-0.7,-0.13,-0.19,0.73
12.814736127853394,-1.07,0.24,-0.52,1.21
12.8162100315094,-1.25,0.73,-0.88,1.69
12.831524133682251,-0.9,0.96,-0.8,1.54
12.832966089248657,-0.12,0.52,-0.02,0.53
12.846918106079102,0.51,-0.05,0.31,0.59
12.876176118850708,0.5,-0.33,0.2,0.63
12.877520084381104,0.27,-0.13,-0.09,0.31
12.87852692604065,-0.03,0.28,-0.3,0.41
12.898653030395508,-0.12,0.56,-0.53,0.78
12.90008807182312,0.36,0.53,-0.53,0.83
12.914541959762573,0.83,0.23,-0.53,1.01
12.915929079055786,0.93,-0.3,-0.24,1.0
12.931343078613281,0.61,-0.48,0.05,0.77
12.932842016220093,0.16,-0.02,0.15,0.22
12.94716501235962,-0.23,0.45,0.02,0.5
12.97779393196106,-0.41,0.58,0.16,0.72
12.979117155075073,-0.46,0.48,0.26,0.71
12.980134010314941,-0.59,0.5,0.09,0.77
12.99922490119934,-0.93,0.52,0.12,1.07
13.000761032104492,-0.34,0.98,0.55,1.17
13.014936208724976,0.2,1.34,0.84,1.59
13.016407012939453,0.02,0.89,0.75,1.16
13.031362056732178,0.09,0.71,0.71,1.0
13.0328209400177,0.11,0.54,0.42,0.69
13.046642065048218,0.35,0.85,0.13,0.92
13.073312044143677,0.74,1.5,0.08,1.67
13.074595212936401,0.62,1.82,-0.21,1.93
13.075614213943481,0.35,2.3,-0.62,2.4
13.07738709449768,0.06,2.75,-0.85,2.87
13.082573175430298,0.11,2.85,-0.7,2.93
13.092549085617065,0.09,2.7,-0.65,2.77
13.102734088897705,-0.2,2.4,-0.52,2.46
13.112807035446167,-0.41,2.41,-0.16,2.44
13.122551202774048,-0.86,2.43,-0.1,2.57
13.132566213607788,-0.99,2.17,-0.03,2.38
13.167748212814331,-1.01,2.23,0.08,2.44
13.168898105621338,-1.37,2.29,-0.05,2.66
13.169867038726807,-1.69,2.01,-0.19,2.63
13.181397199630737,-2.11,1.79,-0.49,2.81
13.182415008544922,-2.25,1.84,-0.8,3.01
13.195306062698364,-2.08,1.59,-1.19,2.87
13.201936960220337,-1.86,1.04,-1.7,2.72
13.21517300605774,-1.56,1.22,-1.99,2.8
13.221643209457397,-1.22,1.64,-2.1,2.93
13.231552124023438,-0.43,1.77,-1.78,2.54
13.267293214797974,1.67,2.69,-1.03,3.32
13.268643140792847,2.96,2.57,-0.86,4.01
13.269643068313599,1.49,0.91,-1.67,2.41
13.28177523612976,0.0,0.28,-2.06,2.07
13.282804012298584,-0.58,-0.39,-2.13,2.24
13.298949956893921,-1.31,-1.75,-2.14,3.05
13.301116228103638,-2.95,-4.39,-2.5,5.85
13.315200090408325,-4.63,-5.98,-2.4,7.93
13.321216106414795,-4.02,-1.78,-1.4,4.61
13.330888986587524,-4.66,-1.91,-2.24,5.51
13.367444038391113,-6.84,-3.29,-3.04,8.17
13.368736982345581,-8.32,-2.59,-2.95,9.19
13.369771242141724,-7.86,-1.86,-2.54,8.46
13.381241083145142,-6.55,-1.64,-2.1,7.07
13.382291078567505,-5.6,-1.48,-1.92,6.1
13.398546934127808,-5.09,-0.78,-1.93,5.49
13.400323152542114,-4.72,0.15,-1.91,5.09
13.414905071258545,-4.34,0.75,-1.77,4.74
13.420417070388794,-3.95,0.74,-1.31,4.22
13.430325031280518,-3.91,0.54,-0.71,4.01
13.466701030731201,-4.07,0.63,-0.53,4.15
13.467982053756714,-3.93,0.99,-0.7,4.11
13.469028234481812,-3.49,1.43,-0.83,3.86
13.481961011886597,-2.69,1.48,-0.79,3.17
13.483061075210571,-1.95,1.2,-0.55,2.35
13.49871301651001,-1.52,1.01,-0.27,1.84
13.500200033187866,-1.21,0.97,-0.1,1.55
13.515115976333618,-1.0,0.94,-0.07,1.37
13.519676923751831,-0.78,1.09,0.03,1.34
13.53035306930542,-0.33,1.0,0.28,1.08
13.539493083953857,0.13,0.85,0.81,1.18
13.573118925094604,0.3,1.03,1.4,1.76
13.574326038360596,0.53,1.5,1.78,2.38
13.57557201385498,1.14,1.76,1.99,2.89
13.578854084014893,1.56,1.63,2.22,3.16
13.598839044570923,1.61,1.47,2.39,3.23
13.600259065628052,1.67,1.47,2.5,3.34
13.614598989486694,2.11,1.47,2.73,3.75
13.618910074234009,2.79,1.4,3.0,4.32
13.630498170852661,3.29,1.28,3.11,4.7
13.63878321647644,3.65,1.14,2.92,4.81
13.673524141311646,4.01,0.98,2.72,4.94
13.67471194267273,4.37,0.67,2.62,5.13
13.676088094711304,4.76,0.45,2.54,5.41
13.678344011306763,5.27,0.35,2.35,5.78
13.688049077987671,5.76,0.05,2.0,6.09
13.698276042938232,6.16,-0.37,1.69,6.39
13.708079099655151,6.24,-0.66,1.56,6.46
13.718169927597046,5.79,0.56,1.57,6.02
13.728142023086548,5.76,0.65,1.51,5.99
13.737935066223145,8.21,0.54,1.69,8.39
13.769737958908081,13.26,0.61,2.53,13.51
13.771131038665771,15.12,-0.15,2.69,15.35
13.772156000137329,11.82,0.37,2.42,12.07
13.782114028930664,8.69,0.16,2.57,9.06
13.78720498085022,7.58,-2.12,2.2,8.17
13.798432111740112,3.79,-2.83,1.75,5.04
13.807509183883667,-1.26,-1.16,1.8,2.48
13.81736707687378,-2.37,-0.76,1.43,2.87
13.827402114868164,-1.11,-0.84,1.18,1.82
13.836985111236572,0.31,-0.04,1.15,1.19
13.869373083114624,0.87,1.3,1.13,1.92
13.87066102027893,0.3,1.98,0.99,2.23
13.871666193008423,-0.47,1.74,0.98,2.05
13.882085084915161,-0.67,0.5,0.85,1.19
13.886420011520386,-0.36,-0.18,0.49,0.63
13.89822793006897,0.09,-0.06,0.14,0.17
13.906863927841187,0.26,-0.04,-0.27,0.37
13.916424036026001,0.29,-0.18,-0.27,0.43
13.926579236984253,0.4,-0.28,-0.06,0.49
13.936240911483765,0.31,-0.14,0.13,0.36
13.973284006118774,0.15,-0.13,0.55,0.58
13.97471809387207,-0.05,-0.25,0.67,0.71
13.975682973861694,-0.32,-0.27,0.34,0.53
13.978385210037231,-0.28,-0.09,0.25,0.38
13.998878240585327,-0.1,0.19,0.56,0.59
14.00032901763916,0.04,0.27,0.76,0.8
14.015269994735718,0.0,0.12,0.13,0.17
14.016726016998291,-0.16,0.07,-0.4,0.43
14.030676126480103,-0.34,0.2,-0.24,0.46
14.035521030426025,-0.17,0.17,0.08,0.25
14.072377920150757,0.13,0.04,0.04,0.14
14.073559999465942,0.16,-0.01,-0.27,0.31
14.0748291015625,-0.07,0.08,-0.29,0.3
14.080416917800903,-0.44,0.16,-0.05,0.47
14.084947109222412,-0.48,0.13,0.05,0.49
14.098625898361206,-0.02,0.0,-0.18,0.18
14.105027914047241,0.35,0.11,-0.54,0.65
14.115366220474243,0.47,0.33,-0.72,0.92
14.124982118606567,0.51,0.3,-0.7,0.91
14.136162996292114,0.58,0.31,-0.61,0.89
14.172359228134155,0.71,0.16,-0.44,0.85
14.173680067062378,0.62,0.08,-0.2,0.65
14.174638986587524,0.34,0.05,-0.07,0.35
14.178256034851074,0.06,0.03,0.13,0.14
14.19889211654663,0.04,0.09,0.28,0.29
14.200330018997192,0.1,0.1,0.26,0.29
14.215074062347412,0.13,0.02,0.15,0.19
14.216531991958618,0.15,-0.04,0.03,0.15
14.230664014816284,0.1,-0.08,0.19,0.22
14.234095096588135,-0.01,-0.04,0.13,0.13
14.272922039031982,-0.21,-0.06,-0.05,0.22
14.274119138717651,-0.27,-0.07,-0.1,0.29
14.275264978408813,-0.15,0.06,-0.15,0.22
14.278349161148071,-0.13,0.17,-0.08,0.22
14.298734903335571,-0.05,0.21,0.05,0.22
14.299657106399536,0.11,0.17,0.21,0.29
14.315356969833374,0.2,0.1,0.31,0.38
14.31675410270691,0.24,0.06,0.29,0.38
14.330793142318726,0.22,0.01,0.26,0.34
14.33338713645935,0.14,0.01,0.12,0.18
14.347016096115112,-0.03,-0.03,0.03,0.05
14.375025987625122,-0.21,0.05,-0.1,0.23
14.376442193984985,-0.33,0.13,-0.22,0.41
14.377377033233643,-0.33,0.14,-0.23,0.42
14.382848024368286,-0.37,0.12,-0.29,0.48
14.392593145370483,-0.53,0.1,-0.35,0.64
14.403074026107788,-0.65,0.06,-0.32,0.72
14.413016080856323,-0.62,0.06,-0.24,0.66
14.422718048095703,-0.57,0.18,-0.19,0.62
14.432900190353394,-0.5,0.26,-0.16,0.58
14.442625045776367,-0.44,0.18,-0.1,0.48
14.473628044128418,-0.48,0.07,-0.16,0.51
14.474781036376953,-0.88,-0.06,-0.52,1.02
14.476004123687744,-1.69,-0.02,-0.77,1.85
14.482002973556519,-2.02,0.37,-1.08,2.32
14.49932599067688,-1.62,0.78,-0.93,2.02
14.502084970474243,-1.2,0.71,-0.77,1.59
14.515571117401123,-0.81,0.54,-0.89,1.31
14.522171020507812,-0.67,0.42,-0.93,1.22
14.53177809715271,-0.77,0.39,-0.89,1.23
14.541745901107788,-0.76,0.27,-0.7,1.06
14.574044942855835,-0.72,0.2,-0.23,0.78
14.575261116027832,-0.99,0.08,-0.29,1.03
14.576762914657593,-0.92,0.12,-0.46,1.03
14.581321954727173,0.32,0.64,0.11,0.72
14.59123706817627,1.6,1.06,0.54,1.99
14.60168194770813,1.73,0.7,0.16,1.87
14.611540079116821,1.37,0.28,0.2,1.41
14.621206045150757,0.87,0.42,0.82,1.26
14.631309032440186,0.33,0.91,1.0,1.39
14.641155004501343,-0.03,1.25,0.76,1.46
14.672108888626099,-0.01,0.98,0.14,0.98
14.673298120498657,0.11,1.01,0.43,1.1
14.674498081207275,0.1,0.64,0.41,0.76
14.680466890335083,0.23,0.57,0.14,0.63
14.69052004814148,0.59,0.55,-0.11,0.81
14.700337171554565,0.85,0.73,-0.36,1.17
14.710689067840576,1.06,0.78,-0.19,1.32
14.720447063446045,1.13,0.59,0.1,1.27
14.730591058731079,0.82,0.51,0.26,1.0
14.740427017211914,0.24,0.53,0.48,0.75
14.776118993759155,-0.31,0.63,0.42,0.81
14.777432203292847,-0.62,0.78,0.41,1.07
14.778420209884644,-0.7,1.19,0.07,1.38
14.799962043762207,-0.66,1.68,-0.54,1.88
14.801429033279419,-0.75,2.15,-0.88,2.44
14.81577205657959,-0.87,2.62,-1.2,3.01
14.817246198654175,-0.53,2.8,-1.05,3.03
14.832485914230347,-0.35,2.24,-0.96,2.46
14.833976030349731,-0.69,1.7,-1.2,2.19
14.847929239273071,-1.06,1.66,-1.51,2.48
14.878082990646362,-0.99,1.72,-1.6,2.54
14.879462003707886,-0.72,1.8,-1.53,2.46
14.88048005104065,-0.21,2.25,-1.31,2.61
14.899733066558838,-0.28,1.75,-2.18,2.8
14.901199102401733,-0.74,0.67,-1.94,2.18
14.916007041931152,-0.4,1.31,-1.13,1.77
14.91749906539917,1.08,2.98,-1.06,3.34
14.93234896659851,3.05,3.67,-1.42,4.97
14.933854103088379,1.61,1.72,-2.75,3.62
14.94850206375122,-0.23,0.09,-3.2,3.2
14.979758024215698,-2.07,-1.63,-2.93,3.94
14.981146097183228,-3.17,-2.56,-1.9,4.49
14.982157945632935,-1.01,-1.97,-0.65,2.3
14.999664068222046,-1.88,-2.98,-0.96,3.65
15.00114893913269,-5.24,-2.58,-2.07,6.19
15.015657186508179,-7.77,-1.76,-2.18,8.25
15.01712703704834,-8.02,-1.35,-1.38,8.24
15.03229808807373,-6.64,-1.51,-0.67,6.84
15.033728122711182,-5.07,-1.94,-0.46,5.44
15.048908948898315,-4.24,-2.04,-0.55,4.73
15.076540231704712,-3.92,-1.68,-0.71,4.32
15.077903032302856,-3.92,-1.13,-0.7,4.13
15.078908205032349,-4.08,-0.78,-0.53,4.18
15.09991717338562,-4.11,-0.68,-0.24,4.17
15.101380109786987,-3.94,-0.7,0.07,4.0
15.115893125534058,-3.5,-0.58,0.26,3.55
15.117409944534302,-2.91,-0.38,0.31,2.95
15.132396936416626,-2.39,-0.23,0.33,2.42
15.13382601737976,-2.01,-0.04,0.25,2.02
15.148056030273438,-1.74,0.12,0.13,1.74
15.149516105651855,-1.54,0.2,0.06,1.55
15.197158098220825,-1.3,0.19,-0.04,1.31
15.19833493232727,-0.95,0.21,-0.09,0.97
15.199333906173706,-0.54,0.33,-0.05,0.63
15.216651201248169,-0.15,0.48,0.1,0.51
15.218050241470337,0.1,0.48,0.22,0.53
15.232250928878784,0.12,0.47,0.29,0.56
15.233675241470337,0.03,0.57,0.42,0.7
15.248966932296753,0.02,0.63,0.5,0.8
15.250437021255493,0.01,0.75,0.51,0.9
15.264847993850708,-0.04,0.9,0.52,1.04
15.29389214515686,-0.05,0.94,0.63,1.13
15.295346021652222,-0.09,0.79,0.77,1.1
15.296336889266968,-0.28,0.72,0.74,1.06
15.316368103027344,-0.46,0.73,0.76,1.14
15.317843198776245,-0.44,0.78,0.89,1.26
15.332418203353882,-0.25,0.81,1.01,1.31
15.333885908126831,-0.05,0.88,1.1,1.4
15.34908413887024,0.12,0.96,1.12,1.48
15.350512027740479,0.31,0.89,1.12,1.46
15.36468505859375,0.39,0.53,1.15,1.32
15.39681601524353,0.35,0.22,1.21,1.27
15.398077011108398,0.4,0.2,1.4,1.46
15.399101972579956,0.65,0.24,1.61,1.75
15.416794061660767,0.98,0.08,1.79,2.04
15.418277025222778,1.27,-0.26,1.81,2.22
15.432440042495728,1.58,-0.32,1.71,2.35
15.43393611907959,1.96,-0.17,1.57,2.51
15.449068069458008,2.34,-0.04,1.47,2.76
15.450502157211304,2.77,-0.03,1.46,3.13
15.465020895004272,3.16,-0.12,1.55,3.52
15.495162010192871,3.52,-0.18,1.59,3.86
15.496544122695923,3.8,-0.22,1.58,4.12
15.49756407737732,4.07,-0.29,1.55,4.36
15.516317129135132,4.42,-0.42,1.49,4.68
15.517747163772583,4.79,-0.53,1.48,5.04
15.532572984695435,5.06,-0.6,1.49,5.3
15.534055948257446,5.18,-0.71,1.4,5.41
15.549398183822632,5.17,-0.86,1.17,5.37
15.550832033157349,4.84,-0.15,0.97,4.93
15.564755201339722,4.27,1.73,0.54,4.63
15.592756986618042,6.5,0.7,0.48,6.55
15.594125986099243,12.02,1.17,1.74,12.2
15.59520411491394,14.83,0.48,3.0,15.13
15.616000890731812,10.84,0.03,2.73,11.17
15.617042064666748,4.7,-1.15,2.67,5.52
15.632864236831665,-0.53,-2.15,3.23,3.91
15.63433289527893,-2.84,-1.72,4.36,5.48
15.649616956710815,-2.05,-1.11,4.62,5.17
15.651087999343872,-0.81,-0.34,3.02,3.14
15.664835214614868,-0.62,1.34,0.34,1.51
15.695308923721313,-0.9,3.08,-1.37,3.48
15.696623086929321,0.08,2.8,-0.21,2.8
15.697628021240234,1.26,-0.21,1.77,2.18
15.716116189956665,1.23,-0.9,1.75,2.32
15.71750807762146,0.57,-0.31,-0.36,0.74
15.732726097106934,0.19,0.1,-1.97,1.98
15.734237909317017,0.29,0.15,-2.11,2.13
15.749447107315063,0.49,0.13,-1.46,1.54
15.750921964645386,0.37,0.21,-0.47,0.63
15.764873027801514,0.1,0.0,0.62,0.62
15.792802095413208,0.01,-0.24,1.1,1.12
15.794167041778564,-0.21,-0.21,0.86,0.9
15.795159101486206,-0.27,-0.01,0.72,0.76
15.816683053970337,0.04,0.0,0.99,0.99
15.817693948745728,0.24,-0.19,0.92,0.96
15.83243703842163,0.26,-0.14,0.4,0.49
15.833819150924683,0.31,-0.04,-0.07,0.32
15.8469979763031,0.57,0.02,-0.33,0.65
15.848428010940552,0.77,0.17,-0.58,0.97
15.865206956863403,0.72,0.46,-0.78,1.15
15.894866228103638,0.54,0.42,-0.82,1.06
15.896173238754272,0.31,0.27,-0.65,0.76
15.897197961807251,-0.02,0.18,-0.55,0.57
15.916537046432495,-0.41,0.22,-0.39,0.6
15.918040037155151,-0.52,0.16,-0.31,0.62
15.93296504020691,-0.23,0.1,-0.2,0.32
15.934382200241089,-0.12,0.18,-0.15,0.26
15.949625015258789,-0.22,0.16,-0.22,0.34
15.95109510421753,-0.12,0.07,-0.28,0.31
15.96508502960205,0.13,-0.01,-0.09,0.15
15.966527223587036,0.11,-0.09,0.02,0.14
16.018262147903442,-0.13,-0.1,-0.07,0.17
16.019424200057983,-0.33,-0.01,0.04,0.33
16.02039122581482,-0.21,-0.02,0.17,0.27
16.035216093063354,-0.01,-0.02,0.15,0.15
16.036536931991577,-0.01,0.09,0.1,0.13
16.048022031784058,-0.24,0.2,0.13,0.33
16.04948592185974,-0.35,0.19,0.15,0.42
16.066318035125732,-0.07,0.17,0.19,0.26
16.067734956741333,-0.03,0.11,0.04,0.12
16.081441164016724,-0.26,0.08,-0.03,0.27
16.1094970703125,-0.39,0.13,-0.12,0.42
16.1109139919281,-0.6,0.2,-0.41,0.75
16.111940145492554,-0.82,0.22,-0.74,1.12
16.133459091186523,-0.93,0.2,-0.8,1.24
16.134501218795776,-1.06,0.3,-0.47,1.19
16.149623155593872,-1.12,0.38,-0.23,1.2
16.15102505683899,-1.12,0.45,-0.3,1.24
16.16640591621399,-1.11,0.42,-0.48,1.28
16.167793035507202,-0.81,0.36,-0.26,0.92
16.181685209274292,-0.4,0.27,-0.08,0.48
16.208678007125854,-0.31,0.01,-0.11,0.32
16.209960222244263,-0.24,-0.13,-0.29,0.39
16.21095299720764,-0.05,-0.05,-0.3,0.3
16.213325023651123,0.07,0.09,-0.14,0.18
16.214833974838257,-0.06,0.12,-0.21,0.24
16.216180086135864,-0.07,0.15,-0.28,0.32
16.21890091896057,0.06,0.17,-0.54,0.56
16.229039907455444,0.06,-0.05,-0.64,0.64
16.23900294303894,-0.14,-0.21,-0.32,0.4
16.249115228652954,-0.48,-0.05,-0.2,0.52
16.27592706680298,-0.85,0.26,-0.27,0.92
16.277066946029663,-0.98,0.47,-0.15,1.09
16.27828812599182,-0.86,0.5,0.16,1.0
16.28851819038391,-0.35,0.39,0.16,0.54
16.298568964004517,0.4,0.08,-0.03,0.4
16.308447122573853,0.67,-0.03,-0.11,0.67
16.318401098251343,0.53,-0.03,-0.52,0.74
16.32830500602722,0.83,0.12,-0.29,0.88
16.338439226150513,0.91,0.25,-0.13,0.95
16.348291158676147,1.04,-0.01,0.47,1.14
16.38331913948059,0.77,-0.32,1.01,1.3
16.38448405265808,0.18,-0.4,0.96,1.05
16.38548707962036,0.16,0.25,1.24,1.27
16.40029811859131,-0.21,0.49,1.04,1.16
16.401328086853027,-0.48,0.57,1.07,1.3
16.41653609275818,-0.47,0.64,1.24,1.47
16.41805911064148,-0.56,0.62,1.11,1.38
16.43329119682312,-0.5,0.71,0.67,1.09
16.437623023986816,-0.29,0.75,0.09,0.8
16.44853711128235,0.14,0.68,-0.34,0.77
16.482742071151733,0.38,0.77,-0.7,1.1
16.48409914970398,0.57,0.82,-0.89,1.33
16.485137224197388,1.03,1.04,-0.93,1.73
16.500413179397583,1.29,1.37,-0.93,2.09
16.501418113708496,1.36,1.56,-0.97,2.28
16.516316175460815,1.01,1.75,-0.82,2.18
16.517805099487305,0.35,1.76,-0.62,1.89
16.5327730178833,-0.34,1.59,-0.65,1.75
16.536906957626343,-0.63,1.65,-0.41,1.81
16.548489093780518,-0.8,1.67,-0.2,1.86
16.58287215232849,-0.91,1.74,-0.28,1.98
16.584161043167114,-0.87,2.0,-0.37,2.21
16.585220098495483,-0.99,2.02,-0.43,2.29
16.598448991775513,-1.14,1.65,-0.56,2.08
16.59951901435852,-1.2,1.19,-0.78,1.86
16.616575956344604,-1.2,0.92,-1.03,1.82
16.617995023727417,-1.24,0.99,-1.31,2.05
16.633168935775757,-1.07,0.95,-1.42,2.01
16.636142015457153,-0.91,1.07,-1.27,1.89
16.648596048355103,-0.74,1.4,-1.05,1.9
16.68210196495056,-0.63,1.55,-1.05,1.97
16.683370113372803,-0.77,1.16,-1.21,1.84
16.68440890312195,0.09,1.04,-1.0,1.44
16.685477018356323,1.94,1.49,-1.03,2.65
16.69562602043152,1.6,0.59,-1.81,2.48
16.705374002456665,0.39,-0.56,-1.87,1.99
16.715748071670532,-0.01,-1.3,-1.75,2.18
16.725398063659668,-0.72,-2.26,-1.98,3.08
16.735583066940308,-2.47,-3.47,-2.3,4.84
16.745522022247314,-3.38,-3.67,-2.07,5.4
16.75506091117859,-2.02,-2.67,-1.45,3.64
16.78726100921631,-3.02,-2.39,-1.92,4.3
16.78855609893799,-5.14,-1.94,-2.52,6.04
16.789571046829224,-6.28,-1.32,-2.29,6.81
16.800218105316162,-5.67,-0.61,-1.62,5.92
16.80425000190735,-4.48,-0.36,-1.44,4.71
16.815279006958008,-3.86,-0.3,-1.59,4.18
16.824905157089233,-3.86,0.09,-1.84,4.27
16.83462119102478,-3.86,0.7,-1.98,4.39
16.844709157943726,-3.41,1.0,-1.69,3.93
16.854305028915405,-2.81,0.92,-1.13,3.16
16.886126041412354,-2.63,0.74,-0.65,2.8
16.887459993362427,-2.82,0.82,-0.33,2.95
16.88847303390503,-2.93,1.08,-0.15,3.12
16.9009370803833,-2.77,1.11,-0.01,2.98
16.903733015060425,-2.4,0.93,0.07,2.57
16.91622805595398,-2.16,0.67,0.08,2.26
16.924180030822754,-2.04,0.56,0.0,2.11
16.9338481426239,-1.87,0.51,-0.06,1.93
16.943766117095947,-1.63,0.34,-0.09,1.66
16.953691244125366,-1.4,0.28,-0.12,1.43
16.98423409461975,-1.19,0.4,-0.07,1.25
16.985600233078003,-0.98,0.49,0.09,1.09
16.98660707473755,-1.02,0.52,0.13,1.15
17.000340223312378,-1.33,0.73,0.08,1.51
17.003284215927124,-1.49,0.93,0.19,1.76
17.017609119415283,-1.28,0.85,0.42,1.59
17.02312922477722,-0.87,0.7,0.76,1.35
17.033197164535522,-0.43,0.69,1.02,1.3
17.042994022369385,-0.1,0.71,1.11,1.32
17.052781105041504,0.04,0.64,1.07,1.24
17.085432052612305,0.18,0.57,1.06,1.21
17.08670401573181,0.44,0.41,1.15,1.29
17.087707042694092,0.81,0.27,1.32,1.57
17.100977182388306,1.19,0.09,1.45,1.87
17.102471113204956,1.44,-0.2,1.58,2.14
17.11647915840149,1.51,-0.38,1.72,2.32
17.12243914604187,1.62,-0.45,1.82,2.47
17.132330179214478,1.81,-0.55,1.92,2.69
17.142345190048218,2.09,-0.63,2.0,2.96
17.15203595161438,2.33,-0.64,2.01,3.14
17.19105100631714,2.42,-0.5,1.97,3.16
17.19234824180603,2.53,-0.38,1.97,3.22
17.193268060684204,2.78,-0.36,2.03,3.46
17.1942880153656,3.1,-0.41,2.14,3.78
17.21667504310608,3.34,-0.51,2.24,4.05
17.218156099319458,3.45,-0.56,2.28,4.17
17.233267068862915,3.49,-0.57,2.35,4.24
17.234756231307983,3.6,-0.58,2.41,4.37
17.248820066452026,3.73,-0.56,2.35,4.44
17.251383066177368,3.79,-0.38,2.19,4.39
17.29286789894104,3.82,-0.11,2.1,4.36
17.293927907943726,3.87,0.05,2.1,4.4
17.294849157333374,3.9,0.11,2.08,4.42
17.29717206954956,3.48,0.96,2.06,4.15
17.30083394050598,2.64,2.96,2.47,4.67
17.310847997665405,4.12,0.09,2.4,4.76
17.321165084838867,5.44,-0.38,2.62,6.04
17.33105707168579,5.56,-0.02,2.12,5.95
17.340866088867188,4.7,-0.38,1.43,4.92
17.350781202316284,3.95,-0.39,0.79,4.04
17.387190103530884,4.94,0.01,0.7,4.98
17.388304948806763,7.74,-0.54,0.52,7.77
17.389363050460815,6.67,-1.13,0.18,6.76
17.40085005760193,1.97,-1.18,0.02,2.29
17.40189814567566,-1.17,-1.12,-0.08,1.62
17.416709184646606,-1.47,-1.5,0.08,2.1
17.420104026794434,-1.19,-1.69,0.66,2.16
17.431655168533325,0.18,-0.5,2.03,2.09
17.440117120742798,1.44,0.92,3.15,3.58
17.449844121932983,0.87,1.58,2.59,3.15
17.487344980239868,-0.13,0.97,1.9,2.13
17.48863911628723,0.06,-0.01,1.79,1.79
17.48966097831726,1.12,-0.41,1.36,1.8
17.50067901611328,1.65,-0.45,0.54,1.79
17.50174593925476,1.33,-0.11,-0.18,1.34
17.516964197158813,0.99,0.11,-0.45,1.09
17.519381046295166,1.0,0.16,-0.64,1.19
17.5331871509552,0.72,0.23,-0.89,1.16
17.539340019226074,0.5,0.26,-0.52,0.76
17.54928708076477,0.6,-0.04,0.31,0.67
17.55915403366089,0.31,-0.37,0.65,0.8
17.591742038726807,-0.31,-0.37,0.64,0.8
17.592726945877075,-0.69,-0.22,0.57,0.92
17.594041109085083,-0.93,-0.05,0.51,1.06
17.599010229110718,-1.11,0.08,0.8,1.37
17.616792917251587,-1.15,0.3,0.69,1.37
17.61865210533142,-1.02,0.49,-0.13,1.13
17.633554220199585,-0.6,0.69,-1.22,1.52
17.63850712776184,-0.07,0.69,-2.12,2.23
17.648779153823853,0.32,0.73,-2.01,2.16
17.65863609313965,0.21,0.5,-1.74,1.82
17.69056510925293,-0.07,0.38,-1.69,1.73
17.691769123077393,-0.19,0.32,-1.22,1.27
17.693058013916016,-0.39,0.18,-0.54,0.69
17.698365926742554,-0.52,0.2,0.11,0.56
17.70787811279297,-0.34,0.25,0.57,0.7
17.717912912368774,0.11,0.11,0.64,0.65
17.727951049804688,0.6,-0.05,0.64,0.87
17.73784899711609,1.08,-0.2,0.72,1.31
17.748050928115845,1.48,-0.32,0.59,1.62
17.75774312019348,1.51,-0.35,0.48,1.62
17.79010510444641,1.14,-0.3,0.49,1.27
17.791404962539673,0.66,-0.18,0.59,0.9
17.79246497154236,0.29,-0.1,0.55,0.62
17.79706907272339,0.2,-0.11,0.36,0.42
17.807149171829224,0.24,-0.03,0.22,0.32
17.817333936691284,0.12,0.03,0.06,0.13
17.82712411880493,0.07,0.09,-0.08,0.13
17.836973905563354,0.13,0.09,-0.07,0.17
17.847116231918335,-0.02,0.1,-0.14,0.17
17.856978178024292,-0.42,0.17,-0.24,0.51
17.88962411880493,-0.56,0.19,-0.26,0.64
17.890918970108032,-0.41,0.17,-0.31,0.54
17.89201307296753,-0.4,0.16,-0.35,0.55
17.899033069610596,-0.26,0.08,-0.43,0.5
17.906346082687378,-0.29,0.14,-0.56,0.64
17.916867971420288,-0.63,0.28,-0.76,1.02
17.926564931869507,-0.92,0.45,-0.95,1.39
17.93624210357666,-1.37,0.51,-1.08,1.81
17.946340084075928,-1.56,0.42,-0.93,1.86
17.956019163131714,-1.47,0.38,-0.31,1.54
17.99392604827881,-1.19,0.26,0.05,1.21
17.995321035385132,-0.88,0.12,0.19,0.9
17.996288061141968,-0.77,0.03,0.13,0.78
18.018351078033447,-0.86,0.13,-0.31,0.92
18.019843101501465,-0.89,0.18,-0.67,1.12
18.03382897377014,-0.96,0.12,-0.67,1.17
18.035213232040405,-0.87,0.16,-0.51,1.02
18.050432920455933,-0.88,0.26,-0.29,0.96
18.05191206932068,-1.05,0.29,-0.05,1.09
18.065891981124878,-0.97,0.44,-0.25,1.09
18.09617018699646,-0.65,0.44,-0.86,1.16
18.09750199317932,-0.58,0.22,-1.0,1.17
18.098506212234497,-0.39,-0.13,-0.48,0.63
18.11753511428833,-0.23,-0.18,-0.17,0.33
18.118941068649292,-0.59,0.07,-0.37,0.69
18.13329005241394,-0.96,0.2,-0.52,1.1
18.134756088256836,-0.82,0.16,-0.3,0.88
18.15044403076172,-0.1,-0.25,0.16,0.31
18.15189290046692,1.01,-0.53,0.49,1.24
18.16613006591797,1.65,-0.58,0.5,1.81
18.194210052490234,1.97,-0.56,0.57,2.12
18.196057081222534,2.47,-0.1,1.17,2.73
18.19701910018921,2.23,0.19,1.21,2.54
18.21634316444397,1.72,0.25,1.16,2.08
18.217713117599487,1.16,0.26,0.95,1.52
18.2313129901886,0.42,0.33,0.74,0.91
18.23274302482605,-0.44,0.83,0.47,1.05
18.250946044921875,-0.94,1.38,0.35,1.7
18.252413988113403,-1.51,1.41,-0.31,2.08
18.266717195510864,-1.71,1.56,-0.54,2.37
18.298423051834106,-1.4,1.37,-0.56,2.03
18.299784898757935,-1.04,1.3,-0.8,1.84
18.3007972240448,-0.44,1.48,-0.75,1.71
18.317469120025635,0.13,1.36,-0.55,1.47
18.31850504875183,0.7,1.34,-0.33,1.54
18.333908081054688,0.79,1.54,-0.22,1.74
18.335397958755493,0.72,1.68,-0.07,1.82
18.350495100021362,0.59,1.66,0.04,1.76
18.35198402404785,0.43,1.55,-0.1,1.61
18.366173028945923,0.24,1.44,-0.42,1.51
18.36759901046753,0.0,1.29,-0.58,1.41
18.411457061767578,-0.28,1.25,-0.66,1.44
18.412665128707886,-0.61,1.19,-0.8,1.55
18.413655042648315,-1.02,1.06,-1.06,1.81
18.434283018112183,-1.36,1.24,-1.15,2.17
18.435746908187866,-1.58,1.37,-1.06,2.34
18.450445890426636,-1.72,1.3,-1.1,2.42
18.451905012130737,-1.71,1.31,-1.14,2.43
18.46768021583557,-1.62,1.36,-1.08,2.37
18.46922206878662,-1.2,1.19,-0.89,1.91
18.48277497291565,-0.85,0.84,-0.75,1.41
18.514007091522217,-0.61,0.72,-0.52,1.07
18.515319108963013,-0.35,0.55,-0.37,0.74
18.516370058059692,-0.18,0.2,-0.48,0.55
18.534589052200317,0.16,0.56,-0.37,0.69
18.5361270904541,1.15,1.74,0.37,2.11
18.55076503753662,2.57,2.72,0.5,3.77
18.552258014678955,2.33,1.75,-0.19,2.92
18.567344903945923,1.28,0.17,-0.44,1.36
18.568819046020508,0.17,-0.92,-0.51,1.06
18.58260703086853,-0.5,-1.48,-0.58,1.66
18.610811948776245,-0.7,-1.53,-0.56,1.77
18.61214303970337,-1.24,-2.16,-0.58,2.55
18.6131489276886,-2.75,-2.71,-0.71,3.92
18.634310960769653,-2.51,-1.7,-0.02,3.03
18.635334014892578,-2.67,-1.7,-0.05,3.16
18.650702238082886,-4.8,-1.72,-1.06,5.2
18.652164220809937,-6.88,-1.35,-1.49,7.16
18.667437076568604,-7.08,-0.77,-1.09,7.2
18.66890811920166,-5.52,-0.3,-0.74,5.57
18.68288493156433,-3.72,-0.18,-0.99,3.85
18.710443019866943,-2.65,0.02,-1.61,3.1
18.71258306503296,-2.22,0.45,-2.27,3.2
18.713557958602905,-2.09,0.79,-2.67,3.48
18.715952157974243,-2.02,0.92,-2.6,3.41
18.71736788749695,-1.93,0.72,-1.95,2.83
18.720206022262573,-1.89,0.49,-1.22,2.3
18.73027205467224,-1.85,0.46,-0.76,2.05
18.740195989608765,-1.89,0.49,-0.59,2.03
18.75036120414734,-2.3,0.6,-0.52,2.43
18.760189056396484,-2.72,0.73,-0.37,2.84
18.794764041900635,-2.83,0.81,-0.14,2.94
18.796086072921753,-2.57,0.61,0.03,2.64
18.797075033187866,-2.08,0.47,-0.04,2.13
18.81772494316101,-1.71,0.41,-0.24,1.77
18.81879711151123,-1.46,0.18,-0.35,1.51
18.833132028579712,-1.24,-0.09,-0.34,1.28
18.83417296409607,-1.2,-0.16,-0.31,1.24
18.850927114486694,-1.21,-0.07,-0.29,1.24
18.85223889350891,-1.19,-0.04,-0.25,1.21
18.86643624305725,-1.19,-0.1,-0.2,1.21
18.89493489265442,-1.25,-0.09,-0.19,1.26
18.896373987197876,-1.35,-0.05,-0.1,1.35
18.897359132766724,-1.43,-0.14,0.07,1.43
18.917627096176147,-1.44,-0.12,0.31,1.47
18.918625116348267,-1.39,-0.09,0.52,1.48
18.934006929397583,-1.38,-0.04,0.63,1.51
18.935465097427368,-1.41,0.08,0.67,1.56
18.95075821876526,-1.31,0.16,0.73,1.5
18.952194929122925,-1.09,0.26,0.77,1.35
18.966474056243896,-0.79,0.4,0.87,1.24
18.994282007217407,-0.31,0.5,1.0,1.16
18.995614051818848,0.36,0.46,1.04,1.19
18.996573209762573,0.91,0.37,0.92,1.34
18.998682022094727,1.38,0.36,0.68,1.58
19.00800609588623,2.11,0.35,0.41,2.17
19.018083095550537,3.03,0.31,0.24,3.05
19.027745962142944,3.7,0.2,0.17,3.7
19.03821611404419,4.02,0.34,0.13,4.03
19.048136949539185,4.21,0.45,0.28,4.24
19.05795407295227,4.3,0.46,0.66,4.37
19.093262910842896,4.37,0.41,1.21,4.55
19.09461212158203,4.54,0.32,1.89,4.92
19.095557928085327,4.65,0.13,2.43,5.24
19.097800970077515,4.54,0.01,2.72,5.29
19.107336044311523,4.32,0.07,2.9,5.2
19.117290019989014,4.13,0.04,3.14,5.18
19.127337217330933,4.03,-0.24,3.37,5.25
19.13755702972412,4.06,-0.44,3.49,5.37
19.147372007369995,4.17,-0.57,3.41,5.41
19.157224893569946,4.22,-0.77,3.19,5.34
19.16703200340271,4.09,-1.05,2.95,5.15
19.19710111618042,3.66,-1.44,2.73,4.78
19.1982581615448,3.0,-1.77,2.4,4.22
19.19923996925354,2.45,-2.02,2.15,3.83
19.217740058898926,2.2,-1.8,2.07,3.51
19.218794107437134,5.34,1.65,1.35,5.74
19.234258890151978,10.52,2.18,1.18,10.8
19.236431121826172,15.22,2.25,1.98,15.51
19.25093102455139,12.22,-1.43,3.97,12.92
19.25631594657898,2.99,-3.22,1.3,4.58
19.266560077667236,-3.41,-0.78,-2.14,4.1
19.297343015670776,-3.46,0.28,-1.95,3.98
19.298693895339966,-0.95,2.35,0.52,2.58
19.299701929092407,-0.17,3.34,2.44,4.13
19.31808590888977,-1.33,2.68,2.26,3.74
19.31955313682556,-1.52,1.24,2.01,2.8
19.334264993667603,-0.52,-0.05,2.33,2.38
19.335758924484253,0.08,-0.24,2.01,2.02
19.35109806060791,0.57,-0.25,1.46,1.58
19.355604887008667,1.43,-0.7,0.75,1.75
19.366615056991577,2.45,-1.02,-0.2,2.66
19.396497011184692,2.9,-0.86,-0.61,3.08
19.3978431224823,2.27,-0.56,-0.29,2.35
19.398829221725464,1.16,-0.53,0.3,1.31
19.41817307472229,0.16,-0.41,0.69,0.81
19.419666051864624,-0.55,-0.16,0.65,0.86
19.434201955795288,-0.93,-0.09,0.34,0.99
19.435638189315796,-1.27,0.32,-0.33,1.35
19.45114493370056,-1.58,0.94,-0.93,2.06
19.45485520362854,-1.39,1.24,-1.32,2.28
19.46554923057556,-0.68,0.84,-1.77,2.07
19.49808096885681,0.1,0.36,-1.58,1.62
19.49938988685608,0.36,0.33,-0.99,1.1
19.500384092330933,-0.04,0.42,-0.84,0.94
19.518338918685913,-0.47,0.44,-0.76,0.99
19.5197331905365,-0.75,0.42,-0.52,1.0
19.534437894821167,-0.7,0.37,-0.36,0.86
19.535933017730713,-0.47,0.23,-0.26,0.58
19.5511691570282,-0.17,0.13,-0.19,0.28
19.55432105064392,0.34,-0.02,-0.11,0.35
19.566697120666504,0.93,-0.27,0.22,0.99
19.601803064346313,1.17,-0.39,0.46,1.31
19.60321307182312,0.98,-0.35,0.56,1.18
19.60423493385315,0.65,-0.26,0.67,0.96
19.61846613883972,0.4,-0.22,0.64,0.78
19.619915008544922,0.19,-0.16,0.6,0.64
19.634427070617676,0.17,-0.07,0.36,0.4
19.63589596748352,0.13,0.05,-0.09,0.16
19.65110421180725,0.14,0.09,-0.35,0.38
19.653348207473755,0.1,0.09,-0.47,0.48
19.66677689552307,0.01,0.12,-0.33,0.35
19.702117204666138,-0.09,0.22,-0.15,0.28
19.703350067138672,-0.24,0.22,-0.11,0.34
19.704324960708618,-0.39,0.17,-0.05,0.42
19.71808123588562,-0.41,0.18,0.0,0.44
19.719069242477417,-0.47,0.18,-0.05,0.5
19.733453035354614,-0.67,0.13,-0.22,0.71
19.7348530292511,-0.8,0.13,-0.43,0.91
19.750972032546997,-0.78,0.21,-0.33,0.87
19.75255012512207,-0.71,0.28,-0.03,0.76
19.766835927963257,-0.62,0.24,0.13,0.67
19.800549030303955,-0.44,0.08,0.08,0.45
19.80197310447693,-0.23,-0.06,-0.05,0.24
19.802999019622803,-0.35,-0.18,-0.13,0.41
19.8182270526886,-0.55,-0.23,-0.33,0.68
19.819309949874878,-0.39,-0.26,-0.48,0.67
19.834516048431396,-0.39,-0.24,-0.46,0.64
19.83590817451477,-0.76,-0.15,-0.51,0.92
19.851192235946655,-1.11,-0.05,-0.49,1.21
19.85265302658081,-1.21,0.1,-0.3,1.25
19.86670422554016,-1.28,0.24,-0.23,1.32
19.89957594871521,-1.46,0.32,-0.29,1.52
19.90093493461609,-1.56,0.43,-0.39,1.66
19.901871919631958,-1.38,0.43,-0.39,1.49
19.918122053146362,-1.1,0.51,-0.11,1.21
19.919543027877808,-0.72,0.68,-0.63,1.17
19.934126138687134,-0.72,0.58,-1.52,1.77
19.93549108505249,-0.24,0.32,-1.29,1.35
19.951217889785767,1.26,-0.06,0.33,1.3
19.95266604423523,1.74,-0.35,0.59,1.87
19.967756986618042,1.34,-0.35,0.17,1.39
19.971168041229248,0.8,-0.34,0.15,0.88
20.01402497291565,0.4,-0.29,0.2,0.53
20.015181064605713,0.57,-0.03,0.2,0.6
20.01610493659973,0.9,0.15,0.21,0.93
20.03466010093689,0.93,0.4,-0.01,1.01
20.03567409515381,1.22,1.01,-0.16,1.59
20.050847053527832,1.42,1.25,-0.02,1.89
20.05228590965271,0.98,1.42,0.42,1.77
20.06803297996521,-0.23,2.36,0.89,2.53
20.069552183151245,-1.32,2.03,1.02,2.62
20.083428144454956,-1.28,1.73,1.16,2.44
20.111727952957153,-0.77,1.57,0.88,1.95
20.11311101913452,-0.7,1.54,0.18,1.7
20.11410117149353,-0.61,1.41,-0.36,1.57
20.13476014137268,-0.27,1.33,-0.71,1.53
20.135791063308716,0.41,1.21,-0.71,1.46
20.151098012924194,0.86,1.18,-0.77,1.65
20.152574062347412,0.94,1.33,-0.75,1.79
20.16824507713318,0.9,1.31,-0.61,1.7
20.16970419883728,1.13,1.38,-0.33,1.81
20.183491945266724,1.25,1.55,-0.1,1.99
20.212642908096313,1.05,1.57,-0.13,1.89
20.213993072509766,0.67,1.4,-0.48,1.62
20.215014219284058,0.0,1.41,-0.54,1.5
20.23494791984558,-0.68,1.53,-0.63,1.78
20.236014127731323,-1.06,1.42,-0.69,1.9
20.251431226730347,-1.28,1.33,-0.72,1.98
20.25290322303772,-1.53,1.34,-0.77,2.17
20.268197059631348,-1.76,1.1,-1.03,2.31
20.2696430683136,-1.9,1.17,-1.15,2.51
20.283457040786743,-1.5,1.6,-0.93,2.38
20.310651063919067,-1.1,1.71,-1.19,2.35
20.312052965164185,-0.94,1.78,-1.48,2.49
20.313095092773438,0.28,2.75,-1.03,2.94
20.315372228622437,1.82,3.37,-1.07,3.97
20.318177938461304,0.73,1.96,-1.81,2.76
20.327985048294067,-1.0,0.27,-2.45,2.65
20.338252067565918,-2.16,-0.87,-2.54,3.44
20.348361015319824,-2.91,-1.63,-2.43,4.12
20.35828423500061,-3.6,-2.27,-2.56,4.96
20.36812400817871,-1.89,-0.93,-2.18,3.03
20.403455018997192,-0.16,-1.37,-1.92,2.36
20.404619932174683,-1.69,-2.16,-2.5,3.71
20.40562105178833,-4.74,-2.13,-3.53,6.28
20.418520212173462,-7.85,-2.01,-3.66,8.89
20.419594049453735,-9.17,-1.54,-2.65,9.66
20.43477702140808,-7.98,-1.22,-1.16,8.15
20.437482118606567,-5.59,-1.32,-0.42,5.75
20.451407194137573,-4.25,-1.25,-0.94,4.52
20.45743489265442,-3.98,-0.49,-1.47,4.27
20.467192888259888,-4.21,0.19,-1.27,4.4
20.504406213760376,-4.6,0.4,-0.47,4.64
20.50583004951477,-4.57,0.35,0.32,4.59
20.5068461894989,-4.06,0.55,0.51,4.12
20.51802897453308,-3.52,0.88,0.23,3.63
20.519108057022095,-3.19,1.18,-0.09,3.4
20.535041093826294,-2.89,1.25,-0.07,3.14
20.536618947982788,-2.51,1.18,0.15,2.77
20.551526069641113,-1.99,1.15,0.43,2.33
20.556563138961792,-1.53,1.13,0.55,1.97
20.56640601158142,-1.25,1.12,0.49,1.74
20.602349996566772,-1.11,0.91,0.37,1.48
20.60374617576599,-0.94,0.66,0.37,1.2
20.604697942733765,-0.59,0.47,0.47,0.88
20.618837118148804,-0.25,0.32,0.62,0.74
20.619911909103394,-0.15,0.41,0.79,0.9
20.635029077529907,-0.1,0.57,0.92,1.08
20.636514902114868,-0.03,0.55,1.03,1.16
20.651546239852905,0.02,0.42,1.1,1.17
20.65597701072693,0.11,0.35,1.22,1.27
20.66703200340271,0.29,0.42,1.37,1.46
20.70334506034851,0.38,0.42,1.45,1.55
20.70458197593689,0.42,0.46,1.39,1.52
20.70554518699646,0.5,0.55,1.26,1.46
20.718700170516968,0.65,0.6,1.07,1.38
20.719728231430054,0.87,0.63,0.9,1.4
20.7341570854187,1.13,0.73,0.87,1.6
20.735163927078247,1.45,0.72,0.99,1.89
20.751912117004395,1.7,0.54,1.09,2.09
20.755213975906372,1.95,0.33,1.15,2.28
20.76729416847229,2.25,0.2,1.12,2.52
20.77508306503296,2.63,0.22,1.09,2.85
20.811054944992065,3.05,0.22,1.11,3.25
20.812149047851562,3.38,0.11,1.14,3.56
20.813318014144897,3.56,-0.08,1.22,3.76
20.81507420539856,3.73,-0.22,1.39,3.98
20.82455611228943,4.02,-0.3,1.58,4.32
20.834357023239136,4.32,-0.48,1.71,4.67
20.844260931015015,4.54,-0.65,1.82,4.93
20.854578018188477,4.67,-0.7,1.95,5.1
20.86445116996765,4.72,-0.81,1.97,5.17
20.874160051345825,4.78,-0.98,1.95,5.25
20.90384793281555,4.89,-1.13,1.96,5.38
20.90512204170227,4.97,-1.34,2.01,5.52
20.90612506866455,4.81,-1.16,2.03,5.34
20.918883085250854,3.93,0.88,1.59,4.32
20.923461198806763,4.79,0.0,1.52,5.02
20.93462109565735,8.7,1.12,2.94,9.25
20.943880081176758,14.59,1.29,4.89,15.44
20.95358109474182,15.14,-0.77,3.53,15.56
20.963678121566772,9.55,-0.71,2.63,9.93
20.97333002090454,3.8,-1.86,3.05,5.21
21.003592014312744,-1.14,-2.05,2.75,3.61
21.00495219230652,-3.01,-2.01,2.56,4.43
21.00596308708191,-2.01,-0.54,2.25,3.06
21.018806219100952,-1.33,1.85,0.48,2.32
21.022727012634277,-1.43,4.13,-0.41,4.38
21.032743215560913,-0.48,3.87,0.54,3.93
21.04303503036499,0.96,-0.05,1.29,1.6
21.05281710624695,0.73,-1.02,1.19,1.72
21.06290888786316,0.38,-0.45,-0.39,0.7
21.072757959365845,1.02,-0.04,-1.37,1.7
21.10348606109619,1.48,0.1,-1.56,2.15
21.104737997055054,1.24,0.1,-0.84,1.5
21.105690240859985,0.78,0.05,0.45,0.9
21.118963956832886,0.27,-0.1,0.95,0.99
21.121957063674927,-0.19,-0.1,1.16,1.17
21.13495111465454,-0.38,-0.04,1.24,1.29
21.142407178878784,-0.56,0.07,0.66,0.86
21.1520779132843,-0.71,0.26,-0.39,0.85
21.161830186843872,-0.57,0.35,-0.94,1.15
21.172059059143066,-0.32,0.31,-1.06,1.14
21.209585905075073,-0.17,0.23,-1.08,1.11
21.21100902557373,0.04,0.11,-0.79,0.79
21.211965084075928,0.04,0.13,-0.53,0.54
21.214350938796997,-0.36,0.32,-0.62,0.78
21.234366178512573,-0.69,0.4,-0.69,1.05
21.235410928726196,-0.65,0.34,-0.58,0.93
21.251923084259033,-0.44,0.19,-0.39,0.61
21.25339102745056,-0.37,0.07,-0.28,0.46
21.267566919326782,-0.38,0.04,-0.15,0.41
21.27114224433899,0.15,0.05,0.25,0.29
21.310653924942017,0.78,0.0,0.67,1.02
21.311803102493286,1.08,-0.18,0.58,1.23
21.312822103500366,1.13,-0.3,0.39,1.23
21.31455707550049,0.92,-0.34,0.3,1.02
21.3205668926239,0.66,-0.25,0.35,0.78
21.33065390586853,0.4,-0.08,0.29,0.5
21.34062123298645,0.22,0.01,0.17,0.27
21.350897073745728,0.14,0.04,0.15,0.2
21.3608341217041,0.05,0.06,0.14,0.16
21.37057614326477,-0.02,0.05,0.12,0.13
21.40536403656006,-0.06,0.02,0.01,0.06
21.4066801071167,-0.12,0.02,-0.01,0.12
21.407637119293213,-0.27,0.16,0.05,0.31
21.418530225753784,-0.41,0.24,0.09,0.48
21.41972804069519,-0.37,0.17,-0.17,0.44
21.43377709388733,-0.31,0.22,-0.37,0.53
21.439625024795532,-0.33,0.26,-0.32,0.52
21.45185112953186,-0.39,0.21,-0.45,0.63
21.460013151168823,-0.54,0.13,-0.65,0.85
21.469584226608276,-0.71,0.14,-0.38,0.81
21.506164073944092,-0.87,0.19,-0.14,0.9
21.50748109817505,-0.79,0.24,-0.22,0.85
21.508541107177734,-0.54,0.22,-0.16,0.6
21.519017934799194,-0.4,0.17,-0.08,0.44
21.520073175430298,-0.36,0.15,-0.29,0.48
21.53521203994751,-0.39,0.06,-0.48,0.62
21.539211988449097,-0.61,0.01,-0.41,0.73
21.549768209457397,-0.9,0.06,-0.32,0.95
21.559227228164673,-1.18,0.1,-0.22,1.2
21.568859100341797,-1.6,0.04,-0.08,1.6
21.57882809638977,-1.63,0.11,-0.21,1.64
21.60996413230896,-1.29,0.32,-0.33,1.36
21.61112904548645,-1.0,0.36,-0.44,1.15
21.612378120422363,-0.57,0.24,-0.49,0.78
21.618351221084595,-0.06,0.08,-0.38,0.39
21.635628938674927,0.03,0.18,-0.59,0.61
21.63850712776184,-0.02,0.27,-0.73,0.77
21.65194821357727,0.15,0.07,-0.59,0.61
21.658477067947388,0.41,-0.31,-0.11,0.52
21.66812801361084,0.56,-0.55,0.54,0.95
21.678067922592163,0.45,-0.39,0.7,0.91
21.711302995681763,-0.07,-0.03,0.45,0.45
21.712446928024292,-0.45,0.31,-0.02,0.54
21.713624238967896,0.01,0.44,-0.12,0.45
21.71760392189026,0.71,0.16,-0.07,0.73
21.72751212120056,0.85,0.1,-0.34,0.92
21.737646102905273,0.84,-0.03,-0.65,1.06
21.747559070587158,0.83,0.16,-0.91,1.24
21.757713079452515,0.93,0.55,-0.96,1.44
21.76763892173767,1.09,0.46,-0.78,1.41
21.777260065078735,1.2,0.44,-0.55,1.39
21.806945085525513,1.03,0.67,-0.25,1.25
21.808099031448364,0.65,0.62,0.04,0.89
21.809314012527466,-0.03,0.84,0.28,0.88
21.820043087005615,-0.17,1.45,0.72,1.62
21.82690119743347,-0.16,1.56,0.71,1.72
21.83651614189148,-0.32,1.71,0.81,1.91
21.847000122070312,-0.42,1.75,0.78,1.96
21.856823205947876,-0.68,1.83,0.58,2.03
21.866562128067017,-0.54,1.85,0.36,1.96
21.87677502632141,-0.09,2.19,0.22,2.2
21.908574104309082,0.17,2.28,-0.06,2.28
21.9099440574646,0.27,2.08,-0.24,2.11
21.910983085632324,0.06,1.96,-0.44,2.0
21.916034936904907,-0.22,1.98,-0.65,2.09
21.92600989341736,-0.4,1.95,-0.59,2.07
21.936063051223755,-0.53,1.91,-0.45,2.03
21.94616198539734,-0.82,1.85,-0.52,2.08
21.956030130386353,-1.08,1.63,-0.59,2.04
21.96623206138611,-1.23,1.33,-0.71,1.94
21.9760639667511,-1.42,1.25,-0.73,2.02
22.012480974197388,-1.54,1.14,-0.86,2.1
22.01375412940979,-1.4,1.17,-1.03,2.09
22.014772176742554,-1.16,1.06,-1.13,1.93
22.03627324104309,-0.77,0.77,-1.16,1.59
22.03771424293518,-0.5,0.99,-1.27,1.68
22.052388906478882,-0.37,1.5,-1.44,2.11
22.053837060928345,0.13,2.0,-1.19,2.33
22.069011926651,1.54,2.78,-0.97,3.32
22.070496082305908,1.14,1.91,-1.61,2.74
22.084436178207397,-0.28,0.49,-1.87,1.95
22.11590600013733,-1.07,-0.08,-1.72,2.02
22.11720609664917,-1.62,-0.3,-1.77,2.41
22.118218183517456,-2.48,-1.29,-2.08,3.48
22.136129140853882,-3.75,-2.92,-2.33,5.29
22.13760805130005,-4.04,-2.3,-1.88,5.01
22.15231490135193,-3.6,-1.0,-1.32,3.96
22.15379023551941,-4.41,-1.42,-1.92,5.01
22.16913390159607,-5.85,-1.95,-2.24,6.56
22.170621156692505,-6.9,-2.1,-1.8,7.43
22.184360027313232,-6.83,-1.84,-1.21,7.17
22.215061902999878,-5.91,-1.55,-1.02,6.19
22.21634793281555,-4.93,-1.29,-1.19,5.23
22.21736788749695,-4.15,-0.89,-1.42,4.47
22.23601508140564,-3.48,-0.43,-1.41,3.77
22.23746418952942,-3.04,-0.03,-1.31,3.31
22.252418041229248,-2.83,0.24,-1.14,3.06
22.253921031951904,-2.68,0.48,-0.76,2.82
22.269246101379395,-2.55,0.56,-0.41,2.64
22.270673990249634,-2.41,0.63,-0.29,2.5
22.285372018814087,-2.17,0.83,-0.33,2.34
22.31491708755493,-1.79,0.98,-0.26,2.05
22.31620192527771,-1.44,1.07,-0.08,1.79
22.31722092628479,-1.08,1.21,0.08,1.62
22.33582901954651,-0.61,1.37,0.19,1.51
22.33687710762024,-0.15,1.39,0.18,1.4
22.352219104766846,0.19,1.29,0.17,1.31
22.35368323326111,0.3,1.16,0.27,1.22
22.369218111038208,0.24,1.18,0.43,1.27
22.370686054229736,0.28,1.24,0.7,1.45
22.38386607170105,0.42,1.08,0.96,1.5
22.385350942611694,0.45,0.8,1.07,1.4
22.433892011642456,0.47,0.54,1.14,1.34
22.435206174850464,0.59,0.25,1.18,1.34
22.436068058013916,0.7,-0.12,1.2,1.39
22.452516078948975,0.65,-0.43,1.22,1.44
22.453968048095703,0.5,-0.51,1.33,1.5
22.465007066726685,0.44,-0.44,1.43,1.55
22.46596121788025,0.5,-0.4,1.5,1.63
22.481741189956665,0.61,-0.43,1.58,1.74
22.482939958572388,0.74,-0.49,1.64,1.86
22.501982927322388,0.88,-0.52,1.71,1.99
22.53256392478943,1.17,-0.49,1.7,2.12
22.53398299217224,1.51,-0.3,1.59,2.21
22.534922122955322,1.77,-0.14,1.59,2.38
22.553035974502563,1.89,-0.14,1.64,2.5
22.554461240768433,1.92,0.01,1.65,2.53
22.567301034927368,1.99,0.31,1.61,2.57
22.568777084350586,2.2,0.55,1.46,2.69
22.585549116134644,2.69,0.7,1.27,3.05
22.586982011795044,3.33,0.78,1.22,3.63
22.60156798362732,3.85,0.68,1.1,4.06
22.62960696220398,4.06,0.55,1.01,4.21
22.63093590736389,4.22,0.46,1.03,4.36
22.631916046142578,4.37,0.33,1.12,4.52
22.652608156204224,4.24,0.09,1.29,4.43
22.653669118881226,3.88,-0.09,1.47,4.15
22.669543981552124,3.59,-0.27,1.65,3.96
22.671049118041992,3.42,-0.48,1.74,3.86
22.68581509590149,3.49,-0.73,1.66,3.93
22.6872980594635,3.61,-1.08,1.42,4.02
22.70137095451355,3.53,-1.32,1.19,3.95
22.729233980178833,3.42,-1.39,1.04,3.83
22.73058009147644,3.52,-1.5,0.95,3.94
22.73154306411743,3.61,-1.7,0.84,4.07
22.752968072891235,3.49,-1.83,0.76,4.01
22.754022121429443,3.22,-1.91,0.81,3.83
22.769374132156372,2.93,-2.07,0.92,3.7
22.770848989486694,2.66,-2.12,0.98,3.53
22.7861111164093,2.47,-1.97,1.03,3.32
22.78759002685547,2.26,-1.86,1.02,3.09
22.801481008529663,1.9,-1.89,0.93,2.83
22.829622983932495,3.61,0.42,0.93,3.75
22.830913066864014,6.84,3.14,0.3,7.53
22.831915140151978,9.16,1.73,-0.47,9.33
22.852971076965332,7.4,-0.21,1.09,7.48
22.854451894760132,1.16,-1.06,0.84,1.78
22.869375944137573,-3.91,0.8,0.22,3.99
22.870848894119263,-4.58,1.2,1.14,4.86
22.88578200340271,-2.59,1.65,2.99,4.28
22.887248039245605,-1.0,1.74,3.1,3.69
22.90153193473816,-1.02,1.6,1.84,2.64
22.929846048355103,-1.31,1.35,0.6,1.97
22.93120002746582,-0.65,0.33,0.84,1.11
22.9322030544281,0.26,-0.25,1.7,1.73
22.952877044677734,0.79,-0.24,1.87,2.04
22.953931093215942,1.12,-0.33,1.13,1.62
22.96938705444336,1.59,-0.36,0.3,1.65
22.97088122367859,2.03,-0.46,-0.39,2.11
22.985955953598022,2.17,-0.41,-0.99,2.42
22.987454175949097,1.73,-0.31,-0.93,1.98
23.001039028167725,0.76,-0.18,-0.2,0.8
23.02874207496643,-0.33,-0.07,0.29,0.44
23.03017807006836,-0.89,0.08,0.9,1.26
23.031200170516968,-0.7,-0.03,1.07,1.27
23.033136129379272,-0.49,-0.16,0.59,0.78
23.034574031829834,-0.89,0.03,0.56,1.05
23.037692070007324,-1.05,0.09,0.59,1.2
23.047731161117554,-0.8,-0.07,0.58,0.99
23.05760908126831,-0.52,-0.01,0.16,0.54
23.06792712211609,-0.57,0.15,-0.66,0.88
23.07776188850403,-0.82,0.34,-1.19,1.48
23.114373922348022,-0.63,0.55,-1.05,1.34
23.115771055221558,-0.22,0.35,-0.98,1.06
23.11677098274231,-0.13,0.24,-1.12,1.15
23.136152982711792,-0.3,0.45,-0.96,1.1
23.137200117111206,-0.58,0.46,-0.78,1.07
23.152600049972534,-0.81,0.4,-0.83,1.22
23.154081106185913,-0.92,0.48,-0.85,1.34
23.16951012611389,-0.78,0.47,-0.65,1.11
23.170965909957886,-0.43,0.27,-0.42,0.65
23.18462610244751,0.31,0.07,-0.08,0.32
23.186898946762085,1.12,-0.13,0.19,1.14
23.227334022521973,1.32,-0.21,0.18,1.34
23.22856307029724,1.26,-0.26,0.24,1.3
23.22981095314026,1.04,-0.14,0.35,1.1
23.232160091400146,0.79,0.01,0.38,0.87
23.2529399394989,0.61,0.0,0.34,0.69
23.254399061203003,0.59,-0.03,0.36,0.69
23.26933789253235,0.74,-0.21,0.5,0.91
23.27080988883972,0.85,-0.37,0.64,1.12
23.28480315208435,0.73,-0.32,0.53,0.95
23.286302089691162,0.54,-0.11,0.32,0.63
23.329554080963135,0.28,0.04,0.41,0.49
23.33069920539856,-0.01,0.07,0.44,0.44
23.331639051437378,-0.13,0.07,0.21,0.25
23.353554010391235,-0.16,0.15,-0.02,0.22
23.355003118515015,-0.12,0.17,-0.18,0.27
23.36938500404358,-0.17,0.08,-0.2,0.27
23.37069606781006,-0.4,0.13,-0.07,0.42
23.38590407371521,-0.69,0.13,-0.01,0.7
23.387298107147217,-0.83,0.18,-0.21,0.87
23.401663064956665,-0.75,0.21,-0.33,0.84
23.432045221328735,-0.58,0.19,-0.28,0.67
23.43335509300232,-0.43,0.13,-0.16,0.47
23.434340238571167,-0.42,0.0,-0.2,0.46
23.453036069869995,-0.59,-0.05,-0.33,0.67
23.454449892044067,-0.87,-0.07,-0.43,0.97
23.469667196273804,-0.98,-0.01,-0.5,1.1
23.471081018447876,-0.93,0.12,-0.39,1.01
23.48614811897278,-0.96,0.26,-0.16,1.0
23.487555027008057,-0.59,0.43,0.21,0.75
23.501857042312622,-0.1,0.32,0.56,0.65
23.530524015426636,0.05,0.2,0.66,0.69
23.53189206123352,-0.03,0.14,0.38,0.4
23.532903909683228,-0.14,0.23,-0.01,0.26
23.553410053253174,-0.28,0.4,-0.44,0.65
23.554829120635986,-0.37,0.51,-0.74,0.97
23.569797039031982,-0.58,0.57,-0.96,1.25
23.57126212120056,-0.78,0.44,-0.97,1.32
23.586320161819458,-0.78,0.21,-0.82,1.15
23.587680101394653,-1.02,0.13,-0.97,1.41
23.601880073547363,-0.94,0.33,-1.09,1.47
23.630284070968628,0.22,0.43,-0.39,0.62
23.631659030914307,0.78,0.38,-0.05,0.86
23.63267207145691,0.74,0.2,-0.24,0.8
23.653781175613403,0.65,-0.03,-0.19,0.67
23.655242204666138,0.54,0.04,-0.09,0.54
23.669543027877808,0.4,-0.13,0.05,0.42
23.67095923423767,0.25,-0.18,0.11,0.32
23.686124086380005,-0.03,0.3,-0.16,0.34
23.687555074691772,-0.15,0.82,-0.14,0.84
23.701984167099,-0.07,1.08,0.02,1.08
23.731117963790894,0.04,1.43,0.45,1.49
23.732572078704834,-0.32,1.18,0.4,1.28
23.733572006225586,-0.7,1.14,0.33,1.37
23.75330901145935,-0.81,0.92,0.31,1.26
23.754791975021362,-0.56,0.79,0.17,0.98
23.76977300643921,-0.16,0.76,-0.01,0.77
23.771287202835083,-0.04,0.78,-0.09,0.78
23.786189079284668,0.2,1.01,-0.22,1.05
23.78764009475708,0.47,1.5,-0.15,1.57
23.80242609977722,0.67,1.88,-0.35,2.02
23.832902193069458,0.61,2.12,-0.74,2.32
23.834216117858887,0.29,2.21,-0.93,2.41
23.835231065750122,-0.14,2.28,-1.03,2.5
23.853626012802124,-0.47,2.28,-0.9,2.49
23.854986906051636,-0.8,2.16,-0.69,2.4
23.869782209396362,-1.19,1.99,-0.64,2.4
23.871066093444824,-1.46,1.86,-0.81,2.49
23.886024236679077,-1.55,1.73,-0.88,2.48
23.88744807243347,-1.51,1.49,-0.89,2.3
23.90585207939148,-1.45,1.26,-0.98,2.15
23.935936212539673,-1.4,1.23,-1.06,2.14
23.93744206428528,-1.34,1.07,-1.13,2.05
23.93845510482788,-1.1,1.09,-1.1,1.89
23.953930139541626,-0.74,0.79,-0.93,1.42
23.954998016357422,-0.38,0.63,-0.49,0.88
23.970072984695435,-0.1,0.86,-0.15,0.87
23.971532106399536,0.13,0.72,-0.16,0.74
23.986282110214233,1.19,1.57,0.07,1.97
23.98775005340576,1.92,2.19,-0.32,2.93
24.00197720527649,1.11,1.39,-0.89,1.98
24.00347113609314,0.36,0.59,-1.32,1.49
24.050753116607666,-0.73,-0.78,-1.69,1.99
24.05196499824524,-2.06,-2.49,-1.77,3.68
24.05297589302063,-3.79,-4.88,-2.21,6.56
24.070866107940674,-5.02,-6.13,-1.87,8.14
24.072379112243652,-4.6,-2.88,-0.11,5.42
24.086409091949463,-5.77,-2.7,0.13,6.37
24.08790898323059,-7.52,-3.31,-0.58,8.23
24.10324215888977,-8.68,-2.39,-0.73,9.03
24.104674100875854,-8.09,-0.83,-0.38,8.14
24.11863112449646,-6.63,0.18,-0.37,6.64
24.146966218948364,-5.39,0.74,-0.72,5.48
24.14835000038147,-4.75,1.33,-1.07,5.04
24.149329900741577,-4.54,1.93,-1.27,5.09
24.170087099075317,-4.24,2.43,-1.17,5.02
24.171149015426636,-3.65,2.44,-0.94,4.48
24.186425924301147,-2.99,1.94,-0.98,3.69
24.18791890144348,-2.27,1.48,-1.36,3.03
24.203346014022827,-1.42,1.33,-1.75,2.61
24.204822063446045,-0.69,1.31,-1.99,2.48
24.218806982040405,-0.26,1.26,-2.03,2.4
24.249903917312622,0.2,1.1,-1.84,2.15
24.25125002861023,0.76,0.89,-1.64,2.01
24.252247095108032,1.04,0.75,-1.52,1.98
24.270463228225708,1.08,0.57,-1.24,1.74
24.271960973739624,0.93,0.32,-0.74,1.23
24.286554098129272,0.67,0.11,-0.31,0.74
24.287994146347046,0.54,-0.04,0.04,0.54
24.303246021270752,0.62,-0.06,0.4,0.74
24.304707050323486,0.64,0.05,0.72,0.96
24.318668127059937,0.38,0.06,0.99,1.06
24.350455045700073,0.1,0.15,1.33,1.34
24.35213017463684,0.05,0.36,1.78,1.81
24.353158235549927,0.16,0.43,2.23,2.27
24.370679140090942,0.26,0.44,2.45,2.5
24.372113943099976,0.3,0.44,2.52,2.57
24.386475086212158,0.44,0.5,2.7,2.78
24.38788390159607,0.92,0.57,2.79,2.99
24.403417110443115,1.77,0.46,2.68,3.24
24.404922008514404,2.79,0.23,2.48,3.73
24.418598890304565,3.59,-0.16,2.2,4.21
24.448780059814453,3.85,-0.5,1.92,4.33
24.450160026550293,3.82,-0.47,1.73,4.21
24.451173067092896,3.81,-0.3,1.56,4.12
24.4702889919281,4.0,-0.21,1.49,4.27
24.47168803215027,4.24,-0.26,1.63,4.54
24.486699104309082,4.32,-0.32,1.94,4.74
24.488168001174927,4.12,-0.3,2.32,4.73
24.503495931625366,3.72,-0.24,2.68,4.59
24.504971027374268,3.28,-0.28,2.93,4.4
24.518794059753418,2.96,-0.42,3.08,4.29
24.54709792137146,2.79,-0.54,3.05,4.16
24.548368215560913,2.72,-0.67,2.86,4.0
24.54938006401062,3.88,0.64,2.54,4.68
24.57043194770813,6.32,2.46,1.5,6.94
24.571480989456177,7.23,1.28,1.1,7.42
24.5864520072937,8.38,1.35,2.4,8.82
24.587909936904907,7.86,1.03,4.0,8.87
24.60384511947632,7.66,-0.06,3.75,8.52
24.60533905029297,7.18,-1.76,3.29,8.09
24.618998050689697,2.86,-1.53,2.84,4.31
24.648173093795776,-1.51,-0.56,1.94,2.52
24.64953303337097,-2.6,-0.45,1.22,2.9
24.650545120239258,-1.62,0.17,1.32,2.09
24.670725107192993,-0.81,1.14,0.94,1.68
24.672209978103638,-1.02,1.87,0.06,2.13
24.686843156814575,-0.93,1.96,0.05,2.17
24.688316106796265,0.17,1.02,0.51,1.15
24.7037410736084,0.75,-0.08,0.46,0.88
24.705260038375854,0.69,-0.29,-0.2,0.77
24.71878218650818,0.7,-0.37,-0.66,1.03
24.748729944229126,1.03,-0.37,-0.74,1.32
24.749990224838257,1.23,-0.38,-0.65,1.44
24.751003980636597,0.91,-0.15,-0.27,0.96
24.77072501182556,0.48,0.06,0.65,0.81
24.772204160690308,0.2,0.02,1.27,1.28
24.786638975143433,0.12,0.0,1.24,1.24
24.788052082061768,0.23,0.03,1.17,1.19
24.80408501625061,0.2,0.08,1.2,1.21
24.80556893348694,-0.07,0.11,0.88,0.88
24.81902503967285,-0.14,0.01,0.36,0.38
24.820428133010864,0.1,-0.05,-0.07,0.13
24.865031957626343,0.26,-0.03,-0.47,0.53
24.8662211894989,0.25,0.14,-0.61,0.67
24.867220163345337,0.14,0.21,-0.51,0.56
24.889363050460815,0.04,0.17,-0.22,0.28
24.890820026397705,-0.07,0.11,0.03,0.13
24.902755975723267,-0.34,0.31,0.07,0.46
24.904165983200073,-0.59,0.31,-0.44,0.79
24.92019009590149,-0.66,0.32,-0.89,1.15
24.921648025512695,-0.45,0.35,-0.97,1.12
24.936049222946167,-0.08,0.22,-0.88,0.91
24.96544909477234,0.09,0.15,-0.68,0.7
24.966785192489624,-0.16,0.13,-0.44,0.48
24.967843055725098,-0.27,0.12,-0.07,0.3
24.987015962600708,-0.12,0.09,0.25,0.29
24.988065004348755,-0.01,0.06,0.41,0.41
25.003316164016724,0.21,-0.04,0.49,0.53
25.0047709941864,0.39,-0.08,0.37,0.54
25.02042007446289,0.38,-0.08,0.03,0.38
25.021825075149536,0.29,-0.06,-0.21,0.36
25.03564190864563,0.18,-0.02,-0.09,0.2
25.061959981918335,0.06,0.0,0.07,0.09
25.063245058059692,0.08,0.04,0.14,0.16
25.064258098602295,0.17,0.06,0.34,0.38
25.06669020652771,0.17,0.13,0.35,0.41
25.06797504425049,0.21,0.16,0.22,0.34
25.069350957870483,0.18,0.07,0.07,0.2
25.070743083953857,0.02,0.06,0.01,0.06
25.072330236434937,-0.13,0.09,0.03,0.16
25.08248209953308,-0.29,0.12,-0.13,0.33
25.092396020889282,-0.47,0.18,-0.44,0.66
25.117255926132202,-0.65,0.26,-0.52,0.87
25.118324041366577,-0.7,0.26,-0.42,0.85
25.12181806564331,-0.51,0.18,-0.39,0.66
25.13556218147278,-0.3,0.1,-0.12,0.33
25.14216923713684,-0.28,0.0,0.14,0.31
25.153209924697876,-0.37,-0.1,0.12,0.4
25.161914110183716,-0.46,-0.06,0.19,0.5
25.171618223190308,-0.54,0.11,0.14,0.56
25.18169093132019,-0.67,0.23,-0.17,0.72
25.191720008850098,-0.95,0.25,-0.51,1.1
25.227456092834473,-0.75,0.21,-0.67,1.02
25.228965044021606,-0.33,0.17,-0.34,0.5
25.23002791404724,-0.3,0.23,-0.35,0.51
25.23359513282776,-0.11,0.26,-0.4,0.48
25.25300621986389,-0.13,0.18,-0.31,0.38
25.254027128219604,-0.38,0.12,-0.33,0.51
25.269845008850098,-0.43,0.13,-0.27,0.52
25.271327018737793,-0.46,0.1,-0.32,0.56
25.28582501411438,-0.63,0.04,-0.55,0.83
25.290886163711548,-0.7,0.06,-0.52,0.87
25.329302072525024,-0.7,-0.06,-0.16,0.72
25.330395936965942,-0.72,-0.02,0.19,0.74
25.33160901069641,-0.62,0.12,0.31,0.7
25.33337092399597,-0.39,0.25,0.18,0.49
25.34033703804016,-0.19,0.3,-0.23,0.42
25.350544214248657,0.15,0.21,-0.73,0.77
25.36066508293152,0.8,0.02,-0.83,1.15
25.37069821357727,1.21,-0.05,-0.68,1.38
25.380412101745605,1.04,-0.11,-0.71,1.26
25.39038395881653,0.78,-0.13,-0.84,1.15
25.42788600921631,0.7,0.07,-0.74,1.02
25.42925500869751,0.58,0.31,-0.53,0.84
25.430280923843384,0.37,0.34,-0.35,0.61
25.433053016662598,0.02,0.43,-0.17,0.46
25.45368218421936,-0.16,0.59,0.45,0.75
25.455143213272095,-0.05,0.82,1.17,1.42
25.470356225967407,0.59,1.16,1.45,1.94
25.471809148788452,1.12,1.82,1.99,2.92
25.485902070999146,0.23,1.83,1.56,2.41
25.48945903778076,-0.3,2.34,1.4,2.74
25.528638124465942,-0.54,2.41,1.43,2.85
25.52979803085327,-0.63,2.26,1.14,2.6
25.531025171279907,-1.04,2.32,0.52,2.59
25.532949209213257,-1.51,2.24,0.17,2.7
25.550545930862427,-1.49,2.2,0.18,2.66
25.551619052886963,-1.45,2.06,-0.17,2.52
25.57050609588623,-1.31,1.85,-0.48,2.31
25.571978092193604,-1.4,1.75,-0.83,2.38
25.58586621284485,-1.76,1.53,-1.09,2.57
25.5886709690094,-1.64,1.33,-1.15,2.4
25.60222315788269,-1.41,1.29,-0.95,2.13
25.63111901283264,-1.46,1.17,-1.07,2.15
25.632474184036255,-1.1,1.24,-1.04,1.95
25.633445978164673,-0.47,1.43,-1.12,1.87
25.6545832157135,-0.04,1.2,-1.18,1.68
25.6560480594635,0.03,1.1,-1.06,1.52
25.670671224594116,-0.23,0.26,-1.54,1.57
25.6721031665802,0.03,-0.66,-1.54,1.67
25.68727207183838,0.47,-0.31,-1.22,1.34
25.688699960708618,0.98,0.35,-1.48,1.8
25.703188180923462,2.22,1.4,-1.75,3.15
25.73188805580139,3.74,1.98,-1.99,4.67
25.73338508605957,2.75,0.41,-2.65,3.84
25.734441995620728,1.12,-0.78,-3.39,3.65
25.754476070404053,-1.11,-2.63,-3.99,4.9
25.75593900680542,-3.32,-4.16,-4.18,6.76
25.770616054534912,-2.87,-2.61,-3.37,5.13
25.772082090377808,-2.09,-1.99,-3.01,4.16
25.78714394569397,-3.65,-2.05,-3.71,5.59
25.7885959148407,-5.62,-1.79,-4.13,7.2
25.8026340007782,-6.39,-1.31,-3.51,7.4
25.832135915756226,-5.88,-0.96,-2.36,6.4
25.833420038223267,-5.02,-0.92,-1.41,5.29
25.834469079971313,-4.39,-0.76,-0.91,4.54
25.854435205459595,-4.23,-0.36,-0.8,4.32
25.8559250831604,-4.59,0.25,-0.74,4.65
25.871719121932983,-4.95,0.74,-0.38,5.01
25.873167037963867,-4.96,0.94,0.15,5.05
25.88740301132202,-4.61,0.98,0.54,4.74
25.88885807991028,-4.1,0.88,0.58,4.23
25.902849912643433,-3.59,0.76,0.39,3.69
25.93152403831482,-3.18,0.74,0.27,3.27
25.932857036590576,-2.84,0.74,0.36,2.95
25.933792114257812,-2.41,0.62,0.44,2.52
25.954556226730347,-1.83,0.53,0.48,1.96
25.95604109764099,-1.31,0.41,0.49,1.45
25.970743894577026,-1.01,0.41,0.52,1.2
25.972108125686646,-0.82,0.54,0.55,1.12
25.98688507080078,-0.68,0.54,0.55,1.02
25.9881432056427,-0.48,0.41,0.52,0.81
26.00288414955139,-0.24,0.32,0.54,0.67
26.03400707244873,-0.01,0.55,0.57,0.79
26.035306215286255,0.3,0.6,0.62,0.91
26.03632092475891,0.59,0.48,0.64,0.99
26.05465006828308,0.75,0.55,0.74,1.18
26.056085109710693,0.74,0.68,0.88,1.33
26.07096219062805,0.6,0.66,1.02,1.35
26.072367906570435,0.52,0.69,1.12,1.41
26.087416887283325,0.65,0.74,1.12,1.49
26.08879017829895,0.84,0.73,1.09,1.55
26.10349702835083,0.95,0.77,1.07,1.62
26.136067152023315,1.02,0.77,1.12,1.69
26.137276887893677,1.07,0.78,1.28,1.84
26.138317108154297,1.19,0.79,1.46,2.04
26.154897928237915,1.41,0.56,1.53,2.15
26.15636110305786,1.6,0.37,1.61,2.29
26.170963048934937,1.74,0.3,1.71,2.45
26.172375917434692,1.89,0.23,1.8,2.62
26.18723201751709,2.08,0.16,1.89,2.81
26.18868088722229,2.41,-0.02,1.96,3.1
26.203052043914795,2.7,-0.31,1.99,3.36
26.231285095214844,2.7,-0.45,2.09,3.44
26.232635021209717,2.61,-0.48,2.23,3.46
26.233609914779663,2.62,-0.54,2.36,3.56
26.254597902297974,2.73,-0.66,2.42,3.7
26.255654096603394,2.78,-0.79,2.41,3.76
26.270888090133667,2.8,-0.85,2.31,3.72
26.272396087646484,2.9,-0.88,2.23,3.76
26.28626322746277,3.12,-0.96,2.16,3.91
26.287710905075073,3.33,-1.06,2.08,4.06
26.303575038909912,3.47,-1.11,2.0,4.15
26.333797216415405,3.59,-1.22,1.89,4.23
26.335071086883545,3.62,-1.3,1.75,4.22
26.336043119430542,3.58,-1.3,1.59,4.12
26.354604959487915,3.55,-1.14,1.44,3.99
26.356091022491455,3.57,-0.91,1.28,3.9
26.370784997940063,5.2,2.2,1.19,5.77
26.372244119644165,8.8,3.88,0.97,9.66
26.386839151382446,11.96,1.46,0.7,12.06
26.388302087783813,9.41,1.32,1.74,9.66
26.403422117233276,5.13,0.1,1.8,5.43
26.40515923500061,1.51,-1.26,0.54,2.03
26.45602822303772,-2.12,-0.92,-0.33,2.33
26.457104921340942,-3.85,-0.59,-0.33,3.9
26.458070039749146,-2.79,-0.19,0.55,2.85
26.471538066864014,-0.68,0.4,1.22,1.45
26.47296404838562,0.16,1.24,1.26,1.77
26.487385988235474,0.01,1.46,1.04,1.79
26.48879599571228,0.22,0.68,1.04,1.26
26.503685235977173,0.65,-0.2,1.25,1.42
26.50507092475891,0.82,-0.37,1.41,1.67
26.51953411102295,0.8,-0.36,1.02,1.34
26.54765510559082,0.6,-0.23,0.14,0.65
26.548978090286255,0.34,0.0,-0.51,0.61
26.54996418952942,0.38,0.07,-0.35,0.52
26.571221113204956,0.4,0.07,0.07,0.41
26.572149991989136,0.32,0.11,0.66,0.74
26.586955070495605,0.54,-0.11,1.41,1.51
26.588403940200806,0.61,-0.38,1.52,1.68
26.604361057281494,0.51,-0.42,0.8,1.03
26.605825185775757,0.49,-0.34,0.35,0.69
26.61998200416565,0.16,-0.21,0.44,0.51
26.64879012107849,-0.06,-0.1,0.72,0.72
26.65026021003723,-0.15,-0.15,0.7,0.73
26.651239156723022,-0.42,-0.26,0.16,0.51
26.671083211898804,-0.29,-0.24,0.02,0.37
26.67258095741272,0.05,-0.06,0.01,0.07
26.687437057495117,0.24,0.16,0.43,0.51
26.688894987106323,0.32,0.26,0.47,0.62
26.70414900779724,0.32,0.17,-0.05,0.36
26.705477952957153,0.3,0.15,-0.16,0.37
26.7194402217865,0.2,0.32,-0.45,0.58
26.74770998954773,0.04,0.46,-1.08,1.17
26.749117136001587,0.44,0.56,-1.16,1.36
26.750116109848022,0.49,0.53,-0.95,1.19
26.771566152572632,0.24,0.48,-0.69,0.87
26.773075103759766,-0.06,0.25,-0.4,0.47
26.78750491142273,-0.2,0.23,-0.43,0.52
26.788933992385864,-0.24,0.27,-0.39,0.53
26.804503202438354,-0.3,0.2,-0.26,0.44
26.805941104888916,-0.5,0.25,-0.3,0.63
26.819844007492065,-0.58,0.23,-0.4,0.74
26.848488092422485,-0.38,0.14,-0.29,0.49
26.849887132644653,-0.03,0.06,0.06,0.09
26.850856065750122,0.17,-0.01,0.34,0.38
26.87207293510437,0.22,-0.14,0.35,0.43
26.8735249042511,0.05,-0.22,0.23,0.32
26.887394189834595,-0.18,-0.13,0.23,0.31
26.88875102996826,-0.05,-0.07,0.19,0.2
26.904789209365845,0.19,-0.02,0.13,0.23
26.906245946884155,0.44,-0.01,0.09,0.44
26.91836714744568,0.62,-0.08,0.22,0.66
26.947901964187622,0.46,-0.24,0.3,0.59
26.949239015579224,0.11,-0.3,0.22,0.38
26.950253009796143,-0.23,-0.19,0.15,0.33
26.971856117248535,-0.24,0.0,0.06,0.24
26.973249197006226,0.02,0.07,-0.14,0.15
26.987991094589233,0.24,0.05,-0.12,0.27
26.989440202713013,0.59,0.06,0.09,0.59
27.004873037338257,0.62,0.1,0.03,0.62
27.006295919418335,0.09,0.24,-0.21,0.33
27.020239114761353,-0.51,0.39,-0.47,0.79
27.04745888710022,-0.97,0.48,-0.48,1.18
27.04884696006775,-0.88,0.61,-0.11,1.07
27.049823999404907,-0.65,0.49,0.11,0.82
27.05140995979309,-0.59,0.24,-0.1,0.64
27.05278205871582,-0.59,0.08,-0.15,0.61
27.057550191879272,-0.54,0.09,-0.11,0.55
27.067579984664917,-0.39,0.14,-0.3,0.51
27.077574014663696,-0.34,0.21,-0.64,0.75
27.08736801147461,-0.4,0.31,-0.78,0.92
27.09741520881653,-0.56,0.37,-0.85,1.08
27.131526231765747,-0.59,0.32,-0.78,1.02
27.132811069488525,-0.57,0.14,-0.38,0.69
27.133816957473755,-0.63,0.11,0.04,0.64
27.154715061187744,-0.73,0.09,0.19,0.75
27.155778169631958,-0.96,0.16,0.09,0.97
27.17131805419922,-0.93,0.21,-0.17,0.96
27.172799110412598,-0.59,0.31,-0.25,0.71
27.18790102005005,-0.09,0.19,-0.26,0.33
27.189400911331177,0.36,-0.12,-0.2,0.42
27.203466176986694,0.65,-0.29,-0.03,0.71
27.20657706260681,0.59,-0.28,0.22,0.68
27.246597051620483,0.25,-0.08,0.28,0.38
27.247708082199097,-0.09,-0.02,0.04,0.1
27.248818159103394,0.03,-0.04,0.03,0.05
27.251042127609253,0.37,-0.15,0.15,0.42
27.255959033966064,0.36,-0.19,0.06,0.41
27.26608395576477,0.12,-0.23,-0.04,0.26
27.276236057281494,-0.35,-0.34,-0.1,0.49
27.286173105239868,-0.02,-0.07,0.2,0.21
27.29605793952942,0.38,0.24,0.46,0.64
27.305989027023315,-0.03,0.1,0.18,0.2
27.336462020874023,-0.24,0.2,0.16,0.35
27.337637186050415,-0.15,0.52,0.23,0.58
27.338568925857544,-0.15,0.94,0.42,1.04
27.35501790046692,-0.16,1.43,0.57,1.54
27.356024980545044,-0.06,1.61,0.61,1.72
27.371176958084106,-0.06,1.52,0.66,1.65
27.37537908554077,-0.15,1.7,0.42,1.75
27.387733221054077,-0.26,1.77,0.1,1.79
27.395082235336304,-0.09,1.6,-0.06,1.6
27.40523600578308,0.11,1.54,-0.18,1.55
27.437227964401245,0.08,1.5,-0.35,1.54
27.439165115356445,0.02,1.39,-0.54,1.49
27.440185070037842,0.02,1.19,-0.55,1.31
27.45539402961731,0.01,1.07,-0.57,1.21
27.456846952438354,-0.12,1.13,-0.74,1.35
27.471232175827026,-0.26,1.13,-0.92,1.48
27.47458004951477,-0.41,1.11,-0.98,1.53
27.487908124923706,-0.49,0.98,-1.04,1.51
27.494513034820557,-0.33,0.92,-0.96,1.37
27.504212141036987,-0.24,0.81,-0.79,1.15
27.536744117736816,-0.09,0.68,-0.53,0.86
27.538079977035522,0.21,0.69,-0.09,0.72
27.539129972457886,0.04,0.77,0.17,0.78
27.555155992507935,-0.33,0.64,-0.01,0.72
27.55621314048767,-0.66,0.58,-0.08,0.88
27.57167410850525,-0.93,0.55,-0.17,1.09
27.573748111724854,-1.02,0.53,-0.32,1.19
27.58771014213562,-1.11,0.87,-0.15,1.41
27.593655109405518,-1.37,1.31,0.2,1.9
27.603960037231445,-1.45,1.71,0.23,2.25
27.640950918197632,-0.95,1.52,-0.13,1.79
27.64224410057068,0.66,1.44,-0.14,1.59
27.64323592185974,2.41,1.61,-0.65,2.97
27.655131101608276,2.34,0.98,-2.23,3.37
27.65619206428528,0.88,-0.04,-4.02,4.11
27.67101216316223,-1.48,-2.2,-4.42,5.15
27.672988176345825,-3.23,-3.7,-3.34,5.93
27.687094926834106,-2.53,-1.67,-1.6,3.42
27.692925214767456,-2.71,-1.15,-1.59,3.34
27.703605890274048,-4.31,-2.2,-2.92,5.65
27.73917508125305,-5.78,-2.4,-3.58,7.21
27.740526914596558,-5.91,-1.84,-3.09,6.91
27.741652011871338,-4.75,-1.39,-2.26,5.44
27.754926919937134,-3.4,-1.24,-1.78,4.03
27.75595211982727,-2.73,-0.76,-1.65,3.27
27.771534204483032,-2.85,0.06,-1.86,3.4
27.773024082183838,-3.29,0.73,-2.13,3.98
27.78795599937439,-3.46,0.82,-1.96,4.06
27.792173147201538,-3.22,0.6,-1.35,3.54
27.803640127182007,-3.01,0.53,-0.53,3.1
27.837884187698364,-3.15,0.56,0.11,3.2
27.83920407295227,-3.68,0.63,0.47,3.76
27.840200185775757,-4.01,0.78,0.62,4.13
27.85620093345642,-3.76,0.96,0.72,3.94
27.85772204399109,-3.12,1.01,0.83,3.38
27.87169098854065,-2.61,0.96,0.95,2.93
27.873160123825073,-2.4,1.01,0.92,2.76
27.88803791999817,-2.24,0.94,0.77,2.54
27.891504049301147,-1.99,0.64,0.68,2.19
27.903713941574097,-1.7,0.51,0.54,1.85
27.940009117126465,-1.37,0.51,0.28,1.48
27.94129204750061,-1.19,0.39,0.05,1.25
27.942323923110962,-1.14,0.2,-0.07,1.15
27.955214023590088,-1.01,-0.06,-0.08,1.01
27.956223011016846,-0.62,-0.32,0.06,0.7
27.97161889076233,-0.07,-0.6,0.21,0.63
27.973066091537476,0.33,-0.66,0.21,0.76
27.98810911178589,0.44,-0.42,0.16,0.62
27.990644216537476,0.31,-0.19,0.14,0.38
28.003591060638428,0.18,0.0,0.27,0.32
28.01055407524109,0.22,0.24,0.61,0.69
28.048429012298584,0.33,0.51,1.18,1.32
28.049572229385376,0.42,0.81,1.62,1.85
28.0505530834198,0.66,1.1,1.83,2.23
28.072290182113647,1.21,1.35,2.02,2.71
28.073797941207886,1.99,1.46,2.19,3.29
28.088054895401,2.61,1.49,2.15,3.69
28.08952498435974,3.03,1.62,1.94,3.94
28.105231046676636,3.49,1.7,1.71,4.24
28.106690168380737,4.01,1.51,1.54,4.55
28.120558977127075,4.47,1.27,1.4,4.85
28.148436069488525,4.86,1.01,1.35,5.14
28.149769067764282,5.2,0.65,1.44,5.43
28.150758981704712,5.46,0.18,1.54,5.67
28.171998023986816,5.63,-0.28,1.61,5.86
28.173249006271362,5.68,-0.62,1.61,5.93
28.188253164291382,5.83,-0.81,1.59,6.09
28.189687967300415,6.25,-1.09,1.6,6.54
28.205008029937744,6.33,-1.62,1.54,6.71
28.2065110206604,5.66,-1.86,1.48,6.13
28.220545053482056,4.82,-2.07,1.47,5.44
28.248218059539795,4.09,-2.41,1.43,4.95
28.24954915046692,2.49,-1.04,1.04,2.89
28.250516176223755,2.6,-0.68,0.6,2.75
28.272016048431396,4.96,-0.23,1.27,5.12
28.273085117340088,6.34,1.09,2.58,6.93
28.288379907608032,6.44,2.03,2.88,7.34
28.289861917495728,4.73,2.24,2.27,5.7
28.305268049240112,1.9,2.55,1.68,3.59
28.306756019592285,-1.5,2.14,0.89,2.76
28.320590019226074,-3.49,1.12,0.4,3.68
28.349249124526978,-3.19,0.08,0.15,3.19
28.350723028182983,-1.75,-0.34,0.4,1.82
28.351707220077515,-0.14,-0.64,1.29,1.44
28.372256994247437,2.2,-0.48,2.46,3.33
28.373675107955933,3.54,0.35,2.46,4.32
28.388132095336914,2.7,0.11,1.32,3.0
28.38958191871643,1.48,-0.52,0.37,1.61
28.40523409843445,0.83,-0.36,0.0,0.9
28.40671420097351,0.32,-0.09,-0.14,0.36
28.420387029647827,0.12,0.13,-0.08,0.19
28.449687242507935,0.24,0.23,0.21,0.39
28.450985193252563,0.26,0.12,0.22,0.36
28.451953172683716,0.19,0.05,0.05,0.2
28.472399950027466,0.03,0.09,0.19,0.21
28.473870038986206,0.2,0.12,0.29,0.37
28.487436056137085,0.62,0.09,0.31,0.69
28.488919973373413,0.67,0.02,0.07,0.67
28.505561113357544,0.56,-0.05,-0.02,0.56
28.506983041763306,0.71,-0.11,0.3,0.77
28.519991159439087,0.88,-0.09,0.86,1.23
28.547811031341553,0.58,-0.03,1.2,1.33
28.54918122291565,0.09,-0.1,0.96,0.96
28.55018711090088,-0.04,-0.03,0.72,0.72
28.55250906944275,-0.09,-0.01,0.71,0.71
28.556080102920532,-0.2,0.02,0.61,0.64
28.56614089012146,-0.24,-0.1,0.19,0.32
28.576457023620605,-0.06,-0.07,-0.16,0.18
28.586539030075073,0.01,-0.01,-0.22,0.22
28.59617304801941,-0.06,0.0,-0.32,0.32
28.606137990951538,-0.26,0.12,-0.48,0.55
28.642951011657715,-0.45,0.27,-0.49,0.71
28.64411211013794,-0.52,0.37,-0.46,0.78
28.645135164260864,-0.58,0.42,-0.53,0.89
28.65561318397522,-0.78,0.4,-0.5,1.0
28.656618118286133,-0.89,0.36,-0.51,1.08
28.671911001205444,-0.58,0.35,-0.46,0.81
28.675586938858032,-0.07,0.22,-0.35,0.41
28.68850302696228,0.24,0.12,-0.4,0.48
28.69557023048401,0.56,0.1,-0.22,0.6
28.705268144607544,0.82,0.05,0.08,0.82
28.74146294593811,0.77,0.02,0.19,0.79
28.74276304244995,0.59,0.03,0.4,0.71
28.743738889694214,0.36,0.01,0.48,0.6
28.751725912094116,0.05,-0.04,0.44,0.44
28.75438618659973,-0.09,0.0,0.28,0.29
28.76775097846985,0.02,0.09,0.0,0.09
28.774492979049683,0.24,0.2,0.08,0.32
28.788703203201294,0.27,0.04,0.03,0.27
28.794608116149902,-0.02,-0.04,-0.01,0.04
28.804553031921387,-0.26,0.02,-0.09,0.27
28.81439709663391,-0.27,0.03,-0.15,0.31
28.846511125564575,-0.28,0.15,-0.12,0.33
28.847727060317993,-0.32,0.24,-0.25,0.47
28.8489990234375,-0.38,0.23,-0.29,0.53
28.85395312309265,-0.43,0.17,-0.2,0.5
28.872348070144653,-0.45,0.04,-0.14,0.47
28.87396812438965,-0.36,-0.02,-0.11,0.37
28.888557195663452,-0.26,-0.06,-0.17,0.31
28.89392113685608,-0.02,0.01,-0.13,0.13
28.904231071472168,0.22,0.04,0.02,0.22
28.914114236831665,0.34,0.03,0.05,0.34
28.944683074951172,0.3,0.09,-0.14,0.34
28.945729970932007,0.26,0.12,-0.31,0.42
28.946980237960815,0.15,0.15,-0.35,0.4
28.953124046325684,-0.07,0.19,-0.29,0.35
28.963189125061035,-0.27,0.19,-0.23,0.4
28.973268032073975,-0.5,0.12,-0.15,0.53
28.98336911201477,-0.57,0.09,0.06,0.58
28.99313521385193,-0.46,0.01,0.29,0.54
29.003268003463745,-0.23,-0.13,0.34,0.43
29.013175010681152,-0.01,-0.36,0.26,0.44
29.04392123222351,-0.05,-0.42,0.11,0.43
29.04524803161621,-0.24,-0.45,0.07,0.51
29.046324014663696,-0.78,-0.54,-0.14,0.95
29.05249309539795,-1.61,-0.42,-0.14,1.66
29.062504053115845,-2.08,0.11,-0.17,2.08
29.07255506515503,-1.82,0.66,-0.4,1.97
29.08249807357788,-1.41,0.94,-0.33,1.72
29.092380046844482,-0.93,0.88,-0.42,1.34
29.102480173110962,-0.67,0.65,-0.81,1.23
29.112306118011475,-0.72,0.43,-1.22,1.48
29.145467042922974,-0.54,0.17,-1.16,1.29
29.146748065948486,-0.04,-0.09,-0.47,0.48
29.147780179977417,0.29,-0.12,0.22,0.38
29.15144109725952,0.33,-0.02,0.47,0.57
29.17235016822815,0.37,-0.01,0.44,0.57
29.17366099357605,0.36,-0.1,0.53,0.64
29.18866991996765,0.29,-0.16,0.59,0.67
29.19171404838562,0.4,-0.41,0.55,0.79
29.20408797264099,0.38,-0.33,0.26,0.56
29.21137309074402,0.18,-0.12,-0.19,0.28
29.247236013412476,0.65,0.09,0.06,0.65
29.24838900566101,1.19,0.19,0.38,1.26
29.249651193618774,1.15,0.18,0.14,1.17
29.251720190048218,0.89,0.27,-0.36,0.99
29.261056184768677,0.44,0.42,-0.7,0.92
29.27101707458496,0.57,0.71,-0.68,1.13
29.281196117401123,0.32,0.8,-0.53,1.01
29.29119110107422,0.02,0.83,-0.18,0.84
29.301007986068726,-0.13,1.01,0.34,1.07
29.310594081878662,-0.3,1.49,0.74,1.69
29.347100019454956,-0.46,1.42,0.69,1.64
29.348336935043335,-0.15,1.47,0.67,1.62
29.349316120147705,0.13,1.46,0.78,1.66
29.351577043533325,0.17,1.48,0.63,1.61
29.360296964645386,0.17,1.74,0.63,1.85
29.370500087738037,0.3,1.82,0.74,1.98
29.380467176437378,0.36,1.76,0.69,1.92
29.39038109779358,0.57,1.94,0.56,2.09
29.400233030319214,0.55,2.1,0.49,2.22
29.410101175308228,0.26,2.06,0.27,2.09
29.44701910018921,-0.24,1.93,-0.08,1.94
29.448403120040894,-0.79,1.81,-0.2,1.98
29.449345111846924,-1.17,1.64,-0.3,2.03
29.4515380859375,-1.37,1.58,-0.67,2.19
29.472418069839478,-1.67,1.38,-1.13,2.44
29.47389817237854,-1.84,1.22,-1.39,2.6
29.48880910873413,-1.72,1.31,-1.7,2.75
29.490312099456787,-1.43,1.63,-1.99,2.94
29.50454807281494,-1.15,1.83,-2.12,3.02
29.509059190750122,-0.97,1.03,-2.14,2.56
29.549576997756958,-0.66,0.25,-1.82,1.95
29.55074906349182,-0.15,0.79,-1.37,1.58
29.551727056503296,1.02,1.73,-0.84,2.17
29.573289155960083,1.85,1.89,-0.97,2.81
29.57480812072754,0.87,0.27,-1.51,1.76
29.588802099227905,-0.23,-1.27,-2.1,2.46
29.590337991714478,-1.8,-2.98,-2.71,4.41
29.605746030807495,-4.19,-4.79,-3.13,7.09
29.60722517967224,-4.88,-3.84,-2.45,6.67
29.620939016342163,-3.43,-2.02,-1.11,4.13
29.622437238693237,-4.15,-2.31,-1.29,4.92
29.677016019821167,-5.87,-2.26,-1.88,6.56
29.678189039230347,-6.68,-1.5,-1.83,7.08
29.6791889667511,-5.83,-0.45,-1.43,6.01
29.689605951309204,-4.34,-0.14,-1.15,4.49
29.69112205505371,-3.39,-0.3,-0.85,3.5
29.705745935440063,-3.11,-0.2,-0.63,3.17
29.707228899002075,-3.23,0.25,-0.45,3.27
29.722387075424194,-3.42,0.62,-0.12,3.47
29.723860025405884,-3.54,0.83,0.41,3.65
29.73660397529602,-3.48,1.01,1.08,3.78
29.763918161392212,-3.22,1.15,1.58,3.76
29.765300989151,-2.89,1.2,1.64,3.53
29.766350030899048,-2.61,1.33,1.45,3.26
29.768676042556763,-2.3,1.33,1.31,2.96
29.76992392539978,-1.86,1.14,1.18,2.48
29.77718710899353,-1.32,0.96,0.98,1.9
29.78709602355957,-0.93,0.81,0.81,1.47
29.79720902442932,-0.7,0.73,0.6,1.17
29.807331085205078,-0.47,0.62,0.18,0.79
29.81705117225647,-0.16,0.53,-0.36,0.66
29.846328020095825,0.23,0.45,-0.84,0.98
29.847528219223022,0.61,0.42,-1.15,1.36
29.84872794151306,0.79,0.49,-1.21,1.52
29.85636019706726,0.73,0.67,-1.08,1.46
29.872291088104248,0.42,0.78,-0.86,1.23
29.876275062561035,-0.1,0.64,-0.49,0.81
29.88956093788147,-0.69,0.42,0.0,0.8
29.896584033966064,-1.18,0.26,0.49,1.3
29.906141996383667,-1.52,0.16,0.78,1.71
29.916226148605347,-1.63,0.05,0.97,1.89
29.94681191444397,-1.37,-0.23,0.94,1.67
29.948023080825806,-1.01,-0.46,0.89,1.42
29.949296236038208,-0.77,-0.52,0.9,1.29
29.955631017684937,-0.5,-0.42,0.98,1.17
29.972783088684082,-0.15,-0.39,0.99,1.07
29.975425958633423,0.21,-0.45,0.93,1.05
29.988028049468994,0.52,-0.44,0.87,1.1
29.995638132095337,0.77,-0.41,0.84,1.21
30.005358934402466,1.02,-0.3,0.99,1.45
30.015363931655884,1.43,-0.14,1.05,1.77
30.051889181137085,1.89,0.1,1.0,2.14
30.053137063980103,2.28,0.38,0.83,2.45
30.054208993911743,2.57,0.4,0.82,2.72
30.073662996292114,2.95,0.74,1.18,3.26
30.07516121864319,3.78,1.1,1.34,4.15
30.088719129562378,4.88,0.98,1.29,5.14
