time,ax,ay,az,atotal
0.025712966918945312,0.88,-0.02,-0.52,1.02
0.026649951934814453,0.0,0.11,-0.26,0.28
0.027287006378173828,-0.03,-0.04,-0.05,0.07
0.030230998992919922,-0.02,0.04,-0.36,0.36
0.04027509689331055,-0.17,0.05,-0.54,0.56
0.050549983978271484,-0.14,0.07,-0.41,0.43
0.06022310256958008,0.02,0.04,-0.18,0.18
0.07023096084594727,0.1,-0.02,0.11,0.15
0.08025789260864258,-0.08,-0.05,0.32,0.33
0.09025192260742188,-0.22,-0.04,0.35,0.41
0.1229701042175293,-0.21,-0.05,0.35,0.41
0.12358713150024414,-0.11,-0.06,0.25,0.27
0.12421393394470215,0.1,-0.04,0.2,0.22
0.13015985488891602,0.22,-0.03,0.07,0.23
0.14010906219482422,0.15,-0.02,-0.09,0.17
0.15058088302612305,0.14,0.03,-0.12,0.18
0.1600940227508545,0.22,0.03,-0.21,0.3
0.17014789581298828,0.25,0.05,-0.2,0.32
0.18014907836914062,0.15,0.03,-0.14,0.2
0.19025802612304688,0.1,0.02,-0.01,0.1
0.20020484924316406,0.15,-0.06,0.15,0.22
0.22606301307678223,-0.01,-0.07,0.18,0.19
0.2267169952392578,-0.16,-0.03,0.12,0.2
0.23005390167236328,-0.15,-0.01,0.08,0.17
0.23992681503295898,-0.15,-0.01,0.04,0.15
0.2499690055847168,-0.03,-0.03,0.1,0.1
0.2598891258239746,0.19,-0.02,0.2,0.27
0.2700769901275635,0.17,-0.01,0.08,0.18
0.2800419330596924,-0.28,-0.01,-0.09,0.29
0.29004502296447754,-0.52,0.0,-0.18,0.55
0.2999589443206787,-0.34,0.0,-0.2,0.39
0.32482194900512695,-0.14,0.02,-0.19,0.23
0.32581186294555664,-0.03,-0.01,-0.15,0.15
0.3298349380493164,-0.13,-0.04,-0.01,0.13
0.33989691734313965,-0.41,-0.05,0.11,0.42
0.3498420715332031,-0.54,-0.04,0.29,0.61
0.35976099967956543,-0.4,-0.02,0.35,0.53
0.3698410987854004,-0.17,0.0,0.13,0.21
0.3798561096191406,0.16,-0.02,0.04,0.16
0.3898749351501465,0.39,-0.01,0.15,0.41
0.3998098373413086,0.38,-0.03,0.33,0.5
0.4239468574523926,-0.01,-0.05,0.25,0.25
0.42507100105285645,-0.31,-0.07,0.08,0.32
0.4296889305114746,-0.41,-0.02,0.07,0.41
0.4397311210632324,-0.53,-0.04,0.23,0.57
0.449613094329834,-0.57,-0.07,0.42,0.71
0.45952892303466797,-0.39,-0.09,0.44,0.59
0.4696841239929199,-0.2,-0.11,0.51,0.55
0.47971105575561523,-0.45,-0.07,0.35,0.57
0.4897589683532715,-0.69,-0.1,0.1,0.7
0.49969482421875,-0.68,-0.09,0.07,0.68
0.5240678787231445,-0.49,-0.06,0.07,0.49
0.525148868560791,-0.22,-0.03,0.17,0.27
0.5296459197998047,-0.09,-0.07,0.23,0.25
0.5395619869232178,-0.07,-0.07,0.25,0.26
0.5494909286499023,-0.14,-0.09,0.3,0.34
0.5594949722290039,0.04,-0.08,0.39,0.4
0.5695879459381104,0.2,-0.1,0.44,0.49
0.5794768333435059,0.32,-0.1,0.29,0.44
0.5895709991455078,0.42,-0.14,0.22,0.49
0.5995209217071533,0.5,-0.08,0.19,0.54
0.6252419948577881,0.73,0.1,0.14,0.74
0.6258699893951416,0.61,-0.02,0.2,0.64
0.629431962966919,0.29,-0.22,0.39,0.53
0.6394548416137695,0.17,-0.07,0.22,0.28
0.6493778228759766,0.35,-0.06,-0.13,0.37
0.6594400405883789,0.52,-0.04,-0.22,0.56
0.669489860534668,0.36,-0.06,0.14,0.39
0.6794137954711914,0.02,-0.13,0.57,0.58
0.6894500255584717,-0.13,-0.16,0.72,0.74
0.6994180679321289,-0.42,-0.08,1.0,1.08
0.7258920669555664,-0.47,-0.12,0.62,0.78
0.7265310287475586,0.4,-0.32,0.33,0.6
0.7293119430541992,1.63,-0.16,0.75,1.8
0.7393341064453125,2.57,-0.23,1.0,2.76
0.7492380142211914,3.56,-0.37,0.81,3.66
0.759253978729248,3.98,-0.16,0.24,3.99
0.7693538665771484,3.31,0.52,-1.0,3.49
0.7791991233825684,2.05,0.27,-2.2,3.01
0.7893328666687012,0.92,0.18,-1.58,1.83
0.7992711067199707,0.5,0.28,-0.85,1.02
0.8264429569244385,0.39,0.26,-1.3,1.38
0.8270788192749023,0.52,-0.01,-1.04,1.16
0.8291430473327637,-0.08,-0.39,0.19,0.44
0.8392069339752197,-1.21,0.12,0.91,1.51
0.8491179943084717,-1.41,0.28,0.96,1.72
0.8592629432678223,-1.55,-0.03,0.8,1.74
0.8691320419311523,-1.79,-0.14,0.22,1.8
0.8792500495910645,-1.54,-0.11,0.03,1.54
0.8891558647155762,-1.74,-0.14,-0.3,1.77
0.8991639614105225,-1.96,-0.39,-0.42,2.04
0.9261860847473145,-1.46,-0.08,-0.56,1.56
0.9268209934234619,-0.33,0.28,-0.39,0.58
0.9289999008178711,0.12,0.21,-0.52,0.57
0.9391388893127441,-0.31,0.06,-0.66,0.73
0.9489750862121582,-0.6,-0.08,-0.51,0.79
0.9589879512786865,0.17,-0.11,0.05,0.2
0.968998908996582,0.59,-0.19,-0.39,0.73
0.9789681434631348,0.13,-0.3,-0.75,0.81
0.9890499114990234,-0.45,-0.28,-0.58,0.78
0.9989471435546875,-0.92,-0.16,-0.77,1.21
1.0268230438232422,-0.7,-0.01,-0.45,0.83
1.0274558067321777,0.0,-0.04,0.21,0.21
1.0288500785827637,0.49,-0.05,0.72,0.87
1.0388820171356201,0.57,0.01,0.81,0.99
1.0488381385803223,0.3,0.03,0.25,0.39
1.0588219165802002,-0.05,-0.22,-0.53,0.57
1.0687580108642578,-0.26,-0.46,-0.65,0.83
1.0788540840148926,-0.47,-0.36,-0.71,0.92
1.0889267921447754,-0.21,-0.08,-0.73,0.76
1.0987567901611328,0.93,0.09,0.03,0.93
1.1270790100097656,1.58,0.45,-0.37,1.68
1.1277198791503906,1.2,0.44,0.07,1.28
1.1286640167236328,0.0,0.12,0.05,0.13
1.138780117034912,-0.69,0.25,-0.23,0.76
1.1486749649047852,-0.62,0.13,0.51,0.81
1.1586661338806152,-0.4,0.08,0.18,0.44
1.1685709953308105,-0.3,-0.07,-0.06,0.31
1.1786909103393555,-0.06,-0.04,0.2,0.21
1.188727855682373,-0.19,-0.03,0.29,0.34
1.1986949443817139,-0.1,0.09,0.32,0.34
1.2265880107879639,0.61,0.23,0.26,0.7
1.2271859645843506,0.8,0.48,0.0,0.93
1.2284839153289795,0.51,0.44,-0.18,0.69
1.2386729717254639,0.19,0.01,-0.48,0.51
1.248490810394287,0.0,-0.07,-0.39,0.39
1.2585201263427734,-0.19,-0.1,-0.21,0.3
1.268522024154663,-0.27,0.04,-0.24,0.36
1.2785320281982422,-0.27,0.06,-0.46,0.53
1.2886319160461426,-0.65,-0.2,-0.61,0.91
1.2985379695892334,-0.88,-0.53,0.01,1.02
1.3260669708251953,-0.72,-0.64,0.37,1.03
1.326664924621582,-0.56,-0.34,-0.16,0.67
1.3283710479736328,-0.32,-0.05,-0.5,0.59
1.3384509086608887,-0.12,0.09,-0.3,0.33
1.348371982574463,0.08,0.1,-0.1,0.16
1.3583908081054688,0.27,0.18,0.21,0.38
1.3683390617370605,0.26,0.26,0.24,0.43
1.378431797027588,0.3,0.25,0.14,0.41
1.3884449005126953,0.54,0.11,-0.06,0.55
1.3983399868011475,0.53,0.05,-0.4,0.66
1.4272549152374268,0.4,0.04,-0.61,0.73
1.4278709888458252,0.25,-0.06,-0.75,0.79
1.428441047668457,-0.05,-0.18,-0.47,0.5
1.4383831024169922,-0.39,-0.2,-0.28,0.52
1.448275089263916,-0.25,-0.05,-0.48,0.54
1.458305835723877,0.04,0.09,-0.37,0.38
1.4684090614318848,0.41,0.24,-0.48,0.67
1.478212833404541,1.17,0.6,-0.61,1.44
1.4883041381835938,1.94,1.08,-0.71,2.33
1.498194932937622,2.69,1.68,-1.05,3.34
1.5271120071411133,3.29,2.23,-1.05,4.11
1.5276899337768555,3.51,2.23,-0.48,4.18
1.5282340049743652,3.09,1.83,-0.11,3.59
1.5381479263305664,3.46,3.47,0.31,4.91
1.548058032989502,4.86,4.59,1.13,6.77
1.5579910278320312,5.6,4.89,1.05,7.5
1.5683269500732422,5.65,5.35,0.78,7.82
1.578035831451416,5.76,5.21,0.67,7.79
1.588197946548462,5.56,5.05,0.47,7.52
1.59818696975708,4.86,5.3,-0.07,7.19
1.6257829666137695,3.95,5.67,-1.02,6.98
1.6263699531555176,3.18,6.03,-1.84,7.06
1.628026008605957,2.63,6.16,-2.31,7.08
1.6380729675292969,2.25,5.99,-2.49,6.86
1.6479558944702148,2.39,5.63,-2.32,6.54
1.6579480171203613,2.7,5.07,-1.94,6.06
1.667952060699463,1.35,3.86,-1.04,4.21
1.6779589653015137,-2.22,5.42,-1.37,6.01
1.6880309581756592,0.12,4.9,-3.17,5.83
1.698011875152588,4.29,1.56,-1.81,4.91
1.7271809577941895,5.67,-0.28,0.41,5.69
1.7278449535369873,1.44,-0.24,2.56,2.94
1.7284729480743408,-0.55,0.5,0.55,0.92
1.7379209995269775,3.21,0.57,-1.49,3.58
1.747879981994629,6.38,0.41,-0.23,6.39
1.7577970027923584,7.05,-0.62,1.23,7.18
1.7677149772644043,5.92,-1.74,1.63,6.38
1.7777059078216553,4.6,-2.39,1.26,5.33
1.787930965423584,3.8,-2.62,0.89,4.7
1.7978589534759521,3.62,-2.54,0.68,4.47
1.827868938446045,3.61,-2.6,0.64,4.49
1.8284540176391602,3.54,-2.98,0.81,4.69
1.8290247917175293,3.49,-3.35,0.92,4.92
1.837782859802246,3.45,-3.55,0.99,5.04
1.8476829528808594,3.39,-3.61,1.07,5.06
1.8577079772949219,3.4,-3.45,1.11,4.96
1.867764949798584,3.51,-2.98,1.0,4.71
1.8777120113372803,3.59,-2.61,0.77,4.5
1.8876399993896484,3.53,-2.51,0.58,4.37
1.8976998329162598,3.25,-2.42,0.44,4.07
1.9262161254882812,2.92,-2.33,0.44,3.76
1.9267878532409668,2.62,-2.15,0.45,3.41
1.9274449348449707,2.21,-1.84,0.27,2.88
1.9374217987060547,1.75,-1.55,-0.15,2.34
1.9473390579223633,1.42,-1.1,-0.8,1.96
1.9573249816894531,1.26,-0.66,-1.3,1.92
1.9674878120422363,1.17,-0.41,-1.49,1.93
1.9774739742279053,1.1,-0.17,-1.78,2.09
1.9873008728027344,1.3,0.4,-2.07,2.47
1.997389793395996,-0.28,0.92,-2.19,2.39
2.0260090827941895,-2.33,0.98,-2.61,3.63
2.0266427993774414,-4.11,1.1,-3.01,5.21
2.02730393409729,-5.68,0.88,-3.26,6.6
2.037348985671997,-7.02,0.62,-3.32,7.79
2.047334909439087,-8.12,0.31,-3.23,8.74
2.0574560165405273,-8.94,0.01,-3.15,9.47
2.067258834838867,-9.43,-0.46,-3.16,9.95
2.0771899223327637,-9.61,-0.83,-2.89,10.06
2.087347984313965,-9.21,-0.86,-2.62,9.61
2.0973029136657715,-8.72,1.7,-2.85,9.33
2.1262710094451904,-6.42,4.53,-4.3,8.95
2.1269259452819824,-8.03,0.41,-2.38,8.38
2.1275501251220703,-12.5,-1.05,0.5,12.55
2.137244939804077,-13.76,0.91,2.3,13.98
2.14719295501709,-10.54,6.83,5.22,13.6
2.157186985015869,-4.8,19.76,9.78,22.56
2.167165994644165,-3.61,10.66,6.18,12.83
2.177225112915039,4.61,1.41,4.67,6.71
2.1871910095214844,7.43,-4.54,2.96,9.19
2.197180986404419,5.03,-6.26,1.97,8.26
2.2272300720214844,2.01,-2.77,0.53,3.46
2.2279279232025146,-2.56,-0.47,-0.89,2.75
2.2286059856414795,-6.95,1.19,-2.36,7.43
2.2370669841766357,-10.43,2.38,-1.79,10.84
2.247067928314209,-11.46,0.95,-0.81,11.52
2.257101058959961,-7.81,-1.34,0.15,7.92
2.2670698165893555,-3.42,-0.55,0.89,3.57
2.2769761085510254,-0.85,-0.13,1.16,1.44
2.2872090339660645,0.68,-0.05,1.56,1.7
2.2970848083496094,1.34,-0.04,1.8,2.24
2.327126979827881,1.41,-0.13,1.25,1.88
2.3277640342712402,1.15,-0.24,0.02,1.17
2.328406810760498,0.62,0.03,-1.58,1.69
2.337023973464966,0.2,0.24,-2.44,2.45
2.346951961517334,0.2,0.18,-2.55,2.56
2.356966018676758,0.44,0.19,-2.75,2.79
2.366950035095215,0.78,0.13,-2.54,2.66
2.377007007598877,0.74,-0.03,-1.41,1.59
2.387028932571411,0.35,0.19,-0.62,0.73
2.396944999694824,0.18,0.19,0.22,0.34
2.4266347885131836,0.17,0.09,0.48,0.51
2.4272708892822266,0.3,0.16,0.31,0.46
2.427886962890625,0.36,0.03,0.54,0.64
2.436738967895508,0.29,0.01,0.22,0.36
2.446803092956543,0.35,0.09,-0.5,0.61
2.456857919692993,0.29,-0.03,-0.44,0.52
2.466792106628418,0.04,-0.07,-0.66,0.66
2.4768218994140625,-0.17,0.08,-1.07,1.08
2.486814022064209,-0.29,0.1,-0.98,1.02
2.496814012527466,-0.2,0.02,-0.67,0.69
2.52602481842041,0.01,-0.06,-0.27,0.27
2.5266759395599365,0.51,0.05,-0.08,0.51
2.5272979736328125,1.04,0.07,0.46,1.13
2.536639928817749,1.38,0.09,0.7,1.54
2.5466699600219727,1.66,0.11,0.68,1.79
2.5566658973693848,1.81,-0.01,0.64,1.91
2.566679000854492,1.41,0.07,-0.04,1.41
2.5767178535461426,1.21,0.11,-0.03,1.21
2.586635112762451,1.52,-0.07,-0.02,1.52
2.5967187881469727,1.66,-0.1,-0.13,1.66
2.6261210441589355,1.59,0.21,-0.07,1.6
2.626755952835083,1.77,0.27,-0.1,1.79
2.6273751258850098,2.08,0.11,-0.27,2.1
2.6363749504089355,1.82,0.11,-0.18,1.83
2.6464900970458984,1.62,0.33,0.04,1.65
2.6565370559692383,1.42,0.42,0.09,1.48
2.6665120124816895,1.35,0.49,-0.1,1.43
2.6765971183776855,1.9,0.6,-0.49,2.05
2.68648099899292,2.62,0.53,-0.72,2.76
2.696560859680176,3.01,0.8,-0.58,3.16
2.7270607948303223,3.08,1.77,-0.82,3.64
2.7277088165283203,3.18,2.22,-0.5,3.91
2.728332996368408,3.14,3.76,-0.07,4.89
2.7362608909606934,3.37,5.69,0.13,6.61
2.746403932571411,4.26,6.01,0.25,7.37
2.7564101219177246,4.59,5.96,0.42,7.53
2.7663469314575195,4.43,6.36,0.09,7.75
2.776343822479248,4.37,7.09,-0.11,8.32
2.786342144012451,4.71,7.58,0.05,8.92
2.7963650226593018,5.18,7.45,-0.06,9.07
2.827681064605713,5.33,7.0,-0.3,8.8
2.8283238410949707,5.0,6.12,-0.26,7.9
2.8289589881896973,4.38,5.87,-0.44,7.33
2.836345911026001,4.37,8.05,-0.89,9.2
2.846254825592041,4.31,10.81,-2.43,11.88
2.856243133544922,2.88,11.31,-2.22,11.88
2.8662149906158447,0.78,9.7,-1.44,9.83
2.8762688636779785,2.74,9.83,-4.67,11.22
2.8864798545837402,5.9,8.05,-3.86,10.7
2.8962299823760986,7.33,5.81,-0.93,9.39
2.927940845489502,7.81,4.37,1.35,9.05
2.928586006164551,0.89,1.73,2.0,2.79
2.9292259216308594,-4.33,0.15,-1.58,4.61
2.9362568855285645,0.1,1.51,-3.31,3.63
2.946174144744873,5.04,1.42,-1.05,5.34
2.9560937881469727,7.42,0.28,0.53,7.44
2.9661178588867188,7.74,-0.95,1.54,7.94
2.976058006286621,6.61,-2.46,2.09,7.35
2.986525058746338,5.16,-3.86,2.01,6.75
2.996065139770508,4.13,-4.4,1.58,6.23
3.0275979042053223,3.48,-4.5,1.22,5.81
3.028237819671631,3.08,-4.64,1.02,5.66
3.0288710594177246,3.0,-4.83,1.0,5.77
3.036360025405884,3.15,-5.08,1.29,6.11
3.0458898544311523,3.42,-5.25,1.6,6.46
3.0560860633850098,3.63,-5.36,1.79,6.71
3.065920829772949,3.75,-5.34,1.77,6.76
3.0759479999542236,3.75,-5.33,1.78,6.75
3.0863170623779297,3.86,-5.37,1.82,6.85
3.095902919769287,4.08,-5.32,1.93,6.97
3.1268539428710938,4.38,-5.27,2.2,7.19
3.1275157928466797,4.74,-5.24,2.4,7.46
3.128154993057251,4.9,-4.98,2.41,7.39
3.1357641220092773,4.54,-4.61,2.3,6.86
3.145817995071411,3.65,-4.41,2.38,6.19
3.1558079719543457,2.69,-3.94,2.59,5.42
3.16572904586792,1.4,-3.43,2.56,4.5
3.1756958961486816,0.11,-2.96,2.07,3.61
3.1857409477233887,-0.62,-2.22,0.94,2.48
3.195791006088257,-0.97,-0.9,-0.15,1.33
3.227327823638916,-1.71,0.71,-1.27,2.24
3.22810697555542,-3.49,2.16,-2.55,4.83
3.2287421226501465,-5.83,3.27,-3.57,7.57
3.235644817352295,-8.08,3.78,-4.47,9.97
3.2456839084625244,-10.22,3.14,-4.79,11.71
3.255713939666748,-11.37,1.82,-4.61,12.4
3.265622138977051,-11.37,0.89,-4.59,12.29
3.275662899017334,-10.73,0.47,-4.67,11.71
3.2855629920959473,-10.31,1.48,-4.42,11.31
3.295644998550415,-6.34,7.99,-6.45,12.06
3.3269379138946533,-4.43,3.71,-4.09,7.07
3.327579975128174,-10.36,6.43,0.11,12.19
3.32820200920105,-19.47,12.5,0.28,23.13
3.3358099460601807,-20.22,15.22,-6.04,26.01
3.3455820083618164,-8.27,9.26,-1.27,12.48
3.355739116668701,2.99,2.57,3.87,5.52
3.3654990196228027,5.42,-5.44,4.45,8.87
3.375514030456543,-4.82,-8.48,2.27,10.01
3.3855140209198,-10.28,-4.16,-0.57,11.1
3.395526885986328,-9.46,0.65,-2.36,9.77
3.427241802215576,-6.55,3.77,-0.34,7.56
3.4278740882873535,-4.41,1.99,0.57,4.87
3.4284729957580566,-2.74,-0.4,-0.11,2.77
3.4353339672088623,-1.82,-0.49,-0.97,2.11
3.4453089237213135,-0.98,0.37,-1.1,1.51
3.4553580284118652,-0.39,0.56,-1.04,1.24
3.4654479026794434,0.06,0.53,-1.15,1.26
3.4754819869995117,0.44,0.23,-0.83,0.96
3.4853599071502686,0.7,-0.1,-1.52,1.67
3.4953830242156982,1.03,-0.15,-2.44,2.65
3.5276718139648438,1.27,-0.2,-2.36,2.68
3.5283098220825195,0.96,0.04,-2.02,2.23
3.5289249420166016,0.41,0.23,-1.37,1.44
3.5351970195770264,0.12,0.17,-0.51,0.55
3.545231819152832,0.25,0.23,0.16,0.37
3.555398941040039,0.43,0.2,0.71,0.85
3.565189838409424,0.32,0.07,1.28,1.32
3.5752511024475098,-0.04,0.02,1.29,1.29
3.5852339267730713,-0.08,0.03,0.76,0.76
3.595228910446167,0.07,-0.01,0.08,0.1
3.628826141357422,0.06,0.06,-0.57,0.57
3.629481792449951,-0.32,0.19,-0.53,0.64
3.6305761337280273,-0.44,0.2,-0.3,0.56
3.6350579261779785,-0.12,0.27,-0.15,0.33
3.645069122314453,0.26,0.27,0.02,0.37
3.6551260948181152,0.24,0.21,-0.14,0.34
3.6650819778442383,0.0,0.15,-0.25,0.29
3.6750519275665283,0.22,0.15,-0.14,0.3
3.685030937194824,0.77,0.1,0.02,0.77
3.6950788497924805,0.84,-0.04,0.15,0.85
3.7289938926696777,0.7,-0.02,0.35,0.78
3.7301089763641357,0.74,0.17,0.39,0.85
3.730714797973633,1.09,0.13,0.39,1.16
3.734902858734131,1.49,0.18,-0.08,1.5
3.744884967803955,1.4,0.34,-0.25,1.46
3.7549519538879395,1.25,0.39,-0.13,1.31
3.7649288177490234,1.24,0.61,-0.11,1.38
3.7749500274658203,1.17,0.68,-0.16,1.36
3.784914970397949,1.17,0.75,-0.46,1.46
3.7950479984283447,1.4,1.25,-0.58,1.96
3.8284590244293213,1.76,2.24,0.62,2.91
3.829094886779785,1.41,1.82,1.12,2.56
3.8301799297332764,0.95,1.69,1.24,2.3
3.8346428871154785,0.85,1.66,1.04,2.13
3.844788074493408,1.47,1.47,0.56,2.15
3.854717969894409,1.94,1.33,0.01,2.35
3.864710807800293,2.4,1.51,-0.58,2.89
3.8747599124908447,3.05,1.72,-0.75,3.58
3.884735107421875,4.18,1.85,-0.88,4.65
3.8946619033813477,5.5,2.01,-0.73,5.9
3.9274048805236816,6.08,2.35,-0.47,6.53
3.9284579753875732,6.13,3.3,-0.5,6.97
3.929081916809082,6.31,4.47,-0.02,7.73
3.9345479011535645,6.56,5.88,0.07,8.8
3.944612979888916,7.3,7.69,-0.54,10.61
3.9546470642089844,8.41,8.71,-0.32,12.11
3.9645469188690186,8.84,8.74,-0.3,12.43
3.974599838256836,7.45,8.35,-1.04,11.23
3.9845359325408936,4.8,8.88,-1.16,10.16
3.994536876678467,2.85,9.87,-1.61,10.39
4.028824806213379,2.59,10.07,-1.78,10.54
4.029932022094727,1.43,10.64,-1.56,10.84
4.030550956726074,-1.7,11.78,-5.05,12.92
4.03446102142334,0.63,12.95,-8.69,15.6
4.0445380210876465,6.02,10.02,-6.16,13.21
4.054505825042725,8.85,6.27,-1.95,11.01
4.064651966094971,8.9,4.29,0.87,9.91
4.074548959732056,-3.19,2.42,1.56,4.29
4.084399938583374,-11.47,0.34,-3.38,11.96
4.0945539474487305,-4.15,2.52,-5.03,6.99
4.127079963684082,4.3,2.73,-2.01,5.47
4.128191947937012,7.85,1.07,0.3,7.92
4.128830909729004,8.01,-0.63,1.51,8.17
4.134426116943359,5.67,-1.71,2.29,6.34
4.144433975219727,3.6,-3.13,2.43,5.35
4.154350996017456,2.85,-4.2,1.96,5.44
4.1644511222839355,3.01,-4.34,1.4,5.46
4.174446105957031,3.31,-4.3,1.12,5.54
4.18440580368042,3.2,-4.37,1.15,5.53
4.1943359375,2.76,-4.44,1.23,5.37
4.228518009185791,2.39,-4.44,1.54,5.27
4.229604005813599,2.26,-4.53,1.96,5.42
4.230225086212158,2.1,-4.63,1.98,5.45
4.2342000007629395,1.7,-4.67,1.83,5.29
4.244266986846924,1.36,-4.63,1.77,5.13
4.254162788391113,1.21,-4.6,1.84,5.09
4.264297962188721,1.45,-4.76,1.89,5.32
4.2742369174957275,1.64,-4.99,2.01,5.62
4.284217834472656,1.77,-5.2,2.13,5.89
4.2941789627075195,1.97,-5.35,2.22,6.11
4.329424858093262,2.26,-5.48,2.33,6.36
4.330338954925537,2.52,-5.63,2.49,6.65
4.330953121185303,2.73,-5.82,2.73,6.98
4.334105968475342,2.9,-6.04,2.99,7.33
4.344120979309082,2.99,-6.23,3.18,7.6
4.354283809661865,2.79,-6.47,3.47,7.85
4.364060878753662,2.57,-6.53,3.75,7.95
4.374128818511963,2.27,-6.41,3.67,7.72
4.384063005447388,2.0,-5.99,3.47,7.2
4.394097805023193,1.47,-5.63,3.74,6.91
4.427623987197876,0.3,-5.19,3.76,6.41
4.428256988525391,-1.14,-4.36,2.73,5.26
4.429380893707275,-2.33,-3.07,1.67,4.2
4.433950901031494,-3.39,-1.51,0.95,3.83
4.443964004516602,-4.67,0.03,0.32,4.68
4.454311847686768,-6.09,0.93,-0.87,6.22
4.463828086853027,-6.9,1.46,-2.76,7.57
4.473918914794922,-7.12,1.67,-3.86,8.26
4.483859062194824,-7.03,1.28,-3.4,7.91
4.49392294883728,-7.09,0.79,-2.82,7.67
4.503803014755249,-7.45,3.35,-3.33,8.82
4.528381824493408,-3.18,12.8,-8.84,15.87
4.529508113861084,5.63,10.53,-8.67,14.75
4.534272909164429,-13.39,31.13,0.46,33.89
4.543865919113159,-41.24,26.89,-19.47,52.94
4.553668022155762,-26.36,5.14,-10.09,28.68
4.563815116882324,3.62,0.95,10.22,10.88
4.573884010314941,5.14,-10.87,12.96,17.67
4.583748817443848,-3.82,-12.19,3.48,13.24
4.593814849853516,-6.86,-1.8,-5.27,8.83
4.603784084320068,-5.1,2.91,-6.09,8.45
4.629272937774658,-2.54,3.02,-2.42,4.62
4.629900932312012,-0.23,0.87,-1.69,1.91
4.633623123168945,1.02,-0.3,-1.28,1.66
4.643702983856201,1.43,0.41,-0.33,1.52
4.653604030609131,1.44,0.1,0.0,1.44
4.663635015487671,0.6,0.13,-0.69,0.92
4.6736650466918945,-0.65,0.3,0.25,0.75
4.683631896972656,-1.05,0.24,0.59,1.22
4.693657875061035,-0.75,0.4,-0.55,1.01
4.703559875488281,-1.09,0.34,-2.02,2.32
4.728365898132324,-1.81,-0.22,-2.88,3.4
4.729467868804932,-2.02,-0.12,-2.09,2.9
4.733457088470459,-1.27,0.57,-0.78,1.59
4.743498802185059,-0.1,0.5,-0.17,0.53
4.753461837768555,0.46,-0.11,-0.15,0.49
4.763458013534546,0.35,-0.4,0.22,0.57
4.773385047912598,-0.15,-0.07,0.32,0.36
4.783455848693848,-0.4,0.4,0.12,0.57
4.793439865112305,-0.12,0.47,-0.18,0.51
4.803410053253174,0.06,0.43,-0.28,0.51
4.8278608322143555,-0.02,0.35,-0.35,0.49
4.8289289474487305,-0.05,0.25,-0.35,0.43
4.833366870880127,-0.01,0.2,-0.46,0.5
4.843356132507324,0.36,0.24,-0.2,0.47
4.8533549308776855,1.09,0.19,-0.07,1.1
4.8643410205841064,1.53,0.16,-0.02,1.53
4.87336802482605,1.58,0.2,0.01,1.59
4.883449077606201,1.47,0.28,0.1,1.49
4.893494129180908,1.26,0.3,0.14,1.3
4.903342962265015,0.72,0.18,-0.06,0.74
4.930008888244629,-0.18,-0.01,-0.1,0.2
4.930649995803833,-0.81,0.04,0.14,0.82
4.9332029819488525,-0.67,0.19,0.15,0.71
4.94325590133667,0.02,0.25,0.12,0.27
4.953213930130005,0.66,0.34,-0.1,0.74
4.963176012039185,1.06,0.44,-0.34,1.19
4.973288059234619,1.85,0.66,-0.47,2.01
4.983165979385376,2.48,0.73,-0.37,2.61
4.993216037750244,2.13,0.81,-0.35,2.3
5.003149032592773,1.91,1.13,-0.21,2.22
5.0292229652404785,1.82,1.36,-0.13,2.27
5.029860019683838,1.69,1.42,-0.08,2.2
5.033034801483154,1.64,1.58,0.16,2.28
5.043137073516846,2.07,1.78,0.08,2.73
5.053046941757202,2.72,1.93,-0.14,3.33
5.063048839569092,3.22,2.12,-0.12,3.85
5.073108911514282,3.72,2.12,-0.16,4.28
5.0831239223480225,4.24,2.1,-0.22,4.73
5.093049049377441,4.77,2.38,0.14,5.33
5.103055953979492,5.38,2.91,0.2,6.11
5.129796981811523,6.42,4.18,-0.17,7.66
5.130379915237427,7.49,6.41,-0.38,9.86
5.13288688659668,8.48,8.01,-0.61,11.68
5.142971038818359,9.1,8.04,-0.16,12.14
5.152896881103516,9.02,8.03,-0.32,12.08
5.162932872772217,7.87,7.97,-0.93,11.23
5.173008918762207,5.75,8.17,-1.22,10.06
5.182934999465942,3.37,9.25,-1.43,9.94
5.211855888366699,2.3,10.4,-1.51,10.75
5.21245813369751,2.39,10.54,-0.95,10.84
5.213028907775879,0.55,11.1,-3.14,11.54
5.222825050354004,-1.75,12.81,-7.63,15.01
5.2328338623046875,2.42,12.37,-8.54,15.22
5.242787837982178,7.57,9.75,-5.07,13.34
5.252688884735107,10.98,5.5,-1.51,12.37
5.262797832489014,7.56,2.82,1.44,8.19
5.272771835327148,-7.5,0.42,-0.48,7.52
5.282776832580566,-12.31,1.06,-6.75,14.07
5.3130409717559814,-3.02,3.67,-5.36,7.16
5.313628911972046,4.51,2.86,-2.01,5.7
5.314209938049316,7.76,1.2,0.05,7.85
5.3226318359375,7.06,-0.45,1.1,7.15
5.332662105560303,4.51,-1.53,1.78,5.08
5.3427159786224365,2.79,-2.82,2.02,4.45
5.35260009765625,2.36,-3.51,1.75,4.57
5.362630844116211,2.54,-3.42,1.26,4.44
5.37260103225708,2.8,-3.19,0.93,4.34
5.382530927658081,2.72,-3.29,0.78,4.33
5.412884950637817,2.63,-3.62,0.87,4.55
5.413468837738037,2.73,-4.24,1.32,5.21
5.414031028747559,2.74,-4.91,1.53,5.82
5.422428131103516,2.57,-5.4,1.41,6.14
5.432476997375488,2.34,-5.79,1.27,6.37
5.442501068115234,2.09,-6.11,1.26,6.57
5.452425956726074,1.98,-6.42,1.33,6.84
5.462573051452637,2.1,-6.75,1.39,7.2
5.472407817840576,2.36,-7.14,1.57,7.68
5.482446908950806,2.51,-7.47,1.74,8.07
5.513236045837402,2.64,-7.66,1.88,8.31
5.513832092285156,2.89,-7.78,2.06,8.55
5.514394998550415,3.19,-7.97,2.37,8.9
5.5222790241241455,3.32,-8.22,2.74,9.27
5.53235387802124,3.31,-8.42,2.86,9.48
5.5423760414123535,3.24,-8.56,2.78,9.56
5.552243947982788,2.92,-8.58,2.68,9.45
5.562262058258057,2.12,-8.28,2.46,8.89
5.572189807891846,0.98,-7.71,2.11,8.05
5.582173824310303,-0.1,-6.9,1.63,7.09
5.612736940383911,-0.98,-5.8,1.2,6.0
5.61332893371582,-2.02,-4.47,0.63,4.94
5.6138999462127686,-3.53,-2.93,-0.51,4.61
5.622048854827881,-5.4,-1.36,-2.56,6.12
5.632195949554443,-7.09,0.22,-4.34,8.31
5.642283916473389,-8.38,1.52,-4.72,9.73
5.65211296081543,-9.88,1.81,-4.56,11.03
5.662208080291748,-11.28,1.53,-5.01,12.43
5.672080993652344,-11.39,1.38,-5.77,12.84
5.682150840759277,-10.5,2.07,-5.94,12.24
5.71369194984436,-12.02,12.64,-7.26,18.89
5.714309930801392,0.75,12.05,-12.96,17.71
5.714878082275391,-4.33,18.64,-1.54,19.19
5.7220377922058105,-13.6,38.85,-2.28,41.22
5.731968879699707,-13.15,22.82,-1.04,26.35
5.74210000038147,-5.21,-0.55,6.42,8.28
5.751982927322388,2.3,-8.42,9.23,12.7
5.762073993682861,-1.66,-12.74,5.34,13.91
5.772098064422607,-7.01,-4.32,-0.73,8.26
5.781962871551514,-10.26,0.53,-4.58,11.24
5.8132429122924805,-6.96,3.3,-2.59,8.12
5.813821792602539,-2.73,2.85,-1.42,4.19
5.81439995765686,-0.2,-0.36,-0.88,0.97
5.822112083435059,-0.47,-0.56,-0.6,0.94
5.8318939208984375,-1.04,0.52,-1.39,1.81
5.841951847076416,-0.77,0.69,-1.76,2.04
5.851945877075195,0.26,0.46,-2.09,2.15
5.862646102905273,0.9,0.65,-1.18,1.62
5.872262001037598,0.96,0.37,0.22,1.05
5.881925106048584,1.19,0.0,0.18,1.2
5.913772106170654,1.29,-0.11,-1.09,1.69
5.914322853088379,0.36,-0.12,-2.07,2.1
5.914845943450928,-0.18,-0.02,-1.83,1.83
5.922123908996582,0.23,0.08,-1.11,1.13
5.931689977645874,0.79,-0.22,-0.44,0.93
5.941801071166992,1.07,-0.5,0.06,1.18
5.95166802406311,0.78,-0.28,0.42,0.92
5.961741924285889,0.02,0.08,0.47,0.47
5.971704006195068,-0.53,0.29,0.3,0.67
5.981649875640869,-0.36,0.22,0.03,0.42
6.013828992843628,-0.06,-0.01,-0.55,0.55
6.014416933059692,0.02,-0.24,-0.92,0.95
6.0149970054626465,0.36,-0.25,-0.95,1.04
6.021594047546387,0.72,-0.03,-0.77,1.05
6.0316290855407715,0.86,0.24,0.03,0.89
6.041718006134033,0.9,0.32,0.84,1.27
6.0515828132629395,0.78,0.34,0.93,1.26
6.061552047729492,0.79,0.44,0.76,1.18
6.071594953536987,0.85,0.42,0.47,1.05
6.0815839767456055,0.74,0.27,0.15,0.8
6.114486932754517,0.56,0.13,-0.25,0.62
6.115072965621948,0.46,-0.09,-0.3,0.55
6.1156439781188965,0.5,-0.25,-0.13,0.57
6.121564865112305,0.57,-0.12,-0.12,0.59
6.131428003311157,0.65,0.22,-0.05,0.68
6.141571998596191,0.74,0.64,-0.12,0.98
6.151436805725098,0.75,0.94,-0.48,1.29
6.161509990692139,0.84,0.9,-0.54,1.34
6.171399116516113,0.91,1.0,-0.26,1.37
6.181457042694092,0.84,1.12,-0.03,1.4
6.214962005615234,1.18,1.06,-0.19,1.59
6.215548038482666,1.75,1.32,-0.37,2.22
6.216577053070068,2.37,1.87,-0.19,3.02
6.2212769985198975,2.6,1.97,-0.12,3.26
6.231225967407227,3.52,2.03,-0.01,4.06
6.241369009017944,4.37,2.2,0.17,4.89
6.251346111297607,4.81,2.23,0.07,5.3
6.261270046234131,4.85,2.36,0.13,5.39
6.271251916885376,4.53,2.99,0.14,5.42
6.281289100646973,4.45,3.53,0.5,5.7
6.315057992935181,5.04,3.84,0.42,6.35
6.315666913986206,5.73,4.33,0.05,7.18
6.316632986068726,6.6,5.54,-0.3,8.62
6.321174144744873,7.58,6.6,-0.5,10.06
6.331143856048584,8.58,7.08,-0.85,11.15
6.341259956359863,9.3,7.64,-1.17,12.09
6.351133823394775,8.94,7.78,-1.3,11.92
6.3611860275268555,8.08,8.55,-1.37,11.84
6.371163845062256,5.98,10.29,-2.16,12.09
6.3811399936676025,5.39,11.5,-3.69,13.22
6.415022850036621,6.17,11.18,-3.55,13.25
6.415601015090942,3.1,11.02,-1.89,11.6
6.4165239334106445,-2.16,13.38,-4.65,14.32
6.421083927154541,-1.15,14.16,-9.29,16.97
6.431041955947876,5.22,12.06,-7.29,15.02
6.441111087799072,9.12,7.42,-3.09,12.15
6.4509968757629395,5.51,3.95,0.87,6.83
6.461062908172607,-10.42,1.17,-2.16,10.7
6.470979928970337,-15.7,-0.73,-7.12,17.25
6.4811110496521,-4.06,2.42,-4.25,6.35
6.515155792236328,4.45,1.14,-2.38,5.17
6.5160908699035645,6.62,-0.96,-0.24,6.69
6.516628980636597,5.97,-2.42,1.43,6.59
6.520872116088867,4.61,-2.91,2.55,6.01
6.530887126922607,4.15,-3.68,2.31,6.0
6.540952920913696,4.11,-4.85,1.66,6.57
6.550900936126709,4.26,-5.71,1.88,7.36
6.561005115509033,4.3,-6.49,1.86,8.0
6.57082200050354,4.16,-6.92,1.8,8.27
6.5808258056640625,4.18,-6.93,2.2,8.38
6.614727973937988,4.35,-6.96,2.75,8.65
6.615289926528931,4.77,-7.08,2.88,9.0
6.616218090057373,5.22,-7.21,2.67,9.29
6.620652914047241,5.71,-7.22,2.56,9.55
6.630656003952026,5.93,-7.27,2.7,9.76
6.640614986419678,5.85,-7.37,2.88,9.84
6.650651931762695,5.33,-7.62,2.93,9.74
6.660686016082764,4.4,-7.83,2.84,9.41
6.67061185836792,3.49,-7.92,2.54,9.01
6.680633068084717,3.04,-7.88,2.3,8.75
6.714831829071045,2.97,-7.71,2.26,8.56
6.715780019760132,3.11,-7.48,2.48,8.47
6.716310977935791,2.84,-7.3,2.71,8.28
6.720571041107178,2.13,-6.84,2.68,7.64
6.730633974075317,1.34,-6.23,2.58,6.87
6.740572929382324,0.62,-5.52,2.88,6.25
6.7506020069122314,-0.16,-4.74,2.81,5.51
6.760548114776611,-0.88,-3.78,1.91,4.32
6.770488977432251,-1.23,-2.47,0.52,2.8
6.780487060546875,-1.51,-0.64,-0.58,1.73
6.815218925476074,-2.74,1.54,-1.27,3.39
6.816152095794678,-5.12,3.66,-2.39,6.73
6.816678047180176,-8.58,4.78,-4.17,10.67
6.820403099060059,-12.07,4.47,-5.6,14.03
6.830463886260986,-13.86,4.4,-5.89,15.68
6.840498924255371,-13.87,4.08,-5.63,15.51
6.850371837615967,-13.05,4.61,-5.78,14.99
6.8604209423065186,-9.89,13.85,-9.09,19.29
6.870435953140259,-4.53,10.95,-8.58,14.63
6.881103992462158,-14.59,13.49,-3.14,20.11
6.914024829864502,-18.54,20.19,-10.08,29.2
6.9154369831085205,-0.42,15.63,-0.72,15.65
6.915982961654663,11.72,7.85,13.84,19.76
6.920330047607422,1.72,-0.08,7.46,7.65
6.930321931838989,-11.52,-5.78,-0.49,12.89
6.940217971801758,-12.75,-3.6,-1.94,13.38
6.950273036956787,-8.04,-0.55,-0.78,8.09
6.960288047790527,-4.76,0.0,-0.42,4.77
6.970256805419922,-3.23,0.35,-0.24,3.25
6.980258941650391,-1.73,0.46,0.06,1.79
7.013824939727783,-0.85,0.03,0.3,0.9
7.014368057250977,-0.66,-0.4,-1.18,1.4
7.015312910079956,-0.3,0.54,-2.65,2.72
7.020104885101318,0.19,1.17,-3.02,3.24
7.030126094818115,0.77,0.68,-2.7,2.88
7.0399861335754395,1.03,0.21,-2.01,2.26
7.049983978271484,0.83,0.01,-1.43,1.65
7.0602240562438965,0.63,-0.22,-1.21,1.38
7.070183992385864,0.54,-0.23,-0.73,0.93
7.080193996429443,0.44,0.0,-0.07,0.44
7.114933013916016,-0.05,0.15,0.1,0.18
7.115803003311157,-0.47,-0.04,0.44,0.64
7.116336822509766,-0.34,-0.28,0.48,0.65
7.120007038116455,-0.32,-0.31,0.1,0.45
7.130070924758911,-0.7,0.06,0.15,0.71
7.139866828918457,-0.81,0.27,-0.07,0.85
7.150002956390381,-0.63,0.31,-0.85,1.1
7.160125017166138,-0.54,0.28,-1.72,1.82
7.169984817504883,-0.34,0.16,-1.78,1.81
7.180002927780151,0.24,-0.02,-1.02,1.04
7.215867042541504,0.91,-0.08,-0.15,0.92
7.216408014297485,1.14,0.11,0.29,1.18
7.2169389724731445,1.04,0.16,0.93,1.4
7.219936847686768,0.85,0.24,1.05,1.37
7.229857921600342,0.51,0.42,1.1,1.28
7.240010023117065,0.2,0.46,0.7,0.86
7.249820947647095,0.15,0.33,0.33,0.49
7.25980281829834,0.17,0.16,0.01,0.23
7.269827842712402,0.35,-0.06,-0.16,0.38
7.2798449993133545,0.8,-0.16,-0.06,0.81
7.3161139488220215,0.98,-0.03,0.03,0.98
7.3166539669036865,0.88,0.22,-0.1,0.91
7.317174911499023,0.77,0.5,-0.02,0.91
7.319727897644043,0.8,0.8,-0.14,1.14
7.330456972122192,1.1,0.96,-0.57,1.56
7.340009927749634,1.22,1.08,-0.84,1.83
7.349785804748535,1.11,1.02,-1.1,1.86
7.359710931777954,1.33,1.07,-0.99,1.97
7.369642019271851,2.31,1.62,-0.59,2.88
7.379716873168945,2.38,1.58,-0.34,2.87
7.389645099639893,2.91,1.46,0.19,3.26
7.415855884552002,3.64,1.83,0.43,4.09
7.416394948959351,3.79,2.32,0.38,4.45
7.419554948806763,4.0,2.71,0.45,4.85
7.429597854614258,4.39,2.76,0.17,5.18
7.439520835876465,4.72,2.68,-0.01,5.42
7.449481964111328,5.1,2.68,-0.1,5.76
7.459607124328613,5.59,2.9,-0.25,6.3
7.469511032104492,6.69,4.0,-0.67,7.82
7.479551792144775,8.25,6.38,-1.48,10.53
7.489551067352295,9.53,7.87,-1.56,12.45
7.51665997505188,9.99,7.71,-1.09,12.66
7.517192840576172,9.95,7.39,-0.98,12.43
7.519400119781494,8.96,7.63,-1.42,11.85
7.52945613861084,6.18,8.18,-1.75,10.4
7.539379119873047,1.98,8.49,-1.48,8.84
7.549310922622681,-0.95,9.5,-0.83,9.58
7.559401035308838,-1.38,11.26,-1.4,11.43
7.569406032562256,-1.08,11.64,-5.55,12.94
7.579394817352295,0.04,13.77,-10.43,17.27
7.589344024658203,5.42,12.5,-9.31,16.5
7.6161699295043945,8.83,8.74,-4.0,13.05
7.616673946380615,9.4,5.93,-0.05,11.11
7.619248867034912,-1.56,5.36,1.72,5.84
7.629325866699219,-12.22,1.71,-3.72,12.88
7.6392741203308105,-7.37,2.53,-4.82,9.16
7.649139881134033,1.76,3.46,-2.13,4.42
7.659282922744751,5.68,1.92,-1.07,6.09
7.669209957122803,6.47,0.58,0.08,6.49
7.679247856140137,5.73,-0.34,1.54,5.94
7.689224004745483,4.66,-2.39,2.36,5.74
7.716363906860352,3.99,-4.17,2.27,6.2
7.7168660163879395,3.55,-4.63,2.02,6.17
7.719099044799805,3.13,-4.82,1.83,6.03
7.729192018508911,2.55,-4.69,1.5,5.54
7.739058971405029,2.52,-5.02,1.39,5.78
7.749140024185181,2.77,-6.71,1.75,7.46
7.759114980697632,3.33,-8.28,2.27,9.2
7.769009113311768,4.64,-8.14,2.71,9.75
7.779052019119263,5.45,-7.4,2.89,9.63
7.7890260219573975,5.36,-6.96,3.04,9.29
7.81651496887207,4.83,-7.03,2.93,9.01
7.817022800445557,4.47,-7.21,2.69,8.89
7.819024085998535,4.49,-7.02,2.95,8.83
7.829028129577637,4.5,-6.96,3.27,8.9
7.8389668464660645,4.01,-7.15,3.43,8.88
7.848773956298828,3.22,-7.51,3.3,8.81
7.858965873718262,2.51,-7.86,3.0,8.77
7.8690080642700195,2.24,-8.05,2.8,8.81
7.878992080688477,2.57,-8.09,3.02,9.0
7.888922929763794,3.54,-7.93,3.41,9.32
7.917598009109497,4.21,-7.49,4.18,9.55
7.918111801147461,3.96,-6.85,4.82,9.26
7.918776988983154,2.7,-6.03,4.85,8.19
7.928828954696655,0.96,-4.84,4.02,6.36
7.938781023025513,-0.84,-3.47,2.8,4.53
7.948843955993652,-2.99,-2.23,1.47,4.0
7.958943843841553,-5.28,-0.84,-0.44,5.36
7.968719005584717,-7.66,0.91,-2.31,8.05
7.978798866271973,-10.14,2.96,-3.4,11.09
7.988734006881714,-12.5,4.71,-4.53,14.1
8.016921997070312,-14.51,5.11,-5.93,16.48
8.017431020736694,-15.28,4.52,-6.54,17.22
8.018630981445312,-13.63,4.04,-6.71,15.72
8.028678894042969,-11.72,3.1,-6.57,13.78
8.038641929626465,-9.94,7.98,-7.7,14.89
8.048677921295166,-4.53,9.08,-10.22,14.4
8.058798789978027,-6.48,11.84,-8.41,15.9
8.068889141082764,1.41,35.98,-4.26,36.25
8.07870101928711,5.84,24.24,7.02,25.9
8.088602066040039,-1.44,-2.59,5.6,6.33
8.115827083587646,-6.55,-8.1,5.41,11.73
8.116343975067139,-7.85,-10.86,4.91,14.27
8.118544101715088,-8.56,-5.79,-0.04,10.33
8.128579139709473,-9.49,0.05,-3.57,10.13
8.138615131378174,-6.89,2.76,-3.66,8.27
8.148387908935547,-3.43,3.02,-2.64,5.27
8.158708095550537,-0.68,0.21,-1.34,1.51
8.168552875518799,0.79,-0.79,-1.08,1.55
8.178568840026855,1.5,0.37,-1.85,2.41
8.188538074493408,1.42,0.78,-1.55,2.24
8.21770191192627,0.73,0.51,-1.23,1.51
8.21824312210083,0.37,0.51,-1.43,1.56
8.218733787536621,0.39,0.43,-1.73,1.82
8.228376865386963,0.47,0.23,-1.98,2.04
8.238329887390137,0.29,-0.14,-1.62,1.65
8.248302936553955,-0.15,-0.37,-0.92,1.0
8.258332967758179,-0.09,-0.02,-0.17,0.19
8.268280029296875,-0.08,0.09,0.44,0.45
8.27825403213501,0.09,-0.01,0.44,0.44
8.288187980651855,0.57,-0.26,0.48,0.78
8.315966129302979,0.74,-0.38,0.47,0.95
8.316450119018555,0.5,-0.22,0.36,0.65
8.31821894645691,0.4,-0.09,0.19,0.45
8.328281879425049,0.25,-0.04,-0.02,0.25
8.338279962539673,-0.11,0.01,0.09,0.14
8.348153114318848,-0.11,0.1,0.06,0.16
8.358293056488037,0.23,0.14,-0.54,0.6
8.368184089660645,0.43,0.14,-1.03,1.12
8.378278970718384,0.19,0.18,-0.85,0.88
8.388184070587158,-0.09,0.17,-0.27,0.33
8.41613483428955,0.21,0.08,0.24,0.32
8.416611909866333,1.03,0.13,0.52,1.16
8.418066024780273,1.41,0.44,0.76,1.66
8.42818307876587,1.15,0.53,1.16,1.71
8.438102960586548,0.73,0.56,1.04,1.38
8.448087930679321,0.37,0.37,0.6,0.79
8.457962036132812,0.32,0.16,0.22,0.42
8.468109130859375,0.53,0.02,-0.14,0.54
8.478272914886475,0.85,0.14,-0.41,0.95
8.488066911697388,0.96,0.44,-0.76,1.3
8.516807079315186,0.95,0.51,-0.5,1.18
8.517282962799072,1.23,0.62,-0.2,1.39
8.517897129058838,1.46,0.67,-0.28,1.63
8.527988910675049,1.38,0.61,-0.41,1.56
8.537890911102295,1.14,0.73,-0.95,1.65
8.54794692993164,0.79,1.33,-1.14,1.92
8.55778694152832,0.94,2.02,0.15,2.23
8.567922115325928,1.49,1.59,0.24,2.19
8.577942848205566,2.2,1.72,0.33,2.81
8.58792495727539,2.88,1.93,0.45,3.49
8.616480827331543,3.66,2.26,0.06,4.3
8.616955995559692,3.87,2.71,-0.16,4.72
8.617838859558105,3.99,3.02,-0.22,5.0
8.62784194946289,4.36,3.15,-0.12,5.38
8.637797832489014,4.75,3.22,0.14,5.74
8.647799015045166,5.19,3.49,0.34,6.26
8.657763004302979,5.78,4.73,-0.04,7.46
8.667871952056885,6.71,6.38,-0.44,9.26
8.677895069122314,7.48,7.25,-0.87,10.45
8.687810897827148,8.16,7.45,-0.79,11.07
8.716903924942017,8.43,7.05,-0.65,11.0
8.717402935028076,8.14,7.03,-0.79,10.78
8.717870950698853,7.72,8.09,-1.31,11.25
8.727733135223389,5.74,10.08,-2.27,11.81
8.737691879272461,3.18,11.79,-3.15,12.61
8.748157024383545,1.59,12.41,-2.39,12.73
8.757920980453491,-0.53,12.33,-3.66,12.87
8.767553806304932,-2.11,14.1,-8.06,16.37
8.777576923370361,2.4,13.14,-9.59,16.44
8.787550926208496,7.9,9.62,-4.05,13.09
8.81750202178955,10.03,4.98,-0.76,11.22
8.81797981262207,1.19,3.32,1.09,3.69
8.818448066711426,-13.48,-0.12,-5.2,14.44
8.827601909637451,-9.56,1.15,-6.56,11.65
8.837524890899658,0.31,1.82,-3.26,3.74
8.84746503829956,4.29,0.24,-1.51,4.55
8.857561111450195,4.55,-1.49,0.67,4.83
8.867443084716797,4.23,-2.04,2.61,5.37
8.877561092376709,4.32,-1.91,1.93,5.1
8.88749098777771,5.0,-2.28,1.21,5.62
8.918637990951538,4.93,-3.16,1.68,6.09
8.919111967086792,2.61,-4.63,0.94,5.39
8.919574975967407,0.12,-6.67,0.3,6.67
8.927254915237427,-0.25,-7.94,0.89,7.99
8.93726110458374,1.29,-7.26,2.23,7.7
8.94716501235962,3.19,-6.58,3.02,7.91
8.957221984863281,4.21,-7.06,3.28,8.85
8.967187881469727,4.73,-7.18,3.2,9.17
8.977231979370117,4.67,-6.99,2.9,8.89
8.98714303970337,4.08,-6.98,2.86,8.57
9.018259048461914,3.71,-7.25,3.13,8.72
9.018728017807007,3.66,-7.56,3.39,9.05
9.019186973571777,3.83,-7.65,3.56,9.26
9.02712893486023,4.15,-7.83,3.65,9.58
9.037094116210938,4.2,-7.92,3.58,9.65
9.047104835510254,4.2,-7.73,3.37,9.42
9.057108879089355,3.99,-7.27,3.15,8.87
9.067131042480469,4.06,-6.89,3.01,8.54
9.077239990234375,4.22,-6.71,2.85,8.42
9.08707594871521,4.22,-6.57,2.73,8.27
9.118564128875732,3.87,-6.18,2.55,7.72
9.119042873382568,3.44,-5.88,2.55,7.27
9.119502067565918,3.29,-5.5,3.02,7.08
9.126972913742065,2.71,-4.68,3.78,6.59
9.136912822723389,1.31,-3.88,3.89,5.64
9.146957874298096,-0.47,-3.09,2.74,4.15
9.156972885131836,-1.83,-2.04,1.22,2.99
9.166974067687988,-2.93,-0.44,0.45,2.99
9.176965951919556,-4.31,1.29,-0.38,4.51
9.18695592880249,-6.2,2.9,-2.56,7.3
9.219235897064209,-8.29,4.36,-5.18,10.7
9.219709873199463,-9.22,5.47,-6.18,12.37
9.220180034637451,-9.65,5.83,-5.43,12.51
9.226861953735352,-10.04,5.38,-4.9,12.39
9.236725807189941,-9.64,4.47,-4.52,11.54
9.246871948242188,-7.4,11.32,-5.9,14.75
9.256824016571045,-1.27,12.9,-6.77,14.62
9.266910076141357,-4.09,10.34,-5.15,12.25
9.277487993240356,-16.99,14.98,-2.37,22.77
9.28692102432251,-13.32,15.27,-9.51,22.38
9.319586992263794,2.25,10.1,5.31,11.63
9.32005500793457,3.04,4.45,9.61,11.01
9.320510864257812,-7.0,-2.6,1.1,7.54
9.326920986175537,-9.97,-3.91,-2.68,11.03
9.33687686920166,-6.97,-0.69,-1.9,7.25
9.346794128417969,-4.47,-0.28,-1.91,4.86
9.356812000274658,-2.67,-0.36,-1.93,3.31
9.36679983139038,-1.08,0.26,-1.5,1.86
9.376770973205566,-0.26,0.49,-1.13,1.25
9.386718988418579,-0.16,0.18,-1.32,1.34
9.419342994689941,-0.14,0.32,-1.87,1.9
9.419814109802246,0.05,0.51,-1.76,1.83
9.420274019241333,0.24,0.67,-1.01,1.23
9.426630973815918,0.44,0.67,-0.55,0.97
9.436612129211426,0.66,0.26,-1.33,1.5
9.446724891662598,0.24,-0.06,-1.69,1.7
9.456599950790405,-0.46,-0.3,-0.89,1.04
9.466553926467896,-0.67,-0.11,-0.01,0.67
9.476732969284058,-0.38,0.23,0.22,0.49
9.486616134643555,0.1,0.18,-0.17,0.26
9.519269943237305,0.62,-0.3,0.12,0.69
9.519726991653442,0.74,-0.44,0.14,0.87
9.520169973373413,0.43,-0.06,0.02,0.43
9.526493072509766,-0.11,0.07,0.27,0.29
9.536525011062622,-0.41,0.22,0.63,0.78
9.546526908874512,-0.38,0.3,0.0,0.48
9.556482791900635,-0.29,0.06,-0.54,0.61
9.566450119018555,0.23,-0.23,-0.54,0.63
9.576555967330933,0.92,-0.14,-0.35,0.99
9.586365938186646,1.28,0.04,-0.18,1.29
9.618620872497559,1.47,0.16,0.12,1.48
9.619096994400024,1.4,0.26,0.51,1.51
9.619529962539673,1.05,0.18,0.68,1.26
9.626346111297607,0.69,0.16,0.64,0.95
9.63630485534668,0.11,0.15,0.39,0.43
9.646333932876587,-0.34,0.1,0.2,0.4
9.656363010406494,-0.51,0.06,0.05,0.51
9.666330814361572,-0.74,-0.03,0.0,0.74
9.676435947418213,-0.78,-0.07,0.05,0.78
9.686307907104492,-0.42,-0.09,0.17,0.46
9.718379020690918,0.1,-0.09,0.17,0.21
9.718791961669922,0.61,-0.12,0.04,0.62
9.719233989715576,0.98,-0.01,-0.13,0.98
9.72621488571167,0.89,0.08,-0.29,0.93
9.736156940460205,0.67,0.17,-0.3,0.75
9.746218919754028,0.58,0.34,-0.46,0.81
9.756343841552734,0.65,0.67,-0.54,1.07
9.76617693901062,1.26,1.15,-0.5,1.77
9.776026964187622,1.83,1.58,0.28,2.43
9.786150932312012,2.45,1.8,0.49,3.07
9.818994998931885,3.15,2.32,0.32,3.92
9.819443941116333,3.75,2.54,0.3,4.53
9.819890975952148,3.79,2.76,0.11,4.68
9.825942993164062,3.48,2.89,0.06,4.52
9.836081981658936,3.28,3.03,0.02,4.46
9.846082925796509,3.35,3.21,-0.07,4.64
9.856113910675049,3.79,3.42,-0.12,5.1
9.865997791290283,4.45,3.95,-0.36,5.96
9.875947952270508,5.13,5.23,-0.75,7.36
9.885998964309692,6.13,7.56,-1.23,9.81
9.91866397857666,7.55,9.12,-1.42,11.92
9.919105052947998,8.82,8.87,-0.93,12.54
9.919538021087646,9.23,8.59,-1.08,12.65
9.925781965255737,8.58,8.84,-1.25,12.38
9.935930013656616,7.83,9.83,-1.79,12.69
9.945995807647705,6.89,11.36,-2.54,13.52
9.955862998962402,5.55,11.71,-3.1,13.32
9.965881824493408,3.37,11.0,-1.64,11.62
9.975688934326172,-1.07,11.71,-3.73,12.33
9.98590612411499,-2.22,12.77,-9.32,15.96
10.01922082901001,3.36,11.09,-7.26,13.67
10.019684791564941,7.47,7.16,-2.13,10.56
10.020128011703491,5.92,3.43,0.32,6.84
10.02566909790039,-7.17,1.35,-0.5,7.31
10.035719871520996,-14.35,-0.89,-6.21,15.66
10.04582405090332,-5.59,1.6,-4.26,7.2
10.055712938308716,3.05,0.99,-2.05,3.8
10.06576681137085,6.4,-0.34,-0.51,6.42
10.075644969940186,6.85,-1.48,1.17,7.1
10.085716962814331,5.71,-2.24,2.3,6.55
10.119289875030518,4.68,-3.04,2.59,6.15
10.119729995727539,4.3,-3.41,2.08,5.86
10.120183944702148,4.28,-4.68,1.52,6.52
10.12559700012207,3.31,-7.69,1.5,8.5
10.1356201171875,3.09,-7.86,1.81,8.63
10.145641803741455,3.69,-6.18,2.08,7.49
10.15559196472168,4.86,-5.96,2.46,8.07
10.165591955184937,5.58,-6.59,2.88,9.1
10.17575192451477,5.63,-6.89,3.0,9.38
10.185636043548584,5.49,-6.77,2.91,9.18
10.219677925109863,5.22,-6.68,2.88,8.95
10.220140933990479,4.81,-6.61,2.9,8.67
10.220891952514648,4.39,-6.47,2.96,8.36
10.225745916366577,4.03,-6.23,2.98,7.99
10.235476970672607,3.82,-6.12,2.83,7.74
10.245479106903076,3.54,-6.01,2.64,7.45
10.25543999671936,3.16,-5.85,2.46,7.08
10.265501022338867,2.97,-5.7,2.4,6.86
10.275321006774902,2.91,-5.36,2.46,6.57
10.285367965698242,2.85,-5.02,2.52,6.29
10.319167137145996,2.83,-4.84,2.7,6.22
10.319601058959961,2.53,-4.85,2.86,6.17
10.320353984832764,1.82,-5.13,3.19,6.3
10.325334072113037,1.41,-5.3,3.47,6.48
10.33534288406372,1.14,-4.7,3.46,5.94
10.345386028289795,0.23,-3.79,2.71,4.66
10.355278015136719,-1.39,-2.74,1.32,3.34
10.36539888381958,-3.49,-1.13,0.06,3.66
10.375370025634766,-5.64,0.5,-1.08,5.76
10.385340929031372,-7.35,1.75,-2.01,7.81
10.419956922531128,-9.04,2.49,-2.68,9.75
10.420634984970093,-9.88,3.12,-3.8,11.03
10.421051979064941,-9.35,3.33,-4.97,11.1
10.42518401145935,-9.0,3.35,-5.4,11.01
10.435241937637329,-8.65,7.75,-6.02,13.08
10.44515085220337,-2.42,14.39,-11.6,18.64
10.455166816711426,-2.49,11.97,-7.43,14.3
10.465654850006104,-15.19,31.67,-0.47,35.12
10.475099086761475,-29.26,27.01,-14.79,42.47
10.485111951828003,-14.82,3.08,-0.84,15.15
10.516796112060547,2.53,-1.9,11.08,11.52
10.517242908477783,0.07,-10.1,8.82,13.4
10.517683982849121,-5.31,-10.22,2.69,11.82
10.525007009506226,-7.07,-2.53,-0.61,7.53
10.535025119781494,-5.15,1.48,-2.56,5.93
10.545017957687378,-2.23,2.87,-2.3,4.3
10.554841995239258,-0.25,1.22,-2.43,2.73
10.565014839172363,0.37,0.27,-2.06,2.11
10.574940919876099,-0.21,0.77,-1.96,2.11
10.584995985031128,-0.3,0.51,-0.88,1.06
10.618470907211304,0.42,0.0,-1.14,1.21
10.61894702911377,-0.09,0.36,-2.33,2.35
10.61943793296814,-1.0,0.2,-1.78,2.05
10.624896049499512,-1.13,0.07,-1.17,1.62
10.634918928146362,-1.31,0.06,-0.74,1.5
10.644875049591064,-1.89,0.09,-0.9,2.09
10.654850959777832,-1.47,0.15,-0.94,1.75
10.664868831634521,-0.14,0.06,-0.45,0.47
10.674839973449707,0.76,0.32,-1.17,1.43
10.684826850891113,1.03,0.18,-0.96,1.41
10.71924114227295,0.54,-0.47,0.06,0.71
10.72004508972168,-0.21,-0.47,0.07,0.51
10.7204909324646,-0.38,-0.11,-0.24,0.46
10.72472596168518,-0.32,0.09,-0.33,0.46
10.734746932983398,-0.18,0.11,-0.25,0.32
10.744756937026978,-0.02,0.0,-0.46,0.46
10.754637002944946,0.21,-0.09,-0.63,0.67
10.76474380493164,0.37,-0.02,-0.47,0.59
10.77467679977417,0.49,0.12,-0.2,0.54
10.784734010696411,0.68,0.11,-0.06,0.69
10.819244861602783,0.95,0.06,0.28,0.99
10.820022106170654,1.32,0.08,0.4,1.38
10.82047986984253,1.48,0.18,0.45,1.55
10.82460880279541,1.28,0.28,0.39,1.36
10.834605932235718,0.99,0.31,0.27,1.07
10.844576835632324,0.74,0.14,0.08,0.75
10.854627132415771,0.59,-0.06,0.01,0.59
10.864564895629883,0.32,0.01,-0.03,0.32
10.874600887298584,0.24,0.21,0.07,0.32
10.884585857391357,0.21,0.38,-0.12,0.45
10.920037984848022,0.24,0.58,-0.11,0.63
10.920500993728638,0.29,0.54,-0.16,0.63
10.920958042144775,0.58,0.52,-0.26,0.82
10.924530029296875,1.09,0.57,-0.47,1.31
10.934579849243164,1.46,0.48,-0.74,1.7
10.944540977478027,1.76,1.07,-0.95,2.26
10.954540967941284,2.12,2.02,-0.02,2.92
10.96453595161438,1.88,1.82,0.36,2.64
10.974432945251465,2.13,1.79,0.43,2.81
10.984231948852539,2.56,1.81,0.73,3.21
11.021408081054688,3.02,1.87,0.62,3.6
11.021878004074097,3.36,2.0,0.61,3.95
11.022342920303345,3.72,2.12,0.34,4.29
11.024334907531738,3.91,2.48,-0.05,4.63
11.034253120422363,3.88,2.64,-0.23,4.69
11.044190883636475,3.91,2.68,-0.69,4.79
11.054295063018799,4.3,2.88,-0.67,5.21
11.064292907714844,4.92,3.49,-0.85,6.09
11.074317932128906,6.28,5.11,-0.91,8.14
11.084189891815186,7.68,6.68,-0.92,10.22
11.12024998664856,8.82,7.63,-1.19,11.72
11.120726108551025,9.62,8.11,-1.13,12.63
11.121190071105957,9.35,7.71,-1.07,12.16
11.124145984649658,7.69,7.58,-1.84,10.95
11.134200096130371,4.72,8.26,-2.12,9.74
11.144128799438477,1.67,10.34,-2.4,10.74
11.15412712097168,1.57,11.82,-2.8,12.24
11.164129972457886,1.66,9.95,-4.01,10.85
11.17413592338562,-0.65,10.3,-7.17,12.56
11.184139013290405,0.38,12.1,-9.43,15.34
11.220919132232666,5.23,9.91,-6.01,12.71
11.221394062042236,7.89,5.58,-1.57,9.79
11.221857070922852,8.02,2.21,1.17,8.4
11.22397494316101,-2.71,0.83,2.01,3.47
11.234071016311646,-10.69,-0.81,-4.08,11.47
11.24392294883728,-4.99,1.56,-4.53,6.91
11.253931045532227,2.6,1.12,-1.72,3.31
11.264045000076294,6.31,0.19,0.34,6.32
11.273836135864258,6.37,-0.66,1.53,6.58
11.283983945846558,4.72,-1.14,2.63,5.52
11.321746826171875,3.44,-2.01,2.92,4.93
11.322225093841553,2.89,-3.01,2.51,4.86
11.322688102722168,2.76,-3.32,2.19,4.84
11.323967933654785,2.42,-3.54,2.0,4.73
11.333853960037231,1.82,-3.58,1.93,4.45
11.343739986419678,1.39,-3.64,1.84,4.3
11.353919982910156,1.31,-4.61,1.86,5.14
11.363893985748291,1.23,-6.16,2.18,6.64
11.373836994171143,1.85,-6.65,2.36,7.29
11.383720874786377,2.74,-5.88,2.34,6.89
11.421875953674316,3.02,-5.19,2.39,6.46
11.422348976135254,3.03,-5.15,2.51,6.48
11.422813892364502,3.11,-5.51,2.54,6.81
11.423638820648193,3.14,-5.77,2.47,7.01
11.433767795562744,3.2,-5.96,2.39,7.17
11.443537950515747,3.12,-6.09,2.34,7.23
11.453721046447754,3.0,-6.15,2.4,7.25
11.463788032531738,3.09,-6.2,2.51,7.36
11.473764896392822,3.28,-6.27,2.57,7.52
11.483637809753418,3.51,-6.4,2.67,7.77
11.521782875061035,3.69,-6.69,2.79,8.13
11.522265911102295,3.41,-6.97,2.96,8.3
11.522710800170898,2.88,-7.1,3.0,8.22
11.523651123046875,2.02,-7.1,2.9,7.93
11.53357982635498,0.82,-6.95,2.67,7.49
11.543705940246582,-0.25,-6.39,2.26,6.78
11.553591012954712,-1.35,-5.43,1.74,5.85
11.563570022583008,-2.89,-4.03,0.61,4.99
11.573534965515137,-4.46,-2.61,-1.15,5.29
11.583479881286621,-5.78,-0.89,-2.58,6.39
11.621737957000732,-7.05,0.85,-3.23,7.8
11.622182846069336,-8.45,1.94,-3.67,9.41
11.622617959976196,-9.33,2.0,-4.09,10.38
11.62342095375061,-9.26,1.6,-4.31,10.33
11.633477926254272,-8.79,1.67,-4.29,9.92
11.64375901222229,-8.22,2.4,-4.04,9.46
11.65333604812622,-7.59,12.76,-6.31,16.13
11.663466930389404,1.65,10.15,-10.5,14.69
11.6735258102417,-6.47,16.71,-2.92,18.15
11.683539867401123,-17.61,33.47,-8.18,38.69
11.69338607788086,-15.45,21.95,-3.48,27.06
11.722093105316162,-6.11,0.62,5.54,8.27
11.722529888153076,-0.37,-4.39,5.5,7.04
11.723257064819336,-3.58,-8.18,4.93,10.19
11.733305931091309,-6.07,-4.74,1.29,7.8
11.743260860443115,-7.96,-0.12,-2.11,8.23
11.753190994262695,-5.68,1.46,-1.3,6.0
11.763333797454834,-2.61,1.38,-0.88,3.08
11.773138046264648,-0.42,-0.12,-0.98,1.07
11.783276081085205,0.08,-0.71,-0.23,0.75
11.793270111083984,-0.2,0.06,-0.61,0.64
11.822319030761719,0.22,0.64,-0.69,0.96
11.822761058807373,0.82,0.64,-1.55,1.86
11.823183059692383,1.12,0.69,-2.49,2.81
11.833173990249634,1.14,0.36,-2.29,2.58
11.842959880828857,1.1,-0.1,-1.23,1.65
11.85316801071167,0.72,-0.16,-0.77,1.06
11.863127946853638,-0.3,-0.31,-0.81,0.91
11.873180866241455,-0.63,-0.17,-0.49,0.81
11.883155822753906,0.03,0.08,-0.11,0.13
11.89300799369812,0.33,0.17,0.18,0.41
11.921746969223022,0.45,0.02,0.31,0.54
11.922188997268677,0.52,-0.1,0.33,0.62
11.922916889190674,0.34,-0.04,-0.19,0.39
11.933046817779541,-0.09,0.2,-1.21,1.22
11.94298505783081,-0.44,0.28,-1.9,1.97
11.952940940856934,-0.53,-0.21,-1.52,1.62
11.963032007217407,-0.34,-0.54,-1.13,1.29
11.972979068756104,-0.24,-0.42,-0.72,0.86
11.982994079589844,-0.25,-0.14,-0.03,0.28
11.99295711517334,-0.22,0.28,0.52,0.63
12.02132797241211,0.09,0.33,1.4,1.44
12.021757125854492,0.46,0.15,1.42,1.5
12.022802829742432,0.54,0.16,0.88,1.04
12.032892942428589,0.25,0.09,0.22,0.34
12.042695045471191,-0.34,-0.2,-0.01,0.39
12.052807807922363,-0.94,-0.2,-0.59,1.12
12.062834978103638,-1.35,-0.27,-1.17,1.8
12.072860956192017,-1.29,-0.53,-0.87,1.64
12.082819938659668,-1.14,-0.67,-0.66,1.47
12.09276294708252,-0.81,-0.31,-0.32,0.92
12.121033906936646,0.05,0.39,0.06,0.39
12.121461868286133,0.97,0.86,0.08,1.29
12.122713088989258,1.15,0.96,0.29,1.52
12.132762908935547,1.38,0.99,-0.01,1.69
12.142696857452393,1.97,0.72,-0.36,2.12
12.152557849884033,2.38,0.56,-0.85,2.58
12.162713050842285,2.67,0.35,-0.71,2.78
12.172590970993042,3.11,0.27,-0.31,3.13
12.182698965072632,3.38,0.5,-0.16,3.42
12.192728042602539,3.82,0.72,0.11,3.88
12.221699953079224,4.42,1.02,-0.27,4.54
12.222136974334717,4.59,2.11,-0.89,5.12
12.22258710861206,5.08,4.56,0.7,6.86
12.232593059539795,4.71,3.79,1.77,6.29
12.24241304397583,4.81,3.61,1.26,6.14
12.252458095550537,5.15,3.71,1.45,6.51
12.262526035308838,5.28,3.34,1.28,6.37
12.272454023361206,5.46,3.49,0.98,6.55
12.282548904418945,5.97,4.64,-0.1,7.56
12.292386054992676,6.74,6.04,-0.54,9.06
12.321901798248291,7.45,7.13,-0.93,10.35
12.32236099243164,7.89,7.31,-0.98,10.8
12.3227858543396,8.51,6.96,-0.61,11.01
12.33303689956665,8.4,6.95,-1.42,10.99
12.342427968978882,7.35,7.51,-1.77,10.65
12.352252960205078,5.29,8.48,-2.32,10.26
12.362483978271484,1.85,11.11,-2.86,11.62
12.372326850891113,1.08,13.1,-3.37,13.56
12.404526948928833,1.63,10.54,-4.7,11.65
12.404958009719849,-0.59,9.92,-6.74,12.0
12.405377864837646,0.47,11.31,-8.87,14.38
12.412297010421753,5.55,9.32,-6.0,12.39
12.422379970550537,7.87,5.64,-2.04,9.89
12.432337999343872,5.7,3.83,0.16,6.86
12.442237854003906,-6.38,1.57,-0.89,6.63
12.452311038970947,-12.04,-0.33,-6.16,13.52
12.462312936782837,-4.36,1.88,-4.53,6.56
12.4722900390625,2.67,1.6,-1.96,3.67
12.505950927734375,5.33,0.11,-0.33,5.34
12.50638198852539,5.05,-1.58,0.96,5.37
12.50683879852295,3.78,-2.97,1.64,5.07
12.512176036834717,2.71,-4.34,1.85,5.44
12.522174835205078,2.43,-4.79,1.75,5.64
12.532207012176514,3.3,-4.29,1.53,5.62
12.542104005813599,3.54,-5.15,1.28,6.37
12.552078008651733,1.91,-8.21,1.5,8.56
12.562203884124756,1.58,-9.3,2.16,9.67
12.572164058685303,3.25,-7.35,2.61,8.44
12.606173992156982,5.21,-6.53,2.92,8.84
12.606630802154541,5.91,-6.84,3.3,9.62
12.60736083984375,5.6,-7.02,3.48,9.63
12.611905097961426,4.98,-7.05,3.44,9.29
12.621971130371094,4.5,-6.89,3.25,8.84
12.632041931152344,4.4,-6.73,3.12,8.62
12.642004013061523,4.38,-6.59,3.0,8.46
12.651822090148926,4.11,-6.31,2.83,8.04
12.661837100982666,3.69,-6.25,2.69,7.74
12.671931982040405,3.28,-6.27,2.58,7.53
12.705476999282837,3.05,-6.28,2.22,7.32
12.705906867980957,3.02,-6.25,2.08,7.24
12.706336975097656,2.85,-6.3,2.31,7.29
12.711750030517578,2.5,-6.35,2.57,7.29
12.721873998641968,2.43,-6.27,2.93,7.33
12.73191499710083,2.55,-5.83,3.13,7.09
12.741850852966309,2.17,-5.07,2.64,6.11
12.7518310546875,0.87,-4.32,1.43,4.63
12.761729955673218,-1.05,-3.36,0.17,3.52
12.77168607711792,-3.23,-2.13,-0.75,3.94
12.805807113647461,-5.18,-0.94,-1.22,5.4
12.806270122528076,-6.72,0.03,-1.54,6.89
12.807004928588867,-8.0,0.56,-2.2,8.31
12.811705112457275,-8.62,1.14,-3.31,9.3
12.821699142456055,-8.67,1.75,-4.23,9.8
12.831748962402344,-8.7,1.88,-4.33,9.89
12.84170913696289,-9.06,1.77,-3.68,9.93
12.85175085067749,-9.29,1.86,-2.83,9.88
12.861569881439209,-6.58,10.94,-5.31,13.82
12.87213397026062,0.08,12.76,-6.49,14.31
12.90607213973999,-2.75,24.07,0.75,24.23
12.906844139099121,-15.39,36.2,-8.21,40.18
12.907270908355713,-14.54,15.23,-5.97,21.88
12.911418914794922,-4.23,-1.9,3.16,5.61
12.921540975570679,-1.33,-6.5,2.64,7.14
12.931583881378174,-2.86,-7.68,1.97,8.42
12.941492080688477,-3.97,-3.61,0.27,5.37
12.95159101486206,-6.12,-1.35,-3.15,7.01
12.961359977722168,-6.3,1.05,-2.4,6.82
12.971534013748169,-5.74,2.81,-2.01,6.69
13.006712913513184,-4.27,1.04,-1.28,4.57
13.00733494758606,-1.84,-0.84,0.25,2.03
13.007759094238281,-0.01,-0.05,0.55,0.55
13.01144790649414,0.58,0.74,0.37,1.01
13.02139401435852,0.31,0.3,0.51,0.66
13.031386852264404,0.44,0.14,0.28,0.54
13.04137396812439,1.05,0.16,-0.24,1.08
13.051419973373413,1.65,-0.27,-0.6,1.77
13.061500072479248,1.77,-0.36,-1.55,2.38
13.07137393951416,1.29,-0.2,-2.54,2.85
13.106985092163086,0.74,-0.22,-2.39,2.51
13.107418060302734,0.2,0.16,-1.62,1.64
13.107842922210693,-0.06,0.42,-0.57,0.71
13.111454010009766,-0.02,0.14,0.64,0.65
13.121298789978027,0.11,-0.2,1.17,1.19
13.13129997253418,0.11,-0.34,1.47,1.51
13.14124584197998,-0.06,-0.16,1.56,1.56
13.151302814483643,0.21,-0.19,1.58,1.6
13.161508083343506,0.39,0.13,0.85,0.94
13.171297073364258,0.03,0.56,-0.4,0.68
13.20725679397583,-0.65,0.48,-0.88,1.19
13.20769190788269,-1.52,0.39,-1.64,2.26
13.208112001419067,-1.64,0.22,-1.94,2.54
13.211502075195312,-0.67,-0.15,-0.74,1.0
13.22114086151123,0.08,-0.36,0.1,0.38
13.231145858764648,0.01,-0.08,0.4,0.4
13.240880012512207,0.06,0.14,0.37,0.4
13.251102924346924,0.59,0.26,0.25,0.69
13.261108875274658,0.71,0.29,0.36,0.84
13.27106499671936,0.4,0.23,0.36,0.58
13.30732798576355,0.48,0.07,0.0,0.48
13.30776596069336,0.55,0.0,-0.42,0.69
13.308190822601318,0.39,0.04,-0.85,0.93
13.311011791229248,0.77,0.04,-1.05,1.3
13.32096004486084,1.55,-0.34,-0.08,1.58
13.33100414276123,2.06,-0.23,-0.03,2.07
13.340840816497803,2.36,0.26,-0.13,2.37
13.35097885131836,2.29,0.72,-0.29,2.41
13.3609459400177,1.72,0.87,-0.35,1.95
13.37088680267334,1.24,0.88,-0.35,1.56
13.406476974487305,0.68,0.94,-0.67,1.33
13.406904935836792,0.37,0.86,-0.17,0.95
13.407323837280273,0.58,0.85,0.2,1.04
13.41084909439087,1.03,0.93,0.41,1.44
13.420841932296753,1.92,1.43,1.03,2.6
13.430815935134888,3.44,2.14,1.52,4.32
13.440699100494385,3.54,2.22,1.1,4.32
13.450786113739014,3.61,2.53,0.79,4.47
13.460772037506104,3.68,3.1,0.1,4.81
13.470673084259033,3.67,3.21,-0.57,4.9
13.507507801055908,4.0,3.39,-1.09,5.35
13.507935047149658,4.89,3.43,-0.96,6.04
13.508356094360352,5.55,3.62,-1.02,6.7
13.510715007781982,5.95,4.49,-1.25,7.55
13.52078104019165,6.75,5.8,-1.2,8.98
13.530702114105225,7.54,6.39,-0.52,9.89
13.540678977966309,7.97,6.61,-0.64,10.37
13.55074405670166,7.86,7.56,-1.26,10.97
13.560606002807617,6.91,7.95,-1.41,10.62
13.570676803588867,5.04,7.97,-1.35,9.52
13.607342958450317,3.27,8.89,-1.68,9.62
13.607775926589966,4.46,10.06,-2.68,11.32
13.608205795288086,6.1,10.21,-3.3,12.34
13.610559940338135,3.01,10.66,-1.71,11.2
13.62056589126587,-1.92,12.42,-4.17,13.24
13.630577087402344,0.77,11.78,-8.94,14.8
13.64050579071045,6.04,7.65,-6.5,11.71
13.650475978851318,10.05,3.67,-3.29,11.19
13.66050910949707,7.62,1.77,1.5,7.96
13.6704740524292,-5.47,0.87,0.18,5.54
13.70805311203003,-9.72,0.23,-5.56,11.2
13.70849609375,-2.2,0.79,-4.05,4.67
13.708920001983643,4.49,-0.29,-1.58,4.76
13.710453987121582,6.77,-1.92,-0.06,7.03
13.720407009124756,6.41,-3.18,0.63,7.18
13.730454921722412,4.54,-4.06,1.19,6.2
13.740454912185669,2.66,-4.73,1.6,5.65
13.750479936599731,1.85,-5.1,1.67,5.67
13.76032304763794,1.83,-4.92,1.55,5.47
13.770235061645508,2.09,-4.4,1.3,5.04
13.807106971740723,2.44,-4.27,1.18,5.05
13.807533979415894,2.41,-5.36,1.38,6.03
13.807963848114014,2.13,-6.9,1.88,7.46
13.810258865356445,2.95,-7.22,2.27,8.12
13.820219993591309,3.96,-6.5,2.15,7.9
13.830326080322266,4.24,-5.57,2.08,7.3
13.84024691581726,3.99,-5.03,2.24,6.79
13.85023307800293,3.42,-4.83,2.31,6.35
13.860239028930664,2.66,-5.04,2.33,6.15
13.870126962661743,2.0,-5.44,2.12,6.17
13.907579898834229,1.69,-5.72,1.73,6.21
13.908012866973877,1.7,-5.7,1.46,6.12
13.908438920974731,1.83,-5.54,1.58,6.04
13.910092830657959,1.99,-5.53,2.09,6.23
13.920109987258911,1.98,-5.81,2.66,6.68
13.93012809753418,1.48,-6.28,2.94,7.09
13.940078973770142,0.65,-6.76,2.53,7.24
13.950162887573242,0.09,-6.69,1.82,6.93
13.960096836090088,-0.41,-6.24,1.42,6.41
13.970139980316162,-1.38,-5.69,1.11,5.95
14.007466793060303,-2.57,-4.79,0.55,5.46
14.007914066314697,-3.58,-3.7,-0.27,5.15
14.008337020874023,-4.43,-2.64,-0.96,5.24
14.010011911392212,-5.37,-1.69,-1.56,5.84
14.019972801208496,-6.64,-1.0,-2.41,7.13
14.030013084411621,-8.11,-0.38,-3.16,8.71
14.039938926696777,-9.43,0.17,-3.53,10.07
14.050055027008057,-10.43,0.67,-3.78,11.11
14.059948921203613,-10.79,1.47,-3.96,11.58
14.06997799873352,-11.33,10.93,-5.22,16.58
14.107846975326538,0.42,11.1,-12.03,16.37
14.108284950256348,0.07,18.5,-1.51,18.56
14.108707904815674,-15.97,40.33,-4.03,43.56
14.10992693901062,-28.17,18.41,-11.7,35.62
14.119802951812744,-8.7,-0.96,2.7,9.15
14.129775047302246,5.71,-7.57,13.54,16.52
14.139700889587402,2.52,-11.47,7.72,14.05
14.149724960327148,-3.56,-5.67,2.0,6.98
14.159654140472412,-7.36,-1.03,-3.68,8.29
14.169687986373901,-6.94,2.17,-5.38,9.04
14.208143949508667,-4.04,2.91,-3.61,6.14
14.208573818206787,-0.83,0.52,-1.28,1.61
14.208995819091797,1.08,-0.74,-0.48,1.39
14.209523916244507,1.51,0.29,-0.69,1.68
14.219610929489136,1.76,0.5,-0.09,1.83
14.229527950286865,1.85,0.14,-0.3,1.87
14.2395601272583,1.77,0.54,-1.26,2.23
14.249587059020996,0.98,0.52,-1.73,2.05
14.259488105773926,-0.14,0.13,-2.26,2.26
14.26948094367981,-0.71,-0.05,-2.25,2.35
14.307925939559937,-0.66,-0.19,-1.07,1.27
14.308355808258057,-0.53,-0.17,-0.35,0.65
14.30877685546875,-0.72,-0.04,-0.29,0.77
14.309412956237793,-0.87,0.06,-0.38,0.95
14.319427967071533,-0.53,-0.03,0.08,0.53
14.329410076141357,-0.12,-0.19,0.73,0.76
14.33938193321228,-0.2,-0.18,0.94,0.97
14.349375009536743,-0.69,0.11,0.64,0.94
14.359388828277588,-1.18,0.16,0.14,1.19
14.369338035583496,-1.38,0.07,-0.13,1.38
14.408188819885254,-1.32,-0.02,-0.45,1.39
14.408621788024902,-1.01,-0.09,-0.54,1.14
14.40904188156128,-0.45,-0.19,-0.45,0.66
14.409450054168701,0.28,-0.19,-0.34,0.47
14.41929292678833,0.81,-0.19,-0.03,0.83
14.42924690246582,0.83,-0.13,-0.13,0.85
14.43932580947876,0.59,-0.02,-0.16,0.61
14.449374914169312,0.45,0.25,0.35,0.62
14.45923900604248,0.37,0.39,0.52,0.74
14.469300985336304,0.33,0.38,0.19,0.53
14.507942914962769,0.31,0.27,0.25,0.48
14.50836992263794,0.26,0.23,0.31,0.46
14.508793830871582,0.54,0.08,-0.02,0.54
14.50924301147461,1.32,-0.04,-0.21,1.33
14.519250869750977,1.97,0.1,-0.4,2.01
14.52920913696289,2.32,0.24,-0.31,2.35
14.539093971252441,2.59,0.39,-0.41,2.65
14.549227952957153,2.48,0.55,-0.41,2.57
14.559205055236816,2.19,0.55,-0.56,2.32
14.569216012954712,1.8,0.69,-0.88,2.11
14.608052015304565,1.16,0.71,-0.49,1.44
14.608482837677002,0.86,0.79,-0.29,1.2
14.608946800231934,1.05,1.08,-0.43,1.56
14.609363079071045,1.61,2.06,-0.31,2.63
14.619104862213135,2.28,3.18,0.74,3.98
14.62933897972107,2.87,2.93,1.19,4.27
14.638973951339722,3.32,3.07,1.35,4.71
14.64910101890564,3.65,3.34,1.19,5.08
14.659024953842163,4.01,3.47,0.7,5.34
14.66901683807373,4.32,3.71,0.09,5.69
14.678905010223389,4.8,4.44,-0.36,6.54
14.708547115325928,5.44,5.21,-0.21,7.53
14.708995819091797,6.1,6.9,-0.98,9.26
14.709415912628174,7.31,8.57,-1.22,11.33
14.718976974487305,7.96,8.2,-0.91,11.46
14.728918075561523,7.59,8.04,-1.74,11.19
14.738812923431396,6.97,8.98,-1.9,11.52
14.74894094467163,6.27,9.4,-1.8,11.44
14.758920907974243,5.69,9.98,-2.71,11.8
14.768924951553345,4.13,11.01,-3.96,12.4
14.778799057006836,2.32,11.04,-2.16,11.48
14.80839204788208,-0.88,11.96,-3.22,12.41
14.808844089508057,-2.28,13.33,-9.01,16.25
14.809268951416016,2.84,11.27,-8.12,14.17
14.818830966949463,7.26,7.61,-2.57,10.82
14.828836917877197,8.37,5.08,0.5,9.8
14.838779926300049,-2.72,3.56,1.38,4.68
14.848762035369873,-13.13,-0.34,-3.95,13.71
14.858824014663696,-7.89,1.41,-4.89,9.38
14.868710994720459,1.98,1.84,-2.32,3.56
14.878891944885254,6.42,0.11,-0.29,6.42
14.908671855926514,7.48,-1.34,1.42,7.73
14.90909194946289,6.75,-2.56,2.77,7.73
14.909511089324951,5.7,-4.97,3.5,8.33
14.918669939041138,4.78,-5.79,3.59,8.32
14.928650856018066,4.46,-4.98,2.84,7.26
14.938647985458374,3.85,-5.98,1.87,7.35
14.948632001876831,3.04,-7.49,1.63,8.24
14.958575010299683,2.94,-7.39,2.08,8.22
14.968666076660156,3.91,-6.16,2.62,7.75
14.978539943695068,4.97,-5.85,3.29,8.35
15.007951974868774,5.25,-6.19,3.96,9.03
15.008380889892578,5.02,-6.52,4.14,9.21
15.008801937103271,4.56,-6.47,4.02,8.87
15.018608093261719,4.12,-6.17,3.86,8.36
15.028520107269287,3.87,-6.04,3.6,8.02
15.038553953170776,3.69,-6.05,3.36,7.84
15.048507928848267,3.38,-6.31,3.06,7.78
15.058425903320312,3.33,-6.54,2.87,7.88
15.068512916564941,3.5,-6.57,2.99,8.02
15.0784330368042,3.68,-6.56,3.26,8.19
15.109034061431885,4.12,-6.54,3.58,8.51
15.109470844268799,4.56,-6.82,4.23,9.23
15.109889030456543,4.61,-7.04,4.44,9.51
15.118436813354492,4.18,-6.7,3.99,8.84
15.128367900848389,3.78,-5.36,3.19,7.29
15.138314008712769,3.09,-3.89,2.43,5.53
15.148398876190186,1.11,-2.92,1.62,3.51
15.158320903778076,-1.26,-2.12,0.45,2.5
15.168363094329834,-3.29,-0.87,-1.01,3.54
15.178182125091553,-5.11,0.52,-2.38,5.66
15.20844292640686,-6.79,1.7,-3.47,7.81
15.20887279510498,-8.48,2.22,-4.32,9.77
15.209313869476318,-9.64,1.73,-4.82,10.91
15.218292951583862,-10.05,0.7,-4.77,11.14
15.228214979171753,-9.72,0.19,-4.81,10.84
15.238234043121338,-9.19,-0.38,-4.86,10.4
15.248243808746338,-9.14,0.17,-4.49,10.18
15.258208990097046,-5.54,11.77,-7.87,15.2
15.26827096939087,5.73,10.06,-6.66,13.35
15.27847695350647,-1.19,23.75,0.74,23.79
15.308824062347412,-19.59,33.41,-8.16,39.58
15.309269905090332,-23.21,11.56,-5.47,26.5
15.309691905975342,-9.96,-1.32,0.86,10.08
15.318153858184814,-3.89,-8.32,3.77,9.92
15.328068017959595,-2.94,-8.75,5.65,10.82
15.338092803955078,-5.63,-4.39,2.15,7.45
15.348126888275146,-4.82,1.17,-3.17,5.88
15.358141899108887,-3.14,3.19,-2.44,5.09
15.36811900138855,-1.72,0.79,-1.61,2.48
15.377954006195068,-0.17,-0.7,-0.77,1.05
15.409438133239746,0.42,-0.01,-0.04,0.42
15.409878969192505,0.98,0.89,-0.13,1.33
15.410306930541992,1.25,0.54,0.03,1.36
15.418038845062256,1.08,0.11,-0.63,1.25
15.42802906036377,0.38,0.25,-1.97,2.02
15.437996864318848,-0.48,0.33,-2.56,2.62
15.447999000549316,-1.02,0.19,-2.75,2.93
15.457901000976562,-1.55,-0.14,-2.39,2.85
15.46799087524414,-1.28,-0.16,-1.67,2.11
15.477785110473633,-0.49,0.06,-1.58,1.65
15.509215831756592,0.28,0.08,-1.12,1.15
15.509649991989136,1.16,-0.04,-0.13,1.16
15.51007080078125,1.56,-0.03,0.69,1.7
15.51779294013977,1.24,0.09,1.07,1.64
15.527735948562622,0.28,0.21,0.81,0.88
15.53787899017334,-0.81,0.24,0.5,0.98
15.547790050506592,-1.43,0.15,-0.09,1.44
15.557655811309814,-1.5,0.08,-0.71,1.66
15.567748069763184,-1.02,-0.02,-0.78,1.28
15.57768201828003,-0.09,0.0,-0.85,0.85
15.609041929244995,0.77,0.12,-0.82,1.13
15.609463930130005,0.94,0.22,-0.6,1.13
15.609880924224854,0.85,0.34,-0.7,1.15
15.61765193939209,0.91,0.22,-0.43,1.03
15.627661943435669,0.81,-0.07,-0.04,0.81
15.637560844421387,0.8,-0.26,0.14,0.85
15.647541999816895,0.93,-0.16,0.03,0.94
15.657603979110718,0.88,0.05,-0.21,0.9
15.667645931243896,0.57,0.18,-0.52,0.79
15.677567958831787,0.32,0.07,-0.69,0.76
15.709239959716797,0.33,-0.04,-0.83,0.89
15.709673881530762,0.62,-0.02,-0.8,1.01
15.710094928741455,0.29,0.3,-0.59,0.72
15.717489957809448,0.05,0.67,-0.03,0.67
15.727494955062866,0.33,1.08,-0.24,1.15
15.737464904785156,0.66,1.69,0.23,1.82
15.74735689163208,1.54,2.05,1.01,2.75
15.757390022277832,2.37,2.13,0.98,3.33
15.76741886138916,2.26,1.88,0.76,3.03
15.777360916137695,2.33,1.64,0.51,2.89
15.809119939804077,2.65,1.46,0.17,3.03
15.809549808502197,2.87,1.57,-0.06,3.27
15.809978008270264,2.78,1.82,-0.37,3.34
15.817338943481445,2.96,2.07,0.01,3.61
15.827384948730469,3.49,2.28,0.1,4.16
15.837312936782837,4.11,2.54,0.34,4.84
15.847210884094238,5.06,2.92,0.72,5.88
15.857281923294067,6.27,3.61,0.78,7.27
15.867302894592285,7.4,4.53,0.64,8.7
15.877387046813965,8.29,5.91,0.37,10.18
15.909215927124023,9.31,8.02,-0.55,12.3
15.909646034240723,10.04,9.38,-1.05,13.78
15.910077095031738,9.49,9.44,-1.27,13.44
15.917236804962158,7.2,8.95,-2.0,11.65
15.927196025848389,3.9,9.31,-2.75,10.46
15.937183856964111,1.86,9.18,-2.44,9.67
15.947124004364014,2.79,8.81,-2.35,9.53
15.957103967666626,2.78,10.03,-2.33,10.66
15.967142105102539,-1.09,11.29,-4.18,12.08
15.977123975753784,-0.83,13.52,-9.41,16.49
16.009371995925903,4.94,11.65,-8.7,15.35
16.009801864624023,8.25,7.15,-3.93,11.6
16.010229110717773,7.95,5.95,-0.56,9.94
16.017081022262573,-4.48,4.56,0.18,6.39
16.027074813842773,-13.75,1.55,-4.63,14.59
16.037075996398926,-7.11,3.65,-4.85,9.34
16.047207832336426,2.26,4.18,-2.01,5.15
16.057013034820557,6.13,2.36,-0.6,6.59
16.067065000534058,6.89,0.31,0.74,6.93
16.07697892189026,5.39,-1.19,2.1,5.9
16.110357999801636,3.54,-3.26,2.36,5.35
16.110787868499756,2.78,-4.86,1.92,5.91
16.111207008361816,2.77,-4.79,1.87,5.84
16.116910934448242,2.93,-4.89,1.73,5.95
16.12696409225464,2.63,-6.97,1.57,7.61
16.137278079986572,3.21,-8.96,1.83,9.69
16.147149085998535,4.14,-8.69,2.36,9.91
16.156898021697998,4.34,-7.22,2.81,8.88
16.16695213317871,4.23,-5.97,2.49,7.72
16.17689609527588,4.67,-5.65,1.74,7.53
16.2098650932312,5.61,-5.69,1.73,8.17
16.210304975509644,6.42,-6.08,2.52,9.19
16.21072483062744,6.68,-6.58,3.16,9.89
16.216786861419678,6.33,-6.95,3.15,9.91
16.226780891418457,5.93,-7.24,2.85,9.78
16.236779928207397,5.69,-7.52,2.68,9.8
16.24671697616577,5.59,-7.74,2.51,9.87
16.2566339969635,5.81,-7.66,2.42,9.91
16.266852855682373,6.18,-7.4,2.63,9.99
16.27677893638611,6.31,-7.01,2.91,9.87
16.309659004211426,6.19,-6.51,3.08,9.49
16.310091972351074,6.36,-5.9,3.39,9.31
16.31051778793335,6.12,-5.47,4.11,9.17
16.316659927368164,4.56,-5.21,4.65,8.34
16.326624870300293,2.05,-4.71,4.0,6.51
16.336607933044434,-0.98,-4.0,1.82,4.5
16.34660005569458,-3.28,-3.24,-0.51,4.63
16.356431007385254,-4.67,-1.97,-1.77,5.36
16.366579055786133,-6.07,-0.05,-2.4,6.52
16.3765230178833,-7.52,1.59,-2.89,8.21
16.409982919692993,-8.71,2.64,-3.58,9.78
16.41041612625122,-9.42,2.89,-4.12,10.68
16.410836935043335,-10.15,2.36,-4.34,11.28
16.416346073150635,-10.31,2.46,-4.97,11.7
16.42641305923462,-9.22,3.8,-5.38,11.33
16.43641185760498,-4.1,12.71,-9.8,16.56
16.446866989135742,3.79,14.25,-9.23,17.39
16.456998825073242,-13.19,37.33,1.3,39.61
16.466434955596924,-43.1,33.32,-17.26,57.14
16.476428031921387,-19.54,4.85,-3.73,20.47
16.507927894592285,4.69,-10.56,10.93,15.9
16.508371829986572,6.65,-16.75,9.94,20.58
16.508795022964478,0.86,-11.15,4.53,12.06
16.516408920288086,-1.05,-0.07,-2.08,2.33
16.526330947875977,-3.78,5.05,-5.27,8.21
16.53633403778076,-3.16,4.37,-2.73,6.04
16.546145915985107,-2.61,1.14,-1.38,3.16
16.55635404586792,-1.79,-0.1,-2.27,2.89
16.566298961639404,-0.74,0.01,-0.22,0.77
16.576267957687378,0.8,0.27,-0.03,0.84
16.60865592956543,0.98,0.69,-1.69,2.07
16.609086990356445,0.22,0.24,-0.48,0.57
16.609511852264404,-0.29,0.14,0.18,0.36
16.616194009780884,-1.04,1.03,-2.9,3.24
16.626165866851807,-1.92,0.64,-3.85,4.34
16.636234998703003,-2.02,-0.95,-2.09,3.05
16.64614701271057,-2.38,-1.02,-1.19,2.84
16.65602993965149,-1.53,-0.04,-0.27,1.55
16.66617202758789,0.18,0.34,0.36,0.52
16.676103115081787,0.98,0.24,0.25,1.03
16.708621978759766,1.06,0.1,0.16,1.07
16.70905590057373,0.56,0.08,-0.16,0.58
16.709476947784424,-0.33,0.37,-0.41,0.64
16.71603012084961,-0.93,0.6,-0.51,1.21
16.72602081298828,-1.08,0.44,-0.77,1.39
16.736015796661377,-0.78,0.04,-0.89,1.18
16.745994091033936,-0.4,-0.38,-1.31,1.42
16.755980968475342,0.36,-0.32,-1.54,1.61
16.766005992889404,1.17,0.36,-0.44,1.3
16.775839805603027,1.19,0.3,0.16,1.23
16.80907392501831,1.04,0.01,0.34,1.09
16.809502124786377,0.93,-0.16,0.56,1.09
16.809916019439697,0.82,-0.26,0.71,1.11
16.815895080566406,0.43,-0.1,0.58,0.72
16.82587194442749,0.07,-0.09,0.47,0.48
16.83590793609619,-0.07,-0.19,0.68,0.7
16.84579300880432,-0.26,-0.05,0.21,0.33
16.855947017669678,-0.28,0.28,0.09,0.4
16.865848064422607,-0.13,0.38,-0.05,0.4
16.87588596343994,-0.14,0.4,-0.1,0.43
16.908836841583252,0.36,0.49,0.0,0.6
16.909271955490112,1.05,0.51,-0.24,1.19
16.909690856933594,1.54,0.62,-0.66,1.78
16.915771961212158,1.72,0.85,-0.89,2.11
16.925710916519165,1.62,1.3,-0.9,2.26
16.935771942138672,1.96,1.98,-0.7,2.87
16.945709943771362,2.43,2.1,-0.38,3.23
16.955646991729736,2.64,2.07,0.05,3.35
16.965742111206055,2.84,2.12,0.46,3.57
16.975654125213623,3.47,2.2,0.84,4.19
17.0083749294281,4.07,2.47,1.05,4.87
17.008793830871582,4.43,2.93,1.05,5.41
17.009204864501953,4.65,3.41,0.65,5.8
17.015554904937744,5.2,3.78,0.28,6.43
17.025557041168213,5.75,3.82,-0.03,6.9
17.035583972930908,6.09,4.07,-0.02,7.32
17.04560089111328,6.66,5.45,-0.3,8.61
17.05566096305847,7.65,8.44,-0.91,11.42
17.06550407409668,8.62,10.89,-1.95,14.02
17.07557487487793,9.79,11.11,-1.89,14.92
17.10829496383667,9.72,10.61,-1.67,14.48
17.108722925186157,6.82,10.73,-2.23,12.9
17.109144926071167,3.52,12.43,-3.03,13.26
17.115397930145264,1.99,12.79,-3.57,13.42
17.125484943389893,0.14,10.79,-6.14,12.41
17.13557195663452,-1.44,12.87,-9.04,15.79
17.14553213119507,2.23,13.6,-8.92,16.41
17.155427932739258,7.23,10.04,-4.23,13.07
17.165403842926025,9.53,6.2,-1.01,11.41
17.175445079803467,3.34,3.59,1.52,5.13
17.20837092399597,-11.92,-0.2,-2.49,12.17
17.208810806274414,-12.08,0.18,-7.02,13.97
17.209232807159424,-1.37,2.65,-3.5,4.59
17.215142965316772,4.75,1.46,-0.87,5.04
17.225295066833496,6.62,-0.41,0.68,6.66
17.23531484603882,4.87,-2.01,2.41,5.79
17.24529194831848,2.8,-3.41,3.06,5.36
17.2551429271698,2.11,-4.45,2.69,5.61
17.265169143676758,2.21,-4.43,2.36,5.48
17.275264024734497,2.03,-4.34,1.93,5.16
17.308921813964844,1.62,-4.07,1.54,4.64
17.3093581199646,1.46,-4.76,1.48,5.19
17.30980682373047,1.58,-6.03,1.88,6.51
17.315047025680542,2.08,-6.57,2.4,7.29
17.325124979019165,2.65,-6.61,2.61,7.58
17.33512783050537,2.8,-6.51,2.65,7.56
17.345006942749023,2.73,-6.5,2.84,7.6
17.35516095161438,2.62,-6.67,3.09,7.8
17.365018844604492,2.53,-6.74,3.26,7.9
17.375106811523438,2.67,-6.93,3.39,8.16
17.408567905426025,2.99,-7.23,3.54,8.58
17.409006118774414,3.44,-7.31,3.66,8.86
17.409460067749023,3.82,-7.35,3.72,9.08
17.414916038513184,4.32,-7.19,3.79,9.2
17.425006866455078,4.8,-7.07,3.88,9.38
17.435025930404663,4.98,-7.04,4.3,9.63
17.44519805908203,4.88,-7.16,4.64,9.82
17.45508098602295,4.53,-7.17,4.62,9.65
17.464914798736572,4.11,-7.01,4.34,9.21
17.474960803985596,3.63,-6.79,3.98,8.66
17.508602142333984,2.87,-6.52,3.66,8.0
17.509047031402588,1.81,-6.11,2.94,7.01
17.509490966796875,0.33,-5.29,1.66,5.55
17.514803886413574,-1.65,-4.66,0.08,4.94
17.524904012680054,-3.56,-4.25,-1.72,5.8
17.534886837005615,-5.63,-3.12,-3.5,7.32
17.544837951660156,-7.67,-2.06,-5.07,9.42
17.554857969284058,-9.26,-1.22,-5.66,10.92
17.564899921417236,-10.52,-0.89,-5.28,11.8
17.574831008911133,-11.16,-0.78,-4.7,12.13
17.608842849731445,-10.45,-0.17,-4.28,11.29
17.60929799079895,-8.95,0.78,-3.84,9.77
17.610034942626953,-8.0,11.67,-7.01,15.79
17.61481809616089,4.15,12.92,-11.19,17.58
17.625080108642578,-0.67,40.94,0.84,40.95
17.634697914123535,-25.35,53.24,-19.11,61.98
17.644799947738647,-24.1,17.8,-10.43,31.72
17.654770851135254,8.47,-15.07,18.53,25.34
17.66497492790222,2.6,-31.73,13.6,34.61
17.674616813659668,-0.59,-12.88,2.13,13.06
17.70869493484497,-5.81,2.5,-8.59,10.66
17.70912504196167,-8.1,4.89,-6.82,11.66
17.70985198020935,-6.22,5.39,-1.3,8.33
17.714905977249146,-1.97,1.62,-1.45,2.93
17.724533081054688,-0.25,-1.56,-0.05,1.58
17.734560012817383,0.67,0.11,0.67,0.95
17.744468927383423,0.77,0.67,-1.0,1.42
17.754563808441162,-0.07,0.33,-1.28,1.32
17.764540910720825,-0.12,-0.02,0.43,0.44
17.774415969848633,-0.03,0.09,0.33,0.34
17.809539794921875,-0.27,0.54,-1.33,1.46
17.810159921646118,-0.92,0.43,-2.57,2.76
17.810580015182495,-1.47,-0.04,-2.8,3.16
17.814465045928955,-1.38,-0.38,-2.2,2.62
17.824476957321167,-1.03,-0.1,-2.38,2.59
17.834460973739624,-0.12,0.01,-1.55,1.55
17.844357013702393,0.91,-0.48,-0.36,1.09
17.854429960250854,1.54,-0.62,0.48,1.72
17.864360809326172,1.3,-0.16,1.11,1.71
17.874377012252808,0.72,0.24,0.51,0.91
17.910216808319092,0.16,0.29,-0.16,0.36
17.910654067993164,-0.14,0.25,-0.5,0.57
17.911086082458496,-0.03,0.45,-0.52,0.68
17.91428279876709,0.09,0.55,-0.3,0.63
17.924278020858765,0.08,0.47,-0.17,0.5
17.934246063232422,0.03,0.37,-0.12,0.39
17.944223880767822,0.08,0.4,0.14,0.43
17.95429301261902,0.09,0.43,0.48,0.65
17.964200973510742,-0.01,0.36,0.51,0.62
17.974266052246094,0.22,0.3,0.39,0.53
18.009318828582764,0.5,0.13,0.3,0.59
18.009931087493896,0.56,-0.09,0.17,0.59
18.01034688949585,0.15,-0.21,0.15,0.29
18.014105796813965,-0.6,-0.36,0.38,0.79
18.02413296699524,-0.99,-0.32,0.38,1.1
18.03411102294922,-0.81,-0.13,-0.31,0.87
18.044065952301025,0.19,0.12,-0.63,0.66
18.054075956344604,1.23,0.21,-0.81,1.48
18.064001083374023,1.65,0.28,-1.2,2.05
18.07409381866455,2.06,0.62,-0.79,2.29
18.109745025634766,2.23,1.21,-0.3,2.55
18.11017084121704,1.66,1.42,-0.33,2.2
18.110590934753418,1.13,1.59,0.14,1.95
18.113955974578857,1.12,1.64,0.56,2.06
18.124030113220215,1.66,1.65,0.72,2.44
18.13404893875122,2.32,1.77,0.6,2.97
18.14395809173584,3.14,1.82,0.52,3.66
18.153971910476685,3.98,2.04,0.38,4.48
18.163985013961792,4.75,2.36,0.16,5.3
18.173895835876465,5.02,2.74,-0.44,5.73
18.21000385284424,5.11,3.03,-0.45,5.95
18.210436820983887,5.32,3.42,-0.28,6.33
18.21085500717163,5.43,4.51,-0.54,7.07
18.21381902694702,6.57,6.54,-0.61,9.29
18.223923921585083,8.13,8.29,-0.62,11.62
18.2338969707489,8.98,9.35,-0.84,12.99
18.24380397796631,8.75,9.33,-0.99,12.82
18.2538480758667,7.89,8.78,-1.56,11.9
18.263695001602173,7.21,9.17,-1.97,11.83
18.273805141448975,6.0,11.02,-2.76,12.84
18.30938196182251,5.09,12.5,-4.6,14.25
18.30981206893921,4.08,12.07,-3.68,13.26
18.310233116149902,0.86,11.44,-2.88,11.82
18.31372594833374,-3.12,13.26,-7.4,15.5
18.32363986968994,-0.45,12.14,-9.45,15.39
18.3337459564209,5.54,8.45,-4.75,11.16
18.343710899353027,8.42,4.81,-0.54,9.71
18.353696823120117,-0.27,3.12,1.92,3.67
18.363659858703613,-12.75,-0.5,-2.75,13.05
18.373655796051025,-10.54,0.29,-5.22,11.76
18.40976595878601,-0.39,2.06,-2.62,3.35
18.41019582748413,4.65,0.5,-1.01,4.78
18.410614013671875,5.7,-1.48,0.38,5.9
18.413550853729248,4.95,-2.69,1.5,5.82
18.423583030700684,4.17,-4.32,1.82,6.27
18.433579921722412,4.14,-6.08,1.51,7.5
18.44352102279663,4.34,-6.56,1.37,7.98
18.453596115112305,4.27,-6.57,1.33,7.94
18.463523864746094,3.98,-6.28,1.46,7.57
18.473407983779907,4.11,-6.16,1.65,7.58
18.510007858276367,4.4,-7.59,2.06,9.01
18.510446071624756,4.58,-9.18,2.66,10.59
18.510868072509766,5.71,-8.73,2.91,10.82
18.513396978378296,6.26,-7.01,2.98,9.85
18.523453950881958,6.02,-5.6,2.98,8.74
18.533379077911377,5.83,-5.49,2.74,8.46
18.5433931350708,6.03,-5.87,2.48,8.77
18.553396940231323,6.04,-6.1,2.38,8.9
18.563232898712158,5.59,-6.11,2.4,8.62
18.57338809967041,4.59,-5.96,2.39,7.89
18.60953402519226,3.52,-5.84,2.2,7.16
18.609962940216064,2.93,-5.72,2.07,6.75
18.610384941101074,2.78,-5.71,2.03,6.66
18.613248825073242,2.98,-5.82,2.0,6.83
18.623241901397705,3.18,-5.89,2.13,7.02
18.63329291343689,3.32,-5.96,2.33,7.2
18.64325189590454,3.43,-5.97,2.62,7.36
18.653306007385254,3.23,-5.79,2.89,7.23
18.663219928741455,3.0,-5.56,2.83,6.92
18.67316699028015,2.83,-4.88,2.68,6.24
18.709321975708008,1.78,-3.87,2.65,5.01
18.709752082824707,-0.1,-2.65,1.95,3.29
18.710177898406982,-2.12,-1.52,0.45,2.64
18.713088035583496,-3.56,-0.27,-1.01,3.71
18.723328113555908,-4.39,0.84,-2.01,4.9
18.732985019683838,-5.31,1.16,-2.69,6.06
18.74312400817871,-6.85,0.91,-3.32,7.66
18.75313401222229,-8.99,0.72,-3.92,9.83
18.76311683654785,-11.1,0.89,-4.36,11.95
18.772966861724854,-12.17,2.82,-4.65,13.32
18.810022830963135,-7.18,14.14,-10.46,18.99
18.81046485900879,0.74,15.45,-7.11,17.02
18.8108868598938,-9.92,46.62,2.4,47.72
18.813005924224854,-45.55,33.06,-23.2,60.87
18.82297992706299,-30.51,9.36,-6.9,32.65
18.832839012145996,10.88,-7.15,17.53,21.83
18.842976093292236,16.78,-21.54,16.42,31.86
18.853004932403564,5.51,-12.57,5.72,14.86
18.863411903381348,-2.97,-1.11,-7.66,8.29
18.872971057891846,-7.2,2.72,-9.68,12.36
18.910036087036133,-5.91,4.55,-4.56,8.74
18.910465002059937,-1.91,2.28,-2.99,4.21
18.910884857177734,1.82,-1.23,-1.83,2.85
18.912847995758057,2.49,-0.06,-0.49,2.53
18.922827005386353,2.27,0.17,-0.06,2.27
18.932629108428955,1.63,0.01,-0.65,1.75
18.94277596473694,0.83,0.42,-0.99,1.35
18.952849864959717,0.21,0.38,-0.6,0.74
18.96285581588745,-0.51,0.47,-0.89,1.12
18.972814083099365,-1.22,0.15,-1.51,1.94
19.01037311553955,-1.82,-0.22,-1.33,2.26
19.010801792144775,-2.16,-0.15,-0.25,2.17
19.01122498512268,-2.28,-0.01,0.51,2.33
19.012674808502197,-1.89,0.03,0.25,1.9
19.022679805755615,-1.17,-0.07,-0.13,1.17
19.032776832580566,-0.53,-0.11,-0.2,0.57
19.042635917663574,-0.3,-0.12,0.41,0.52
19.052706003189087,-0.5,-0.05,0.96,1.08
19.062631130218506,-0.69,-0.02,0.87,1.11
19.072633981704712,-0.78,0.17,0.03,0.79
19.110981941223145,-0.9,0.37,-1.1,1.46
19.11141800880432,-0.99,0.23,-1.42,1.74
19.11184787750244,-0.79,0.04,-0.84,1.15
19.11244797706604,-0.17,-0.03,-0.6,0.62
19.122607946395874,0.41,0.05,-0.6,0.72
19.13275694847107,1.04,0.01,-0.12,1.04
19.142507076263428,1.06,0.31,0.2,1.12
19.152601957321167,0.8,0.61,0.35,1.06
19.162388801574707,0.78,0.56,0.55,1.1
19.17252206802368,0.89,0.53,0.48,1.14
19.210229873657227,1.17,0.33,-0.01,1.21
19.210651874542236,1.08,-0.01,-0.55,1.21
19.211066961288452,0.64,0.03,-0.83,1.04
19.212388038635254,0.78,0.61,-1.13,1.5
19.2224440574646,1.25,0.79,-1.2,1.9
19.23236608505249,1.72,0.84,-0.9,2.11
19.242405891418457,2.41,1.4,0.12,2.78
19.252376079559326,2.58,1.31,0.71,2.97
19.26236581802368,2.44,1.46,0.77,2.94
19.272354125976562,2.4,1.73,0.54,3.0
19.28235387802124,2.0,1.76,0.11,2.66
19.31061601638794,1.61,1.47,-0.19,2.18
19.31103801727295,1.82,1.23,-0.37,2.22
19.312251091003418,2.08,1.2,-0.36,2.42
19.322299003601074,2.33,1.37,-0.35,2.72
19.33225679397583,2.92,1.58,-0.36,3.33
19.34230089187622,3.99,1.53,-0.07,4.27
19.35224199295044,4.86,1.4,0.16,5.06
19.36217498779297,5.43,2.43,0.07,5.94
19.372211933135986,6.65,6.63,-0.67,9.41
19.382215976715088,8.58,10.72,-1.21,13.78
19.41059112548828,9.03,9.29,-0.48,12.96
19.411025047302246,7.9,7.0,-0.24,10.55
19.412091970443726,7.1,7.29,-1.9,10.35
19.42218780517578,6.69,8.41,-3.35,11.25
19.432074069976807,5.73,8.88,-3.36,11.08
19.442104816436768,3.68,9.96,-3.25,11.1
19.452088832855225,2.02,12.94,-4.49,13.84
19.462541103363037,2.47,13.74,-6.82,15.53
19.472588062286377,2.87,14.42,-9.53,17.52
19.48208999633789,4.99,13.93,-8.14,16.88
19.510658979415894,7.1,11.08,-2.94,13.48
19.511117935180664,7.5,6.86,-0.45,10.17
19.51186180114746,1.39,4.81,0.82,5.07
19.521981954574585,-10.9,2.08,0.08,11.09
19.531932830810547,-13.48,2.44,-5.18,14.64
19.541940927505493,-3.67,3.68,-4.76,7.04
19.55195379257202,4.52,1.61,-1.97,5.18
19.561767101287842,7.11,-0.29,0.9,7.17
19.571964979171753,5.96,-2.27,3.34,7.19
19.581873893737793,4.12,-3.97,3.91,6.92
19.610355854034424,2.73,-5.5,3.13,6.89
19.610790014266968,2.22,-5.84,2.26,6.64
19.611850023269653,2.32,-5.7,1.64,6.36
19.621810913085938,2.77,-5.97,1.32,6.71
19.63181495666504,3.19,-6.33,1.8,7.31
19.641843795776367,3.41,-6.59,2.89,7.96
19.651813983917236,3.48,-6.69,3.89,8.48
19.661755084991455,3.47,-6.63,4.49,8.72
19.67181897163391,3.55,-6.73,4.64,8.91
19.681768894195557,3.67,-7.0,4.69,9.19
19.71037006378174,3.79,-7.25,4.64,9.4
19.710798025131226,4.15,-7.5,4.51,9.68
19.71160888671875,4.34,-7.82,4.42,9.97
19.721723079681396,4.49,-7.96,4.12,10.02
19.73163414001465,4.67,-7.97,3.59,9.91
19.74158000946045,4.77,-8.0,3.04,9.79
19.75168514251709,4.83,-7.88,2.63,9.6
19.761623859405518,4.77,-7.81,2.62,9.51
19.77162790298462,4.54,-7.69,2.67,9.32
19.78155279159546,4.07,-7.7,2.64,9.1
19.8105149269104,3.8,-7.71,2.7,9.0
19.81094980239868,3.73,-7.38,2.75,8.71
19.81154203414917,3.41,-6.42,2.76,7.77
19.82159399986267,2.3,-5.26,2.32,6.19
19.831520080566406,0.25,-4.62,1.05,4.74
19.84152603149414,-1.91,-3.71,-0.74,4.23
19.85148286819458,-3.96,-2.21,-2.49,5.17
19.861454963684082,-6.11,-0.37,-3.82,7.21
19.89228105545044,-7.83,1.19,-4.56,9.13
19.892712116241455,-8.8,1.89,-5.11,10.35
19.89313507080078,-9.5,2.4,-5.57,11.27
19.901510000228882,-9.84,2.5,-5.92,11.75
19.91143298149109,-9.64,2.65,-5.91,11.61
19.921474933624268,-9.83,7.8,-5.68,13.77
19.93143081665039,-2.48,14.61,-9.67,17.69
19.9415020942688,3.54,16.76,-1.18,17.17
19.951830863952637,-10.1,40.44,4.73,41.94
19.961295127868652,-27.17,24.7,-6.16,37.23
19.99457883834839,-16.17,-1.26,0.31,16.22
19.995009899139404,-0.78,-7.97,7.13,10.72
19.99542808532715,0.92,-8.92,5.25,10.39
20.001254081726074,-3.45,-3.88,1.51,5.4
20.011178016662598,-7.14,-1.64,-4.07,8.38
20.021296977996826,-5.51,2.63,-5.58,8.27
20.031206130981445,-3.27,3.37,-4.73,6.66
20.041072845458984,-1.26,0.34,-2.56,2.87
20.05113697052002,0.25,-0.91,-1.01,1.38
20.06114387512207,1.45,0.45,-1.81,2.36
20.094902992248535,2.28,0.5,-1.72,2.89
20.09534192085266,2.05,0.47,-1.4,2.52
20.095799922943115,1.0,0.59,-0.84,1.43
20.101143836975098,0.29,0.27,0.08,0.4
20.111093044281006,0.31,0.09,0.23,0.39
20.12119197845459,0.17,-0.06,-0.05,0.18
20.13109588623047,-0.6,-0.38,-0.64,0.95
20.14106297492981,-1.69,-0.55,-0.79,1.94
20.151071071624756,-1.84,-0.21,-0.54,1.92
20.161017894744873,-1.15,-0.06,-0.07,1.15
20.194543838500977,-0.63,-0.24,0.74,1.0
20.194972038269043,-0.36,-0.14,0.8,0.88
20.1954288482666,-0.3,0.14,0.55,0.64
20.201033115386963,-0.45,0.37,0.19,0.61
20.210960865020752,-0.39,0.45,-0.14,0.61
20.22105312347412,-0.48,0.38,-0.53,0.8
20.230891942977905,-0.79,0.01,-0.96,1.24
20.24092197418213,-0.83,-0.29,-1.06,1.37
20.250833988189697,-0.36,-0.26,-0.95,1.04
20.260852813720703,0.24,-0.17,-0.67,0.73
20.29418706893921,0.53,0.07,-0.27,0.59
20.294620037078857,0.73,0.23,-0.15,0.77
20.29504108428955,0.97,0.22,-0.1,0.99
20.300761938095093,1.24,0.16,-0.02,1.25
20.310866832733154,1.4,0.04,-0.12,1.4
20.320811986923218,1.4,0.08,-0.14,1.4
20.33176279067993,1.22,0.28,-0.3,1.28
20.340839862823486,1.05,0.39,-0.38,1.18
20.35069704055786,1.08,0.3,-0.36,1.17
20.360806941986084,1.25,0.27,-0.31,1.31
20.3941011428833,1.65,0.35,-0.09,1.68
20.394532918930054,1.93,0.46,-0.16,1.99
20.394957065582275,2.06,0.68,-0.28,2.18
20.40058994293213,1.78,0.82,-0.86,2.14
20.41067886352539,1.07,1.69,-0.48,2.05
20.420650959014893,1.25,2.12,0.67,2.55
20.4305260181427,1.44,1.6,0.59,2.23
20.440629959106445,1.26,1.49,0.55,2.02
20.450503826141357,1.52,1.39,0.7,2.17
20.460649013519287,2.03,1.19,0.47,2.39
20.493578910827637,2.24,1.06,0.14,2.48
20.494007110595703,2.47,1.17,-0.29,2.74
20.494427919387817,2.91,1.35,-0.54,3.25
20.500386953353882,3.58,1.43,-0.63,3.9
20.510499000549316,4.23,1.67,-0.73,4.6
20.520605087280273,4.71,2.16,-0.36,5.19
20.530484914779663,5.0,3.35,-0.06,6.01
20.540507793426514,5.11,5.45,-0.23,7.47
20.550489902496338,5.31,7.16,-0.21,8.91
20.560478925704956,5.89,7.56,0.15,9.58
20.59386897087097,6.95,7.21,0.02,10.01
20.594303131103516,7.73,6.91,-0.73,10.39
20.594747066497803,7.33,7.72,-1.8,10.79
20.600443840026855,6.71,9.25,-1.98,11.59
20.610350131988525,5.41,11.39,-2.34,12.82
20.62037992477417,3.93,13.38,-3.31,14.33
20.630362033843994,2.84,12.11,-3.52,12.92
20.64040994644165,0.98,10.67,-4.53,11.63
20.650543928146362,-1.18,13.02,-8.5,15.59
20.66030979156494,2.06,11.75,-8.27,14.51
20.694100856781006,6.34,7.76,-3.2,10.51
20.694538116455078,8.08,4.02,-0.15,9.02
20.69529700279236,-0.14,1.87,2.14,2.84
20.70059585571289,-10.99,-1.29,-2.02,11.24
20.71016001701355,-9.52,0.23,-5.4,10.94
20.720216989517212,-0.64,1.53,-3.41,3.79
20.73017191886902,4.54,0.0,-1.36,4.73
20.74018907546997,6.21,-1.38,0.29,6.36
20.750152111053467,5.51,-2.67,1.73,6.36
20.76009511947632,3.69,-4.08,2.54,6.05
20.795308113098145,2.59,-5.39,2.49,6.47
20.79594087600708,2.29,-5.6,1.99,6.36
20.7963650226593,2.47,-5.41,1.4,6.1
20.800045013427734,3.14,-5.6,0.96,6.49
20.810161113739014,3.93,-6.46,1.34,7.67
20.820155143737793,4.58,-6.94,2.29,8.62
20.830776929855347,5.08,-6.21,3.05,8.58
20.840025901794434,5.63,-5.41,3.31,8.48
20.85007381439209,6.21,-5.64,3.37,9.04
20.85997700691223,6.25,-6.16,3.49,9.44
20.894232988357544,5.88,-6.25,3.37,9.21
20.894994974136353,5.16,-6.12,3.12,8.59
20.89542293548584,4.52,-6.0,2.83,8.02
20.899961948394775,4.12,-5.91,2.57,7.64
20.909979820251465,3.87,-5.84,2.21,7.34
20.91996479034424,3.73,-5.77,1.95,7.14
20.929971933364868,3.48,-5.71,1.99,6.97
20.93994379043579,3.13,-5.7,2.1,6.83
20.94991683959961,2.74,-5.65,2.32,6.69
20.95988702774048,2.55,-5.62,2.64,6.71
20.994555950164795,2.78,-5.59,3.02,6.93
20.995296001434326,2.78,-5.34,3.38,6.9
20.995705127716064,2.14,-5.0,3.34,6.38
20.999804973602295,0.94,-4.48,2.6,5.26
21.00981092453003,-0.44,-3.52,1.41,3.81
21.019816875457764,-1.98,-2.41,0.05,3.11
21.029608964920044,-3.51,-1.23,-1.29,3.93
21.039768934249878,-5.08,0.3,-2.25,5.56
21.04973793029785,-6.76,1.6,-3.09,7.6
21.05972695350647,-8.66,2.31,-4.19,9.89
21.094883918762207,-10.63,2.37,-5.43,12.16
21.09551191329956,-11.91,2.15,-6.46,13.71
21.09593892097473,-12.38,2.23,-6.94,14.36
21.099629878997803,-11.15,9.9,-7.52,16.69
21.1096248626709,-2.94,11.7,-12.5,17.37
21.11960506439209,-7.19,14.32,-5.87,17.06
21.12964701652527,-20.82,32.41,-0.3,38.52
21.139657974243164,-19.98,23.81,-2.94,31.22
21.14956283569336,-9.07,0.78,6.66,11.27
21.159605026245117,3.69,-2.23,10.18,11.05
21.195302963256836,7.21,-8.79,6.88,13.28
21.19573998451233,-0.69,-6.71,-0.86,6.79
21.19616413116455,-6.84,-1.61,-3.94,8.05
21.199438095092773,-6.88,0.13,-4.81,8.39
21.209489822387695,-4.26,2.76,-2.71,5.75
21.219491004943848,-1.61,1.5,-1.09,2.45
21.229426860809326,-0.14,-1.06,-0.9,1.39
21.23947811126709,-0.14,-0.58,-0.86,1.04
21.24944305419922,-0.02,0.66,-1.35,1.5
21.259253978729248,0.33,0.91,-1.75,1.99
21.295169830322266,0.2,0.72,-0.8,1.09
21.29559898376465,-0.17,0.21,1.04,1.07
21.296019077301025,-0.34,-0.06,1.81,1.84
21.29931092262268,0.03,0.05,0.71,0.71
21.30937910079956,0.03,0.06,-1.11,1.11
21.319366931915283,-0.52,0.02,-1.8,1.87
21.32925796508789,-0.66,0.18,-1.25,1.42
21.339311122894287,-0.24,0.13,-0.44,0.51
21.349353790283203,0.03,-0.15,-0.41,0.43
21.359110832214355,0.13,-0.27,-0.33,0.44
21.395843982696533,-0.07,-0.13,-0.04,0.15
21.39628791809082,-0.45,0.2,0.05,0.49
21.396716117858887,-0.73,0.37,-0.2,0.84
21.399266004562378,-0.8,0.26,-0.61,1.03
21.40930414199829,-0.77,0.13,-0.77,1.09
21.419353008270264,-0.64,0.04,-0.64,0.9
21.4291729927063,-0.26,-0.12,-0.42,0.5
21.439254999160767,0.27,-0.24,-0.16,0.39
21.449162006378174,0.71,-0.19,0.08,0.73
21.459106922149658,1.1,-0.14,0.16,1.12
21.495277881622314,1.22,-0.05,0.15,1.23
21.495705127716064,0.77,0.2,0.17,0.81
21.496121883392334,0.15,0.42,0.27,0.52
21.499017000198364,-0.21,0.38,0.12,0.45
21.509095907211304,0.21,0.23,-0.09,0.32
21.519078969955444,0.87,0.09,-0.17,0.89
21.529011011123657,1.22,0.22,-0.44,1.31
21.53906011581421,1.47,0.34,-0.55,1.6
21.548967838287354,1.67,0.36,-0.24,1.72
21.559041023254395,1.77,0.5,-0.02,1.83
21.5953369140625,1.9,0.6,-0.45,2.04
21.595762968063354,1.79,1.21,-1.23,2.48
21.596181869506836,1.96,2.71,-0.95,3.47
21.598917961120605,1.6,2.18,0.46,2.74
21.608943939208984,1.12,1.67,0.31,2.03
21.61894989013672,1.38,1.49,0.52,2.09
21.628942012786865,1.91,1.27,0.49,2.34
21.638957023620605,2.04,1.26,0.38,2.42
21.648827075958252,2.15,1.36,0.23,2.55
21.658856868743896,2.36,1.7,-0.01,2.9
21.695335865020752,2.54,1.98,-0.07,3.22
21.6957688331604,2.85,2.06,-0.1,3.51
21.69619083404541,3.2,2.1,-0.07,3.82
21.698855876922607,3.8,2.26,-0.13,4.42
21.708835124969482,4.67,2.08,-0.14,5.11
21.718727111816406,5.43,1.66,-0.08,5.67
21.7287859916687,6.87,2.24,-0.35,7.23
21.738831996917725,8.67,4.49,-1.01,9.81
21.748712062835693,9.51,7.31,-1.86,12.13
21.758786916732788,9.52,8.41,-1.84,12.83
21.795171976089478,8.78,8.04,-1.14,11.95
21.79560399055481,7.24,7.91,-1.25,10.79
21.796021938323975,4.77,8.66,-1.57,10.01
21.798623085021973,2.31,11.47,-1.46,11.79
21.809277057647705,2.82,14.52,-1.94,14.91
21.81863498687744,3.93,13.72,-4.45,14.94
21.829062938690186,1.42,13.06,-6.82,14.8
21.83859896659851,0.54,15.19,-9.2,17.76
21.848587036132812,4.74,12.45,-6.97,15.03
21.858665943145752,8.41,7.71,-1.76,11.54
21.895203113555908,7.49,3.46,0.36,8.25
21.895639896392822,-5.88,1.21,1.25,6.13
21.896071910858154,-15.09,-0.68,-6.16,16.31
21.898468017578125,-6.04,2.11,-5.08,8.16
21.908485889434814,3.99,2.15,-0.38,4.54
21.9183931350708,7.62,0.47,1.71,7.82
21.928476810455322,5.78,-2.01,2.71,6.69
21.938507080078125,2.24,-4.03,3.11,5.56
21.94848895072937,0.02,-4.97,1.82,5.29
21.958281993865967,-0.21,-5.31,0.68,5.35
21.995357990264893,0.49,-5.29,0.78,5.36
21.995789051055908,1.24,-5.36,1.47,5.69
21.996205806732178,1.96,-5.66,2.03,6.32
21.998350143432617,2.39,-6.29,2.35,7.12
22.008336067199707,2.7,-6.61,2.82,7.67
22.01821804046631,3.26,-6.5,3.12,7.91
22.028308868408203,3.74,-6.29,3.01,7.91
22.03836488723755,4.05,-6.1,2.67,7.79
22.048250913619995,4.3,-6.06,2.55,7.85
22.05813980102539,4.55,-6.05,2.69,8.03
22.095165014266968,4.61,-6.27,2.8,8.27
22.095594882965088,4.34,-6.57,2.82,8.36
22.096020936965942,4.01,-6.96,2.68,8.46
22.09822392463684,3.92,-7.16,2.51,8.54
22.108171939849854,4.28,-7.22,2.55,8.77
22.118047952651978,4.79,-7.17,2.88,9.09
22.12819004058838,5.16,-7.04,3.14,9.27
22.138211011886597,4.93,-7.1,3.23,9.22
22.14813804626465,3.99,-7.27,3.14,8.86
22.15818691253662,2.69,-7.54,2.71,8.45
22.195215940475464,1.81,-7.68,2.12,8.17
22.195624828338623,1.45,-7.44,2.12,7.87
22.196022987365723,0.77,-7.18,2.48,7.63
22.198049068450928,-0.35,-6.7,2.3,7.09
22.208012104034424,-1.67,-5.89,1.5,6.3
22.218153953552246,-2.8,-5.14,0.18,5.85
22.228002071380615,-3.67,-4.45,-0.97,5.84
22.23799180984497,-4.43,-3.31,-1.58,5.75
22.248047828674316,-5.72,-1.76,-1.7,6.22
22.257993936538696,-7.97,-0.08,-2.22,8.27
22.2950439453125,-10.33,1.5,-3.51,11.01
22.29547882080078,-11.9,3.39,-4.99,13.34
22.295905113220215,-11.79,4.5,-5.68,13.83
22.297868967056274,-11.07,5.11,-4.91,13.14
22.30791997909546,-9.06,14.98,-7.23,18.94
22.31778383255005,2.99,9.88,-11.25,15.26
22.328068017959595,-3.87,20.66,-5.53,21.73
22.337975025177002,-11.66,48.28,-8.18,50.33
22.347901821136475,-9.3,20.1,1.06,22.17
22.357894897460938,2.64,-7.2,14.82,16.68
22.3678297996521,-1.04,-15.35,10.84,18.82
22.3956561088562,-3.04,-8.61,-1.92,9.33
22.39607810974121,-4.41,0.77,-3.93,5.95
22.39778184890747,-6.37,1.01,-5.13,8.24
22.407724857330322,-4.98,1.65,-3.34,6.21
22.417762994766235,-3.2,1.49,-0.63,3.58
22.427626132965088,-2.27,-0.79,0.53,2.46
22.43777298927307,-1.43,-0.92,0.43,1.75
22.447731018066406,-0.47,0.59,-1.05,1.29
22.457674980163574,0.0,1.15,-1.94,2.25
22.467644929885864,0.3,1.14,-0.37,1.23
22.496442794799805,0.96,0.52,0.86,1.38
22.496883869171143,1.97,0.16,-0.54,2.04
22.49752902984619,2.03,0.24,-2.37,3.12
22.507681846618652,1.05,-0.08,-3.46,3.61
22.517588138580322,0.14,-0.27,-2.96,2.97
22.52745795249939,-0.26,-0.19,-0.74,0.8
22.537601947784424,-0.33,-0.33,0.67,0.81
22.547554969787598,-0.28,-0.17,1.13,1.17
22.55757188796997,-0.48,0.14,1.16,1.26
22.5674889087677,-1.32,0.33,0.92,1.64
22.596468925476074,-1.91,0.46,0.39,2.0
22.59690809249878,-1.7,0.45,-0.22,1.77
22.597502946853638,-1.23,0.24,-0.71,1.44
22.60745596885681,-0.49,0.09,-0.77,0.91
22.617448806762695,0.61,-0.08,-0.93,1.11
22.62726402282715,1.48,-0.25,-1.32,1.99
22.637478828430176,1.9,-0.33,-1.55,2.47
22.647348880767822,1.96,-0.42,-1.78,2.68
22.65739107131958,2.14,-0.86,-0.45,2.34
22.667325973510742,1.82,-0.92,-0.18,2.04
22.696292877197266,1.05,-0.23,-0.2,1.09
22.69677209854126,0.46,0.1,0.24,0.52
22.697267055511475,0.55,-0.02,0.5,0.74
22.707379817962646,0.66,-0.23,0.84,1.09
22.717350959777832,0.44,0.17,0.25,0.53
22.727138996124268,0.26,0.45,0.38,0.64
22.737256050109863,0.3,0.63,0.29,0.75
22.747374057769775,0.37,0.73,-0.01,0.81
22.757297039031982,0.54,0.57,0.21,0.81
22.767198085784912,0.75,0.5,0.08,0.9
22.796052932739258,0.66,0.47,-0.05,0.81
22.796485900878906,0.54,0.42,0.08,0.68
22.797038078308105,0.52,0.44,-0.12,0.69
22.80723285675049,0.58,0.5,-0.71,1.04
22.81740713119507,1.14,0.82,-1.12,1.79
22.826985836029053,2.31,1.87,-0.56,3.02
22.837164878845215,2.95,1.9,-0.21,3.51
22.84709596633911,3.42,1.77,-0.03,3.85
22.85723114013672,3.92,1.87,0.58,4.38
22.86703586578369,4.37,1.74,0.73,4.75
22.89580488204956,4.61,1.94,0.77,5.06
22.896228790283203,4.44,2.41,0.49,5.07
22.89696502685547,4.21,2.97,0.54,5.18
22.90705680847168,4.39,3.34,0.4,5.53
22.916985988616943,4.9,3.63,0.33,6.1
22.927021026611328,5.59,4.29,0.21,7.04
22.93704891204834,6.43,5.75,-0.03,8.62
22.94704794883728,7.83,7.81,-0.7,11.08
22.957000970840454,9.36,9.26,-1.14,13.21
22.966957092285156,9.79,9.02,-1.27,13.37
22.99594783782959,9.29,8.66,-1.72,12.81
22.996374130249023,8.09,9.75,-2.6,12.93
22.996819972991943,6.37,11.68,-3.14,13.66
23.006922006607056,4.55,13.02,-3.52,14.23
23.01683807373047,3.34,12.61,-3.36,13.47
23.02682399749756,-0.29,11.43,-4.24,12.19
23.03684711456299,-4.38,12.93,-8.8,16.24
23.046905040740967,-0.42,12.32,-9.95,15.84
23.056875944137573,6.66,8.53,-4.37,11.67
23.066659927368164,9.31,3.26,0.01,9.86
23.096034049987793,-1.27,1.07,2.58,3.06
23.09648299217224,-13.56,-2.18,-4.42,14.42
23.096909046173096,-8.3,0.38,-5.52,9.97
23.106631994247437,1.59,1.36,-1.74,2.72
23.116617918014526,6.8,0.1,0.69,6.83
23.126553058624268,7.89,-1.99,1.89,8.35
23.136558055877686,5.93,-3.71,2.56,7.44
23.14651107788086,3.57,-4.61,2.55,6.36
23.15682291984558,1.91,-5.18,2.2,5.94
23.166557788848877,1.22,-6.99,1.77,7.31
23.19637894630432,1.57,-8.4,1.48,8.67
23.196794986724854,2.89,-7.97,1.48,8.6
23.197199821472168,3.91,-7.3,2.08,8.53
23.206482887268066,4.07,-7.25,2.64,8.72
23.216418981552124,3.8,-7.67,2.84,9.01
23.226534843444824,3.35,-8.08,2.91,9.21
23.236434936523438,3.2,-8.1,2.96,9.19
23.246429920196533,3.39,-7.96,3.01,9.16
23.25645112991333,3.84,-7.9,2.98,9.27
23.266422986984253,4.33,-7.94,3.03,9.53
23.29611301422119,4.36,-7.98,3.02,9.58
23.296550989151,4.17,-7.82,2.77,9.28
23.29696798324585,3.99,-7.34,2.36,8.68
23.30628800392151,3.83,-6.9,2.37,8.23
23.31633186340332,3.51,-6.59,3.01,8.05
23.326294898986816,3.14,-6.68,3.64,8.22
23.3363299369812,2.86,-6.88,3.91,8.41
23.346280097961426,2.62,-6.62,3.78,8.06
23.3563129901886,2.1,-5.81,3.42,7.06
23.366297006607056,1.07,-5.19,2.75,5.97
23.396390914916992,-1.0,-4.96,2.11,5.48
23.39682388305664,-3.2,-4.43,1.67,5.71
23.39724588394165,-5.06,-3.64,1.04,6.31
23.40626287460327,-7.01,-2.47,0.25,7.43
23.416199922561646,-8.7,-1.24,-0.69,8.81
23.42621898651123,-9.58,0.01,-1.58,9.7
23.436157941818237,-9.48,1.17,-1.8,9.72
23.44627809524536,-9.07,1.73,-1.59,9.36
23.456284999847412,-9.02,1.79,-1.44,9.3
23.466227054595947,-8.8,2.58,-1.64,9.31
23.495693922042847,-8.02,7.19,-2.39,11.03
23.496145963668823,-1.1,14.82,-10.92,18.44
23.49656581878662,1.28,11.94,-12.92,17.63
23.506675958633423,-9.68,37.7,-10.72,40.37
23.516173839569092,-23.44,32.19,-12.52,41.74
23.526170015335083,-4.48,0.72,7.34,8.62
23.53598690032959,6.2,-13.15,16.98,22.35
23.546140909194946,-4.26,-13.79,9.21,17.12
23.556055068969727,-5.21,-5.34,-1.69,7.64
23.566041946411133,-5.59,0.78,-7.07,9.04
23.596388816833496,-3.81,3.17,-4.73,6.85
23.59681797027588,-2.46,2.21,-1.32,3.56
23.597238063812256,-1.2,0.18,0.38,1.27
23.606031894683838,-0.87,-0.64,0.87,1.38
23.61599898338318,-0.25,0.47,0.86,1.01
23.62596297264099,1.09,0.87,-0.91,1.66
23.63596487045288,0.82,0.62,-2.23,2.45
23.645968914031982,0.36,0.36,-1.4,1.48
23.65597891807556,0.64,0.34,-1.38,1.55
23.66588592529297,0.55,0.24,-2.37,2.44
23.696052074432373,-0.06,-0.56,-3.27,3.31
23.69648504257202,-0.48,-0.86,-2.7,2.87
23.69690704345703,-0.54,-0.03,-1.08,1.2
23.705847024917603,-0.23,0.42,-0.28,0.55
23.71584701538086,0.3,-0.01,0.09,0.31
23.72584581375122,0.86,-0.48,0.34,1.04
23.73605489730835,1.2,-0.41,-0.24,1.29
23.745836973190308,0.8,-0.16,-0.95,1.25
23.756064891815186,-0.07,-0.11,-1.34,1.34
23.765753984451294,-0.52,-0.07,-1.1,1.21
23.796860933303833,-0.65,0.07,-0.74,0.98
23.79728889465332,-0.62,0.13,-0.11,0.64
23.797709941864014,-0.48,0.39,0.33,0.7
23.805755138397217,-0.15,0.78,0.91,1.2
23.815722942352295,0.71,0.8,1.36,1.73
23.825655937194824,1.04,0.39,0.81,1.37
23.836005926132202,0.84,0.12,-0.1,0.85
23.845563888549805,0.89,-0.01,-0.28,0.93
23.85568594932556,0.92,-0.31,-0.18,0.98
23.865622997283936,0.59,-0.17,-0.61,0.86
23.8970890045166,0.43,0.17,-1.07,1.16
23.89750599861145,0.43,0.16,-1.26,1.34
23.897907972335815,0.35,-0.64,-0.01,0.72
23.905634880065918,-0.14,-0.91,0.21,0.94
23.91557002067566,-0.22,-0.58,0.25,0.66
23.92554998397827,0.16,-0.18,0.16,0.28
23.935490131378174,0.22,0.14,-0.14,0.29
23.945557117462158,0.11,0.67,-0.45,0.81
23.955529928207397,0.11,0.69,-0.73,1.01
23.96551513671875,0.26,0.41,-0.49,0.68
23.99671196937561,0.48,0.81,-0.24,0.97
23.99713706970215,1.05,1.5,0.3,1.85
23.997553825378418,1.43,1.73,0.83,2.39
24.005461931228638,1.68,2.07,1.16,2.9
24.015410900115967,2.25,2.31,1.16,3.42
24.025424003601074,3.02,2.26,0.88,3.87
24.035347938537598,3.27,2.03,0.54,3.88
24.045225143432617,3.24,1.85,0.4,3.75
24.055427074432373,3.28,2.22,-0.33,3.97
24.065408945083618,3.58,2.61,-0.69,4.48
24.097312927246094,4.18,2.8,-0.91,5.11
24.097751140594482,4.76,3.1,-1.04,5.77
24.09817600250244,5.56,4.01,-1.27,6.97
24.105358123779297,6.52,5.44,-1.09,8.56
24.115304946899414,7.59,7.34,-1.32,10.64
24.125218868255615,8.9,8.44,-1.22,12.32
24.135056018829346,9.74,8.46,-0.91,12.93
24.145122051239014,9.67,8.52,-1.45,12.96
24.15524196624756,8.83,8.77,-1.86,12.58
24.165170907974243,6.82,9.79,-1.64,12.04
24.19706106185913,4.32,11.51,-2.01,12.45
24.19749879837036,3.86,13.25,-2.32,13.99
24.197916984558105,3.92,13.21,-3.28,14.16
24.205543041229248,0.85,13.66,-5.84,14.88
24.215091943740845,-0.63,15.26,-10.67,18.63
24.225175857543945,4.19,13.17,-8.5,16.22
24.235057830810547,8.83,8.93,-1.79,12.68
24.245030879974365,8.14,3.79,1.29,9.07
24.255055904388428,-5.22,1.04,1.59,5.55
24.26511812210083,-14.68,-2.06,-6.11,16.03
24.297584056854248,-6.29,0.83,-5.15,8.17
24.298022985458374,3.52,0.74,-1.71,3.98
24.29845380783081,7.62,-0.87,0.29,7.67
24.304946899414062,7.08,-3.08,2.04,7.98
24.31492590904236,4.44,-5.13,2.95,7.39
24.324985027313232,2.71,-6.7,2.75,7.73
24.3349609375,2.33,-6.73,2.5,7.54
24.344950914382935,2.36,-5.86,2.34,6.73
24.355012893676758,2.9,-5.14,2.03,6.24
24.36504888534546,3.28,-6.3,2.14,7.41
24.397783994674683,3.9,-8.61,2.8,9.85
24.398217916488647,5.15,-8.84,3.66,10.86
24.398645877838135,5.35,-7.92,4.17,10.42
24.40488910675049,4.89,-7.14,4.05,9.55
24.41492986679077,4.32,-6.75,3.53,8.75
24.424933910369873,3.96,-6.6,3.16,8.32
24.434804916381836,3.99,-6.5,2.92,8.16
24.44486904144287,4.35,-6.39,2.7,8.18
24.45490312576294,4.54,-6.34,2.58,8.21
24.4648118019104,4.59,-6.16,2.6,8.11
24.496941089630127,4.71,-5.83,2.8,8.0
24.497375965118408,4.82,-5.68,3.34,8.16
24.49779510498047,5.09,-5.6,4.03,8.57
24.50468897819519,5.34,-5.57,4.54,8.95
24.514989852905273,5.13,-5.46,4.56,8.77
24.524695873260498,4.46,-5.14,3.89,7.83
24.534607887268066,3.63,-4.66,3.12,6.68
24.544652938842773,1.75,-3.93,2.47,4.96
24.554655075073242,-1.36,-3.1,1.33,3.63
24.564597129821777,-4.11,-2.22,-0.49,4.69
24.597595930099487,-6.66,-0.82,-2.12,7.03
24.59803295135498,-8.91,0.62,-3.13,9.46
24.598464012145996,-10.31,1.87,-3.26,10.97
24.604525089263916,-11.01,2.36,-2.96,11.64
24.614552974700928,-11.2,1.95,-3.48,11.88
24.6245379447937,-10.55,1.75,-4.96,11.78
24.63450598716736,-10.02,1.4,-5.92,11.72
24.644484043121338,-9.85,0.89,-6.16,11.65
24.654428958892822,-9.74,3.74,-6.22,12.14
24.6644070148468,-4.87,11.33,-9.3,15.44
24.696983814239502,0.78,8.71,-6.89,11.13
24.69742488861084,-6.29,24.31,-3.8,25.39
24.697854042053223,-10.81,28.94,-1.1,30.91
24.70425510406494,-11.29,10.74,4.12,16.11
24.714378833770752,-8.5,-0.97,-0.7,8.58
24.724460124969482,-4.99,-6.83,2.01,8.69
24.734375953674316,-3.48,-8.35,3.74,9.78
24.744182109832764,-7.68,-4.3,-1.4,8.91
24.75427007675171,-6.81,1.26,-5.7,8.96
24.764348030090332,-2.2,3.65,-3.21,5.33
24.79757595062256,0.01,0.97,-1.71,1.96
24.79801082611084,0.16,-1.23,-0.09,1.24
24.798442840576172,-0.52,-0.56,-0.26,0.8
24.804271936416626,-0.48,0.86,-0.55,1.12
24.81423592567444,0.08,1.07,-0.43,1.15
24.82427406311035,0.3,0.45,-0.93,1.07
24.83420491218567,-0.28,-0.14,-0.16,0.35
24.844239950180054,0.05,-0.13,-0.47,0.49
24.85405683517456,0.4,0.29,-1.05,1.16
24.864190101623535,-0.5,0.34,-1.29,1.42
24.89751100540161,-0.84,0.09,-1.39,1.62
24.897953987121582,-0.21,0.01,-0.96,0.98
24.898380994796753,0.26,-0.3,-0.29,0.49
24.904015064239502,0.43,-0.48,-0.06,0.64
24.914093017578125,0.23,-0.26,0.06,0.35
24.92411184310913,-0.25,0.11,0.36,0.45
24.934070110321045,-0.82,0.36,0.51,1.03
24.944067001342773,-1.13,0.44,0.25,1.23
24.953957080841064,-0.86,0.36,-0.18,0.94
24.96405601501465,-0.23,0.13,-0.53,0.59
24.998423099517822,0.04,-0.06,-0.67,0.67
24.999199867248535,0.14,-0.1,-0.59,0.61
24.999637126922607,0.48,0.1,-0.5,0.7
25.003756999969482,0.95,0.14,-0.32,1.01
25.01396083831787,1.37,0.01,-0.11,1.37
25.02399206161499,1.48,0.03,-0.06,1.48
25.03393793106079,1.18,0.16,0.1,1.19
25.043931007385254,0.85,0.17,0.17,0.88
25.05379295349121,0.52,0.11,0.02,0.53
25.0639328956604,0.41,-0.02,-0.19,0.45
25.098140001296997,0.3,-0.09,-0.25,0.4
25.098920822143555,0.16,0.11,-0.3,0.35
25.09935188293457,0.3,0.42,-0.14,0.53
25.103779792785645,0.89,0.71,-0.02,1.13
25.113749980926514,1.22,0.79,-0.41,1.51
25.123958110809326,1.33,0.45,-0.8,1.61
25.13389801979065,1.7,1.29,-0.62,2.22
25.143767833709717,2.02,2.06,0.19,2.89
25.153823852539062,1.46,1.61,0.65,2.26
25.163835048675537,1.75,1.85,0.68,2.63
25.197589874267578,1.82,2.08,0.53,2.81
25.198030948638916,1.88,2.07,0.3,2.81
25.198758125305176,2.06,2.08,0.19,2.93
25.20373010635376,2.22,1.94,-0.06,2.94
25.21361494064331,2.41,1.75,-0.1,2.98
25.223691940307617,3.08,1.86,0.07,3.59
25.233613967895508,3.92,2.05,-0.01,4.42
25.24366283416748,4.65,2.21,0.05,5.14
25.253894805908203,5.36,2.58,0.35,5.95
25.263559818267822,6.04,3.06,0.36,6.78
25.29765796661377,7.04,4.02,0.17,8.1
25.29809808731079,8.5,5.68,-0.1,10.22
25.298834800720215,9.94,7.9,-0.72,12.71
25.303793907165527,10.92,8.81,-0.82,14.05
25.313584804534912,10.05,8.07,-0.54,12.9
25.323514938354492,7.62,8.24,-0.74,11.24
25.333534002304077,4.37,9.22,-1.03,10.25
25.343470096588135,1.86,11.21,-0.9,11.39
25.353843927383423,2.58,13.34,0.12,13.58
25.36389684677124,2.93,13.7,-0.9,14.03
25.39723300933838,-0.67,14.28,-5.27,15.23
25.39768409729004,-0.64,16.6,-10.07,19.42
25.39845895767212,5.32,13.82,-8.59,17.11
25.403381824493408,10.49,8.57,-3.69,14.03
25.413399934768677,10.17,4.73,0.87,11.24
25.423367023468018,-5.66,2.66,0.31,6.26
25.433323860168457,-13.91,0.26,-7.44,15.77
25.44332981109619,-5.12,2.4,-5.22,7.69
25.4533109664917,3.4,2.19,-1.38,4.27
25.46337080001831,6.19,0.04,-0.01,6.19
25.497540950775146,5.29,-2.34,0.41,5.79
25.49830913543701,3.12,-4.09,1.05,5.25
25.49873399734497,1.9,-5.0,1.55,5.56
25.50322389602661,1.82,-5.31,1.95,5.94
25.513247966766357,2.06,-5.23,2.0,5.96
25.523200035095215,2.26,-4.94,1.8,5.72
25.53321099281311,2.7,-5.83,2.0,6.72
25.543206930160522,3.46,-8.43,2.61,9.47
25.553180932998657,4.91,-9.24,3.28,10.96
25.56318187713623,5.3,-7.71,3.71,10.06
25.59807300567627,4.86,-5.9,3.56,8.43
25.59869384765625,4.76,-5.33,3.21,7.83
25.599114894866943,5.06,-5.83,3.38,8.42
25.603026866912842,5.21,-6.66,3.69,9.22
25.613032817840576,4.95,-7.23,3.57,9.46
25.623045921325684,4.18,-7.43,3.31,9.14
25.63300895690918,3.22,-7.5,3.17,8.75
25.64299201965332,2.48,-7.59,3.22,8.6
25.652979850769043,1.97,-7.81,3.41,8.74
25.662992000579834,1.26,-8.17,3.33,8.91
25.698651790618896,0.57,-8.6,2.9,9.09
25.699088096618652,0.18,-8.84,2.5,9.18
25.699512004852295,-0.34,-8.92,2.22,9.19
25.702863931655884,-1.24,-8.72,1.73,8.97
25.71292209625244,-2.14,-7.92,1.24,8.29
25.722890853881836,-2.88,-6.96,1.07,7.6
25.732897996902466,-3.35,-6.2,1.23,7.15
25.742913007736206,-3.63,-5.14,1.2,6.4
25.752784967422485,-4.19,-3.63,0.63,5.57
25.762855052947998,-5.13,-2.04,-0.48,5.54
25.79792594909668,-6.27,-0.24,-1.72,6.5
25.798550128936768,-7.24,1.51,-2.79,7.9
25.79896879196167,-7.78,2.35,-3.71,8.93
25.802772045135498,-8.3,2.16,-4.43,9.65
25.812851905822754,-8.92,1.98,-5.42,10.62
25.82283902168274,-9.17,2.94,-6.3,11.5
25.832731008529663,-6.16,13.5,-9.85,17.81
25.84272813796997,2.43,9.11,-14.64,17.41
25.852967977523804,-3.74,26.07,-8.17,27.57
25.86274790763855,-14.39,44.75,-2.59,47.07
25.898483991622925,-18.46,12.67,-2.88,22.57
25.898916006088257,-5.08,-4.98,3.31,7.84
25.899338006973267,-3.78,-14.52,6.67,16.41
25.902688026428223,-3.49,-12.21,3.66,13.21
25.912647008895874,-3.73,-2.22,-1.46,4.57
25.92261505126953,-3.79,2.37,-3.51,5.68
25.932621955871582,-1.12,3.64,-1.41,4.06
25.94265079498291,0.72,0.97,-0.16,1.21
25.952534914016724,-0.29,-0.95,0.57,1.14
25.962503910064697,-1.38,0.25,-0.79,1.6
25.99939799308777,-0.92,1.27,-1.79,2.37
25.999831914901733,-0.21,0.51,-1.09,1.22
26.000253915786743,0.38,0.18,-1.06,1.14
26.00250482559204,0.79,0.54,-2.13,2.33
26.012475967407227,-0.11,0.37,-3.0,3.02
26.02247190475464,-1.49,0.0,-2.93,3.28
26.032508850097656,-1.76,-0.19,-1.57,2.36
26.042555809020996,-0.86,0.08,-0.34,0.92
26.052417993545532,0.03,0.22,-0.01,0.22
26.062461853027344,0.54,-0.09,0.11,0.55
26.099145889282227,1.06,-0.25,0.28,1.12
26.09957790374756,1.01,-0.07,0.71,1.23
26.10000705718994,0.1,0.4,0.88,0.97
26.102354049682617,-0.54,0.58,0.51,0.94
26.11235284805298,-0.84,0.25,-0.33,0.93
26.122364044189453,-0.74,-0.06,-0.64,0.98
26.13223886489868,-0.19,-0.04,-0.85,0.87
26.14234495162964,0.19,0.07,-0.79,0.81
26.152255058288574,0.54,0.08,-0.64,0.84
26.162317991256714,1.04,0.07,-0.51,1.16
26.199449062347412,1.3,0.09,-0.37,1.35
26.199880123138428,1.27,0.21,-0.24,1.3
26.20029902458191,1.0,0.32,-0.02,1.05
26.202200889587402,0.61,0.53,-0.04,0.8
26.212172031402588,0.46,0.75,-0.26,0.91
26.222108840942383,0.85,0.55,-0.36,1.07
26.232129096984863,1.15,0.17,-0.26,1.19
26.242177963256836,0.93,-0.24,-0.06,0.96
26.252177000045776,0.42,-0.24,-0.38,0.61
26.262189865112305,0.29,0.09,-0.43,0.52
26.298866987228394,0.45,0.26,0.11,0.53
26.29929494857788,0.86,0.32,0.34,0.97
26.299715042114258,0.59,0.45,1.23,1.43
26.302076816558838,0.59,0.95,1.21,1.64
26.312016010284424,1.13,1.45,1.2,2.19
26.32203197479248,1.65,1.43,0.64,2.27
26.332504987716675,1.68,1.31,0.08,2.13
26.342108011245728,1.7,1.4,-0.12,2.2
26.35201406478882,2.01,1.38,-0.42,2.47
26.362028121948242,2.29,1.32,-0.49,2.68
26.398862838745117,2.55,1.32,-0.15,2.87
26.399266958236694,2.94,1.54,0.16,3.32
26.399686813354492,3.2,1.76,0.52,3.68
26.401981830596924,3.62,1.97,0.88,4.21
26.41194486618042,4.11,2.35,0.91,4.82
26.421759128570557,4.76,2.84,0.81,5.6
26.43188500404358,5.52,3.42,0.81,6.54
26.441932916641235,6.64,4.78,0.08,8.18
26.451912879943848,7.87,6.55,-0.48,10.25
26.461874961853027,8.7,8.38,-0.91,12.11
26.499068021774292,9.66,9.79,-1.5,13.83
26.499496936798096,9.63,9.9,-1.59,13.9
26.499916076660156,8.42,9.53,-1.01,12.75
26.50182008743286,7.06,10.09,-1.46,12.4
26.511807918548584,6.13,10.62,-2.14,12.44
26.521724939346313,5.44,13.15,-2.35,14.42
26.532238960266113,2.57,15.82,-1.61,16.1
26.542282104492188,-3.37,15.65,-3.22,16.32
26.551700115203857,-2.71,15.83,-10.06,18.95
26.561754941940308,3.93,13.86,-10.14,17.61
26.59898591041565,7.79,7.87,-5.01,12.15
26.599411010742188,6.34,4.87,-0.74,8.02
26.599835872650146,-8.61,3.42,-2.13,9.5
26.601664066314697,-17.05,0.72,-7.95,18.82
26.611653804779053,-6.34,2.89,-5.05,8.6
26.621660947799683,2.91,2.14,-2.17,4.21
26.63156294822693,5.6,0.32,-0.52,5.63
26.64168095588684,5.33,-1.71,0.9,5.66
26.651548862457275,3.56,-3.75,1.63,5.42
26.661638021469116,2.56,-5.36,2.13,6.31
26.699651956558228,2.67,-6.01,2.53,7.04
26.70007610321045,2.9,-6.18,2.7,7.34
26.700495958328247,2.95,-5.96,2.68,7.16
26.701530933380127,3.07,-5.92,2.78,7.22
26.711557865142822,3.86,-7.16,3.04,8.68
26.721617937088013,4.31,-9.75,3.62,11.25
26.731456995010376,5.54,-10.85,4.1,12.85
26.74147891998291,6.83,-9.3,4.2,12.27
26.75140380859375,6.72,-7.7,4.13,11.02
26.761390924453735,5.99,-7.44,3.86,10.3
26.799994945526123,5.43,-7.78,3.36,10.06
26.800435066223145,5.29,-7.87,2.82,9.89
26.800857067108154,5.23,-7.73,2.48,9.65
26.801302909851074,4.85,-7.43,2.13,9.12
26.81135606765747,4.18,-7.18,1.7,8.48
26.821147918701172,3.49,-7.14,1.54,8.09
26.831228971481323,3.19,-7.29,1.74,8.14
26.841336011886597,3.54,-7.57,2.17,8.63
26.85152006149292,4.19,-7.96,2.96,9.46
26.86116886138916,4.68,-8.07,3.7,10.03
26.871205806732178,4.74,-7.76,4.01,9.93
26.899652004241943,4.53,-7.3,3.84,9.41
26.900074005126953,3.95,-6.35,3.41,8.21
26.901201963424683,2.34,-5.15,2.8,6.31
26.911226987838745,-0.38,-4.14,1.61,4.45
26.921144008636475,-3.17,-3.11,-0.35,4.45
26.93103790283203,-5.53,-1.66,-1.66,6.0
26.941213130950928,-7.48,0.24,-2.64,7.93
26.951185941696167,-9.38,1.79,-3.81,10.28
26.961126804351807,-10.86,3.02,-4.83,12.26
26.971190929412842,-11.76,3.78,-5.85,13.66
26.999439001083374,-11.55,3.58,-6.52,13.73
26.99986505508423,-10.31,3.38,-5.87,12.33
27.001099109649658,-9.46,3.68,-4.97,11.3
27.011109828948975,-8.97,5.46,-4.76,11.52
27.0210018157959,-4.89,16.13,-8.27,18.77
27.030987977981567,7.0,10.21,-8.82,15.19
27.041566848754883,2.78,20.8,-3.09,21.21
27.050969123840332,-0.27,26.42,-0.67,26.42
27.06099796295166,-3.15,8.65,7.98,12.18
27.070913791656494,-8.14,-0.3,7.48,11.05
27.099215984344482,-13.48,-3.31,5.76,15.02
27.09964609146118,-8.82,-5.54,-0.77,10.44
27.100911140441895,-7.01,-3.55,-6.33,10.09
27.110934019088745,-7.07,2.48,-4.89,8.94
27.120802879333496,-6.3,1.67,-3.28,7.29
27.13072395324707,-4.28,0.45,-1.82,4.67
27.140849113464355,-2.49,0.0,-0.16,2.49
27.15084981918335,-0.91,-0.91,-1.22,1.77
27.160850048065186,0.5,-0.25,-2.23,2.29
27.170790910720825,1.21,0.78,-1.63,2.17
27.19971513748169,0.72,1.37,-1.15,1.92
27.200146913528442,0.23,1.22,-1.6,2.02
27.200626850128174,0.17,0.75,-2.33,2.45
27.21075201034546,0.2,0.3,-2.39,2.41
27.220641136169434,0.09,-0.34,-1.56,1.59
27.230644941329956,-0.38,-0.59,-0.37,0.79
27.240800857543945,-0.34,-0.24,0.01,0.41
27.25070095062256,-0.05,0.1,-0.15,0.18
27.260733127593994,0.13,0.06,-0.07,0.15
27.270664930343628,0.37,-0.02,-0.16,0.4
27.3005108833313,0.4,-0.03,-0.06,0.4
27.300929069519043,0.07,0.08,0.4,0.41
27.30134892463684,-0.43,0.1,0.78,0.89
27.310678958892822,-0.83,0.07,0.97,1.27
27.320571899414062,-0.88,0.16,0.16,0.9
27.330549001693726,-0.46,0.15,-0.72,0.86
27.34064793586731,0.27,-0.08,-1.13,1.16
27.350626945495605,0.97,-0.28,-1.57,1.86
27.36057186126709,1.35,-0.25,-1.8,2.26
27.370460987091064,1.81,-0.41,-0.8,2.02
27.40051293373108,1.88,-0.59,-0.56,2.04
27.40094804763794,1.23,-0.16,-0.91,1.53
27.401371955871582,0.82,0.28,-0.37,0.94
27.41046690940857,0.98,-0.17,0.99,1.4
27.42035484313965,1.22,-0.51,0.64,1.46
27.430419921875,1.52,-0.46,0.22,1.6
27.440531969070435,1.64,-0.23,0.2,1.66
27.450336933135986,1.28,0.1,0.2,1.29
27.460432052612305,1.01,0.34,-0.18,1.08
27.4704430103302,0.79,0.4,-0.14,0.89
27.499974966049194,0.42,0.52,-0.43,0.79
27.50039005279541,0.18,0.83,-0.43,0.95
27.50078797340393,0.32,1.16,-0.37,1.25
27.510322093963623,0.77,1.1,-0.24,1.36
27.520308017730713,1.07,0.89,0.17,1.4
27.530327796936035,1.33,0.92,0.35,1.65
27.540311813354492,1.48,1.12,-0.53,1.93
27.550246953964233,1.68,1.27,-0.74,2.23
27.581811904907227,2.11,2.38,-1.1,3.36
27.582240104675293,3.54,3.93,0.78,5.34
27.582656860351562,3.98,3.21,1.84,5.43
27.59015202522278,4.79,3.47,1.38,6.07
27.60018491744995,5.84,4.04,0.87,7.15
27.610207080841064,6.67,4.0,-0.07,7.77
27.620108127593994,6.62,3.76,-0.53,7.63
27.630162954330444,6.55,3.93,-0.6,7.66
27.64021110534668,6.93,6.01,-1.14,9.24
27.650089979171753,8.16,8.54,-1.45,11.9
27.68349313735962,8.75,9.47,-1.39,12.96
27.683920860290527,9.23,9.78,-1.36,13.51
27.68433904647827,8.69,9.94,-1.44,13.28
27.690260887145996,7.8,11.14,-2.59,13.84
27.700501918792725,6.86,13.57,-4.33,15.8
27.71054196357727,4.97,14.89,-5.37,16.59
27.72047996520996,1.69,13.21,-3.56,13.78
27.729990005493164,-3.56,12.92,-6.6,14.93
27.739853858947754,-2.71,13.0,-12.08,17.95
27.74991512298584,4.75,10.68,-7.86,14.08
27.78318500518799,9.07,6.36,-3.18,11.52
27.783617973327637,2.39,3.74,0.94,4.53
27.784037113189697,-14.43,0.38,-2.17,14.59
27.78990411758423,-12.42,0.09,-6.46,13.99
27.79986000061035,-0.47,1.31,-1.93,2.37
27.809945106506348,5.69,0.23,0.04,5.69
27.819828987121582,6.82,-1.51,1.09,7.06
27.829872131347656,4.75,-3.48,2.09,6.24
27.83973002433777,2.77,-5.36,2.4,6.49
27.84982991218567,1.97,-7.06,2.29,7.67
27.88330602645874,2.05,-6.74,2.05,7.33
27.883731842041016,2.17,-6.24,1.58,6.79
27.884182929992676,2.61,-6.72,1.48,7.35
27.889688968658447,3.65,-7.54,2.03,8.61
27.89968204498291,4.75,-8.01,2.77,9.71
27.909783840179443,5.07,-8.01,3.17,9.99
27.91968297958374,5.1,-7.53,3.06,9.59
27.929748058319092,5.51,-7.05,2.75,9.36
27.939579963684082,6.07,-6.8,2.67,9.49
27.94961404800415,6.48,-6.88,2.89,9.88
27.982972145080566,6.55,-7.05,3.06,10.09
27.983398914337158,6.06,-7.13,2.91,9.79
27.98381805419922,5.61,-7.1,2.58,9.4
27.989543914794922,5.25,-7.01,2.25,9.04
27.999701023101807,4.94,-6.93,2.16,8.78
28.01002597808838,4.33,-6.87,2.1,8.38
28.019593000411987,3.58,-6.9,1.98,8.02
28.02958393096924,2.95,-7.06,1.83,7.86
28.03940200805664,2.43,-7.15,1.81,7.76
28.04955792427063,1.98,-7.07,2.01,7.61
28.08376693725586,1.88,-6.96,2.36,7.58
28.08454394340515,2.42,-6.99,3.0,7.98
28.084972858428955,2.93,-6.72,3.6,8.16
28.089343070983887,2.99,-6.02,3.7,7.67
28.09947896003723,2.32,-5.12,3.58,6.66
28.109501838684082,0.79,-3.91,3.1,5.05
28.119476795196533,-1.23,-2.78,2.2,3.75
28.129456043243408,-3.27,-1.66,0.73,3.73
28.139358043670654,-4.88,-0.21,-1.03,4.99
28.149255990982056,-6.12,1.5,-2.51,6.78
28.18278193473816,-7.36,2.81,-3.5,8.62
28.183223009109497,-9.25,3.85,-4.27,10.89
28.183645009994507,-11.45,4.41,-5.89,13.61
28.18940496444702,-11.94,5.62,-7.06,14.96
28.19928503036499,-10.04,8.62,-7.23,15.07
28.20946979522705,-5.29,18.91,-10.62,22.32
28.21971607208252,2.59,13.72,-11.09,17.83
28.22974395751953,-9.51,24.32,-3.05,26.29
28.23942804336548,-13.6,26.94,-6.18,30.8
28.24917197227478,-1.78,6.54,10.25,12.28
28.284348964691162,0.22,-3.68,10.32,10.95
28.285002946853638,-7.78,-3.39,4.35,9.53
28.285422801971436,-9.25,-3.34,-0.51,9.84
28.28939700126648,-5.96,-1.23,-2.37,6.53
28.299109935760498,-5.75,-0.87,-4.15,7.14
28.309064865112305,-4.8,0.14,-4.43,6.53
28.31908392906189,-1.86,1.28,-3.59,4.24
28.329049110412598,0.29,0.27,-1.66,1.7
28.339056968688965,0.43,-0.63,-1.56,1.73
28.349106788635254,0.89,-0.29,-2.35,2.52
28.386287927627563,1.37,0.59,-2.29,2.73
28.386712074279785,1.14,1.31,-1.52,2.3
28.38713002204895,0.31,1.2,-0.74,1.44
28.389048099517822,-0.35,0.29,-0.24,0.51
28.39889097213745,-0.1,-0.07,-0.42,0.43
28.409109115600586,-0.2,-0.23,0.12,0.32
28.418977975845337,-0.54,-0.22,1.17,1.3
28.429004907608032,-0.2,-0.02,1.7,1.71
28.43892478942871,0.33,0.09,1.07,1.12
28.448999881744385,0.33,0.05,-0.44,0.55
28.486001014709473,-0.15,0.0,-1.3,1.3
28.486429929733276,-0.53,0.18,-1.16,1.28
28.486833095550537,-0.8,0.18,-0.83,1.16
28.48882794380188,-1.03,0.15,-0.51,1.15
28.498862981796265,-1.17,0.14,-0.49,1.27
28.508888959884644,-1.09,0.23,-0.28,1.14
28.518850803375244,-0.57,0.37,-0.37,0.77
28.52886700630188,0.37,0.13,-0.45,0.59
28.53882098197937,1.01,-0.06,-0.26,1.04
28.548873901367188,1.23,-0.03,-0.44,1.3
28.58627986907959,1.49,0.08,-0.33,1.52
28.58671283721924,1.36,0.22,-0.18,1.38
28.587131023406982,0.79,0.35,-0.15,0.87
28.58873200416565,0.45,0.28,0.3,0.6
28.59879207611084,0.44,0.13,0.28,0.53
28.608776092529297,0.34,0.07,0.54,0.64
28.618680000305176,0.44,0.01,0.55,0.7
28.628704071044922,0.85,-0.21,0.34,0.93
28.638499975204468,1.57,0.07,0.38,1.61
28.648620128631592,2.11,0.72,0.37,2.25
28.686041831970215,2.3,0.86,0.35,2.48
28.68647289276123,1.91,0.83,-0.21,2.09
28.68689489364624,1.37,1.0,-0.12,1.7
28.688597917556763,0.89,0.98,0.27,1.35
28.69865608215332,0.7,0.82,0.56,1.21
28.708561897277832,0.76,0.85,0.48,1.23
28.718512058258057,1.22,1.15,0.11,1.68
28.728580951690674,1.93,1.32,-0.24,2.35
28.73843812942505,2.68,1.4,-0.64,3.09
28.74861478805542,3.32,1.66,-1.04,3.85
28.78659200668335,3.41,1.91,-1.01,4.03
28.787020921707153,3.52,2.1,-0.78,4.17
28.787439823150635,3.83,2.33,-0.5,4.51
28.788372039794922,4.23,2.54,-0.14,4.93
28.798473834991455,4.8,2.95,0.25,5.63
28.808320999145508,5.29,3.58,0.45,6.4
28.818331956863403,5.7,4.52,0.49,7.29
28.82831382751465,6.53,6.37,-0.15,9.12
28.83831787109375,7.68,7.45,-0.24,10.7
28.848273992538452,8.08,7.89,-0.28,11.29
28.886330127716064,8.0,8.57,-1.1,11.77
28.886754989624023,8.05,9.62,-1.27,12.6
28.887171983718872,7.8,10.79,-1.47,13.39
28.88821291923523,5.05,11.67,-2.51,12.96
28.898168087005615,-1.19,11.49,-4.26,12.31
28.90813398361206,-4.19,13.85,-9.22,17.15
28.91849708557129,-1.53,20.17,-8.57,21.96
28.92826795578003,3.27,15.81,-8.1,18.06
28.938282012939453,6.91,11.14,-5.89,14.37
28.948307991027832,8.54,7.54,-2.45,11.65
28.986247062683105,7.25,4.89,-0.46,8.75
28.986675024032593,-6.44,1.24,-1.21,6.66
28.987097024917603,-14.5,-1.95,-6.58,16.04
28.9879310131073,-4.52,2.56,-3.83,6.45
28.998083114624023,3.05,2.94,-0.32,4.24
29.00798797607422,4.84,0.83,0.84,4.98
29.018149852752686,4.19,-0.51,1.64,4.52
29.02807092666626,3.16,-2.34,1.67,4.27
29.037919998168945,2.88,-3.83,1.51,5.02
29.047922134399414,2.65,-3.9,1.47,4.93
29.08681011199951,2.09,-3.92,1.49,4.68
29.087256908416748,1.38,-4.46,1.74,4.98
29.08768081665039,0.98,-5.11,2.15,5.62
29.088109016418457,1.24,-5.9,2.56,6.54
29.097846031188965,2.07,-6.47,2.99,7.42
29.107844829559326,3.2,-6.67,3.28,8.09
29.11787986755371,3.88,-6.69,3.4,8.44
29.127834796905518,4.12,-6.47,3.5,8.43
29.137815952301025,4.43,-6.3,3.45,8.43
29.147767066955566,4.67,-6.23,3.53,8.54
29.186913013458252,5.07,-6.34,3.65,8.9
29.187334060668945,5.45,-6.4,3.65,9.16
29.187739849090576,5.63,-6.49,3.74,9.37
29.188159942626953,5.64,-6.6,3.72,9.44
29.197847843170166,5.39,-6.65,3.68,9.31
29.207808017730713,5.08,-6.86,3.72,9.31
29.21776580810547,4.72,-7.1,3.74,9.3
29.227789878845215,4.34,-7.36,3.82,9.35
29.237688064575195,4.04,-7.56,4.01,9.46
29.247766971588135,3.81,-7.67,4.04,9.46
29.28666591644287,3.72,-7.47,4.26,9.36
29.287097930908203,3.55,-6.76,4.5,8.86
29.287532806396484,2.99,-5.79,4.67,8.01
29.287953853607178,2.27,-4.65,4.37,6.77
29.29766082763672,1.54,-3.83,3.79,5.6
29.30758285522461,0.13,-3.11,3.09,4.38
29.317698001861572,-2.09,-2.11,1.63,3.38
29.327696800231934,-4.53,-1.18,-0.03,4.68
29.337646961212158,-6.28,-0.35,-1.36,6.43
29.347625017166138,-7.23,0.67,-2.16,7.57
29.38641595840454,-7.8,1.58,-2.11,8.23
29.386847019195557,-8.42,1.62,-2.09,8.82
29.38729190826416,-8.86,1.6,-2.95,9.47
29.38771891593933,-8.93,1.73,-4.81,10.28
29.39756488800049,-8.79,2.01,-6.06,10.86
29.407354831695557,-8.8,2.08,-6.22,10.97
29.417545795440674,-9.44,9.09,-7.29,14.99
29.427546977996826,-1.2,12.67,-12.74,18.0
29.437525987625122,2.73,11.67,-10.16,15.71
29.44812798500061,-12.3,32.7,-11.36,36.73
29.486726999282837,-19.08,33.97,-8.22,39.81
29.48719596862793,-8.59,5.06,7.19,12.29
29.487618923187256,-3.11,-11.01,11.21,16.01
29.488044023513794,-3.44,-16.78,5.95,18.13
29.49744987487793,-2.38,-8.09,-1.76,8.61
29.507208824157715,-5.73,2.52,-6.44,8.98
29.517415046691895,-4.38,4.1,-3.76,7.08
29.527432918548584,-2.77,3.18,-1.07,4.35
29.537328958511353,-0.71,0.86,-0.3,1.15
29.54732894897461,0.07,-0.31,-0.9,0.95
29.58745002746582,0.54,0.28,-0.88,1.06
29.587876796722412,0.77,0.07,-0.09,0.77
29.58829402923584,0.25,0.1,-0.8,0.84
29.58871603012085,-0.73,0.66,-2.16,2.37
29.597371101379395,-1.3,0.64,-2.35,2.76
29.607139110565186,-1.43,0.27,-1.94,2.42
29.617254972457886,-1.87,-0.19,-1.12,2.18
29.627315998077393,-1.43,-0.24,-0.7,1.61
29.63724398612976,-0.8,0.08,-0.87,1.18
29.647207021713257,-0.73,0.02,-0.8,1.08
29.688045978546143,-0.54,-0.12,-0.48,0.73
29.688482999801636,-0.02,-0.2,0.11,0.22
29.688915014266968,0.31,-0.13,0.55,0.64
29.68933391571045,0.16,0.03,0.41,0.44
29.697134017944336,-0.25,0.14,-0.33,0.43
29.707222938537598,-0.58,0.18,-0.82,1.02
29.717127799987793,-0.55,0.1,-0.8,0.97
29.727130889892578,-0.4,-0.04,-0.71,0.81
29.73713779449463,-0.23,-0.21,-0.64,0.71
29.7470440864563,0.25,-0.26,-0.64,0.73
29.788124084472656,0.77,-0.24,-0.5,0.94
29.78855800628662,1.1,-0.21,-0.37,1.17
29.78898000717163,1.35,-0.13,-0.11,1.36
29.789402961730957,1.45,-0.03,0.46,1.52
29.79694700241089,1.38,-0.01,0.74,1.56
29.806968927383423,1.12,-0.08,0.7,1.32
29.81685495376587,0.82,-0.16,0.55,1.0
29.826957941055298,0.61,-0.17,0.57,0.85
29.836951971054077,0.33,-0.11,0.56,0.65
29.84694194793701,0.59,0.23,0.13,0.64
29.85696291923523,1.16,0.41,-0.07,1.23
29.887991905212402,1.75,0.54,-0.22,1.84
29.88841199874878,2.08,0.73,-0.33,2.22
29.888832092285156,1.85,0.85,-0.55,2.1
29.896850109100342,1.11,0.75,-0.31,1.37
29.906879901885986,0.79,0.68,0.05,1.04
29.916772842407227,0.77,0.83,0.08,1.13
29.926865100860596,0.7,1.1,-0.15,1.31
29.936743021011353,0.77,1.08,-0.59,1.45
29.946835041046143,1.54,2.09,-0.96,2.76
29.956748962402344,3.17,3.62,0.63,4.85
29.987493991851807,3.57,3.18,0.78,4.84
29.987924098968506,3.75,3.13,0.59,4.92
29.988341808319092,4.29,3.3,1.06,5.51
29.99669313430786,4.89,3.34,0.41,5.93
30.006558895111084,4.94,3.38,0.22,5.98
30.016556978225708,4.99,3.54,-0.22,6.12
30.026592016220093,5.56,3.88,-0.4,6.79
30.036608934402466,6.51,5.33,-0.9,8.46
30.046677112579346,7.95,7.69,-1.48,11.15
30.056612968444824,9.39,8.74,-1.41,12.9
30.087414979934692,10.3,9.36,-1.37,13.98
30.087843894958496,9.54,9.19,-1.17,13.29
30.088265895843506,7.72,8.7,-0.98,11.67
30.096503973007202,5.54,9.96,-1.18,11.45
30.10659694671631,4.67,12.12,-2.9,13.3
