time,ax,ay,az,atotal
0.0024678707122802734,-0.31,-0.25,0.24,0.46
0.010540962219238281,-0.58,-0.14,-0.01,0.59
0.044606924057006836,-0.22,0.13,-0.29,0.38
0.04627084732055664,0.46,-0.03,-0.45,0.64
0.04761481285095215,0.6,-0.03,-0.35,0.69
0.06561994552612305,0.54,-0.06,-0.51,0.74
0.06713676452636719,0.41,-0.01,-0.55,0.68
0.08219790458679199,0.17,0.1,-0.39,0.43
0.08364081382751465,-0.07,0.08,-0.3,0.31
0.09680581092834473,-0.2,0.05,-0.24,0.31
0.09913969039916992,-0.22,0.1,-0.12,0.26
0.11919689178466797,-0.17,0.08,0.03,0.19
0.14833498001098633,-0.24,0.05,0.15,0.28
0.15015602111816406,-0.29,-0.02,0.21,0.35
0.15152978897094727,-0.29,-0.06,0.28,0.4
0.16584992408752441,-0.14,-0.04,0.25,0.28
0.16736268997192383,0.07,0.12,0.41,0.43
0.1823439598083496,0.25,0.1,0.34,0.43
0.1836857795715332,0.51,-0.07,0.17,0.54
0.19894075393676758,0.62,0.1,0.16,0.64
0.20041370391845703,0.61,-0.02,0.1,0.61
0.21560382843017578,0.5,-0.08,0.12,0.52
0.23949980735778809,0.41,-0.03,0.2,0.45
0.24129080772399902,0.35,0.01,0.24,0.42
0.24249792098999023,0.2,-0.01,0.23,0.3
0.24780893325805664,0.11,0.01,0.2,0.22
0.2659468650817871,0.07,0.04,0.14,0.16
0.26779890060424805,0.01,0.04,0.08,0.09
0.28092098236083984,-0.06,0.04,0.03,0.07
0.28803396224975586,-0.13,0.07,-0.03,0.15
0.29757070541381836,-0.23,0.09,-0.09,0.26
0.30764293670654297,-0.24,0.1,-0.09,0.27
0.33446288108825684,-0.15,0.09,-0.02,0.17
0.3361167907714844,-0.06,0.07,0.03,0.09
0.33791089057922363,-0.02,0.03,0.04,0.05
0.3505287170410156,-0.01,0.03,0.05,0.05
0.3574237823486328,-0.03,0.05,0.06,0.08
0.3670949935913086,-0.07,0.04,0.07,0.1
0.37726593017578125,-0.08,0.0,0.1,0.12
0.386873722076416,0.03,-0.03,0.15,0.15
0.3976917266845703,0.23,0.0,0.22,0.31
0.4100828170776367,0.42,-0.02,0.26,0.49
0.44542884826660156,0.57,-0.03,0.29,0.64
0.4471778869628906,0.54,-0.04,0.3,0.61
0.448544979095459,0.42,-0.02,0.29,0.51
0.46634769439697266,0.29,0.0,0.27,0.39
0.4678468704223633,0.2,-0.01,0.26,0.32
0.4827437400817871,0.14,-0.02,0.26,0.29
0.48407888412475586,0.11,-0.02,0.23,0.25
0.49770593643188477,0.04,0.01,0.2,0.2
0.4991638660430908,-0.02,0.02,0.15,0.15
0.5146689414978027,-0.07,0.0,0.07,0.09
0.5392618179321289,-0.12,0.05,-0.01,0.13
0.5407137870788574,-0.2,0.08,-0.1,0.23
0.5418558120727539,-0.28,0.13,-0.09,0.32
0.5469088554382324,-0.3,0.12,-0.06,0.32
0.555912971496582,-0.21,0.09,0.0,0.22
0.5661649703979492,-0.08,0.05,0.07,0.11
0.5757648944854736,0.04,0.03,0.11,0.12
0.5855348110198975,0.07,0.05,0.11,0.13
0.595646858215332,0.05,0.03,0.1,0.11
0.6058650016784668,0.03,0.01,0.1,0.1
0.640272855758667,0.09,0.04,0.13,0.16
0.6421148777008057,0.19,0.07,0.16,0.25
0.6435480117797852,0.26,0.03,0.19,0.32
0.6454248428344727,0.3,0.01,0.21,0.36
0.6663789749145508,0.36,0.01,0.22,0.42
0.6677327156066895,0.34,-0.04,0.19,0.39
0.6800470352172852,0.29,-0.05,0.13,0.32
0.6846718788146973,0.22,-0.01,0.09,0.23
0.6974258422851562,0.16,0.03,0.04,0.16
0.705265998840332,0.1,0.02,0.05,0.11
0.7427639961242676,0.05,0.01,0.1,0.11
0.74416184425354,0.02,0.0,0.13,0.13
0.745607852935791,-0.01,0.02,0.14,0.14
0.7472288608551025,-0.03,0.04,0.13,0.13
0.7541236877441406,-0.06,0.03,0.08,0.1
0.7645058631896973,-0.09,0.01,0.07,0.11
0.7743568420410156,-0.13,0.04,0.04,0.14
0.7842848300933838,-0.17,0.07,0.07,0.19
0.7940506935119629,-0.17,0.06,0.11,0.21
0.8040459156036377,-0.12,0.07,0.16,0.21
0.8138580322265625,-0.02,0.05,0.19,0.19
0.8422060012817383,0.03,0.06,0.21,0.22
0.8438558578491211,0.06,0.05,0.22,0.23
0.8452649116516113,0.09,0.01,0.19,0.21
0.8532369136810303,0.12,0.02,0.15,0.19
0.8635597229003906,0.07,0.02,0.09,0.11
0.8735408782958984,0.02,0.0,0.04,0.04
0.8832619190216064,0.05,0.01,0.04,0.06
0.8930609226226807,0.12,0.01,0.03,0.12
0.9029998779296875,0.14,0.02,0.02,0.14
0.913672924041748,0.1,0.03,0.08,0.13
0.9417557716369629,0.05,0.05,0.13,0.14
0.9432997703552246,0.02,0.05,0.15,0.15
0.9448037147521973,-0.01,0.03,0.15,0.15
0.9530048370361328,-0.03,0.07,0.21,0.22
0.9628489017486572,-0.02,0.07,0.23,0.24
0.9727497100830078,0.0,0.05,0.21,0.21
0.9826428890228271,-0.03,0.0,0.15,0.15
0.9924829006195068,0.02,-0.02,0.1,0.1
1.00246000289917,0.17,0.0,0.08,0.18
1.0129237174987793,0.28,-0.01,0.02,0.28
1.0404229164123535,0.29,0.03,0.02,0.29
1.0419378280639648,0.24,0.04,0.06,0.25
1.04365873336792,0.19,0.02,0.15,0.24
1.0518927574157715,0.1,0.03,0.23,0.25
1.066098690032959,-0.01,0.08,0.32,0.33
1.071779727935791,-0.11,0.07,0.26,0.29
1.0815787315368652,-0.17,0.08,0.12,0.22
1.091641902923584,-0.1,0.08,0.03,0.13
1.1018078327178955,0.02,0.0,-0.02,0.02
1.112238883972168,0.08,-0.05,-0.09,0.13
1.141751766204834,0.05,0.0,-0.16,0.16
1.1430659294128418,-0.09,0.14,-0.11,0.19
1.144272804260254,-0.26,0.16,0.03,0.3
1.1512260437011719,-0.38,0.11,0.11,0.41
1.161262035369873,-0.42,0.11,0.1,0.44
1.1713037490844727,-0.47,0.1,0.09,0.48
1.1810007095336914,-0.58,0.11,0.1,0.59
1.1909618377685547,-0.64,0.1,0.06,0.65
1.201037883758545,-0.55,0.05,-0.06,0.55
1.2114598751068115,-0.27,0.07,-0.15,0.31
1.2473468780517578,0.07,0.08,-0.17,0.2
1.2491188049316406,0.42,-0.02,-0.09,0.43
1.2506299018859863,0.73,-0.13,0.0,0.74
1.266786813735962,0.84,-0.12,-0.1,0.85
1.2682700157165527,0.71,-0.02,-0.25,0.75
1.2825627326965332,0.45,0.03,-0.36,0.57
1.2839879989624023,0.14,0.13,-0.36,0.4
1.298238754272461,-0.06,0.09,-0.29,0.3
1.2999467849731445,-0.12,0.01,-0.1,0.15
1.3149337768554688,-0.08,-0.01,0.17,0.18
1.3439178466796875,-0.09,0.05,0.43,0.44
1.3458209037780762,-0.18,0.15,0.51,0.56
1.3472867012023926,-0.26,0.14,0.47,0.55
1.3672800064086914,-0.37,0.17,0.33,0.52
1.368743896484375,-0.61,0.19,0.17,0.66
1.3825018405914307,-0.69,0.11,0.06,0.7
1.3839597702026367,-0.42,0.03,-0.02,0.42
1.3983750343322754,-0.01,0.02,-0.11,0.11
1.4006648063659668,0.16,0.0,-0.15,0.21
1.4160008430480957,0.1,0.01,-0.14,0.17
1.4423868656158447,-0.04,0.03,-0.15,0.15
1.4442188739776611,-0.13,0.04,-0.19,0.23
1.4454779624938965,-0.06,-0.01,-0.2,0.2
1.4487566947937012,0.15,-0.1,-0.16,0.24
1.4589037895202637,0.26,-0.11,0.02,0.28
1.4690747261047363,0.19,-0.04,0.26,0.32
1.479017734527588,-0.02,-0.05,0.39,0.39
1.488792896270752,-0.19,-0.07,0.36,0.41
1.4987759590148926,-0.16,-0.06,0.3,0.34
1.5087568759918213,-0.03,-0.02,0.27,0.27
1.543698787689209,0.03,0.05,0.28,0.28
1.545516014099121,0.26,0.08,0.41,0.49
1.5469129085540771,0.44,-0.12,0.41,0.61
1.567025899887085,0.43,-0.3,0.27,0.58
1.568490982055664,0.26,-0.19,0.16,0.35
1.5829498767852783,0.0,0.05,0.21,0.21
1.5844438076019287,-0.16,0.17,0.32,0.39
1.5993328094482422,-0.17,0.03,0.1,0.19
1.6017727851867676,-0.31,-0.12,-0.1,0.34
1.6165809631347656,-0.22,-0.07,-0.1,0.25
1.6208128929138184,0.1,0.05,0.15,0.18
1.6514978408813477,0.22,0.0,0.46,0.5
1.6531357765197754,0.11,-0.05,0.45,0.46
1.654587745666504,-0.02,-0.06,0.19,0.2
1.6678619384765625,-0.21,-0.04,0.07,0.22
1.6693487167358398,-0.18,0.07,0.08,0.2
1.683243751525879,-0.06,0.04,0.23,0.24
1.6872119903564453,-0.02,-0.04,0.34,0.34
1.698429822921753,0.22,-0.01,0.25,0.33
1.7071778774261475,0.44,-0.12,0.13,0.47
1.7168569564819336,0.29,-0.15,0.09,0.33
1.7427008152008057,0.07,0.04,0.0,0.08
1.7445149421691895,-0.04,0.07,-0.1,0.12
1.7467107772827148,0.09,0.01,0.11,0.14
1.7567968368530273,0.1,-0.14,0.42,0.45
1.7667248249053955,0.05,-0.2,0.5,0.54
1.7765998840332031,0.02,-0.07,0.66,0.66
1.7865729331970215,0.3,-0.13,0.81,0.87
1.797083854675293,0.68,-0.11,0.72,0.99
1.8093199729919434,0.65,-0.07,0.58,0.87
1.8167648315429688,0.38,-0.08,0.43,0.57
1.84326171875,0.41,-0.08,0.36,0.55
1.8450379371643066,0.59,-0.06,0.49,0.76
1.846426010131836,0.71,-0.08,0.46,0.84
1.8561108112335205,0.4,-0.03,0.06,0.4
1.8659098148345947,-0.26,0.02,-0.28,0.38
1.8756217956542969,-0.29,0.03,-0.32,0.43
1.8858559131622314,0.1,0.02,-0.23,0.25
1.8959388732910156,0.09,0.07,-0.07,0.13
1.905587911605835,-0.37,0.15,0.02,0.39
1.9161248207092285,-0.48,0.21,0.01,0.52
1.9469037055969238,0.15,0.21,0.6,0.65
1.9484729766845703,0.38,0.36,0.68,0.85
1.9495978355407715,0.01,0.28,0.27,0.38
1.9671058654785156,-0.08,0.16,-0.03,0.18
1.9686017036437988,0.1,-0.01,-0.28,0.29
1.9832377433776855,0.18,-0.04,-0.42,0.45
1.9848148822784424,0.1,0.02,-0.43,0.44
1.998689889907837,0.02,0.12,-0.25,0.27
2.004786968231201,0.12,0.09,-0.13,0.19
2.015511989593506,0.18,-0.09,0.05,0.2
2.0501468181610107,0.17,-0.1,0.18,0.26
2.0519609451293945,0.08,-0.06,0.13,0.16
2.0534229278564453,-0.08,0.06,-0.01,0.1
2.0671629905700684,0.0,0.14,0.17,0.22
2.068650722503662,0.18,0.13,0.13,0.25
2.084066867828369,0.17,0.02,-0.26,0.31
2.0855648517608643,-0.02,-0.03,-0.52,0.52
2.0989837646484375,-0.17,-0.03,-0.61,0.63
2.1039810180664062,-0.33,0.05,-0.65,0.73
2.1146838665008545,-0.6,0.18,-0.62,0.88
2.1492068767547607,-1.01,0.29,-0.53,1.17
2.1509578227996826,-1.35,0.42,-0.55,1.51
2.152448892593384,-1.46,0.52,-0.54,1.64
2.1672399044036865,-1.37,0.64,-0.5,1.59
2.168733835220337,-1.25,0.75,-0.56,1.56
2.1833457946777344,-1.04,0.93,-0.6,1.51
2.1848418712615967,-0.79,1.21,-0.7,1.6
2.1987037658691406,-0.44,1.41,-1.0,1.78
2.2031939029693604,-0.07,1.46,-0.97,1.75
2.215615749359131,-0.27,1.26,-1.13,1.71
2.249760866165161,-1.05,1.55,-1.53,2.41
2.251495838165283,-2.05,2.86,-1.52,3.83
2.253021717071533,-2.44,3.18,-0.6,4.05
2.2674169540405273,-1.51,1.54,0.15,2.16
2.268867015838623,0.07,-0.63,0.33,0.71
2.2830638885498047,1.8,-2.39,0.24,3.0
2.2845349311828613,3.23,-3.27,-0.76,4.65
2.2987799644470215,4.29,-3.58,-1.67,5.83
2.3024797439575195,4.85,-4.68,-1.05,6.82
2.3150839805603027,1.99,-5.57,0.17,5.91
2.345491886138916,-1.81,-4.99,0.49,5.33
2.347306728363037,-4.14,-4.98,-0.98,6.54
2.3484597206115723,-3.7,-3.6,-0.84,5.23
2.3672947883605957,-0.29,-3.42,-1.67,3.81
2.3687987327575684,3.65,-1.65,-3.16,5.1
2.3834798336029053,8.63,0.86,-5.16,10.09
2.3850018978118896,10.34,3.31,-1.82,11.0
2.3989367485046387,8.01,-0.13,5.16,9.52
2.40162992477417,0.01,-1.56,6.47,6.65
2.418853759765625,-4.96,0.87,7.61,9.12
2.4239439964294434,-6.73,2.11,10.44,12.59
2.451751708984375,-9.47,6.45,12.35,16.84
2.4534149169921875,-9.69,4.76,7.18,12.96
2.455195903778076,-5.21,0.21,-0.38,5.22
2.4683709144592285,0.33,0.32,-3.38,3.41
2.47135591506958,2.48,0.08,-4.41,5.06
2.481196880340576,2.51,0.27,-4.25,4.94
2.491175889968872,1.35,0.82,-2.89,3.29
2.501096725463867,-0.24,0.5,-1.44,1.54
2.510921001434326,-0.73,0.35,-0.45,0.92
2.5213699340820312,-0.29,0.42,-0.35,0.61
2.5512619018554688,0.04,0.57,-0.53,0.77
2.5526347160339355,0.05,0.59,-0.29,0.65
2.5536649227142334,-0.09,0.33,0.18,0.38
2.5675199031829834,-0.17,0.2,0.23,0.34
2.5705599784851074,0.32,0.21,0.04,0.38
2.5833308696746826,1.01,0.08,-0.2,1.03
2.590315818786621,1.75,-0.18,-0.12,1.76
2.600278854370117,2.17,-0.47,0.32,2.24
2.6102919578552246,1.76,-0.55,0.47,1.9
2.6206278800964355,0.95,-0.4,0.51,1.15
2.6511597633361816,0.3,-0.2,0.49,0.6
2.652534008026123,0.04,-0.06,0.27,0.27
2.6536178588867188,-0.02,-0.09,0.08,0.12
2.667726993560791,0.05,-0.18,0.13,0.22
2.6696887016296387,0.28,-0.3,0.31,0.51
2.6834659576416016,0.12,-0.29,0.47,0.56
2.6898326873779297,-0.11,-0.2,0.53,0.57
2.699476718902588,-0.17,0.01,0.29,0.33
2.709488868713379,-0.68,0.36,-0.67,1.02
2.7199838161468506,-1.54,0.79,-1.2,2.1
2.7529497146606445,-1.55,0.61,-0.64,1.78
2.754422903060913,-1.02,0.35,-0.23,1.1
2.7554428577423096,-0.69,0.29,-0.37,0.83
2.767645835876465,-0.74,0.28,-0.49,0.93
2.769129753112793,-0.79,0.27,-0.56,1.0
2.7836499214172363,-0.68,0.24,-0.52,0.88
2.788874864578247,-0.33,0.12,-0.34,0.48
2.798888921737671,0.05,-0.01,-0.11,0.12
2.8088927268981934,0.34,-0.13,0.13,0.38
2.819276809692383,0.64,-0.21,0.27,0.72
2.8567237854003906,0.67,-0.24,0.02,0.71
2.8584179878234863,0.35,-0.15,-0.35,0.51
2.8594489097595215,-0.38,0.02,-0.32,0.49
2.8636248111724854,-1.39,0.27,-0.24,1.43
2.8682188987731934,-1.37,0.6,-0.04,1.49
2.88370680809021,-0.91,0.47,0.17,1.03
2.888199806213379,-0.66,0.28,0.05,0.71
2.8990960121154785,-0.66,0.22,-0.33,0.77
2.9080209732055664,-0.86,0.27,-0.61,1.08
2.9178037643432617,-1.11,0.3,-0.72,1.35
2.9516687393188477,-1.31,0.4,-0.8,1.58
2.9535088539123535,-1.37,0.44,-0.84,1.66
2.9549827575683594,-1.34,0.38,-0.79,1.6
2.9677577018737793,-1.31,0.24,-0.76,1.53
2.9692649841308594,-0.65,0.29,-0.77,1.04
2.9838788509368896,0.04,0.37,-0.76,0.84
2.9874520301818848,0.48,0.46,-0.87,1.09
2.9989888668060303,0.83,0.5,-1.09,1.45
3.0070090293884277,0.87,0.43,-1.25,1.58
3.017077922821045,0.61,0.29,-0.83,1.07
3.0523200035095215,0.44,0.35,-0.55,0.78
3.05414080619812,-0.08,0.83,-0.83,1.17
3.0555787086486816,-0.36,1.21,-0.84,1.51
3.0687878131866455,-0.47,1.54,-0.9,1.84
3.0703678131103516,-0.77,2.44,-0.42,2.59
3.083559036254883,-1.46,3.26,1.04,3.72
3.086681842803955,-1.74,3.68,0.44,4.09
3.0986227989196777,-1.38,4.23,-0.44,4.47
3.1063928604125977,-0.95,4.33,0.05,4.43
3.116360902786255,0.18,3.93,-0.12,3.93
3.155228853225708,0.89,3.19,-0.39,3.33
3.1569948196411133,1.08,2.72,-0.67,3.0
3.1583309173583984,0.82,3.02,-0.84,3.24
3.164824962615967,0.14,2.88,-1.05,3.06
3.1658287048339844,-0.47,2.64,-1.85,3.25
3.183727741241455,-1.07,2.72,-2.19,3.65
3.1857848167419434,-1.77,2.65,-2.21,3.87
3.199126720428467,-2.09,2.18,-2.59,3.97
3.205871820449829,-2.4,1.56,-3.18,4.27
3.2156357765197754,-2.7,1.14,-3.7,4.72
3.22574782371521,-2.05,1.33,-3.29,4.09
3.255873918533325,-1.02,1.83,-2.52,3.27
3.2570319175720215,0.34,3.27,-2.0,3.84
3.258107900619507,1.82,4.95,-2.52,5.84
3.267883777618408,-0.06,3.45,-4.37,5.56
3.2754087448120117,-2.18,1.69,-4.78,5.51
3.2849597930908203,-3.13,0.76,-4.48,5.51
3.295285701751709,-4.53,-0.42,-4.72,6.55
3.30517578125,-2.13,0.33,-4.06,4.59
3.3150618076324463,-0.96,-0.21,-3.3,3.44
3.324923038482666,-3.85,-0.56,-3.81,5.44
3.3553667068481445,-6.78,-0.38,-4.49,8.14
3.356743812561035,-8.02,-0.61,-4.31,9.12
3.357787847518921,-7.55,-1.19,-3.6,8.44
3.3673808574676514,-6.19,-2.01,-3.03,7.17
3.374701976776123,-4.85,-2.6,-2.79,6.16
3.384312868118286,-4.25,-2.71,-2.51,5.63
3.394223690032959,-4.3,-2.52,-2.25,5.46
3.404143810272217,-4.73,-2.32,-2.0,5.63
3.4143338203430176,-5.21,-2.21,-1.57,5.87
3.4242608547210693,-5.41,-2.15,-0.95,5.89
3.453807830810547,-5.11,-2.16,-0.29,5.55
3.4554648399353027,-4.55,-2.04,0.16,4.98
3.456480026245117,-4.13,-1.83,0.52,4.54
3.463541030883789,-4.12,-1.49,0.87,4.46
3.473841905593872,-4.38,-1.05,1.18,4.65
3.4837160110473633,-4.56,-0.7,1.34,4.8
3.493574857711792,-4.34,-0.43,1.58,4.63
3.503592014312744,-3.62,-0.12,2.07,4.17
3.513679027557373,-2.48,0.09,2.53,3.54
3.5234618186950684,-1.23,0.29,2.74,3.01
3.5547118186950684,-0.08,0.59,2.67,2.73
3.556119918823242,0.78,0.94,2.53,2.8
3.5571327209472656,1.44,1.26,2.5,3.14
3.568099021911621,2.14,1.59,2.67,3.77
3.5730910301208496,3.07,1.7,2.77,4.47
3.5838799476623535,4.12,1.61,2.6,5.13
3.5932350158691406,4.99,1.91,2.43,5.86
3.6029608249664307,5.82,2.26,2.6,6.76
3.612879753112793,6.63,1.88,2.8,7.43
3.6230649948120117,7.23,1.55,3.07,8.0
3.6618409156799316,7.64,1.53,3.18,8.41
3.6634418964385986,7.98,1.63,2.9,8.64
3.664451837539673,8.49,1.81,2.5,9.03
3.6844239234924316,8.87,1.47,2.8,9.41
3.6859068870544434,8.54,0.62,3.72,9.33
3.700593948364258,7.57,-0.13,4.51,8.81
3.702065944671631,6.6,-0.81,4.99,8.31
3.7158827781677246,5.94,-1.42,5.12,7.96
3.7173588275909424,5.49,-0.89,4.87,7.39
3.7329177856445312,4.87,1.28,3.86,6.34
3.7607858180999756,7.6,0.26,3.49,8.36
3.7621097564697266,14.41,-0.45,4.68,15.15
3.7630720138549805,15.61,0.21,5.03,16.4
3.7845540046691895,6.47,-0.06,1.61,6.66
3.7860217094421387,-3.12,-0.73,-0.71,3.28
3.8006668090820312,-6.17,0.73,-0.98,6.28
3.8021209239959717,-4.02,3.41,0.24,5.27
3.816274881362915,-1.55,4.45,1.72,5.01
3.8177309036254883,-0.58,1.71,2.16,2.81
3.8357057571411133,-0.02,-0.78,2.45,2.57
3.862061023712158,0.36,-0.52,2.51,2.58
3.8635098934173584,0.16,-0.09,1.62,1.63
3.8645267486572266,-0.06,-0.25,0.71,0.75
3.8843488693237305,0.21,-0.63,-0.15,0.68
3.8858509063720703,1.01,-0.69,-1.08,1.63
3.90073299407959,1.7,-0.33,-1.44,2.25
3.9022679328918457,1.44,0.28,-1.0,1.77
3.916118860244751,0.48,0.44,-0.17,0.67
3.9176249504089355,-0.01,0.16,0.42,0.44
3.920233726501465,-0.06,0.01,0.56,0.56
3.9546589851379395,-0.25,0.06,0.3,0.39
3.955976963043213,-0.56,0.11,-0.12,0.58
3.9569997787475586,-0.72,0.2,-0.49,0.89
3.9682798385620117,-0.62,0.23,-0.37,0.75
3.969529867172241,-0.32,0.34,0.11,0.47
3.9839987754821777,-0.1,0.55,0.18,0.58
3.9897239208221436,0.15,0.34,-0.15,0.4
3.99967098236084,0.57,0.08,-0.1,0.58
4.009694814682007,0.61,0.06,-0.11,0.62
4.019596815109253,0.76,-0.12,-0.36,0.84
4.029728889465332,1.03,-0.13,-0.19,1.05
4.060796737670898,1.12,-0.05,-0.03,1.12
4.061927795410156,1.02,-0.08,0.05,1.02
4.0628979206085205,0.81,-0.19,0.25,0.86
4.085086822509766,0.7,-0.24,0.48,0.88
4.0864598751068115,0.7,-0.21,0.58,0.93
4.100870847702026,0.64,-0.19,0.49,0.82
4.102351903915405,0.55,-0.17,0.42,0.71
4.116131782531738,0.37,-0.17,0.23,0.46
4.118821859359741,0.15,-0.08,0.08,0.18
4.135956764221191,-0.12,0.05,-0.02,0.13
4.163013935089111,-0.4,0.14,-0.25,0.49
4.164423942565918,-0.66,0.24,-0.29,0.75
4.165470838546753,-0.83,0.31,-0.34,0.94
4.184332847595215,-0.71,0.31,-0.07,0.77
4.185698986053467,-0.37,0.13,0.02,0.39
4.200831890106201,-0.11,0.01,-0.01,0.11
4.202314853668213,-0.04,-0.02,-0.06,0.07
4.216336727142334,0.21,-0.12,-0.12,0.26
4.2178449630737305,0.32,-0.06,0.05,0.32
4.232516765594482,0.13,0.16,0.18,0.27
4.259048938751221,-0.01,0.29,0.08,0.3
4.2604358196258545,0.03,0.38,-0.13,0.4
4.261474847793579,0.04,0.4,-0.46,0.61
4.267464876174927,-0.15,0.33,-0.81,0.88
4.277514934539795,-0.54,0.3,-0.88,1.07
4.287797927856445,-1.15,0.22,-0.85,1.44
4.297526836395264,-1.47,0.27,-1.07,1.83
4.307501792907715,-1.71,0.2,-0.81,1.9
4.317386865615845,-2.13,0.26,-0.41,2.18
4.327401876449585,-2.12,0.34,-0.31,2.16
4.357742786407471,-1.83,0.29,-0.36,1.88
4.358929872512817,-1.82,0.37,-0.6,1.95
4.360171794891357,-1.8,0.45,-0.81,2.02
4.366703033447266,-1.52,0.41,-0.88,1.8
4.376554012298584,-1.27,0.31,-0.9,1.58
4.387068748474121,-0.89,0.13,-0.98,1.33
4.396965026855469,-0.16,0.08,-0.71,0.73
4.406766891479492,0.51,0.11,-0.6,0.79
4.416709899902344,0.58,0.18,-0.73,0.94
4.426570892333984,0.22,0.27,-0.84,0.9
4.4645209312438965,0.27,0.29,-0.64,0.75
4.4661407470703125,0.79,0.16,-0.15,0.81
4.46710991859436,0.88,0.02,-0.12,0.88
4.485180854797363,0.23,0.35,-0.66,0.78
4.486637830734253,-0.17,0.74,-0.73,1.05
4.499655723571777,0.13,0.95,-0.56,1.11
4.501124858856201,0.34,1.55,-0.19,1.59
4.516333818435669,-0.16,1.79,0.61,1.89
4.517805814743042,-0.97,2.28,0.46,2.52
4.533265829086304,-1.02,2.76,-0.15,2.94
4.561868906021118,-0.82,2.99,-0.53,3.14
4.563279867172241,-0.85,2.95,-0.46,3.1
4.564305782318115,-0.37,2.75,-0.71,2.86
4.584869861602783,0.52,2.17,-0.53,2.29
4.585937976837158,0.63,1.4,-0.57,1.63
4.601127862930298,0.48,1.27,-0.54,1.46
4.602624893188477,0.36,1.69,-0.14,1.73
4.616454839706421,0.06,1.85,0.03,1.85
4.617894887924194,-0.25,1.83,-0.12,1.85
4.632551908493042,-0.59,2.14,-0.19,2.22
4.6595618724823,-1.26,2.28,-0.47,2.64
4.661033868789673,-1.85,2.23,-0.89,3.03
4.66206169128418,-1.96,2.33,-1.38,3.34
4.664697885513306,-2.08,2.71,-1.97,3.94
4.674487829208374,-2.07,2.89,-2.43,4.3
4.6844987869262695,-1.28,2.23,-2.58,3.64
4.694766998291016,0.32,1.41,-2.57,2.94
4.704486846923828,1.86,1.6,-2.69,3.64
4.71451473236084,3.92,3.43,-2.97,5.99
4.724404811859131,2.68,3.08,-4.03,5.73
4.759223937988281,-0.08,0.86,-3.99,4.08
4.7606658935546875,-0.73,-0.38,-2.79,2.9
4.7616448402404785,-1.16,-1.48,-2.45,3.08
4.76411771774292,-0.83,-1.48,-2.74,3.22
4.784726858139038,0.3,-1.31,-2.6,2.92
4.786201000213623,-3.12,-1.65,-3.34,4.85
4.799802780151367,-7.51,-1.02,-4.05,8.59
4.803658962249756,-9.72,-0.39,-3.37,10.29
4.816048860549927,-8.88,-0.05,-2.27,9.16
4.823438882827759,-6.18,-0.69,-1.97,6.52
4.833360910415649,-4.22,-1.25,-2.01,4.83
4.864875793457031,-3.67,-1.12,-2.21,4.42
4.866405963897705,-4.19,-0.64,-2.22,4.78
4.8674468994140625,-5.03,-0.63,-1.75,5.36
4.885119915008545,-5.34,-1.28,-1.12,5.6
4.8865647315979,-4.99,-1.54,-0.76,5.27
4.901260852813721,-4.4,-1.23,-0.74,4.62
4.902747869491577,-3.99,-0.74,-0.96,4.17
4.916673898696899,-3.93,-0.52,-1.19,4.13
4.922877788543701,-4.07,-0.15,-1.37,4.29
4.93281888961792,-4.09,0.26,-1.49,4.36
4.965157985687256,-3.77,0.6,-1.34,4.04
4.966434955596924,-3.04,0.75,-0.96,3.27
4.96746301651001,-2.14,0.62,-0.79,2.36
4.984624862670898,-1.52,0.39,-0.69,1.71
4.985826015472412,-1.14,0.25,-0.47,1.25
5.000951766967773,-0.8,0.28,-0.16,0.86
5.002439022064209,-0.49,0.36,0.21,0.64
5.016530990600586,-0.2,0.48,0.66,0.84
5.022089958190918,0.07,0.57,1.1,1.24
5.033627986907959,0.37,0.49,1.57,1.68
5.062380790710449,0.65,0.12,1.96,2.06
5.063809871673584,0.91,-0.13,2.32,2.49
5.064826011657715,1.37,-0.14,2.79,3.11
5.0848329067230225,2.07,-0.28,3.01,3.66
5.086334705352783,2.56,-0.34,2.98,3.94
5.101141929626465,2.79,-0.18,3.07,4.15
5.102613925933838,2.96,-0.02,3.32,4.44
5.1168248653411865,3.11,0.1,3.63,4.78
5.121205806732178,3.2,0.27,3.78,4.95
5.13274884223938,3.38,0.65,3.81,5.13
5.1632490158081055,3.7,1.09,3.76,5.38
5.164601802825928,4.09,1.44,3.69,5.69
5.1655778884887695,4.66,1.56,3.54,6.05
5.184962749481201,5.41,1.26,3.33,6.47
5.186462879180908,6.14,0.82,3.17,6.95
5.2013208866119385,6.73,0.57,2.98,7.38
5.202785968780518,7.2,0.56,2.72,7.71
5.216723918914795,7.46,0.6,2.53,7.9
5.220597743988037,7.4,1.19,2.42,7.87
5.23331880569458,6.29,3.96,1.93,7.67
5.268765926361084,7.49,1.18,1.54,7.73
5.270131826400757,9.4,0.89,2.62,9.79
5.271177768707275,9.69,1.24,2.96,10.2
5.285364866256714,8.26,0.7,2.02,8.53
5.286837816238403,5.97,0.44,1.77,6.24
5.301235914230347,5.23,0.47,2.58,5.85
5.302661895751953,3.23,-1.1,2.46,4.2
5.316720008850098,-0.2,-1.36,1.36,1.93
5.319708824157715,-2.88,-0.26,1.28,3.16
5.332818031311035,-3.32,-0.17,1.43,3.61
5.367400884628296,-2.07,-0.15,1.73,2.7
5.368827819824219,-0.52,0.27,2.16,2.23
5.369875907897949,1.3,1.1,2.27,2.83
5.385443687438965,2.08,1.63,1.61,3.09
5.386844873428345,1.29,1.01,0.52,1.71
5.4012908935546875,0.69,-0.23,0.79,1.07
5.402740001678467,1.29,-0.9,1.55,2.2
5.416960716247559,2.16,-1.05,1.57,2.86
5.418960809707642,2.46,-0.84,0.88,2.74
5.433036804199219,1.85,-0.35,0.31,1.9
5.4669318199157715,0.84,0.04,0.26,0.88
5.468433856964111,-0.29,0.28,0.39,0.56
5.46946382522583,-1.2,0.39,0.67,1.42
5.485589981079102,-1.41,0.36,0.42,1.51
5.487055778503418,-0.99,0.32,-0.33,1.09
5.501510858535767,-0.36,0.26,-0.79,0.9
5.502985954284668,-0.39,0.3,-0.64,0.8
5.516880989074707,-0.92,0.33,-0.56,1.12
5.518296718597412,-0.77,0.14,-0.56,0.96
5.532840728759766,-0.26,-0.11,-0.27,0.39
5.568281888961792,-0.12,0.02,0.17,0.2
5.569535732269287,-0.47,0.46,0.0,0.65
5.5705389976501465,-0.83,0.63,-0.74,1.27
5.585316896438599,-0.47,0.48,-1.09,1.28
5.586345911026001,0.73,0.18,-1.14,1.36
5.601533889770508,1.84,0.02,-0.89,2.04
5.603025913238525,2.51,-0.13,-0.7,2.6
5.616909980773926,2.48,-0.13,-0.3,2.5
5.6182427406311035,1.77,-0.16,0.19,1.78
5.6331048011779785,1.13,-0.19,0.75,1.36
5.637241840362549,0.67,-0.19,0.98,1.2
5.6783668994903564,0.43,-0.07,0.89,0.99
5.679549694061279,0.27,0.05,0.86,0.9
5.680527687072754,0.06,-0.12,0.71,0.72
5.701918840408325,0.03,-0.16,0.54,0.56
5.703393936157227,-0.03,-0.12,0.56,0.57
5.718263864517212,-0.4,-0.11,0.61,0.73
5.719730854034424,-0.59,-0.13,0.28,0.66
5.733646869659424,-0.33,-0.03,-0.19,0.38
5.7350640296936035,-0.25,0.19,-0.69,0.75
5.749856948852539,-0.44,0.28,-0.87,1.01
5.780019760131836,0.12,0.14,-0.41,0.44
5.781479835510254,0.18,0.16,0.06,0.24
5.7824788093566895,-0.24,0.19,-0.05,0.31
5.801951885223389,-0.38,0.18,0.0,0.42
5.8034398555755615,-0.33,0.16,0.25,0.44
5.818058013916016,-0.41,0.09,0.08,0.42
5.8195579051971436,-0.6,0.22,-0.1,0.64
5.833789825439453,-0.81,0.26,-0.17,0.86
5.835210800170898,-0.94,0.31,-0.44,1.08
5.8498077392578125,-1.03,0.31,-0.94,1.42
5.8799920082092285,-0.69,0.22,-1.01,1.24
5.881364822387695,-0.34,0.13,-0.65,0.74
5.882378816604614,-0.38,0.1,-0.17,0.42
5.9022438526153564,-0.44,0.17,-0.03,0.47
5.903687953948975,-0.16,0.18,-0.04,0.24
5.918179988861084,0.04,0.16,-0.03,0.16
5.919674873352051,-0.13,0.13,-0.3,0.35
5.933746814727783,-0.53,0.07,-0.52,0.74
5.935239791870117,-1.08,0.12,-0.47,1.18
5.949833869934082,-1.34,0.18,-0.4,1.4
5.976371765136719,-1.05,0.09,-0.22,1.07
5.977728843688965,-0.73,0.07,-0.11,0.74
5.978759765625,-0.86,-0.02,-0.07,0.86
5.981346845626831,-1.23,-0.05,-0.27,1.26
6.001319885253906,-0.93,0.39,-0.52,1.13
6.002367973327637,-0.35,0.68,-0.56,0.94
6.017865896224976,0.11,0.46,-0.72,0.86
6.0193328857421875,0.18,-0.07,-0.79,0.81
6.03409481048584,0.34,-0.43,-0.44,0.7
6.035540819168091,0.48,-0.5,-0.14,0.7
6.07772970199585,0.49,-0.3,0.09,0.58
6.078871726989746,0.39,-0.17,0.2,0.47
6.0800299644470215,0.51,0.03,0.5,0.71
6.081690788269043,0.76,0.03,0.69,1.02
6.083686828613281,0.98,0.17,0.24,1.02
6.093743801116943,0.99,0.17,-0.25,1.03
6.103841781616211,0.83,0.23,-0.46,0.97
6.113970756530762,0.41,0.56,-0.64,0.94
6.123788833618164,-0.11,0.79,-0.54,0.96
6.13373589515686,-0.36,0.72,-0.58,0.99
6.168957710266113,-0.22,0.59,-0.54,0.82
6.170127868652344,-0.08,0.61,-0.44,0.75
6.171141862869263,0.09,0.89,-0.5,1.02
6.1852707862854,0.58,1.11,-0.07,1.25
6.186300754547119,1.17,0.57,0.98,1.62
6.201801776885986,1.45,0.32,1.66,2.22
6.2032999992370605,0.45,0.57,1.49,1.65
6.217229843139648,-0.65,0.9,1.68,2.01
6.222891807556152,-1.52,1.17,2.28,2.97
6.233245849609375,-2.16,1.64,2.64,3.78
6.271665811538696,-2.31,2.32,2.43,4.07
6.272964954376221,-2.45,2.61,2.14,4.17
6.273962020874023,-1.93,2.91,1.67,3.87
6.285440921783447,-1.47,3.41,0.52,3.74
6.286487817764282,-1.23,3.65,-0.79,3.93
6.301796913146973,-1.02,3.52,-2.07,4.2
6.303263902664185,-0.94,2.98,-2.78,4.18
6.317218780517578,-0.93,2.27,-3.36,4.16
6.322305917739868,-0.83,1.85,-3.6,4.13
6.333340883255005,-0.95,1.83,-3.25,3.84
6.369805812835693,-0.96,1.77,-3.05,3.65
6.371175765991211,-0.79,1.47,-2.98,3.41
6.372182846069336,-0.82,1.49,-2.52,3.04
6.385523796081543,-0.89,1.12,-2.01,2.46
6.38657283782959,-0.63,0.91,-1.8,2.11
6.401944875717163,-0.45,1.01,-2.37,2.61
6.403395891189575,-0.21,0.94,-2.43,2.61
6.417454719543457,1.37,1.44,-1.58,2.53
6.421442031860352,2.52,2.61,-1.18,3.81
6.433253765106201,1.53,2.48,-1.54,3.29
6.441526889801025,0.34,1.69,-1.57,2.33
6.481396913528442,-0.25,0.99,-1.22,1.59
6.4825358390808105,-0.82,0.15,-1.36,1.59
6.483433723449707,-1.39,-0.51,-2.01,2.49
6.502368927001953,-2.22,-1.17,-2.51,3.54
6.503803730010986,-2.3,-0.99,-3.27,4.11
6.516780853271484,0.78,-0.23,-3.69,3.77
6.518260955810547,-0.9,-0.76,-3.79,3.96
6.533908843994141,-4.49,-0.03,-4.45,6.32
6.535419940948486,-6.66,0.85,-4.59,8.13
6.550227880477905,-6.63,0.83,-3.79,7.68
6.579586982727051,-5.29,0.15,-3.02,6.09
6.581012725830078,-4.23,-0.29,-2.74,5.04
6.58202600479126,-4.16,-0.24,-2.62,4.92
6.601857900619507,-4.78,0.13,-2.2,5.26
6.602872848510742,-5.53,0.29,-1.48,5.73
6.6187028884887695,-6.07,-0.06,-0.71,6.11
6.620152950286865,-6.24,-0.46,-0.13,6.25
6.633920907974243,-6.13,-0.77,0.08,6.17
6.6353888511657715,-5.66,-1.06,0.01,5.75
6.650341987609863,-4.95,-1.39,-0.26,5.14
6.679705858230591,-4.29,-1.68,-0.65,4.65
6.681227922439575,-3.59,-1.54,-0.73,3.97
6.682229995727539,-2.79,-1.71,-0.72,3.35
6.70177698135376,-2.36,-1.94,-1.03,3.22
6.702810764312744,-2.23,-1.7,-1.2,3.05
6.718577861785889,-1.89,-1.53,-0.79,2.55
6.720014810562134,-1.27,-1.85,-0.17,2.25
6.734299898147583,-0.77,-2.13,0.41,2.3
6.73576283454895,-0.46,-1.92,0.98,2.2
6.750110864639282,-0.17,-1.51,1.47,2.11
6.778652906417847,0.45,-1.15,1.68,2.08
6.780042886734009,1.1,-0.88,1.54,2.08
6.780896902084351,1.36,-0.5,1.42,2.02
6.782970905303955,1.5,0.18,1.63,2.22
6.788386821746826,2.07,0.81,1.83,2.87
6.798571825027466,3.06,1.56,2.08,4.01
6.808504819869995,3.99,2.37,2.09,5.08
6.818217754364014,4.47,3.35,2.48,6.11
6.828404903411865,4.78,4.04,2.98,6.93
6.838422775268555,5.19,4.29,3.18,7.44
6.874396800994873,5.73,4.25,3.68,8.02
6.875695705413818,6.47,3.84,4.17,8.6
6.876662731170654,9.02,5.11,4.22,11.19
6.881657838821411,11.84,6.57,3.74,14.04
6.887714862823486,13.07,3.83,3.76,14.12
6.9018168449401855,13.56,1.91,4.98,14.57
6.907873868942261,13.29,0.2,5.06,14.22
6.917407989501953,12.0,1.21,4.38,12.83
6.9276957511901855,10.55,1.63,4.23,11.48
6.937429904937744,7.06,-2.78,4.64,8.89
6.974102020263672,-0.32,-4.15,5.62,6.99
6.9755120277404785,-3.19,-2.77,5.64,7.04
6.976511001586914,0.88,-2.75,4.99,5.76
6.986093997955322,4.43,-2.84,3.62,6.38
6.987159729003906,3.99,-0.83,1.44,4.32
7.00287389755249,0.9,1.73,-0.93,2.16
7.006759881973267,-1.46,3.01,-3.29,4.69
7.01652193069458,-1.91,3.65,-3.38,5.32
7.026873826980591,-1.41,2.64,-2.12,3.66
7.03697395324707,0.0,0.78,-0.84,1.14
7.074832916259766,0.76,-0.42,0.33,0.92
7.076303005218506,0.13,-0.24,1.37,1.39
7.077448844909668,-0.9,0.18,1.8,2.02
7.084892749786377,-1.43,0.0,1.6,2.14
7.101986885070801,-0.9,-0.22,1.47,1.73
7.1029887199401855,0.57,-0.29,1.3,1.44
7.117321968078613,1.11,-0.23,0.68,1.32
7.118789911270142,0.7,-0.11,0.16,0.72
7.133833885192871,0.58,-0.15,0.2,0.63
7.135954856872559,0.66,-0.25,0.09,0.71
7.180706977844238,0.5,-0.28,-0.16,0.59
7.181946754455566,0.08,-0.16,-0.26,0.31
7.1829469203948975,-0.5,0.21,-0.1,0.55
7.202203750610352,-0.76,0.46,-0.12,0.89
7.203251838684082,-0.54,0.51,0.03,0.74
7.218638896942139,-0.38,0.42,0.1,0.57
7.220090866088867,-0.54,0.56,0.01,0.77
7.23446798324585,-0.75,0.57,-0.4,1.02
7.235919952392578,-0.72,0.49,-0.9,1.25
7.250643730163574,-0.04,0.36,-1.08,1.13
7.2521209716796875,0.64,0.27,-0.91,1.14
7.299353837966919,0.68,0.26,-1.02,1.25
7.3005218505859375,0.5,0.2,-0.76,0.93
7.301558017730713,0.21,0.18,-0.33,0.43
7.3194499015808105,-0.2,0.3,-0.12,0.38
7.320446014404297,-0.26,0.28,0.07,0.38
7.335087776184082,-0.2,0.14,0.11,0.26
7.336528778076172,-0.18,0.05,-0.01,0.18
7.350780010223389,-0.17,-0.03,-0.15,0.22
7.35224986076355,-0.41,-0.11,-0.28,0.5
7.367811918258667,-0.76,-0.15,-0.29,0.82
7.399641990661621,-0.86,-0.17,-0.24,0.9
7.400972843170166,-0.4,-0.15,0.05,0.43
7.401940822601318,0.33,-0.17,0.47,0.59
7.419734954833984,0.77,-0.26,0.59,1.0
7.42076301574707,0.96,-0.31,0.4,1.08
7.43539571762085,0.89,-0.32,0.41,1.03
7.43687891960144,0.76,-0.16,0.45,0.89
7.450965881347656,0.6,-0.01,0.31,0.67
7.452464818954468,0.45,0.0,0.18,0.48
7.4671478271484375,0.56,-0.02,0.14,0.57
7.497530937194824,0.54,0.0,0.06,0.54
7.499513864517212,0.34,0.06,0.05,0.34
7.500504970550537,0.09,0.11,0.15,0.2
7.518949031829834,-0.26,0.13,0.22,0.36
7.519999027252197,-0.5,0.08,0.24,0.56
7.535199880599976,-0.42,-0.08,0.18,0.46
7.536231994628906,-0.13,-0.33,0.22,0.41
7.551026821136475,-0.05,-0.53,0.24,0.58
7.552512884140015,-0.17,-0.31,-0.16,0.38
7.567372798919678,-0.42,0.11,-0.03,0.43
7.597148895263672,-0.54,0.16,0.28,0.62
7.598476886749268,-0.48,0.14,0.33,0.59
7.599501848220825,-0.19,-0.07,0.35,0.4
7.61911678314209,-0.16,-0.2,0.53,0.58
7.620199918746948,-0.68,-0.06,0.32,0.75
7.635525703430176,-0.97,0.24,-0.29,1.04
7.636962890625,-0.82,0.49,-0.09,0.95
7.650975704193115,-0.74,0.54,0.03,0.91
7.652420997619629,-0.5,0.43,-0.34,0.74
7.6674768924713135,0.03,0.16,-0.34,0.37
7.697306871414185,0.19,0.0,-0.29,0.34
7.698606967926025,-0.01,0.21,-0.62,0.65
7.699606895446777,-0.25,0.48,-1.05,1.18
7.719146728515625,-0.66,0.44,-1.22,1.45
7.720209836959839,-0.98,0.29,-0.9,1.36
7.735534906387329,-1.13,0.0,-0.31,1.17
7.736537933349609,-1.33,0.0,-0.07,1.33
7.751736879348755,-1.35,0.26,-0.24,1.39
7.753257751464844,-0.86,0.44,-0.14,0.97
7.767303943634033,0.07,0.37,-0.08,0.38
7.796350955963135,1.46,0.2,0.28,1.49
7.797682762145996,2.03,-0.23,0.02,2.04
7.7986907958984375,1.87,-0.35,-0.39,1.94
7.819269895553589,1.55,-0.16,-0.62,1.67
7.820324897766113,1.21,0.19,-0.62,1.37
7.835663795471191,0.75,0.42,-0.71,1.11
7.837106704711914,0.27,0.52,-0.89,1.06
7.851308822631836,-0.18,0.97,-0.95,1.36
7.85274076461792,-0.41,1.11,-1.12,1.62
7.8673319816589355,-0.46,1.21,-1.03,1.65
7.896037817001343,-0.28,1.76,-0.2,1.79
7.89749002456665,-0.71,2.11,0.4,2.26
7.898597717285156,-1.18,2.55,0.22,2.81
7.9194958209991455,-1.2,2.9,0.39,3.16
7.920508861541748,-0.72,2.64,0.84,2.86
7.935303688049316,-0.58,2.51,0.89,2.72
7.936347961425781,-0.57,2.68,1.02,2.92
7.9512038230896,-0.67,2.99,1.15,3.27
7.952653884887695,-0.57,2.96,0.97,3.16
7.967535972595215,-0.59,2.78,0.9,2.98
7.9947190284729,-0.64,2.79,0.76,2.96
7.996075868606567,-0.81,2.54,0.29,2.68
7.997076988220215,-1.01,2.18,-0.08,2.4
7.999956846237183,-1.36,2.0,-0.54,2.47
8.001291751861572,-1.49,1.65,-0.85,2.38
8.002794742584229,-1.5,1.24,-1.33,2.35
8.008979797363281,-1.47,1.06,-1.82,2.56
8.019343852996826,-1.37,1.27,-2.08,2.79
8.029150009155273,-1.23,0.92,-2.34,2.79
8.039169788360596,-0.42,0.31,-2.42,2.47
8.049381732940674,0.9,0.64,-2.49,2.72
8.078488826751709,2.53,2.09,-2.64,4.21
8.079631805419922,2.58,3.24,-2.76,4.97
8.080803871154785,0.0,1.6,-3.0,3.4
8.088817834854126,-1.44,0.22,-2.64,3.01
8.098723888397217,-2.06,-1.0,-2.6,3.46
8.108469009399414,-3.48,-2.81,-3.49,5.67
8.11845588684082,-3.19,-1.87,-3.6,5.16
8.12829875946045,-2.06,-1.88,-3.29,4.31
8.138660907745361,-3.93,-2.66,-3.87,6.12
8.148677825927734,-6.48,-2.3,-4.15,8.03
8.17951488494873,-7.77,-1.76,-3.68,8.77
8.180678844451904,-7.08,-1.63,-2.97,7.84
8.181656837463379,-5.47,-2.17,-2.7,6.47
8.203038692474365,-4.14,-2.73,-3.06,5.82
8.20403790473938,-3.61,-2.75,-3.45,5.7
8.218803882598877,-3.71,-2.24,-3.47,5.55
8.219843864440918,-4.09,-1.62,-3.16,5.41
8.23593783378601,-4.44,-1.32,-2.51,5.26
8.237563848495483,-4.57,-1.24,-1.71,5.03
8.251163005828857,-4.44,-1.03,-1.03,4.67
8.278028011322021,-4.28,-0.6,-0.6,4.36
8.2792809009552,-4.15,-0.07,-0.4,4.16
8.280311822891235,-4.05,0.46,-0.34,4.09
8.28702974319458,-3.69,0.86,-0.18,3.79
8.297045707702637,-3.05,1.13,0.15,3.25
8.307173728942871,-2.4,1.49,0.53,2.87
8.317162990570068,-1.8,1.95,0.72,2.74
8.32710599899292,-1.27,2.28,0.81,2.73
8.337077856063843,-0.83,2.4,0.93,2.7
8.346924781799316,-0.46,2.4,1.17,2.7
8.378511905670166,-0.16,2.31,1.58,2.8
8.379660844802856,0.39,2.28,2.06,3.09
8.380852699279785,1.31,2.09,2.45,3.47
8.386366844177246,2.17,1.81,2.62,3.85
8.396134853363037,2.78,1.6,2.6,4.12
8.40636682510376,3.23,1.37,2.55,4.33
8.416337013244629,3.68,1.04,2.58,4.61
8.425993919372559,4.1,0.76,2.75,4.99
8.436336994171143,4.31,0.65,3.02,5.3
8.446232795715332,4.34,0.63,3.27,5.47
8.483573913574219,4.33,0.56,3.52,5.6
8.484935760498047,4.48,0.36,3.83,5.9
8.485888004302979,4.91,-0.16,3.83,6.22
8.502965927124023,5.37,-0.64,3.71,6.55
8.50397777557373,5.85,-0.82,3.69,6.96
8.51889181137085,6.42,-0.98,3.68,7.46
8.519919872283936,6.84,-1.22,3.64,7.84
8.534839868545532,6.76,-1.49,3.62,7.81
8.536324977874756,6.19,-1.51,3.66,7.34
8.551050901412964,5.4,-1.45,3.59,6.64
8.582520008087158,4.61,-1.44,3.35,5.87
8.583902835845947,3.96,-1.48,3.03,5.2
8.584883689880371,3.26,-1.42,2.87,4.56
8.602938890457153,3.34,1.28,2.54,4.38
8.604028701782227,8.25,3.4,1.56,9.05
8.619279861450195,14.39,3.32,2.1,14.91
8.620769023895264,14.0,1.22,2.99,14.36
8.634862899780273,3.79,-0.83,2.03,4.37
8.636266708374023,-4.87,-1.12,0.3,5.0
8.648149967193604,-5.21,-0.06,0.52,5.23
8.673971891403198,-2.04,0.05,1.83,2.74
8.675277709960938,0.1,0.55,2.45,2.51
8.676329851150513,0.65,1.11,2.09,2.45
8.684135913848877,0.6,1.59,1.47,2.24
8.694273948669434,0.98,0.92,1.28,1.85
8.704142808914185,1.21,-0.3,0.95,1.56
8.71421194076538,1.02,-0.29,0.02,1.06
8.724009990692139,0.5,0.06,-1.05,1.16
8.734203815460205,0.14,0.14,-1.56,1.57
8.74392580986023,0.15,0.12,-1.34,1.35
8.784260749816895,0.12,0.13,-0.69,0.71
8.785618782043457,-0.03,0.06,0.21,0.22
8.786625862121582,-0.18,-0.12,0.97,0.99
8.803180694580078,-0.45,-0.21,1.1,1.2
8.804242849349976,-0.59,-0.09,1.01,1.17
8.819423913955688,-0.7,0.05,1.27,1.45
8.820884704589844,-0.57,0.22,1.17,1.31
8.834926843643188,-0.02,0.17,0.92,0.93
8.836421966552734,0.58,-0.01,0.66,0.87
8.851006984710693,0.86,-0.18,0.17,0.89
8.853009700775146,0.48,-0.33,0.26,0.63
8.900769710540771,-0.03,-0.17,0.02,0.17
8.901954889297485,-0.42,-0.01,-0.34,0.54
8.902913808822632,-0.42,0.22,-0.45,0.65
8.919915914535522,-0.42,0.46,-0.66,0.9
8.921195983886719,-0.45,0.61,-0.8,1.1
8.935638904571533,-0.38,0.47,-0.81,1.01
8.937102794647217,-0.22,0.29,-0.62,0.71
8.951470851898193,-0.03,0.23,-0.6,0.64
8.952921867370605,0.34,0.15,-0.62,0.72
8.968267917633057,0.5,0.23,-0.61,0.82
8.998656749725342,0.36,0.35,-0.6,0.78
8.999989986419678,0.47,0.36,-0.17,0.61
9.001084804534912,0.45,0.03,0.34,0.56
9.01970386505127,0.15,-0.03,0.59,0.6
9.020823001861572,-0.01,0.06,0.63,0.63
9.036404848098755,-0.04,-0.01,0.54,0.54
9.037813901901245,-0.11,0.08,0.3,0.32
9.051645755767822,-0.01,0.12,0.1,0.15
9.053118705749512,0.33,-0.07,0.06,0.34
9.067935943603516,0.48,-0.25,0.14,0.55
9.096616744995117,0.39,-0.33,0.24,0.56
9.097984790802002,0.25,-0.39,0.34,0.57
9.098963737487793,0.03,-0.27,0.35,0.44
9.120018005371094,-0.19,0.0,0.22,0.29
9.121013879776001,-0.06,0.17,0.17,0.24
9.136801719665527,0.14,0.22,0.28,0.38
9.138286828994751,0.27,0.13,0.3,0.42
9.151784896850586,0.45,-0.07,0.47,0.65
9.153209924697876,0.36,-0.19,0.6,0.72
9.168092727661133,0.05,-0.14,0.38,0.4
9.19718885421753,-0.28,0.08,0.09,0.3
9.198575973510742,-0.38,0.3,-0.09,0.49
9.199534893035889,-0.36,0.37,-0.09,0.52
9.220111846923828,-0.39,0.41,-0.17,0.59
9.221158027648926,-0.27,0.43,-0.22,0.55
9.236506938934326,-0.16,0.42,-0.27,0.52
9.23797082901001,-0.2,0.4,-0.47,0.64
9.25185489654541,-0.42,0.42,-0.61,0.85
9.253306865692139,-0.74,0.45,-0.63,1.07
9.268136024475098,-1.07,0.37,-0.67,1.31
9.295390844345093,-1.17,0.26,-0.65,1.36
9.29671573638916,-0.9,0.17,-0.33,0.97
9.297756910324097,-0.6,0.0,-0.12,0.61
9.300068855285645,-0.23,-0.15,-0.18,0.32
9.301439762115479,0.03,-0.32,-0.09,0.33
9.309695720672607,-0.07,-0.52,-0.02,0.52
9.31939172744751,-0.58,-0.74,-0.46,1.04
9.329291820526123,-0.9,-0.55,-1.03,1.47
9.339558839797974,-0.76,-0.17,-0.54,0.94
9.349579811096191,-0.84,0.13,-0.11,0.85
9.385797023773193,-0.98,0.67,-0.35,1.23
9.386961936950684,-1.31,0.97,-0.97,1.89
9.388048887252808,-1.1,0.92,-1.06,1.78
9.403636932373047,-0.59,0.39,-0.14,0.72
9.404700756072998,-0.13,-0.15,0.37,0.41
9.419302940368652,0.11,-0.49,0.35,0.61
9.420310974121094,0.23,-0.48,0.2,0.56
9.435242891311646,0.05,-0.19,-0.32,0.37
9.438718795776367,-0.13,0.4,-1.08,1.15
9.451310873031616,0.48,0.68,-0.76,1.12
9.484583854675293,0.96,0.63,-0.62,1.3
9.485931873321533,0.95,0.9,-0.74,1.5
9.48693585395813,0.33,1.15,-0.33,1.24
9.503371715545654,-0.3,1.35,0.43,1.44
9.50443696975708,-0.13,1.79,0.85,1.98
9.519464015960693,0.12,1.72,1.19,2.09
9.520496845245361,-0.11,1.26,0.76,1.47
9.535401821136475,0.12,1.6,0.63,1.72
9.537803888320923,0.29,1.57,0.04,1.59
9.551697731018066,0.52,1.52,-0.47,1.67
9.586150884628296,0.84,1.02,-0.32,1.35
9.587443828582764,0.88,0.57,-0.41,1.12
9.588446855545044,0.62,0.34,-0.28,0.76
9.603622913360596,0.36,0.41,-0.32,0.63
9.604660987854004,0.21,0.82,-0.43,0.94
9.619401931762695,0.18,1.36,-0.65,1.51
9.62041687965393,-0.02,2.0,-0.83,2.16
9.63536286354065,-0.07,2.52,-0.81,2.64
9.637001037597656,0.02,2.97,-0.56,3.02
9.65159273147583,-0.37,2.86,-0.53,2.93
9.656864881515503,-0.91,2.62,-0.44,2.8
9.69626784324646,-1.09,2.25,-0.5,2.54
9.697430849075317,-1.05,1.87,-0.77,2.27
9.698387861251831,-1.17,1.54,-0.99,2.17
9.700451850891113,-1.47,1.49,-1.06,2.34
9.70642900466919,-1.35,1.62,-0.85,2.27
9.716585874557495,-0.85,1.57,-0.75,1.93
9.726444721221924,-0.06,1.27,-1.08,1.66
9.736536026000977,1.49,1.82,-1.26,2.66
9.746377944946289,2.6,3.09,-1.54,4.32
9.756386756896973,0.16,2.16,-2.31,3.16
9.787362813949585,-1.88,0.88,-2.01,2.88
9.788774967193604,-2.57,0.27,-1.68,3.08
9.789807796478271,-3.7,-1.25,-1.83,4.31
9.803735733032227,-4.47,-1.91,-2.1,5.29
9.805577754974365,-2.4,-1.28,-1.44,3.07
9.819622993469238,-3.02,-1.73,-1.65,3.85
9.825943946838379,-5.69,-1.56,-2.49,6.4
9.83566689491272,-7.99,-1.08,-2.78,8.52
9.84590482711792,-8.56,-0.78,-2.36,8.91
9.855673789978027,-7.39,-0.95,-1.95,7.7
9.888664722442627,-5.6,-1.45,-2.01,6.12
9.89008378982544,-4.49,-1.64,-2.37,5.33
9.891158819198608,-4.12,-1.16,-2.8,5.11
9.903843879699707,-4.04,-0.54,-2.99,5.05
9.90484881401062,-4.02,-0.36,-2.73,4.87
9.918116807937622,-3.75,-0.57,-2.18,4.37
9.925087928771973,-3.25,-0.99,-1.7,3.79
9.935411930084229,-2.8,-1.13,-1.34,3.3
9.944960832595825,-2.64,-0.92,-1.17,3.03
9.954752922058105,-2.76,-0.51,-1.12,3.02
9.9878408908844,-2.94,-0.05,-1.11,3.14
9.989163875579834,-2.92,0.46,-1.04,3.13
9.99016785621643,-2.47,0.9,-0.79,2.74
10.004012823104858,-1.77,1.0,-0.56,2.1
10.005049705505371,-1.2,1.07,-0.47,1.67
10.020014762878418,-0.9,1.28,-0.39,1.61
10.024219036102295,-0.56,1.31,-0.26,1.44
10.03563404083252,-0.08,1.17,-0.17,1.18
10.044260025024414,0.53,1.12,-0.08,1.24
10.053982734680176,1.12,1.17,-0.01,1.61
10.091571807861328,1.52,1.31,0.2,2.01
10.092859745025635,1.73,1.4,0.54,2.29
10.093883991241455,1.77,1.3,1.02,2.42
10.095324039459229,1.77,1.14,1.63,2.66
10.103673934936523,1.98,0.97,2.19,3.1
10.113341808319092,2.23,0.79,2.65,3.55
10.123243808746338,2.28,0.55,3.08,3.87
10.13363790512085,2.21,0.38,3.43,4.09
10.143438816070557,2.29,0.36,3.8,4.45
10.153312921524048,2.56,0.37,4.27,4.99
10.191738843917847,3.03,0.33,4.66,5.56
10.19291877746582,3.78,0.18,4.96,6.23
10.193894863128662,4.51,-0.13,5.18,6.86
10.20395278930664,5.07,-0.51,5.06,7.18
10.205016851425171,5.45,-0.77,4.79,7.29
10.219769954681396,5.81,-0.91,4.62,7.47
10.222453832626343,6.28,-1.09,4.51,7.8
10.23568081855774,6.54,-1.09,4.5,8.01
10.242685794830322,5.43,2.21,4.3,7.27
10.252433776855469,4.36,3.91,3.34,6.74
10.291013717651367,7.69,0.47,2.97,8.25
10.292298793792725,13.62,0.95,4.1,14.25
10.293360710144043,20.89,2.47,4.75,21.56
10.304265022277832,15.83,2.34,2.45,16.18
10.305325031280518,1.42,0.45,0.78,1.68
10.319829940795898,-6.87,-2.34,0.07,7.25
10.32166576385498,-5.31,-0.58,-0.1,5.34
10.335526943206787,-0.4,1.98,0.81,2.17
10.342023849487305,1.54,2.28,2.24,3.54
10.351830005645752,1.65,0.28,2.35,2.88
10.389643907546997,1.78,-0.75,2.33,3.02
10.391000747680664,1.5,-0.2,1.72,2.29
10.3919997215271,0.93,-0.26,1.04,1.41
10.40381669998169,0.82,-0.42,0.71,1.16
10.40487790107727,1.31,-0.21,0.08,1.32
10.419999837875366,1.62,-0.05,-0.59,1.72
10.421034812927246,1.29,-0.07,-0.87,1.55
10.43569278717041,0.69,-0.06,-0.35,0.77
10.44121789932251,0.16,-0.05,0.53,0.55
10.451798915863037,-0.47,-0.14,1.06,1.16
10.46110987663269,-0.98,-0.08,1.03,1.42
10.49377989768982,-0.84,0.03,0.78,1.14
10.494976997375488,-0.42,0.09,0.89,0.98
10.496209859848022,-0.29,-0.06,0.87,0.91
10.50020170211792,-0.25,-0.24,0.39,0.52
10.510410785675049,-0.13,-0.07,0.06,0.15
10.520380020141602,0.05,0.12,-0.08,0.15
10.530261039733887,0.21,0.1,0.02,0.23
10.54045581817627,0.51,-0.09,0.29,0.59
10.550550937652588,0.7,-0.16,0.51,0.88
10.560243844985962,0.49,-0.02,0.41,0.63
10.5919349193573,0.22,0.27,0.35,0.49
10.593250751495361,0.04,0.34,0.26,0.42
10.594270706176758,0.11,0.29,-0.19,0.36
10.59988284111023,0.15,0.27,-0.56,0.63
10.609821796417236,0.14,0.39,-0.72,0.83
10.619576930999756,0.0,0.39,-0.77,0.86
10.62936782836914,0.08,0.26,-0.64,0.69
10.639725923538208,0.19,0.2,-0.41,0.49
10.649768829345703,-0.07,0.23,-0.26,0.35
10.659543991088867,-0.41,0.22,-0.16,0.49
10.691058874130249,-0.71,0.2,-0.14,0.75
10.6923348903656,-0.78,0.21,-0.25,0.84
10.693352699279785,-0.57,0.19,-0.34,0.69
10.704052925109863,-0.31,0.1,-0.31,0.44
10.708757877349854,-0.23,0.06,-0.12,0.26
10.718583822250366,-0.25,0.07,-0.03,0.26
10.728730916976929,-0.16,0.03,-0.08,0.18
10.738746881484985,-0.05,0.05,-0.14,0.15
10.74885082244873,0.01,0.05,-0.01,0.05
10.7586669921875,0.18,0.09,0.27,0.33
10.788635730743408,0.24,0.03,0.27,0.36
10.78998589515686,0.27,0.01,0.14,0.3
10.791003704071045,0.32,-0.03,0.17,0.36
10.804825782775879,0.25,-0.05,0.18,0.31
10.808088779449463,0.09,0.0,0.11,0.14
10.81959080696106,-0.17,0.12,0.05,0.21
10.828397750854492,-0.57,0.27,-0.04,0.63
10.83801794052124,-0.63,0.33,-0.19,0.73
10.848152875900269,-0.5,0.24,-0.39,0.67
10.85812783241272,-0.62,0.15,-0.57,0.85
10.894470691680908,-0.74,0.19,-0.61,0.97
10.895826816558838,-0.54,0.29,-0.26,0.66
10.896835803985596,-0.52,0.3,-0.06,0.6
10.900294780731201,-0.76,0.24,-0.18,0.81
10.920025825500488,-0.98,0.14,-0.34,1.04
10.921073913574219,-0.89,0.17,-0.5,1.03
10.936697959899902,-0.64,0.19,-0.48,0.82
10.938109874725342,-0.43,0.19,-0.67,0.81
10.952733993530273,-0.46,0.1,-0.81,0.93
10.957170009613037,-0.77,0.07,-0.7,1.04
10.997221946716309,-1.17,-0.05,-0.62,1.32
10.998373031616211,-1.53,-0.07,-0.73,1.69
10.999361991882324,-1.56,-0.02,-0.37,1.6
11.021527767181396,-1.43,0.04,-0.13,1.43
11.022994041442871,-1.78,0.14,-0.56,1.87
11.037129878997803,-1.82,0.47,-1.09,2.17
11.038602828979492,-0.98,0.36,-0.52,1.16
11.052797794342041,0.33,0.19,0.2,0.43
11.054276943206787,1.5,0.05,0.86,1.72
11.069032907485962,2.13,-0.37,0.81,2.3
11.099180698394775,2.66,-0.76,1.15,2.99
11.100497722625732,2.54,-1.03,1.25,3.01
11.101492881774902,2.02,-0.87,1.08,2.45
11.121031761169434,1.32,-0.37,0.75,1.56
11.122516870498657,0.72,0.13,0.72,1.02
11.137046813964844,0.36,0.53,0.79,1.01
11.138491868972778,0.19,0.7,0.6,0.94
11.152665853500366,0.07,0.49,0.59,0.77
11.154123783111572,-0.06,0.32,0.72,0.79
11.168776988983154,-0.26,0.61,0.56,0.86
11.19841480255127,-0.6,1.04,0.19,1.21
11.19980788230896,-0.79,1.18,0.38,1.47
11.200814723968506,-0.32,1.21,0.5,1.34
11.220717906951904,-0.26,1.02,0.54,1.18
11.2217538356781,-0.38,0.78,0.76,1.15
11.237154006958008,-0.14,0.56,1.2,1.33
11.23862075805664,0.12,0.51,1.18,1.29
11.252728939056396,0.26,0.81,0.93,1.26
11.25415587425232,0.2,1.13,0.75,1.37
11.268963813781738,0.22,1.18,0.51,1.3
11.270392894744873,-0.03,1.2,-0.03,1.2
11.317371845245361,-0.38,1.4,-0.6,1.56
11.318535804748535,-0.55,1.86,-0.93,2.15
11.319531917572021,-0.59,2.31,-1.43,2.78
11.337819814682007,-0.48,2.51,-1.65,3.04
11.338865756988525,-0.37,2.46,-1.62,2.96
11.353531837463379,-0.58,2.34,-1.77,2.99
11.354914903640747,-0.89,2.22,-1.8,2.99
11.369382858276367,-1.14,2.12,-1.6,2.89
11.370779037475586,-1.36,2.13,-1.56,2.96
11.385275840759277,-1.35,2.28,-1.61,3.1
11.414377689361572,-1.15,2.61,-1.42,3.18
11.415710926055908,-1.03,2.45,-1.39,2.99
11.416752815246582,-0.86,1.62,-1.54,2.39
11.437940835952759,-0.33,0.86,-1.41,1.68
11.438975811004639,0.54,1.05,-1.25,1.71
11.45414400100708,2.22,2.27,-1.16,3.38
11.455615043640137,3.46,2.92,-1.96,4.93
11.46962285041809,1.93,1.17,-2.82,3.61
11.47107982635498,0.73,-0.19,-2.55,2.65
11.485803842544556,-0.15,-1.34,-2.43,2.77
11.516223907470703,-1.79,-3.23,-2.39,4.39
11.517534732818604,-2.68,-3.37,-1.78,4.65
11.518556833267212,-2.16,-1.43,-1.0,2.77
11.53754997253418,-3.35,-1.95,-1.65,4.21
11.538580894470215,-5.51,-2.91,-2.47,6.7
11.554142951965332,-6.91,-3.13,-2.24,7.9
11.555574893951416,-6.12,-2.77,-1.32,6.84
11.569653034210205,-4.14,-2.68,-0.94,5.02
11.57113790512085,-3.09,-2.69,-0.81,4.17
11.585755825042725,-2.9,-2.24,-0.71,3.73
11.61562204360962,-3.15,-1.71,-0.63,3.63
11.617066860198975,-3.21,-1.26,-0.5,3.48
11.618074893951416,-2.72,-0.9,-0.28,2.87
11.63785171508789,-2.06,-0.72,-0.09,2.18
11.638888835906982,-1.65,-0.45,-0.08,1.71
11.653918743133545,-1.71,-0.1,-0.18,1.72
11.65535283088684,-2.14,0.26,-0.26,2.17
11.669676780700684,-2.54,0.61,-0.25,2.62
11.671144008636475,-2.4,0.9,-0.13,2.56
11.685712814331055,-1.83,1.05,0.09,2.11
11.715327739715576,-1.38,1.2,0.15,1.83
11.716673851013184,-1.32,1.35,0.09,1.89
11.71766185760498,-1.36,1.48,0.19,2.01
11.737790822982788,-1.26,1.43,0.48,1.96
11.738829851150513,-1.14,1.25,0.78,1.86
11.754093885421753,-1.08,1.09,0.95,1.8
11.755546808242798,-1.02,0.99,0.9,1.68
11.769492864608765,-0.99,0.93,0.75,1.55
11.770912885665894,-0.93,0.93,0.73,1.5
11.785833835601807,-0.75,0.75,0.79,1.32
11.814955711364746,-0.39,0.35,0.9,1.04
11.81633186340332,-0.06,-0.03,0.87,0.87
11.817380905151367,-0.02,-0.17,0.73,0.74
11.838165760040283,-0.06,-0.1,0.69,0.69
11.839201927185059,0.04,0.02,0.77,0.77
11.854290962219238,0.29,0.15,1.02,1.07
11.855721950531006,0.57,0.1,1.18,1.31
11.869534015655518,0.8,0.09,1.26,1.49
11.870988845825195,1.01,0.27,1.38,1.73
11.88594388961792,1.29,0.36,1.57,2.06
11.915518760681152,1.54,0.27,1.89,2.45
11.916823863983154,1.68,0.2,2.24,2.8
11.917812824249268,1.76,0.27,2.54,3.1
11.938714027404785,1.88,0.27,2.72,3.31
11.939651012420654,2.01,0.27,2.83,3.48
11.95405101776123,2.25,0.24,2.89,3.67
11.95548677444458,2.62,0.0,2.91,3.91
11.969753742218018,3.0,-0.2,2.84,4.13
11.97120475769043,3.39,-0.26,2.71,4.34
11.986029863357544,3.78,-0.33,2.61,4.6
12.014575958251953,4.16,-0.46,2.54,4.89
12.016024827957153,4.48,-0.73,2.35,5.11
12.01702880859375,4.61,-0.87,2.02,5.1
12.037916898727417,4.57,-0.94,1.71,4.96
12.039423942565918,4.36,-1.11,1.51,4.74
12.054174900054932,4.0,-1.24,1.46,4.43
12.055644989013672,3.74,0.33,1.26,3.96
12.069947719573975,4.51,0.87,0.65,4.63
12.071356773376465,9.03,0.25,0.75,9.06
12.085964918136597,12.31,2.21,2.71,12.79
12.087479829788208,11.84,3.96,4.41,13.24
12.132787704467773,6.88,1.34,5.97,9.2
12.133988857269287,-0.03,-1.75,6.65,6.87
12.135004997253418,-2.98,-1.64,6.01,6.9
12.15493392944336,-2.53,-1.15,3.54,4.5
12.156355857849121,-1.61,-0.46,0.33,1.7
12.170711994171143,-1.26,0.9,-1.67,2.27
12.172170877456665,-1.04,2.45,-1.36,2.98
12.18636703491211,0.07,2.12,0.48,2.17
12.18782377243042,1.29,-0.16,1.4,1.91
12.20251989364624,1.61,-0.57,0.23,1.72
12.231881856918335,1.25,-0.11,-1.36,1.85
12.233222961425781,1.25,-0.27,-1.56,2.01
12.234170913696289,1.59,-0.52,-0.97,1.93
12.25474500656128,1.38,-0.41,-0.02,1.43
12.255795001983643,0.53,-0.31,1.03,1.19
12.271124839782715,-0.32,-0.23,2.26,2.29
12.272625923156738,-1.12,-0.11,2.79,3.0
12.28651475906372,-1.66,0.07,2.11,2.68
12.288006782531738,-1.85,0.27,1.05,2.14
12.302731990814209,-1.49,0.41,0.25,1.56
12.331192970275879,-0.78,0.37,-0.48,0.98
12.33268404006958,-0.3,0.33,-1.17,1.25
12.333678722381592,0.04,0.27,-1.65,1.67
12.354565858840942,0.59,0.39,-1.32,1.49
12.355644702911377,0.8,0.44,-0.45,1.01
12.371208906173706,0.53,0.22,0.05,0.57
12.372684955596924,0.17,0.12,0.41,0.45
12.387020826339722,-0.33,0.22,0.59,0.71
12.388518810272217,-0.57,0.27,0.41,0.75
12.40284776687622,-0.07,0.12,0.21,0.25
12.430480003356934,0.74,-0.06,0.05,0.74
12.431843757629395,1.3,-0.08,-0.09,1.3
12.432837009429932,1.53,-0.11,-0.18,1.54
12.435272693634033,1.5,-0.07,-0.03,1.5
12.43671989440918,1.17,-0.07,0.24,1.19
12.43795394897461,0.7,-0.02,0.39,0.8
12.43934679031372,0.36,0.05,0.45,0.57
12.445449829101562,0.14,0.04,0.49,0.51
12.455763816833496,-0.02,0.06,0.44,0.44
12.465694904327393,-0.12,0.02,0.27,0.29
12.497787952423096,-0.13,0.02,0.2,0.23
12.49887490272522,-0.18,0.05,0.19,0.26
12.500004768371582,-0.24,0.08,0.07,0.26
12.505446910858154,-0.23,0.14,-0.16,0.31
12.5152268409729,-0.29,0.18,-0.39,0.51
12.525417804718018,-0.59,0.27,-0.54,0.84
12.535033702850342,-0.93,0.33,-0.47,1.09
12.545149803161621,-0.84,0.29,-0.36,0.95
12.554962873458862,-0.7,0.2,-0.28,0.77
12.56502890586853,-0.4,0.13,-0.12,0.43
12.599524974822998,0.0,0.06,0.17,0.18
12.600825786590576,0.12,0.01,0.18,0.21
12.601830959320068,0.11,0.07,0.09,0.15
12.621513843536377,0.17,0.1,0.08,0.21
12.62248682975769,0.23,0.06,0.25,0.34
12.63755989074707,0.24,0.04,0.39,0.45
12.638988971710205,0.22,0.0,0.41,0.46
12.653405904769897,0.22,-0.02,0.36,0.42
12.654798984527588,0.1,0.04,0.24,0.26
12.66940975189209,-0.02,0.12,-0.01,0.12
12.70091199874878,-0.07,0.21,-0.03,0.22
12.702255725860596,-0.16,0.18,-0.07,0.25
12.703234910964966,-0.34,0.16,-0.2,0.42
12.72163987159729,-0.42,0.21,-0.23,0.52
12.72269582748413,-0.48,0.23,-0.19,0.56
12.738042831420898,-0.64,0.18,-0.31,0.73
12.739465713500977,-0.89,0.18,-0.27,0.94
12.753368854522705,-1.06,0.29,-0.2,1.11
12.754806995391846,-0.97,0.37,-0.3,1.08
12.769405841827393,-0.7,0.3,-0.42,0.86
12.800047874450684,-0.42,0.17,-0.46,0.64
12.801422834396362,-0.24,0.1,-0.67,0.71
12.802522897720337,-0.32,0.02,-0.76,0.82
12.821565866470337,-0.68,0.15,-0.92,1.15
12.82257890701294,-0.87,0.29,-0.97,1.33
12.83753490447998,-0.73,0.36,-0.69,1.06
12.838990688323975,-0.51,0.33,-0.59,0.84
12.853460788726807,-0.33,0.16,-0.49,0.61
12.854920864105225,-0.26,-0.09,-0.26,0.37
12.869741916656494,-0.38,-0.25,-0.08,0.46
12.872650861740112,-0.64,-0.27,-0.02,0.69
12.916847705841064,-0.99,0.02,-0.1,0.99
12.917994976043701,-1.46,0.28,-0.25,1.5
12.918964862823486,-1.46,0.55,-0.22,1.57
12.93885588645935,-1.4,0.61,-0.28,1.55
12.940326690673828,-0.83,0.52,-0.25,1.01
12.954510688781738,0.3,0.61,0.03,0.68
12.955983877182007,1.33,0.49,-0.05,1.41
12.97023892402649,2.25,0.22,0.02,2.26
12.971719741821289,2.41,0.06,0.46,2.45
12.986067771911621,1.65,0.0,0.74,1.8
13.014789819717407,0.61,0.13,0.7,0.93
13.01622200012207,-0.17,0.72,0.85,1.12
13.017230987548828,-0.76,0.93,0.34,1.24
13.038986921310425,-0.94,0.66,0.14,1.15
13.040468692779541,-0.63,0.62,0.22,0.91
13.054897785186768,-0.46,0.96,-0.18,1.07
13.056299924850464,-0.46,1.28,-0.43,1.42
13.070327758789062,-0.36,1.36,-0.54,1.5
13.071767807006836,-0.08,1.5,-0.42,1.55
13.086269855499268,0.16,1.57,-0.24,1.59
13.116979837417603,0.47,1.35,0.1,1.43
13.118289947509766,0.9,1.19,0.65,1.62
13.119298934936523,1.08,1.17,0.92,1.83
13.138560771942139,0.74,1.29,0.92,1.74
13.139938831329346,0.21,1.42,0.79,1.63
13.154727935791016,-0.22,1.45,0.78,1.66
13.156208038330078,-0.63,1.44,0.66,1.7
13.170440912246704,-0.82,1.51,0.33,1.74
13.17193078994751,-0.95,1.5,-0.16,1.78
13.186900854110718,-0.98,1.67,-0.34,1.96
13.216686725616455,-1.14,1.68,-0.63,2.12
13.218105792999268,-1.48,1.61,-1.07,2.43
13.219182968139648,-1.58,1.77,-1.24,2.67
13.238598823547363,-1.55,1.49,-1.51,2.62
13.239619731903076,-1.33,1.33,-1.75,2.56
13.254873752593994,-0.91,1.28,-2.13,2.64
13.25636100769043,-0.5,1.08,-2.46,2.73
13.270418882369995,0.21,1.27,-2.32,2.65
13.271880865097046,1.25,2.11,-1.97,3.14
13.286397933959961,1.55,2.73,-2.04,3.74
13.315114974975586,0.35,2.08,-2.37,3.17
13.316494941711426,-0.5,1.43,-2.45,2.88
13.317484855651855,-0.93,0.67,-2.23,2.5
13.338438987731934,-1.6,-0.32,-2.41,2.91
13.339493751525879,-3.12,-2.03,-2.99,4.77
13.354788780212402,-2.94,-3.07,-2.94,5.16
13.35627269744873,-1.17,-2.03,-2.31,3.29
13.37061882019043,-2.71,-2.08,-2.54,4.25
13.372041702270508,-5.35,-2.39,-3.11,6.63
13.386975765228271,-7.6,-2.25,-3.13,8.52
13.417000770568848,-8.14,-2.03,-2.72,8.81
13.41843581199646,-6.99,-1.92,-2.2,7.57
13.419461727142334,-5.14,-2.06,-2.14,5.93
13.438607692718506,-3.91,-2.04,-2.3,4.97
13.439855813980103,-3.43,-1.56,-2.42,4.47
13.45501184463501,-3.21,-0.95,-2.34,4.08
13.456456899642944,-2.85,-0.46,-2.09,3.56
13.470398902893066,-2.28,-0.11,-1.78,2.89
13.471856832504272,-1.86,-0.05,-1.43,2.34
13.486572742462158,-1.94,-0.03,-1.02,2.19
13.516079902648926,-2.29,0.24,-0.68,2.4
13.517400741577148,-2.5,0.79,-0.34,2.64
13.518412828445435,-2.37,1.31,0.01,2.7
13.538606882095337,-1.76,1.45,0.13,2.28
13.540064811706543,-1.05,1.42,0.13,1.77
13.554863929748535,-0.49,1.45,0.19,1.54
13.556329727172852,-0.13,1.47,0.39,1.52
13.570268869400024,-0.01,1.56,0.8,1.75
13.571708917617798,-0.16,1.63,1.54,2.24
13.586607933044434,-0.34,1.45,2.27,2.71
13.614852905273438,-0.35,1.28,2.73,3.03
13.616212844848633,-0.23,1.15,3.09,3.3
13.61718487739563,-0.05,0.94,3.28,3.41
13.61928391456604,0.13,0.79,3.4,3.49
13.62073278427124,0.35,0.7,3.52,3.6
13.626729965209961,0.73,0.59,3.61,3.73
13.636934757232666,1.32,0.42,3.62,3.87
13.64701795578003,2.05,0.18,3.41,3.98
13.656976699829102,2.6,-0.04,3.24,4.15
13.66688871383667,3.01,-0.19,3.14,4.35
13.676665782928467,3.36,-0.2,3.05,4.54
13.708402872085571,3.62,-0.09,3.03,4.72
13.709688901901245,3.72,0.04,3.12,4.85
13.710700988769531,3.7,0.13,3.27,4.93
13.722213745117188,3.6,0.2,3.42,4.96
13.726061820983887,3.56,0.21,3.56,5.03
13.738041877746582,3.76,0.09,3.71,5.28
13.746325016021729,4.13,-0.15,3.76,5.58
13.75592589378357,4.51,-0.45,3.55,5.75
13.76609492301941,4.73,-0.58,3.16,5.71
13.775816917419434,4.76,-0.57,2.74,5.52
13.80658769607544,4.68,-0.46,2.32,5.24
13.80797290802002,4.58,-0.26,1.95,4.98
13.808971881866455,4.58,-0.23,1.65,4.87
13.822345733642578,4.61,-0.36,1.38,4.82
13.82520580291748,4.55,-0.58,1.13,4.72
13.837636947631836,4.17,-0.07,0.69,4.22
13.845526695251465,3.3,0.71,0.03,3.37
13.85517692565918,4.32,0.02,0.04,4.32
13.86542272567749,7.13,0.15,1.38,7.26
13.875120878219604,7.97,1.09,2.61,8.45
13.905391693115234,4.1,1.75,3.04,5.39
13.906744003295898,-1.18,1.07,3.7,4.02
13.907721042633057,-3.12,0.18,3.76,4.88
13.922492027282715,-2.58,-0.41,3.08,4.03
13.924490928649902,-2.11,-0.66,1.62,2.74
13.9389009475708,-1.37,-0.08,0.68,1.53
13.94452691078186,-0.2,1.07,0.72,1.3
13.9545259475708,0.84,1.58,1.04,2.06
13.964485883712769,1.17,0.64,1.36,1.9
13.974525928497314,1.42,-0.46,1.47,2.09
14.00681185722351,1.79,-0.54,0.96,2.1
14.0081467628479,1.81,-0.34,-0.16,1.84
14.009181022644043,1.42,-0.12,-0.91,1.69
14.022348880767822,0.89,-0.09,-0.86,1.24
14.023668766021729,0.42,-0.08,-0.54,0.68
14.038165807723999,-0.05,0.14,-0.01,0.14
14.043860912322998,-0.57,0.26,0.84,1.04
14.053879737854004,-0.82,0.1,1.36,1.59
14.06382703781128,-0.75,-0.07,1.24,1.45
14.073554039001465,-0.85,-0.02,0.58,1.02
14.109465837478638,-0.88,0.08,0.07,0.88
14.110795974731445,-0.55,0.07,0.42,0.69
14.111791849136353,-0.23,0.11,0.7,0.74
14.119930744171143,0.0,0.04,0.21,0.21
14.122973918914795,0.05,0.03,-0.39,0.39
14.138303756713867,0.06,0.21,-0.73,0.76
14.14314079284668,0.09,0.4,-0.67,0.78
14.153864860534668,0.04,0.38,-0.41,0.56
14.16314697265625,-0.34,0.33,-0.14,0.49
14.172971725463867,-0.63,0.34,0.22,0.74
14.210368871688843,-0.4,0.32,0.22,0.55
14.211774826049805,-0.17,0.24,-0.22,0.36
14.212767839431763,0.31,0.14,-0.36,0.49
14.222593784332275,0.88,0.08,-0.38,0.96
14.223646879196167,0.97,0.1,-0.46,1.07
14.23880672454834,0.87,0.17,-0.43,0.98
14.24246883392334,0.78,0.1,-0.36,0.86
14.252333879470825,0.58,0.07,-0.01,0.58
14.262293815612793,0.3,0.07,0.27,0.4
14.272027015686035,0.04,0.07,0.28,0.29
14.309882879257202,-0.18,0.12,0.31,0.37
14.311287879943848,-0.4,0.05,0.19,0.44
14.312295913696289,-0.33,0.08,0.07,0.34
14.322796821594238,-0.05,0.08,0.25,0.26
14.323776721954346,0.05,-0.01,0.36,0.36
14.338506698608398,0.09,-0.07,0.3,0.32
14.341712951660156,0.08,-0.14,0.32,0.35
14.354314804077148,0.16,-0.11,0.41,0.45
14.36138391494751,0.1,-0.04,0.35,0.36
14.371394872665405,0.0,0.03,0.3,0.3
14.409055709838867,0.0,0.06,0.36,0.36
14.41029977798462,-0.08,0.09,0.43,0.44
14.411314010620117,-0.17,0.11,0.46,0.5
14.422454833984375,-0.16,0.13,0.37,0.42
14.423524856567383,-0.1,0.12,0.2,0.25
14.438762903213501,-0.09,0.06,0.1,0.14
14.440754890441895,-0.09,0.06,0.02,0.1
14.453965902328491,-0.09,0.08,-0.24,0.26
14.460876941680908,-0.16,0.09,-0.56,0.58
14.470556735992432,-0.26,0.11,-0.64,0.69
14.480645895004272,-0.22,0.14,-0.39,0.46
14.512637853622437,-0.11,0.2,-0.22,0.31
14.513786792755127,-0.09,0.24,-0.23,0.34
14.51504373550415,-0.15,0.23,-0.21,0.34
14.519884824752808,-0.18,0.13,-0.19,0.29
14.538866996765137,-0.27,0.0,-0.1,0.28
14.540289878845215,-0.54,-0.07,-0.05,0.54
14.554134845733643,-0.76,0.06,-0.15,0.77
14.559906959533691,-0.68,0.26,-0.29,0.78
14.57046890258789,-0.59,0.34,-0.4,0.78
14.580039978027344,-0.56,0.28,-0.58,0.85
14.61443281173706,-0.62,0.14,-0.71,0.95
14.615542888641357,-0.77,0.06,-0.68,1.02
14.616736888885498,-1.1,0.02,-0.57,1.23
14.619228839874268,-1.37,0.2,-0.59,1.5
14.629316806793213,-1.77,0.63,-0.78,2.03
14.639589786529541,-1.83,0.69,-1.18,2.28
14.649276733398438,-1.06,0.59,-0.85,1.48
14.659302711486816,-0.3,0.13,-0.05,0.33
14.669408798217773,0.36,-0.2,0.67,0.78
14.679190874099731,0.75,-0.25,0.86,1.16
14.711962699890137,0.87,-0.24,0.76,1.17
14.713282823562622,1.01,-0.25,0.53,1.16
14.714412689208984,1.2,-0.19,0.42,1.28
14.720069885253906,1.33,-0.3,0.43,1.42
14.739065885543823,1.23,-0.45,0.2,1.32
14.740542888641357,0.93,-0.61,-0.12,1.11
14.75425672531128,0.39,-0.3,-0.29,0.57
14.7584810256958,0.04,0.08,-0.22,0.23
14.77037787437439,-0.01,0.19,0.08,0.2
14.778546810150146,-0.22,0.29,0.03,0.36
14.814363956451416,-0.1,0.7,0.38,0.8
14.815486907958984,0.01,0.57,0.45,0.72
14.816702842712402,0.1,0.47,0.34,0.58
14.818789005279541,0.38,0.63,0.61,0.95
14.827659845352173,0.52,0.98,0.44,1.19
14.838032722473145,0.33,1.27,0.48,1.39
14.847892761230469,-0.05,1.45,0.64,1.58
14.857834815979004,-0.17,1.71,0.87,1.92
14.868063926696777,-0.48,2.0,0.72,2.17
14.877979755401611,-0.71,2.24,0.27,2.36
14.914778709411621,-0.64,2.18,0.06,2.27
14.916127920150757,-0.58,2.15,-0.27,2.24
14.917073726654053,-0.65,2.11,-0.39,2.24
14.919213771820068,-0.68,1.91,-0.4,2.06
14.926919937133789,-0.49,1.79,-0.76,2.0
14.937341690063477,-0.26,1.98,-0.86,2.17
14.94721794128418,-0.1,2.18,-0.91,2.36
14.957054853439331,-0.13,2.13,-1.03,2.36
14.967068910598755,-0.36,1.79,-1.16,2.16
14.97699785232544,-0.66,1.36,-1.15,1.89
15.01427173614502,-1.02,1.08,-1.02,1.8
15.015703916549683,-1.3,0.93,-1.06,1.91
15.01667070388794,-1.44,0.79,-1.38,2.14
15.018940925598145,-1.31,0.9,-1.53,2.2
15.026083946228027,-1.11,0.94,-1.53,2.11
15.03678584098816,-0.96,0.9,-1.59,2.06
15.046504020690918,-0.67,1.0,-2.07,2.39
15.056267738342285,-0.14,1.33,-2.48,2.81
15.066082954406738,0.71,2.12,-2.37,3.25
15.075957775115967,1.99,3.01,-2.21,4.23
15.11299991607666,1.92,3.09,-2.66,4.5
15.114343881607056,1.02,2.06,-2.76,3.59
15.115335941314697,-0.03,0.37,-2.49,2.51
15.11867880821228,-1.22,-1.01,-2.41,2.88
15.13913869857788,-2.37,-2.4,-2.27,4.06
15.140563011169434,-3.28,-3.53,-2.08,5.24
15.153709888458252,-1.72,-2.1,-1.47,3.08
15.15539288520813,-2.05,-1.8,-1.74,3.23
15.170747756958008,-4.29,-1.95,-2.79,5.47
15.175282955169678,-5.89,-1.31,-2.99,6.73
15.214640855789185,-5.93,-1.25,-2.65,6.61
15.215792894363403,-4.92,-1.84,-2.28,5.72
15.217020988464355,-3.93,-2.45,-2.29,5.16
15.219023704528809,-3.51,-2.47,-2.6,5.01
15.224856853485107,-3.48,-2.0,-2.88,4.94
15.234808921813965,-3.49,-1.4,-2.89,4.74
15.244789838790894,-3.33,-1.05,-2.67,4.39
15.254749774932861,-2.97,-0.98,-2.46,3.97
15.264777898788452,-2.6,-0.71,-2.25,3.51
15.274742841720581,-2.3,-0.11,-1.96,3.02
15.284734725952148,-2.16,0.43,-1.69,2.77
15.316115856170654,-2.24,0.67,-1.56,2.81
15.317294836044312,-2.61,0.8,-1.22,2.99
15.318289756774902,-3.07,0.99,-0.49,3.26
15.339643955230713,-3.23,1.22,0.25,3.46
15.340698719024658,-3.1,1.45,0.83,3.52
15.355924844741821,-2.74,1.66,1.26,3.44
15.357410907745361,-2.27,1.81,1.48,3.25
15.371572971343994,-1.69,1.8,1.59,2.93
15.37373399734497,-1.16,1.61,1.76,2.65
15.387532711029053,-0.55,1.6,1.95,2.58
15.415427923202515,0.28,1.49,2.11,2.59
15.416747808456421,1.03,1.1,2.23,2.69
15.417751789093018,1.51,0.73,2.31,2.85
15.4232759475708,1.74,0.56,2.47,3.07
15.433135986328125,1.89,0.47,2.86,3.46
15.443296909332275,2.04,0.36,3.37,3.95
15.45347285270691,2.44,0.48,3.84,4.57
15.463292837142944,3.07,0.46,4.1,5.14
15.473176956176758,3.48,0.28,4.35,5.57
15.48289680480957,3.59,0.19,4.56,5.8
15.514665842056274,3.65,0.29,4.77,6.01
15.51583194732666,3.93,0.41,4.96,6.34
15.51706075668335,4.37,0.4,4.99,6.64
15.522542953491211,4.74,0.25,4.97,6.87
15.532372951507568,4.82,0.21,5.04,6.97
15.542531967163086,4.66,0.33,5.08,6.9
15.552834033966064,4.42,0.38,4.93,6.63
15.562427043914795,4.23,0.58,4.64,6.3
15.572468757629395,3.63,2.53,4.13,6.05
15.58232593536377,3.98,1.98,3.47,5.63
15.613898754119873,5.73,0.1,3.92,6.94
15.615132808685303,7.27,2.64,4.83,9.11
15.616428852081299,9.98,1.3,4.0,10.83
15.621774911880493,10.23,1.46,3.23,10.82
15.639001846313477,5.9,0.84,3.08,6.7
15.641518831253052,-0.9,-1.3,2.41,2.88
15.654605865478516,-4.05,-1.8,1.2,4.59
15.66188383102417,-2.91,-1.65,0.55,3.39
15.671535015106201,-1.05,-1.29,0.59,1.76
15.681350708007812,-0.02,0.31,1.11,1.15
15.719392776489258,0.12,1.53,1.17,1.92
15.720580816268921,0.23,2.03,1.13,2.33
15.7216157913208,0.77,1.75,1.56,2.46
15.740046977996826,1.36,0.22,1.77,2.24
15.741515874862671,1.55,-0.56,1.17,2.02
15.755669832229614,1.37,-0.29,0.43,1.46
15.757085800170898,1.36,-0.13,0.07,1.36
15.77147889137268,1.44,-0.06,-0.26,1.46
15.77294397354126,1.0,0.1,-0.62,1.18
15.787407875061035,0.24,0.1,-0.81,0.85
15.817096710205078,-0.17,0.04,-0.63,0.65
15.818424701690674,-0.26,0.09,0.11,0.29
15.819456815719604,-0.12,0.04,0.85,0.85
15.839616775512695,0.07,0.04,1.28,1.28
15.840580940246582,0.08,-0.01,1.37,1.37
15.85652780532837,-0.16,-0.08,1.15,1.16
15.85805082321167,-0.62,0.01,0.93,1.11
15.871586799621582,-1.16,-0.18,0.88,1.46
15.8730628490448,-1.44,-0.23,1.16,1.86
15.887511730194092,-0.99,-0.22,1.01,1.43
15.917281866073608,-0.06,-0.14,0.2,0.25
15.918866872787476,0.48,0.09,-0.58,0.75
15.9198637008667,0.72,0.3,-0.87,1.16
15.939868927001953,0.5,0.44,-0.65,0.93
15.941373825073242,-0.11,0.59,-0.39,0.71
15.9561448097229,-0.86,0.55,-0.41,1.1
15.95760989189148,-1.45,0.47,-0.54,1.61
15.97139286994934,-1.48,0.48,-0.31,1.58
15.972819805145264,-0.75,0.36,-0.08,0.83
15.987527847290039,0.24,0.3,-0.2,0.43
16.015586853027344,0.8,0.26,-0.71,1.1
16.01687002182007,1.09,0.11,-0.98,1.46
16.017841815948486,1.34,0.09,-0.54,1.44
16.020061016082764,1.17,0.05,0.07,1.17
16.028722763061523,0.71,-0.01,0.58,0.91
16.038710832595825,0.5,-0.06,1.03,1.14
16.04871892929077,0.36,-0.06,0.87,0.94
16.058917999267578,0.34,-0.01,0.58,0.67
16.06866693496704,0.48,-0.09,0.43,0.65
16.07866668701172,0.46,-0.08,0.16,0.49
16.088578701019287,0.34,-0.06,-0.18,0.38
16.119834899902344,0.25,-0.03,-0.22,0.33
16.12100887298584,0.12,0.06,-0.11,0.17
16.12201189994812,-0.12,0.08,-0.12,0.18
16.139784812927246,-0.39,0.11,-0.01,0.4
16.140827894210815,-0.55,0.14,0.09,0.57
16.155911922454834,-0.73,0.18,-0.07,0.75
16.157848834991455,-0.56,0.28,-0.15,0.64
16.17155385017395,-0.28,0.26,-0.08,0.39
16.17791485786438,-0.18,0.24,0.09,0.31
16.18777585029602,-0.2,0.26,0.05,0.33
16.21865487098694,-0.24,0.24,-0.1,0.35
16.219931840896606,-0.2,0.21,-0.13,0.31
16.220914840698242,-0.1,0.11,-0.13,0.19
16.239809036254883,-0.02,-0.06,0.0,0.06
16.24082899093628,-0.09,-0.22,0.17,0.29
16.256077766418457,-0.21,-0.26,0.21,0.39
16.257568836212158,-0.27,-0.21,0.13,0.36
16.271716833114624,-0.32,-0.06,-0.08,0.33
16.277050971984863,-0.23,0.1,-0.11,0.27
16.287789821624756,0.06,0.16,-0.02,0.17
16.318718910217285,0.39,0.17,0.02,0.42
16.32018280029297,0.64,0.04,-0.02,0.64
16.3211989402771,0.6,-0.17,-0.06,0.62
16.339918851852417,0.22,-0.23,-0.05,0.32
16.340914726257324,-0.26,-0.21,0.06,0.33
16.356422901153564,-0.49,-0.22,0.3,0.61
16.357873916625977,-0.61,-0.19,0.38,0.74
16.37168288230896,-0.6,0.03,0.24,0.64
16.37641191482544,-0.14,0.35,0.14,0.4
16.387756824493408,0.32,0.37,0.05,0.49
16.41839075088501,0.43,0.24,-0.13,0.5
16.419682025909424,0.27,-0.04,-0.19,0.33
16.42070198059082,0.1,-0.15,-0.11,0.21
16.44049596786499,-0.03,0.07,-0.3,0.3
16.441962718963623,-0.21,0.2,-0.78,0.83
16.456235885620117,-0.57,0.14,-0.99,1.15
16.457708835601807,-1.01,-0.07,-0.94,1.38
16.471214771270752,-1.54,-0.16,-0.73,1.71
16.4754638671875,-2.08,0.02,-0.59,2.16
16.487817764282227,-2.42,0.43,-0.46,2.5
16.524077892303467,-2.4,0.89,-0.57,2.62
16.525405883789062,-1.8,1.0,-0.6,2.14
16.52641201019287,-0.97,0.74,-0.37,1.27
16.540117740631104,-0.73,0.48,-0.9,1.25
16.54118299484253,0.39,0.49,-0.79,1.0
16.556294918060303,1.31,0.06,-0.35,1.35
16.55777072906494,1.52,-0.19,-0.51,1.61
16.571785926818848,1.32,-0.22,-0.75,1.53
16.574782848358154,1.11,-0.32,-0.39,1.21
16.58809471130371,1.22,0.09,0.07,1.22
16.621822834014893,1.52,0.37,0.19,1.57
16.62329387664795,1.84,0.12,0.21,1.85
16.624286890029907,1.73,0.2,0.4,1.78
16.640767812728882,1.36,0.19,1.06,1.73
16.64223575592041,0.57,0.74,1.31,1.6
16.656389713287354,0.2,1.32,1.39,1.92
16.657869815826416,-0.29,1.46,1.21,1.91
16.671912908554077,-0.76,1.64,1.36,2.26
16.673966884613037,-1.17,1.82,1.29,2.51
16.688132762908936,-1.6,2.27,0.84,2.9
16.72148585319519,-1.62,2.59,0.75,3.14
16.72287368774414,-1.35,3.06,0.59,3.39
16.723907947540283,-1.36,3.4,0.25,3.67
16.724956035614014,-1.17,3.59,-0.13,3.77
16.733354806900024,-1.18,3.78,-0.26,3.96
16.743391036987305,-1.22,3.39,-0.53,3.64
16.753647804260254,-1.26,2.77,-0.78,3.14
16.763478755950928,-1.65,2.35,-0.68,2.95
16.77332091331482,-1.98,2.09,-0.72,2.96
16.783175945281982,-1.72,1.75,-0.97,2.63
16.81971502304077,-0.98,1.63,-1.2,2.24
16.820985794067383,-0.52,1.54,-1.25,2.05
16.822048902511597,-0.29,1.2,-1.5,1.94
16.84191370010376,0.43,0.41,-2.02,2.1
16.843371868133545,1.62,0.55,-2.5,3.02
16.856473922729492,3.12,2.14,-2.58,4.57
16.857955932617188,3.59,3.07,-2.8,5.49
16.87217903137207,0.96,1.4,-2.85,3.31
16.87359380722046,-0.87,-0.29,-2.6,2.75
16.88846182823181,-1.99,-2.39,-3.01,4.32
16.892414808273315,-2.99,-3.66,-3.85,6.09
16.936522006988525,-0.93,-2.53,-3.3,4.26
16.93763494491577,-1.01,-3.42,-3.53,5.01
16.938649892807007,-3.5,-3.8,-4.15,6.62
16.95710277557373,-5.66,-3.11,-4.13,7.66
16.9581298828125,-6.3,-2.1,-3.45,7.48
16.972896814346313,-5.72,-1.64,-2.53,6.46
16.97434687614441,-4.79,-1.8,-1.94,5.47
16.98855972290039,-4.1,-2.07,-1.67,4.88
16.990031719207764,-3.66,-2.18,-1.55,4.53
17.004835844039917,-3.38,-2.02,-1.49,4.21
17.03355073928833,-3.26,-1.72,-1.38,3.93
17.034849882125854,-3.04,-1.41,-1.18,3.55
17.035844802856445,-2.66,-1.04,-0.96,3.01
17.05735182762146,-2.4,-0.8,-0.9,2.68
17.058822870254517,-2.41,-0.56,-1.19,2.74
17.073201894760132,-2.5,-0.2,-1.43,2.88
17.07469391822815,-2.36,0.08,-1.31,2.7
17.08881378173828,-2.0,0.23,-0.85,2.18
17.0902738571167,-1.55,0.33,-0.24,1.6
17.104877948760986,-0.98,0.42,0.22,1.08
17.133359909057617,-0.37,0.46,0.38,0.7
17.13475799560547,0.02,0.52,0.45,0.68
17.135791778564453,0.1,0.66,0.62,0.91
17.15755271911621,0.08,0.86,0.72,1.12
17.15901279449463,0.25,1.17,0.66,1.36
17.17301893234253,0.62,1.3,0.68,1.59
17.17447280883789,1.06,1.17,0.81,1.77
17.1885929107666,1.34,1.06,1.11,2.03
17.190052032470703,1.3,0.99,1.49,2.21
17.204867839813232,1.05,0.99,1.85,2.34
17.234130859375,0.77,1.07,2.11,2.48
17.235404014587402,0.53,1.15,2.32,2.64
17.236368894577026,0.46,1.11,2.6,2.86
17.25737190246582,0.51,0.74,2.68,2.82
17.258883953094482,0.62,0.52,2.77,2.88
17.273293018341064,0.78,0.38,2.96,3.08
17.274765968322754,0.86,0.18,2.99,3.11
17.288928985595703,0.87,0.09,2.89,3.01
17.290380001068115,1.05,0.12,2.76,2.95
17.30505681037903,1.45,0.16,2.75,3.11
17.334089756011963,1.79,0.32,2.76,3.3
17.33549976348877,2.01,0.41,2.7,3.39
17.336528778076172,2.32,0.45,2.49,3.43
17.35727596282959,2.73,0.41,2.14,3.49
17.358734846115112,3.17,0.38,1.92,3.72
17.37349796295166,3.58,0.26,1.82,4.02
17.37493896484375,3.91,-0.01,1.84,4.32
17.388702869415283,4.14,-0.32,2.03,4.62
17.390065908432007,4.14,-0.65,2.25,4.75
17.405059814453125,4.05,-0.93,2.47,4.83
17.433644771575928,4.08,-1.2,2.61,4.98
17.434963703155518,4.1,-1.45,2.57,5.05
17.435961723327637,3.96,-1.59,2.46,4.92
17.457417011260986,3.77,-1.7,2.38,4.77
17.45888090133667,3.51,-1.84,2.32,4.59
17.47360587120056,3.28,-1.89,2.24,4.39
17.47501277923584,3.14,-1.89,2.16,4.25
17.48873782157898,2.89,-1.5,1.94,3.79
17.49018096923828,2.33,0.8,0.85,2.6
17.505066871643066,5.86,0.98,0.64,5.97
17.534695863723755,10.7,3.27,2.29,11.42
17.536115884780884,9.35,4.07,4.24,11.04
17.537181854248047,1.38,2.68,5.24,6.04
17.5573468208313,-4.62,0.51,5.5,7.2
17.558827877044678,-5.47,-0.73,5.27,7.63
17.573487758636475,-3.74,-0.75,3.12,4.92
17.57494592666626,-1.69,-0.06,0.46,1.75
17.588796854019165,0.07,1.27,-0.58,1.39
17.59026002883911,1.92,1.63,0.57,2.58
17.60506772994995,3.14,0.34,1.96,3.71
17.63401174545288,2.83,-0.58,1.5,3.25
17.6353018283844,1.18,-0.43,-0.33,1.29
17.63630771636963,0.38,-0.1,-1.61,1.65
17.657536029815674,0.74,-0.02,-1.79,1.93
17.65895390510559,1.1,0.02,-1.38,1.76
17.673868894577026,0.96,0.0,-0.78,1.23
17.675383806228638,0.06,-0.11,0.26,0.28
17.68874979019165,-0.84,-0.02,1.4,1.63
17.690208911895752,-1.77,0.03,2.2,2.82
17.70531392097473,-2.26,0.25,2.19,3.15
17.706748962402344,-2.18,0.4,1.15,2.49
17.751205921173096,-1.51,0.38,0.14,1.56
17.752380847930908,-0.56,0.35,-0.6,0.89
17.753357887268066,0.17,0.23,-1.2,1.23
17.7739577293396,0.7,0.12,-1.14,1.34
17.775057792663574,0.82,0.18,-0.77,1.13
17.78955602645874,0.29,0.2,-0.28,0.45
17.791028022766113,-0.41,0.13,-0.01,0.43
17.805563926696777,-0.83,0.29,0.32,0.93
17.806983947753906,-0.74,0.33,0.29,0.86
17.822924852371216,-0.29,0.24,-0.11,0.39
17.851029872894287,0.47,0.08,-0.44,0.64
17.85231304168701,1.28,0.04,-0.56,1.39
17.853347778320312,1.57,0.16,-0.58,1.68
17.87429189682007,1.32,0.09,-0.52,1.42
17.875784873962402,0.77,0.04,-0.1,0.77
17.89026975631714,0.24,0.1,0.42,0.49
17.891721725463867,-0.21,0.12,0.49,0.54
17.905932903289795,-0.35,0.09,0.41,0.54
17.907248973846436,-0.02,-0.02,0.47,0.47
17.921933889389038,0.32,-0.08,0.53,0.62
17.951623916625977,0.42,-0.09,0.36,0.56
17.952899932861328,0.3,-0.09,0.14,0.34
17.95386791229248,0.05,0.03,-0.03,0.06
17.974081993103027,-0.14,0.08,-0.11,0.19
17.975504875183105,-0.13,0.08,-0.04,0.15
17.990290880203247,-0.01,0.04,-0.06,0.07
17.991760730743408,0.09,-0.03,-0.11,0.14
18.005528926849365,0.31,-0.1,0.16,0.36
18.007017850875854,0.52,-0.13,0.38,0.65
18.021941900253296,0.38,-0.06,0.42,0.56
18.05098581314087,0.37,-0.03,0.34,0.5
18.05244779586792,0.59,-0.03,0.37,0.69
18.053401947021484,0.84,-0.05,0.45,0.95
18.07438898086548,1.19,-0.13,0.57,1.32
18.0758159160614,1.11,-0.1,0.57,1.25
18.090409755706787,0.84,0.04,0.29,0.88
18.091895818710327,0.42,0.11,0.02,0.43
18.1057448387146,0.01,0.19,-0.23,0.29
18.107250690460205,-0.21,0.24,-0.46,0.55
18.121906757354736,-0.46,0.26,-0.69,0.86
18.150718688964844,-0.93,0.34,-1.08,1.46
18.152139902114868,-1.47,0.39,-1.59,2.2
18.15313982963562,-1.72,0.52,-1.84,2.57
18.17431092262268,-1.68,0.62,-1.62,2.41
18.17582893371582,-1.57,0.51,-1.22,2.05
18.19057583808899,-1.55,0.37,-0.85,1.8
18.192039012908936,-1.72,0.33,-0.67,1.87
18.205846786499023,-1.89,0.46,-0.65,2.05
18.207340717315674,-2.16,0.57,-0.76,2.35
18.222102880477905,-2.35,0.52,-0.99,2.6
18.254706859588623,-2.36,0.25,-1.23,2.67
18.2564377784729,-1.86,0.07,-0.82,2.03
18.257466793060303,-0.72,-0.08,0.02,0.72
18.274632930755615,0.42,-0.24,0.46,0.66
18.276116847991943,0.97,-0.36,0.53,1.16
18.290592908859253,1.03,-0.44,0.44,1.2
18.29206895828247,1.06,-0.34,0.37,1.17
18.305795907974243,1.47,-0.39,0.32,1.55
18.307268857955933,1.82,-0.51,0.3,1.91
18.321998834609985,1.86,-0.57,0.86,2.12
18.35483169555664,1.95,-0.68,1.57,2.59
18.356485843658447,2.17,-0.88,1.86,2.99
18.3575119972229,2.0,-0.71,1.83,2.8
18.37451696395874,1.49,-0.85,1.76,2.45
18.375999927520752,1.29,-1.0,1.9,2.5
18.390347957611084,1.0,-1.03,1.7,2.22
18.391785860061646,0.52,-1.1,1.46,1.9
18.40663981437683,0.05,-1.0,1.5,1.8
18.408071994781494,-0.39,-0.77,1.64,1.85
18.421876907348633,-0.65,-0.61,1.67,1.89
18.451566696166992,-0.79,-0.44,1.41,1.67
18.45284080505371,-1.07,-0.16,0.75,1.31
18.453828811645508,-1.16,0.11,0.29,1.2
18.474339962005615,-1.0,0.22,0.27,1.05
18.475817918777466,-0.79,0.58,-0.03,0.98
18.49057102203369,-0.68,0.87,-0.69,1.3
18.492043018341064,-0.02,1.01,-0.96,1.39
18.505939960479736,0.19,1.01,-0.98,1.42
18.50732183456421,-0.04,1.09,-1.07,1.52
18.522145748138428,-0.39,1.31,-1.5,2.02
18.52362298965454,-0.81,2.24,-1.21,2.67
18.572319984436035,-1.24,2.51,-0.37,2.82
18.573482036590576,-1.52,2.9,-0.23,3.28
18.574463844299316,-1.21,3.63,0.01,3.82
18.59097385406494,-1.31,3.69,0.05,3.91
18.592029809951782,-1.54,4.11,0.75,4.45
18.60704803466797,-2.07,3.79,0.31,4.32
18.608482837677002,-2.07,3.92,-0.1,4.43
18.622577905654907,-1.44,3.98,0.14,4.23
18.62402081489563,-1.03,3.48,-0.22,3.63
18.638717889785767,-1.18,2.86,-1.25,3.33
18.666194915771484,-1.31,2.47,-1.85,3.35
18.667486906051636,-1.41,2.1,-2.13,3.3
18.66854691505432,-1.55,1.67,-2.88,3.67
18.67079782485962,-1.68,1.15,-3.45,4.0
18.67231583595276,-1.78,1.21,-3.85,4.41
18.673678874969482,-1.72,1.29,-4.43,4.92
18.67500400543213,-1.67,1.02,-4.24,4.66
18.67866587638855,-0.69,1.08,-3.6,3.82
18.68861484527588,1.35,2.39,-3.38,4.35
18.698624849319458,3.53,3.21,-3.33,5.81
18.723801851272583,2.99,3.0,-3.68,5.61
18.724862813949585,0.67,1.56,-4.55,4.85
18.728107929229736,-1.78,-0.77,-4.52,4.91
18.73977279663086,-1.55,-0.44,-2.51,2.98
18.74805188179016,-0.18,-1.52,-1.09,1.87
18.757927894592285,-2.74,-3.47,-1.69,4.73
18.76802396774292,-5.98,-3.2,-2.59,7.26
18.777700901031494,-7.69,-2.86,-3.15,8.78
18.787983894348145,-6.94,-3.16,-3.2,8.26
18.79803991317749,-4.91,-4.03,-3.13,7.08
18.826382875442505,-3.37,-4.43,-2.91,6.28
18.827679872512817,-2.34,-4.07,-2.6,5.36
18.828701972961426,-1.47,-3.75,-2.68,4.83
18.84112286567688,-1.11,-3.32,-2.63,4.37
18.847533702850342,-0.93,-2.66,-2.1,3.51
18.857420921325684,-0.9,-2.3,-1.16,2.72
18.86728286743164,-1.25,-2.27,-0.09,2.59
18.877370834350586,-1.67,-1.8,0.94,2.62
18.887703895568848,-1.92,-1.04,1.78,2.81
18.897230863571167,-2.37,-0.39,2.35,3.36
18.932889938354492,-2.97,0.24,2.72,4.03
18.934114933013916,-3.16,0.92,2.98,4.43
18.935110807418823,-2.71,1.24,3.19,4.36
18.937498807907104,-1.91,1.4,3.24,4.01
18.946707725524902,-1.17,1.54,3.18,3.72
18.956673860549927,-0.84,1.68,2.96,3.5
18.96643590927124,-0.77,1.94,2.57,3.31
18.976542949676514,-0.62,2.17,2.26,3.19
18.986913919448853,-0.22,2.29,2.12,3.12
18.996635913848877,0.47,2.07,1.89,2.84
19.031940937042236,0.95,1.6,1.5,2.39
19.033246994018555,1.09,1.21,1.21,2.02
19.034236907958984,1.07,0.93,0.99,1.72
19.037705898284912,0.99,0.75,0.93,1.55
19.056944847106934,0.88,0.48,0.98,1.4
19.05795192718506,0.58,0.19,1.15,1.3
19.072966814041138,0.12,-0.06,1.41,1.41
19.07597780227661,-0.16,-0.2,1.66,1.67
19.089088916778564,-0.09,-0.2,2.01,2.02
19.095921993255615,0.35,-0.4,2.27,2.33
19.132287979125977,0.87,-1.04,2.28,2.65
19.13349485397339,1.01,-1.38,2.2,2.78
19.134706020355225,1.07,-1.22,2.22,2.74
19.137342929840088,1.41,-0.93,2.33,2.87
19.157089710235596,1.94,-0.61,2.51,3.23
19.15804386138916,2.42,-0.37,2.51,3.5
19.17306685447693,2.81,-0.29,2.36,3.68
19.175090789794922,3.17,-0.36,2.32,3.94
19.189076900482178,3.53,-0.3,2.56,4.37
19.195204734802246,3.76,-0.24,3.27,4.98
19.2322998046875,3.59,-0.36,3.65,5.13
19.233487844467163,3.15,-0.48,3.2,4.51
19.234676837921143,3.02,-0.6,2.6,4.02
19.237501859664917,3.7,0.58,2.12,4.3
19.2572979927063,7.46,1.93,0.8,7.74
19.258566856384277,13.43,1.05,1.76,13.58
19.273188829421997,17.91,5.23,4.95,19.3
19.27469301223755,14.64,2.44,5.67,15.88
19.289225816726685,3.63,-2.58,2.84,5.28
19.294418811798096,-5.09,-0.87,1.52,5.38
19.30572271347046,-5.89,-0.08,1.87,6.18
19.337047815322876,-2.56,1.19,3.01,4.12
19.338329792022705,-0.6,2.54,2.42,3.55
19.339297771453857,-1.09,2.38,0.82,2.74
19.35859775543213,-0.97,0.65,0.69,1.35
19.36007285118103,0.2,-0.17,1.33,1.35
19.374018907546997,0.99,-0.01,1.1,1.47
19.375494956970215,1.04,-0.19,0.69,1.26
19.389667987823486,1.38,-0.65,0.36,1.56
19.393394947052002,1.77,-0.85,-0.47,2.01
19.40490484237671,1.55,-0.48,-1.34,2.1
19.43616485595703,0.97,-0.14,-0.93,1.35
19.437460899353027,-0.07,0.01,0.4,0.4
19.438472747802734,-1.27,0.14,1.67,2.1
19.458048820495605,-1.64,0.33,2.45,2.96
19.45950484275818,-1.02,0.33,1.83,2.12
19.474113941192627,-0.52,0.28,0.71,0.92
19.475602865219116,-0.15,0.3,-0.09,0.34
19.48953890800476,0.14,0.28,-0.36,0.47
19.492778778076172,0.15,0.28,-0.81,0.87
19.505947828292847,0.0,0.26,-1.26,1.28
19.534896850585938,-0.22,0.22,-1.11,1.15
19.536176919937134,-0.13,0.2,-0.67,0.71
19.537163734436035,0.07,0.21,-0.33,0.39
19.558053016662598,0.09,0.34,-0.41,0.54
19.559083938598633,0.15,0.27,-0.5,0.58
19.5741868019104,0.41,0.2,-0.41,0.61
19.57557773590088,0.57,0.2,-0.45,0.75
19.589804887771606,0.61,0.17,-0.48,0.79
19.591874837875366,0.72,0.0,-0.34,0.79
19.605937957763672,0.83,-0.05,-0.07,0.83
19.633745908737183,0.82,-0.07,0.29,0.87
19.635109901428223,0.64,-0.17,0.49,0.82
19.63611078262329,0.31,-0.2,0.52,0.63
19.641414880752563,-0.1,-0.08,0.46,0.47
19.651319980621338,-0.41,-0.01,0.49,0.63
19.661452770233154,-0.46,-0.02,0.62,0.77
19.671440839767456,-0.32,-0.05,0.59,0.67
19.68143892288208,-0.24,0.03,0.4,0.46
19.691339015960693,-0.23,0.13,0.4,0.47
19.701223850250244,-0.17,0.14,0.47,0.51
19.737796783447266,-0.12,0.13,0.4,0.43
19.739212036132812,0.03,0.11,0.18,0.21
19.74021291732788,0.2,0.06,0.09,0.22
19.75780487060547,0.25,0.04,0.06,0.26
19.758895874023438,0.29,0.01,0.03,0.29
19.774394989013672,0.45,-0.05,0.1,0.46
19.775866985321045,0.47,-0.09,0.23,0.53
19.78051781654358,0.27,-0.08,0.25,0.37
19.79049587249756,0.21,-0.08,0.29,0.36
19.800379753112793,0.42,-0.13,0.35,0.56
19.838645935058594,0.41,-0.16,0.24,0.5
19.839916706085205,0.23,-0.15,0.09,0.28
19.840884923934937,0.23,-0.22,0.25,0.4
19.858145713806152,0.21,-0.25,0.37,0.49
19.85920786857605,-0.08,-0.15,0.15,0.22
19.874253749847412,-0.16,-0.07,0.05,0.18
19.87573003768921,-0.02,-0.04,0.13,0.13
19.88984990119934,-0.05,-0.09,0.18,0.2
19.891299724578857,-0.22,-0.04,0.13,0.25
19.906091690063477,-0.29,0.25,0.23,0.44
19.938416957855225,-0.53,0.43,0.22,0.71
19.93982481956482,-0.55,0.44,0.32,0.77
19.940833806991577,-0.08,0.34,0.62,0.71
19.958512783050537,0.12,0.13,0.55,0.57
19.960007905960083,0.21,-0.03,0.15,0.25
19.974629878997803,0.18,-0.04,-0.08,0.2
19.976078987121582,0.03,0.04,-0.32,0.32
19.99003291130066,-0.14,0.17,-0.55,0.59
19.991511821746826,-0.3,0.22,-0.54,0.65
20.006062984466553,-0.58,0.26,-0.44,0.77
20.037319898605347,-0.91,0.32,-0.47,1.07
20.038679838180542,-1.3,0.42,-0.8,1.58
20.03969383239746,-1.76,0.53,-1.29,2.24
20.058297872543335,-2.12,0.67,-1.49,2.67
20.059762001037598,-2.13,0.7,-1.51,2.7
20.074513912200928,-1.85,0.58,-1.53,2.46
20.07601499557495,-1.5,0.51,-1.68,2.3
20.090059757232666,-0.7,0.44,-1.74,1.92
20.0915470123291,0.06,0.07,-1.27,1.27
20.106256008148193,0.3,-0.29,-0.3,0.51
20.107942819595337,0.84,-0.54,1.0,1.41
20.159121990203857,1.49,-0.85,1.88,2.54
20.160342693328857,1.37,-0.89,1.97,2.55
20.16131281852722,0.76,-0.67,1.7,1.97
20.175249814987183,0.4,-0.45,1.56,1.67
20.176257848739624,0.59,-0.27,1.48,1.61
20.19120502471924,0.82,-0.29,1.42,1.66
20.19266700744629,0.57,-0.25,1.28,1.42
20.206933975219727,-0.06,-0.12,0.66,0.67
20.208436965942383,-0.75,0.35,-0.6,1.02
20.222916841506958,-0.67,0.76,-1.62,1.91
20.2514009475708,-0.29,0.81,-2.27,2.42
20.252887725830078,0.13,0.62,-2.56,2.63
20.253891944885254,0.75,0.32,-2.04,2.19
20.27517795562744,1.24,0.05,-1.27,1.77
20.276233911514282,0.95,0.09,-0.51,1.08
20.291422843933105,0.28,0.19,-0.04,0.34
20.292863845825195,0.31,0.34,1.3,1.37
20.306941986083984,-0.1,0.29,1.88,1.9
20.308396816253662,-0.41,0.3,1.8,1.87
20.322930812835693,-0.39,0.48,1.78,1.88
20.351940870285034,-0.48,1.06,1.3,1.74
20.353262901306152,-1.3,2.16,0.9,2.67
20.35431981086731,-2.22,3.16,1.35,4.09
20.3750638961792,-2.04,3.24,1.78,4.22
20.376077890396118,-1.36,3.33,1.29,3.82
20.391292810440063,-0.6,3.0,0.86,3.17
20.392761707305908,-0.15,2.49,0.43,2.53
20.406824827194214,0.1,2.14,-0.37,2.17
20.4083468914032,0.14,2.43,-0.83,2.57
20.422969818115234,0.12,2.94,-0.84,3.06
20.45146083831787,0.04,2.95,-1.13,3.15
20.452802896499634,-0.19,2.79,-1.46,3.15
20.453672885894775,-0.6,2.47,-1.43,2.91
20.455805778503418,-1.11,1.97,-1.43,2.67
20.457069873809814,-1.53,1.41,-1.8,2.75
20.465319871902466,-1.43,1.26,-1.88,2.67
20.475228786468506,-1.0,1.16,-2.03,2.54
20.4852557182312,-0.42,1.13,-2.12,2.43
20.49530792236328,0.14,0.82,-2.06,2.22
20.505337715148926,0.8,0.5,-2.31,2.49
20.54060387611389,1.42,0.33,-2.84,3.19
20.541762828826904,2.5,0.96,-3.12,4.11
20.542759895324707,3.28,2.03,-3.27,5.05
20.558562755584717,1.78,1.33,-3.47,4.12
20.55960988998413,0.19,0.31,-3.57,3.58
20.57457184791565,-0.96,-0.75,-3.94,4.12
20.57561492919922,-2.55,-2.28,-4.2,5.41
20.590343952178955,-3.6,-1.97,-3.78,5.57
20.594454765319824,-2.13,-0.4,-2.29,3.15
20.60637378692627,-2.38,-1.15,-2.11,3.38
20.64125084877014,-4.58,-1.45,-2.96,5.64
20.642481803894043,-6.58,-0.97,-3.39,7.46
20.64351987838745,-7.13,-0.58,-3.13,7.8
20.6588397026062,-6.4,-0.8,-2.5,6.91
20.65989089012146,-5.05,-1.21,-1.72,5.47
20.674633979797363,-3.69,-1.5,-1.27,4.18
20.676098823547363,-2.84,-1.31,-1.57,3.49
20.69015073776245,-2.72,-0.79,-1.91,3.41
20.693734884262085,-2.85,-0.58,-1.7,3.36
20.706395864486694,-2.86,-0.62,-1.25,3.18
20.73925495147705,-2.76,-0.84,-0.92,3.02
20.740646839141846,-2.56,-0.96,-0.84,2.86
20.74165391921997,-2.51,-0.97,-0.72,2.78
20.758482933044434,-2.47,-0.69,-0.2,2.57
20.759480953216553,-2.29,-0.49,0.37,2.37
20.775537967681885,-2.11,-0.46,0.75,2.28
20.776989936828613,-2.22,-0.44,1.22,2.57
20.79063582420349,-2.45,-0.32,1.72,3.01
20.792771816253662,-2.47,0.02,2.28,3.36
20.806760787963867,-2.3,0.38,2.66,3.53
20.841071844100952,-2.33,0.63,2.79,3.68
20.842561721801758,-2.44,0.95,2.68,3.74
20.843572854995728,-2.1,1.23,2.41,3.42
20.85865592956543,-1.31,1.41,2.12,2.86
20.859692811965942,-0.5,1.38,2.04,2.51
20.87486481666565,0.12,1.51,2.09,2.58
20.8763108253479,0.83,1.67,2.18,2.86
20.890386819839478,1.55,1.42,2.1,2.97
20.891939878463745,1.92,1.32,1.9,3.0
20.9066219329834,2.16,1.4,1.68,3.07
20.91203784942627,2.48,1.41,1.68,3.31
20.95306086540222,2.93,1.31,1.82,3.68
20.954234838485718,3.39,1.04,1.97,4.05
20.95523190498352,3.6,0.72,2.13,4.24
20.975456714630127,3.64,0.48,2.22,4.29
20.976937770843506,3.76,0.17,2.27,4.39
20.991434812545776,3.95,-0.27,2.36,4.6
20.992899894714355,4.19,-0.73,2.47,4.91
21.0071120262146,4.54,-1.05,2.5,5.28
21.008586883544922,4.94,-1.19,2.38,5.61
21.02326774597168,5.25,-1.08,2.4,5.87
21.053969860076904,5.36,-0.96,2.56,6.01
21.055258750915527,5.14,-0.8,2.64,5.83
21.05629587173462,4.76,-0.47,2.54,5.41
21.075758934020996,4.52,-0.07,2.47,5.15
21.077212810516357,4.05,1.16,2.34,4.81
21.091449737548828,3.04,3.12,1.93,4.76
21.092893838882446,4.52,1.23,2.06,5.11
21.107157707214355,6.17,0.87,3.17,6.99
21.10865092277527,8.27,1.32,3.5,9.07
21.12318181991577,11.19,0.73,3.68,11.8
21.15263795852661,9.86,1.35,3.93,10.69
21.15400791168213,3.04,1.24,4.18,5.31
21.15500283241272,-2.46,-0.51,4.2,4.89
21.175622940063477,-3.06,-1.4,3.54,4.88
21.17660093307495,-1.37,-0.78,2.21,2.71
21.191666841506958,-0.25,0.09,0.67,0.72
21.193169832229614,0.14,0.95,-0.32,1.01
21.207387924194336,0.48,1.58,-0.62,1.76
21.208876848220825,1.09,1.33,-0.44,1.77
21.223423957824707,1.32,0.35,-0.23,1.38
21.25180673599243,1.15,-0.11,-0.16,1.16
21.253192901611328,1.22,-0.15,-0.21,1.24
21.254214763641357,1.3,-0.16,-0.33,1.35
21.257198810577393,0.92,-0.14,-0.17,0.94
21.259217739105225,0.24,-0.06,0.36,0.43
21.269150733947754,-0.31,0.0,1.04,1.08
21.279263973236084,-0.77,0.05,1.59,1.76
21.289127826690674,-0.92,-0.04,1.71,1.94
21.299232006072998,-0.53,-0.1,1.39,1.49
21.309508800506592,-0.05,-0.08,0.91,0.91
21.33830690383911,0.19,-0.15,0.42,0.48
21.33952569961548,0.28,-0.09,0.3,0.42
21.340543746948242,0.23,0.02,0.21,0.31
21.359554767608643,-0.14,0.1,-0.09,0.19
21.3609938621521,-0.41,0.21,-0.17,0.49
21.375075817108154,-0.33,0.26,-0.04,0.42
21.378517866134644,0.02,0.17,0.06,0.18
21.390705823898315,-0.12,0.14,0.41,0.44
21.398526906967163,-0.36,0.24,0.58,0.72
21.408198833465576,-0.39,0.24,0.76,0.88
21.44693374633789,-0.25,0.08,0.74,0.78
21.448302745819092,-0.27,-0.05,0.34,0.43
21.449317932128906,-0.38,0.05,0.23,0.44
21.459138870239258,-0.31,0.11,0.39,0.51
21.460211753845215,-0.14,0.01,0.89,0.9
21.475297927856445,-0.11,-0.05,1.33,1.33
21.478107929229736,-0.09,-0.2,0.79,0.81
21.490761756896973,0.12,-0.3,-0.1,0.33
21.497541904449463,0.75,-0.29,-0.69,1.05
21.50746774673462,1.4,-0.37,-1.06,1.79
21.546847820281982,1.46,-0.17,-0.98,1.76
21.54819083213806,0.85,0.17,-0.77,1.15
21.549211978912354,-0.07,0.37,-0.65,0.75
21.55889582633972,-0.57,0.46,-0.22,0.76
21.559937953948975,-0.42,0.31,-0.11,0.53
21.57554292678833,-0.15,0.14,0.05,0.21
21.577017784118652,-0.05,0.03,0.36,0.36
21.59079599380493,0.02,0.05,0.07,0.08
21.59718894958496,0.26,0.17,-0.5,0.58
21.60701584815979,0.63,0.29,-0.78,1.04
21.64562487602234,0.72,0.3,-0.91,1.19
21.646989822387695,0.65,0.22,-0.48,0.83
21.648005962371826,0.47,0.07,0.29,0.55
21.65857172012329,0.06,0.03,0.58,0.58
21.659636974334717,-0.22,0.12,0.59,0.64
21.67513084411621,-0.32,0.14,0.56,0.66
21.67611289024353,-0.32,0.09,0.51,0.6
21.690688848495483,-0.32,0.17,0.23,0.42
21.696070909500122,-0.13,0.08,0.06,0.16
21.706605911254883,0.1,0.01,0.13,0.16
21.71608877182007,0.33,0.0,0.12,0.35
21.747790813446045,0.34,-0.05,0.03,0.34
21.748992919921875,0.04,-0.13,-0.04,0.14
21.75018286705017,-0.31,-0.19,-0.06,0.36
21.75826382637024,-0.53,-0.09,0.04,0.53
21.765559911727905,-0.63,0.07,0.27,0.68
21.775187969207764,-0.6,0.15,0.45,0.76
21.785515785217285,-0.16,0.14,0.62,0.65
21.795289993286133,0.49,0.06,0.6,0.77
21.805620908737183,0.96,-0.07,0.29,1.0
21.8153178691864,1.13,-0.21,0.11,1.15
21.84808087348938,1.06,-0.32,-0.1,1.11
21.849475860595703,0.6,-0.43,-0.32,0.8
21.850544929504395,-0.14,-0.32,-0.24,0.42
21.858198881149292,-0.78,0.24,0.08,0.82
21.86460304260254,-1.27,0.52,-0.02,1.37
21.8745698928833,-1.11,0.54,0.04,1.23
21.88439702987671,-0.68,0.54,0.07,0.87
21.894447803497314,-0.5,0.52,-0.28,0.77
21.90477681159973,-0.4,0.4,-0.6,0.82
21.91463279724121,-0.25,0.23,-0.64,0.72
21.947192907333374,-0.1,0.14,-0.51,0.53
21.948530912399292,0.07,0.01,-0.41,0.41
21.949577808380127,0.04,-0.07,-0.25,0.26
21.95938491821289,-0.36,-0.03,-0.15,0.39
21.96376371383667,-0.95,0.04,-0.09,0.95
21.974933862686157,-1.09,0.22,-0.22,1.13
21.98432683944702,-1.11,0.43,-0.19,1.2
21.993814945220947,-0.9,0.49,-0.21,1.04
22.004029750823975,-0.17,0.47,-0.13,0.51
22.013667821884155,-0.07,0.31,-0.2,0.37
22.046406745910645,-0.16,0.02,-0.07,0.17
22.047703742980957,-0.38,-0.24,0.08,0.45
22.04876470565796,-0.39,-0.43,0.27,0.64
22.059303760528564,-0.34,-0.31,0.18,0.49
22.063130855560303,-0.22,0.17,-0.34,0.43
22.074906826019287,0.41,0.38,-0.35,0.65
22.083415031433105,0.83,0.64,-0.44,1.13
22.093050956726074,0.84,0.45,-0.66,1.15
22.10326099395752,0.62,0.21,-0.59,0.88
22.11312770843506,0.36,-0.08,-0.13,0.39
22.14973282814026,-0.16,-0.23,-0.19,0.33
22.151177883148193,-0.25,0.07,-0.12,0.28
22.152137756347656,-0.13,0.61,0.31,0.69
22.155200004577637,-0.01,0.82,0.28,0.86
22.175034999847412,0.23,1.1,0.38,1.18
22.17608880996704,0.59,1.37,0.71,1.65
22.1907320022583,0.36,1.36,0.49,1.48
22.192218780517578,0.09,1.69,0.79,1.86
22.20732879638672,-0.21,1.6,1.0,1.89
22.212251901626587,-0.46,1.78,0.86,2.02
22.251654863357544,-0.87,1.87,0.69,2.17
22.252803802490234,-0.79,1.58,0.78,1.93
22.25375485420227,0.09,1.59,1.16,1.97
22.25603485107422,0.62,1.67,0.87,1.98
22.26161289215088,0.94,1.59,0.37,1.88
22.271747827529907,0.88,1.61,0.07,1.83
22.281720876693726,0.66,1.46,-0.16,1.61
22.291752815246582,0.44,1.21,-0.28,1.31
22.30154800415039,0.11,1.11,-0.54,1.23
22.311590909957886,-0.22,0.92,-0.87,1.28
22.347830772399902,-0.45,0.71,-1.21,1.47
22.349140882492065,-0.52,0.95,-1.42,1.78
22.35017490386963,-0.69,0.97,-1.82,2.17
22.356204986572266,-0.74,0.61,-2.17,2.37
22.360925912857056,-0.58,0.24,-2.29,2.37
22.375082969665527,-0.43,0.04,-2.39,2.42
22.381253719329834,-0.16,0.95,-2.3,2.49
22.390981912612915,0.07,2.06,-2.51,3.24
22.400959968566895,0.29,2.24,-2.71,3.52
22.410619735717773,0.95,2.06,-3.29,3.99
22.447797775268555,0.43,0.98,-4.35,4.47
22.44912576675415,-0.91,0.05,-4.85,4.93
22.450203895568848,-2.74,-1.13,-4.72,5.57
22.45621681213379,-4.48,-1.45,-4.05,6.21
22.459966897964478,-4.03,-0.09,-2.41,4.69
22.47527289390564,-3.88,-1.04,-1.79,4.39
22.480167865753174,-5.49,-1.91,-2.27,6.24
22.491001844406128,-7.33,-2.02,-2.88,8.13
22.500229835510254,-7.82,-1.56,-2.76,8.43
22.509967803955078,-6.78,-1.18,-1.97,7.15
22.519930839538574,-5.33,-1.16,-1.47,5.64
22.553330898284912,-4.47,-0.93,-1.65,4.85
22.55447483062744,-4.2,-0.35,-2.0,4.66
22.555486917495728,-4.34,0.37,-2.18,4.87
22.57626986503601,-4.61,0.93,-2.1,5.15
22.577292919158936,-4.77,1.3,-1.85,5.27
22.59224271774292,-4.67,1.89,-1.55,5.27
22.593551874160767,-4.58,2.45,-1.44,5.39
22.6077778339386,-4.74,2.65,-1.51,5.63
22.609233856201172,-4.67,2.51,-1.41,5.48
22.623942852020264,-3.88,2.21,-0.94,4.56
22.65294885635376,-2.64,1.7,-0.37,3.16
22.654284954071045,-1.72,1.09,0.02,2.03
22.655268907546997,-1.27,0.78,0.31,1.52
22.67605185508728,-0.91,0.87,0.74,1.46
22.677128791809082,-0.41,0.81,1.12,1.44
22.692430019378662,0.19,0.6,1.49,1.61
22.693883895874023,0.77,0.49,2.03,2.22
22.707862854003906,1.47,0.19,2.61,3.0
22.709259033203125,2.38,-0.34,3.02,3.86
22.724331855773926,3.22,-0.79,3.34,4.7
22.753039836883545,3.95,-1.02,3.67,5.48
22.754459857940674,4.69,-1.11,4.13,6.34
22.755469799041748,5.49,-0.98,4.64,7.25
22.77650785446167,6.36,-0.7,5.16,8.21
22.77794075012207,7.27,-0.44,5.61,9.19
22.792315006256104,8.08,-0.19,5.82,9.95
22.79378581047058,8.66,-0.2,5.61,10.32
22.808121919631958,8.62,-0.23,5.11,10.02
22.809561729431152,8.0,0.02,4.77,9.31
22.824048042297363,7.26,0.04,4.62,8.6
22.85428476333618,6.65,-0.29,4.53,8.05
22.855729818344116,6.17,-0.86,4.53,7.7
22.85667371749878,5.49,-0.76,4.36,7.05
22.876147747039795,3.89,1.6,3.33,5.36
22.877152919769287,3.66,0.27,3.43,5.02
22.892537832260132,5.44,0.41,4.83,7.28
22.893986701965332,8.41,0.43,5.93,10.29
22.907914876937866,8.87,1.33,5.66,10.6
22.909356832504272,2.18,2.98,3.62,5.17
22.924255847930908,-4.34,3.95,2.32,6.31
22.954264879226685,-5.6,2.59,0.42,6.18
22.955609798431396,-2.92,2.39,-1.16,3.94
22.956649780273438,0.83,1.43,0.67,1.78
22.976268768310547,3.07,-0.17,3.77,4.86
22.977274894714355,2.94,-1.14,3.77,4.91
22.99253273010254,1.21,-0.71,1.71,2.21
22.99394989013672,0.25,0.22,-0.1,0.34
23.007905960083008,0.67,0.15,-0.73,1.0
23.00934386253357,1.2,-0.07,-0.36,1.25
23.02416181564331,1.12,-0.06,-0.12,1.12
23.056935787200928,0.49,0.01,-0.33,0.59
23.058267831802368,-0.02,0.04,-0.36,0.36
23.059269905090332,-0.18,0.02,-0.22,0.28
23.076085805892944,-0.13,0.05,0.0,0.13
23.077133893966675,-0.26,0.04,0.5,0.56
23.09272003173828,-0.41,0.09,0.78,0.88
23.094175815582275,-0.5,0.1,0.94,1.06
23.10794687271118,-0.45,0.01,0.93,1.03
23.1094229221344,-0.55,0.12,0.89,1.05
23.124143838882446,-0.98,0.18,0.71,1.22
23.154902935028076,-1.17,0.17,0.16,1.19
23.156216859817505,-0.62,0.13,-0.39,0.74
23.157221794128418,-0.16,0.18,-0.3,0.38
23.17594003677368,0.11,0.21,-0.04,0.24
23.176990032196045,0.3,0.14,0.0,0.33
23.192736864089966,0.33,0.19,-0.13,0.4
23.194206714630127,0.07,0.26,-0.21,0.34
23.20810079574585,-0.02,0.21,-0.3,0.36
23.209518909454346,0.05,0.11,-0.26,0.28
23.224174976348877,0.0,0.18,-0.2,0.26
23.253349781036377,0.01,0.18,-0.17,0.24
23.254621982574463,0.54,0.03,0.06,0.54
23.255589962005615,0.96,-0.18,0.41,1.05
23.276158809661865,0.88,-0.19,0.55,1.05
23.27710199356079,0.45,-0.04,0.7,0.83
23.29281997680664,0.19,0.09,0.6,0.63
23.294212818145752,-0.06,0.22,0.19,0.29
23.30791687965393,-0.13,0.34,-0.04,0.36
23.309314727783203,-0.14,0.29,-0.04,0.32
23.324448823928833,0.03,0.17,-0.03,0.17
23.32588481903076,0.19,0.05,0.22,0.29
23.373332977294922,0.14,-0.04,0.55,0.56
23.374445915222168,0.02,0.02,0.73,0.73
23.375443935394287,-0.2,0.13,0.54,0.59
23.3936710357666,-0.31,0.19,0.24,0.43
23.39513874053955,-0.21,0.17,0.1,0.28
23.409381866455078,-0.21,0.15,-0.14,0.29
23.410661697387695,-0.25,0.09,-0.39,0.47
23.425312042236328,-0.1,-0.02,-0.19,0.21
23.426726818084717,0.02,-0.12,0.04,0.12
23.44149398803711,0.01,-0.17,0.09,0.19
23.473630905151367,-0.1,-0.12,0.03,0.15
23.47490692138672,-0.17,0.0,0.09,0.19
23.475908756256104,-0.19,0.1,0.3,0.36
23.493515014648438,-0.13,0.17,0.23,0.31
23.494935989379883,-0.04,0.17,0.13,0.21
23.50934600830078,0.02,0.13,0.05,0.14
23.51079797744751,0.06,0.06,-0.02,0.08
23.524669885635376,0.03,0.04,-0.01,0.05
23.52617073059082,0.06,0.01,0.03,0.06
23.541234016418457,0.18,-0.06,0.19,0.26
23.57016086578369,0.12,-0.05,0.14,0.19
23.57156991958618,-0.01,0.03,-0.2,0.2
23.572566032409668,-0.09,-0.02,-0.43,0.43
23.59294581413269,-0.19,-0.11,-0.44,0.49
23.593929767608643,-0.27,-0.16,-0.22,0.38
23.609890937805176,-0.29,-0.06,-0.05,0.3
23.61138892173767,-0.16,0.06,0.15,0.22
23.624822854995728,-0.16,0.12,0.4,0.44
23.626200914382935,-0.22,0.17,0.41,0.49
23.6410129070282,-0.34,0.15,0.22,0.43
23.672197818756104,-0.44,0.12,0.05,0.45
23.673475742340088,-0.42,0.11,-0.1,0.44
23.67449688911438,-0.52,0.22,-0.2,0.59
23.693185806274414,-0.84,0.34,-0.44,1.0
23.694631814956665,-1.03,0.33,-0.74,1.31
23.709614753723145,-1.07,0.16,-0.77,1.32
23.7110698223114,-1.37,0.07,-0.74,1.55
23.725979804992676,-1.95,0.12,-0.93,2.16
23.727372884750366,-2.06,0.26,-0.78,2.21
23.74189281463623,-1.59,0.39,-0.09,1.63
23.77120876312256,-1.09,0.45,-0.36,1.23
23.772478818893433,-0.5,0.5,-0.69,0.98
23.77356195449829,0.03,0.15,-0.29,0.32
23.79305386543274,0.54,-0.29,0.22,0.65
23.79408884048462,0.91,-0.53,0.57,1.19
23.80969476699829,0.78,-0.61,0.83,1.29
23.8111629486084,0.29,-0.55,0.91,1.1
23.825260877609253,0.07,-0.48,0.62,0.78
23.826741695404053,0.65,-0.3,0.85,1.11
23.841104984283447,1.21,-0.29,0.79,1.47
23.870326042175293,1.31,-0.17,0.38,1.37
23.871665954589844,1.01,-0.18,0.13,1.03
23.872670888900757,0.94,-0.12,0.0,0.94
23.893258810043335,1.03,0.04,-0.19,1.04
23.894268035888672,1.03,0.25,-0.49,1.16
23.90986394882202,1.0,0.36,-0.9,1.39
23.911288738250732,0.76,0.61,-1.16,1.51
23.925047874450684,0.67,1.01,-1.24,1.73
23.926512718200684,0.45,1.07,-1.51,1.9
23.941349983215332,0.14,1.3,-1.34,1.87
23.9689679145813,-0.18,1.71,-0.45,1.77
23.97029399871826,-0.58,1.42,0.18,1.54
23.971333026885986,-0.81,1.55,0.38,1.78
23.973174810409546,-0.67,2.14,0.94,2.43
23.974517822265625,-0.59,1.69,0.71,1.92
23.978585720062256,-0.65,1.78,0.94,2.11
23.988842010498047,-0.38,1.28,1.35,1.89
23.998738765716553,-0.35,1.11,1.04,1.56
24.008611917495728,-0.48,1.22,1.0,1.64
24.018401861190796,-0.41,1.1,1.01,1.54
24.053115844726562,-0.31,0.91,0.94,1.34
24.05421495437622,-0.3,0.75,0.62,1.01
24.05536985397339,-0.16,0.69,0.3,0.76
24.057921886444092,-0.07,0.6,-0.01,0.6
24.06804084777832,-0.03,0.59,-0.06,0.59
24.077913761138916,-0.28,0.69,0.07,0.74
24.088127851486206,-0.55,0.71,-0.18,0.91
24.09781789779663,-0.6,0.67,-0.18,0.91
24.10789680480957,-0.69,0.64,-0.21,0.96
24.118052005767822,-0.67,0.71,-0.1,0.98
24.12789487838745,-0.76,0.83,0.03,1.12
24.15894079208374,-0.74,0.88,-0.12,1.15
24.160090923309326,-0.52,1.02,-0.24,1.16
24.161061763763428,-0.2,0.83,-0.3,0.9
24.177088737487793,0.3,0.72,-0.69,1.04
24.178153038024902,0.68,0.69,-1.28,1.6
24.192824840545654,1.11,0.46,-1.75,2.12
24.197011947631836,1.73,1.01,-1.99,2.82
24.207161903381348,2.72,2.33,-2.13,4.16
24.217190742492676,2.42,2.18,-2.1,3.87
24.226924896240234,1.0,0.76,-2.06,2.41
24.258030891418457,0.02,-0.21,-2.19,2.2
24.259325981140137,-1.11,-1.36,-2.73,3.24
24.260320901870728,-2.71,-3.05,-3.5,5.37
24.276963710784912,-2.98,-2.81,-3.49,5.38
24.278015851974487,-1.6,-1.58,-2.75,3.55
24.293073892593384,-2.84,-1.75,-3.2,4.62
24.29660987854004,-5.47,-1.45,-4.0,6.92
24.308637857437134,-7.03,-0.63,-4.12,8.17
24.316300868988037,-6.29,0.31,-3.53,7.21
24.326300859451294,-4.51,0.24,-3.11,5.48
24.358234882354736,-3.54,-0.13,-2.99,4.63
24.360018730163574,-3.42,0.05,-2.91,4.49
24.361016750335693,-3.55,0.5,-2.63,4.44
24.377660751342773,-3.85,0.62,-1.99,4.37
24.378666877746582,-4.21,0.32,-1.28,4.41
24.390400886535645,-4.48,0.06,-0.81,4.55
24.395686864852905,-4.51,0.12,-0.58,4.54
24.409056901931763,-4.27,0.32,-0.55,4.31
24.41563081741333,-4.06,0.49,-0.7,4.14
24.425551891326904,-3.95,0.7,-0.92,4.11
24.45683193206787,-3.69,0.74,-1.12,3.92
24.4581139087677,-3.19,0.56,-1.13,3.43
24.4591007232666,-2.48,0.34,-0.98,2.68
24.476971864700317,-1.84,0.33,-0.75,2.01
24.478020906448364,-1.43,0.55,-0.67,1.67
24.49326491355896,-1.28,0.8,-0.56,1.6
24.495059967041016,-1.04,0.7,-0.32,1.29
24.508776903152466,-0.59,0.27,-0.04,0.65
24.515026807785034,-0.12,-0.07,0.42,0.44
24.524757862091064,-0.01,-0.07,0.97,0.97
24.56296682357788,-0.2,0.11,1.47,1.48
24.564249992370605,-0.23,0.42,2.19,2.24
24.565269947052002,0.12,0.72,3.05,3.13
24.576849937438965,0.77,0.73,3.65,3.8
24.57789897918701,1.44,0.61,3.9,4.2
24.592877864837646,2.07,0.62,4.08,4.61
24.59393072128296,2.74,0.8,4.31,5.16
24.608714818954468,3.45,0.89,4.52,5.75
24.61409091949463,4.2,0.91,4.76,6.41
24.624770879745483,4.85,0.91,4.93,6.97
24.66268301010132,5.28,1.07,4.97,7.32
24.664000034332275,5.58,1.23,5.01,7.59
24.664991855621338,5.9,1.16,4.8,7.69
24.676898956298828,5.93,2.43,4.35,7.74
24.677945852279663,5.8,3.32,3.69,7.63
24.692988872528076,7.15,0.46,3.41,7.93
24.693989753723145,9.34,0.9,4.5,10.4
24.709611892700195,13.9,2.64,5.63,15.22
24.7134747505188,19.09,3.01,6.85,20.5
24.72440004348755,14.24,0.57,6.42,15.63
24.75918674468994,1.62,-1.46,4.31,4.83
24.760501861572266,-6.74,-1.46,0.63,6.92
24.761462688446045,-6.22,0.65,-2.35,6.68
24.777199745178223,-2.36,2.06,-2.52,4.02
24.778231859207153,-0.17,3.0,0.6,3.06
24.793306827545166,0.42,2.04,2.43,3.2
24.794780731201172,1.32,0.02,2.7,3.0
24.80893898010254,2.24,-0.4,2.34,3.26
24.81257390975952,2.13,-0.25,1.17,2.44
24.824886798858643,1.84,-0.64,0.14,1.95
24.860031843185425,1.6,-0.77,-0.05,1.77
24.861423015594482,1.11,-0.58,0.41,1.31
24.862432956695557,0.72,-0.39,0.7,1.07
24.877102851867676,0.65,-0.2,0.55,0.87
24.87817883491516,0.79,-0.1,0.34,0.86
24.89344596862793,0.78,-0.14,0.36,0.87
24.894920825958252,0.55,-0.13,0.62,0.83
24.909021854400635,0.27,-0.17,1.02,1.06
24.911852836608887,0.06,-0.15,1.3,1.31
24.92502498626709,-0.25,-0.06,1.39,1.41
24.93183994293213,-0.53,0.05,1.07,1.19
24.969363689422607,-0.74,0.06,0.61,0.96
24.970531940460205,-0.83,0.04,0.18,0.85
24.971755027770996,-0.64,0.07,-0.08,0.64
24.973289966583252,-0.27,0.16,-0.1,0.32
24.981387853622437,-0.24,0.33,-0.05,0.41
24.99121904373169,-0.38,0.28,0.14,0.49
25.000937938690186,-0.4,0.19,0.39,0.59
25.011313915252686,-0.56,0.2,0.22,0.63
25.021325826644897,-0.55,0.21,-0.01,0.58
25.03105401992798,-0.43,0.15,0.08,0.46
25.0606369972229,-0.47,0.11,0.09,0.49
25.061892986297607,-0.7,0.12,-0.24,0.74
25.06292486190796,-0.9,0.29,-0.65,1.14
25.077383995056152,-0.59,0.55,-0.7,1.06
25.08038902282715,0.08,0.4,-0.15,0.43
25.09309983253479,0.7,0.17,0.01,0.72
25.100399017333984,1.11,0.14,-0.06,1.12
25.1102237701416,1.11,0.13,-0.11,1.12
25.12036895751953,0.84,0.19,-0.29,0.9
25.130313873291016,0.56,0.28,-0.14,0.64
25.161136865615845,0.41,0.24,0.18,0.5
25.16243290901184,0.16,0.06,0.35,0.38
25.163444995880127,-0.1,0.08,0.42,0.43
25.177292823791504,-0.19,0.12,0.23,0.32
25.17958402633667,-0.12,0.14,-0.02,0.18
25.19352102279663,0.04,0.14,-0.07,0.16
25.199842929840088,0.18,0.04,0.04,0.18
25.209457874298096,0.21,-0.04,0.07,0.22
25.219552040100098,0.15,-0.06,0.02,0.16
25.229488849639893,0.05,0.07,0.01,0.08
25.260639905929565,-0.15,0.12,0.02,0.19
25.261955738067627,-0.36,0.12,0.06,0.38
25.26290988922119,-0.32,0.15,0.09,0.36
25.277360916137695,-0.34,0.12,0.24,0.43
25.27864384651184,-0.38,0.06,0.21,0.43
25.29332184791565,-0.19,0.04,0.13,0.23
25.298913955688477,0.04,0.13,0.17,0.21
25.30898094177246,0.21,0.18,0.12,0.3
25.31884789466858,0.25,0.26,0.1,0.37
25.32882595062256,0.09,0.2,0.12,0.25
25.36674690246582,-0.05,0.05,0.25,0.25
25.368005752563477,-0.16,-0.18,0.34,0.41
25.369071006774902,-0.14,-0.3,0.33,0.46
25.373551845550537,-0.03,-0.21,0.3,0.36
25.393542766571045,0.08,-0.04,0.28,0.29
25.39499568939209,0.22,0.09,0.13,0.27
25.40885090827942,0.37,0.13,0.09,0.4
25.41025686264038,0.3,0.13,0.13,0.35
25.425501823425293,-0.02,0.32,0.03,0.32
25.427865028381348,-0.44,0.44,-0.02,0.62
25.474783897399902,-0.68,0.43,-0.05,0.8
25.4759418964386,-0.67,0.21,0.0,0.7
25.476930856704712,-0.61,-0.1,0.04,0.61
25.494611740112305,-0.42,-0.56,0.09,0.7
25.496033906936646,-0.14,-1.13,0.09,1.14
25.510150909423828,0.13,-1.65,-0.08,1.65
25.511623859405518,0.33,-1.82,-0.44,1.9
25.525874853134155,0.27,-1.62,-0.81,1.83
25.52736186981201,0.32,-1.17,-0.22,1.23
25.541810989379883,0.38,-0.94,0.43,1.1
25.570459842681885,0.22,-0.53,1.09,1.23
25.571866989135742,-0.34,0.4,1.39,1.48
25.572924852371216,-1.1,1.01,0.37,1.53
25.57489585876465,-1.3,1.4,-0.36,1.94
25.57661771774292,-1.56,1.7,-0.66,2.39
25.586596965789795,-1.91,1.61,-1.26,2.79
25.596742868423462,-1.47,1.41,-0.72,2.16
25.606729984283447,-0.84,1.36,-0.78,1.77
25.61673593521118,0.17,1.05,-0.92,1.4
25.62651777267456,0.77,0.41,-0.82,1.19
25.66165590286255,0.98,0.0,-0.96,1.37
25.662813901901245,0.96,-0.04,-1.07,1.43
25.663785934448242,0.91,0.01,-0.95,1.31
25.67724370956421,0.57,0.29,-0.6,0.87
25.678334712982178,0.13,0.37,-0.33,0.51
25.69473886489868,0.11,0.42,-0.24,0.49
25.696213722229004,0.74,0.59,-0.06,0.94
25.70918369293213,1.17,0.53,-0.01,1.28
25.715863704681396,1.21,0.59,0.21,1.36
25.725728034973145,1.05,0.77,0.34,1.34
25.73561191558838,0.55,1.23,0.7,1.51
25.76753282546997,-0.34,1.26,1.38,1.89
25.768712043762207,-0.75,1.36,1.34,2.05
25.770046710968018,-0.91,1.31,0.92,1.84
25.774927854537964,-0.91,1.4,1.14,2.02
25.785178899765015,-0.83,1.08,0.87,1.61
25.794904708862305,-0.75,1.09,0.58,1.44
25.805295944213867,-0.51,1.19,0.36,1.34
25.814918041229248,-0.21,1.25,0.09,1.27
25.825150966644287,0.11,1.21,-0.19,1.22
25.835052967071533,0.16,1.15,-0.68,1.34
25.866681814193726,0.28,0.98,-0.94,1.38
25.86791491508484,0.62,0.71,-0.88,1.28
25.868982791900635,0.78,0.47,-0.75,1.17
25.874823808670044,0.67,0.67,-0.61,1.12
25.884407997131348,0.65,1.25,-0.42,1.47
25.89413285255432,0.5,1.67,-0.55,1.82
25.904513835906982,0.31,1.72,-0.95,1.98
25.914228916168213,-0.14,1.55,-1.36,2.06
25.92443084716797,-0.52,1.36,-1.6,2.16
25.934284687042236,-0.66,1.24,-1.71,2.21
25.965438842773438,-0.61,1.38,-1.85,2.38
25.966882705688477,-0.51,1.55,-1.78,2.41
25.967885971069336,-0.38,1.75,-1.48,2.32
25.97760772705078,-0.38,1.64,-1.69,2.38
25.98349690437317,-0.05,1.28,-1.98,2.35
25.99336886405945,0.91,1.54,-2.46,3.04
26.00375270843506,0.45,1.06,-3.29,3.48
26.013700008392334,-0.78,0.39,-3.17,3.28
26.02367091178894,-1.35,0.13,-2.74,3.05
26.033337831497192,-2.07,-0.52,-3.01,3.68
26.06469488143921,-3.52,-1.11,-3.08,4.8
26.065977811813354,-2.89,-0.25,-2.09,3.57
26.066985845565796,-2.63,-1.31,-2.02,3.56
26.077483892440796,-4.78,-1.89,-3.01,5.95
26.082772731781006,-7.12,-1.59,-3.7,8.18
26.093565940856934,-8.01,-1.0,-3.62,8.84
26.10317587852478,-7.04,-0.65,-2.99,7.67
26.112696886062622,-5.35,-0.97,-2.52,5.99
26.122960805892944,-4.26,-1.35,-2.45,5.09
26.132768869400024,-3.72,-1.21,-2.66,4.73
26.169956922531128,-3.38,-0.74,-2.94,4.54
26.171327829360962,-3.27,-0.31,-3.01,4.45
26.172271728515625,-3.12,0.07,-2.82,4.2
26.174537897109985,-2.82,0.28,-2.53,3.79
26.182010889053345,-2.72,0.62,-2.21,3.55
26.192516803741455,-2.83,1.03,-1.89,3.55
26.20229196548462,-3.0,1.22,-1.49,3.56
26.212222814559937,-3.22,1.19,-0.87,3.54
26.222003936767578,-3.48,1.18,-0.1,3.67
26.232051849365234,-3.52,1.2,0.65,3.77
26.26979088783264,-3.15,1.1,1.24,3.55
26.271155834197998,-2.58,0.7,1.5,3.06
26.272095918655396,-1.97,0.31,1.5,2.49
26.274295806884766,-1.35,0.27,1.45,1.99
26.281517028808594,-0.62,0.31,1.41,1.57
26.291751861572266,0.15,0.04,1.5,1.5
26.30152702331543,0.83,-0.25,1.76,1.96
26.311429977416992,1.65,-0.48,1.88,2.54
26.321162700653076,2.61,-0.77,1.78,3.25
26.33132290840149,3.47,-0.71,1.81,3.97
26.369496822357178,4.15,-0.51,2.04,4.65
26.370880842208862,4.53,-0.2,2.41,5.13
26.371845722198486,4.6,0.25,2.86,5.42
26.374172687530518,4.5,0.88,3.42,5.72
26.380324840545654,4.47,1.55,4.14,6.28
26.390742778778076,4.62,1.75,5.03,7.05
26.40089702606201,4.72,1.41,5.89,7.67
26.41066598892212,4.74,0.95,6.31,7.94
26.420512914657593,4.76,0.51,6.26,7.88
26.43049383163452,4.83,0.12,5.96,7.67
26.46755886077881,4.65,2.45,4.98,7.24
26.468864917755127,4.64,1.17,4.33,6.45
26.46991491317749,8.98,-0.19,4.76,10.16
26.473875999450684,16.44,-0.37,6.64,17.73
26.47976779937744,21.6,1.97,7.74,23.02
26.493634700775146,16.4,2.6,6.28,17.75
26.49957275390625,4.48,-1.07,3.0,5.49
26.509686946868896,-5.07,-2.46,-1.91,5.95
26.51983404159546,-6.7,1.56,-3.84,7.87
26.529605865478516,-2.49,6.33,1.73,7.01
26.539719820022583,2.11,4.01,6.95,8.29
26.570600032806396,3.02,-1.71,5.83,6.78
26.57176399230957,1.2,-1.03,2.12,2.64
26.57275080680847,-0.19,0.22,-0.84,0.88
26.59507179260254,0.04,0.09,-1.45,1.45
26.59654688835144,1.16,-0.21,-1.16,1.65
26.610610961914062,1.76,-0.44,-1.63,2.43
26.612061023712158,1.72,-0.31,-1.42,2.25
26.626290798187256,1.3,-0.27,-0.03,1.32
26.62881088256836,0.45,-0.28,1.44,1.53
26.642554759979248,-0.59,-0.08,2.2,2.27
26.670142889022827,-1.04,0.19,2.17,2.41
26.671652793884277,-1.18,0.1,1.63,2.01
26.672683715820312,-0.84,0.25,0.66,1.09
26.678294897079468,-0.55,0.13,-0.34,0.65
26.688130855560303,-0.15,0.2,-1.13,1.15
26.698274850845337,0.0,0.29,-1.33,1.36
26.70857286453247,0.16,0.42,-0.99,1.08
26.718259811401367,0.2,0.4,-0.45,0.63
26.728269815444946,-0.07,0.35,0.1,0.37
26.737992763519287,-0.38,0.19,0.52,0.67
26.769289016723633,-0.48,0.26,0.48,0.72
26.77049493789673,-0.51,0.2,0.04,0.54
26.771761894226074,-0.58,0.28,-0.42,0.76
26.777381896972656,-0.34,0.25,-0.61,0.74
26.794408798217773,0.1,0.05,-0.45,0.46
26.79738998413086,0.46,0.04,-0.23,0.51
26.80977201461792,0.45,0.05,-0.05,0.45
26.817672729492188,0.22,0.14,0.32,0.41
26.8272488117218,-0.19,0.22,0.32,0.43
26.83739995956421,-0.48,0.2,0.03,0.52
26.868453979492188,-0.39,0.21,0.16,0.47
26.86955976486206,-0.15,0.04,0.37,0.4
26.870673894882202,0.22,-0.13,0.46,0.52
26.876803874969482,0.69,-0.21,0.44,0.84
26.894303798675537,0.8,-0.25,0.2,0.86
26.89657688140869,0.69,-0.15,0.21,0.73
26.90988302230835,0.42,-0.06,0.17,0.45
26.916738986968994,0.17,0.03,0.05,0.17
26.926503896713257,-0.03,0.07,-0.12,0.14
26.936794757843018,-0.01,0.06,-0.04,0.07
26.973509788513184,0.14,-0.01,0.14,0.19
26.97464680671692,0.08,0.04,0.17,0.19
26.97552490234375,0.03,0.2,0.18,0.27
26.994674921035767,-0.07,0.26,0.32,0.41
26.995935916900635,0.0,0.3,0.19,0.35
27.010924816131592,0.15,0.16,0.04,0.22
27.012325763702393,0.21,-0.05,0.04,0.21
27.026148796081543,0.21,-0.1,0.04,0.23
27.027435779571533,0.17,-0.02,0.06,0.18
27.042130947113037,-0.05,0.05,0.11,0.13
27.072544813156128,-0.24,0.08,0.13,0.28
27.07381772994995,-0.43,0.09,0.13,0.45
27.074766874313354,-0.45,0.05,0.09,0.46
27.094958782196045,-0.23,0.04,0.17,0.28
27.09645986557007,-0.04,0.12,0.13,0.18
27.111142873764038,-0.05,0.14,-0.05,0.15
27.11261487007141,-0.11,0.06,-0.11,0.16
27.126576900482178,-0.29,-0.05,-0.09,0.3
27.128034830093384,-0.56,-0.09,-0.03,0.56
27.142717838287354,-0.69,-0.04,-0.02,0.69
27.172236919403076,-0.68,-0.01,-0.15,0.69
27.173431873321533,-0.79,0.02,-0.26,0.83
27.174492835998535,-0.8,0.04,-0.3,0.85
27.194864749908447,-0.68,-0.06,-0.18,0.7
27.196366786956787,-0.49,0.02,-0.11,0.5
27.211079835891724,-0.47,0.05,-0.21,0.51
27.212544918060303,-0.93,0.06,-0.27,0.97
27.22627878189087,-1.27,0.28,-0.41,1.36
27.227744817733765,-0.99,0.45,-0.27,1.12
27.242811918258667,-0.46,0.31,-0.16,0.57
27.273002862930298,0.02,0.07,-0.16,0.17
27.274302005767822,0.44,-0.13,-0.03,0.45
27.275311946868896,0.48,-0.24,0.08,0.54
27.295097827911377,0.23,-0.27,0.09,0.36
27.296583890914917,-0.02,-0.17,0.07,0.18
27.31106185913086,-0.3,-0.05,0.07,0.31
27.312397003173828,-0.79,-0.04,0.17,0.8
27.3264799118042,-0.99,0.41,-0.26,1.1
27.32792901992798,-0.21,0.85,-0.27,0.91
27.34345769882202,0.34,0.54,-0.23,0.67
27.34579086303711,0.56,0.17,-0.28,0.64
27.39109492301941,0.58,-0.2,0.07,0.61
27.392265796661377,0.82,-0.6,0.49,1.12
27.39328098297119,0.98,-0.64,0.63,1.32
27.412017822265625,0.82,-0.44,0.54,1.07
27.413500785827637,0.64,-0.21,0.42,0.79
27.42764186859131,0.44,-0.04,0.37,0.57
27.429062843322754,0.22,0.08,0.1,0.25
27.443336963653564,0.01,0.25,-0.14,0.28
27.44479990005493,-0.08,0.56,-0.26,0.62
27.45951271057129,0.22,1.04,-0.3,1.1
27.490005016326904,0.47,1.24,-0.33,1.36
27.491390705108643,0.27,1.5,0.17,1.53
27.492403030395508,-0.24,1.36,0.58,1.49
27.511621952056885,-0.42,1.61,0.31,1.69
27.513089895248413,-0.06,2.25,0.1,2.25
27.527913808822632,0.12,1.94,-0.78,2.09
27.529374837875366,0.32,2.32,-0.64,2.42
27.543227910995483,0.36,2.12,-0.9,2.33
27.54465675354004,0.01,2.24,-1.32,2.6
27.563461780548096,-0.22,1.99,-1.09,2.27
27.595086812973022,-0.18,1.7,-0.97,1.96
27.596487998962402,-0.21,1.53,-0.75,1.71
27.597500801086426,-0.67,1.43,-0.51,1.65
27.611822843551636,-1.01,1.41,-0.06,1.73
27.612847805023193,-1.04,1.38,0.29,1.75
27.627843856811523,-1.03,1.24,0.28,1.63
27.629284858703613,-0.95,1.1,0.42,1.51
27.643325805664062,-0.96,1.1,0.7,1.61
27.64462900161743,-1.16,0.98,0.54,1.61
27.66048789024353,-1.26,0.99,0.3,1.63
27.687963008880615,-1.2,1.14,0.3,1.68
27.689287900924683,-1.09,0.89,0.24,1.42
27.690327882766724,-0.89,0.57,-0.06,1.05
27.711910724639893,-0.73,0.15,-0.41,0.85
27.713011741638184,-0.52,-0.43,-0.84,1.07
27.72817897796631,0.18,-0.57,-1.03,1.19
27.729691982269287,0.8,-0.17,-1.4,1.62
27.743554830551147,1.29,0.48,-1.56,2.08
27.74502992630005,1.79,1.1,-1.75,2.73
27.759634971618652,2.82,1.94,-1.41,3.7
27.786083698272705,3.43,2.65,-1.53,4.59
27.78747797012329,1.75,1.57,-2.45,3.39
27.788458824157715,-0.05,0.09,-2.54,2.54
27.790701866149902,-1.12,-0.91,-1.95,2.42
27.81126070022583,-1.74,-1.43,-2.0,3.01
27.81232500076294,-3.42,-2.99,-2.37,5.12
27.827120780944824,-3.55,-1.71,-1.36,4.16
27.828635692596436,-2.51,-0.96,-1.32,2.99
27.843058824539185,-4.27,-1.58,-2.65,5.26
27.844542980194092,-6.32,-1.11,-3.15,7.14
27.88777184486389,-7.33,-1.13,-2.87,7.95
27.888920783996582,-7.08,-1.69,-2.32,7.63
27.889912843704224,-5.82,-2.2,-1.92,6.51
27.891469955444336,-4.25,-2.11,-2.04,5.16
27.892863750457764,-3.17,-1.69,-2.72,4.5
27.899062871932983,-2.37,-1.07,-3.41,4.28
27.90906286239624,-1.67,-0.36,-3.73,4.1
27.919009923934937,-1.24,0.05,-3.53,3.74
27.92924690246582,-1.2,0.02,-2.6,2.86
27.939280033111572,-1.54,-0.29,-1.48,2.15
27.973105907440186,-2.2,-0.41,-0.79,2.37
27.974470853805542,-3.01,-0.24,-0.57,3.07
27.975478887557983,-3.66,-0.05,-0.46,3.68
27.9951229095459,-3.9,0.04,-0.22,3.9
27.996134757995605,-3.72,0.26,0.22,3.73
28.010809898376465,-3.32,0.6,0.62,3.43
28.01184892654419,-2.91,0.74,0.93,3.14
28.02693486213684,-2.74,0.88,1.09,3.07
28.028371810913086,-2.69,1.11,1.14,3.12
28.043157815933228,-2.53,1.25,1.13,3.03
28.07438588142395,-1.98,1.21,1.11,2.57
28.075679779052734,-1.28,1.17,1.15,2.08
28.07669687271118,-0.74,1.18,1.31,1.91
28.095295906066895,-0.24,1.15,1.48,1.88
28.09632682800293,0.26,1.12,1.53,1.91
28.111536979675293,0.73,1.16,1.52,2.04
28.11299991607666,1.26,1.08,1.7,2.37
28.126871824264526,1.86,0.82,2.02,2.86
28.12836503982544,2.38,0.75,2.3,3.39
28.14310598373413,2.93,0.83,2.57,3.98
28.147491931915283,3.55,0.85,2.77,4.58
28.1861789226532,4.13,0.81,2.85,5.08
28.187386989593506,4.62,0.8,2.84,5.48
28.188609838485718,4.99,0.89,2.95,5.86
28.191242694854736,5.41,0.83,3.28,6.38
28.211246967315674,5.71,0.67,3.61,6.78
28.212316036224365,5.8,0.56,3.76,6.93
28.227535724639893,5.77,0.45,3.71,6.87
28.229113817214966,5.74,0.33,3.58,6.77
28.243159770965576,5.67,0.17,3.55,6.69
28.246821880340576,5.51,-0.17,3.67,6.62
28.287309885025024,5.08,-0.56,3.68,6.29
28.288466930389404,4.22,0.4,3.2,5.31
28.289662837982178,3.48,0.99,2.66,4.49
28.29126501083374,5.11,0.34,2.87,5.87
28.296164989471436,9.76,0.7,4.14,10.62
28.30615997314453,12.59,-0.29,4.83,13.48
28.316236972808838,9.31,-1.6,3.92,10.22
28.326251983642578,3.57,-1.87,4.13,5.77
28.33616876602173,0.93,-1.21,4.4,4.65
28.346179008483887,0.27,-0.09,4.02,4.03
28.37555170059204,-0.71,1.36,1.53,2.16
28.37673783302307,-2.11,2.88,-1.46,3.85
28.37773585319519,-2.97,4.01,-1.87,5.32
28.3954176902771,-1.88,2.04,0.2,2.78
28.39645791053772,-0.19,-0.79,1.58,1.77
28.411524772644043,0.05,-0.59,0.1,0.6
28.415544033050537,0.0,0.37,-1.67,1.71
28.427019834518433,0.73,0.29,-1.39,1.59
28.435585975646973,1.36,-0.26,-0.34,1.42
28.445164918899536,1.29,-0.42,0.4,1.41
28.476796865463257,0.71,-0.24,1.2,1.41
28.477977752685547,0.13,-0.13,2.01,2.01
28.47903299331665,-0.33,-0.24,2.44,2.47
28.495381832122803,-0.31,-0.13,2.05,2.07
28.496431827545166,-0.35,0.02,1.05,1.1
28.511741876602173,-0.21,0.24,0.0,0.31
28.514731884002686,0.21,0.15,-0.69,0.73
28.526962757110596,0.7,0.15,-0.82,1.08
28.534490823745728,0.72,0.13,-0.67,0.99
28.544392824172974,0.77,0.1,-0.77,1.09
28.581730842590332,0.18,0.03,-0.47,0.5
28.583585739135742,-0.53,0.2,-0.1,0.57
28.58460783958435,-1.14,0.09,0.0,1.14
28.595058917999268,-1.44,0.12,-0.09,1.44
28.596110820770264,-1.6,0.22,-0.12,1.61
28.61168885231018,-1.52,0.39,-0.23,1.58
28.613849878311157,-1.14,0.5,-0.25,1.26
28.627074718475342,-0.5,0.36,-0.39,0.72
28.63394784927368,0.06,0.21,-0.55,0.59
28.644614696502686,0.48,0.15,-0.52,0.72
28.68066692352295,0.78,0.06,-0.04,0.78
28.681984901428223,0.66,0.09,0.03,0.66
28.68302869796753,0.25,0.28,-0.13,0.39
28.69537878036499,0.0,0.3,0.1,0.31
28.696401834487915,-0.12,0.26,0.35,0.45
28.711837768554688,-0.08,0.29,0.31,0.43
28.713284015655518,0.08,0.21,0.35,0.41
28.72727084159851,0.16,0.05,0.48,0.5
28.73318386077881,0.1,-0.05,0.51,0.52
28.743529796600342,0.09,-0.07,0.33,0.34
28.779263019561768,0.1,0.11,0.28,0.31
28.78061580657959,0.0,0.24,0.04,0.24
28.781654834747314,0.08,0.2,-0.01,0.21
28.795310974121094,0.25,0.13,0.1,0.29
28.79670476913452,0.36,0.1,0.17,0.41
28.81183385848999,0.38,-0.01,0.05,0.38
28.813294887542725,0.34,0.03,0.13,0.36
28.82747483253479,0.18,0.04,0.36,0.4
28.83235502243042,-0.03,0.06,0.39,0.39
28.84328269958496,-0.22,0.07,0.36,0.42
28.87946391105652,-0.38,-0.13,0.12,0.41
28.880706787109375,-0.38,-0.19,-0.18,0.46
28.881637811660767,0.0,-0.1,-0.15,0.18
28.895371913909912,0.28,-0.1,-0.17,0.34
28.896358966827393,0.44,-0.09,-0.18,0.48
28.911701917648315,0.51,-0.04,-0.08,0.51
28.913121700286865,0.3,0.0,0.0,0.3
28.927523851394653,-0.02,0.12,0.08,0.14
28.931504726409912,-0.32,0.16,0.15,0.38
28.943514823913574,-0.58,0.22,0.08,0.62
28.95118999481201,-0.6,0.25,-0.13,0.66
28.98711395263672,-0.44,0.23,-0.34,0.6
28.988296031951904,-0.38,0.25,-0.37,0.58
28.989340782165527,-0.61,0.3,-0.38,0.77
28.99191904067993,-0.75,0.36,-0.17,0.84
29.00062084197998,-0.75,0.35,-0.08,0.83
29.011294841766357,-0.62,0.13,-0.01,0.63
29.02113103866577,-0.53,-0.14,-0.05,0.55
29.0308358669281,-0.65,-0.46,-0.44,0.9
29.040894031524658,-0.61,-0.71,-0.85,1.26
29.05075192451477,-0.25,-0.8,-0.66,1.06
29.079977989196777,0.33,-1.05,-0.19,1.11
29.081401824951172,1.06,-1.17,0.15,1.58
29.08242893218994,1.42,-1.37,0.16,1.97
29.095720767974854,1.24,-1.35,-0.11,1.83
29.100019931793213,0.67,-1.14,-0.04,1.32
29.111953735351562,-0.14,-0.46,0.71,0.85
29.120299816131592,-0.98,-0.04,1.52,1.8
29.130119800567627,-1.76,0.3,1.76,2.5
29.140141010284424,-1.98,1.08,1.56,2.74
29.149816036224365,-1.34,1.6,1.03,2.32
29.18201494216919,-0.48,1.66,0.04,1.72
29.183344841003418,0.36,1.4,-0.93,1.71
29.184374809265137,1.17,0.79,-1.36,1.96
29.195982933044434,1.34,0.39,-1.17,1.82
29.1993248462677,1.04,0.07,-0.73,1.27
29.212013721466064,0.47,-0.04,-0.24,0.52
29.219560861587524,-0.18,0.05,0.13,0.22
29.22917079925537,-0.01,0.12,0.36,0.37
29.23915195465088,0.54,-0.19,0.43,0.71
29.24928569793701,0.87,-0.3,0.37,0.99
29.28038191795349,1.38,0.25,0.47,1.47
29.281670808792114,1.43,0.43,0.17,1.5
29.282689809799194,0.89,0.82,0.13,1.21
29.29607391357422,0.0,1.35,0.64,1.49
29.29847478866577,-0.32,1.61,0.06,1.64
29.31202483177185,-0.66,2.19,0.07,2.28
29.31869387626648,-0.91,2.04,0.38,2.26
29.328487873077393,-1.01,2.25,0.21,2.47
29.338514804840088,-0.94,2.48,0.0,2.65
29.348285913467407,-0.75,2.74,-0.18,2.84
29.385759830474854,-0.62,2.71,-0.42,2.81
29.387088775634766,-0.5,2.66,-0.59,2.77
29.38807988166809,-0.51,3.0,-0.48,3.08
29.39153790473938,-0.61,3.15,-0.38,3.23
29.39801287651062,-0.53,2.98,-0.34,3.04
29.412121772766113,-0.65,2.82,-0.39,2.92
29.418057918548584,-1.0,2.63,-0.55,2.86
29.427775859832764,-1.42,2.17,-0.71,2.68
29.43775177001953,-1.76,1.7,-0.97,2.63
29.447736740112305,-1.99,1.36,-1.4,2.78
29.484416961669922,-1.99,1.33,-1.78,2.98
29.485782861709595,-1.46,1.53,-1.93,2.86
29.486815929412842,-0.76,0.92,-2.01,2.33
29.487879753112793,-0.04,0.61,-2.2,2.28
29.497142791748047,0.25,1.2,-2.44,2.73
29.5072078704834,1.28,1.74,-2.39,3.22
29.51693892478943,2.96,2.91,-2.14,4.67
29.527078866958618,2.5,2.32,-2.32,4.12
29.53719186782837,1.31,0.76,-2.5,2.92
29.546813011169434,-0.01,-0.66,-3.03,3.1
29.584553718566895,-2.34,-2.98,-3.48,5.14
29.585879802703857,-3.27,-4.61,-3.18,6.48
29.586992740631104,-1.56,-2.51,-2.27,3.72
29.59269094467163,-3.09,-1.71,-2.44,4.29
29.596205711364746,-5.52,-1.98,-3.3,6.72
29.612183809280396,-7.07,-1.86,-3.55,8.12
29.616293907165527,-6.98,-1.91,-3.16,7.89
29.62820792198181,-5.48,-2.21,-2.67,6.48
29.63664984703064,-3.68,-2.49,-2.64,5.16
29.64612579345703,-2.79,-2.33,-2.74,4.55
29.683380842208862,-2.54,-1.77,-2.57,4.02
29.684748888015747,-2.49,-1.2,-2.08,3.45
29.685783863067627,-2.34,-0.8,-1.41,2.84
29.69575595855713,-2.21,-0.77,-0.78,2.46
29.696800708770752,-2.35,-0.78,-0.31,2.49
29.712259769439697,-2.76,-0.65,0.25,2.84
29.71564769744873,-3.28,-0.43,0.87,3.42
29.727606773376465,-3.62,-0.17,1.46,3.9
29.735575914382935,-3.53,0.06,1.83,3.97
29.745322704315186,-3.03,0.32,2.05,3.67
29.75533676147461,-2.43,0.51,2.09,3.24
29.78670382499695,-1.9,0.75,1.99,2.85
29.78787589073181,-1.43,0.93,1.79,2.47
29.78911280632019,-0.97,0.9,1.46,1.97
29.794792890548706,-0.51,0.8,1.12,1.46
29.81242084503174,0.04,0.89,0.8,1.19
29.81488275527954,0.69,1.06,0.53,1.37
29.827767848968506,1.07,1.08,0.32,1.55
29.8349027633667,1.15,1.33,0.31,1.78
29.84447479248047,1.06,1.61,0.67,2.04
29.854480743408203,1.0,1.86,1.07,2.36
29.886940956115723,1.14,1.97,1.41,2.67
29.888123989105225,1.16,1.76,1.68,2.69
29.88938570022583,0.68,1.55,2.01,2.62
29.893998861312866,0.2,1.28,2.42,2.74
29.91263484954834,0.13,1.02,2.92,3.09
29.914140701293945,0.62,0.6,3.29,3.4
29.927960872650146,1.24,0.2,3.38,3.6
29.933859825134277,1.76,-0.03,3.48,3.89
29.94403886795044,2.25,-0.32,3.53,4.19
29.95403003692627,2.61,-0.59,3.5,4.4
29.986060857772827,2.88,-0.77,3.43,4.54
29.987279891967773,3.19,-0.88,3.24,4.63
29.98848295211792,3.47,-0.87,3.07,4.71
29.993146896362305,3.77,-0.69,3.03,4.88
30.003312826156616,4.15,-0.66,3.06,5.19
30.01346492767334,4.52,-0.73,3.14,5.55
30.023340702056885,4.73,-0.73,3.15,5.72
30.03319787979126,4.8,-0.62,3.06,5.72
30.043351888656616,4.88,-0.51,2.79,5.64
30.053147792816162,4.94,-0.13,2.3,5.45
30.084584712982178,4.87,2.44,1.37,5.61
30.08597469329834,5.78,1.54,0.89,6.04
30.087034702301025,11.08,1.2,1.39,11.23
30.09638500213623,15.94,2.17,3.64,16.49
30.102778911590576,13.0,1.63,2.93,13.42
30.112701892852783,1.77,0.51,2.03,2.74
