time,ax,ay,az,atotal
0.003258228302001953,0.98,-1.63,-0.44,1.95
0.013443231582641602,1.31,0.73,-1.4,2.05
0.023368120193481445,-0.13,0.53,-0.41,0.68
0.06699109077453613,-0.48,-0.54,0.47,0.86
0.06736207008361816,-0.07,0.06,-0.14,0.16
0.06753802299499512,-0.06,0.12,-0.41,0.43
0.06772303581237793,-0.17,-0.1,-0.08,0.21
0.07331323623657227,-0.2,0.03,0.0,0.2
0.08322024345397949,-0.2,-0.02,0.13,0.23
0.09331822395324707,-0.25,-0.07,0.25,0.36
0.1031951904296875,-0.17,-0.01,0.16,0.23
0.11312317848205566,0.0,-0.01,0.16,0.16
0.1233060359954834,0.1,-0.03,0.08,0.13
0.13321924209594727,0.15,0.0,-0.1,0.18
0.16665220260620117,0.29,0.03,-0.16,0.33
0.16700315475463867,0.3,0.02,-0.14,0.33
0.16717815399169922,0.24,0.03,-0.19,0.3
0.1731431484222412,0.24,0.03,-0.2,0.31
0.18310809135437012,0.28,0.0,-0.03,0.28
0.19312524795532227,0.07,0.01,0.09,0.11
0.20307230949401855,-0.17,-0.02,0.04,0.17
0.21314406394958496,-0.18,-0.03,0.12,0.21
0.22313809394836426,-0.11,-0.06,0.29,0.31
0.23311114311218262,-0.08,-0.07,0.32,0.33
0.26678013801574707,-0.19,-0.05,0.19,0.27
0.266956090927124,-0.35,-0.02,0.02,0.35
0.2671232223510742,-0.36,-0.01,-0.05,0.36
0.27300214767456055,-0.32,0.01,-0.08,0.33
0.28295207023620605,-0.21,0.02,-0.2,0.29
0.2929871082305908,-0.07,0.02,-0.24,0.25
0.30294203758239746,-0.02,-0.01,-0.17,0.17
0.3128981590270996,-0.02,0.01,-0.13,0.13
0.3228931427001953,-0.04,0.01,-0.14,0.14
0.3328981399536133,0.02,-0.02,-0.08,0.08
0.36670422554016113,0.07,-0.02,0.01,0.07
0.36716318130493164,0.15,-0.04,0.13,0.2
0.3673250675201416,0.15,-0.07,0.3,0.34
0.3728320598602295,-0.02,-0.06,0.37,0.37
0.38272714614868164,-0.12,-0.07,0.39,0.41
0.3928263187408447,-0.16,-0.1,0.42,0.46
0.4027550220489502,-0.09,-0.09,0.41,0.42
0.4127652645111084,-0.01,-0.08,0.24,0.25
0.42275524139404297,0.07,-0.09,0.17,0.2
0.4327380657196045,0.03,-0.01,0.24,0.24
0.46639227867126465,-0.02,-0.01,0.24,0.24
0.46657419204711914,-0.09,-0.08,0.03,0.12
0.466752290725708,-0.05,-0.06,-0.15,0.16
0.4727752208709717,-0.03,0.02,-0.12,0.12
0.48262906074523926,-0.11,0.01,-0.07,0.13
0.49271702766418457,-0.26,-0.01,0.02,0.26
0.5026922225952148,-0.37,-0.02,-0.01,0.37
0.5126101970672607,-0.43,-0.02,-0.09,0.43
0.5226433277130127,-0.41,0.04,-0.18,0.44
0.5326392650604248,-0.31,0.06,-0.15,0.34
0.5663573741912842,-0.29,0.0,-0.06,0.29
0.5665371417999268,-0.25,-0.01,-0.03,0.25
0.5667092800140381,-0.23,0.0,0.0,0.23
0.5726041793823242,-0.21,0.02,-0.05,0.21
0.5825152397155762,-0.09,-0.01,-0.03,0.09
0.5925743579864502,0.01,0.01,-0.12,0.12
0.60256028175354,0.0,0.04,-0.28,0.28
0.612619161605835,0.08,0.07,-0.24,0.26
0.6225461959838867,0.14,0.02,-0.12,0.18
0.6325232982635498,0.13,-0.02,-0.09,0.15
0.6665523052215576,0.19,-0.01,-0.1,0.21
0.6667282581329346,0.21,0.0,-0.14,0.25
0.6669001579284668,0.17,0.01,-0.15,0.22
0.672471284866333,0.07,0.03,-0.07,0.1
0.6823723316192627,0.01,0.02,0.0,0.02
0.6924140453338623,0.0,-0.03,-0.07,0.07
0.702409029006958,0.02,0.01,-0.24,0.24
0.7124192714691162,0.15,0.04,-0.32,0.35
0.7224071025848389,0.24,0.06,-0.13,0.27
0.7324512004852295,0.09,0.04,-0.04,0.1
0.7664351463317871,-0.06,0.02,-0.03,0.06
0.766613245010376,-0.01,0.0,0.08,0.08
0.7667820453643799,0.15,-0.01,0.04,0.15
0.7723941802978516,0.27,0.01,-0.08,0.28
0.7822802066802979,0.36,0.0,-0.07,0.36
0.7922933101654053,0.26,0.0,-0.04,0.26
0.8022961616516113,0.09,0.01,0.11,0.14
0.8122732639312744,0.07,-0.01,0.34,0.34
0.8222651481628418,0.08,-0.07,0.33,0.34
0.8322150707244873,0.23,-0.15,0.16,0.31
0.8664722442626953,0.46,-0.07,0.16,0.49
0.8666503429412842,0.31,0.03,0.19,0.36
0.8668191432952881,-0.09,0.04,0.21,0.23
0.8721873760223389,-0.12,-0.05,0.29,0.31
0.8820631504058838,0.07,-0.11,0.34,0.36
0.8920471668243408,0.25,-0.06,0.06,0.26
0.9021623134613037,0.2,0.05,-0.21,0.29
0.9120223522186279,0.08,0.05,-0.14,0.16
0.9220950603485107,0.1,-0.02,0.02,0.1
0.9320452213287354,0.07,-0.07,-0.1,0.14
0.9664361476898193,-0.09,0.03,-0.29,0.3
0.9666192531585693,-0.04,0.08,-0.32,0.33
0.9667870998382568,0.04,0.05,-0.3,0.3
0.9719781875610352,0.03,-0.02,-0.33,0.33
0.9819042682647705,-0.08,0.02,-0.14,0.16
0.9919703006744385,-0.2,0.03,0.12,0.23
1.0019721984863281,-0.27,-0.01,0.1,0.28
1.011965036392212,-0.23,-0.01,-0.12,0.25
1.0219621658325195,-0.16,0.01,-0.25,0.29
1.0319972038269043,-0.25,0.0,-0.1,0.26
1.066291093826294,-0.43,-0.02,0.02,0.43
1.0664691925048828,-0.48,-0.03,-0.05,0.48
1.0666401386260986,-0.35,-0.02,-0.18,0.39
1.0731902122497559,-0.02,0.03,-0.09,0.09
1.0817651748657227,0.1,0.03,0.08,0.13
1.0918362140655518,0.06,-0.04,0.12,0.13
1.1018261909484863,-0.02,-0.03,0.0,0.03
1.1118102073669434,-0.13,-0.02,-0.14,0.19
1.121847152709961,-0.06,0.01,-0.15,0.16
1.1318070888519287,0.08,0.03,-0.07,0.11
1.1667821407318115,0.07,0.0,0.05,0.08
1.1669621467590332,0.0,-0.01,0.13,0.13
1.1671173572540283,0.02,-0.01,0.09,0.09
1.171729326248169,0.04,0.0,0.06,0.07
1.1816942691802979,0.16,-0.02,0.05,0.16
1.1917383670806885,0.28,-0.05,0.0,0.28
1.201578140258789,0.27,-0.01,-0.11,0.29
1.2116410732269287,0.27,0.02,-0.15,0.3
1.2216451168060303,0.13,0.03,-0.01,0.13
1.2316620349884033,-0.04,0.01,0.0,0.04
1.2665860652923584,0.1,0.01,0.15,0.18
1.2667772769927979,0.28,-0.01,0.28,0.39
1.2669460773468018,0.38,-0.09,0.11,0.4
1.2716732025146484,0.45,-0.06,0.12,0.46
1.281534194946289,0.59,0.01,0.3,0.66
1.2916052341461182,0.55,0.02,0.09,0.55
1.3013741970062256,0.34,-0.03,-0.17,0.38
1.311420202255249,0.39,-0.04,0.07,0.39
1.3215510845184326,0.31,-0.07,0.24,0.39
1.3314893245697021,-0.05,-0.02,-0.11,0.12
1.366455316543579,-0.33,0.07,-0.59,0.67
1.3666372299194336,-0.37,0.04,-0.55,0.66
1.3668062686920166,-0.12,-0.02,-0.21,0.24
1.3714473247528076,0.09,-0.04,-0.03,0.1
1.3813960552215576,0.15,0.01,-0.05,0.15
1.3914220333099365,0.2,-0.01,-0.05,0.2
1.401353120803833,0.06,-0.02,-0.01,0.06
1.411419153213501,-0.25,-0.03,-0.16,0.29
1.4213693141937256,-0.51,0.02,-0.16,0.53
1.431354284286499,-0.58,0.04,-0.2,0.61
1.4668290615081787,-0.47,-0.04,-0.26,0.53
1.4670071601867676,-0.35,-0.03,-0.18,0.39
1.4671752452850342,-0.37,0.04,-0.27,0.45
1.471339225769043,-0.39,0.03,-0.48,0.61
1.4812242984771729,-0.19,0.05,-0.4,0.44
1.491314172744751,-0.01,0.02,-0.15,0.15
1.5013542175292969,-0.01,-0.02,-0.04,0.04
1.5113122463226318,-0.21,0.0,-0.13,0.24
1.5212743282318115,-0.41,-0.02,-0.29,0.5
1.5313060283660889,-0.46,0.01,-0.15,0.48
1.5670430660247803,-0.32,-0.01,-0.13,0.34
1.5672192573547363,-0.15,-0.02,-0.14,0.2
1.5673952102661133,-0.05,-0.08,0.02,0.09
1.5711190700531006,-0.03,-0.13,0.16,0.2
1.5812852382659912,0.0,-0.07,0.24,0.25
1.591109037399292,0.13,-0.02,0.26,0.29
1.601365327835083,0.21,0.01,0.16,0.26
1.6111161708831787,0.18,0.0,-0.04,0.18
1.6211152076721191,0.2,0.0,-0.1,0.22
1.631087064743042,0.18,0.02,0.04,0.18
1.6670820713043213,0.12,-0.05,0.01,0.13
1.6672723293304443,0.05,-0.06,-0.05,0.09
1.6674392223358154,-0.04,0.01,0.07,0.08
1.6710171699523926,-0.09,-0.03,0.18,0.2
1.681023359298706,-0.06,-0.06,0.19,0.2
1.690981149673462,0.02,-0.04,0.11,0.11
1.701012372970581,0.09,-0.01,0.01,0.09
1.7110202312469482,0.17,-0.01,-0.06,0.18
1.720994234085083,0.16,0.01,-0.05,0.16
1.7309401035308838,0.14,0.06,-0.05,0.16
1.7660841941833496,0.22,0.04,-0.07,0.23
1.766266107559204,0.34,0.01,0.02,0.34
1.7664153575897217,0.35,0.01,0.08,0.35
1.770902156829834,0.19,-0.01,0.08,0.2
1.780867338180542,0.08,-0.03,0.1,0.13
1.79081130027771,0.08,-0.02,0.11,0.13
1.800814151763916,0.1,0.02,-0.01,0.1
1.810866117477417,0.02,0.05,-0.15,0.15
1.820923089981079,-0.01,0.0,-0.29,0.29
1.8308632373809814,-0.01,0.01,-0.28,0.28
1.8663671016693115,0.01,0.01,-0.24,0.24
1.8665452003479004,-0.05,-0.03,-0.17,0.17
1.866697072982788,-0.15,0.01,-0.17,0.22
1.8708322048187256,-0.23,0.02,-0.19,0.29
1.8807213306427002,-0.19,0.05,-0.17,0.25
1.8907911777496338,-0.05,0.02,-0.31,0.31
1.900618314743042,0.03,-0.01,-0.32,0.32
1.9106261730194092,-0.05,-0.02,-0.03,0.06
1.9206960201263428,-0.07,-0.03,0.08,0.11
1.9306743144989014,-0.09,-0.01,-0.08,0.12
1.9658653736114502,-0.12,0.05,-0.32,0.34
1.96604323387146,0.02,0.04,-0.57,0.57
1.9662141799926758,0.14,0.0,-0.49,0.5
1.9706051349639893,0.07,-0.03,0.0,0.07
1.9806151390075684,-0.01,-0.11,0.29,0.31
1.9905741214752197,-0.06,-0.09,0.27,0.29
2.0005061626434326,-0.15,-0.03,0.13,0.2
2.0105531215667725,-0.2,-0.07,0.15,0.25
2.0204861164093018,-0.22,-0.07,0.2,0.3
2.03049635887146,-0.13,-0.1,0.23,0.28
2.066420316696167,-0.03,-0.13,0.19,0.23
2.0665762424468994,0.09,-0.13,0.18,0.23
2.066746234893799,0.16,-0.17,0.13,0.26
2.070477247238159,0.35,-0.22,-0.11,0.42
2.0804693698883057,0.55,-0.09,-0.19,0.58
2.0903892517089844,0.58,0.08,-0.03,0.58
2.100360155105591,0.28,0.07,-0.18,0.34
2.110436201095581,-0.28,0.09,-0.65,0.71
2.120406150817871,-0.88,0.23,-0.77,1.19
2.1303751468658447,-1.25,0.21,-0.59,1.39
2.1657161712646484,-1.3,0.13,-0.47,1.38
2.165891170501709,-0.88,0.15,-0.25,0.92
2.166063070297241,-0.22,0.07,0.06,0.23
2.1703431606292725,0.11,-0.08,-0.01,0.13
2.1803171634674072,0.12,-0.01,-0.22,0.25
2.1903152465820312,-0.01,0.09,-0.35,0.36
2.2002522945404053,-0.07,0.06,-0.38,0.39
2.2102773189544678,-0.06,0.02,-0.3,0.3
2.2202751636505127,0.05,0.04,-0.21,0.21
2.230215311050415,0.12,0.05,-0.19,0.23
2.2662060260772705,0.14,0.09,-0.24,0.29
2.2663872241973877,0.17,0.07,-0.27,0.32
2.266557216644287,0.3,0.1,-0.18,0.36
2.2700891494750977,0.46,0.13,-0.03,0.47
2.2801082134246826,0.68,0.11,0.02,0.68
2.2901980876922607,0.95,0.06,0.01,0.95
2.3000900745391846,1.17,0.01,0.05,1.17
2.3100640773773193,1.25,-0.03,0.13,1.25
2.320162057876587,1.29,-0.04,0.24,1.31
2.330029249191284,1.29,-0.06,0.33,1.33
2.366953134536743,1.31,-0.16,0.47,1.4
2.3671371936798096,1.32,-0.26,0.59,1.46
2.3673081398010254,1.38,-0.33,0.62,1.54
2.370096206665039,1.47,-0.37,0.78,1.7
2.38006329536438,1.6,-0.36,0.91,1.87
2.3899872303009033,1.72,-0.24,1.07,2.03
2.3999922275543213,1.68,0.12,1.23,2.08
2.409884214401245,1.9,0.56,1.08,2.25
2.4199440479278564,2.09,0.96,0.97,2.49
2.429967164993286,2.22,1.14,0.66,2.58
2.466539144515991,2.15,1.63,0.17,2.7
2.466719150543213,1.5,1.99,-0.32,2.51
2.466891050338745,0.19,2.66,-1.03,2.85
2.4698572158813477,-0.74,3.61,-2.44,4.41
2.4799001216888428,0.76,3.3,-2.99,4.51
2.489931344985962,3.21,2.83,-2.04,4.74
2.499833345413208,3.94,1.65,-0.69,4.32
2.5098183155059814,3.24,0.93,0.47,3.4
2.5197651386260986,2.78,1.01,1.48,3.3
2.529808282852173,2.54,1.18,1.78,3.31
2.56591534614563,2.84,0.54,0.94,3.03
2.5660932064056396,3.66,0.37,0.69,3.74
2.5662662982940674,4.27,0.29,1.17,4.43
2.5698001384735107,4.47,-0.19,1.7,4.78
2.5797502994537354,4.43,-0.48,2.05,4.9
2.5897772312164307,4.35,-0.31,1.98,4.78
2.5996692180633545,4.19,-0.06,1.7,4.52
2.6096842288970947,4.17,0.01,1.62,4.47
2.6195180416107178,4.16,0.07,1.68,4.48
2.629652261734009,3.89,0.22,1.63,4.22
2.666497230529785,3.39,0.35,1.44,3.69
2.6666762828826904,2.69,0.37,1.35,3.03
2.666849374771118,1.96,0.43,1.26,2.36
2.6695382595062256,1.5,0.5,1.04,1.89
2.679570198059082,1.26,0.63,0.83,1.63
2.689624071121216,1.07,0.88,0.65,1.53
2.6996090412139893,0.73,1.06,0.41,1.35
2.7096052169799805,-0.05,0.98,0.09,0.98
2.719459295272827,-0.91,0.65,-0.07,1.12
2.7295610904693604,-1.65,0.21,-0.01,1.66
2.766463041305542,-2.22,-0.28,0.07,2.23
2.766646146774292,-2.72,-0.72,0.26,2.82
2.7668182849884033,-3.08,-1.07,0.2,3.26
2.769306182861328,-3.44,-1.1,-0.11,3.61
2.7794291973114014,-3.87,-1.05,-0.41,4.03
2.789436101913452,-4.05,-1.15,-0.86,4.29
2.7993743419647217,-3.83,-1.46,-1.05,4.23
2.8093502521514893,-3.34,-1.61,-1.0,3.84
2.8192312717437744,-3.18,-0.56,-0.71,3.3
2.8293750286102295,-2.97,0.98,-0.91,3.25
2.8664352893829346,-2.21,-1.59,-1.96,3.35
2.8666141033172607,-3.46,-1.8,-0.15,3.9
2.8667831420898438,-4.76,-2.17,0.41,5.24
2.869180202484131,-5.72,-2.22,0.18,6.13
2.8792741298675537,-6.01,-2.16,0.01,6.38
2.8892710208892822,-6.56,-1.77,0.27,6.79
2.899233102798462,-7.19,-0.39,0.58,7.22
2.9092822074890137,-3.58,0.39,0.62,3.65
2.919051170349121,1.59,0.34,0.96,1.88
2.9291932582855225,4.89,3.66,1.86,6.38
2.9665982723236084,4.1,6.46,-0.69,7.68
2.966780185699463,-1.36,4.12,-6.35,7.69
2.966956377029419,-4.79,3.27,-4.1,7.1
2.9690873622894287,-3.65,0.12,1.85,4.09
2.979116201400757,-2.77,-3.18,3.03,5.19
2.989166021347046,-3.88,-3.79,0.44,5.44
2.999108076095581,-4.85,-1.28,-1.38,5.2
3.0091392993927,-5.13,1.02,-0.88,5.3
3.019139051437378,-4.84,1.28,0.1,5.0
3.0291173458099365,-3.9,0.62,-0.01,3.94
3.0663821697235107,-2.81,0.15,-0.16,2.81
3.0665581226348877,-1.4,0.02,0.35,1.44
3.0667262077331543,0.07,-0.13,0.71,0.72
3.0691940784454346,0.55,-0.03,0.06,0.55
3.078986167907715,0.12,0.08,-0.4,0.42
3.0890700817108154,-0.46,0.06,0.0,0.46
3.0990641117095947,-0.58,0.03,0.19,0.61
3.1090123653411865,-0.23,0.02,-0.24,0.33
3.11926007270813,0.21,0.06,-1.0,1.02
3.128948211669922,0.64,0.03,-1.72,1.83
3.1662442684173584,0.91,0.14,-1.96,2.16
3.1664183139801025,0.71,0.27,-1.69,1.85
3.16658616065979,0.18,0.2,-1.22,1.24
3.1691501140594482,-0.15,0.22,-0.78,0.82
3.178877115249634,-0.25,0.21,-0.51,0.6
3.1888673305511475,-0.36,0.1,-0.3,0.47
3.198782205581665,-0.36,0.03,0.01,0.36
3.208954095840454,-0.1,-0.02,0.31,0.32
3.2187881469726562,0.21,0.09,0.58,0.62
3.228800058364868,0.41,0.01,0.63,0.75
3.267573118209839,0.58,-0.06,0.48,0.75
3.267754316329956,0.54,0.04,0.19,0.57
3.2679250240325928,0.47,0.09,-0.19,0.51
3.268632173538208,0.5,0.02,-0.46,0.67
3.278813123703003,0.49,-0.1,-0.51,0.71
3.2887661457061768,0.43,-0.07,-0.26,0.5
3.298628091812134,0.28,-0.06,0.24,0.37
3.3087103366851807,0.07,-0.03,0.72,0.72
3.3186380863189697,0.04,0.02,0.79,0.79
3.3287923336029053,0.08,0.01,0.55,0.55
3.3665101528167725,0.08,0.07,0.29,0.3
3.3666751384735107,0.08,0.08,-0.18,0.21
3.366831064224243,-0.02,0.08,-0.64,0.64
3.3686251640319824,-0.22,0.04,-0.8,0.83
3.378655195236206,-0.41,0.15,-0.59,0.73
3.388554334640503,-0.56,0.25,-0.31,0.68
3.3985211849212646,-0.51,0.23,-0.15,0.57
3.4085471630096436,-0.29,0.21,-0.15,0.38
3.4184463024139404,0.12,0.19,-0.15,0.27
3.4285471439361572,0.44,0.14,-0.04,0.46
3.466839075088501,0.55,0.08,0.29,0.62
3.4670250415802,0.68,-0.05,0.41,0.79
3.467205286026001,0.87,-0.11,0.11,0.88
3.4684572219848633,1.29,-0.04,-0.19,1.3
3.4785330295562744,1.71,0.21,-0.2,1.73
3.488436222076416,2.11,0.28,-0.23,2.14
3.498422145843506,2.7,0.24,-0.12,2.71
3.508456230163574,2.93,0.32,-0.16,2.95
3.518331289291382,2.76,0.36,-0.5,2.82
3.5283682346343994,2.74,0.56,-0.77,2.9
3.5674562454223633,2.93,0.66,-0.9,3.13
3.5676381587982178,3.0,0.72,-0.87,3.2
3.5678131580352783,3.03,0.84,-0.92,3.27
3.5680992603302,3.13,1.07,-1.12,3.49
3.5783393383026123,3.01,1.82,-0.65,3.57
3.5883162021636963,2.49,2.92,0.3,3.84
3.5983641147613525,2.94,4.11,-0.16,5.05
3.608405351638794,3.15,4.28,1.26,5.46
3.6182682514190674,2.32,3.69,2.0,4.79
3.6282970905303955,1.54,4.04,1.43,4.55
3.6675713062286377,1.56,4.24,1.05,4.63
3.6677801609039307,2.14,4.16,0.67,4.72
3.667957067489624,2.83,4.62,0.37,5.43
3.6681292057037354,2.9,5.1,-0.2,5.87
3.678208112716675,2.64,5.12,-1.18,5.88
3.6881682872772217,2.78,5.38,-1.34,6.2
3.6980931758880615,2.86,6.15,-0.13,6.78
3.708123207092285,2.99,6.77,0.21,7.4
3.71814227104187,3.47,6.43,-1.18,7.4
3.72815203666687,3.63,5.33,-2.7,6.99
3.7671220302581787,2.25,4.82,-1.95,5.66
3.7673051357269287,-0.39,5.47,-0.75,5.53
3.7674832344055176,-0.23,5.54,-1.86,5.84
3.767961263656616,3.17,4.58,-1.63,5.8
3.7781050205230713,6.32,2.69,0.38,6.87
3.7880423069000244,6.36,0.45,1.99,6.67
3.7981183528900146,2.23,-0.76,2.47,3.41
3.808105230331421,0.54,-0.73,1.31,1.59
3.8179972171783447,4.03,0.52,0.29,4.07
3.828029155731201,9.26,1.11,0.11,9.32
3.867058038711548,11.35,0.17,0.41,11.35
3.8672492504119873,9.85,-1.57,0.98,10.02
3.867445230484009,7.71,-2.31,1.09,8.12
3.8677103519439697,7.03,-2.23,0.71,7.4
3.8778882026672363,7.07,-1.87,0.27,7.31
3.8879010677337646,6.96,-1.73,0.06,7.17
3.89784836769104,6.33,-1.8,0.14,6.58
3.9079041481018066,5.46,-2.03,0.36,5.83
3.9177792072296143,4.77,-2.11,0.46,5.23
3.9278461933135986,4.23,-1.72,0.33,4.57
3.966487169265747,3.43,-1.23,0.26,3.65
3.96667218208313,2.47,-0.71,0.29,2.58
3.966846227645874,1.63,-0.13,0.25,1.65
3.9675731658935547,1.01,0.48,-0.04,1.11
3.9777653217315674,0.4,0.91,-0.39,1.06
3.987725257873535,-0.49,1.04,-0.63,1.31
3.9976391792297363,-1.25,0.83,-0.81,1.7
4.007707357406616,-1.85,0.74,-0.94,2.2
4.017704248428345,-2.53,0.81,-1.2,2.91
4.027673244476318,-3.16,1.02,-1.46,3.62
4.0672852993011475,-3.88,1.21,-1.38,4.29
4.06746506690979,-4.87,0.81,-1.56,5.17
4.067637205123901,-5.96,0.71,-1.46,6.17
4.067807197570801,-6.63,1.08,-1.43,6.86
4.077636241912842,-6.82,1.49,-1.86,7.22
4.087595224380493,-7.15,1.99,-2.07,7.7
4.097557306289673,-9.2,5.75,-1.51,10.95
4.107575178146362,-8.71,8.27,-4.13,12.7
4.117567300796509,-7.7,3.34,-8.24,11.76
4.127575159072876,-13.54,-0.92,-4.39,14.26
4.167121171951294,-14.89,-2.87,0.08,15.16
4.167304277420044,-13.84,-3.0,0.9,14.18
4.16748309135437,-14.83,-2.55,-0.64,15.06
4.1676552295684814,-15.18,-1.31,-1.95,15.36
4.177494287490845,-14.1,-0.52,-1.85,14.23
4.187410116195679,-12.44,3.28,-0.03,12.86
4.19745135307312,-6.24,5.49,-0.47,8.32
4.207336187362671,-0.58,3.05,-2.26,3.84
4.217358350753784,4.72,3.65,0.65,6.0
4.22740626335144,6.07,0.94,1.67,6.36
4.267286062240601,2.31,-2.84,0.41,3.68
4.267471075057983,-3.11,-3.69,-0.09,4.82
4.267646074295044,-6.52,-2.01,-0.32,6.83
4.267815351486206,-7.63,0.08,-1.03,7.69
4.2773120403289795,-7.8,1.54,-1.02,8.01
4.2871620655059814,-6.33,2.03,-0.26,6.65
4.2972681522369385,-3.67,1.3,0.44,3.91
4.30724835395813,-1.31,0.13,0.16,1.32
4.317177057266235,-0.16,-0.34,-0.44,0.57
4.327282190322876,0.33,-0.2,-0.66,0.76
4.366952180862427,0.53,0.06,-0.68,0.86
4.367113351821899,0.39,0.06,-0.78,0.87
4.36728310585022,0.45,-0.12,-0.8,0.92
4.367447137832642,0.74,-0.18,-0.72,1.04
4.377226114273071,0.98,0.03,-0.84,1.29
4.3869240283966064,1.04,-0.01,-1.15,1.55
4.397155046463013,0.91,-0.03,-1.3,1.58
4.407131195068359,0.56,0.03,-1.29,1.4
4.417089223861694,0.19,-0.08,-1.18,1.19
4.42716908454895,0.14,0.04,-0.93,0.94
4.467466115951538,0.37,0.35,-0.52,0.72
4.467649221420288,0.43,0.36,-0.22,0.6
4.467824220657349,0.28,0.01,-0.23,0.36
4.4679930210113525,0.06,-0.03,-0.27,0.27
4.477082252502441,-0.07,-0.02,-0.06,0.09
4.486762285232544,0.31,0.11,0.43,0.54
4.497132062911987,0.73,-0.06,0.57,0.92
4.507025241851807,0.72,-0.08,0.71,1.01
4.516969203948975,0.21,-0.04,0.6,0.63
4.526960134506226,-0.18,-0.02,0.41,0.44
4.566554307937622,-0.43,-0.05,-0.04,0.43
4.566752195358276,-0.59,-0.11,-0.62,0.86
4.566927194595337,-0.57,-0.02,-0.5,0.75
4.567097187042236,-0.29,-0.03,-0.16,0.33
4.577043294906616,-0.05,0.01,-0.13,0.13
4.586895227432251,0.11,0.06,-0.02,0.12
4.596959352493286,0.23,0.04,0.63,0.67
4.606922149658203,0.14,0.04,0.99,1.0
4.616824150085449,0.11,0.04,0.67,0.68
4.6269142627716064,0.15,0.09,0.04,0.17
4.667027235031128,0.1,0.03,-0.67,0.67
4.667209148406982,-0.15,0.04,-0.79,0.8
4.667383193969727,-0.34,0.05,-0.61,0.7
4.667555093765259,-0.25,0.02,-0.73,0.77
4.676798105239868,0.11,0.19,-0.62,0.65
4.686979055404663,0.46,0.31,-0.24,0.6
4.696752309799194,0.93,0.32,-0.04,0.98
4.706762075424194,1.53,0.34,-0.34,1.6
4.7167112827301025,2.13,0.46,-0.63,2.26
4.7267091274261475,2.57,0.56,-0.61,2.7
4.767249345779419,2.71,0.48,-0.49,2.79
4.76743221282959,2.76,0.39,-0.32,2.8
4.767593145370483,2.76,0.33,-0.01,2.77
4.7677671909332275,2.92,0.52,0.29,2.98
4.776660203933716,2.41,0.61,0.64,2.56
4.7865211963653564,1.69,0.77,1.13,2.17
4.796590089797974,1.33,1.08,1.05,2.0
4.806580305099487,1.46,1.79,0.01,2.3
4.816495180130005,2.04,3.4,-0.89,4.06
4.826524257659912,3.18,5.59,-0.5,6.45
4.83651328086853,4.15,5.42,0.22,6.82
4.867971181869507,4.21,4.96,0.46,6.52
4.868150234222412,3.98,4.7,0.73,6.2
4.868324041366577,3.31,4.08,0.79,5.31
4.876721143722534,3.17,3.93,0.6,5.08
4.88640022277832,3.16,4.19,0.3,5.25
4.896452188491821,2.78,4.07,-0.44,4.94
4.906452178955078,2.5,4.29,-0.72,5.01
4.916375160217285,2.43,4.96,-0.55,5.55
4.926404237747192,2.5,5.59,-0.89,6.18
4.936449289321899,2.59,6.72,-1.35,7.32
4.966750144958496,2.59,8.07,-1.98,8.7
4.966936349868774,2.61,8.49,-2.96,9.36
4.967112302780151,2.65,7.78,-3.23,8.83
4.976341247558594,2.39,6.72,-3.16,7.8
4.986241102218628,1.8,6.21,-3.62,7.41
4.996275186538696,1.51,6.01,-3.78,7.25
5.006334066390991,2.97,5.02,-2.59,6.38
5.016224145889282,5.54,3.4,-1.14,6.59
5.026268243789673,6.86,1.87,-0.76,7.15
5.036231279373169,7.65,0.48,-0.37,7.67
5.067821264266968,7.1,-2.23,-0.14,7.44
5.068002223968506,1.33,-4.18,-0.98,4.49
5.068176031112671,-0.18,-2.86,-1.12,3.07
5.0761682987213135,4.58,-0.17,-0.97,4.68
5.086118221282959,8.92,0.06,-0.4,8.92
5.096242189407349,10.82,-0.67,1.49,10.94
5.1061742305755615,9.5,-2.0,2.94,10.14
5.116131067276001,6.32,-3.43,3.11,7.83
5.1261513233184814,4.27,-3.72,2.77,6.3
5.136062145233154,3.88,-3.19,2.12,5.45
5.167835235595703,4.34,-2.67,1.48,5.3
5.168021202087402,4.51,-2.48,1.34,5.31
5.16820216178894,4.38,-2.41,1.47,5.21
5.1760852336883545,4.24,-2.24,1.67,5.07
5.185978174209595,4.13,-1.77,1.93,4.89
5.196011304855347,3.86,-1.26,2.33,4.68
5.206013202667236,3.44,-0.68,2.72,4.43
5.216015100479126,2.85,-0.2,3.05,4.17
5.226003170013428,2.14,0.28,3.11,3.78
5.235972166061401,1.82,0.55,2.29,2.97
5.268915176391602,1.3,0.85,1.04,1.86
5.269099235534668,-0.39,1.7,-0.25,1.76
5.2692742347717285,-2.85,2.58,-1.64,4.17
5.275921106338501,-4.73,3.12,-2.74,6.29
5.285866022109985,-5.04,3.15,-2.86,6.59
5.295931100845337,-4.57,3.04,-2.24,5.92
5.30577826499939,-4.74,3.13,-2.32,6.13
5.315819025039673,-5.86,2.95,-3.46,7.41
5.325909376144409,-7.3,2.57,-4.7,9.05
5.335803270339966,-8.7,2.21,-5.1,10.32
5.368643045425415,-10.21,5.09,-4.01,12.09
5.3688342571258545,-9.56,9.49,-4.45,14.18
5.3690102100372314,-7.68,2.27,-10.62,13.3
5.375745058059692,-13.68,-1.93,-6.26,15.16
5.385677099227905,-16.22,-3.36,0.01,16.56
5.395739316940308,-14.64,-3.0,1.51,15.02
5.40565824508667,-12.72,-1.66,-0.62,12.84
5.415674209594727,-11.94,-0.68,-2.65,12.24
5.450181245803833,-10.86,-0.6,-2.6,11.18
5.450362205505371,-11.23,-0.4,-1.23,11.3
5.450530290603638,-9.19,1.11,0.58,9.27
5.455669164657593,-1.77,0.48,1.31,2.25
5.465597152709961,4.68,0.27,1.56,4.94
5.475584268569946,6.5,4.61,1.05,8.03
5.485577344894409,2.08,5.3,-2.79,6.34
5.495579242706299,-6.95,2.7,-7.25,10.39
5.505557298660278,-11.36,3.52,-2.35,12.12
5.515521287918091,-8.7,0.78,2.84,9.18
5.551191091537476,-4.74,-2.49,2.98,6.12
5.551373243331909,-3.74,-2.7,1.23,4.77
5.55154824256897,-3.3,-0.49,-0.2,3.34
5.555570363998413,-3.38,0.77,-0.1,3.46
5.56545615196228,-3.59,1.12,0.82,3.84
5.57551121711731,-3.15,0.57,0.71,3.27
5.585409164428711,-1.97,-0.16,0.11,1.97
5.595463037490845,-0.68,-0.42,-0.38,0.88
5.605534315109253,0.3,-0.18,-0.69,0.77
5.6154563426971436,1.14,0.19,-0.88,1.45
5.652717351913452,1.53,0.29,-0.85,1.77
5.652903318405151,1.15,0.02,-0.65,1.32
5.653109312057495,0.59,-0.16,-0.74,0.95
5.655402183532715,0.48,-0.17,-1.15,1.25
5.6652672290802,0.69,-0.14,-1.56,1.71
5.675350189208984,0.89,-0.06,-1.68,1.9
5.6852781772613525,0.82,0.14,-1.29,1.53
5.695328235626221,0.63,0.06,-0.73,0.96
5.705258131027222,0.47,-0.05,-0.39,0.61
5.715334177017212,0.07,0.04,-0.46,0.46
5.752369165420532,-0.35,0.14,-0.37,0.52
5.752582311630249,-0.52,0.17,0.05,0.54
5.7527830600738525,-0.31,0.24,0.43,0.58
5.755028247833252,0.06,0.17,0.54,0.56
5.765087366104126,0.22,-0.02,0.51,0.55
5.77518630027771,-0.1,-0.06,0.61,0.62
5.785076141357422,-0.23,0.09,0.7,0.74
5.795098066329956,0.3,0.07,0.25,0.39
5.805033206939697,0.52,-0.06,-0.65,0.83
5.815140247344971,0.43,-0.01,-1.35,1.41
5.852988243103027,0.61,0.03,-1.35,1.48
5.853172063827515,0.58,-0.16,-1.16,1.3
5.853346109390259,0.34,-0.29,-0.89,0.99
5.8549182415008545,0.18,-0.13,-0.41,0.46
5.86512017250061,0.37,0.14,0.13,0.41
5.8751091957092285,0.55,0.09,0.45,0.71
5.885025262832642,0.68,-0.05,0.34,0.76
5.895041227340698,0.56,-0.15,-0.24,0.62
5.904865026473999,0.37,-0.26,-0.7,0.83
5.915067195892334,0.22,-0.22,-0.73,0.79
5.953779220581055,0.16,-0.03,-0.89,0.9
5.953961133956909,0.23,0.1,-0.83,0.86
5.954132318496704,0.13,0.12,-0.39,0.42
5.954753160476685,0.23,0.14,-0.1,0.28
5.964864253997803,0.45,0.1,-0.27,0.53
5.97490119934082,0.63,0.1,-0.43,0.76
5.984885215759277,0.7,0.21,-0.15,0.74
5.994947195053101,0.63,0.34,0.33,0.78
6.004761219024658,0.87,0.25,0.55,1.05
6.014913320541382,1.3,0.13,0.26,1.33
6.05285120010376,1.67,0.15,0.18,1.68
6.053028345108032,2.01,0.25,0.37,2.05
6.0531933307647705,2.28,0.32,0.33,2.32
6.054745197296143,2.31,0.52,0.02,2.36
6.0648863315582275,2.34,0.61,-0.3,2.43
6.074885129928589,2.47,0.49,-0.42,2.55
6.0846922397613525,2.65,0.38,-0.33,2.69
6.094653367996216,2.8,0.4,-0.31,2.84
6.104849100112915,2.9,0.69,-0.58,3.03
6.1146862506866455,2.72,1.25,-1.2,3.22
6.153388261795044,2.5,1.87,-1.6,3.5
6.153564214706421,1.87,3.08,-0.5,3.63
6.153735160827637,1.44,5.42,0.11,5.6
6.154853105545044,1.81,5.2,-1.1,5.61
6.1644580364227295,1.3,4.09,1.47,4.53
6.174598217010498,1.73,3.45,1.92,4.31
6.184632062911987,2.01,3.21,1.48,4.06
6.1946702003479,2.35,2.93,0.61,3.8
6.20494818687439,2.91,3.24,0.38,4.37
6.21461820602417,3.32,3.48,0.15,4.81
6.253181219100952,3.31,3.53,-0.32,4.84
6.253356218338013,2.97,3.83,-0.55,4.87
6.253525257110596,2.34,4.38,-0.6,5.0
6.25480318069458,1.99,5.12,-0.8,5.55
6.264516115188599,2.56,5.53,-1.45,6.26
6.274400234222412,3.13,5.53,-1.7,6.57
6.284443140029907,3.37,4.1,-2.41,5.82
6.294537305831909,3.41,2.99,-1.51,4.77
6.304389238357544,2.33,3.63,-0.89,4.4
6.314409255981445,1.0,4.67,-3.22,5.75
6.353145360946655,2.1,5.43,-4.56,7.39
6.35331916809082,4.84,5.21,-3.0,7.71
6.353487253189087,6.82,3.82,-1.77,8.01
6.354363203048706,7.52,2.45,-0.93,7.96
6.364440202713013,8.53,0.11,-0.78,8.56
6.374333143234253,6.28,-2.88,-0.25,6.91
6.384340047836304,2.07,-3.49,0.67,4.11
6.39434027671814,3.47,-0.71,0.16,3.54
6.404317140579224,7.39,0.92,-1.62,7.62
6.414323091506958,9.5,0.63,-1.31,9.61
6.453237295150757,9.69,-0.35,-0.03,9.69
6.453413248062134,8.46,-1.54,0.78,8.63
6.453581094741821,6.74,-2.48,0.7,7.21
6.454031229019165,5.54,-2.67,0.25,6.15
6.4642722606658936,5.27,-2.13,0.01,5.68
6.474162340164185,5.19,-1.21,0.28,5.33
6.484270334243774,4.92,-0.53,0.68,4.99
6.494171142578125,4.49,-0.4,1.08,4.63
6.5041162967681885,3.91,-0.56,1.27,4.14
6.514225244522095,3.55,-0.84,1.18,3.83
6.553778171539307,3.25,-0.81,1.11,3.52
6.553958177566528,3.0,-0.19,1.08,3.19
6.554125070571899,3.49,0.31,1.06,3.66
6.554290056228638,3.91,0.58,1.07,4.09
6.564090251922607,3.11,1.25,0.47,3.38
6.574068307876587,1.47,2.18,-0.69,2.71
6.584078073501587,-0.34,2.91,-2.09,3.59
6.594118356704712,-1.34,3.34,-2.91,4.62
6.603995084762573,-1.6,3.94,-2.66,5.01
6.614091157913208,-2.05,4.08,-2.67,5.28
6.654100179672241,-3.03,4.05,-3.52,6.16
6.6542792320251465,-4.74,4.38,-4.89,8.09
6.6544482707977295,-7.73,4.67,-6.82,11.31
6.654621362686157,-12.17,8.1,-7.88,16.6
6.66400933265686,-13.19,11.36,-9.01,19.6
6.673959255218506,-11.53,3.88,-14.71,19.08
6.683898210525513,-17.15,-0.84,-7.15,18.59
6.693908214569092,-20.3,-3.77,2.23,20.76
6.703826189041138,-18.99,-5.6,4.67,20.34
6.713881254196167,-15.36,-4.12,1.68,15.99
6.754013299942017,-12.63,-1.48,-1.83,12.84
6.754194021224976,-10.5,-0.54,-2.24,10.74
6.754366159439087,-8.94,-0.35,-0.41,8.95
6.754547357559204,-9.46,-0.87,1.43,9.6
6.763878107070923,-9.54,0.06,2.73,9.92
6.7738072872161865,-3.05,2.21,4.06,5.53
6.783651113510132,3.58,4.06,3.94,6.69
6.7937562465667725,3.03,6.97,0.3,7.6
6.80376935005188,-4.27,6.88,-3.36,8.76
6.8137922286987305,-7.23,1.39,-6.28,9.67
6.8538291454315186,-7.74,-0.02,-7.37,10.68
6.854006052017212,-5.06,2.78,-0.65,5.8
6.854182243347168,-2.14,-0.08,4.13,4.65
6.854352235794067,-1.02,-2.53,1.72,3.22
6.8636932373046875,-1.59,-1.22,-1.36,2.42
6.873645067214966,-2.51,0.43,-1.37,2.89
6.883600234985352,-3.0,0.92,0.21,3.14
6.893602132797241,-2.57,0.23,0.91,2.73
6.903598070144653,-1.66,-0.36,0.43,1.75
6.91363525390625,-0.83,-0.43,-0.36,1.0
6.954645156860352,-0.07,-0.14,-0.59,0.61
6.954827070236206,0.6,0.18,-0.31,0.69
6.954995155334473,1.01,0.15,-0.46,1.11
6.955475091934204,1.15,0.12,-0.96,1.5
6.963661193847656,0.87,0.24,-1.37,1.64
6.973550081253052,0.43,0.11,-1.72,1.77
6.983472108840942,0.3,-0.16,-2.03,2.05
6.993544340133667,0.44,-0.1,-1.81,1.86
7.003420114517212,-0.04,0.1,-1.02,1.02
7.013488054275513,-0.76,0.19,0.2,0.8
7.05371618270874,-0.78,0.07,1.05,1.3
7.053898096084595,-0.44,-0.01,1.03,1.12
7.054067373275757,-0.29,-0.02,0.28,0.4
7.0542333126068115,-0.46,0.18,-0.15,0.51
7.063360214233398,-0.74,0.22,0.26,0.81
7.073315143585205,-0.74,-0.01,0.25,0.78
7.083288192749023,-0.63,-0.07,-0.24,0.67
7.093306303024292,-0.44,0.0,-0.63,0.76
7.1033360958099365,-0.22,0.01,-0.55,0.59
7.113278150558472,-0.01,0.0,-0.39,0.39
7.154663324356079,-0.01,-0.01,-0.56,0.56
7.154845237731934,0.0,0.04,-0.51,0.51
7.1550133228302,-0.04,0.03,-0.15,0.15
7.155487298965454,-0.1,-0.14,0.01,0.17
7.16324520111084,-0.13,-0.21,0.17,0.29
7.17318320274353,0.01,-0.12,0.23,0.25
7.183179140090942,0.06,-0.05,0.08,0.11
7.193200349807739,0.01,0.06,-0.1,0.11
7.203127145767212,0.0,0.09,-0.29,0.3
7.2132322788238525,0.14,0.12,-0.17,0.25
7.254741191864014,0.3,0.16,0.02,0.34
7.254918336868286,0.31,0.23,0.03,0.38
7.255086183547974,0.45,0.25,-0.14,0.53
7.255556344985962,0.79,0.3,-0.19,0.86
7.263122320175171,1.17,0.3,-0.3,1.24
7.2729332447052,1.4,0.32,-0.42,1.49
7.2829811573028564,1.39,0.45,-0.35,1.5
7.293111085891724,1.55,0.59,0.08,1.66
7.303045034408569,1.65,0.62,0.06,1.76
7.3129870891571045,1.56,0.57,-0.01,1.66
7.35483717918396,1.7,0.81,0.35,1.91
7.355014085769653,1.45,1.07,0.47,1.86
7.355179071426392,1.34,1.33,0.4,1.92
7.355626344680786,1.7,1.59,-0.12,2.33
7.3629772663116455,2.2,1.83,-0.78,2.96
7.3727123737335205,2.79,2.28,-0.65,3.66
7.382856130599976,4.16,2.85,-0.95,5.13
7.392885208129883,4.92,3.04,-1.57,5.99
7.402859210968018,4.61,4.04,-0.8,6.18
7.412906169891357,4.05,4.3,-0.23,5.91
7.454600095748901,3.75,3.77,-0.42,5.33
7.454777240753174,3.66,3.31,0.36,4.94
7.4549431800842285,3.74,3.13,1.38,5.06
7.455093145370483,4.17,3.24,1.38,5.45
7.462810277938843,4.68,3.75,1.06,6.09
7.472604036331177,4.91,4.18,0.6,6.47
7.482834100723267,4.79,4.44,0.25,6.53
7.492838144302368,4.43,4.79,0.28,6.53
7.502721071243286,3.66,4.66,-0.11,5.92
7.51277232170105,2.71,4.22,-0.67,5.05
7.554765224456787,2.22,4.1,-0.94,4.75
7.554945230484009,2.05,4.8,-1.45,5.41
7.55511212348938,2.12,5.96,-1.67,6.54
7.555277109146118,1.33,7.48,-1.13,7.68
7.562708139419556,0.01,7.53,-2.78,8.02
7.572641134262085,0.49,7.09,-4.54,8.43
7.5826332569122314,3.52,7.25,-3.61,8.83
7.592671155929565,6.42,7.11,-2.17,9.82
7.602609157562256,8.17,5.73,-0.65,10.0
7.612650156021118,8.71,2.39,0.27,9.03
7.6545703411102295,7.86,-2.57,-1.64,8.43
7.654748201370239,4.62,-4.62,-1.86,6.79
7.654917240142822,1.1,-2.5,1.15,2.96
7.6550822257995605,1.45,0.17,0.7,1.61
7.6626341342926025,5.39,0.42,-1.92,5.73
7.672774076461792,9.51,0.44,-1.34,9.61
7.682495355606079,11.89,0.22,-0.43,11.89
7.692549228668213,11.15,-0.8,0.28,11.18
7.702467203140259,7.98,-2.46,0.8,8.38
7.7125022411346436,5.69,-3.12,1.45,6.64
7.754690170288086,4.56,-2.72,1.95,5.65
7.754874229431152,4.37,-1.95,1.65,5.06
7.755042314529419,4.27,-1.5,1.32,4.71
7.755207300186157,3.86,-1.4,1.26,4.29
7.76238226890564,3.78,-1.48,1.37,4.28
7.772324323654175,3.67,-1.3,2.0,4.37
7.782450199127197,3.26,-0.69,2.73,4.3
7.792291164398193,2.89,0.04,3.16,4.28
7.802303075790405,2.58,0.95,3.1,4.14
7.812357187271118,2.39,1.79,2.56,3.93
7.8222901821136475,2.31,2.0,1.77,3.53
7.855173349380493,2.1,1.92,1.13,3.06
7.855358362197876,1.38,2.69,0.93,3.16
7.855528116226196,-0.13,3.87,0.37,3.88
7.86224627494812,-2.52,4.86,-0.93,5.55
7.872193098068237,-4.88,5.11,-2.46,7.48
7.882126092910767,-6.61,4.58,-3.12,8.62
7.892117261886597,-7.44,4.4,-2.87,9.1
7.902306318283081,-8.48,4.51,-3.15,10.1
7.91218113899231,-9.9,8.79,-3.18,13.61
7.922177076339722,-9.21,9.79,-6.87,15.09
7.954326152801514,-10.81,3.71,-13.94,18.02
7.954541206359863,-17.91,1.95,-7.26,19.42
7.954722166061401,-23.77,-1.67,-2.47,23.95
7.962144136428833,-23.84,-4.03,-0.31,24.18
7.972092151641846,-18.14,-4.9,-0.74,18.8
7.9820921421051025,-14.19,-2.92,-1.99,14.62
7.992008209228516,-12.06,-1.93,-4.34,12.96
8.002029180526733,-10.11,-1.89,-3.77,10.95
8.012017250061035,-9.5,-0.77,-0.62,9.55
8.021988153457642,-5.61,1.67,2.89,6.52
8.054272174835205,1.19,3.88,4.41,5.99
8.054450273513794,3.62,6.05,2.85,7.6
8.054624319076538,-5.04,1.29,-4.86,7.11
8.061910152435303,-11.44,0.39,-6.78,13.3
8.071843147277832,-8.95,4.11,-1.48,9.95
8.081891298294067,-4.34,1.81,3.04,5.59
8.091882228851318,-1.95,-2.37,3.97,5.01
8.101866245269775,-1.72,-2.9,1.57,3.71
8.111901044845581,-1.6,-0.85,-0.17,1.81
8.12186312675476,-1.15,0.76,-0.52,1.47
8.156675100326538,-0.53,0.91,-0.48,1.15
8.156856298446655,0.12,0.41,-0.96,1.05
8.157026052474976,0.14,0.01,-2.02,2.02
8.16176724433899,-0.12,-0.13,-2.57,2.57
8.171738147735596,0.12,-0.05,-2.23,2.23
8.181783199310303,0.64,0.14,-1.65,1.77
8.191784143447876,0.92,0.26,-1.37,1.67
8.201742172241211,0.83,0.33,-0.93,1.28
8.21180510520935,0.46,0.27,-0.37,0.64
8.221729040145874,-0.02,0.1,0.03,0.1
8.25661325454712,-0.52,0.05,0.42,0.67
8.256795167922974,-0.64,0.04,0.71,0.95
8.256965160369873,-0.67,0.06,0.55,0.86
8.26163125038147,-0.8,0.17,0.03,0.81
8.271613359451294,-1.06,0.13,-0.62,1.23
8.281713247299194,-1.32,-0.01,-0.8,1.54
8.29171109199524,-1.3,-0.11,-0.35,1.35
8.301668167114258,-0.84,-0.05,0.08,0.84
8.311658143997192,-0.44,0.01,0.11,0.45
8.321630239486694,-0.36,0.09,0.11,0.38
8.356781244277954,-0.41,0.13,0.23,0.48
8.35696005821228,-0.38,0.06,-0.04,0.38
8.357128143310547,-0.26,0.11,-0.48,0.55
8.361455202102661,0.06,0.08,-0.81,0.81
8.371435165405273,0.24,0.01,-0.67,0.71
8.381510257720947,0.3,-0.06,-0.59,0.66
8.391513109207153,0.3,-0.07,-0.51,0.59
8.401447057723999,0.4,-0.01,-0.17,0.43
8.41145634651184,0.44,-0.01,0.09,0.44
8.421395063400269,0.45,0.01,0.28,0.53
8.455928087234497,0.45,0.03,0.5,0.67
8.456104040145874,0.36,0.04,0.45,0.57
8.456590175628662,0.3,0.04,0.29,0.41
8.461413145065308,0.26,0.08,0.08,0.28
8.471357107162476,0.36,0.16,-0.19,0.43
8.481381177902222,0.56,0.25,-0.52,0.8
8.491363286972046,0.74,0.41,-0.72,1.11
8.501299142837524,0.83,0.39,-0.78,1.2
8.51133131980896,0.92,0.28,-0.47,1.07
8.521316289901733,1.18,0.27,-0.2,1.22
8.556796312332153,1.41,0.25,-0.08,1.43
8.556976079940796,1.77,0.41,0.03,1.81
8.557148218154907,1.91,0.63,-0.09,2.01
8.561221361160278,2.01,0.71,-0.35,2.16
8.57112717628479,2.02,0.79,-0.22,2.18
8.581242322921753,2.22,0.91,-0.04,2.39
8.591200113296509,2.69,1.02,0.19,2.88
8.60115933418274,3.12,1.13,0.32,3.33
8.611240148544312,3.16,1.51,0.33,3.51
8.621146202087402,3.02,2.43,-0.3,3.88
8.65642523765564,3.2,3.85,-1.04,5.11
8.6566002368927,2.81,3.77,0.01,4.7
8.656765222549438,2.75,3.78,0.34,4.68
8.661075353622437,3.02,4.07,0.13,5.06
8.671016216278076,3.23,4.0,0.06,5.14
8.6810781955719,3.47,4.23,0.41,5.48
8.691052198410034,4.15,4.65,0.61,6.26
8.701035261154175,4.74,5.2,0.26,7.04
8.710970163345337,5.12,5.68,-0.08,7.64
8.721027135848999,5.23,5.43,-0.26,7.54
8.75658917427063,5.18,5.0,-0.31,7.2
8.756766080856323,4.81,4.61,-0.48,6.67
8.756933212280273,3.58,4.4,-0.7,5.71
8.760861158370972,2.35,5.27,-0.66,5.8
8.770916223526001,1.61,6.73,-1.08,7.0
8.780943155288696,1.83,7.81,-2.06,8.28
8.79075026512146,1.94,8.2,-2.61,8.82
8.800905227661133,0.64,7.69,-3.24,8.36
8.81092619895935,-0.54,7.07,-4.53,8.41
8.82086730003357,0.21,6.93,-3.9,7.95
8.856135129928589,2.91,6.64,-2.15,7.56
8.856312036514282,5.6,5.51,-0.88,7.9
8.85648512840271,7.59,3.21,0.77,8.27
8.86071228981018,7.99,-1.66,-1.49,8.29
8.870788335800171,3.21,-4.94,-2.46,6.38
8.880778074264526,0.07,-4.12,-0.03,4.12
8.890618085861206,3.03,-1.6,-1.05,3.58
8.900736093521118,7.8,-0.39,-2.66,8.25
8.91076111793518,11.38,0.85,-1.18,11.47
8.920773267745972,13.76,1.05,1.21,13.85
8.956627130508423,12.48,-1.15,2.85,12.85
8.957293272018433,8.17,-3.86,2.81,9.46
8.957465171813965,5.85,-4.47,2.46,7.76
8.960636138916016,5.69,-3.53,1.85,6.94
8.970649242401123,5.49,-2.47,1.14,6.12
8.980655193328857,4.83,-1.68,0.79,5.17
8.990469217300415,4.19,-1.19,0.63,4.4
9.000684022903442,3.41,-0.9,0.67,3.58
9.010564088821411,2.46,-0.65,1.01,2.73
9.020694255828857,1.66,-0.42,1.42,2.22
9.056763172149658,1.37,-0.28,1.64,2.15
9.056942224502563,1.3,0.04,1.99,2.37
9.057106256484985,1.24,0.74,2.52,2.9
9.060509204864502,1.29,1.28,2.28,2.91
9.070433139801025,1.55,1.03,1.23,2.23
9.080528020858765,0.96,1.23,0.35,1.59
9.090586185455322,-0.78,2.2,-0.06,2.33
9.100487232208252,-3.09,2.91,-0.73,4.3
9.110405206680298,-4.44,3.02,-1.66,5.62
9.120392084121704,-4.32,3.3,-1.6,5.66
9.15694522857666,-4.42,3.57,-1.37,5.84
9.157126188278198,-5.43,3.44,-1.6,6.62
9.157297372817993,-7.04,3.35,-2.46,8.17
9.1602623462677,-8.96,6.49,-3.39,11.57
9.170266151428223,-10.27,11.24,-3.94,15.72
9.18040919303894,-8.43,5.62,-12.9,16.4
9.190599203109741,-13.12,3.16,-9.8,16.67
9.200336217880249,-19.2,0.19,-3.11,19.45
9.210322141647339,-22.44,-3.03,0.1,22.64
9.220397233963013,-19.66,-4.82,0.34,20.24
9.254292249679565,-14.68,-3.99,-1.45,15.28
9.254471063613892,-12.34,-2.26,-2.93,12.88
9.254643201828003,-11.26,-1.58,-3.16,11.8
9.260335206985474,-11.05,0.09,-1.34,11.13
9.270249128341675,-6.15,1.97,1.39,6.6
9.280247211456299,2.0,1.67,3.23,4.14
9.290224313735962,6.93,1.88,3.71,8.08
9.30025315284729,4.57,5.03,1.43,6.94
9.310164213180542,-4.9,3.42,-4.56,7.51
9.32014536857605,-12.67,1.24,-8.95,15.56
9.35531210899353,-11.05,4.55,-2.73,12.25
9.355494260787964,-5.45,1.76,4.11,7.04
9.355668306350708,-2.12,-2.6,5.58,6.51
9.360074281692505,-1.59,-3.7,1.92,4.46
9.37006402015686,-1.67,-1.75,-0.65,2.5
9.380080223083496,-1.94,0.23,-0.35,1.98
9.389981031417847,-2.26,0.83,0.6,2.48
9.400131225585938,-2.47,0.52,0.62,2.59
9.410072088241577,-2.61,0.28,0.06,2.62
9.420051336288452,-2.39,0.16,-0.81,2.52
9.455676317214966,-1.47,0.38,-1.13,1.89
9.455859184265137,0.0,0.5,-1.15,1.25
9.45603632926941,0.95,0.33,-1.53,1.83
9.459922075271606,1.0,0.28,-1.99,2.24
9.469858169555664,0.86,0.37,-2.2,2.39
9.479851245880127,0.5,0.29,-1.75,1.84
9.4898841381073,0.09,0.13,-1.35,1.35
9.499979257583618,-0.12,0.09,-1.31,1.31
9.509941339492798,-0.01,0.06,-1.05,1.05
9.519907236099243,0.17,-0.01,-0.48,0.5
9.556371212005615,0.27,-0.11,0.29,0.41
9.556555032730103,0.28,-0.17,0.8,0.86
9.556734323501587,0.22,-0.22,0.65,0.72
9.55982232093811,0.26,-0.14,0.19,0.35
9.570908308029175,0.36,-0.11,-0.11,0.39
9.579850196838379,0.49,0.0,-0.22,0.53
9.589751243591309,0.49,-0.03,-0.41,0.63
9.599812269210815,0.16,-0.12,-0.47,0.51
9.609785318374634,0.04,-0.13,-0.48,0.49
9.619755029678345,0.26,-0.08,-0.7,0.75
9.655307054519653,0.46,-0.08,-0.63,0.78
9.655489206314087,0.5,-0.05,-0.15,0.52
9.655664205551147,0.31,0.03,0.27,0.41
9.659725189208984,0.11,0.17,0.61,0.64
9.669625043869019,-0.01,0.2,0.68,0.7
9.679701089859009,-0.15,0.07,0.44,0.47
9.689629316329956,-0.12,-0.05,0.39,0.41
9.699591159820557,0.22,0.0,0.41,0.46
9.70960021018982,0.48,0.06,0.14,0.5
9.71955132484436,0.39,0.16,0.01,0.42
9.75490403175354,0.36,0.23,0.02,0.42
9.755083322525024,0.4,0.21,-0.01,0.45
9.755255222320557,0.38,0.17,-0.2,0.46
9.759559154510498,0.43,0.15,-0.31,0.55
9.76941704750061,0.71,0.15,-0.4,0.82
9.779463052749634,0.92,0.2,-0.66,1.14
9.789464235305786,1.05,0.35,-0.77,1.34
9.799483060836792,1.21,0.37,-0.51,1.36
9.80950117111206,1.37,0.24,-0.29,1.42
9.819530248641968,1.81,0.19,0.04,1.82
9.85541319847107,2.38,0.25,-0.08,2.39
9.855600118637085,2.7,0.49,-0.39,2.77
9.855773210525513,2.92,0.85,-0.23,3.04
9.859421253204346,2.86,1.22,-0.02,3.1
9.86926007270813,2.79,1.5,-0.11,3.16
9.879449129104614,2.58,1.85,0.25,3.18
9.88938307762146,2.36,2.19,-0.08,3.22
9.899423360824585,3.01,3.8,-0.51,4.87
9.909385204315186,2.69,3.96,1.15,4.92
9.919331312179565,2.83,4.04,0.97,5.02
9.955322027206421,3.25,4.56,0.34,5.6
9.955502271652222,3.56,4.7,0.26,5.9
9.955674171447754,3.45,4.6,0.41,5.76
9.959256172180176,3.49,4.58,0.62,5.79
9.969238042831421,3.85,4.74,0.49,6.12
9.979226350784302,3.83,4.81,0.28,6.15
9.989185094833374,3.79,4.5,0.08,5.88
9.99924921989441,3.78,4.27,-0.58,5.73
10.009229183197021,3.53,4.41,-0.85,5.71
10.019126176834106,3.23,5.3,-0.81,6.25
10.055456161499023,3.03,6.73,-1.3,7.49
10.055639028549194,3.06,7.79,-1.99,8.6
10.055812120437622,3.66,7.99,-2.72,9.19
10.059084177017212,3.66,8.39,-3.33,9.74
10.06909728050232,1.92,8.38,-5.16,10.02
10.079131364822388,-0.63,8.07,-6.96,10.67
10.089097261428833,-0.67,7.98,-5.83,9.9
10.099125146865845,2.23,7.49,-3.19,8.44
10.10903811454773,5.49,5.77,-0.48,7.97
10.119060277938843,7.11,1.96,0.66,7.4
10.155626058578491,7.83,-3.79,-2.26,8.98
10.155811071395874,4.0,-5.68,-2.18,7.28
10.155988216400146,0.24,-3.47,1.13,3.65
10.159053087234497,1.67,-0.56,0.85,1.95
10.169037103652954,6.41,0.21,-1.05,6.49
10.179035186767578,11.51,0.49,0.16,11.52
10.188916206359863,14.13,0.01,1.5,14.2
10.198965311050415,12.82,-1.67,2.01,13.08
10.20884108543396,8.92,-3.01,1.61,9.55
10.218895196914673,6.29,-3.25,0.9,7.13
10.255126237869263,5.03,-3.01,0.7,5.9
10.255312204360962,4.37,-2.6,1.08,5.19
10.255487203598022,4.56,-2.55,1.33,5.39
10.258870363235474,4.79,-2.51,1.39,5.58
10.268778085708618,4.48,-2.22,1.55,5.23
10.278879165649414,4.05,-1.61,1.64,4.65
10.288815259933472,3.29,-0.82,1.67,3.77
10.298742055892944,2.48,-0.34,1.91,3.14
10.308609247207642,1.65,0.24,2.45,2.96
10.318718194961548,1.19,0.9,3.34,3.65
10.354816198348999,1.01,1.36,3.52,3.9
10.354998350143433,1.18,0.83,2.17,2.6
10.355170249938965,0.81,1.18,0.7,1.59
10.3584463596344,-0.71,3.09,-0.45,3.2
10.368658304214478,-2.5,4.55,-1.98,5.55
10.378667116165161,-3.83,5.01,-3.41,7.16
10.388581037521362,-4.35,5.33,-3.75,7.83
10.398608207702637,-4.6,4.93,-3.48,7.58
10.408491373062134,-5.48,3.93,-2.76,7.28
10.418574094772339,-7.66,3.66,-2.9,8.97
10.455444097518921,-10.0,9.28,-3.05,13.97
10.455629110336304,-9.8,10.48,-7.19,16.04
10.455808162689209,-11.03,3.73,-15.48,19.37
10.458335161209106,-18.01,0.6,-9.86,20.54
10.468507051467896,-22.04,-2.98,-2.15,22.34
10.47848105430603,-22.23,-5.69,1.76,23.01
10.488441228866577,-19.06,-6.23,0.15,20.05
10.498529195785522,-17.32,-4.08,-2.44,17.96
10.50835633277893,-16.7,-1.43,-3.96,17.22
10.51853632926941,-12.21,3.09,-0.85,12.62
10.55587124824524,-2.25,7.94,4.23,9.27
10.556060075759888,6.45,11.11,3.81,13.39
10.556234121322632,4.06,6.82,-2.0,8.18
10.55829405784607,-6.33,-2.57,-8.12,10.61
10.568427324295044,-8.06,-2.41,-5.13,9.85
10.578462362289429,-6.49,0.21,0.06,6.49
10.588300228118896,-6.37,-0.09,3.73,7.38
10.598340272903442,-6.29,-1.53,2.26,6.85
10.608370065689087,-4.7,-1.23,-0.44,4.87
10.618213176727295,-3.03,0.32,-0.87,3.16
10.655758142471313,-1.92,1.05,-0.5,2.24
10.655940294265747,-1.17,0.69,-0.7,1.52
10.656111240386963,-0.93,0.48,-1.04,1.47
10.6583251953125,-0.54,0.37,-1.06,1.24
10.66823124885559,0.14,0.4,-0.57,0.71
10.678261041641235,0.44,0.06,-0.13,0.46
10.688172101974487,0.35,-0.37,-0.58,0.77
10.698259115219116,0.44,-0.3,-0.95,1.08
10.70842719078064,0.68,0.05,-0.82,1.06
10.718197107315063,0.75,0.16,-0.5,0.91
10.75635814666748,0.62,0.04,-0.7,0.93
10.756542205810547,0.5,-0.06,-1.08,1.19
10.756714105606079,0.48,-0.16,-0.9,1.03
10.758442163467407,0.42,-0.18,-0.34,0.56
10.768149137496948,0.3,-0.08,0.09,0.32
10.780219316482544,0.44,-0.01,0.06,0.44
10.788003206253052,0.5,0.0,-0.05,0.5
10.797983169555664,0.6,0.06,-0.35,0.69
10.808032274246216,0.7,0.07,-0.44,0.82
10.818056344985962,0.73,0.03,-0.43,0.84
10.855930089950562,0.39,0.2,-0.41,0.6
10.856109142303467,-0.13,0.21,-0.22,0.33
10.856280088424683,-0.53,0.19,0.07,0.56
10.858031034469604,-0.95,0.1,0.0,0.95
10.868008375167847,-1.22,0.08,-0.39,1.28
10.877978086471558,-1.05,0.16,-0.48,1.16
10.88792634010315,-0.71,0.24,-0.42,0.85
10.897910356521606,-0.44,0.16,-0.6,0.76
10.90788722038269,-0.12,0.12,-0.69,0.71
10.917948246002197,0.19,0.1,-0.74,0.77
10.955634355545044,0.32,0.0,-0.54,0.62
10.955818176269531,0.25,-0.08,-0.19,0.32
10.95598816871643,0.18,-0.16,0.05,0.24
10.957804203033447,0.18,-0.14,0.1,0.24
10.967826128005981,0.21,-0.04,0.22,0.3
10.977761030197144,0.33,0.1,0.51,0.61
10.987748146057129,0.43,0.2,0.57,0.74
10.997807264328003,0.47,0.27,0.29,0.61
11.007721185684204,0.47,0.29,-0.1,0.56
11.017763376235962,0.68,0.27,-0.42,0.84
11.055889368057251,1.02,0.29,-0.46,1.15
11.056072235107422,1.4,0.3,-0.57,1.54
11.056241273880005,1.61,0.37,-0.41,1.7
11.057632207870483,1.67,0.47,-0.11,1.73
11.067732095718384,1.76,0.64,0.1,1.87
11.077592134475708,1.81,0.83,0.1,1.99
11.087619066238403,1.77,1.01,-0.11,2.04
11.097661256790161,1.92,1.16,0.04,2.24
11.107583284378052,2.44,1.1,0.08,2.67
11.117562055587769,3.09,1.13,0.03,3.29
11.15537428855896,3.6,1.75,-0.42,4.02
11.155554056167603,4.04,2.74,-0.89,4.96
11.155725240707397,3.45,2.98,-0.41,4.57
11.15748119354248,3.01,3.31,-0.24,4.48
11.167561292648315,3.26,3.6,-0.19,4.86
11.177606344223022,3.63,3.69,-0.27,5.18
11.187538146972656,3.82,3.83,-0.21,5.41
11.197524309158325,4.02,3.96,0.3,5.65
11.207406282424927,4.16,3.96,0.49,5.76
11.21747612953186,4.2,4.12,0.4,5.89
11.255827188491821,4.32,4.4,0.39,6.17
11.256000280380249,4.25,4.61,0.09,6.27
11.25616717338562,4.07,4.83,-0.4,6.32
11.257440328598022,3.84,4.93,-0.88,6.31
11.267504215240479,3.29,5.08,-1.41,6.21
11.277466058731079,2.63,5.08,-1.2,5.84
11.28751015663147,2.39,5.39,-1.05,5.98
11.297352075576782,2.49,5.73,-1.89,6.52
11.307271242141724,2.1,6.28,-1.9,6.88
11.31730318069458,0.79,6.52,-2.19,6.92
11.356049299240112,-0.1,6.45,-3.53,7.35
11.356233358383179,1.11,6.6,-3.31,7.46
11.35640835762024,3.82,6.64,-2.25,7.98
11.357181310653687,6.6,6.26,-0.77,9.12
11.367300271987915,8.75,4.99,1.05,10.12
11.377326250076294,7.28,0.3,-1.58,7.45
11.387218236923218,4.63,-2.37,-3.21,6.11
11.397311210632324,1.57,-1.09,-2.06,2.81
11.40720009803772,-0.84,0.52,-0.93,1.35
11.417248249053955,0.13,0.18,-3.14,3.14
11.456502199172974,5.45,-0.39,-4.52,7.09
11.456684350967407,10.47,-0.25,-2.68,10.81
11.456859350204468,12.76,-0.19,0.06,12.76
11.457034349441528,13.13,-0.85,2.47,13.38
11.467165231704712,10.19,-2.18,2.52,10.72
11.477103233337402,6.61,-3.05,0.92,7.33
11.487065076828003,4.99,-2.89,0.36,5.77
11.497140169143677,4.46,-2.77,0.47,5.27
11.507121324539185,4.11,-3.04,0.42,5.12
11.517115354537964,4.26,-3.15,0.12,5.29
11.556223154067993,4.52,-2.96,-0.06,5.4
11.55640721321106,3.97,-2.65,0.13,4.77
11.556609153747559,3.07,-2.47,0.22,3.94
11.556780099868774,2.05,-1.79,0.66,2.8
11.567002058029175,1.17,-0.54,1.02,1.64
11.576910257339478,0.77,0.8,1.55,1.9
11.586905241012573,0.74,1.9,1.8,2.71
11.596930265426636,0.62,2.27,1.29,2.68
11.607072114944458,0.75,1.35,-0.39,1.59
11.616917371749878,0.71,1.47,-2.22,2.75
11.657114267349243,-0.94,3.15,-3.14,4.54
11.657305240631104,-3.93,4.68,-3.56,7.07
11.657480239868164,-6.78,4.42,-4.16,9.1
11.657653093338013,-8.46,3.62,-3.58,9.87
11.66677737236023,-9.47,2.79,-2.34,10.14
11.676811218261719,-9.99,2.11,-0.99,10.25
11.686795234680176,-10.26,4.43,-1.25,11.24
11.697762250900269,-10.37,12.0,-2.34,16.03
11.706775188446045,-8.05,6.62,-12.48,16.25
11.716799020767212,-13.89,2.77,-10.92,17.88
11.757495164871216,-18.76,-0.33,-1.42,18.81
11.757680177688599,-19.72,-3.79,2.65,20.25
11.757853269577026,-17.59,-4.96,1.6,18.34
11.758023023605347,-16.34,-4.04,-1.32,16.88
11.766786336898804,-17.54,-1.88,-2.81,17.86
11.776617288589478,-12.36,2.78,-0.57,12.68
11.786689043045044,-1.42,6.89,4.58,8.39
11.796618223190308,7.1,8.7,4.91,12.25
11.806610345840454,3.14,8.01,0.17,8.6
11.81669020652771,-6.68,1.87,-4.56,8.3
11.857505083084106,-10.97,-3.62,-8.21,14.17
11.85768723487854,-11.15,-0.13,-5.11,12.26
11.857859373092651,-6.31,3.17,1.96,7.32
11.858029127120972,-3.56,-0.53,3.51,5.02
11.866502046585083,-3.17,-2.33,0.95,4.04
11.876482248306274,-3.06,-1.18,-0.89,3.39
11.886490106582642,-2.44,0.45,-1.31,2.8
11.896551370620728,-1.45,1.07,-0.98,2.05
11.906490087509155,-0.47,0.65,-0.66,1.03
11.916475057601929,-0.03,0.19,-0.69,0.71
11.958153247833252,0.28,-0.19,-0.79,0.85
11.95833706855774,0.98,-0.23,-0.66,1.2
11.958513021469116,1.65,-0.13,-0.64,1.77
11.958684206008911,1.63,-0.15,-1.11,1.97
11.966379165649414,1.17,0.08,-1.55,1.94
11.976205110549927,0.75,0.36,-1.68,1.87
11.986408233642578,0.56,0.22,-1.39,1.51
11.996394157409668,0.24,-0.05,-0.53,0.58
12.006352186203003,0.11,-0.17,0.05,0.2
12.016330242156982,0.27,-0.08,-0.02,0.28
12.057406187057495,0.3,0.07,-0.44,0.53
12.057584047317505,0.25,0.21,-0.55,0.63
12.0577552318573,0.38,0.25,-0.07,0.46
12.057922124862671,0.18,0.1,0.33,0.38
12.066342115402222,-0.25,-0.05,0.04,0.25
12.076165199279785,-0.76,0.0,-0.46,0.88
12.086194276809692,-1.16,0.06,-0.34,1.21
12.096257209777832,-1.29,-0.05,-0.13,1.29
12.106213331222534,-1.16,-0.06,0.0,1.16
12.11616826057434,-0.85,-0.03,0.18,0.86
12.15762734413147,-0.6,0.05,0.23,0.64
12.157809257507324,-0.47,0.17,-0.03,0.5
12.15797734260559,-0.39,0.19,-0.17,0.46
12.158142328262329,-0.29,0.12,-0.14,0.34
12.166091203689575,-0.24,-0.04,-0.23,0.33
12.176252126693726,-0.16,-0.12,-0.23,0.3
12.186053037643433,-0.23,-0.12,-0.11,0.28
12.196116209030151,-0.19,-0.06,0.04,0.2
12.205992221832275,0.01,0.04,0.31,0.31
12.216036081314087,0.0,0.07,0.37,0.37
12.257843255996704,-0.1,0.07,0.33,0.35
12.258024215698242,-0.11,0.06,0.21,0.24
12.258192300796509,0.0,0.03,0.15,0.15
12.25835633277893,0.18,0.04,0.23,0.29
12.266000032424927,0.39,0.06,0.23,0.45
12.27620816230774,0.82,0.11,-0.11,0.83
12.285974264144897,1.33,0.23,-0.46,1.42
12.295966148376465,1.77,0.36,-0.21,1.81
12.305791139602661,2.02,0.37,0.06,2.05
12.315820217132568,2.2,0.48,-0.25,2.26
12.325878143310547,2.45,0.53,-1.11,2.74
12.358087301254272,2.82,0.44,-1.3,3.13
12.358271360397339,3.15,0.39,-0.58,3.22
12.35844111442566,3.56,0.51,-0.22,3.6
12.365902185440063,3.98,0.8,-0.19,4.06
12.37584924697876,4.11,1.16,-0.59,4.31
12.385895252227783,3.83,1.71,-0.75,4.26
12.395801305770874,3.4,2.65,-0.35,4.32
12.405811071395874,2.82,4.56,-0.39,5.37
12.415736198425293,2.6,5.18,-1.22,5.92
12.425808191299438,2.51,5.04,-0.38,5.64
12.458266019821167,2.18,4.81,0.33,5.29
12.458445310592651,1.83,4.21,0.62,4.63
12.458614110946655,2.22,3.91,0.56,4.53
12.465648174285889,2.81,3.95,0.8,4.91
12.475635290145874,3.6,4.33,0.8,5.68
12.485694169998169,4.27,4.44,0.32,6.16
12.495647192001343,4.62,4.2,0.1,6.24
12.505593061447144,4.72,3.99,-0.11,6.18
12.515644311904907,4.56,4.1,-0.46,6.14
12.525597333908081,4.12,4.42,-0.66,6.07
12.558473348617554,3.55,5.28,-0.6,6.39
12.558647155761719,3.03,6.51,-0.77,7.22
12.558814287185669,2.7,7.19,-1.08,7.75
12.565603256225586,2.49,7.14,-1.8,7.77
12.575509309768677,1.88,6.95,-3.39,7.95
12.585491180419922,0.87,6.81,-5.47,8.77
12.595460176467896,1.27,7.3,-5.53,9.24
12.605403184890747,3.02,7.81,-3.51,9.07
12.615504026412964,5.19,6.83,-1.65,8.73
12.625486135482788,7.2,4.65,0.78,8.6
12.659425020217896,7.97,0.46,0.2,7.98
12.659910202026367,5.35,-3.17,-1.53,6.4
12.6600821018219,0.57,-3.53,-2.94,4.62
12.665438175201416,-2.45,-0.88,-1.28,2.9
12.675369024276733,-0.66,-0.18,-3.2,3.27
12.68546724319458,5.22,-0.26,-4.09,6.63
12.695367097854614,10.22,0.12,-2.37,10.49
12.705282211303711,13.06,0.37,0.12,13.06
12.715428113937378,13.45,-0.32,2.78,13.73
12.72536015510559,9.84,-2.28,3.34,10.63
12.759294271469116,6.53,-3.64,2.49,7.87
12.759478330612183,5.71,-3.84,2.09,7.19
12.759865045547485,5.56,-3.22,2.09,6.75
12.765319108963013,5.44,-2.69,2.16,6.44
12.775299310684204,5.15,-2.23,1.84,5.9
12.785308122634888,4.79,-1.75,1.57,5.33
12.795307159423828,4.41,-1.16,1.41,4.77
12.805253267288208,4.03,-0.71,1.18,4.25
12.815315246582031,3.83,-0.48,1.53,4.15
12.825228214263916,3.55,-0.47,2.57,4.4
12.859878301620483,2.82,-0.06,3.77,4.7
12.860058069229126,2.09,0.86,3.91,4.51
12.860225200653076,1.87,1.57,2.31,3.36
12.86508321762085,1.17,2.1,0.12,2.4
12.87498927116394,-0.84,3.45,-2.02,4.08
12.885128259658813,-3.8,5.07,-4.08,7.53
12.895117044448853,-7.14,6.33,-5.69,11.1
12.905109167098999,-9.5,6.51,-6.1,13.03
12.915104150772095,-9.97,5.6,-5.15,12.54
12.925028085708618,-9.48,4.87,-3.61,11.25
12.96051812171936,-10.14,4.0,-2.93,11.28
12.960700273513794,-12.66,8.16,-2.54,15.27
12.96087121963501,-12.39,8.27,-6.41,16.21
12.964942216873169,-12.54,1.45,-12.0,17.41
12.974990129470825,-16.73,-1.44,-5.92,17.8
12.984976053237915,-17.15,-3.47,0.36,17.5
12.994982242584229,-15.47,-3.98,2.36,16.14
13.004924058914185,-13.73,-3.2,0.1,14.09
13.042226076126099,-12.34,-1.36,-2.01,12.57
13.042410135269165,-10.99,0.41,-1.78,11.14
13.042582273483276,-11.05,2.35,0.81,11.32
13.044877290725708,-6.03,4.34,3.71,8.3
13.054861307144165,2.71,3.1,4.25,5.91
13.064885139465332,5.42,2.13,2.74,6.43
13.074836254119873,-0.95,3.0,-0.63,3.2
13.084847211837769,-7.98,4.97,-2.09,9.63
13.094839334487915,-9.54,3.55,-1.73,10.32
13.104737043380737,-8.11,-0.03,-4.54,9.29
13.144853353500366,-7.32,1.32,-4.06,8.47
13.14503026008606,-3.75,1.93,0.45,4.24
13.145198106765747,-1.69,-0.77,1.3,2.26
13.145363092422485,-2.26,-1.69,-0.31,2.83
13.154699087142944,-2.76,-0.77,-1.44,3.2
13.164645195007324,-1.95,0.37,-1.2,2.31
13.174651145935059,-0.91,0.54,-0.34,1.11
13.184654235839844,-0.21,-0.01,-0.29,0.35
13.194507360458374,0.04,-0.31,-0.66,0.73
13.204573154449463,0.01,-0.18,-0.81,0.82
13.244957208633423,0.4,0.18,-0.7,0.82
13.245129346847534,0.81,0.21,-0.37,0.91
13.245293140411377,0.78,0.04,-0.25,0.82
13.24545931816101,0.42,0.07,-0.53,0.67
13.254529237747192,-0.24,0.18,-0.52,0.6
13.26456332206726,-0.69,0.26,-0.01,0.73
13.27454924583435,-0.41,0.06,-0.06,0.41
13.284554243087769,-0.03,-0.21,-0.69,0.72
13.294380187988281,-0.09,-0.31,-1.25,1.29
13.304384231567383,-0.38,-0.07,-1.06,1.12
13.344991207122803,-0.55,0.18,-0.42,0.71
13.345171213150024,-0.49,0.12,-0.22,0.55
13.345339059829712,-0.41,0.05,0.01,0.41
13.34550404548645,-0.55,0.07,0.19,0.58
13.354314088821411,-0.73,0.05,0.16,0.74
13.36427617073059,-0.82,0.11,0.0,0.82
13.374234199523926,-0.85,0.13,-0.28,0.9
13.384262323379517,-0.63,0.13,-0.61,0.88
13.394241094589233,-0.28,0.08,-0.88,0.92
13.404275178909302,0.0,-0.01,-0.98,0.98
13.445163249969482,0.01,-0.14,-0.82,0.83
13.445343255996704,-0.17,-0.22,-0.24,0.36
13.445512056350708,-0.29,-0.16,0.19,0.38
13.445678234100342,-0.24,-0.12,0.14,0.3
13.454115152359009,-0.19,-0.03,0.02,0.19
13.464118242263794,-0.16,0.02,0.07,0.17
13.474171161651611,-0.15,-0.04,0.0,0.15
13.484252214431763,-0.25,0.02,-0.14,0.28
13.49411916732788,-0.18,0.05,-0.26,0.32
13.504238367080688,0.12,0.13,-0.33,0.37
13.544779062271118,0.38,0.14,-0.25,0.47
13.54495620727539,0.57,0.15,-0.1,0.59
13.54512333869934,0.84,0.11,0.02,0.84
13.545286178588867,1.0,0.04,0.1,1.0
13.554060220718384,1.2,0.11,0.37,1.26
13.564106225967407,1.5,0.3,0.44,1.59
13.574128150939941,1.66,0.47,0.21,1.73
13.584168195724487,1.95,0.62,0.38,2.08
13.594136238098145,2.46,0.61,0.34,2.55
13.604143142700195,3.16,0.5,-0.05,3.19
13.64572525024414,3.85,0.44,-0.33,3.88
13.64590334892273,4.27,0.47,-0.44,4.31
13.64607310295105,4.53,0.69,-0.24,4.58
13.646239042282104,4.32,1.29,-0.22,4.51
13.653828144073486,3.8,2.01,-0.1,4.3
13.663876295089722,3.36,3.0,0.67,4.55
13.673856019973755,2.78,4.06,0.92,5.0
13.683686256408691,3.07,5.26,-1.13,6.19
13.694201231002808,2.65,5.31,-0.32,5.94
13.703843355178833,2.46,4.98,0.61,5.58
13.74560809135437,2.69,4.48,0.51,5.25
13.745782136917114,3.06,4.18,0.57,5.21
13.745955228805542,3.84,4.45,0.56,5.9
13.746119260787964,4.58,4.93,0.17,6.73
13.75373911857605,4.9,5.49,-0.24,7.36
13.763715028762817,5.05,5.39,-0.61,7.41
13.77380108833313,5.16,4.94,-1.09,7.22
13.783720254898071,4.82,4.75,-1.36,6.9
13.793760061264038,3.91,5.21,-1.21,6.62
13.803720235824585,2.99,6.33,-0.96,7.06
13.846741199493408,2.32,7.03,-1.61,7.57
13.846916198730469,2.55,7.41,-3.49,8.57
13.847082376480103,1.6,7.88,-3.63,8.82
13.847246170043945,-0.41,7.77,-3.2,8.41
13.85374903678894,-2.78,5.91,-4.25,7.79
13.863529205322266,-0.63,5.26,-3.37,6.27
13.873532056808472,3.38,5.42,-1.85,6.65
13.883506059646606,7.31,5.52,0.07,9.16
13.894489049911499,9.53,2.15,0.1,9.77
13.903501272201538,6.55,-3.24,-2.21,7.63
13.946287155151367,1.52,-5.19,-2.38,5.9
13.946462154388428,-0.93,-3.13,-0.33,3.28
13.946632146835327,0.23,-1.13,-1.06,1.56
13.946798086166382,4.39,-0.9,-2.47,5.11
13.953484296798706,8.34,-0.57,-2.12,8.62
13.9635751247406,11.3,-0.41,-0.92,11.34
13.973475217819214,12.48,-1.11,1.06,12.57
13.983505249023438,10.61,-2.66,2.55,11.23
13.993492364883423,7.37,-3.74,2.5,8.63
14.003544092178345,5.69,-4.12,1.8,7.25
14.047290086746216,5.05,-3.59,1.48,6.37
14.047473192214966,4.8,-2.75,1.34,5.69
14.04764437675476,4.61,-2.38,1.2,5.32
14.047811269760132,4.25,-2.07,1.21,4.87
14.053251028060913,3.92,-1.75,1.11,4.43
14.063475370407104,3.68,-1.23,1.19,4.05
14.073490142822266,3.36,-0.31,1.5,3.69
14.083475351333618,3.01,0.59,1.95,3.63
14.093324184417725,2.73,1.25,2.35,3.81
14.103434324264526,2.44,1.56,2.18,3.62
14.147187232971191,2.33,1.33,1.2,2.93
14.147363185882568,1.53,1.47,-0.08,2.12
14.147533178329468,-0.32,2.24,-1.16,2.54
14.147700071334839,-2.63,2.94,-2.07,4.45
14.153260231018066,-4.94,3.41,-2.77,6.61
14.163279294967651,-6.43,3.51,-2.92,7.88
14.173195123672485,-6.82,3.5,-2.41,8.03
14.183335065841675,-7.12,3.53,-2.19,8.24
14.193193197250366,-7.69,3.58,-2.69,8.89
14.203172206878662,-8.67,3.74,-3.67,10.13
14.247884035110474,-10.07,7.99,-3.63,13.35
14.248059034347534,-9.6,10.07,-4.96,14.77
14.248228311538696,-9.68,3.19,-12.07,15.79
14.248396158218384,-15.61,0.81,-5.18,16.46
14.253061056137085,-18.54,-2.28,1.73,18.75
14.263089179992676,-16.11,-3.87,2.18,16.71
14.273083209991455,-12.88,-3.27,0.41,13.29
14.283218145370483,-11.81,-1.71,-1.39,12.01
14.293066263198853,-11.22,-0.81,-2.51,11.52
14.303089141845703,-12.21,-0.41,-1.65,12.32
14.34803032875061,-10.57,1.12,0.09,10.62
14.34821105003357,-1.94,2.79,1.88,3.88
14.348379373550415,4.78,4.63,2.82,7.22
14.348544359207153,2.79,6.5,0.02,7.07
14.352979183197021,-5.45,6.45,-2.37,8.77
14.362977266311646,-8.45,2.06,-2.82,9.14
14.372988224029541,-9.22,-1.24,-5.22,10.66
14.382963180541992,-7.28,1.25,-1.83,7.6
14.392946243286133,-3.43,0.75,2.58,4.35
14.4029700756073,-2.37,-1.28,2.13,3.43
14.448359251022339,-2.95,-1.21,-0.23,3.19
14.448540210723877,-2.99,-0.21,-1.23,3.23
14.44870924949646,-2.49,0.6,-0.68,2.65
14.448875188827515,-1.88,0.26,0.09,1.9
14.452871084213257,-1.36,-0.3,0.26,1.41
14.462813138961792,-0.78,-0.31,-0.01,0.83
14.472884178161621,-0.2,-0.04,-0.26,0.33
14.482884168624878,0.39,0.13,-0.59,0.71
14.492801189422607,0.99,0.17,-0.69,1.21
14.502803087234497,1.39,0.07,-0.69,1.55
14.548729181289673,1.4,0.0,-0.69,1.56
14.548910140991211,1.08,0.05,-0.81,1.35
14.54908013343811,0.59,0.0,-1.16,1.3
14.549248218536377,0.13,-0.02,-1.47,1.47
14.55266523361206,-0.18,0.0,-1.43,1.44
14.562718152999878,-0.22,0.18,-0.92,0.96
14.573090314865112,-0.11,0.33,-0.31,0.46
14.582733154296875,0.17,0.18,0.11,0.27
14.592712163925171,0.31,-0.16,0.27,0.44
14.602725267410278,0.09,-0.26,0.29,0.39
14.649136304855347,-0.18,-0.09,0.32,0.37
14.649317026138306,-0.01,0.08,0.39,0.39
14.649487257003784,0.5,0.1,0.07,0.51
14.649656057357788,0.87,0.09,-0.11,0.88
14.652534246444702,0.94,0.11,-0.35,1.0
14.662565231323242,0.24,0.05,-0.82,0.85
14.672478199005127,-0.97,-0.08,-1.08,1.45
14.682537317276001,-1.4,-0.03,-0.59,1.51
14.692567110061646,-0.92,0.03,-0.19,0.93
14.702600240707397,-0.27,0.03,-0.07,0.28
14.749765157699585,0.12,0.03,0.3,0.32
14.74994421005249,0.3,0.1,0.51,0.6
14.75011134147644,0.33,0.08,0.05,0.34
14.7502601146698,0.32,0.08,-0.34,0.47
14.752439260482788,0.31,0.03,-0.36,0.47
14.762381315231323,0.15,-0.04,-0.37,0.4
14.772419214248657,-0.18,-0.02,-0.47,0.5
14.782455205917358,-0.44,0.04,-0.36,0.56
14.792383193969727,-0.45,0.1,-0.19,0.49
14.802356243133545,-0.21,0.14,-0.22,0.33
14.849732160568237,0.06,0.25,-0.43,0.5
14.849913358688354,0.23,0.37,-0.42,0.6
14.85007929801941,0.6,0.53,-0.15,0.81
14.850243330001831,1.13,0.57,0.16,1.27
14.852205038070679,1.5,0.48,0.22,1.59
14.862080335617065,1.51,0.46,0.13,1.58
14.87216830253601,1.76,0.64,0.25,1.88
14.88223910331726,2.22,0.88,-0.03,2.38
14.89214015007019,2.72,1.04,-0.74,3.0
14.902156114578247,3.15,1.26,-1.01,3.53
14.950332164764404,3.55,1.54,-0.48,3.89
14.950512170791626,3.66,1.97,0.39,4.17
14.950681209564209,4.28,2.87,-0.4,5.16
14.950850248336792,5.12,3.46,-0.29,6.18
14.95203423500061,4.56,3.75,0.23,5.9
14.961963176727295,4.25,4.46,0.09,6.16
14.972166299819946,4.35,4.67,-0.41,6.39
14.982121229171753,4.41,4.74,-0.65,6.5
14.992124319076538,4.3,5.03,-0.24,6.62
15.002132177352905,4.27,5.17,0.0,6.7
15.050867319107056,4.6,5.45,0.11,7.13
15.051046133041382,4.75,5.75,0.23,7.46
15.051212072372437,4.68,5.72,0.12,7.39
15.051380157470703,4.63,5.42,0.03,7.12
15.052006244659424,4.39,5.11,-0.55,6.75
15.061874151229858,3.6,5.48,-0.91,6.61
15.072033166885376,2.98,6.94,-0.82,7.59
15.081973314285278,2.83,8.26,-1.27,8.82
15.09192419052124,3.38,9.34,-2.19,10.17
15.101892232894897,2.84,10.21,-4.14,11.37
15.151029348373413,0.73,8.87,-6.99,11.31
15.151209115982056,0.78,8.34,-6.48,10.59
15.151376247406006,3.04,8.11,-3.31,9.27
15.151560068130493,6.93,7.49,-1.16,10.26
15.151731252670288,10.96,5.65,0.27,12.33
15.161957025527954,8.29,-0.4,-2.72,8.73
15.171860218048096,2.8,-3.97,-2.94,5.67
15.18185305595398,-0.72,-4.08,-0.99,4.25
15.191769361495972,-1.52,-3.52,-0.56,3.87
15.20186734199524,2.74,-2.82,-2.03,4.42
15.25106930732727,7.42,-2.05,-1.25,7.79
15.251244306564331,10.3,-1.65,0.59,10.44
15.251437187194824,11.41,-1.82,2.62,11.84
15.25160813331604,9.24,-3.34,2.93,10.25
15.251772165298462,5.95,-5.0,1.84,7.98
15.261986255645752,4.45,-5.69,1.28,7.33
15.271734237670898,4.63,-5.33,1.35,7.18
15.281679153442383,4.83,-4.78,1.07,6.87
15.29171633720398,4.63,-4.24,0.69,6.31
15.301637172698975,4.24,-3.65,0.76,5.64
15.311572313308716,3.85,-2.91,1.19,4.97
15.351700067520142,3.73,-2.1,1.57,4.55
15.351881265640259,3.39,-0.94,2.22,4.15
15.352051019668579,3.13,-0.19,2.71,4.14
15.352209329605103,2.89,0.41,2.94,4.14
15.361525297164917,2.76,1.16,3.16,4.35
15.371599197387695,3.14,1.17,2.26,4.04
15.381530046463013,3.3,1.21,0.51,3.55
15.391494035720825,2.09,2.32,-1.55,3.48
15.401591062545776,0.06,4.25,-3.71,5.64
15.411516189575195,-2.59,6.54,-5.79,9.11
15.451471090316772,-6.45,7.57,-7.89,12.69
15.451657056808472,-10.37,6.86,-8.56,15.09
15.451828241348267,-12.56,5.78,-7.2,15.58
15.451993227005005,-13.32,4.86,-5.42,15.17
15.461316347122192,-13.53,3.91,-4.29,14.72
15.471476316452026,-13.29,8.6,-2.9,16.09
15.481330156326294,-11.5,7.84,-6.92,15.54
15.491326093673706,-12.77,-1.03,-12.2,17.69
15.501388311386108,-15.54,-4.22,-3.56,16.49
15.511311292648315,-14.64,-6.71,1.12,16.14
15.55210018157959,-12.09,-6.53,-0.46,13.74
15.552278280258179,-11.13,-3.42,-2.39,11.88
15.552449226379395,-10.95,-1.29,-3.66,11.61
15.55261516571045,-10.99,-1.27,-4.08,11.79
15.56125020980835,-13.36,-0.95,-3.6,13.86
15.571294069290161,-6.81,2.85,-0.74,7.41
15.58125615119934,3.19,7.43,3.28,8.72
15.591217279434204,5.25,8.46,1.81,10.11
15.601193189620972,-3.14,4.98,-3.38,6.78
15.61125922203064,-7.9,0.63,-6.08,9.98
15.652303218841553,-9.55,-1.79,-7.12,12.04
15.652480363845825,-5.01,1.52,-2.3,5.71
15.652647256851196,-1.34,0.95,3.2,3.59
15.652814149856567,-1.54,-1.66,2.89,3.67
15.660974264144897,-2.6,-1.63,-0.63,3.13
15.670983076095581,-2.72,-0.59,-2.23,3.56
15.681080102920532,-1.99,0.34,-1.35,2.42
15.6911301612854,-1.03,0.44,-0.03,1.12
15.701374292373657,-0.25,0.01,0.41,0.48
15.711113214492798,0.19,-0.23,0.24,0.38
15.753369092941284,0.25,-0.14,0.06,0.29
15.753849267959595,0.14,0.01,0.01,0.14
15.754018068313599,0.2,0.07,0.1,0.23
15.75418210029602,0.34,0.1,-0.1,0.36
15.761022329330444,0.48,0.04,-0.76,0.89
15.770999193191528,0.63,0.05,-1.2,1.35
15.780906200408936,0.92,0.3,-1.22,1.55
15.790958166122437,1.25,0.45,-0.91,1.61
15.800990343093872,1.48,0.22,-0.68,1.64
15.810925245285034,1.17,-0.11,-0.86,1.45
15.85386323928833,0.22,-0.09,-1.24,1.26
15.854041337966919,-0.41,0.23,-1.06,1.15
15.854214191436768,-0.52,0.28,-0.3,0.66
15.854381322860718,-0.36,0.08,0.55,0.66
15.860826253890991,-0.22,-0.1,0.83,0.86
15.870924234390259,-0.1,-0.06,0.23,0.25
15.8808753490448,-0.26,0.09,-0.38,0.46
15.89089035987854,-0.52,0.18,-0.49,0.73
15.900789022445679,-0.75,0.08,-0.31,0.81
15.910920143127441,-0.92,0.0,-0.05,0.92
15.953866243362427,-1.21,-0.13,0.0,1.21
15.954048156738281,-1.29,-0.14,0.13,1.3
15.954217195510864,-0.77,0.01,0.09,0.77
15.954385042190552,-0.12,0.18,0.2,0.29
15.960775136947632,0.17,0.15,0.11,0.25
15.970750093460083,0.3,0.01,-0.24,0.38
15.980775117874146,0.45,0.03,-0.39,0.59
15.990678071975708,0.59,0.07,-0.35,0.68
16.000652074813843,0.4,-0.09,-0.42,0.58
16.010602235794067,0.16,-0.09,-0.2,0.27
16.054022073745728,0.08,0.09,0.13,0.17
16.054203271865845,0.09,0.22,0.07,0.24
16.054376363754272,0.28,0.21,-0.29,0.45
16.054545164108276,0.68,0.15,-0.48,0.84
16.06055521965027,1.14,0.11,-0.37,1.2
16.07055926322937,1.5,0.11,-0.25,1.52
16.080573320388794,1.82,0.29,-0.43,1.89
16.090506315231323,1.86,0.55,-0.6,2.03
16.100571155548096,1.62,0.79,-0.51,1.87
16.11049723625183,1.47,0.73,-0.49,1.71
16.15421223640442,1.63,0.6,-0.58,1.83
16.154393196105957,2.14,0.58,-0.59,2.29
16.15456223487854,2.86,0.87,-0.47,3.02
16.154726266860962,3.47,1.37,-0.5,3.76
16.160338163375854,3.87,2.84,-0.31,4.81
16.17048716545105,4.2,3.78,0.0,5.65
16.180440187454224,3.98,3.83,0.04,5.52
16.190399169921875,3.43,4.37,0.5,5.57
16.200369119644165,3.18,4.75,0.55,5.74
16.210346221923828,3.37,4.83,0.41,5.9
16.254805326461792,3.7,4.9,0.36,6.15
16.25497817993164,3.96,4.85,0.59,6.28
16.255142211914062,4.28,4.78,0.72,6.45
16.255309343338013,4.36,4.64,0.64,6.39
16.260229349136353,4.22,4.79,0.39,6.39
16.27037215232849,4.21,4.92,0.09,6.47
16.280318021774292,4.22,4.84,-0.43,6.43
16.290293216705322,3.73,4.66,-1.34,6.11
16.300199270248413,2.95,5.03,-1.7,6.07
16.310197114944458,2.54,6.14,-1.03,6.72
16.355258226394653,1.9,6.95,-0.83,7.25
16.355436086654663,0.83,6.98,-1.77,7.24
16.35560417175293,-0.07,6.77,-4.16,7.94
16.355769157409668,0.31,6.68,-6.13,9.07
16.360167264938354,2.76,7.24,-5.19,9.32
16.37017035484314,4.97,7.36,-3.12,9.41
16.3800151348114,5.83,5.18,-1.47,7.93
16.39006733894348,6.65,2.26,0.1,7.02
16.400130033493042,7.26,-0.88,-0.82,7.35
16.410211324691772,2.57,-3.85,-2.9,5.46
16.455555200576782,-1.84,-3.82,-2.27,4.8
16.455734252929688,-2.26,-2.27,-0.48,3.23
16.45590114593506,2.52,-1.64,-1.94,3.57
16.456072092056274,7.75,-1.75,-1.93,8.17
16.460004091262817,10.79,-1.37,-0.83,10.9
16.470028162002563,12.58,-0.92,0.62,12.62
16.479807138442993,12.1,-1.58,1.6,12.3
16.489970207214355,8.37,-2.9,1.58,8.99
16.499961137771606,5.38,-3.6,1.55,6.65
16.50990605354309,4.32,-3.37,1.43,5.66
16.555858373641968,4.38,-2.5,1.23,5.19
16.556034326553345,4.65,-1.92,0.94,5.11
16.556215047836304,4.53,-1.49,1.02,4.87
16.556380033493042,4.19,-1.1,0.99,4.44
16.55982804298401,3.8,-0.73,0.8,3.95
16.569905042648315,3.3,-0.4,0.71,3.39
16.579647302627563,2.72,-0.04,0.81,2.83
16.58987832069397,2.19,0.33,1.24,2.53
16.59981918334961,1.79,0.59,1.93,2.69
16.60978102684021,1.65,0.48,2.03,2.65
16.65682816505432,1.73,0.26,1.25,2.15
16.657005071640015,1.15,0.63,0.06,1.31
16.65717315673828,-0.19,1.59,-0.5,1.67
16.657342195510864,-1.76,2.69,-0.64,3.27
16.659582376480103,-3.16,3.29,-0.79,4.62
16.669771194458008,-3.87,3.18,-0.93,5.09
16.679768323898315,-4.41,3.23,-0.75,5.51
16.689686059951782,-5.52,3.36,-1.04,6.54
16.699727296829224,-6.75,3.59,-1.84,7.86
16.709606170654297,-8.11,3.79,-2.68,9.34
16.756755113601685,-9.26,6.05,-2.92,11.44
16.75692915916443,-9.5,12.15,-1.9,15.53
16.757100343704224,-8.2,5.42,-10.65,14.49
16.75726628303528,-13.85,1.39,-7.79,15.95
16.759486198425293,-19.63,-1.32,1.32,19.71
16.769856214523315,-20.68,-3.55,2.09,21.08
16.779430150985718,-18.36,-3.79,0.15,18.74
16.78947424888611,-16.11,-2.6,-1.61,16.39
16.79951024055481,-14.78,-1.96,-3.2,15.24
16.809553146362305,-14.18,-0.2,-2.27,14.36
16.85739016532898,-7.26,3.75,1.59,8.32
16.857563257217407,3.56,6.93,3.85,8.69
16.85773015022278,8.37,8.06,1.65,11.73
16.857900142669678,-0.23,4.44,-2.41,5.05
16.859376192092896,-7.97,-0.99,-5.83,9.92
16.869423151016235,-12.09,-1.91,-5.54,13.43
16.879353284835815,-9.55,1.88,0.17,9.73
16.88941216468811,-4.61,1.12,4.5,6.53
16.89944815635681,-2.8,-1.47,3.29,4.56
16.909305334091187,-3.23,-1.66,-0.15,3.63
16.958513021469116,-3.21,-0.11,-1.4,3.5
16.958689212799072,-2.37,1.1,-0.88,2.75
16.95885729789734,-1.34,0.92,-0.06,1.62
16.95902705192566,-0.56,0.08,-0.05,0.56
16.959193229675293,-0.07,-0.28,-0.63,0.69
16.969273328781128,0.48,-0.18,-1.5,1.58
16.97934317588806,1.41,-0.07,-1.97,2.42
16.989275217056274,2.2,0.07,-1.78,2.83
16.999240159988403,2.31,0.19,-1.59,2.81
17.00920605659485,1.69,0.32,-1.59,2.34
17.05833411216736,0.75,0.15,-1.38,1.57
17.058516263961792,-0.11,-0.14,-1.11,1.12
17.058687210083008,-0.49,-0.21,-0.76,0.92
17.05888819694519,-0.27,-0.08,-0.31,0.41
17.059057235717773,-0.04,0.07,0.25,0.26
17.06912112236023,0.0,0.14,0.89,0.9
17.07910132408142,0.13,0.09,1.01,1.02
17.08913016319275,0.28,-0.07,0.58,0.64
17.099106073379517,0.1,0.02,0.07,0.12
17.109073162078857,0.13,0.12,-0.43,0.46
17.159035205841064,0.51,0.14,-0.33,0.62
17.15919518470764,0.39,0.0,-0.33,0.51
17.159366369247437,0.01,-0.17,-0.59,0.61
17.159533262252808,-0.22,-0.07,-0.34,0.41
17.15970015525818,-0.12,0.09,-0.06,0.16
17.16897225379944,0.43,0.1,-0.16,0.46
17.178983211517334,0.66,0.11,-0.47,0.81
17.18896722793579,0.5,0.05,-0.9,1.03
17.199005365371704,0.3,0.03,-1.01,1.05
17.208903074264526,0.32,-0.03,-0.87,0.92
17.258926153182983,0.54,-0.27,-0.92,1.1
17.259106159210205,0.67,-0.74,-0.84,1.3
17.25927424430847,0.89,-0.94,-0.58,1.41
17.259443044662476,0.94,-0.46,-0.43,1.13
17.25960922241211,0.39,0.12,-0.11,0.42
17.268970251083374,-0.4,0.29,0.43,0.65
17.278878211975098,-1.13,0.6,0.74,1.47
17.28894019126892,-1.6,0.81,0.68,1.91
17.29878306388855,-1.2,0.63,1.08,1.73
17.308786153793335,-0.49,0.64,0.63,1.02
17.359442234039307,0.25,0.57,-0.46,0.77
17.35961413383484,1.05,0.44,-0.99,1.5
17.359764337539673,1.73,0.29,-0.99,2.01
17.35992932319641,2.17,0.3,-0.55,2.25
17.360093355178833,2.32,0.45,-0.15,2.36
17.36880922317505,2.57,0.59,-0.12,2.63
17.378661155700684,2.91,0.64,0.07,2.98
17.388705253601074,3.55,0.5,0.26,3.59
17.398717164993286,4.18,0.73,0.35,4.25
17.40874409675598,4.37,1.77,-0.33,4.72
17.460045099258423,5.18,4.11,-1.27,6.73
17.460219144821167,4.94,4.09,-0.73,6.45
17.460386037826538,4.36,3.86,0.31,5.83
17.46055006980896,4.3,4.51,0.78,6.28
17.460713148117065,4.35,4.87,0.59,6.55
17.468645334243774,4.24,4.69,0.02,6.32
17.47845721244812,4.19,4.86,-0.16,6.41
17.48842716217041,4.23,5.44,0.0,6.89
17.498478174209595,4.75,5.67,-0.29,7.4
17.508419275283813,5.44,5.48,-0.56,7.74
17.560187101364136,5.58,5.15,-0.32,7.6
17.56035614013672,5.3,5.45,-0.26,7.6
17.560524225234985,4.84,5.68,-0.88,7.51
17.560689210891724,3.35,5.6,-2.07,6.84
17.560853242874146,1.88,6.44,-1.82,6.95
17.568247079849243,1.37,7.45,-0.56,7.59
17.578264236450195,0.48,7.5,-0.29,7.52
17.588367223739624,-1.17,6.61,-2.32,7.1
17.598417043685913,-1.55,6.3,-4.67,7.99
17.608206033706665,0.84,7.02,-3.86,8.05
17.660579204559326,4.21,7.14,-2.16,8.56
17.660759210586548,8.14,6.35,0.53,10.33
17.660929203033447,10.69,3.57,1.81,11.41
17.661096334457397,8.93,-1.39,-0.66,9.06
17.661259174346924,6.26,-2.9,-1.97,7.17
17.66832423210144,2.2,-1.93,-3.95,4.91
17.678211212158203,-3.35,-0.75,-2.15,4.05
17.688245058059692,-4.38,-1.64,-0.98,4.77
17.69809603691101,2.98,-1.98,-3.47,4.98
17.70824408531189,9.29,-1.34,-3.34,9.96
17.76177716255188,12.06,-0.64,-0.6,12.09
17.761959314346313,13.21,-0.92,1.78,13.36
17.762128114700317,12.38,-1.74,3.62,13.01
17.762293100357056,9.09,-2.97,3.26,10.1
17.76245903968811,6.68,-3.42,2.02,7.77
17.768797159194946,5.48,-2.98,1.56,6.42
17.77814221382141,4.31,-2.67,1.28,5.22
17.788138151168823,3.36,-2.93,0.61,4.49
17.79800009727478,3.06,-3.15,0.2,4.39
17.808143138885498,2.97,-2.8,0.75,4.15
17.861441373825073,2.32,-1.5,2.01,3.41
17.861618280410767,1.57,-0.25,2.85,3.26
17.861785173416138,1.11,0.21,3.07,3.27
17.861947298049927,0.94,0.54,3.45,3.61
17.862109184265137,1.03,1.2,4.23,4.51
17.868037223815918,1.52,2.14,4.59,5.28
17.877966165542603,1.83,2.64,3.16,4.5
17.888041257858276,0.85,2.88,0.22,3.01
17.8977952003479,-0.32,3.56,-1.6,3.91
17.907865285873413,-1.51,5.17,-1.83,5.68
17.96272921562195,-3.83,7.04,-2.2,8.31
17.96290612220764,-7.69,6.91,-3.31,10.85
17.963078260421753,-11.22,5.77,-3.79,13.17
17.963247060775757,-12.41,5.19,-2.91,13.76
17.963414192199707,-12.24,9.4,-1.12,15.47
17.967873334884644,-10.88,11.3,-3.58,16.08
17.977816343307495,-12.92,2.19,-12.11,17.84
17.987842321395874,-18.62,-1.01,-7.61,20.14
17.997677087783813,-19.0,-3.38,-2.31,19.43
18.007810354232788,-16.73,-5.48,-2.08,17.72
18.062881231307983,-14.49,-5.45,-3.75,15.92
18.06306219100952,-13.45,-3.98,-5.99,15.25
18.0632381439209,-13.77,-3.63,-7.4,16.04
18.063404321670532,-14.28,-2.32,-6.11,15.7
18.063576221466064,-8.01,1.38,-2.57,8.52
18.067740201950073,1.57,6.73,2.52,7.35
18.07766604423523,6.78,11.33,5.32,14.23
18.087687253952026,-1.68,7.07,1.77,7.47
18.097482204437256,-9.66,-1.3,-4.02,10.54
18.107670068740845,-11.15,-3.73,-5.87,13.14
18.162649154663086,-5.99,0.58,-2.08,6.36
18.162830114364624,-2.17,1.08,2.59,3.54
18.163002252578735,-1.71,-1.36,3.31,3.96
18.163167238235474,-1.95,-1.85,1.24,2.96
18.163334131240845,-1.97,-0.71,-0.2,2.1
18.16760516166687,-1.78,0.54,-0.69,1.98
18.177534341812134,-1.0,0.93,-0.75,1.55
18.187517166137695,0.16,0.65,-0.71,0.97
18.19757318496704,0.69,0.38,-1.02,1.28
18.20758318901062,0.42,0.1,-1.71,1.76
18.263378143310547,0.43,0.21,-1.91,1.96
18.263559103012085,0.61,0.43,-1.48,1.65
18.263736248016357,0.36,0.26,-1.29,1.36
18.264217138290405,-0.08,0.16,-1.05,1.06
18.264385223388672,-0.73,0.19,-0.63,0.98
18.267438173294067,-0.86,0.15,-0.35,0.94
18.27734923362732,-0.55,0.01,-0.13,0.56
18.28752636909485,-0.33,-0.19,0.14,0.4
18.297622203826904,-0.13,-0.01,0.53,0.54
18.307257175445557,0.01,0.16,0.84,0.85
18.364142179489136,0.13,0.12,0.36,0.4
18.364293336868286,0.13,0.14,-0.46,0.49
18.364457368850708,-0.08,0.18,-0.89,0.91
18.36462116241455,-0.67,0.06,-0.9,1.12
18.364768266677856,-1.14,0.06,-0.27,1.17
18.367194175720215,-1.24,0.0,0.03,1.24
18.37721014022827,-0.96,-0.11,-0.45,1.06
18.387160062789917,-0.48,0.01,-0.69,0.84
18.397154092788696,-0.08,0.1,-0.67,0.68
18.407125234603882,0.12,0.11,-0.58,0.6
18.464195251464844,0.26,0.09,-0.52,0.58
18.46437120437622,0.33,0.04,-0.47,0.57
18.46453833580017,0.3,-0.02,-0.44,0.53
18.46468710899353,0.3,-0.05,-0.46,0.55
18.464851140975952,0.36,-0.14,-0.57,0.68
18.467064142227173,0.4,-0.13,-0.49,0.64
18.477025270462036,0.28,-0.11,-0.29,0.41
18.48695731163025,0.16,0.0,-0.08,0.17
18.496995210647583,0.13,0.15,0.09,0.21
18.506985187530518,0.19,0.26,0.07,0.32
18.564481019973755,0.29,0.36,-0.12,0.47
18.56465721130371,0.3,0.41,-0.31,0.59
18.564825296401978,0.51,0.48,-0.53,0.87
18.564990282058716,0.9,0.57,-0.69,1.26
18.56515336036682,1.33,0.56,-0.9,1.7
18.566965341567993,1.62,0.49,-1.0,1.96
18.576890230178833,1.86,0.41,-0.63,2.0
18.5869882106781,2.08,0.4,-0.03,2.11
18.59694814682007,2.24,0.53,0.43,2.34
18.606892347335815,2.5,0.82,0.53,2.68
18.66425323486328,3.05,1.19,0.28,3.28
18.66442608833313,3.88,1.78,0.03,4.26
18.66459631919861,5.07,2.65,-0.06,5.72
18.664761304855347,5.79,2.9,-0.24,6.48
18.66492533683777,6.01,3.46,-0.34,6.94
18.666868209838867,5.53,3.94,0.1,6.79
18.676817178726196,4.55,4.08,0.44,6.12
18.686882257461548,4.05,4.35,0.08,5.94
18.69682002067566,4.19,4.52,-0.4,6.17
18.70674204826355,4.17,4.71,-0.45,6.3
18.76469922065735,4.27,5.22,-0.13,6.74
18.76487708091736,4.65,5.26,-0.05,7.02
18.76504635810852,4.92,5.32,-0.02,7.24
18.765194177627563,5.14,4.96,-0.02,7.14
18.76535725593567,5.12,4.72,-0.15,6.96
18.766640186309814,4.68,5.27,-0.75,7.08
18.776759147644043,3.45,6.08,-1.57,7.16
18.786729097366333,2.56,7.38,-1.55,7.96
18.796691179275513,2.34,8.33,-1.52,8.78
18.80663824081421,1.83,8.58,-1.92,8.98
18.865552186965942,0.03,7.72,-3.66,8.54
18.865740060806274,-1.28,6.78,-5.38,8.74
18.86590814590454,-0.83,6.42,-3.76,7.48
18.866077184677124,1.98,6.55,-1.09,6.92
18.866270303726196,6.42,6.35,1.3,9.12
18.866573095321655,8.69,3.51,2.24,9.63
18.876546144485474,7.07,-2.22,-0.15,7.41
18.886555194854736,3.94,-4.3,-1.32,5.97
18.896485090255737,1.5,-3.41,-2.47,4.46
18.90655016899109,-0.14,-1.81,-1.84,2.58
18.96623420715332,2.1,-1.76,-2.91,3.99
18.96641707420349,7.16,-1.54,-3.23,8.0
18.966588258743286,10.45,-0.87,-2.07,10.68
18.96675419807434,12.35,-0.82,-0.07,12.37
18.966920137405396,12.08,-1.77,2.24,12.41
18.967084169387817,8.66,-3.09,2.73,9.59
18.976393222808838,5.69,-3.65,1.98,7.04
18.986473321914673,4.69,-3.76,1.42,6.17
18.996354341506958,4.9,-3.52,1.25,6.16
19.00639820098877,4.94,-3.13,1.29,5.98
19.06553626060486,4.43,-2.48,1.1,5.19
19.06571316719055,3.55,-1.4,0.7,3.87
19.06588125228882,2.46,-0.46,-0.08,2.5
19.066079139709473,1.41,0.3,-0.76,1.62
19.066243171691895,0.91,0.65,-0.79,1.36
19.066405057907104,0.89,0.86,0.07,1.23
19.076296091079712,0.65,0.88,0.92,1.42
19.08629536628723,0.32,0.67,0.39,0.83
19.09625506401062,0.39,0.44,-0.98,1.14
19.106274366378784,-0.06,1.02,-2.11,2.34
19.166365146636963,-1.15,2.18,-2.76,3.7
19.1665461063385,-2.45,3.07,-3.51,5.26
19.16671633720398,-3.72,3.46,-4.14,6.55
19.166881322860718,-4.77,3.57,-3.99,7.17
19.16704535484314,-5.92,3.24,-3.23,7.48
19.167209148406982,-7.12,3.3,-3.2,8.47
19.176175355911255,-8.37,3.52,-4.66,10.2
19.186169147491455,-10.1,6.55,-5.72,13.32
19.196129083633423,-10.48,11.17,-5.8,16.37
19.206106185913086,-9.47,5.23,-13.37,17.19
19.26718306541443,-15.29,1.5,-7.95,17.29
19.267365217208862,-19.11,-2.16,1.42,19.28
19.267539262771606,-18.15,-5.17,4.84,19.48
19.267688035964966,-14.05,-5.17,2.8,15.23
19.2678542137146,-11.98,-2.76,0.19,12.29
19.26801824569702,-10.44,-1.42,-1.67,10.66
19.276007175445557,-9.03,0.0,-0.98,9.08
19.28628420829773,-10.65,1.85,1.22,10.87
19.2958562374115,-5.99,3.25,2.72,7.33
19.305864095687866,3.22,2.48,3.55,5.39
19.367777109146118,4.53,1.84,3.16,5.82
19.367963075637817,-4.65,2.81,0.63,5.46
19.368130207061768,-9.84,3.52,-1.81,10.6
19.36829924583435,-9.92,0.62,-6.42,11.83
19.36846613883972,-9.24,1.27,-7.26,11.81
19.368630170822144,-4.38,4.21,-0.15,6.07
19.375814199447632,-0.9,1.16,3.98,4.24
19.385809183120728,-0.8,-2.25,1.55,2.84
19.395803213119507,-1.99,-2.46,-1.76,3.62
19.405766248703003,-2.21,-0.69,-2.48,3.39
19.468132257461548,-1.78,0.63,-1.29,2.28
19.468311071395874,-1.07,0.55,-0.07,1.2
19.468478202819824,-0.41,-0.05,0.04,0.41
19.468648195266724,0.04,-0.26,-0.48,0.54
19.468812227249146,0.4,-0.06,-0.86,0.95
19.468977212905884,0.9,0.24,-0.89,1.28
19.47579026222229,1.25,0.36,-0.78,1.51
19.48575520515442,1.01,0.23,-0.62,1.2
19.495691061019897,0.04,-0.19,-0.76,0.78
19.505730152130127,-0.65,-0.24,-1.37,1.53
19.568506240844727,-0.65,0.22,-1.64,1.77
19.56868314743042,-0.72,0.38,-1.0,1.28
19.568851232528687,-0.85,0.2,-0.26,0.91
19.569016218185425,-0.29,0.14,-0.28,0.42
19.569181203842163,0.12,0.11,-0.54,0.56
19.56934428215027,0.13,0.06,-0.46,0.48
19.575498342514038,0.13,0.01,0.16,0.2
19.58556318283081,0.06,-0.09,0.83,0.83
19.595511198043823,-0.1,-0.15,0.66,0.68
19.605536222457886,-0.28,-0.02,-0.07,0.28
19.668761253356934,-0.54,0.1,-0.5,0.74
19.668941259384155,-0.77,0.11,-0.4,0.87
19.669111251831055,-0.8,0.03,-0.05,0.8
19.669281244277954,-0.56,-0.09,0.22,0.6
19.669445276260376,-0.33,-0.21,0.1,0.4
19.669610261917114,-0.2,-0.08,-0.02,0.21
19.67538022994995,0.03,0.07,0.05,0.09
19.685455083847046,0.18,0.05,-0.25,0.31
19.695324182510376,0.28,0.09,-0.35,0.45
19.705430269241333,0.3,0.17,-0.4,0.52
19.7686550617218,0.23,0.12,-0.45,0.51
19.768830060958862,0.09,0.06,-0.38,0.39
19.768973112106323,0.08,0.04,-0.38,0.39
19.769139051437378,0.24,0.02,-0.59,0.63
19.7693030834198,0.56,0.08,-0.77,0.95
19.769466161727905,0.87,0.24,-0.48,1.02
19.775217294692993,0.78,0.37,-0.26,0.9
19.785130262374878,0.78,0.43,-0.22,0.91
19.79511332511902,1.07,0.47,-0.19,1.18
19.80516028404236,1.56,0.49,-0.19,1.64
19.869056224822998,2.0,0.44,-0.4,2.08
19.869222164154053,2.45,0.3,-0.59,2.53
19.869384050369263,3.03,0.51,0.0,3.07
19.869550228118896,3.58,0.63,0.58,3.68
19.869715213775635,4.13,0.68,0.55,4.22
19.86987614631653,4.36,1.01,0.16,4.47
19.875155210494995,4.28,2.37,-0.51,4.91
19.88513422012329,4.77,5.22,-1.1,7.15
19.895111322402954,4.28,4.8,-0.01,6.43
19.90515422821045,3.49,3.96,0.88,5.35
19.915032148361206,3.3,4.68,0.31,5.73
19.97000217437744,3.12,4.61,-0.31,5.57
19.970163106918335,3.12,4.31,-0.15,5.32
19.9703311920166,3.26,4.52,0.34,5.58
19.970500230789185,3.93,5.23,0.49,6.56
19.970664262771606,4.41,4.83,0.32,6.54
19.975006341934204,4.44,4.57,0.23,6.37
19.98499035835266,4.49,4.89,-0.05,6.63
19.99495816230774,3.92,5.01,-0.65,6.39
20.004950284957886,2.93,5.27,-0.97,6.1
20.01494336128235,2.21,6.35,-1.42,6.87
20.06913924217224,1.84,7.95,-1.66,8.32
20.069318056106567,1.89,8.61,-1.69,8.97
20.069489240646362,1.57,8.55,-2.84,9.14
20.069656133651733,0.84,8.86,-3.99,9.75
20.069820165634155,0.28,8.05,-5.51,9.75
20.0748393535614,2.04,7.27,-4.53,8.8
20.084808111190796,4.46,6.8,-1.98,8.36
20.094808340072632,8.53,6.82,0.26,10.92
20.10479235649109,8.7,2.51,-0.24,9.05
20.114694356918335,5.49,-2.2,-1.87,6.2
20.169445276260376,1.04,-2.7,-1.91,3.46
20.16964602470398,-1.45,-1.46,-2.23,3.03
20.169824361801147,-0.93,-0.97,-2.48,2.82
20.16999316215515,4.48,-1.22,-3.16,5.61
20.170162200927734,9.56,-0.6,-1.93,9.77
20.174769163131714,12.55,0.3,0.42,12.56
20.184791326522827,13.57,0.56,3.23,13.96
20.19475221633911,10.96,-1.06,3.97,11.7
20.204742193222046,6.94,-2.7,2.43,7.83
20.214598178863525,4.95,-3.43,1.64,6.24
20.270621061325073,4.65,-3.07,1.98,5.91
20.270807027816772,4.64,-2.4,1.92,5.56
20.270975351333618,4.13,-2.03,1.61,4.87
20.271141290664673,3.55,-1.89,1.28,4.22
20.271308183670044,2.81,-1.73,1.14,3.49
20.274593114852905,2.23,-1.44,1.44,3.01
20.284594297409058,2.05,-1.26,2.07,3.17
20.294494152069092,1.99,-1.05,2.78,3.57
20.304420232772827,1.75,-0.83,3.46,3.96
20.314455270767212,1.9,-1.06,3.79,4.37
20.370394229888916,2.62,-1.19,3.14,4.25
20.37057137489319,2.24,-0.62,1.53,2.78
20.370742082595825,0.29,0.16,-0.32,0.46
20.370906114578247,-2.22,1.08,-1.63,2.95
20.371069192886353,-4.86,1.84,-2.64,5.82
20.374410152435303,-6.78,2.32,-3.15,7.82
20.38449501991272,-7.88,2.57,-2.93,8.79
20.394484281539917,-9.25,2.86,-2.63,10.03
20.404402256011963,-11.61,2.73,-3.19,12.34
20.414387226104736,-14.28,2.54,-4.1,15.07
20.47103214263916,-16.54,2.5,-4.62,17.35
20.471224069595337,-17.8,1.7,-4.36,18.4
20.471394300460815,-16.88,-0.03,-3.68,17.27
20.47156310081482,-14.71,-2.08,-3.43,15.24
20.47172713279724,-13.62,-4.09,-3.31,14.6
20.4742591381073,-14.43,1.51,-1.06,14.54
20.484273195266724,-13.57,6.19,-3.55,15.33
20.494238138198853,-10.78,-3.08,-11.3,15.91
20.50429129600525,-7.81,-2.51,-2.38,8.54
20.514201164245605,1.63,0.82,6.74,6.98
20.571291208267212,9.47,5.19,10.95,15.37
20.571470022201538,10.41,11.28,9.02,17.8
20.571638345718384,1.03,11.86,-1.52,12.0
20.571802139282227,-13.17,5.06,-14.3,20.08
20.571965217590332,-18.56,2.91,-12.47,22.54
20.574424028396606,-11.11,3.28,2.96,11.95
20.584091186523438,-4.6,-2.3,10.35,11.55
20.594166040420532,-3.8,-7.8,5.49,10.26
20.65445113182068,-2.98,-6.39,-0.31,7.05
20.654637098312378,-2.47,-2.12,-2.6,4.16
20.65480923652649,-2.48,1.62,-2.83,4.09
20.654985189437866,-1.68,2.85,-2.99,4.45
20.655152082443237,-0.29,2.15,-4.2,4.72
20.655319213867188,0.76,1.34,-4.9,5.13
20.66405415534973,1.35,0.97,-3.94,4.27
20.67400813102722,1.74,0.7,-1.37,2.32
20.684012174606323,1.55,-0.1,1.03,1.86
20.693970203399658,0.91,-0.75,1.62,2.0
20.755882024765015,0.31,-0.46,0.66,0.86
20.756062269210815,0.03,-0.05,-0.67,0.67
20.756234169006348,-0.05,0.02,-1.02,1.02
20.756399154663086,0.02,0.1,-0.45,0.46
20.756561040878296,0.35,0.14,0.0,0.37
20.7567241191864,0.62,-0.04,-0.16,0.64
20.76390314102173,0.55,-0.1,-0.39,0.68
20.77391028404236,0.24,-0.15,-0.52,0.59
20.783773183822632,-0.25,-0.15,-0.54,0.61
20.79385733604431,-0.59,-0.07,-0.09,0.6
20.856375217437744,-0.54,0.07,0.58,0.79
20.85655426979065,-0.2,0.06,0.73,0.75
20.856725215911865,0.13,0.11,0.37,0.4
20.856889247894287,0.01,0.18,0.1,0.2
20.857057332992554,-0.44,0.17,-0.07,0.47
20.85722017288208,-0.6,0.18,0.18,0.65
20.863980054855347,-0.5,0.11,0.06,0.51
20.873735189437866,-0.44,-0.06,-0.25,0.5
20.88348937034607,-0.34,-0.01,-0.06,0.34
20.89367413520813,-0.14,0.05,-0.08,0.16
20.956257104873657,-0.02,0.11,-0.24,0.26
20.956440210342407,-0.03,0.06,-0.27,0.27
20.95661234855652,-0.07,-0.07,-0.17,0.19
20.95677614212036,0.06,-0.19,0.0,0.19
20.956942319869995,0.35,-0.24,0.08,0.43
20.957109212875366,0.59,-0.13,0.18,0.63
20.963611364364624,0.66,0.01,-0.03,0.66
20.973623037338257,0.63,0.19,-0.38,0.75
20.983394145965576,0.67,0.4,-0.63,1.0
20.993526220321655,0.62,0.53,-0.74,1.1
21.0563223361969,0.72,0.55,-0.54,1.05
21.056504249572754,1.03,0.59,-0.39,1.24
21.056673288345337,1.29,0.67,-0.43,1.51
21.056840181350708,1.55,0.74,-0.24,1.73
21.057003259658813,1.78,0.8,-0.15,1.95
21.057165145874023,1.86,0.91,-0.26,2.08
21.063448190689087,2.11,1.18,-0.16,2.42
21.07349920272827,2.6,1.42,0.3,2.97
21.083190202713013,3.18,1.56,0.72,3.61
21.09351921081543,3.6,1.9,0.63,4.11
21.157013177871704,4.14,3.02,-0.32,5.13
21.157191038131714,4.45,3.87,-1.0,5.98
21.157356023788452,3.25,4.31,0.11,5.39
21.157520055770874,2.4,4.62,0.27,5.21
21.157682180404663,2.5,4.41,0.0,5.06
21.15784525871277,2.93,4.0,-0.24,4.96
21.16325616836548,3.39,3.95,-0.16,5.2
21.17331624031067,3.8,4.32,-0.22,5.75
21.183136224746704,4.23,4.88,-0.32,6.46
21.193334341049194,4.64,4.89,-0.5,6.75
21.257482290267944,4.94,4.37,-0.53,6.61
21.25765824317932,5.57,4.05,-0.16,6.88
21.257822275161743,6.14,3.98,-0.19,7.31
21.25799012184143,6.11,4.46,-0.56,7.58
21.25815224647522,5.51,5.51,-1.02,7.85
21.258313179016113,4.75,6.9,-1.34,8.48
21.26314616203308,4.62,8.15,-2.46,9.68
21.273142099380493,4.02,9.67,-3.46,11.02
21.283279180526733,1.78,9.84,-5.06,11.2
21.29317617416382,-0.8,8.29,-6.94,10.84
21.358309030532837,-0.77,8.12,-5.18,9.66
21.35849118232727,3.45,8.72,-0.36,9.38
21.35865807533264,4.49,4.9,0.47,6.66
21.358821153640747,3.02,-0.18,0.93,3.16
21.358984231948853,4.02,-1.93,2.26,4.99
21.359150171279907,2.23,-1.58,-0.45,2.76
21.363022089004517,-1.41,-1.49,-2.63,3.33
21.373075246810913,-1.12,-1.14,-3.18,3.55
21.383239030838013,4.07,-1.25,-4.43,6.14
21.393020153045654,8.73,-0.88,-4.45,9.83
21.458301305770874,11.7,-0.48,-2.92,12.06
21.458479166030884,13.31,-1.03,-0.05,13.34
21.458648204803467,12.37,-2.76,2.29,12.87
21.45881223678589,8.56,-4.72,2.5,10.08
21.4589741230011,5.78,-5.31,2.02,8.1
21.459136247634888,5.45,-4.31,1.67,7.14
21.462918043136597,4.92,-3.44,1.21,6.12
21.472843170166016,4.14,-3.09,1.03,5.26
21.482840299606323,4.16,-3.26,0.75,5.33
21.49285316467285,3.93,-3.04,1.13,5.09
21.558656215667725,3.28,-2.47,1.39,4.33
21.558834314346313,2.56,-2.16,1.18,3.55
21.559003114700317,2.17,-2.13,0.95,3.18
21.5591721534729,1.69,-1.32,1.23,2.47
21.559335231781006,1.09,0.34,2.03,2.32
21.55950903892517,0.55,2.1,2.84,3.57
21.56269907951355,0.11,2.89,2.83,4.04
21.572766065597534,-0.57,2.5,1.93,3.2
21.582666158676147,-1.3,2.02,0.49,2.45
21.592751264572144,-0.86,3.31,-1.29,3.65
21.65964436531067,-1.98,5.13,-2.96,6.24
21.659815073013306,-4.25,6.91,-4.11,9.09
21.659998178482056,-7.12,6.72,-4.88,10.93
21.66016125679016,-9.86,5.06,-4.22,11.85
21.66032910346985,-10.68,3.86,-2.59,11.64
21.660523176193237,-11.12,2.7,-1.28,11.51
21.662564039230347,-11.96,5.46,-0.78,13.17
21.67269206047058,-11.12,8.79,-2.74,14.43
21.682587146759033,-10.72,1.37,-10.48,15.05
21.69261622428894,-14.56,-1.02,-5.84,15.72
21.760449171066284,-16.78,-3.3,-0.55,17.11
21.760635137557983,-16.58,-4.99,-0.67,17.32
21.760807275772095,-15.07,-4.38,-3.1,15.99
21.760977029800415,-16.02,-2.72,-4.66,16.9
21.761142253875732,-15.09,0.56,-3.28,15.45
21.76130509376526,-4.95,3.77,-0.17,6.22
21.762554168701172,3.14,6.98,4.5,8.87
21.772387266159058,3.76,9.08,4.41,10.77
21.78238606452942,-3.75,6.9,-2.54,8.25
21.792373180389404,-9.69,2.65,-4.77,11.12
21.860592126846313,-7.69,-0.94,-1.11,7.82
21.860775232315063,-5.17,-2.57,0.94,5.84
21.860944032669067,-5.77,-2.16,-0.81,6.21
21.861111164093018,-4.43,0.32,-0.46,4.46
21.86127734184265,-2.69,0.96,0.47,2.89
21.86144232749939,-2.35,0.11,0.13,2.35
21.86229109764099,-2.07,-0.54,-0.56,2.21
21.872271299362183,-1.56,-0.4,-1.1,1.95
21.88226628303528,-0.75,0.15,-1.16,1.38
21.89219617843628,-0.04,0.32,-1.0,1.05
21.96138024330139,0.42,0.23,-1.15,1.24
21.9615581035614,0.75,0.17,-1.45,1.64
21.961743116378784,0.85,0.29,-1.52,1.76
21.961918115615845,0.77,0.34,-1.31,1.55
21.96208119392395,0.47,0.25,-0.93,1.07
21.962244272232056,-0.04,0.15,-0.58,0.6
21.96240735054016,-0.56,0.07,-0.57,0.8
21.972219228744507,-1.02,0.06,-0.84,1.32
21.98213028907776,-1.1,0.18,-0.89,1.42
21.992247343063354,-0.85,0.21,-0.56,1.03
22.06074619293213,-0.65,0.07,-0.1,0.66
22.0609233379364,-0.53,-0.05,0.26,0.59
22.061090230941772,-0.45,0.0,0.45,0.63
22.06125807762146,-0.28,0.05,0.34,0.44
22.06142020225525,-0.06,0.01,0.09,0.1
22.061583280563354,0.15,-0.05,-0.18,0.23
22.061963319778442,0.24,0.01,-0.31,0.39
22.07206416130066,0.43,0.1,-0.38,0.58
22.081956148147583,0.6,0.07,-0.45,0.75
22.09204936027527,0.55,-0.08,-0.44,0.7
22.16130805015564,0.33,-0.02,-0.28,0.43
22.161518335342407,0.47,-0.1,-0.21,0.52
22.161692142486572,0.79,-0.22,-0.02,0.82
22.161861181259155,0.89,-0.25,-0.11,0.93
22.162028074264526,0.92,-0.17,-0.48,1.05
22.162195205688477,0.63,0.03,-0.46,0.78
22.1623592376709,0.31,0.16,0.12,0.36
22.171879053115845,0.33,0.08,0.64,0.72
22.181881189346313,0.36,0.03,0.72,0.8
22.191901206970215,0.21,-0.03,0.14,0.25
22.261736154556274,0.06,-0.06,-0.35,0.36
22.261919260025024,-0.17,0.05,-0.44,0.47
22.262096166610718,-0.48,0.16,-0.53,0.73
22.262270212173462,-0.6,0.24,-0.43,0.77
22.2624192237854,-0.6,0.28,-0.37,0.75
22.262583255767822,-0.49,0.23,-0.44,0.69
22.262747049331665,-0.11,0.24,-0.34,0.43
22.271806240081787,0.42,0.15,-0.27,0.52
22.28173518180847,0.76,-0.07,-0.23,0.79
22.29174518585205,1.04,-0.19,-0.13,1.06
22.361393213272095,1.4,-0.12,-0.1,1.4
22.36157536506653,1.65,0.13,-0.02,1.65
22.3617422580719,1.82,0.34,-0.06,1.85
22.36190915107727,1.99,0.44,-0.13,2.04
22.362072229385376,2.55,0.46,0.04,2.59
22.36223316192627,3.4,0.51,0.3,3.45
22.362399339675903,3.66,0.64,0.01,3.71
22.3715660572052,3.63,1.04,-0.47,3.8
22.381627321243286,3.46,1.9,-0.37,3.96
22.391634225845337,2.81,2.52,-0.75,3.84
22.4616801738739,2.25,2.94,-1.16,3.87
22.461865186691284,2.21,3.41,-0.27,4.07
22.46203923225403,1.99,3.83,0.89,4.4
22.462209224700928,2.57,3.68,-0.64,4.53
22.46237325668335,3.35,4.38,-1.03,5.6
22.462539196014404,3.36,4.75,0.33,5.82
22.462701082229614,3.9,4.3,-0.02,5.8
22.471452236175537,4.27,4.01,-0.17,5.86
22.481428146362305,4.47,3.88,-0.21,5.92
22.491475343704224,4.59,3.94,-0.13,6.05
22.562034368515015,4.96,4.11,0.06,6.44
22.56221032142639,5.1,4.32,-0.06,6.68
22.562361240386963,5.14,4.67,-0.06,6.94
22.562509298324585,4.91,5.37,-0.06,7.27
22.56267237663269,4.44,5.91,-0.51,7.4
22.56283402442932,4.08,6.44,-0.46,7.63
22.562998056411743,4.09,6.68,-1.13,7.91
22.57174515724182,4.34,7.43,-2.82,9.05
22.581313371658325,4.24,10.26,-2.67,11.41
22.591329336166382,1.17,9.62,-3.63,10.34
22.66180729866028,-3.62,6.54,-6.1,9.64
22.661993265151978,-2.34,6.9,-4.08,8.35
22.66216206550598,8.25,12.08,1.2,14.67
22.66232919692993,8.36,6.11,-2.27,10.6
22.662495374679565,3.46,-3.61,-4.95,7.03
22.66266131401062,7.4,-1.99,1.87,7.88
22.66282820701599,2.34,-3.39,1.79,4.49
22.671131372451782,-0.83,-2.69,-1.5,3.18
22.681125164031982,-1.29,-1.01,-1.78,2.41
22.69119429588318,2.22,-1.11,-1.6,2.95
22.76265025138855,7.41,-0.3,-2.41,7.79
22.762829065322876,10.58,0.23,-2.0,10.76
22.763001203536987,11.56,-0.49,0.0,11.57
22.76316809654236,10.23,-2.23,2.24,10.7
22.76333212852478,7.32,-3.63,2.72,8.61
22.763496160507202,5.57,-3.48,2.32,6.96
22.76365828514099,4.92,-2.52,1.56,5.74
22.77100110054016,4.75,-2.03,1.12,5.28
22.78101921081543,4.36,-2.17,1.25,5.02
22.791025161743164,3.97,-2.32,1.49,4.83
22.862542152404785,3.26,-2.11,2.13,4.42
22.862719297409058,3.2,-2.22,2.4,4.57
22.862887144088745,3.34,-2.13,2.6,4.73
22.863052129745483,3.11,-1.4,2.95,4.5
22.863214254379272,2.21,0.0,3.57,4.19
22.863375186920166,1.15,0.89,3.27,3.57
22.863539218902588,0.25,1.04,2.24,2.48
22.870965242385864,-0.48,0.7,0.87,1.21
22.8808753490448,-1.01,0.54,-0.46,1.23
22.890913248062134,-1.41,0.95,-1.6,2.33
22.96243929862976,-2.45,1.82,-2.73,4.09
22.962705373764038,-4.07,2.89,-3.45,6.06
22.96291422843933,-6.49,3.21,-3.89,8.21
22.96314525604248,-9.17,2.74,-3.97,10.36
22.96335005760193,-10.91,2.54,-4.17,11.95
22.963515043258667,-11.75,2.56,-4.82,12.95
22.963678121566772,-12.18,4.36,-4.88,13.82
22.970771074295044,-10.28,9.35,-3.49,14.32
22.98071312904358,-8.76,3.26,-10.31,13.91
22.99082112312317,-11.72,0.3,-9.69,15.21
23.000676155090332,-15.78,-0.85,-4.95,16.55
23.062719106674194,-20.45,-2.77,-2.98,20.85
23.0628981590271,-21.62,-3.6,-2.15,22.02
23.06306529045105,-19.72,-3.45,-2.24,20.14
23.063230276107788,-16.97,-0.56,0.18,16.98
23.063396215438843,-7.2,3.34,2.39,8.28
23.06356120109558,2.48,6.89,6.34,9.68
23.070638179779053,6.55,6.96,4.19,10.43
23.08052134513855,4.64,4.03,-3.57,7.1
23.090582132339478,-2.99,0.81,-5.32,6.15
23.100484132766724,-5.3,-0.84,-1.8,5.66
23.162833213806152,-7.71,-2.94,-2.15,8.52
23.163013219833374,-8.72,-0.5,-0.74,8.76
23.163183212280273,-4.25,1.76,1.09,4.72
23.16335129737854,-1.91,0.55,1.22,2.33
23.16351628303528,-1.12,-0.91,-0.15,1.45
23.163706064224243,-0.78,-0.62,-1.48,1.78
23.170436143875122,-0.52,0.36,-2.03,2.12
23.18041729927063,-0.16,0.76,-1.91,2.06
23.19042706489563,-0.07,0.58,-1.25,1.37
23.200358152389526,-0.05,0.35,-0.71,0.79
23.26354432106018,-0.03,0.2,-0.63,0.66
23.26372718811035,-0.11,0.06,-0.85,0.85
23.263878107070923,-0.31,0.06,-0.89,0.94
23.264045238494873,-0.49,0.07,-0.58,0.76
23.264209032058716,-0.6,0.09,-0.32,0.68
23.264373064041138,-0.61,0.13,-0.31,0.69
23.270324230194092,-0.54,0.08,-0.28,0.61
23.280242204666138,-0.42,-0.02,-0.05,0.42
23.29034924507141,-0.31,-0.1,0.1,0.34
23.300161123275757,-0.25,0.03,-0.04,0.25
23.363607168197632,-0.2,0.07,-0.46,0.5
23.363787174224854,-0.14,0.14,-0.56,0.59
23.363953351974487,-0.35,0.09,-0.47,0.59
23.36412215232849,-0.55,0.0,-0.3,0.62
23.36427116394043,-0.63,-0.08,-0.3,0.7
23.364411115646362,-0.6,-0.08,-0.37,0.7
23.37016224861145,-0.52,0.04,-0.13,0.53
23.38020420074463,-0.47,0.06,0.09,0.48
23.390154123306274,-0.38,0.01,0.04,0.38
23.400129079818726,-0.19,0.06,-0.11,0.22
23.463467359542847,0.05,0.12,-0.31,0.33
23.463645219802856,0.25,0.06,-0.56,0.61
23.46381402015686,0.29,0.02,-0.61,0.67
23.463979244232178,0.2,-0.06,-0.39,0.44
23.46414303779602,0.22,-0.14,-0.14,0.29
23.464306116104126,0.39,-0.16,-0.11,0.43
23.469993352890015,0.6,-0.13,-0.01,0.61
23.479993104934692,0.59,-0.08,0.15,0.61
23.490061044692993,0.49,-0.01,0.24,0.54
23.49999213218689,0.56,0.08,0.18,0.59
23.563011169433594,0.7,0.28,-0.03,0.75
23.563189268112183,0.86,0.39,-0.31,0.99
23.5633602142334,0.94,0.34,-0.5,1.11
23.563526153564453,0.88,0.26,-0.56,1.07
23.56367516517639,0.88,0.23,-0.42,1.0
23.563838243484497,0.95,0.11,-0.46,1.06
23.57012414932251,1.03,0.11,-0.34,1.09
23.57984709739685,1.22,0.18,-0.04,1.23
23.58986735343933,1.32,0.28,0.07,1.35
23.599785089492798,1.44,0.35,-0.3,1.51
23.66255021095276,1.88,0.48,-0.6,2.03
23.662721157073975,2.5,0.69,-0.79,2.71
23.66288423538208,2.95,0.98,-0.95,3.25
23.663047075271606,3.05,1.22,-1.17,3.48
23.663209199905396,3.17,1.62,-0.73,3.63
23.663371324539185,2.87,2.49,0.55,3.83
23.669803142547607,3.09,3.78,0.0,4.88
23.679657220840454,2.97,3.75,-0.56,4.81
23.68974232673645,2.22,3.82,0.64,4.46
23.69967222213745,2.49,4.42,0.42,5.09
23.762823343276978,2.74,4.3,-0.33,5.1
23.762999296188354,2.86,4.17,-0.46,5.07
23.763167142868042,3.07,4.48,0.27,5.43
23.763330221176147,3.7,5.05,0.46,6.27
23.763493299484253,4.32,5.55,0.14,7.03
23.76365613937378,4.88,5.62,0.07,7.44
23.769598245620728,5.25,5.56,0.27,7.65
23.779682159423828,5.23,5.39,0.24,7.51
23.789595365524292,4.98,5.26,0.02,7.24
23.799495220184326,4.53,5.38,-0.15,7.03
23.86307716369629,3.64,6.26,-0.1,7.24
23.863270044326782,2.65,7.55,-0.27,8.0
23.863438367843628,1.96,8.42,-0.14,8.64
23.863603353500366,0.99,9.3,-0.87,9.39
23.86376714706421,-1.0,8.1,-4.49,9.31
23.86393117904663,-2.53,7.1,-6.56,9.99
23.869396209716797,0.1,6.63,-4.33,7.91
23.879486322402954,4.5,6.41,-1.21,7.92
23.889361143112183,11.41,7.01,0.91,13.42
23.89941430091858,9.36,-0.66,-2.35,9.67
23.962754249572754,8.76,-4.21,-2.79,10.11
23.962931156158447,7.07,-2.89,-1.33,7.75
23.963107347488403,1.27,-2.06,-3.82,4.52
23.96327519416809,-3.06,-1.5,-3.7,5.03
23.96344017982483,-2.33,-2.39,-2.52,4.18
23.963605165481567,3.72,-2.88,-3.59,5.91
23.969167232513428,8.19,-2.41,-3.04,9.06
23.979339361190796,10.17,-1.77,-0.69,10.34
23.98936629295349,10.0,-2.02,1.52,10.31
23.99927830696106,7.73,-3.37,2.2,8.71
24.062353372573853,5.41,-4.4,1.17,7.07
24.06253218650818,4.61,-4.57,0.13,6.49
24.06270122528076,4.31,-4.26,-0.03,6.06
24.062870264053345,3.97,-4.08,0.17,5.69
24.06303334236145,3.58,-4.0,0.26,5.37
24.063197374343872,2.9,-2.89,0.2,4.09
24.069055318832397,2.19,-0.88,0.05,2.36
24.07910704612732,1.96,1.12,0.48,2.3
24.089166164398193,2.33,2.0,0.67,3.14
24.099054098129272,2.85,1.73,0.15,3.33
24.162700176239014,2.68,0.82,0.44,2.83
24.16288733482361,1.49,-0.12,1.49,2.11
24.16305923461914,0.7,-0.11,1.63,1.77
24.163222074508667,0.94,0.82,0.76,1.46
24.16338610649109,1.36,1.34,-0.24,1.92
24.163551092147827,0.85,1.74,-0.74,2.07
24.168829202651978,-0.36,2.38,-1.02,2.61
24.178977251052856,-2.01,2.89,-1.66,3.89
24.189009189605713,-4.0,3.04,-2.35,5.54
24.198888063430786,-6.15,3.31,-2.61,7.45
24.262470245361328,-7.67,3.55,-2.79,8.9
24.2626531124115,-8.19,3.43,-2.89,9.33
24.262821197509766,-8.7,2.99,-3.17,9.73
24.2629873752594,-9.95,5.69,-3.24,11.91
24.263151168823242,-10.54,7.66,-4.38,13.74
24.263315200805664,-10.67,3.25,-10.01,14.98
24.268848180770874,-14.24,1.6,-5.05,15.19
24.278826236724854,-17.92,-1.22,-0.08,17.96
24.288814306259155,-18.61,-3.63,0.79,18.97
24.298755168914795,-15.25,-3.36,-0.67,15.63
24.36283230781555,-12.68,-1.77,-1.48,12.88
24.363011121749878,-11.07,-0.29,-1.55,11.18
24.36318325996399,-11.48,1.31,-0.01,11.55
24.363351106643677,-7.13,2.82,2.25,7.99
24.36351704597473,2.24,2.14,4.37,5.35
24.36367917060852,7.0,1.96,5.12,8.89
24.368974208831787,2.64,3.95,1.87,5.1
24.37866234779358,-6.19,3.27,-3.5,7.82
24.38860821723938,-12.56,-0.36,-8.49,15.16
24.398576021194458,-12.65,1.7,-5.58,13.93
24.463081121444702,-7.29,3.13,1.71,8.11
24.463260173797607,-3.5,-0.17,6.01,6.95
24.46342921257019,-2.24,-2.78,3.71,5.14
24.463595151901245,-2.36,-2.82,-0.59,3.72
24.463760137557983,-2.17,-0.84,-1.55,2.79
24.46392822265625,-1.58,1.03,-0.24,1.9
24.468838214874268,-1.02,1.23,0.03,1.59
24.47850728034973,-0.52,0.6,-1.1,1.35
24.488484144210815,-0.13,0.27,-2.23,2.25
24.498497247695923,0.57,0.5,-2.3,2.42
24.564029216766357,1.27,0.54,-1.62,2.12
24.564210176467896,1.55,0.26,-1.39,2.09
24.564382314682007,1.46,-0.02,-1.35,1.98
24.564550161361694,0.83,0.05,-0.78,1.14
24.564714193344116,-0.03,0.04,-0.62,0.62
24.56487727165222,-0.34,-0.07,-1.01,1.06
24.568347215652466,-0.02,-0.03,-1.1,1.1
24.57837224006653,0.11,0.07,-0.58,0.59
24.58827233314514,0.04,0.07,0.1,0.12
24.598289251327515,0.02,0.11,0.64,0.64
24.664465188980103,-0.17,0.03,0.42,0.45
24.66464114189148,-0.53,0.01,-0.16,0.55
24.664811372756958,-0.78,-0.03,-0.68,1.03
24.664977312088013,-1.04,-0.01,-0.89,1.36
24.665141344070435,-1.16,-0.07,-0.85,1.43
24.66530418395996,-0.95,-0.15,-0.42,1.04
24.668168306350708,-0.72,-0.18,-0.15,0.75
24.678239107131958,-0.63,-0.15,-0.03,0.64
24.688276052474976,-0.53,0.01,0.19,0.56
24.698198080062866,-0.3,0.2,0.14,0.38
24.763374090194702,-0.12,0.21,-0.26,0.35
24.763554334640503,-0.05,0.03,-0.37,0.37
24.76372718811035,0.1,-0.08,-0.38,0.4
24.763911247253418,0.19,-0.06,-0.34,0.39
24.764076232910156,0.16,0.01,-0.21,0.26
24.764238119125366,0.2,0.08,0.05,0.22
24.768086194992065,0.2,-0.03,0.17,0.26
24.778136253356934,0.11,-0.1,0.16,0.21
24.78809428215027,0.18,0.01,0.21,0.27
24.798070192337036,0.28,0.1,0.14,0.32
24.86388325691223,0.37,0.1,0.07,0.38
24.864065170288086,0.55,0.13,-0.07,0.56
24.864240169525146,0.77,0.17,-0.1,0.79
24.864403247833252,0.92,0.24,0.08,0.95
24.864569187164307,0.86,0.3,-0.22,0.93
24.864732027053833,0.94,0.44,-0.41,1.11
24.867861032485962,1.15,0.61,-0.41,1.36
24.87796425819397,1.27,0.64,-0.45,1.49
24.88796830177307,1.43,0.51,-0.62,1.63
24.897878170013428,1.66,0.41,-0.77,1.87
24.964003324508667,2.08,0.51,-0.79,2.28
24.964186191558838,2.61,0.58,-0.95,2.83
24.964356184005737,3.01,0.72,-0.75,3.18
24.96452021598816,3.38,1.06,-0.46,3.57
24.96468234062195,3.5,1.98,-0.53,4.05
24.964845180511475,3.68,3.35,-0.65,5.01
24.967762231826782,3.1,3.53,0.08,4.69
24.977801084518433,3.08,4.11,0.25,5.14
24.987768173217773,3.33,4.56,0.26,5.65
24.997751235961914,3.78,4.4,0.11,5.8
25.064211130142212,4.12,4.38,-0.12,6.01
25.064393281936646,4.16,4.71,-0.29,6.29
25.064560174942017,4.61,5.28,-0.25,7.01
25.064725160598755,4.9,5.36,-0.06,7.26
25.064887285232544,4.75,4.88,-0.12,6.81
25.065052270889282,4.48,5.03,-0.05,6.73
25.067628145217896,4.23,5.58,-0.13,7.0
25.07766318321228,3.68,5.49,-1.27,6.73
25.08759117126465,2.98,5.26,-2.27,6.45
25.097572088241577,2.57,5.91,-1.68,6.65
25.16373324394226,2.03,6.91,-0.82,7.24
25.163921117782593,1.32,7.22,-0.29,7.34
25.164093255996704,0.7,6.86,-1.1,6.98
25.164257287979126,-0.1,6.77,-4.02,7.87
25.164421319961548,-0.04,7.06,-6.27,9.44
25.164586305618286,2.14,7.32,-5.19,9.22
25.16749930381775,5.12,6.84,-2.49,8.89
25.177516222000122,9.0,6.07,1.48,10.95
25.187572240829468,8.48,1.45,0.97,8.65
25.19743514060974,6.56,-2.81,-0.78,7.17
25.263965368270874,3.52,-3.04,0.06,4.65
25.264142274856567,0.04,-2.88,-1.27,3.14
25.264313220977783,-0.16,-2.01,-2.1,2.91
25.264483213424683,4.17,-1.6,-2.71,5.22
25.264650106430054,9.29,-1.15,-1.43,9.46
25.26481318473816,12.34,-0.45,0.98,12.38
25.267303228378296,12.75,-0.51,2.87,13.07
25.277361154556274,9.65,-1.2,3.29,10.26
25.287395238876343,5.83,-1.81,2.35,6.54
25.2973792552948,4.13,-2.36,0.95,4.85
25.36339020729065,3.22,-2.67,0.95,4.28
25.363571166992188,3.56,-2.8,1.8,4.87
25.36374020576477,3.88,-2.49,2.1,5.06
25.36390519142151,3.6,-1.92,2.01,4.54
25.364070177078247,3.05,-1.21,1.9,3.79
25.36423134803772,2.44,-0.5,1.63,2.97
25.36718225479126,1.82,0.34,1.57,2.42
25.377227067947388,1.71,1.07,2.01,2.84
25.387142181396484,1.98,1.28,2.38,3.35
25.397168159484863,2.02,0.89,1.85,2.88
25.463987112045288,2.17,0.34,0.68,2.29
25.464160203933716,1.6,0.37,0.24,1.65
25.464336156845093,0.22,1.08,0.55,1.23
25.464502096176147,-1.31,1.99,0.46,2.42
25.464667081832886,-3.24,2.31,-0.36,3.99
25.464834213256836,-4.79,2.3,-1.15,5.43
25.467055082321167,-5.5,3.02,-1.39,6.42
25.47711730003357,-6.14,3.77,-1.8,7.42
25.486939191818237,-7.05,4.33,-2.55,8.65
25.49707317352295,-8.25,4.82,-3.49,10.17
25.56355929374695,-9.45,5.1,-4.53,11.65
25.563735246658325,-10.39,4.65,-5.02,12.44
25.563908338546753,-11.03,7.5,-3.73,13.85
25.564074277877808,-10.76,6.22,-4.42,13.19
25.564242124557495,-11.86,-0.93,-7.74,14.19
25.56441020965576,-14.76,-3.51,-2.83,15.43
25.566949129104614,-15.52,-5.37,-0.66,16.43
25.57694935798645,-14.53,-5.29,-2.12,15.6
25.586803197860718,-13.17,-3.28,-3.51,14.01
25.596893072128296,-13.05,-1.19,-4.08,13.72
25.664486169815063,-12.98,1.27,-2.73,13.32
25.664661169052124,-5.31,2.87,-0.85,6.09
25.66482925415039,4.33,3.83,1.39,5.94
25.664992094039917,7.06,4.54,2.2,8.67
25.665157079696655,3.42,4.59,-0.24,5.72
25.66532015800476,-3.94,3.49,-1.07,5.37
25.66682720184326,-8.52,2.23,0.17,8.8
25.67683720588684,-10.66,0.81,0.39,10.69
25.686633348464966,-10.82,-0.68,-2.25,11.07
25.696836233139038,-9.93,0.23,-3.61,10.56
25.76708221435547,-4.12,2.21,-0.33,4.68
25.76729130744934,-0.98,1.23,1.65,2.27
25.767498254776,-1.11,-0.85,0.96,1.69
25.7677001953125,-1.19,-1.3,-0.6,1.86
25.767889261245728,-0.52,-0.42,-1.19,1.36
25.76810336112976,0.1,0.38,-0.96,1.03
25.768291234970093,0.58,0.45,-0.77,1.06
25.77672505378723,0.73,0.22,-1.03,1.28
25.786662340164185,0.48,-0.02,-1.43,1.5
25.79659628868103,0.23,-0.08,-1.63,1.64
25.864716291427612,0.15,0.11,-1.6,1.61
25.864896059036255,-0.09,0.5,-1.39,1.47
25.865065336227417,-0.55,0.66,-0.81,1.18
25.86523127555847,-1.01,0.24,-0.36,1.09
25.86539626121521,-1.19,-0.17,-0.23,1.22
25.865559339523315,-0.87,-0.16,-0.25,0.91
25.866493225097656,-0.78,0.01,-0.16,0.79
25.876594305038452,-0.91,0.14,0.15,0.93
25.88672423362732,-0.95,0.16,0.71,1.19
25.896525144577026,-0.95,0.12,1.06,1.42
25.96471619606018,-0.8,0.03,0.83,1.15
25.964901208877563,-0.68,-0.15,0.36,0.78
25.965070247650146,-0.64,-0.25,-0.23,0.72
25.965235233306885,-0.35,-0.21,-0.95,1.03
25.965399026870728,0.03,0.08,-1.42,1.42
25.965567350387573,0.44,0.27,-1.77,1.84
25.96638512611389,0.71,0.25,-1.7,1.85
25.976431131362915,0.96,0.1,-1.61,1.87
25.986735105514526,1.18,-0.05,-1.29,1.74
25.996453046798706,1.36,-0.27,-0.92,1.66
26.065182209014893,1.5,-0.35,-0.35,1.57
26.065341234207153,1.72,-0.35,0.15,1.76
26.06551432609558,1.73,-0.51,-0.19,1.81
26.065681219100952,1.22,-0.42,-0.68,1.45
26.065866231918335,0.35,0.11,-0.49,0.61
26.06603503227234,-0.31,0.01,0.03,0.31
26.066201210021973,-0.33,-0.14,0.38,0.52
26.076316118240356,-0.34,0.18,0.45,0.59
26.086236238479614,-0.72,0.54,0.6,1.08
26.096248149871826,-0.62,0.49,0.83,1.14
26.16476821899414,-0.25,0.19,0.75,0.81
26.164944171905518,0.22,-0.06,0.45,0.5
26.165111303329468,0.84,-0.19,0.02,0.86
26.165276288986206,1.46,-0.14,-0.18,1.47
26.165431261062622,1.71,-0.14,-0.44,1.77
26.1655912399292,1.67,-0.09,-0.6,1.77
26.166089296340942,1.61,-0.07,-0.75,1.77
26.176104307174683,1.7,-0.2,-0.87,1.92
26.18606424331665,2.05,-0.45,-0.86,2.26
26.1961932182312,2.6,-0.7,-1.04,2.88
26.26481032371521,2.6,-0.14,-0.97,2.77
26.264990091323853,1.6,0.78,-0.24,1.79
26.265157222747803,1.09,1.02,0.36,1.53
26.265321254730225,1.28,0.94,0.61,1.7
26.26548409461975,1.87,0.61,0.68,2.08
26.265679121017456,2.64,0.33,0.42,2.69
26.265875101089478,3.7,0.24,-0.09,3.7
26.276023149490356,4.47,0.48,-0.87,4.57
26.286600351333618,4.67,0.97,-1.79,5.09
26.296967267990112,4.74,1.9,-2.27,5.58
26.364882230758667,4.59,3.14,-2.32,6.02
26.365065336227417,4.17,4.77,-1.42,6.49
26.365232229232788,3.15,7.96,1.48,8.68
26.365419149398804,3.44,8.1,-1.38,8.9
26.365586042404175,2.91,6.51,-0.58,7.15
26.365748167037964,2.12,6.02,1.71,6.6
26.36590814590454,2.31,6.15,1.11,6.66
26.375832319259644,2.96,5.38,0.19,6.14
26.385749101638794,3.84,5.42,-0.68,6.67
26.395870208740234,4.77,5.36,-0.64,7.2
26.465206146240234,4.74,6.03,-0.51,7.68
26.465412139892578,4.4,7.01,-0.72,8.3
26.46557927131653,4.29,7.86,-1.3,9.04
26.465744256973267,3.87,8.05,-3.05,9.43
26.46590828895569,4.24,8.44,-4.16,10.32
26.466069221496582,3.75,9.73,-3.8,11.09
26.466230154037476,1.4,9.24,-4.08,10.19
26.47570824623108,-0.31,7.15,-4.96,8.7
26.485632181167603,1.57,6.23,-2.22,6.79
26.495651245117188,5.7,6.25,2.5,8.82
26.564168214797974,8.83,3.27,2.36,9.7
26.56435513496399,5.22,-3.65,-0.4,6.38
26.564529180526733,-0.68,-5.23,1.36,5.44
26.56469702720642,-1.79,-3.55,-0.48,4.0
26.564863204956055,-1.82,-2.31,-2.23,3.69
26.565027236938477,1.93,-2.16,-3.36,4.43
26.565524339675903,7.85,-1.74,-3.23,8.66
26.57560920715332,11.07,-1.21,-1.73,11.26
26.585560083389282,12.55,-1.52,0.69,12.66
26.595526218414307,12.26,-2.91,2.22,12.79
26.664246320724487,9.72,-4.43,1.86,10.84
26.664429187774658,7.59,-4.69,0.83,8.96
26.66460108757019,7.03,-4.02,0.17,8.1
26.664765119552612,6.34,-2.86,0.15,6.95
26.664931058883667,5.57,-2.23,0.27,6.0
26.66512417793274,4.9,-2.0,0.21,5.29
26.665289163589478,4.48,-1.68,0.06,4.78
26.675424337387085,3.99,-1.14,0.24,4.15
26.685404062271118,3.36,-0.66,0.55,3.46
26.695385217666626,2.55,-0.35,1.0,2.76
26.764689207077026,1.99,-0.25,0.99,2.23
26.764880180358887,1.58,0.19,0.86,1.8
26.765048265457153,0.92,0.95,0.76,1.52
26.76521134376526,0.4,1.59,0.36,1.67
26.76537823677063,0.24,1.4,-0.28,1.44
26.765544176101685,-0.2,1.47,-0.82,1.69
26.76571011543274,-1.77,2.67,-1.52,3.54
26.77536129951477,-4.19,4.0,-2.9,6.47
26.78525710105896,-6.37,4.85,-4.4,9.13
26.795209169387817,-7.75,5.12,-5.04,10.56
26.864527225494385,-8.27,4.85,-4.9,10.76
26.86470913887024,-8.89,4.62,-3.97,10.77
26.864903211593628,-10.46,9.56,-2.66,14.41
26.86507821083069,-9.56,11.22,-4.73,15.48
26.865246057510376,-12.81,2.8,-13.71,18.97
26.865413188934326,-20.38,-0.28,-7.42,21.69
26.865578174591064,-21.8,-2.05,0.47,21.9
26.875283241271973,-21.0,-4.56,1.45,21.53
26.885220289230347,-18.96,-4.99,0.4,19.6
26.89499521255493,-16.77,-3.16,-1.18,17.1
26.965230226516724,-16.22,-1.95,-2.58,16.53
26.965412139892578,-13.7,0.56,-0.74,13.73
26.965583086013794,-2.83,4.23,2.88,5.84
26.965752363204956,5.52,7.56,4.21,10.26
26.965915203094482,5.65,8.8,0.41,10.46
26.966076135635376,-3.28,3.81,-9.2,10.48
26.966240167617798,-11.09,2.57,-10.8,15.69
26.975035190582275,-8.3,2.53,-2.58,9.05
26.98499321937561,-3.88,0.54,4.53,5.98
26.99498414993286,-1.77,-2.51,4.8,5.69
27.065518140792847,-1.78,-3.47,0.86,3.99
27.065694093704224,-2.36,-1.08,-1.49,2.99
27.06586527824402,-2.84,0.6,-1.61,3.31
27.066030263900757,-2.3,0.8,-0.61,2.51
27.06619620323181,-1.36,0.14,-0.37,1.41
27.066359281539917,-0.62,-0.25,-0.72,0.98
27.06652021408081,0.01,-0.09,-0.85,0.85
27.07481837272644,0.69,0.2,-0.83,1.09
27.08483624458313,1.15,0.27,-0.74,1.39
27.094850301742554,1.29,0.12,-0.61,1.43
27.166423082351685,1.26,-0.04,-0.43,1.33
27.16660714149475,1.08,-0.08,-0.58,1.22
27.166775226593018,0.83,-0.09,-0.97,1.27
27.166942358016968,0.58,-0.07,-1.41,1.52
27.16710615158081,0.37,-0.03,-1.49,1.53
27.167271375656128,0.45,-0.01,-1.04,1.13
27.16743302345276,0.7,-0.08,-0.2,0.73
27.174682140350342,0.81,-0.18,0.39,0.91
27.184677362442017,0.57,-0.26,0.48,0.78
27.194679021835327,0.35,-0.25,0.48,0.64
27.266101121902466,0.35,-0.19,0.53,0.66
27.26626420021057,0.35,-0.05,0.39,0.52
27.266433238983154,0.38,0.11,0.24,0.46
27.26658320426941,0.38,0.28,0.67,0.81
27.266744375228882,0.45,0.2,0.69,0.84
27.26690936088562,0.21,-0.04,-0.12,0.24
27.267072200775146,-0.14,-0.1,-0.89,0.9
27.274551153182983,0.11,-0.01,-0.81,0.81
27.284576177597046,0.44,-0.02,-0.37,0.57
27.294541120529175,0.41,-0.07,-0.27,0.49
27.366435289382935,0.03,-0.08,-0.51,0.51
27.366613149642944,-0.31,-0.01,-0.77,0.83
27.366780042648315,-0.48,-0.03,-0.52,0.7
27.366949319839478,-0.65,-0.06,-0.1,0.66
27.367115259170532,-0.73,-0.07,0.05,0.73
27.36728024482727,-0.68,0.01,0.11,0.68
27.367443323135376,-0.65,0.08,0.1,0.66
27.374404191970825,-0.73,0.14,0.27,0.79
27.384385347366333,-0.65,0.2,0.19,0.7
27.394394159317017,-0.27,0.26,-0.2,0.42
27.46631121635437,0.17,0.27,-0.41,0.51
27.46647334098816,0.58,0.27,-0.46,0.78
27.466644048690796,0.82,0.26,-0.4,0.94
27.466808080673218,0.9,0.3,-0.34,1.0
27.466975212097168,0.99,0.33,-0.37,1.1
27.467124223709106,1.03,0.43,-0.37,1.17
27.467286348342896,1.14,0.42,-0.43,1.28
27.474242210388184,1.46,0.5,-0.29,1.57
27.484293222427368,1.97,0.57,-0.31,2.07
27.494246244430542,2.54,0.82,-0.67,2.75
27.566280126571655,2.78,1.13,-1.28,3.26
27.56645703315735,2.93,1.48,-1.14,3.47
27.5666241645813,3.33,1.89,-0.16,3.83
27.566795110702515,3.17,2.42,0.75,4.05
27.56695818901062,3.55,3.2,-0.51,4.8
27.567124128341675,4.27,3.62,-0.78,5.65
27.567286252975464,3.45,4.07,0.28,5.34
27.57435417175293,3.34,4.65,0.13,5.72
27.584169149398804,3.48,4.59,-0.38,5.77
27.594181299209595,3.71,4.54,-0.66,5.9
27.604111194610596,4.06,4.98,-0.16,6.42
27.666316270828247,4.71,5.66,0.18,7.36
27.66649031639099,5.1,6.27,0.19,8.08
27.666662216186523,5.17,6.18,0.22,8.06
27.666824102401733,5.12,5.73,0.45,7.69
27.666985273361206,5.06,5.62,0.47,7.57
27.667153120040894,4.66,5.8,-0.13,7.44
27.67404317855835,3.51,6.36,-0.76,7.3
27.68399214744568,2.37,7.25,-1.49,7.77
27.69398021697998,2.27,8.14,-2.43,8.79
27.70393204689026,2.47,9.51,-2.47,10.13
27.766732215881348,0.82,9.21,-2.7,9.63
27.766929149627686,-2.67,6.45,-4.33,8.21
27.767096281051636,-2.24,5.85,-3.56,7.2
27.767260313034058,4.88,8.02,0.07,9.38
27.76742434501648,10.74,8.24,0.58,13.54
27.767587184906006,5.95,-2.56,-5.6,8.56
27.773937225341797,10.23,-2.58,-1.58,10.66
27.7838032245636,6.5,-2.53,1.15,7.06
27.79386305809021,0.69,-2.61,-2.09,3.41
27.803791284561157,-1.78,-1.01,-3.43,3.99
27.86610436439514,-1.3,-1.41,-3.3,3.81
27.86628222465515,3.84,-1.6,-3.36,5.34
27.866453170776367,8.42,-1.27,-3.16,9.08
27.866623163223267,10.86,-1.11,-1.15,10.97
27.86678910255432,11.65,-1.73,1.8,11.91
27.866952180862427,9.86,-3.33,3.17,10.87
27.87368607521057,7.25,-4.12,2.25,8.63
27.883771181106567,6.23,-3.68,1.3,7.35
27.89370822906494,5.85,-3.12,0.91,6.69
27.903634309768677,5.34,-2.75,0.92,6.07
27.96558928489685,5.38,-2.83,0.98,6.15
27.96576428413391,5.28,-2.43,1.4,5.97
27.965936183929443,4.78,-1.69,1.53,5.29
27.96610116958618,3.77,-0.78,1.71,4.21
27.966264247894287,2.84,-0.32,1.66,3.3
27.966426134109497,2.04,-0.12,1.77,2.7
27.973626375198364,1.58,0.1,1.93,2.49
27.98361611366272,1.69,0.37,1.84,2.52
27.99363422393799,2.25,0.48,1.49,2.74
28.003478288650513,1.9,1.23,0.95,2.45
28.065677165985107,0.76,2.14,-0.23,2.28
28.065853357315063,-0.92,3.06,-1.77,3.65
28.066022157669067,-3.01,4.27,-3.06,6.05
28.06618905067444,-5.22,5.41,-4.17,8.59
28.066352128982544,-7.28,6.2,-5.08,10.82
28.066514253616333,-8.8,6.49,-5.7,12.33
28.073397159576416,-9.67,6.12,-5.6,12.74
28.083370208740234,-10.3,5.58,-5.07,12.76
28.093433141708374,-11.9,6.32,-4.69,14.26
28.103344202041626,-13.59,8.97,-4.33,16.84
28.166072130203247,-13.52,3.23,-9.1,16.61
28.166251182556152,-16.08,-0.7,-4.65,16.75
28.166417360305786,-17.45,-4.0,2.2,18.03
28.16658616065979,-15.41,-5.21,3.39,16.61
28.166749238967896,-12.64,-3.97,0.84,13.27
28.166913270950317,-10.31,-1.74,-1.25,10.53
28.17334818840027,-9.05,0.45,-1.15,9.13
28.183319330215454,-10.63,2.89,0.78,11.04
28.193307161331177,-5.25,4.18,2.1,7.03
28.20321011543274,3.53,2.62,1.48,4.63
28.266931295394897,6.17,1.35,0.06,6.31
28.26710820198059,2.4,1.86,-0.99,3.19
28.26727318763733,-4.98,3.39,-0.06,6.02
28.26743721961975,-8.75,3.68,0.24,9.49
28.267603158950806,-11.36,0.37,-5.0,12.41
28.267770051956177,-13.61,1.47,-5.67,14.81
28.273200273513794,-7.65,3.18,0.1,8.28
28.2831552028656,-2.0,0.69,2.98,3.65
28.34993314743042,-1.25,-1.78,2.14,3.05
28.35011625289917,-2.02,-2.34,-0.72,3.17
28.35028910636902,-1.65,-0.93,-1.85,2.64
28.35045623779297,-0.71,0.49,-0.67,1.09
28.35062336921692,0.09,0.57,0.36,0.68
28.350789308547974,0.51,0.01,0.21,0.55
28.35299015045166,0.79,-0.23,-0.33,0.88
28.363036155700684,0.82,-0.21,-0.68,1.08
28.373050212860107,0.37,-0.19,-0.64,0.76
28.383082151412964,-0.14,-0.01,-0.48,0.5
28.451393365859985,-0.32,0.35,-0.22,0.52
28.45157504081726,-0.54,0.48,-0.35,0.8
28.451747179031372,-0.75,0.4,-0.81,1.17
28.451913118362427,-0.67,0.15,-1.03,1.23
28.45207715034485,-0.29,-0.02,-1.05,1.08
28.452240228652954,0.01,0.05,-0.94,0.94
28.452826261520386,0.34,0.09,-0.82,0.89
28.462971210479736,0.28,0.04,-0.49,0.56
28.472886323928833,-0.14,-0.08,-0.21,0.26
28.48288321495056,-0.53,-0.11,0.07,0.54
28.551003217697144,-0.92,0.04,0.23,0.94
28.55118727684021,-1.24,0.08,-0.01,1.24
28.551339149475098,-1.13,0.08,-0.5,1.23
28.55148720741272,-0.81,0.08,-1.03,1.31
28.55165123939514,-0.59,0.09,-1.2,1.34
28.551798105239868,-0.59,0.03,-0.94,1.11
28.55276131629944,-0.61,-0.03,-0.82,1.02
28.562711238861084,-0.44,0.06,-0.67,0.8
28.572527170181274,-0.18,0.07,-0.54,0.57
28.582690238952637,0.01,0.02,-0.52,0.52
28.65053415298462,0.14,0.0,-0.34,0.36
28.650712251663208,0.2,0.06,-0.08,0.22
28.650881052017212,0.28,0.05,-0.13,0.31
28.651048183441162,0.34,0.04,-0.21,0.4
28.651204347610474,0.4,0.01,0.06,0.4
28.651368141174316,0.36,-0.1,0.34,0.5
28.652534246444702,0.33,-0.22,0.33,0.51
28.66251826286316,0.47,-0.22,0.2,0.55
28.672399282455444,0.65,0.03,0.04,0.65
28.68259620666504,0.76,0.24,-0.24,0.83
28.75049114227295,0.94,0.42,-0.56,1.17
28.75066828727722,1.03,0.49,-0.64,1.3
28.750837087631226,0.96,0.47,-0.29,1.1
28.75100302696228,0.92,0.36,-0.15,0.99
28.75117015838623,0.79,0.19,-0.21,0.83
28.75133204460144,0.73,0.13,-0.23,0.77
28.75244402885437,0.92,0.3,-0.2,0.98
28.762426137924194,1.15,0.6,-0.08,1.29
28.772249221801758,1.2,0.99,-0.01,1.55
28.782409191131592,1.32,1.38,0.16,1.91
28.849772214889526,1.59,1.67,0.18,2.31
28.84995436668396,2.05,2.02,-0.08,2.87
28.85012125968933,2.94,2.57,-0.18,3.9
28.85028624534607,3.41,2.63,-0.09,4.3
28.850447177886963,3.09,2.77,-0.1,4.15
28.850613355636597,2.8,2.99,-0.43,4.11
28.852314233779907,2.56,2.86,-0.41,3.86
28.86233925819397,2.43,2.24,-0.62,3.36
28.872138261795044,2.48,1.98,-0.7,3.24
28.88231635093689,2.95,2.31,-0.85,3.84
28.94974112510681,3.4,2.87,-1.61,4.73
28.949910163879395,3.69,3.81,-2.02,5.67
28.9500732421875,4.11,4.39,-1.53,6.2
28.95023822784424,4.51,4.33,-0.9,6.31
28.950399160385132,5.05,4.35,-0.28,6.67
28.950563192367554,5.83,4.48,0.44,7.36
28.95211911201477,6.3,4.6,1.05,7.87
28.962143182754517,6.24,4.65,0.8,7.82
28.972267150878906,5.63,5.13,0.33,7.62
28.98218822479248,4.7,6.14,-0.17,7.73
29.050159215927124,3.59,7.07,-0.74,7.96
29.050334215164185,3.12,7.86,-0.7,8.48
29.050504207611084,2.07,7.95,-1.87,8.42
29.050674200057983,0.18,7.5,-4.32,8.65
29.05083918571472,-1.26,7.42,-5.11,9.09
29.051005125045776,0.04,8.22,-3.75,9.03
29.052025079727173,5.97,10.37,-0.59,11.98
29.06200337409973,8.57,8.39,-0.5,12.0
29.071919202804565,5.0,2.74,-2.62,6.27
29.082091093063354,5.27,-0.47,-2.45,5.83
29.14928126335144,6.26,0.37,-0.49,6.29
29.149458169937134,2.03,0.78,-3.1,3.78
29.149625062942505,-2.91,0.96,-3.08,4.34
29.149792194366455,-2.98,-0.11,-1.82,3.49
29.14995837211609,3.94,-0.81,-3.58,5.38
29.150119066238403,9.37,-0.54,-3.2,9.91
29.151902198791504,11.54,-0.21,-0.68,11.56
29.161866188049316,12.69,-0.95,1.74,12.84
29.171850204467773,12.05,-2.3,2.82,12.58
29.181888341903687,8.44,-3.55,1.7,9.31
29.2509982585907,5.3,-4.11,0.46,6.72
29.251179218292236,4.37,-3.88,0.27,5.85
29.251383066177368,3.83,-3.55,0.54,5.25
29.251554250717163,3.1,-3.32,1.04,4.65
29.25171732902527,2.88,-3.09,1.11,4.36
29.25188136100769,3.22,-2.72,0.91,4.31
29.252044200897217,3.36,-2.1,1.02,4.09
29.261726140975952,3.44,-1.51,1.34,3.98
29.271708250045776,3.05,-0.69,2.18,3.81
29.281721353530884,2.57,0.02,2.98,3.93
29.352416276931763,2.18,0.51,3.16,3.87
29.352593183517456,1.39,1.06,2.92,3.4
29.35275912284851,0.63,1.35,1.98,2.47
29.35292410850525,0.51,1.27,0.67,1.52
29.353086233139038,0.63,1.61,-0.3,1.75
29.35325837135315,-0.43,2.76,-1.44,3.14
29.353427171707153,-2.58,4.19,-2.81,5.66
29.361594200134277,-5.87,5.21,-4.49,9.04
29.37153935432434,-9.73,5.77,-6.0,12.8
29.38159728050232,-13.09,5.69,-6.82,15.81
29.453222036361694,-14.53,5.15,-5.89,16.5
29.453400373458862,-14.28,4.03,-3.49,15.24
29.4535710811615,-13.48,5.01,-1.63,14.47
29.45374035835266,-12.38,9.18,-2.1,15.55
29.453887224197388,-12.38,1.75,-10.88,16.57
29.454055070877075,-15.69,-1.9,-8.31,17.85
29.454219102859497,-17.01,-4.06,-2.33,17.64
29.461480140686035,-16.37,-5.46,-1.02,17.28
29.471412181854248,-15.38,-4.98,-2.14,16.3
29.481402158737183,-16.73,-2.44,-2.7,17.12
29.55353617668152,-13.49,2.15,-1.01,13.69
29.553718328475952,-2.62,4.29,1.81,5.34
29.55388617515564,5.74,4.51,3.83,8.24
29.554049253463745,7.9,5.11,3.02,9.88
29.55421233177185,2.68,5.08,-1.33,5.89
29.554375171661377,-5.66,2.05,-3.51,6.96
29.55453610420227,-7.77,-1.61,-4.5,9.12
29.56120228767395,-12.03,-2.75,-5.44,13.48
29.571259260177612,-9.65,1.27,-0.08,9.73
29.58132314682007,-5.13,1.82,3.2,6.31
29.654173135757446,-3.3,-0.4,2.53,4.17
29.65435528755188,-2.88,-1.79,-0.06,3.39
29.654526233673096,-2.26,-1.29,-1.97,3.26
29.65469527244568,-1.05,0.27,-1.99,2.26
29.654858350753784,0.51,1.13,-1.47,1.92
29.65502119064331,1.67,0.93,-1.14,2.22
29.655182123184204,1.97,0.52,-0.86,2.21
29.6612331867218,1.26,0.1,-0.6,1.39
29.671086072921753,0.38,-0.44,-0.77,0.96
29.681167364120483,0.22,-0.52,-0.85,1.02
29.75439715385437,0.41,0.0,-0.69,0.8
29.754573106765747,0.39,0.46,-0.78,0.98
29.75474214553833,0.13,0.51,-1.05,1.17
29.75490927696228,-0.16,0.26,-1.19,1.22
29.755072355270386,-0.23,0.08,-0.91,0.94
29.755235195159912,-0.18,0.04,-0.33,0.37
29.755396127700806,-0.01,0.06,-0.08,0.1
29.761088132858276,0.24,0.08,-0.06,0.26
29.770965337753296,0.24,0.09,0.01,0.25
29.780978202819824,0.03,0.1,0.06,0.12
29.8542582988739,-0.13,0.05,-0.03,0.14
29.854441165924072,-0.64,-0.08,-0.08,0.64
29.85460925102234,-1.1,-0.09,0.11,1.1
29.854775190353394,-1.2,-0.01,0.39,1.26
29.854939222335815,-1.02,-0.08,0.23,1.04
29.855101346969604,-0.81,-0.18,0.08,0.83
29.855263233184814,-0.69,-0.14,-0.01,0.7
29.860835313796997,-0.62,-0.09,-0.17,0.64
29.870797157287598,-0.46,-0.03,-0.2,0.5
29.880802154541016,-0.09,0.12,-0.26,0.3
29.953670263290405,0.17,0.2,-0.24,0.35
29.953845262527466,0.14,0.05,-0.07,0.16
29.95400619506836,0.11,-0.04,0.12,0.16
29.954171180725098,0.21,-0.02,0.06,0.21
29.95433521270752,0.19,0.01,-0.17,0.25
29.95449709892273,0.26,0.1,-0.27,0.38
29.954658269882202,0.3,0.11,-0.19,0.37
29.960710287094116,0.19,0.16,-0.01,0.24
29.97071623802185,0.04,0.1,-0.3,0.31
29.9807550907135,0.16,0.1,-0.49,0.52
30.053648233413696,0.47,0.15,-0.34,0.59
30.053823232650757,0.7,0.14,-0.44,0.83
30.0539710521698,0.77,0.2,-0.44,0.9
30.054136037826538,0.87,0.27,-0.36,0.97
30.054304361343384,1.17,0.39,-0.31,1.27
30.054471254348755,1.46,0.53,-0.29,1.58
30.054639101028442,1.63,0.59,-0.35,1.76
30.060549020767212,1.54,0.64,-0.12,1.67
30.07054305076599,1.64,0.62,0.07,1.75
30.08056902885437,2.0,0.5,-0.16,2.06
30.153356313705444,2.63,0.45,-0.42,2.7
30.15353226661682,3.33,0.55,-0.57,3.42
30.153701066970825,3.83,1.07,-0.74,4.04
30.153866052627563,3.62,2.22,-0.27,4.25
30.15402913093567,3.15,4.38,0.11,5.39
30.154191255569458,3.19,4.66,-1.34,5.8
30.154351234436035,1.93,3.9,0.24,4.35
30.160399198532104,2.06,4.08,1.28,4.74
30.1703782081604,2.5,3.35,0.76,4.24
