time,ax,ay,az,atotal
0.00616908073425293,1.2,-0.45,-0.54,1.39
0.016169071197509766,0.58,0.4,-0.66,0.96
0.026130199432373047,-0.04,-0.03,0.0,0.05
0.03616809844970703,-0.11,-0.04,-0.11,0.16
0.04610300064086914,-0.08,0.06,-0.36,0.37
0.07678794860839844,-0.02,0.03,-0.26,0.26
0.07736396789550781,-0.05,0.03,-0.18,0.18
0.0779109001159668,-0.03,-0.04,-0.03,0.05
0.08608722686767578,-0.19,-0.06,0.22,0.29
0.0959939956665039,-0.49,-0.07,0.34,0.6
0.10597419738769531,-0.52,-0.07,0.31,0.6
0.11600303649902344,-0.28,-0.06,0.18,0.33
0.12599897384643555,-0.12,-0.03,0.07,0.14
0.13605403900146484,-0.06,0.0,-0.03,0.06
0.146043062210083,-0.02,-0.01,-0.09,0.09
0.1761641502380371,0.05,-0.01,-0.08,0.09
0.17673301696777344,0.13,0.01,-0.02,0.13
0.1773080825805664,0.19,0.0,-0.08,0.2
0.1858210563659668,0.3,-0.01,-0.05,0.3
0.19579696655273438,0.33,-0.01,0.01,0.33
0.20584392547607422,0.21,-0.01,0.07,0.22
0.21581220626831055,0.12,-0.03,0.2,0.23
0.2257990837097168,0.05,-0.03,0.21,0.21
0.23583412170410156,-0.01,-0.01,0.11,0.11
0.2457880973815918,-0.01,-0.01,-0.01,0.01
0.27556896209716797,-0.02,-0.02,-0.09,0.09
0.27616214752197266,-0.11,-0.05,-0.08,0.14
0.2767510414123535,-0.26,-0.03,0.06,0.26
0.2855191230773926,-0.43,-0.01,0.06,0.43
0.29566311836242676,-0.43,-0.02,0.03,0.43
0.3057060241699219,-0.38,-0.03,-0.04,0.38
0.3156120777130127,-0.35,-0.01,-0.13,0.37
0.325653076171875,-0.2,0.03,-0.02,0.2
0.3357381820678711,-0.02,0.0,0.11,0.11
0.3456711769104004,0.02,-0.03,0.08,0.08
0.3761582374572754,-0.1,-0.05,0.03,0.11
0.3767881393432617,-0.13,-0.03,0.04,0.13
0.37735891342163086,-0.12,0.0,0.15,0.19
0.38558411598205566,-0.13,-0.03,0.22,0.25
0.3955721855163574,0.05,0.01,0.14,0.14
0.405534029006958,0.24,-0.06,0.26,0.35
0.415463924407959,0.49,-0.15,0.36,0.62
0.42551207542419434,0.37,-0.07,0.32,0.49
0.4355812072753906,0.11,-0.07,0.25,0.28
0.44549989700317383,0.0,-0.06,0.03,0.06
0.4755721092224121,-0.14,-0.03,-0.18,0.23
0.47620105743408203,-0.28,0.0,-0.23,0.36
0.47677111625671387,-0.27,-0.02,-0.2,0.33
0.48544907569885254,-0.07,-0.03,0.03,0.08
0.4954700469970703,-0.06,0.0,0.1,0.11
0.5054159164428711,-0.17,-0.02,0.13,0.21
0.5153169631958008,-0.17,-0.06,0.12,0.21
0.5253350734710693,-0.17,-0.09,0.13,0.23
0.5353641510009766,-0.34,-0.01,0.0,0.34
0.5453090667724609,-0.42,-0.05,0.02,0.42
0.5769150257110596,-0.4,-0.07,0.27,0.48
0.5774970054626465,-0.41,0.0,0.31,0.51
0.5780649185180664,-0.22,-0.04,0.18,0.28
0.5852150917053223,0.1,-0.04,0.03,0.11
0.5951790809631348,0.23,0.01,-0.1,0.25
0.6052150726318359,0.24,-0.01,-0.06,0.24
0.6151041984558105,0.22,0.02,0.02,0.22
0.6251220703125,0.33,-0.01,0.01,0.33
0.6350359916687012,0.54,-0.01,-0.14,0.55
0.6451590061187744,0.63,0.0,-0.19,0.65
0.6762480735778809,0.6,-0.03,-0.01,0.6
0.6768169403076172,0.64,-0.02,0.04,0.64
0.6773390769958496,0.63,0.04,-0.13,0.64
0.685056209564209,0.53,-0.01,-0.15,0.55
0.6950979232788086,0.51,-0.04,-0.12,0.52
0.7050671577453613,0.57,0.05,-0.2,0.6
0.7150630950927734,0.47,0.0,-0.23,0.52
0.7250189781188965,0.3,-0.02,-0.18,0.35
0.7349870204925537,0.24,-0.01,-0.03,0.24
0.7450361251831055,0.1,-0.15,0.15,0.23
0.7758760452270508,-0.13,-0.25,0.51,0.58
0.7764601707458496,-0.34,-0.13,0.78,0.86
0.7769951820373535,-0.4,0.0,0.76,0.85
0.7847471237182617,-0.35,-0.02,0.51,0.61
0.7948179244995117,-0.36,-0.16,0.13,0.41
0.8049149513244629,-0.42,0.05,-0.23,0.48
0.8148431777954102,-0.2,0.07,-0.31,0.37
0.8247981071472168,-0.11,-0.06,-0.18,0.21
0.8347859382629395,0.04,-0.01,-0.06,0.07
0.8449430465698242,0.15,-0.01,0.1,0.18
0.876643180847168,0.28,0.02,-0.11,0.3
0.8772130012512207,0.46,-0.05,-0.01,0.46
0.877744197845459,0.54,-0.13,0.06,0.55
0.8846950531005859,0.15,-0.03,-0.42,0.44
0.8947370052337646,-0.15,0.02,-0.65,0.66
0.9047222137451172,0.09,0.05,-0.31,0.32
0.9146599769592285,0.44,0.02,0.08,0.44
0.924713134765625,0.52,-0.01,0.08,0.52
0.9347271919250488,0.68,-0.16,0.16,0.71
0.944709062576294,0.46,-0.07,0.14,0.48
0.9771900177001953,-0.13,0.05,-0.14,0.19
0.9777710437774658,-0.3,0.06,-0.22,0.37
0.9783539772033691,-0.12,-0.07,-0.16,0.21
0.9846692085266113,-0.14,-0.07,-0.41,0.43
0.9945940971374512,-0.27,0.12,-0.4,0.49
1.0046310424804688,-0.11,0.16,-0.06,0.2
1.0144991874694824,0.02,0.13,0.06,0.14
1.024548053741455,0.25,0.12,0.12,0.3
1.0348892211914062,0.42,0.05,0.06,0.42
1.044593095779419,0.54,-0.05,-0.28,0.61
1.0769171714782715,0.66,-0.09,-0.18,0.69
1.0774421691894531,0.39,-0.09,-0.28,0.48
1.0779500007629395,-0.04,0.11,-0.45,0.46
1.0848491191864014,-0.08,0.22,-0.32,0.39
1.0944409370422363,0.1,0.03,-0.25,0.27
1.1045279502868652,0.08,0.02,-0.36,0.36
1.1143670082092285,0.09,0.11,-0.23,0.27
1.124464988708496,0.16,0.11,-0.09,0.21
1.1347851753234863,0.09,0.08,-0.21,0.24
1.1443428993225098,0.0,0.0,-0.09,0.09
1.1771490573883057,-0.15,-0.08,0.1,0.19
1.1777470111846924,-0.43,0.04,-0.08,0.43
1.1783111095428467,-0.76,0.14,-0.33,0.84
1.1842620372772217,-0.98,0.03,-0.49,1.09
1.1943211555480957,-0.92,0.02,-0.5,1.04
1.2044072151184082,-0.74,0.04,-0.36,0.82
1.214245080947876,-0.61,0.09,-0.12,0.62
1.224203109741211,-0.55,0.11,0.0,0.56
1.2342619895935059,-0.5,0.12,-0.07,0.51
1.2441461086273193,-0.41,0.11,-0.13,0.44
1.2775092124938965,-0.12,0.11,-0.13,0.2
1.278003215789795,0.24,0.15,-0.12,0.3
1.278569221496582,0.52,0.06,-0.11,0.53
1.284128189086914,0.79,-0.05,0.06,0.79
1.2940120697021484,1.06,-0.05,0.29,1.1
1.3041470050811768,1.09,0.05,0.4,1.16
1.3141160011291504,0.85,0.19,0.34,0.93
1.3241050243377686,0.57,0.08,0.24,0.62
1.334111213684082,0.47,-0.13,0.31,0.57
1.3439931869506836,0.43,-0.17,0.27,0.53
1.3772881031036377,0.43,-0.13,0.22,0.5
1.3777930736541748,0.38,-0.17,0.22,0.47
1.3783390522003174,0.54,-0.23,0.47,0.75
1.383932113647461,0.75,-0.17,0.44,0.88
1.3939990997314453,0.36,-0.01,-0.01,0.36
1.4040322303771973,-0.26,0.06,-0.18,0.32
1.413999080657959,-0.63,0.02,-0.38,0.73
1.4239501953125,-0.85,0.0,-0.68,1.08
1.4339630603790283,-1.03,-0.12,-0.64,1.21
1.4439690113067627,-1.05,-0.32,-0.5,1.2
1.4771831035614014,-0.87,-0.41,-0.41,1.04
1.477729082107544,-0.69,-0.34,-0.37,0.85
1.4782662391662598,-0.34,-0.16,-0.41,0.55
1.483816146850586,-0.04,-0.02,-0.31,0.31
1.4938158988952637,0.13,0.04,-0.17,0.21
1.5039210319519043,0.22,0.03,-0.1,0.24
1.5138049125671387,0.19,0.01,-0.09,0.21
1.5238590240478516,0.14,0.0,0.04,0.14
1.5336971282958984,0.14,-0.01,0.24,0.27
1.5437979698181152,0.18,-0.08,0.36,0.41
1.577822208404541,0.22,-0.04,0.4,0.45
1.5783839225769043,0.12,0.01,0.37,0.38
1.5792570114135742,0.05,0.0,0.2,0.2
1.583622932434082,0.05,-0.13,0.06,0.15
1.5936241149902344,-0.08,-0.17,-0.01,0.18
1.6036291122436523,-0.16,-0.1,-0.02,0.18
1.6136269569396973,0.0,0.01,0.0,0.01
1.6235909461975098,0.05,0.01,-0.03,0.05
1.6336491107940674,-0.25,-0.07,-0.03,0.26
1.6436350345611572,-0.67,-0.12,0.0,0.68
1.678576946258545,-0.84,-0.04,0.12,0.84
1.6794440746307373,-0.48,0.0,0.22,0.52
1.6799731254577637,-0.08,-0.06,0.16,0.18
1.6834831237792969,0.12,-0.05,0.06,0.14
1.6935539245605469,0.2,0.05,0.1,0.22
1.7035698890686035,0.22,0.06,0.1,0.24
1.7133510112762451,0.18,0.03,-0.08,0.19
1.7234859466552734,0.08,-0.02,-0.22,0.23
1.7334489822387695,-0.17,-0.07,-0.17,0.25
1.7434802055358887,-0.59,-0.03,-0.2,0.62
1.7774770259857178,-0.74,-0.01,-0.14,0.75
1.7783770561218262,-0.49,-0.08,-0.01,0.49
1.7789781093597412,-0.26,-0.1,0.07,0.28
1.7833631038665771,-0.11,-0.07,0.01,0.13
1.793410062789917,-0.01,0.01,-0.08,0.08
1.8033390045166016,0.08,0.09,-0.11,0.16
1.813209056854248,0.25,0.15,-0.27,0.39
1.823390007019043,0.7,0.25,-0.35,0.82
1.8332750797271729,0.92,0.23,-0.11,0.95
1.843252182006836,0.88,0.06,0.13,0.89
1.877357006072998,0.97,0.11,0.13,0.98
1.8778901100158691,1.19,0.14,0.09,1.2
1.8787860870361328,1.69,0.14,0.14,1.7
1.8831770420074463,2.28,0.23,0.39,2.32
1.8931751251220703,2.51,0.35,0.75,2.64
1.9032061100006104,2.34,0.42,0.9,2.54
1.9132320880889893,2.06,0.49,0.64,2.21
1.9232821464538574,1.98,0.6,0.33,2.09
1.9331750869750977,2.2,0.71,0.01,2.31
1.9432621002197266,2.29,1.01,-0.16,2.5
1.9777231216430664,2.1,1.27,-0.2,2.46
1.9786570072174072,1.48,2.24,-0.26,2.69
1.9791851043701172,1.26,3.65,-1.23,4.05
1.983093023300171,2.91,3.29,-0.92,4.48
1.9930782318115234,3.72,2.61,0.28,4.55
2.003031015396118,2.92,1.57,0.28,3.32
2.013010025024414,2.65,0.74,-0.2,2.75
2.0230650901794434,3.54,1.22,0.28,3.75
2.033010959625244,4.04,1.1,0.96,4.29
2.0429821014404297,3.92,0.73,1.13,4.14
2.0766348838806152,4.06,0.5,0.65,4.14
2.0772318840026855,4.37,0.52,0.48,4.42
2.0782032012939453,4.62,0.35,0.68,4.68
2.082900047302246,4.76,0.19,0.73,4.81
2.0928831100463867,4.77,0.2,0.71,4.82
2.1027121543884277,4.68,0.11,0.72,4.73
2.112950086593628,4.54,0.05,0.84,4.61
2.1229171752929688,4.34,0.18,0.8,4.41
2.1328611373901367,3.98,0.38,0.71,4.06
2.142920970916748,3.43,0.46,0.67,3.52
2.1773271560668945,2.84,0.48,0.56,2.93
2.1783199310302734,2.37,0.47,0.43,2.45
2.17887020111084,2.12,0.51,0.35,2.2
2.182806968688965,1.94,0.64,0.45,2.09
2.1927671432495117,1.63,0.66,0.57,1.84
2.2026360034942627,1.18,0.61,0.5,1.41
2.212812900543213,0.67,0.6,0.28,0.94
2.2227392196655273,0.25,0.6,0.07,0.65
2.232696056365967,-0.14,0.58,-0.09,0.6
2.242739200592041,-0.48,0.47,-0.03,0.67
2.2790310382843018,-0.71,0.22,0.1,0.75
2.2796120643615723,-1.0,-0.07,0.25,1.03
2.280177116394043,-1.37,-0.31,0.28,1.43
2.282572031021118,-1.67,-0.37,0.2,1.72
2.2926149368286133,-1.82,-0.31,0.05,1.84
2.3026652336120605,-1.88,-0.26,-0.04,1.89
2.3125839233398438,-1.87,-0.12,-0.12,1.87
2.3226351737976074,-1.95,0.0,-0.15,1.95
2.3325581550598145,-2.06,-0.11,-0.15,2.06
2.342470169067383,-2.18,-0.29,-0.2,2.2
2.3786780834198,-2.23,-0.44,-0.24,2.28
2.379265069961548,-2.24,-0.54,-0.29,2.32
2.3798251152038574,-2.21,-0.65,-0.31,2.32
2.3824501037597656,-2.2,-0.67,-0.36,2.32
2.3925180435180664,-2.18,-0.63,-0.39,2.3
2.402776002883911,-2.11,-0.66,-0.41,2.24
2.412389039993286,-1.91,-0.6,-0.53,2.07
2.422421932220459,-1.56,-0.53,-0.62,1.76
2.432352066040039,-1.57,-0.43,-0.57,1.72
2.442357063293457,-1.82,-0.4,-0.61,1.96
2.4523749351501465,-2.0,-0.51,-0.64,2.16
2.4791412353515625,-1.97,-0.68,-0.54,2.15
2.479712963104248,-1.82,-0.79,-0.41,2.02
2.482296943664551,-1.75,-0.83,-0.28,1.95
2.492396116256714,-1.72,-0.72,-0.2,1.87
2.5023140907287598,-1.62,-0.57,-0.13,1.72
2.512281894683838,-1.45,-0.49,-0.17,1.53
2.5223989486694336,-1.26,-0.35,-0.31,1.34
2.532285213470459,-0.93,-0.31,-0.25,1.01
2.542314052581787,-0.58,-0.36,-0.02,0.68
2.5522100925445557,-0.5,-0.39,0.23,0.67
2.5785601139068604,-0.68,-0.63,0.32,0.98
2.579118013381958,-0.91,-0.89,0.22,1.29
2.5820701122283936,-0.29,2.82,-0.49,2.87
2.5921339988708496,2.33,2.84,-0.19,3.67
2.60208797454834,0.05,-0.68,1.75,1.87
2.6120920181274414,-1.87,-0.61,0.86,2.14
2.6221351623535156,-1.94,0.4,-1.27,2.35
2.6320900917053223,-0.04,0.79,-1.73,1.9
2.6421871185302734,1.76,0.35,-1.06,2.08
2.652088165283203,1.96,0.31,-1.33,2.38
2.6793150901794434,0.49,0.31,-1.56,1.66
2.679871082305908,-1.01,-0.45,-1.06,1.53
2.6819419860839844,-1.16,-0.29,-0.69,1.38
2.6920180320739746,-1.01,1.16,-0.63,1.66
2.7019381523132324,-2.25,3.81,-0.25,4.43
2.7120261192321777,-4.4,5.25,0.01,6.85
2.722158908843994,-6.19,2.78,-0.69,6.82
2.7317981719970703,-7.76,-1.54,-4.1,8.91
2.7419660091400146,-5.55,-0.34,-4.24,6.99
2.75191593170166,-2.38,0.44,0.41,2.45
2.772614002227783,-1.12,-1.76,2.22,3.04
2.7731990814208984,-0.72,-2.42,1.31,2.84
2.7818470001220703,-0.48,-0.97,0.34,1.13
2.791874885559082,-0.68,1.43,-0.99,1.86
2.801815986633301,-2.14,1.54,-1.44,3.0
2.811815023422241,-3.18,0.88,-0.81,3.39
2.821916103363037,-2.83,-0.12,-0.89,2.96
2.831779956817627,-2.69,-0.85,-0.57,2.87
2.841823101043701,-3.0,-0.11,-0.29,3.01
2.8517699241638184,-2.36,0.31,-0.15,2.38
2.8739540576934814,-1.48,-0.13,0.14,1.49
2.8745951652526855,-1.4,-0.25,-0.12,1.42
2.8816490173339844,-1.27,-0.25,-0.11,1.29
2.8916921615600586,-0.71,-0.22,0.03,0.74
2.9016809463500977,-0.03,-0.08,0.28,0.29
2.911607027053833,0.28,0.13,0.19,0.36
2.9217770099639893,-0.11,0.11,-0.14,0.2
2.9316039085388184,-0.45,-0.06,-0.34,0.56
2.9417099952697754,-0.32,0.08,-0.54,0.63
2.9516491889953613,-0.06,0.29,-0.29,0.41
2.9744110107421875,-0.28,0.25,-0.15,0.4
2.9750399589538574,-0.79,0.26,0.06,0.83
2.9815590381622314,-0.58,0.15,0.57,0.82
2.9916539192199707,-0.39,-0.03,0.45,0.59
3.0016210079193115,-0.56,0.0,-0.19,0.59
3.011627197265625,-0.52,0.05,-0.26,0.58
3.0215840339660645,-0.45,0.09,-0.26,0.52
3.031532049179077,-0.53,0.06,-0.25,0.58
3.0603389739990234,-0.59,-0.05,-0.16,0.61
3.0609869956970215,-0.31,0.04,-0.06,0.31
3.061612129211426,-0.11,-0.02,-0.17,0.2
3.071381092071533,-0.12,0.02,-0.37,0.38
3.0812911987304688,0.17,0.26,-0.16,0.34
3.0914711952209473,0.15,-0.02,0.05,0.15
3.101262092590332,-0.2,-0.19,0.13,0.3
3.1113851070404053,0.17,-0.04,-0.04,0.17
3.121565103530884,0.47,-0.22,-0.26,0.58
3.13139009475708,0.3,0.26,-0.15,0.42
3.160531997680664,0.27,0.49,-0.28,0.62
3.161187171936035,-0.04,-0.08,-0.5,0.5
3.16180419921875,0.06,-0.66,-0.79,1.03
3.1713500022888184,-0.01,-1.08,-1.01,1.47
3.181272029876709,-0.3,-0.47,-1.23,1.35
3.191364049911499,0.08,0.18,-1.23,1.24
3.2012650966644287,0.55,-0.04,-1.25,1.36
3.2111802101135254,0.53,-0.25,-1.52,1.62
3.2213990688323975,0.07,-0.59,-0.9,1.07
3.2314062118530273,-0.26,-0.33,-0.52,0.66
3.26240611076355,0.52,0.35,-0.22,0.66
3.263111114501953,1.2,0.58,0.25,1.35
3.2637341022491455,1.46,0.52,0.12,1.55
3.2710840702056885,1.63,0.2,-0.46,1.7
3.281069040298462,1.23,-0.39,-0.64,1.44
3.2911629676818848,0.85,-0.56,-0.73,1.25
3.3010711669921875,0.41,-0.68,-0.89,1.19
3.3114500045776367,0.09,-0.16,-0.35,0.39
3.3209540843963623,-0.46,0.67,0.08,0.81
3.3310790061950684,-0.86,0.82,0.67,1.36
3.3605542182922363,-0.4,0.27,1.06,1.16
3.3612051010131836,-0.22,-0.05,0.49,0.53
3.3618369102478027,-0.38,0.09,0.15,0.41
3.3709700107574463,-0.22,0.09,0.09,0.25
3.3809471130371094,-0.02,-0.02,-0.03,0.04
3.390932083129883,0.24,0.05,0.01,0.24
3.4008960723876953,0.49,0.03,0.12,0.5
3.41093111038208,0.7,0.05,0.61,0.92
3.420870065689087,0.88,0.11,1.09,1.4
3.43084716796875,1.09,0.11,1.13,1.57
3.460395097732544,1.54,0.19,0.79,1.74
3.461030960083008,1.88,0.36,0.68,2.03
3.4616498947143555,1.74,0.42,0.51,1.86
3.4707112312316895,0.7,0.32,0.35,0.84
3.480837106704712,-0.43,0.11,0.74,0.86
3.490787982940674,-0.96,0.13,0.8,1.25
3.500762939453125,-0.58,0.4,0.61,0.93
3.5107369422912598,0.61,0.95,-0.05,1.13
3.520738124847412,1.95,1.61,-0.5,2.57
3.530764102935791,3.55,2.22,-0.73,4.25
3.5617270469665527,4.4,2.2,-0.28,4.92
3.5624160766601562,4.72,2.32,-0.23,5.26
3.5630600452423096,4.79,2.94,-0.27,5.62
3.5705409049987793,4.59,3.52,0.2,5.78
3.580573081970215,4.45,4.03,0.5,6.02
3.5906381607055664,4.45,4.65,0.8,6.48
3.6006269454956055,4.57,5.19,1.12,7.0
3.610714912414551,4.8,5.49,1.21,7.39
3.6205790042877197,4.79,5.51,0.97,7.36
3.6306610107421875,4.3,5.04,0.35,6.63
3.661978006362915,3.2,4.18,-0.15,5.26
3.6626219749450684,1.64,3.5,-0.56,3.9
3.663236141204834,0.85,2.83,-1.01,3.12
3.670527935028076,0.27,0.74,-1.12,1.36
3.6805241107940674,-1.44,-1.78,-1.01,2.5
3.6904959678649902,-2.52,-2.37,-0.72,3.53
3.7004661560058594,1.25,-1.81,-0.64,2.29
3.710547924041748,3.53,-2.37,1.25,4.43
3.7206950187683105,2.76,-1.75,1.07,3.43
3.7304491996765137,6.35,-2.18,-0.71,6.75
3.7619450092315674,8.69,-1.78,1.52,8.99
3.7626090049743652,9.32,-1.77,2.89,9.91
3.763248920440674,8.76,-2.22,3.05,9.53
3.7705841064453125,7.86,-2.22,2.62,8.57
3.7802600860595703,7.24,-1.75,2.43,7.83
3.7904551029205322,6.36,-1.27,2.5,6.95
3.8003010749816895,5.42,-0.61,2.21,5.88
3.8103489875793457,4.69,0.12,1.79,5.02
3.8208611011505127,3.91,0.7,1.38,4.2
3.8303940296173096,2.95,1.28,0.91,3.34
3.8611440658569336,1.8,1.81,0.34,2.57
3.861769199371338,0.59,2.15,-0.13,2.23
3.862389087677002,-0.53,2.26,-0.28,2.33
3.8701539039611816,-1.19,2.3,-0.06,2.59
3.880208969116211,-1.77,2.25,0.28,2.87
3.890275001525879,-2.28,2.17,0.42,3.17
3.9000771045684814,-2.57,1.92,0.22,3.21
3.9101672172546387,-2.56,1.68,-0.02,3.06
3.9201340675354004,-2.59,1.64,0.08,3.06
3.930115222930908,-2.59,1.87,0.02,3.19
3.961393117904663,-2.42,1.84,-0.12,3.04
3.9620230197906494,-1.99,1.98,-0.13,2.81
3.9626500606536865,-2.33,1.68,0.07,2.87
3.970057964324951,-2.48,1.23,0.03,2.76
3.980048179626465,-2.49,0.95,-0.06,2.66
3.9899802207946777,-2.6,0.84,-0.42,2.76
3.999983072280884,-2.51,0.94,-0.63,2.75
4.010035991668701,-2.49,1.01,-0.43,2.72
4.0200090408325195,-2.93,0.71,-0.64,3.08
4.030019044876099,-3.76,-0.03,-1.15,3.93
4.061500072479248,-4.23,-0.81,-1.57,4.58
4.0622029304504395,-4.74,-1.54,-1.77,5.28
4.0628790855407715,-5.43,-2.2,-1.99,6.18
4.069950103759766,-5.77,-2.43,-2.21,6.63
4.079859018325806,-5.42,-1.7,-2.72,6.29
4.090011119842529,-4.97,-1.65,-2.71,5.89
4.099844932556152,-5.23,-2.23,-2.75,6.31
4.109934091567993,-5.69,-2.78,-3.12,7.05
4.119943141937256,-5.27,-1.3,-3.55,6.48
4.129878997802734,-1.63,3.9,-4.29,6.02
4.161448955535889,0.46,0.45,-2.81,2.88
4.162077903747559,2.4,3.32,-0.08,4.09
4.16270112991333,5.3,4.31,4.6,8.23
4.169672966003418,3.36,0.61,2.33,4.13
4.179756164550781,-0.34,-0.13,-3.2,3.22
4.189826965332031,-1.82,1.67,-4.35,5.0
4.199787139892578,-1.96,2.34,-2.72,4.08
4.209701061248779,-1.75,2.28,-1.99,3.49
4.21970796585083,-1.97,2.07,-1.27,3.12
4.229685068130493,-2.28,1.42,-0.45,2.72
4.261106967926025,-2.74,0.96,-0.22,2.91
4.261739015579224,-3.9,0.9,-0.39,4.02
4.262320041656494,-4.67,0.47,-0.92,4.78
4.269556999206543,-3.9,-0.04,-0.4,3.92
4.279550075531006,-4.4,1.89,0.45,4.8
4.2896409034729,-6.56,2.32,-2.75,7.48
4.2995381355285645,-5.49,-0.22,-4.5,7.1
4.309553146362305,-1.43,1.22,-1.86,2.64
4.31948709487915,0.23,0.88,0.56,1.06
4.329525947570801,-0.81,-0.78,0.71,1.32
4.361730098724365,-1.08,-0.92,0.45,1.48
4.362360954284668,-0.88,-0.38,0.79,1.24
4.362954139709473,-0.84,-0.25,1.03,1.35
4.369365215301514,-0.7,-0.14,0.65,0.96
4.379467964172363,-1.46,-0.22,-0.34,1.51
4.389414072036743,-2.47,-0.35,-0.57,2.55
4.3993730545043945,-2.85,0.15,-0.34,2.87
4.409342050552368,-2.28,0.5,-0.6,2.41
4.419425010681152,-1.59,0.06,-0.81,1.78
4.429341077804565,-1.36,-0.21,-0.25,1.39
4.462015151977539,-1.3,-0.07,0.1,1.3
4.462662220001221,-1.09,-0.01,-0.1,1.09
4.463247060775757,-0.52,0.03,-0.47,0.7
4.46922492980957,-0.39,0.06,-0.62,0.73
4.4792320728302,-0.86,-0.06,-0.31,0.91
4.489278078079224,-1.02,-0.11,-0.04,1.02
4.499229907989502,-0.45,0.13,-0.26,0.53
4.509267091751099,0.04,0.42,-0.73,0.84
4.51921010017395,0.06,0.49,-1.18,1.27
4.5292580127716064,0.29,0.3,-1.81,1.85
4.562488079071045,0.85,0.04,-1.92,2.1
4.5631279945373535,1.51,-0.16,-1.55,2.16
4.563732147216797,1.8,-0.19,-1.71,2.49
4.569159030914307,1.19,-0.18,-1.76,2.13
4.579141139984131,0.5,-0.31,-1.29,1.41
4.589180946350098,0.24,-0.46,-0.84,0.98
4.59906005859375,-0.07,-0.13,-0.72,0.73
4.609101057052612,0.03,0.3,-0.57,0.64
4.619039058685303,-0.06,0.44,0.52,0.68
4.62905216217041,-0.43,-0.03,1.46,1.52
4.663052082061768,-0.45,0.09,1.13,1.21
4.664156913757324,0.15,0.02,0.94,0.95
4.664752006530762,0.07,-0.21,0.52,0.56
4.668912887573242,-0.26,-0.25,0.15,0.39
4.678966999053955,-0.43,-0.26,0.13,0.51
4.689029216766357,-0.39,0.03,-0.47,0.61
4.698915004730225,0.13,0.02,-0.65,0.66
4.709140062332153,0.68,-0.15,-0.44,0.82
4.718789100646973,0.85,0.12,-0.73,1.12
4.728926181793213,0.87,0.14,-0.49,1.0
4.763514041900635,0.83,-0.18,-0.19,0.87
4.764520168304443,0.8,-0.26,0.04,0.84
4.765088081359863,0.91,0.05,-0.17,0.92
4.768790006637573,0.44,0.32,-0.54,0.76
4.778838157653809,-0.21,0.5,0.04,0.54
4.78872013092041,-0.46,0.29,0.48,0.72
4.798727989196777,-1.0,-0.14,0.06,1.01
4.80874490737915,-1.21,-0.08,-0.19,1.22
4.818717956542969,-1.12,-0.11,-0.42,1.2
4.828744888305664,-1.14,-0.26,-0.68,1.35
4.862900018692017,-0.93,-0.22,-0.56,1.1
4.863952159881592,-0.55,-0.03,-0.55,0.77
4.8645172119140625,-0.2,0.06,-0.58,0.61
4.868635177612305,0.19,0.23,-0.45,0.53
4.878660202026367,0.61,0.08,-0.08,0.62
4.888416051864624,0.74,0.07,0.17,0.76
4.898591041564941,0.92,0.17,0.29,0.97
4.908590078353882,0.9,0.17,0.26,0.95
4.918582916259766,0.62,0.2,0.16,0.67
4.928515911102295,0.36,0.11,0.18,0.41
4.962882041931152,0.19,0.06,0.22,0.29
4.963864088058472,0.22,0.06,0.32,0.39
4.964413166046143,0.18,-0.09,0.46,0.5
4.968461036682129,0.07,-0.14,0.26,0.3
4.9785730838775635,0.58,0.14,0.3,0.66
4.988362073898315,0.68,0.06,0.3,0.74
4.998475074768066,0.24,-0.06,0.04,0.25
5.008531093597412,-0.06,-0.07,0.11,0.14
5.018463134765625,-0.29,0.01,0.32,0.43
5.028477191925049,-0.21,0.13,0.33,0.41
5.063658237457275,-0.07,0.01,0.26,0.26
5.064516067504883,-0.23,-0.26,-0.14,0.37
5.065083026885986,-0.19,-0.18,-0.23,0.34
5.068302154541016,0.35,-0.08,-0.24,0.43
5.07827615737915,1.47,0.21,-0.5,1.56
5.088434219360352,2.22,0.93,0.26,2.42
5.098262071609497,2.64,1.35,0.65,3.03
5.108336925506592,2.98,1.67,0.76,3.49
5.118243217468262,3.33,2.16,1.03,4.1
5.128355026245117,3.93,2.29,1.49,4.78
5.162830114364624,4.19,2.07,1.34,4.86
5.1638360023498535,4.21,1.93,1.17,4.77
5.164387226104736,4.17,1.85,1.07,4.68
5.168166160583496,3.92,1.99,0.73,4.45
5.178163051605225,3.37,2.41,0.5,4.17
5.188567161560059,2.84,3.07,0.49,4.21
5.198158025741577,2.38,4.11,0.52,4.77
5.208139896392822,3.07,5.57,0.3,6.36
5.218109130859375,5.16,6.62,-0.1,8.39
5.228127956390381,5.96,6.9,-0.74,9.14
5.238148212432861,5.07,6.46,-1.79,8.4
5.264429092407227,3.3,5.06,-2.69,6.61
5.265006065368652,1.53,3.97,-2.93,5.16
5.268082141876221,0.17,1.78,-2.34,2.94
5.27813196182251,-1.79,-0.44,-1.19,2.19
5.288435935974121,-3.01,-1.94,-1.29,3.8
5.2980499267578125,0.3,-2.55,-1.68,3.06
5.308032035827637,4.94,-3.2,-0.3,5.89
5.318018913269043,5.49,-3.11,1.72,6.53
5.3279709815979,4.45,-1.75,0.66,4.82
5.337923049926758,7.33,-2.37,-0.28,7.7
5.364298105239868,8.95,-2.41,1.99,9.48
5.364838123321533,9.31,-2.52,2.96,10.08
5.367786884307861,8.48,-3.09,2.5,9.36
5.377861976623535,7.56,-3.01,1.95,8.36
5.387825965881348,7.12,-2.52,1.89,7.78
5.397799015045166,6.48,-2.01,1.91,7.04
5.407831192016602,5.6,-1.21,1.94,6.04
5.417887210845947,4.82,-0.22,1.71,5.11
5.4278271198272705,4.18,0.83,1.4,4.48
5.437793016433716,3.62,1.74,0.96,4.12
5.464806079864502,2.96,2.87,0.23,4.12
5.465384006500244,1.77,3.97,-0.49,4.37
5.467673063278198,0.16,4.67,-0.93,4.76
5.477771043777466,-1.22,4.92,-1.2,5.2
5.48766303062439,-1.17,4.31,-1.73,4.78
5.497578144073486,-3.27,3.79,-0.36,5.01
5.507696151733398,-5.52,2.83,0.57,6.22
5.517704010009766,-6.1,2.35,0.5,6.55
5.527772903442383,-5.61,2.28,0.07,6.05
5.537714958190918,-4.94,2.66,-0.36,5.62
5.563748121261597,-4.28,2.82,-1.0,5.22
5.564294099807739,-4.12,2.31,-1.65,5.0
5.567924976348877,-4.32,1.65,-1.7,4.92
5.577613115310669,-4.96,1.27,-1.38,5.3
5.58751916885376,-5.9,0.73,-1.02,6.03
5.5975260734558105,-6.54,-0.32,-0.77,6.59
5.60763692855835,-6.69,-1.02,-0.67,6.8
5.617475986480713,-6.28,-1.46,-0.82,6.49
5.627574920654297,-5.48,-1.69,-0.97,5.81
5.63744592666626,-4.68,-1.8,-0.96,5.1
5.664337158203125,-3.94,-1.97,-0.77,4.47
5.664872169494629,-3.31,-1.78,-0.81,3.84
5.667218208312988,-2.85,-1.29,-0.91,3.25
5.677308082580566,-2.72,-0.99,-1.19,3.12
5.687240123748779,-3.02,-1.13,-1.48,3.54
5.69722318649292,-2.99,0.74,-1.68,3.5
5.707273960113525,0.06,5.05,-2.39,5.58
5.717252016067505,0.32,-0.76,-1.81,1.98
5.727304935455322,1.8,0.58,-0.8,2.05
5.737246036529541,3.96,2.48,4.25,6.31
5.764388084411621,1.61,0.01,2.34,2.84
5.764925956726074,-1.64,-0.37,-2.97,3.41
5.767087936401367,-3.21,1.55,-4.11,5.44
5.777098178863525,-2.51,2.26,-2.53,4.22
5.787209987640381,-1.02,2.24,-1.26,2.76
5.797205924987793,-0.51,2.19,-0.15,2.25
5.80722713470459,-1.06,1.5,0.41,1.88
5.817183971405029,-1.92,1.06,0.24,2.2
5.827311038970947,-2.69,1.26,-0.07,2.97
5.837177038192749,-3.32,1.86,-0.44,3.83
5.86534309387207,-3.35,1.78,-0.95,3.91
5.865884065628052,-2.49,0.61,-1.09,2.78
5.867079019546509,-1.42,-0.3,-0.4,1.5
5.877119064331055,-0.78,-0.11,0.17,0.8
5.88702917098999,-2.0,1.76,-0.88,2.8
5.897059917449951,-2.83,-0.49,-2.84,4.03
5.907162189483643,-1.14,-0.02,-2.72,2.94
5.9170050621032715,0.14,0.31,-0.82,0.88
5.927042007446289,-0.44,-1.28,0.42,1.41
5.936972141265869,-1.71,-1.8,0.09,2.48
5.964366912841797,-2.17,-0.99,-0.24,2.39
5.964905023574829,-1.78,-0.43,0.18,1.84
5.966912031173706,-2.0,-0.23,0.05,2.01
5.97697901725769,-2.41,0.44,-0.68,2.54
5.986938953399658,-1.78,1.15,-1.18,2.42
5.996958017349243,-1.38,0.1,-0.39,1.43
6.006903171539307,-1.67,-0.83,0.39,1.9
6.016879081726074,-1.88,-0.5,0.09,1.94
6.02689003944397,-1.89,-0.09,-0.06,1.89
6.036816120147705,-1.71,-0.01,0.2,1.72
6.065054893493652,-1.73,0.13,0.58,1.82
6.06558895111084,-2.23,0.32,0.77,2.38
6.066810131072998,-2.49,0.35,0.64,2.59
6.076704978942871,-2.01,0.01,0.52,2.07
6.086740970611572,-1.68,-0.24,0.1,1.69
6.096771240234375,-1.34,-0.04,-0.45,1.41
6.106601238250732,-0.94,0.06,-0.63,1.13
6.116722106933594,-0.72,0.05,-0.83,1.09
6.126767158508301,-0.48,0.15,-0.52,0.72
6.136665105819702,-0.25,-0.01,-0.4,0.47
6.165881156921387,-0.32,0.01,-0.88,0.93
6.166439056396484,-0.58,0.0,-1.04,1.19
6.166996955871582,-0.73,-0.14,-0.97,1.22
6.176673889160156,-0.84,0.13,-0.74,1.12
6.186604976654053,-0.79,0.45,-0.1,0.91
6.196508884429932,-0.43,0.35,0.28,0.62
6.206454038619995,0.04,0.29,0.2,0.35
6.216609954833984,0.31,0.2,0.04,0.37
6.226715087890625,0.15,0.02,-0.38,0.4
6.236636161804199,0.0,-0.12,-0.73,0.73
6.265707015991211,0.14,-0.14,-0.79,0.81
6.266243934631348,0.28,-0.22,-0.42,0.55
6.266746997833252,0.25,-0.19,-0.36,0.47
6.276398181915283,0.13,0.08,-0.65,0.66
6.286386013031006,0.13,-0.09,-1.11,1.12
6.296425104141235,0.23,-0.5,-1.4,1.5
6.306281089782715,0.53,-0.47,-1.29,1.47
6.316416025161743,0.61,-0.25,-1.07,1.25
6.3264570236206055,0.25,0.06,-0.46,0.52
6.336335182189941,0.12,0.28,0.09,0.31
6.36584997177124,0.39,0.09,0.05,0.4
6.366353988647461,0.29,-0.32,-0.15,0.45
6.36684513092041,-0.1,-0.31,-0.18,0.37
6.376348972320557,-0.07,-0.04,-0.18,0.19
6.386279106140137,0.15,0.17,-0.32,0.39
6.396222114562988,0.49,0.31,-0.52,0.77
6.406199932098389,0.91,0.08,-0.63,1.1
6.416254997253418,1.11,-0.42,-0.72,1.38
6.426270961761475,0.82,-0.39,-0.64,1.11
6.436212062835693,0.34,0.2,-0.1,0.4
6.46548318862915,0.74,0.26,0.47,0.91
6.4660420417785645,1.08,0.12,0.42,1.16
6.466555118560791,0.87,-0.01,-0.08,0.87
6.476109981536865,0.85,-0.15,-0.19,0.88
6.4860639572143555,0.69,-0.26,-0.34,0.81
6.496125221252441,0.29,-0.3,-0.56,0.69
6.506293058395386,0.38,-0.24,-0.35,0.56
6.516170024871826,0.61,-0.12,-0.27,0.67
6.526360034942627,0.57,0.02,-0.24,0.61
6.536067962646484,0.41,0.2,0.12,0.47
6.5650858879089355,0.02,0.26,0.34,0.42
6.565587997436523,-0.55,0.31,0.56,0.84
6.566082954406738,-0.96,0.25,0.67,1.19
6.575926065444946,-1.16,0.18,0.44,1.25
6.585902214050293,-0.96,0.15,0.22,0.99
6.595907211303711,-0.42,0.14,0.08,0.44
6.606205940246582,-0.07,0.17,-0.11,0.21
6.615939140319824,-0.03,0.17,-0.29,0.33
6.62593412399292,0.01,0.02,-0.43,0.43
6.635976076126099,0.0,-0.15,-0.51,0.53
6.665884971618652,-0.22,-0.22,-0.35,0.46
6.666430950164795,-0.67,-0.12,-0.25,0.72
6.666938066482544,-0.75,-0.03,-0.45,0.87
6.675867080688477,-0.37,0.02,-0.39,0.53
6.685790061950684,0.11,0.21,-0.3,0.38
6.695898056030273,0.64,0.27,-0.44,0.82
6.705775022506714,1.09,0.3,-0.35,1.18
6.715840101242065,1.79,0.28,-0.17,1.81
6.725780010223389,2.96,0.25,0.39,2.99
6.735783100128174,3.85,0.32,0.94,3.97
6.766703128814697,4.22,0.44,1.09,4.38
6.767207145690918,4.66,0.65,1.34,4.89
6.76769495010376,5.14,0.95,1.53,5.44
6.77570104598999,5.69,1.36,1.39,6.01
6.785676956176758,6.44,1.64,1.3,6.77
6.795651912689209,6.38,1.7,1.41,6.75
6.8056800365448,5.59,2.15,1.07,6.08
6.815651893615723,4.25,4.81,-0.93,6.48
6.825664043426514,4.26,6.8,-0.28,8.02
6.835638046264648,3.7,6.63,1.92,7.83
6.866803169250488,2.29,5.58,0.23,6.03
6.867304086685181,1.18,5.53,-0.82,5.71
6.867802143096924,0.63,5.88,-1.45,6.08
6.875570058822632,1.37,5.96,-1.79,6.37
6.885683059692383,2.85,4.38,-1.6,5.46
6.895487070083618,2.99,1.65,-0.82,3.51
6.905489921569824,3.72,-0.56,-0.77,3.83
6.9153220653533936,4.88,-0.18,0.44,4.9
6.925448894500732,4.52,0.03,1.38,4.72
6.935466051101685,6.79,-1.62,0.44,6.99
6.966782093048096,7.26,-1.41,1.98,7.65
6.967292070388794,7.4,-1.39,2.86,8.05
6.9677839279174805,7.0,-1.79,2.6,7.67
6.975569009780884,6.46,-1.5,1.96,6.91
6.985525131225586,6.12,-1.01,1.92,6.49
6.995314121246338,5.88,-0.77,2.27,6.34
7.005237102508545,5.45,-0.53,2.38,5.97
7.015290021896362,5.05,0.03,2.16,5.49
7.02535605430603,4.67,0.68,1.9,5.08
7.035262107849121,3.95,1.07,1.78,4.46
7.066417217254639,3.04,1.15,1.53,3.59
7.066922187805176,2.25,1.26,1.15,2.82
7.067413091659546,1.74,1.55,0.8,2.46
7.075184106826782,1.13,1.79,0.63,2.2
7.0851922035217285,0.52,1.88,0.43,1.99
7.095180034637451,0.1,2.17,0.04,2.17
7.105128049850464,-1.07,2.35,0.03,2.58
7.115192890167236,-2.0,2.38,-0.04,3.1
7.125157117843628,-2.24,2.47,-0.29,3.34
7.135109901428223,-2.45,2.51,-0.41,3.53
7.1666131019592285,-3.24,2.29,-0.34,3.98
7.167117118835449,-4.04,1.88,-0.49,4.48
7.167611122131348,-4.48,1.7,-0.64,4.83
7.175101041793823,-4.21,1.96,-0.91,4.73
7.185023069381714,-3.84,2.11,-1.43,4.6
7.195096015930176,-2.69,1.56,-1.76,3.57
7.2050089836120605,-3.58,0.91,-1.16,3.87
7.215025901794434,-4.85,-0.07,-1.03,4.95
7.225054025650024,-6.02,-0.74,-1.56,6.26
7.234934091567993,-6.7,-1.09,-2.36,7.18
7.267473220825195,-6.57,-1.54,-2.47,7.18
7.2679760456085205,-6.38,-1.84,-2.2,6.99
7.2684690952301025,-6.44,-1.47,-2.39,7.02
7.274822235107422,-6.03,-1.44,-2.89,6.84
7.2848429679870605,-5.58,-1.98,-3.25,6.75
7.294912099838257,-5.33,-2.51,-3.15,6.68
7.304896116256714,-5.43,-2.56,-3.26,6.83
7.314961910247803,-6.24,-2.47,-3.79,7.7
7.324965953826904,-6.91,-2.51,-4.18,8.45
7.3349151611328125,-5.01,3.85,-4.81,7.94
7.366666078567505,0.78,6.65,-3.78,7.68
7.367171049118042,6.92,3.58,0.94,7.84
7.367664098739624,12.55,1.94,12.29,17.67
7.374763011932373,6.72,-1.48,7.23,9.98
7.3848161697387695,-1.28,-1.14,-5.31,5.57
7.394774913787842,-4.38,1.02,-5.74,7.29
7.40475606918335,-1.82,2.57,-1.59,3.52
7.414702892303467,-0.28,3.68,-1.34,3.92
7.424680233001709,-1.47,5.51,-1.31,5.85
7.434751033782959,-5.17,5.96,-0.96,7.94
7.467000961303711,-7.62,3.55,-1.94,8.62
7.467510223388672,-6.19,-0.12,-1.91,6.47
7.46799898147583,-3.23,-1.93,-0.79,3.84
7.474560022354126,-1.85,-2.47,0.05,3.08
7.484496116638184,-3.48,0.48,-0.28,3.52
7.494570016860962,-6.4,-0.07,-4.04,7.56
7.504561901092529,-6.46,-0.25,-5.97,8.79
7.5145440101623535,-3.33,1.76,-3.81,5.35
7.524444103240967,-1.25,1.21,-1.44,2.25
7.534517049789429,-0.52,-0.43,-1.19,1.36
7.567316055297852,0.34,-1.02,-1.13,1.55
7.567817211151123,1.11,-0.36,-0.89,1.46
7.568306922912598,1.32,0.71,-0.1,1.5
7.574305057525635,1.11,0.47,0.25,1.23
7.584374904632568,-0.23,-0.42,0.15,0.5
7.594436168670654,-1.52,-0.66,0.1,1.66
7.604368209838867,-1.87,-0.63,0.68,2.08
7.614352226257324,-2.05,-0.5,1.49,2.58
7.62425422668457,-2.47,-0.54,1.2,2.79
7.634331226348877,-2.88,-0.72,0.92,3.1
7.667819976806641,-3.16,-0.61,0.74,3.3
7.668345928192139,-2.96,-0.36,0.05,2.98
7.668807029724121,-2.36,-0.01,0.06,2.36
7.6741321086883545,-1.52,0.12,-0.17,1.53
7.684215068817139,-0.75,0.09,-0.45,0.87
7.694239139556885,-0.47,0.27,-0.36,0.65
7.7042131423950195,-0.72,0.38,-0.33,0.87
7.7143049240112305,-0.65,0.24,-0.89,1.12
7.724124908447266,-0.31,0.3,-1.8,1.85
7.734186172485352,0.1,0.17,-2.04,2.04
7.768233060836792,0.27,-0.1,-1.63,1.65
7.768716096878052,0.01,0.05,-1.52,1.52
7.76951789855957,0.07,0.09,-1.3,1.3
7.7740960121154785,-0.13,0.08,-1.65,1.65
7.784159183502197,-0.43,-0.04,-1.46,1.52
7.794102191925049,-0.53,0.0,-0.78,0.94
7.804067134857178,-0.15,0.1,-0.26,0.31
7.8140668869018555,0.17,0.01,0.17,0.24
7.824095010757446,0.24,-0.11,0.62,0.67
7.834061145782471,0.68,-0.07,0.52,0.85
7.8681111335754395,0.27,-0.23,-0.14,0.38
7.868585109710693,-0.55,-0.3,-0.19,0.65
7.869388103485107,-1.16,0.28,0.22,1.21
7.8740129470825195,-1.46,0.59,0.72,1.73
7.883960008621216,-1.26,0.08,0.77,1.47
7.89391303062439,-0.71,-0.08,-0.1,0.72
7.903894901275635,-0.32,-0.07,-0.46,0.56
7.913914203643799,-0.21,-0.12,-0.34,0.41
7.9240851402282715,-0.19,-0.01,-0.17,0.25
7.9339752197265625,-0.27,0.04,0.32,0.42
7.967668056488037,-0.48,0.12,0.44,0.66
7.968142032623291,-0.36,0.09,-0.35,0.51
7.968970060348511,0.22,-0.12,-0.99,1.02
7.974055051803589,0.61,-0.09,-0.96,1.14
7.9838151931762695,0.69,0.01,-0.66,0.95
7.993772983551025,0.79,0.09,-0.3,0.84
8.003724098205566,0.89,0.06,-0.06,0.89
8.01377820968628,0.94,-0.04,-0.4,1.02
8.024168014526367,0.86,-0.11,-0.52,1.01
8.033756017684937,0.43,-0.07,-0.26,0.5
8.06834602355957,0.3,-0.01,-0.02,0.3
8.06916618347168,0.66,-0.06,0.28,0.71
8.069634914398193,0.68,-0.11,0.12,0.69
8.073549032211304,0.4,-0.17,-0.21,0.48
8.083639144897461,0.16,-0.07,-0.27,0.32
8.093695163726807,0.08,0.15,-0.09,0.19
8.103579044342041,0.12,0.19,0.14,0.26
8.113615989685059,0.25,0.13,0.36,0.45
8.123614072799683,0.48,0.02,0.27,0.55
8.13348388671875,0.63,0.01,0.17,0.65
8.167577028274536,0.29,0.01,0.2,0.35
8.168066024780273,-0.08,-0.04,0.06,0.1
8.168889045715332,0.02,-0.07,0.37,0.37
8.173480987548828,0.31,0.03,0.67,0.73
8.183510065078735,0.43,-0.03,0.32,0.53
8.193494081497192,0.29,-0.09,-0.18,0.35
8.203463077545166,0.0,-0.06,-0.3,0.3
8.213456153869629,-0.44,-0.11,0.18,0.48
8.223473072052002,-0.88,-0.27,0.97,1.33
8.233438968658447,-1.0,-0.05,1.49,1.79
8.267818927764893,-0.32,0.1,0.91,0.96
8.268646240234375,0.7,0.11,-0.03,0.7
8.269111156463623,1.21,0.13,-0.58,1.34
8.273313999176025,1.09,0.25,-0.58,1.25
8.2833890914917,0.8,0.39,-0.53,1.03
8.29331922531128,0.6,0.48,-0.14,0.78
8.303258895874023,0.34,0.23,0.58,0.71
8.313347101211548,0.4,0.22,0.92,1.02
8.323318004608154,1.3,0.28,0.87,1.58
8.333298206329346,2.55,0.32,0.68,2.65
8.367908954620361,3.28,0.55,0.46,3.35
8.368735074996948,3.73,1.03,0.22,3.87
8.36919116973877,3.64,1.32,0.15,3.87
8.37319302558899,3.92,1.39,0.11,4.16
8.383291006088257,4.08,1.44,0.32,4.33
8.39329195022583,3.9,1.64,0.73,4.29
8.403112888336182,3.43,2.47,0.3,4.23
8.413132190704346,2.96,5.87,-1.05,6.65
8.423152923583984,3.87,7.19,1.49,8.3
8.433130025863647,4.27,6.09,1.62,7.61
8.468728065490723,4.21,6.09,-0.06,7.4
8.4691801071167,4.24,6.31,-0.14,7.6
8.469642162322998,5.06,6.42,-0.01,8.17
8.473089218139648,5.46,6.55,-0.52,8.54
8.482985019683838,5.22,6.3,-0.99,8.24
8.492987155914307,3.9,4.73,-1.25,6.25
8.502969026565552,1.59,1.71,-1.24,2.64
8.513028144836426,1.14,-1.54,-1.07,2.19
8.522971153259277,2.3,-1.54,0.24,2.77
8.532993078231812,3.69,-0.32,1.81,4.12
8.568726062774658,3.88,-0.27,2.72,4.74
8.569192886352539,7.9,-1.23,1.19,8.08
8.569627046585083,7.66,-1.27,2.72,8.22
8.572862148284912,5.74,-1.74,3.05,6.72
8.582817077636719,4.99,-2.44,2.13,5.94
8.592886924743652,5.01,-2.4,1.87,5.86
8.602757930755615,4.77,-2.36,2.42,5.84
8.61283802986145,4.14,-2.4,2.7,5.49
8.622770071029663,3.68,-2.16,2.4,4.89
8.632800102233887,3.36,-1.66,1.98,4.23
8.668513059616089,3.25,-1.0,1.82,3.85
8.668967008590698,2.91,-0.44,1.87,3.48
8.66942310333252,2.21,0.05,1.71,2.79
8.672717094421387,1.26,0.47,1.43,1.96
8.682721138000488,0.38,0.78,1.25,1.52
8.692702054977417,-0.38,0.96,1.17,1.56
8.702507019042969,-1.11,1.24,1.01,1.94
8.712692022323608,-1.51,1.91,0.71,2.53
8.722623109817505,-1.8,2.56,0.32,3.14
8.732655048370361,-1.17,2.71,-0.5,2.99
8.768884181976318,-0.78,2.76,-0.62,2.93
8.769326210021973,-2.61,2.33,-0.37,3.51
8.769760131835938,-3.49,1.94,-1.05,4.12
8.772563934326172,-4.75,2.01,-1.81,5.46
8.782634019851685,-4.78,2.14,-2.4,5.76
8.792578220367432,-3.99,2.41,-2.33,5.21
8.802548885345459,-3.96,2.52,-2.1,5.14
8.812597036361694,-4.88,1.55,-2.01,5.5
8.822513103485107,-5.71,0.08,-1.88,6.01
8.832469940185547,-6.05,-1.07,-2.07,6.48
8.868854999542236,-6.12,-1.83,-2.29,6.78
8.869302034378052,-5.54,-2.4,-2.06,6.37
8.869733095169067,-5.15,-2.51,-2.05,6.08
8.872416973114014,-5.33,-2.12,-2.46,6.24
8.882360935211182,-5.33,-1.54,-3.28,6.44
8.892320156097412,-4.92,-1.29,-3.67,6.27
8.902343034744263,-4.51,-0.76,-3.41,5.7
8.912461042404175,-1.4,5.54,-3.56,6.73
8.922379970550537,0.47,2.33,-2.21,3.24
8.9323410987854,2.41,1.13,-0.5,2.7
8.96941614151001,7.02,2.85,6.76,10.15
8.969865083694458,4.44,-0.44,5.28,6.91
8.9703049659729,-0.39,-1.01,-3.14,3.32
8.972223043441772,-3.63,0.97,-4.45,5.82
8.982240200042725,-3.21,1.84,-1.7,4.07
8.992130041122437,-1.73,1.57,-0.93,2.51
9.002187013626099,-1.73,2.22,-0.62,2.88
9.01224422454834,-2.52,2.37,0.0,3.45
9.022189140319824,-3.69,1.7,0.18,4.06
9.032246112823486,-5.05,1.15,-0.45,5.19
9.069931030273438,-5.25,1.28,-2.14,5.81
9.070414066314697,-3.81,0.97,-2.91,4.89
9.070884227752686,-2.6,1.18,-2.39,3.72
9.072046041488647,-4.0,2.39,-3.51,5.83
9.082045078277588,-4.51,-0.29,-4.76,6.56
9.091954231262207,-2.43,0.32,-3.21,4.03
9.102076053619385,-0.92,0.64,-1.14,1.59
9.11207389831543,-0.83,-0.83,-0.42,1.24
9.122044086456299,-0.16,-1.08,-0.93,1.43
9.131999015808105,0.48,-0.47,-0.78,1.02
9.169403076171875,-0.34,-0.26,0.61,0.74
9.16984510421753,-1.53,-0.53,1.16,1.99
9.170279026031494,-2.98,-0.75,0.88,3.19
9.171915054321289,-3.13,-0.88,1.02,3.4
9.182001113891602,-2.85,-0.98,1.18,3.23
9.191902160644531,-2.67,-0.7,0.99,2.93
9.201935052871704,-2.47,-0.1,0.72,2.57
9.211932182312012,-2.48,0.14,0.46,2.52
9.22189211845398,-2.55,0.17,0.27,2.56
9.231882095336914,-2.52,0.11,0.18,2.52
9.270155906677246,-1.9,0.04,-0.11,1.9
9.27060317993164,-1.21,-0.07,-0.73,1.41
9.271032094955444,-0.75,-0.02,-1.34,1.53
9.271745204925537,-0.3,0.3,-1.42,1.48
9.281829118728638,-0.08,0.45,-1.39,1.46
9.291948080062866,-0.57,0.24,-1.22,1.36
9.301652908325195,-1.2,0.1,-1.09,1.62
9.311828136444092,-1.18,0.08,-0.93,1.5
9.321765899658203,-0.57,-0.08,-0.54,0.78
9.331762075424194,-0.29,-0.05,-0.3,0.42
9.370521068572998,-0.2,0.1,0.16,0.27
9.370968103408813,-0.25,0.01,0.54,0.59
9.37142300605774,-0.33,0.04,0.52,0.61
9.371851921081543,-0.38,0.22,0.32,0.54
9.381646156311035,-0.1,0.0,0.07,0.12
9.391622066497803,0.29,0.1,-0.69,0.75
9.401615142822266,0.28,0.12,-1.23,1.26
9.411684036254883,-0.14,0.06,-1.2,1.2
9.4215989112854,-0.37,-0.17,-1.21,1.27
9.43163013458252,-0.44,-0.15,-1.25,1.33
9.441597938537598,-0.56,-0.4,-0.55,0.88
9.471029043197632,-0.67,0.14,0.1,0.69
9.471489906311035,-0.43,0.5,0.42,0.78
9.471918106079102,0.2,0.27,0.18,0.38
9.481575965881348,0.45,-0.12,-0.33,0.57
9.49158501625061,0.46,-0.05,-0.74,0.87
9.501551151275635,0.31,0.05,-0.74,0.8
9.511484146118164,-0.29,-0.02,-0.43,0.51
9.52141523361206,-0.68,0.13,-0.07,0.69
9.531371116638184,-0.57,-0.09,0.1,0.58
9.54148006439209,-0.37,-0.42,0.15,0.57
9.570064067840576,-0.21,-0.36,0.12,0.43
9.570494174957275,0.06,-0.15,0.21,0.26
9.571244239807129,-0.02,0.08,0.17,0.18
9.581334114074707,-0.13,0.36,0.32,0.49
9.591272115707397,0.09,0.37,0.03,0.38
9.60132122039795,0.55,0.01,-0.51,0.75
9.611339092254639,0.84,-0.32,-0.83,1.22
9.621262073516846,1.0,-0.45,-0.5,1.2
9.631268978118896,0.72,-0.08,-0.08,0.72
9.641263008117676,0.51,0.22,0.27,0.61
9.670161008834839,0.77,0.11,0.3,0.83
9.67058801651001,1.06,-0.17,-0.22,1.09
9.671075105667114,1.0,-0.29,-1.07,1.49
9.681215047836304,0.46,-0.41,-1.23,1.37
9.691144943237305,0.21,-0.34,-0.62,0.73
9.701157093048096,0.36,-0.21,-0.33,0.53
9.711112022399902,0.68,-0.15,-0.17,0.71
9.721082210540771,0.61,0.11,0.11,0.62
9.73108720779419,0.1,0.14,-0.12,0.2
9.741042137145996,0.15,0.02,-0.17,0.22
9.769779205322266,0.28,-0.08,-0.14,0.32
9.770210027694702,0.27,0.21,-0.42,0.54
9.770904064178467,-0.01,0.4,0.27,0.48
9.781068086624146,-0.21,0.27,0.82,0.88
9.790995121002197,0.17,0.08,0.57,0.6
9.800941944122314,0.45,0.13,0.27,0.54
9.811009883880615,0.34,0.1,-0.13,0.37
9.820960998535156,0.22,0.16,-0.51,0.57
9.830961227416992,-0.06,0.13,-0.63,0.64
9.840948104858398,-0.26,0.1,-0.71,0.76
9.870628118515015,-0.26,0.09,-0.56,0.62
9.871037006378174,-0.12,-0.01,-0.22,0.25
9.871458053588867,0.26,-0.1,0.45,0.52
9.88089108467102,0.65,0.06,1.01,1.2
9.890832901000977,1.07,0.24,1.38,1.76
9.900834083557129,1.22,0.25,1.22,1.74
9.910883903503418,0.67,0.08,0.92,1.14
9.920806884765625,-0.13,-0.14,0.71,0.73
9.930807113647461,-0.71,-0.07,0.23,0.74
9.940716028213501,-0.53,0.16,-0.3,0.62
9.970438957214355,0.25,0.28,-0.66,0.75
9.970868110656738,1.26,0.4,-0.72,1.5
9.971286058425903,2.22,0.55,-0.65,2.37
9.980706214904785,2.89,0.57,-0.49,2.98
9.990576028823853,3.27,0.57,-0.15,3.32
10.000469207763672,3.15,0.62,0.64,3.27
10.010647058486938,3.07,0.84,1.16,3.38
10.02058219909668,3.55,1.24,1.34,3.99
10.052879095077515,3.93,1.83,1.5,4.58
10.053291082382202,4.57,2.61,1.5,5.47
10.053689956665039,4.81,3.18,0.48,5.78
10.060665130615234,4.79,4.1,-0.14,6.3
10.070549011230469,5.5,4.94,0.73,7.42
10.08041000366211,5.83,5.15,1.66,7.95
10.090534210205078,5.34,5.29,0.35,7.52
10.100605964660645,4.84,6.63,-0.14,8.2
10.110527992248535,5.57,7.67,-0.69,9.5
10.120482921600342,6.94,8.71,-1.74,11.27
10.154211044311523,6.64,8.09,-1.9,10.63
10.15463399887085,4.78,6.4,-1.85,8.19
10.155056953430176,2.14,4.11,-1.34,4.82
10.160511016845703,-0.94,2.3,0.37,2.51
10.17034912109375,-2.71,-0.39,0.49,2.78
10.180500030517578,-0.25,-2.63,-0.22,2.65
10.190401077270508,4.89,-2.45,1.77,5.74
10.200371026992798,6.16,-0.57,3.85,7.28
10.210387229919434,8.47,-0.97,1.82,8.71
10.220322132110596,8.81,-2.07,3.9,9.85
10.253954887390137,7.89,-2.61,5.3,9.85
10.254376888275146,6.94,-3.71,4.89,9.26
10.254821062088013,6.67,-3.88,4.02,8.7
10.260272979736328,6.65,-3.55,3.79,8.43
10.270234107971191,6.46,-3.15,3.72,8.09
10.280257225036621,5.87,-2.75,3.82,7.52
10.290241003036499,4.92,-2.33,3.87,6.67
10.300076961517334,3.87,-2.01,3.87,5.83
10.310197114944458,2.98,-1.07,3.68,4.85
10.32020616531372,2.2,0.36,3.19,3.89
10.353868961334229,1.88,1.81,2.19,3.4
10.354295015335083,1.92,3.0,0.78,3.64
10.354756116867065,1.59,3.95,-0.24,4.26
10.360026121139526,0.87,4.85,-0.65,4.97
10.37005090713501,1.43,5.19,-1.38,5.55
10.380123138427734,0.36,5.05,-0.76,5.11
10.39004111289978,-3.31,4.37,-1.21,5.61
10.400090217590332,-7.9,4.8,-3.5,9.88
10.410022020339966,-11.86,4.59,-5.92,14.02
10.420121192932129,-11.47,4.02,-6.91,13.98
10.452238082885742,-9.62,4.12,-5.9,12.01
10.45267915725708,-6.98,2.03,-5.21,8.94
10.4531090259552,-6.72,-0.9,-5.34,8.63
10.459775924682617,-9.22,-3.3,-5.65,11.3
10.47006106376648,-11.4,-5.15,-5.73,13.75
10.47996211051941,-12.2,-5.81,-5.33,14.52
10.48992395401001,-9.28,1.94,-5.34,10.88
10.499948978424072,-4.89,5.0,-4.3,8.2
10.509679079055786,-1.68,-1.28,-1.99,2.9
10.52002501487732,4.44,-0.41,2.35,5.04
10.55279803276062,10.28,2.86,8.79,13.82
10.553234100341797,7.32,1.19,6.17,9.64
10.553654193878174,0.3,0.74,-3.49,3.58
10.559741973876953,-2.96,2.47,-5.51,6.72
10.56988000869751,-3.63,3.53,-2.78,5.77
10.579851150512695,-4.58,4.63,-2.18,6.86
10.589734077453613,-5.2,5.62,-4.07,8.67
10.599807024002075,-4.13,2.8,-4.35,6.61
10.609764099121094,-1.34,-0.84,-1.27,2.02
10.619737148284912,-2.39,0.07,-0.36,2.41
10.652484893798828,-7.55,-0.95,-4.23,8.7
10.65291690826416,-9.63,-0.92,-7.28,12.1
10.653335094451904,-6.72,-0.36,-3.6,7.63
10.659735202789307,-3.9,-0.78,-0.3,3.98
10.66959810256958,-1.44,-1.32,-0.7,2.07
10.67962121963501,0.57,-0.91,-0.52,1.19
10.689533233642578,1.04,0.47,0.25,1.16
10.69954800605774,0.44,1.06,-0.09,1.15
10.70984697341919,-0.84,0.57,0.72,1.24
10.719571113586426,-0.73,0.25,0.82,1.12
10.753220081329346,-0.05,-0.13,-0.38,0.4
10.753659009933472,-0.64,-0.47,-1.3,1.52
10.754106044769287,-2.34,-0.54,-0.81,2.53
10.759856224060059,-3.59,-0.47,0.3,3.63
10.769453048706055,-4.08,-0.53,1.03,4.24
10.779466152191162,-3.74,-0.34,0.85,3.85
10.789400100708008,-2.46,-0.15,0.15,2.46
10.799438953399658,-0.85,-0.16,-0.26,0.9
10.809338092803955,-0.24,-0.13,-0.35,0.44
10.819451093673706,-0.11,0.15,-0.5,0.53
10.853363990783691,-0.18,0.34,-0.31,0.49
10.85379695892334,-0.67,0.25,-0.37,0.8
10.85450005531311,-0.83,0.0,-0.93,1.24
10.859337091445923,-0.9,-0.28,-1.27,1.58
10.869387149810791,-0.98,0.0,-1.04,1.42
10.879333019256592,-0.75,0.21,-0.21,0.8
10.8893141746521,-0.61,0.28,0.14,0.68
10.899254083633423,-0.76,0.26,0.02,0.8
10.909281015396118,-0.9,0.1,-0.64,1.1
10.919226169586182,-0.4,-0.2,-0.86,0.96
10.953486919403076,0.02,0.01,-0.89,0.89
10.954252004623413,-0.07,0.09,-0.72,0.72
10.95468521118164,-0.22,0.08,-0.6,0.64
10.95914888381958,-0.36,0.03,-0.54,0.64
10.96916389465332,-0.55,0.13,-0.22,0.6
10.979147911071777,-0.3,0.11,0.31,0.44
10.989089965820312,-0.22,0.01,0.06,0.22
10.999109029769897,-0.02,-0.08,-0.32,0.33
11.009133100509644,-0.06,-0.14,-0.45,0.47
11.018971920013428,-0.36,-0.41,-0.7,0.88
11.053051948547363,-0.76,-0.25,-0.24,0.83
11.053507089614868,-0.99,-0.48,0.61,1.25
11.05424690246582,-1.0,0.0,0.86,1.31
11.059049129486084,-0.66,0.28,0.59,0.92
11.068982124328613,-0.3,0.17,-0.15,0.37
11.078938961029053,0.06,-0.06,-0.58,0.58
11.089009046554565,0.41,0.0,-0.33,0.52
11.099018096923828,0.19,0.04,0.13,0.23
11.108943939208984,-0.22,0.23,0.75,0.81
11.118935108184814,-0.33,0.14,0.84,0.91
11.153419971466064,-0.19,-0.16,0.09,0.26
11.154167175292969,0.35,-0.17,-0.21,0.44
11.154588222503662,0.92,-0.15,0.02,0.93
11.158865928649902,1.13,-0.14,-0.13,1.14
11.168804168701172,1.32,0.03,-0.25,1.34
11.17876410484314,1.63,0.12,-0.67,1.76
11.188836097717285,1.52,0.03,-1.06,1.85
11.198863983154297,1.12,-0.02,-1.06,1.54
11.208830118179321,0.7,-0.18,-0.83,1.1
11.218699932098389,0.31,-0.12,-0.17,0.37
11.25449514389038,0.06,-0.04,0.08,0.1
11.254941940307617,0.11,0.04,0.14,0.18
11.255383014678955,0.63,0.12,0.12,0.65
11.258694171905518,1.17,0.16,-0.29,1.21
11.268708229064941,1.0,0.08,-0.88,1.33
11.278683185577393,0.56,-0.05,-0.78,0.96
11.288716077804565,0.42,-0.01,-0.6,0.73
11.298693180084229,0.4,-0.01,-0.18,0.43
11.30866813659668,0.16,0.08,0.41,0.44
11.31865119934082,-0.18,0.17,0.91,0.94
11.3542160987854,-0.66,0.02,0.92,1.13
11.354659080505371,-1.0,0.01,0.79,1.27
11.35508394241333,-0.92,0.06,0.63,1.11
11.358548164367676,-0.8,-0.02,0.35,0.87
11.368565082550049,-0.66,-0.01,-0.03,0.66
11.378608226776123,-0.61,0.0,-0.31,0.68
11.388387203216553,-0.61,-0.04,-0.24,0.65
11.398576021194458,-0.6,0.09,-0.23,0.64
11.4085111618042,-0.55,0.1,-0.24,0.6
11.41852617263794,-0.19,0.08,-0.22,0.3
11.455044031143188,0.63,0.28,-0.19,0.71
11.455552101135254,0.74,0.4,0.03,0.84
11.456000089645386,0.41,0.37,-0.43,0.69
11.458420038223267,0.31,0.27,-0.72,0.82
11.468331098556519,0.43,0.05,-0.19,0.47
11.478405952453613,0.61,0.04,-0.06,0.61
11.488367080688477,0.98,0.01,0.07,0.98
11.498377084732056,1.37,-0.12,0.26,1.39
11.508352041244507,1.47,-0.09,0.2,1.48
11.518371105194092,1.61,-0.03,0.38,1.65
11.554087162017822,1.84,0.01,0.62,1.94
11.55451488494873,2.02,0.04,0.6,2.1
11.554933071136475,2.36,0.11,0.74,2.47
11.558319091796875,2.83,0.19,0.99,3.0
11.568327903747559,3.18,0.47,1.23,3.44
11.578256130218506,3.59,0.79,1.24,3.87
11.588222026824951,4.25,1.16,1.18,4.56
11.59843111038208,4.61,1.52,1.62,5.11
11.608184099197388,4.3,1.96,1.54,4.97
11.618093013763428,3.54,2.8,1.05,4.63
11.654930114746094,2.64,4.62,0.27,5.32
11.655363082885742,2.98,5.6,0.57,6.36
11.655786991119385,3.33,5.51,1.41,6.59
11.658108234405518,3.39,5.79,0.0,6.7
11.66809606552124,3.76,6.72,-0.72,7.73
11.67802095413208,4.82,6.79,-0.54,8.34
11.688090085983276,5.3,6.25,-0.57,8.21
11.698062896728516,4.21,5.2,-1.72,6.9
11.70802903175354,2.37,3.76,-2.13,4.92
11.718014240264893,0.72,1.61,-1.49,2.3
11.754515171051025,-0.81,-0.53,-0.36,1.03
11.754948139190674,0.74,-1.63,0.13,1.79
11.75537109375,3.18,-1.75,1.66,3.99
11.75791597366333,2.78,-0.52,3.04,4.15
11.767949104309082,6.52,-0.45,0.85,6.59
11.777842998504639,8.15,-0.66,1.75,8.36
11.787851095199585,7.52,-1.0,3.4,8.31
11.797922134399414,6.79,-2.34,3.66,8.06
11.80787706375122,6.54,-2.79,2.89,7.67
11.817907094955444,6.79,-2.16,2.61,7.58
11.855967044830322,6.61,-1.77,2.88,7.42
11.856403112411499,5.59,-1.76,2.82,6.5
11.856834888458252,4.55,-1.45,2.37,5.33
11.857748985290527,3.84,-0.97,1.98,4.42
11.867810010910034,3.46,-0.27,1.66,3.84
11.877653121948242,3.12,0.75,1.33,3.47
11.887710094451904,2.2,1.65,0.85,2.87
11.897727966308594,0.29,2.04,0.39,2.09
11.90769100189209,-1.15,2.11,-0.06,2.4
11.91773509979248,-1.91,2.45,-0.42,3.13
11.956049919128418,-2.23,2.89,-0.71,3.71
11.95648717880249,-2.43,3.4,-0.83,4.26
11.956916093826294,-2.98,3.55,-0.95,4.73
11.957596063613892,-3.63,2.92,-1.25,4.82
11.967624187469482,-3.92,2.1,-1.86,4.82
11.977487087249756,-4.03,1.58,-2.01,4.77
11.987581014633179,-3.3,1.34,-2.2,4.18
11.99760389328003,-3.58,1.97,-2.54,4.81
12.007555961608887,-4.28,2.61,-2.88,5.78
12.017575025558472,-4.9,1.95,-3.28,6.21
12.056526184082031,-5.83,-0.05,-3.56,6.83
12.056969165802002,-7.16,-1.81,-3.42,8.13
12.057393074035645,-8.68,-3.21,-3.27,9.81
12.057814121246338,-9.26,-3.87,-3.15,10.51
12.067458152770996,-8.97,-3.08,-3.13,9.98
12.077606201171875,-8.09,-2.11,-3.42,9.03
12.087440013885498,-6.68,-1.85,-3.53,7.77
12.097640991210938,-5.54,-2.16,-3.52,6.9
12.107471942901611,-5.04,-2.46,-3.1,6.4
12.117461204528809,-5.31,-2.45,-2.47,6.34
12.155930995941162,-4.69,2.3,-2.73,5.89
12.156360149383545,2.83,7.34,-2.46,8.24
12.156780004501343,12.94,5.97,3.85,14.76
12.157258987426758,16.21,2.16,16.06,22.92
12.167354106903076,7.35,-1.46,8.17,11.08
12.177680015563965,-3.24,-1.1,-3.95,5.22
12.187180995941162,-6.64,-0.23,-4.48,8.01
12.197312116622925,-3.88,1.35,-1.09,4.25
12.20726203918457,-0.66,3.12,-1.21,3.41
12.217245101928711,-0.07,4.48,-1.08,4.6
12.227237224578857,-2.26,4.95,-0.54,5.46
12.257697105407715,-4.98,3.69,-1.25,6.32
12.258119106292725,-5.06,1.0,-2.05,5.55
12.258540153503418,-3.16,-0.69,-1.44,3.54
12.267215013504028,-1.92,-1.29,-0.84,2.46
12.27711296081543,-1.92,-0.19,-0.43,1.97
12.28709602355957,-4.0,-0.17,-2.26,4.59
12.297175884246826,-5.49,-1.15,-4.47,7.17
12.307104110717773,-4.31,0.33,-3.88,5.8
12.317130088806152,-3.02,0.47,-1.52,3.41
12.327107906341553,-1.72,-0.14,-0.85,1.92
12.356828212738037,-0.35,-0.59,-0.58,0.89
12.35726022720337,-0.11,-0.4,0.04,0.41
12.357682228088379,-0.57,0.37,0.03,0.68
12.367046117782593,-1.3,0.37,0.15,1.35
12.376905918121338,-2.06,-0.06,0.71,2.17
12.386970043182373,-2.12,-0.51,0.7,2.29
12.396935939788818,-1.97,-0.69,0.76,2.22
12.406959056854248,-2.11,-0.52,0.72,2.28
12.416922092437744,-2.44,-0.24,0.43,2.48
12.426963090896606,-2.74,0.12,0.01,2.74
12.4570951461792,-2.65,0.27,-0.39,2.69
12.457523107528687,-1.95,0.25,-0.43,2.01
12.457942962646484,-1.16,0.17,-0.41,1.24
12.466917037963867,-0.75,0.07,-0.46,0.88
12.476830959320068,-0.39,0.04,-0.57,0.69
12.486722946166992,-0.22,0.02,-0.59,0.63
12.496837139129639,0.14,0.04,-0.95,0.96
12.506778240203857,0.05,0.22,-1.32,1.33
12.516861915588379,-0.64,-0.01,-1.1,1.27
12.52685022354126,-1.24,0.02,-0.59,1.37
12.557177066802979,-1.24,-0.02,-0.21,1.25
12.55758810043335,-0.7,-0.01,-0.18,0.72
12.558008193969727,-0.02,0.01,-0.34,0.34
12.566617965698242,0.43,-0.15,-0.53,0.69
12.576616048812866,0.07,-0.38,-0.57,0.68
12.586671113967896,-0.55,-0.25,-0.42,0.73
12.59672498703003,-0.82,-0.03,-0.16,0.83
12.606657028198242,-0.85,0.11,-0.17,0.87
12.616631031036377,-0.62,0.19,-0.44,0.78
12.6265230178833,-0.29,0.03,-0.73,0.78
12.65751314163208,-0.3,-0.1,-1.0,1.04
12.657938003540039,-0.41,-0.13,-1.21,1.28
12.658358097076416,-0.22,0.11,-1.08,1.1
12.66641092300415,0.01,0.28,-0.49,0.56
12.676351070404053,0.15,0.01,-0.21,0.25
12.686482906341553,0.06,-0.15,-0.43,0.45
12.696477890014648,-0.19,0.03,-0.64,0.66
12.706502914428711,-0.45,0.16,-0.35,0.59
12.716430187225342,-0.55,0.01,-0.15,0.57
12.72639513015747,-0.44,-0.14,-0.16,0.48
12.757788181304932,0.11,-0.24,-0.16,0.3
12.758202075958252,0.83,-0.44,-0.18,0.95
12.758622169494629,1.38,-0.57,-0.75,1.67
12.766294002532959,1.72,-0.5,-1.46,2.31
12.776347160339355,1.56,-0.41,-0.59,1.71
12.786235094070435,0.72,-0.02,-0.5,0.87
12.796257019042969,-0.19,0.29,-0.24,0.42
12.806239128112793,-0.54,0.32,0.52,0.81
12.816349983215332,-0.37,0.07,0.64,0.74
12.826373100280762,0.21,-0.09,0.46,0.51
12.857583999633789,0.76,-0.07,0.29,0.81
12.85801100730896,1.18,-0.1,0.11,1.18
12.858413219451904,1.08,-0.1,0.19,1.1
12.866265058517456,0.81,0.17,0.42,0.92
12.876161098480225,0.51,0.34,0.29,0.67
12.886228084564209,0.26,0.32,0.29,0.5
12.896282196044922,0.23,0.35,0.4,0.57
12.906251907348633,0.4,0.2,0.67,0.8
12.916286945343018,0.46,0.01,1.39,1.46
12.926220893859863,0.41,0.02,1.77,1.81
12.95793104171753,0.36,-0.07,1.4,1.44
12.958355903625488,0.42,-0.1,0.89,0.98
12.958771228790283,0.44,-0.03,0.26,0.51
12.966161012649536,0.1,0.07,-0.29,0.31
12.976071119308472,-0.39,0.05,-0.52,0.65
12.986110210418701,-0.75,0.08,-0.45,0.87
12.99606704711914,-0.83,0.23,-0.27,0.9
13.00606918334961,-0.61,0.11,0.06,0.62
13.016065120697021,-0.19,-0.04,0.02,0.19
13.026031017303467,0.43,0.08,-0.52,0.67
13.057566165924072,1.22,0.18,-0.7,1.41
13.057992935180664,1.52,0.13,-0.5,1.6
13.058409214019775,1.04,0.06,-0.37,1.1
13.066116094589233,0.31,-0.02,-0.15,0.34
13.07583999633789,-0.3,-0.09,0.25,0.4
13.085921049118042,-0.55,-0.08,0.4,0.68
13.09591293334961,-0.63,-0.04,0.45,0.77
13.10586404800415,-0.52,-0.08,0.33,0.62
13.115978240966797,-0.18,-0.13,0.09,0.23
13.12587022781372,0.09,-0.19,0.0,0.21
13.157654047012329,0.11,-0.33,-0.2,0.4
13.15808391571045,-0.15,-0.42,-0.41,0.6
13.15850305557251,-0.63,-0.37,-0.47,0.86
13.165760040283203,-1.04,-0.19,-0.3,1.09
13.175810098648071,-1.09,-0.06,-0.17,1.1
13.185769081115723,-0.86,0.01,-0.2,0.88
13.195723056793213,-0.53,0.05,-0.25,0.58
13.20570993423462,-0.11,0.1,-0.25,0.29
13.21577501296997,0.52,0.14,-0.12,0.55
13.225722074508667,1.13,0.12,0.26,1.16
13.25773310661316,1.4,0.01,0.75,1.58
13.258169174194336,1.29,-0.01,0.62,1.43
13.258591175079346,1.01,0.11,0.22,1.03
13.265669107437134,0.78,0.15,0.39,0.88
13.275567054748535,0.71,0.08,0.5,0.87
13.285530090332031,0.87,0.05,0.44,0.97
13.295419216156006,1.34,0.12,0.33,1.38
13.30541205406189,1.89,0.26,0.58,1.99
13.31552505493164,2.38,0.44,1.01,2.62
13.325454235076904,3.11,0.81,1.3,3.46
13.357927083969116,3.71,1.13,1.15,4.04
13.358357906341553,3.89,1.1,0.63,4.09
13.358773231506348,4.06,1.24,0.51,4.27
13.36549711227417,4.04,1.89,0.72,4.51
13.375463962554932,3.79,3.01,0.59,4.87
13.385601043701172,3.44,4.5,0.49,5.68
13.395289897918701,2.39,6.08,0.52,6.55
13.405436992645264,3.13,5.57,-1.1,6.48
13.415451049804688,3.84,5.44,-0.61,6.68
13.425374031066895,2.96,4.55,-0.72,5.47
13.458807945251465,2.4,2.52,-0.88,3.58
13.459240913391113,3.14,0.97,-0.37,3.3
13.459658145904541,4.07,0.77,1.01,4.26
13.46530818939209,5.0,0.94,1.61,5.33
13.475305080413818,7.21,0.59,1.25,7.34
13.485278129577637,7.37,-0.28,3.2,8.03
13.495355129241943,6.51,-1.3,4.33,7.92
13.505302906036377,6.04,-1.73,3.79,7.33
13.515305995941162,5.81,-1.26,2.7,6.52
13.52526307106018,5.46,-0.83,2.23,5.95
13.558847904205322,4.95,-0.72,2.32,5.51
13.559278011322021,4.55,-0.62,2.33,5.14
13.55971908569336,4.29,-0.25,2.14,4.8
13.565197944641113,3.76,0.39,1.89,4.22
13.575159072875977,2.76,0.97,1.57,3.32
13.585145950317383,1.6,1.43,1.11,2.41
13.59543514251709,0.82,1.74,0.5,1.98
13.605154991149902,0.58,1.95,-0.03,2.03
13.615195035934448,0.58,1.99,-0.23,2.08
13.625150203704834,0.35,1.84,-0.34,1.9
13.659337043762207,-0.54,1.7,-0.4,1.82
13.6600980758667,-1.73,1.51,-0.56,2.36
13.660521030426025,-2.6,1.26,-0.86,3.01
13.66503620147705,-2.89,1.12,-1.19,3.32
13.675000190734863,-2.76,1.03,-1.38,3.25
13.684935092926025,-2.82,1.0,-1.44,3.32
13.694922924041748,-3.3,0.77,-1.53,3.71
13.704967975616455,-3.81,0.47,-1.79,4.23
13.715043067932129,-4.08,0.31,-2.16,4.62
13.724952220916748,-4.22,0.13,-2.37,4.84
13.759287118911743,-4.15,-0.18,-2.41,4.8
13.76003122329712,-4.29,-0.56,-2.49,4.99
13.760459899902344,-4.56,-1.11,-2.59,5.36
13.764883041381836,-4.65,-1.64,-2.81,5.67
13.77487301826477,-4.64,-1.88,-2.95,5.81
13.784847021102905,-4.63,-2.01,-2.87,5.8
13.794826984405518,-4.75,-2.07,-2.93,5.95
13.804691076278687,-4.91,-1.97,-3.2,6.18
13.814838886260986,-5.09,-1.83,-3.34,6.35
13.824750900268555,-5.22,-1.6,-3.38,6.42
13.860093116760254,-5.33,-1.39,-3.52,6.53
13.860505104064941,-5.18,-1.42,-3.52,6.42
13.860919952392578,-4.94,-1.55,-3.18,6.07
13.8647620677948,-4.84,-1.3,-2.91,5.79
13.874626159667969,-0.83,5.83,-3.94,7.08
13.884665966033936,10.77,9.05,-0.48,14.07
13.894626140594482,19.37,7.25,14.39,25.19
13.90466022491455,14.9,-1.12,16.92,22.57
13.914654016494751,2.53,-2.46,1.66,3.89
13.924597024917603,-6.03,-4.07,-5.17,8.92
13.960007190704346,-5.98,-2.32,-3.11,7.12
13.960439205169678,-2.63,1.61,-0.29,3.09
13.96086311340332,-0.61,3.32,0.29,3.38
13.964599132537842,-1.4,3.35,0.41,3.65
13.974520206451416,-3.43,3.25,0.18,4.72
13.984551906585693,-4.76,2.66,-0.43,5.46
13.994499206542969,-4.5,1.85,-1.03,4.97
14.004485130310059,-3.09,1.14,-1.96,3.83
14.014502048492432,-1.74,0.42,-2.92,3.42
14.02442216873169,-0.81,-0.35,-2.83,2.96
14.060482025146484,-0.49,-1.2,-1.62,2.07
14.060922145843506,-1.02,-1.77,-0.26,2.05
14.0613431930542,-3.24,1.67,-0.39,3.66
14.064373970031738,-6.4,-0.28,-4.44,7.79
14.074292182922363,-6.6,0.52,-6.2,9.07
14.084379196166992,-3.57,2.3,-3.22,5.32
14.094368934631348,-0.47,0.48,-1.29,1.45
14.104305028915405,1.07,-0.74,-0.79,1.52
14.114320039749146,1.62,-1.1,-0.63,2.05
14.124310970306396,1.44,-0.92,-0.08,1.71
14.160158157348633,0.44,-0.47,0.59,0.87
14.160587072372437,-1.46,-0.05,0.42,1.52
14.161009073257446,-2.49,0.17,1.11,2.73
14.164292097091675,-2.72,0.11,1.85,3.29
14.174252986907959,-2.94,-0.3,1.45,3.29
14.184210062026978,-3.98,-0.77,1.66,4.38
14.194231033325195,-4.69,-0.35,1.74,5.01
14.204148054122925,-4.13,0.14,0.92,4.23
14.214237213134766,-2.52,0.06,0.06,2.52
14.224162101745605,-1.09,-0.11,-0.46,1.18
14.260557174682617,-0.52,-0.05,-1.06,1.18
14.260984897613525,-0.48,-0.02,-1.28,1.36
14.261406898498535,-0.72,0.2,-1.02,1.26
14.264072895050049,-0.85,0.38,-0.85,1.26
14.274145126342773,-0.65,0.28,-1.03,1.24
14.284049034118652,-0.3,0.15,-1.32,1.36
14.29405689239502,-0.06,0.16,-1.42,1.43
14.30406904220581,-0.19,0.1,-1.27,1.28
14.314066886901855,-0.25,0.05,-0.81,0.84
14.32408618927002,-0.31,0.09,-0.53,0.62
14.360966205596924,-0.37,-0.03,-0.56,0.67
14.361392974853516,-0.03,-0.1,0.05,0.11
14.361810207366943,0.39,0.03,0.63,0.74
14.363905906677246,0.31,-0.01,0.44,0.53
14.37385892868042,0.26,0.05,-0.1,0.28
14.38390302658081,0.24,0.03,-0.71,0.75
14.393877983093262,0.35,-0.03,-0.97,1.03
14.403862953186035,0.23,0.03,-0.64,0.68
14.413904190063477,0.06,0.1,-0.21,0.24
14.423922061920166,0.03,0.14,-0.13,0.19
14.460547924041748,0.05,0.12,-0.43,0.44
14.46097993850708,0.27,0.02,-0.74,0.78
14.46139907836914,0.38,-0.13,-0.59,0.71
14.463795185089111,0.44,-0.07,-0.14,0.46
14.473773956298828,0.24,0.02,-0.04,0.24
14.483776092529297,-0.31,0.05,-0.87,0.92
14.49369502067566,-0.47,0.09,-1.12,1.21
14.503719091415405,-0.27,-0.07,-0.9,0.94
14.51358699798584,0.16,-0.27,-0.15,0.34
14.523669004440308,0.44,-0.17,0.53,0.7
14.560088157653809,0.5,-0.03,0.7,0.86
14.56052017211914,0.62,0.03,0.43,0.75
14.560941219329834,0.5,-0.05,0.16,0.52
14.563551902770996,-0.08,-0.02,-0.12,0.14
14.573610067367554,-0.4,0.0,-0.03,0.4
14.583609104156494,-0.65,-0.2,0.26,0.72
14.593591213226318,-0.56,-0.08,0.09,0.57
14.603529930114746,-0.19,0.02,0.14,0.23
14.613470077514648,-0.05,-0.05,0.43,0.43
14.623548984527588,-0.24,-0.03,0.31,0.39
14.660275936126709,-0.37,0.05,0.15,0.4
14.660705089569092,-0.32,-0.04,0.05,0.32
14.661123037338257,-0.28,0.08,-0.09,0.3
14.663693904876709,0.1,0.15,-0.26,0.31
14.673432111740112,0.64,0.07,-0.17,0.66
14.683448076248169,0.88,0.1,-0.04,0.88
14.693393230438232,0.81,-0.03,-0.07,0.81
14.703408002853394,0.44,-0.07,-0.19,0.48
14.713301181793213,-0.01,0.01,-0.09,0.09
14.723414897918701,-0.43,-0.12,0.4,0.59
14.760322093963623,-0.8,-0.03,0.9,1.2
14.760749101638794,-0.66,0.05,0.71,0.97
14.761166095733643,-0.26,0.1,0.19,0.33
14.763175010681152,0.29,0.2,-0.24,0.42
14.773276090621948,1.03,0.29,-0.45,1.16
14.783306121826172,1.71,0.26,-0.85,1.92
14.793259143829346,1.77,0.24,-1.12,2.1
14.803258895874023,1.51,0.34,-0.6,1.66
14.81322717666626,1.65,0.19,0.21,1.67
14.823170185089111,2.15,0.13,0.56,2.22
14.860432147979736,2.55,0.12,0.52,2.6
14.860857963562012,2.5,-0.07,0.77,2.61
14.861277103424072,2.35,-0.13,1.33,2.7
14.86326003074646,2.52,-0.05,1.9,3.15
14.873119115829468,3.03,0.21,2.3,3.8
14.883193969726562,3.99,0.31,2.47,4.7
14.893070220947266,4.57,0.71,2.08,5.07
14.902966976165771,4.47,1.26,1.82,4.98
14.913307189941406,4.12,1.51,0.87,4.47
14.923068046569824,2.67,2.2,-0.14,3.46
14.960689067840576,0.96,3.45,-0.03,3.58
14.961119174957275,1.12,2.99,1.86,3.69
14.961536884307861,0.97,2.14,1.95,3.05
14.963308095932007,0.57,2.04,1.04,2.35
14.97293996810913,0.65,2.52,1.03,2.79
14.982991218566895,1.3,3.11,1.05,3.53
14.992885112762451,2.26,3.98,0.72,4.63
15.002920150756836,3.35,4.93,0.43,5.97
15.012836933135986,4.19,5.26,0.5,6.74
15.022916078567505,4.14,4.78,0.29,6.33
15.060408115386963,3.19,4.13,-0.72,5.26
15.060833930969238,2.05,3.29,-1.85,4.29
15.061252117156982,0.66,2.06,-2.03,2.96
15.062886238098145,-0.96,0.33,-1.5,1.81
15.072776079177856,-1.58,-1.05,-0.73,2.03
15.082816123962402,0.23,-1.34,-0.12,1.36
15.092804908752441,3.13,-1.88,1.0,3.78
15.102816104888916,3.72,-2.38,2.56,5.1
15.112773895263672,3.58,-1.75,0.56,4.02
15.122773170471191,5.52,-2.06,0.06,5.89
15.160607099533081,6.33,-1.86,2.54,7.06
15.161034107208252,6.78,-2.26,3.43,7.92
15.161453008651733,6.74,-2.76,3.33,8.0
15.162808895111084,6.56,-2.66,3.1,7.72
15.172693014144897,6.34,-2.13,2.87,7.27
15.182699203491211,6.24,-1.58,2.58,6.93
15.19264006614685,5.92,-1.11,2.48,6.51
15.20264196395874,5.1,-0.6,2.47,5.69
15.21269416809082,4.01,0.11,2.18,4.56
15.222658157348633,2.97,0.78,1.65,3.48
15.260624885559082,2.22,1.48,1.02,2.85
15.261052131652832,1.53,2.14,0.31,2.64
15.261467933654785,0.58,2.61,-0.23,2.68
15.262464046478271,-0.51,3.05,-0.72,3.17
15.272476196289062,-0.43,3.36,-1.38,3.65
15.282523155212402,-0.14,3.82,-1.39,4.06
15.292342185974121,-3.0,3.85,-0.29,4.88
15.302472114562988,-3.98,2.78,-0.83,4.92
15.312453031539917,-3.78,2.2,-1.24,4.54
15.32241702079773,-3.29,1.87,-1.28,3.99
15.361105918884277,-2.8,1.41,-1.03,3.29
15.36153507232666,-2.78,0.93,-0.68,3.0
15.361970901489258,-3.21,0.6,-0.81,3.36
15.362396240234375,-3.54,0.46,-1.05,3.72
15.372373104095459,-3.46,0.58,-0.89,3.61
15.38236403465271,-3.5,0.53,-0.47,3.57
15.392306089401245,-2.83,0.49,-0.76,2.97
15.402335166931152,-2.72,0.12,-2.17,3.48
15.41225814819336,-4.06,-0.72,-3.34,5.3
15.422137022018433,-5.81,-2.18,-2.83,6.82
15.461136102676392,-5.59,-3.12,-1.78,6.64
15.461566925048828,-4.7,-2.35,-2.22,5.7
15.46201205253601,-5.13,-1.79,-3.22,6.31
15.462430000305176,-5.12,0.83,-3.48,6.24
15.472115993499756,-1.96,5.37,-3.42,6.66
15.482180118560791,-4.2,-0.45,-1.82,4.59
15.492119073867798,-3.72,-3.01,-2.22,5.27
15.50220012664795,3.79,0.54,-0.29,3.83
15.512134075164795,7.92,2.71,4.76,9.62
15.522141933441162,5.3,1.88,2.23,6.04
15.56145715713501,-0.76,1.59,-3.31,3.74
15.561907052993774,-4.45,1.65,-2.82,5.52
15.562334060668945,-4.04,1.6,-1.34,4.54
15.562754154205322,-3.54,2.3,-1.27,4.4
15.572175025939941,-3.59,2.93,-0.81,4.7
15.582097053527832,-3.99,2.37,-0.51,4.66
15.592000007629395,-3.85,0.81,-0.95,4.04
15.602042198181152,-2.69,-0.25,-1.06,2.9
15.611982107162476,-2.18,-0.57,-0.79,2.38
15.621957063674927,-4.2,1.91,-1.56,4.87
15.661951065063477,-6.26,-0.32,-4.24,7.56
15.662381172180176,-4.86,-0.3,-4.44,6.58
15.66280221939087,-1.43,0.81,-1.79,2.43
15.663222074508667,-0.28,-0.98,0.96,1.4
15.671955108642578,0.0,-1.79,0.78,1.95
15.681884050369263,0.29,-0.22,-0.56,0.66
15.691885948181152,0.07,1.5,-0.67,1.64
15.701948165893555,0.39,0.25,0.49,0.67
15.711934089660645,-0.79,-0.48,0.75,1.19
15.722001075744629,-1.9,-0.78,0.07,2.05
15.761826038360596,-2.86,-0.6,-0.65,2.99
15.762255191802979,-3.26,-0.08,-1.41,3.55
15.762676239013672,-3.1,0.04,-1.49,3.43
15.763094902038574,-2.49,-0.08,-0.39,2.52
15.771714210510254,-1.64,-0.38,0.38,1.72
15.781765937805176,-1.28,-0.58,0.56,1.51
15.791707992553711,-1.05,-0.16,-0.07,1.06
15.801727056503296,-0.3,0.45,-0.35,0.64
15.811686038970947,0.16,0.59,-0.25,0.66
15.821655035018921,-0.09,0.21,-0.61,0.65
15.861745119094849,-1.04,0.05,-0.61,1.2
15.86214303970337,-1.81,0.05,-0.36,1.84
15.862543106079102,-2.3,0.13,-0.03,2.3
15.862961053848267,-2.11,-0.06,0.2,2.12
15.871586084365845,-1.65,-0.14,0.1,1.65
15.881570100784302,-1.34,-0.01,-0.41,1.4
15.891493082046509,-0.87,0.1,-0.87,1.23
15.901628017425537,-0.4,-0.04,-1.32,1.37
15.911452054977417,0.11,0.11,-1.25,1.25
15.921396017074585,0.3,0.23,-0.94,1.01
15.961648941040039,0.11,0.22,-0.74,0.77
15.962080955505371,-0.19,0.08,-0.81,0.83
15.96250295639038,-0.17,0.07,-1.0,1.01
15.962921142578125,0.09,-0.19,-1.11,1.12
15.971472024917603,0.1,-0.03,-0.29,0.3
15.981296062469482,-0.15,0.0,0.21,0.25
15.991340160369873,-0.06,0.11,0.12,0.17
16.00141406059265,0.11,-0.25,-0.14,0.3
16.01135802268982,0.08,-0.24,-0.74,0.78
16.021225929260254,0.16,-0.08,-0.79,0.81
16.061368942260742,0.18,-0.04,-0.35,0.39
16.06180191040039,0.01,0.07,-0.15,0.16
16.06222105026245,0.07,0.04,0.06,0.1
16.062635898590088,0.08,0.0,-0.02,0.08
16.071190118789673,-0.13,0.08,-0.54,0.56
16.08100414276123,0.1,0.12,-0.32,0.35
16.09122896194458,0.22,0.02,0.11,0.24
16.101263999938965,0.13,-0.1,0.17,0.23
16.111227989196777,0.53,-0.18,0.53,0.77
16.121294021606445,0.67,-0.03,0.75,1.0
16.161427974700928,0.4,0.01,0.77,0.86
16.161855220794678,-0.02,-0.28,0.91,0.95
16.162282943725586,-0.64,-0.31,0.78,1.05
16.16270112991333,-0.6,-0.2,0.74,0.97
16.171207904815674,-0.01,-0.21,0.54,0.57
16.18119502067566,0.71,-0.12,-0.06,0.72
16.1910982131958,1.09,-0.08,-0.3,1.13
16.20114803314209,0.96,-0.07,-0.23,0.98
16.211077213287354,0.65,-0.11,-0.11,0.66
16.221052169799805,0.38,-0.06,-0.01,0.38
16.26213002204895,0.12,0.11,0.12,0.2
16.26255989074707,0.0,0.26,-0.05,0.26
16.26297903060913,0.22,0.31,-0.03,0.38
16.26339602470398,0.64,0.24,0.0,0.68
16.27099323272705,0.86,0.15,-0.22,0.9
16.281198978424072,0.81,0.2,-0.67,1.07
16.290911197662354,0.35,0.1,-0.69,0.78
16.300958156585693,-0.3,0.12,-0.35,0.47
16.31092405319214,-0.87,0.09,0.07,0.87
16.32089614868164,-1.1,0.04,0.08,1.1
16.361928939819336,-0.88,0.05,-0.18,0.89
16.362348079681396,-0.51,0.07,-0.18,0.54
16.362755060195923,-0.22,0.17,-0.26,0.38
16.363173007965088,-0.04,0.1,-0.56,0.57
16.37082815170288,-0.05,0.01,-0.56,0.56
16.380770206451416,-0.1,0.13,-0.54,0.56
16.3907790184021,0.18,0.43,-0.44,0.64
16.40082311630249,0.86,0.67,-0.3,1.13
16.410768032073975,1.88,0.63,-0.05,1.98
16.420773029327393,2.98,0.22,0.65,3.05
16.430734157562256,3.75,-0.3,1.38,4.0
16.461824893951416,4.05,-0.32,1.89,4.48
16.462252140045166,3.79,0.07,1.99,4.28
16.462672233581543,3.55,0.33,1.92,4.04
16.47062110900879,3.54,0.53,1.59,3.91
16.48059892654419,3.58,0.63,1.16,3.81
16.490554094314575,3.42,0.77,0.72,3.57
16.50060796737671,2.71,0.64,0.28,2.79
16.51064109802246,1.56,0.56,-0.12,1.66
16.52065420150757,0.41,1.46,-0.27,1.54
16.53062391281128,0.28,3.05,0.09,3.06
16.561567068099976,1.1,2.76,1.11,3.17
16.561997890472412,1.46,2.08,1.34,2.87
16.56241512298584,1.33,2.09,1.21,2.75
16.570602893829346,1.57,2.38,1.01,3.02
16.580501079559326,2.16,2.86,0.99,3.71
16.590540885925293,2.76,3.28,0.87,4.37
16.600489139556885,3.01,3.6,0.68,4.74
16.610475063323975,2.78,4.14,0.2,4.99
16.62049102783203,2.74,4.68,-0.4,5.43
16.63048505783081,2.96,4.57,-0.76,5.49
16.662149906158447,2.81,4.24,-0.71,5.13
16.662588119506836,2.21,2.44,-0.58,3.34
16.663008213043213,2.08,0.46,-0.73,2.25
16.670414924621582,2.97,0.35,-0.4,3.01
16.68032217025757,4.47,1.38,0.68,4.72
16.690336227416992,4.26,1.3,1.49,4.69
16.700310230255127,5.09,-0.5,0.27,5.12
16.710397005081177,6.04,-0.79,0.09,6.09
16.7204270362854,5.91,-0.76,1.45,6.13
16.73024892807007,6.07,-1.04,2.08,6.5
16.762195110321045,5.93,-0.92,2.24,6.4
16.762622117996216,5.62,-0.73,2.34,6.13
16.763047218322754,4.91,-0.66,2.53,5.56
16.770246982574463,4.0,-0.34,2.59,4.77
16.780225038528442,3.36,-0.24,2.47,4.17
16.790075063705444,3.23,-0.27,2.31,3.98
16.800157070159912,3.2,-0.15,2.29,3.93
16.810128211975098,3.07,0.25,2.29,3.83
16.820175170898438,2.48,0.72,2.08,3.31
16.83010721206665,1.47,1.09,1.61,2.43
16.861987113952637,0.46,1.32,0.93,1.67
16.862414121627808,-0.23,1.51,0.43,1.58
16.86283302307129,-0.81,1.57,0.24,1.78
16.87014389038086,-1.44,1.61,0.13,2.16
16.880000114440918,-2.33,1.84,-0.08,2.97
16.889851093292236,-3.25,1.61,-0.38,3.64
16.900023937225342,-3.64,1.05,-0.84,3.88
16.909982204437256,-3.36,0.77,-1.26,3.67
16.92003607749939,-2.89,0.83,-1.73,3.46
16.92997908592224,-2.45,1.09,-2.38,3.58
16.96229910850525,-2.7,1.71,-2.69,4.17
16.962727069854736,-4.26,1.94,-2.72,5.41
16.9631450176239,-5.43,1.31,-3.18,6.42
16.969944953918457,-6.08,0.65,-3.51,7.05
16.979839086532593,-6.36,-0.19,-3.29,7.16
16.989727020263672,-6.22,-1.15,-2.73,6.88
16.999815940856934,-6.16,-1.67,-2.56,6.87
17.00980305671692,-6.35,-2.08,-2.45,7.11
17.044206142425537,-6.16,-2.7,-2.22,7.08
17.04494619369507,-5.79,-2.74,-2.22,6.77
17.045331954956055,-5.79,-2.36,-2.5,6.73
17.04983401298523,-5.83,-1.89,-2.56,6.64
17.059802055358887,-3.82,4.02,-3.31,6.45
17.069751024246216,1.61,4.11,-1.83,4.77
17.07971715927124,6.05,3.36,1.68,7.12
17.08968496322632,11.23,3.78,9.75,15.34
17.099740028381348,8.76,-1.13,8.47,12.23
17.109679222106934,1.89,-1.38,-2.15,3.17
17.146324157714844,-3.29,-0.01,-4.5,5.57
17.146749019622803,-4.42,0.89,-2.45,5.13
17.14716601371765,-3.35,1.18,-1.62,3.9
17.14968490600586,-2.33,1.39,-1.36,3.03
17.15961503982544,-1.67,0.22,-0.26,1.7
17.1695818901062,-2.02,-0.99,0.12,2.25
17.179452896118164,-3.49,-0.38,-0.54,3.55
17.18960404396057,-5.06,1.56,-1.29,5.44
17.199538230895996,-5.78,3.32,-1.88,6.92
17.20957612991333,-5.6,2.32,-2.21,6.45
17.245580196380615,-5.18,1.82,-1.8,5.77
17.246013164520264,-5.37,0.89,-3.46,6.44
17.24643611907959,-3.96,-0.01,-4.6,6.06
17.24936604499817,-0.7,0.93,-2.84,3.06
17.259427070617676,0.45,-0.1,-0.43,0.63
17.269476890563965,-0.18,-1.29,0.45,1.37
17.279364109039307,-1.13,-1.04,0.35,1.57
17.28926706314087,-2.02,0.09,-0.33,2.04
17.299267053604126,-2.45,0.76,-0.2,2.57
17.309380054473877,-1.71,0.34,0.29,1.76
17.3456768989563,-1.21,-0.69,0.97,1.69
17.346121072769165,-1.56,-0.93,1.32,2.24
17.346540927886963,-2.37,-0.68,1.15,2.72
17.34922695159912,-3.04,-0.39,0.82,3.17
17.359384059906006,-2.82,0.06,0.37,2.84
17.369261026382446,-1.7,0.18,0.08,1.71
17.379210948944092,-0.66,-0.12,-0.23,0.7
17.38926410675049,-0.25,-0.23,-0.79,0.85
17.39912509918213,-0.71,-0.12,-0.74,1.03
17.40916919708252,-1.12,0.28,-0.51,1.26
17.44547414779663,-0.9,0.36,-0.54,1.1
17.445905208587646,-0.41,0.18,-0.66,0.79
17.446330070495605,-0.34,0.15,-0.82,0.9
17.44901704788208,-0.62,0.04,-0.83,1.03
17.459123134613037,-0.72,0.01,-0.75,1.03
17.469114065170288,-0.71,0.03,-0.63,0.94
17.479071140289307,-0.48,-0.04,-0.58,0.75
17.489134073257446,-0.19,0.01,-0.59,0.61
17.49901294708252,-0.2,0.03,-0.61,0.64
17.50906205177307,-0.35,-0.1,-0.59,0.69
17.54542303085327,-0.33,-0.01,-0.74,0.81
17.545851230621338,-0.28,0.07,-0.57,0.63
17.546274185180664,-0.33,0.13,-0.35,0.49
17.549005031585693,0.03,0.04,-0.2,0.2
17.558956146240234,-0.07,-0.02,-0.36,0.36
17.569371223449707,-0.4,-0.36,-0.15,0.55
17.579007148742676,-0.63,-0.01,0.16,0.65
17.58899211883545,-0.56,0.03,0.25,0.61
17.599092960357666,-0.17,-0.03,-0.05,0.17
17.608898162841797,0.01,0.02,-0.52,0.52
17.645336151123047,0.05,-0.03,-0.83,0.83
17.64577293395996,0.02,-0.15,-0.75,0.76
17.646201133728027,-0.24,0.17,-0.43,0.52
17.64908218383789,-0.51,0.41,0.08,0.65
17.658845901489258,-0.82,0.16,0.34,0.9
17.668804168701172,-0.75,-0.22,0.19,0.8
17.678778171539307,-0.58,-0.01,-0.45,0.73
17.688844203948975,-0.3,0.09,-0.92,0.97
17.698784112930298,0.18,0.17,-1.07,1.09
17.708771228790283,0.86,0.13,-0.69,1.11
17.74538516998291,1.75,0.12,-0.5,1.82
17.745810985565186,2.43,0.06,-0.58,2.49
17.746231079101562,2.16,-0.2,-0.36,2.19
17.748734951019287,1.23,-0.7,-0.29,1.44
17.758780002593994,0.49,-0.81,-0.54,1.08
17.76871395111084,0.6,-0.13,-0.59,0.85
17.778697967529297,0.86,-0.15,-0.27,0.91
17.788691997528076,0.9,-0.29,-0.67,1.15
17.798698902130127,1.03,-0.35,-0.59,1.23
17.808584213256836,0.68,-0.52,-0.41,0.94
17.845923900604248,0.15,-0.02,-0.15,0.21
17.84635591506958,0.05,0.42,0.66,0.78
17.846774101257324,0.09,0.51,0.91,1.04
17.848509073257446,-0.1,0.42,0.56,0.7
17.85850191116333,-0.36,0.15,0.53,0.65
17.86848211288452,-0.45,0.09,0.45,0.64
17.878372192382812,-0.12,0.17,0.65,0.68
17.88846707344055,0.27,0.14,0.91,0.95
17.89846897125244,0.25,0.01,0.67,0.71
17.908358097076416,0.02,-0.03,0.05,0.06
17.94581890106201,-0.34,-0.15,-0.39,0.53
17.946235179901123,-0.75,-0.12,-0.39,0.85
17.946638107299805,-0.98,0.03,0.06,0.98
17.948395013809204,-0.98,0.1,0.51,1.1
17.958348035812378,-0.8,-0.05,0.67,1.04
17.968342065811157,-0.34,-0.04,0.65,0.73
17.978354930877686,0.47,0.07,0.63,0.78
17.988375186920166,1.02,0.13,0.53,1.15
17.998334884643555,0.93,0.06,0.23,0.95
18.00837206840515,0.65,0.03,0.01,0.65
18.045791149139404,0.41,0.13,-0.17,0.46
18.04621696472168,-0.04,0.31,-0.33,0.45
18.04663610458374,-0.52,0.27,0.04,0.58
18.048200130462646,-0.81,0.12,0.19,0.84
18.05819797515869,-0.75,0.15,-0.06,0.76
18.068156003952026,-0.38,0.14,-0.12,0.42
18.078208923339844,0.12,0.11,-0.17,0.23
18.088179111480713,0.76,0.19,-0.35,0.85
18.098191022872925,1.22,0.27,-0.66,1.41
18.10822820663452,1.52,0.3,-0.92,1.8
18.146918058395386,1.77,0.34,-0.75,1.95
18.14733123779297,2.09,0.34,-0.24,2.13
18.147757053375244,2.35,0.28,0.32,2.38
18.14817714691162,2.74,0.27,1.0,2.92
18.158127069473267,3.12,0.45,1.13,3.34
18.168046951293945,3.3,0.72,0.98,3.51
18.178064107894897,3.31,0.79,0.93,3.52
18.188066959381104,3.36,0.73,0.8,3.53
18.197951078414917,3.32,0.82,0.71,3.49
18.208003044128418,2.92,1.06,0.57,3.15
18.24601697921753,2.42,1.85,0.46,3.08
18.246438026428223,2.01,3.37,0.79,4.0
18.246851921081543,2.51,4.39,0.53,5.08
18.247855186462402,3.16,4.87,1.53,6.0
18.257840156555176,3.48,5.22,2.01,6.58
18.26780104637146,4.02,5.92,1.37,7.28
18.2777681350708,4.09,6.09,0.97,7.39
18.28777503967285,3.4,5.42,0.62,6.42
18.297722101211548,2.25,4.94,-0.76,5.48
18.307734966278076,1.96,4.62,-1.7,5.29
18.346578121185303,2.09,3.51,-2.2,4.63
18.347002029418945,1.11,1.28,-1.68,2.38
18.347445011138916,0.6,-0.49,-0.66,1.01
18.34786605834961,2.08,-0.8,0.41,2.26
18.357805013656616,1.91,-1.13,2.36,3.23
18.36779499053955,4.41,-1.06,0.94,4.63
18.37769317626953,7.88,-0.26,0.83,7.92
18.387804985046387,8.56,-0.19,3.23,9.15
18.397703170776367,8.49,-1.08,4.19,9.52
18.407692909240723,8.0,-1.53,3.64,8.92
18.446600914001465,7.55,-1.19,3.18,8.27
18.447038173675537,6.9,-0.95,3.32,7.71
18.447474002838135,5.94,-0.97,3.28,6.85
18.447891235351562,5.01,-0.71,2.73,5.74
18.457579135894775,4.4,-0.38,2.13,4.9
18.46761989593506,4.14,0.17,1.75,4.49
18.47743511199951,3.5,0.92,1.43,3.89
18.4875590801239,2.19,1.46,0.76,2.73
18.497572898864746,0.83,1.87,-0.09,2.04
18.507680892944336,-0.38,2.22,-0.7,2.35
18.547118186950684,-1.18,2.61,-1.03,3.04
18.547551155090332,-1.81,2.75,-1.29,3.53
18.547975063323975,-2.52,2.69,-1.42,3.95
18.548391103744507,-3.28,2.23,-1.53,4.25
18.557460069656372,-3.67,1.53,-1.62,4.29
18.567475080490112,-3.4,1.09,-1.69,3.95
18.577360153198242,-2.93,0.91,-1.88,3.59
18.58744502067566,-2.75,0.72,-2.02,3.48
18.59734296798706,-2.83,0.26,-2.21,3.6
18.60722017288208,-2.56,0.07,-2.69,3.71
18.647568225860596,-4.08,-0.02,-2.35,4.7
18.64800500869751,-4.41,-0.22,-2.58,5.11
18.648431062698364,-4.52,0.08,-3.16,5.51
18.648850917816162,-4.36,0.44,-3.42,5.55
18.65738010406494,-4.45,0.15,-3.21,5.48
18.667153120040894,-4.47,-0.59,-2.87,5.34
18.67720103263855,-4.2,-1.36,-2.29,4.97
18.687318086624146,-3.89,-1.82,-1.75,4.63
18.697206020355225,-3.76,-2.13,-1.71,4.64
18.707272052764893,-4.15,-2.51,-2.02,5.25
18.747868061065674,-4.92,-2.52,-2.5,6.06
18.748298168182373,-5.26,-0.18,-2.96,6.03
18.748717069625854,-2.17,4.89,-3.24,6.25
18.74914312362671,-0.13,2.03,-0.55,2.1
18.757194995880127,-1.49,0.47,1.64,2.26
18.76696491241455,1.28,0.91,1.57,2.22
18.777075052261353,5.2,1.18,4.6,7.04
18.787103176116943,5.55,-0.41,5.08,7.53
18.79706907272339,1.74,-0.11,-0.9,1.96
18.807144165039062,-3.38,1.25,-3.26,4.85
18.847286224365234,-5.62,1.07,-1.8,5.99
18.84771704673767,-4.09,1.49,-0.37,4.36
18.84813904762268,-2.53,1.92,0.0,3.17
18.848556995391846,-2.69,1.87,0.24,3.28
18.85692310333252,-3.54,1.68,-0.28,3.92
18.867013931274414,-2.27,0.27,-1.53,2.75
18.877021074295044,-1.92,2.76,-2.39,4.12
18.88698410987854,-5.77,0.72,-5.72,8.15
18.896867036819458,-9.15,-0.52,-5.12,10.49
18.90702509880066,-7.78,0.33,1.48,7.92
18.94773817062378,-4.43,-1.23,3.78,5.95
18.948169231414795,-2.2,-1.52,0.62,2.74
18.948601007461548,-0.3,-1.82,-2.46,3.07
18.94901990890503,0.53,-2.05,-1.57,2.63
18.95683002471924,-0.07,-0.3,-0.36,0.47
18.967056035995483,-1.39,2.23,-0.13,2.63
18.976879119873047,-1.93,2.11,-0.48,2.89
18.986810207366943,-2.17,0.03,-0.23,2.18
18.996806144714355,-2.4,-0.83,-0.33,2.56
19.00682306289673,-2.82,-0.4,-0.04,2.84
19.04739809036255,-2.28,-0.02,0.78,2.4
19.0485520362854,-1.74,0.13,0.26,1.76
19.04897904396057,-1.85,0.01,-0.53,1.92
19.049402236938477,-1.74,-0.02,-1.27,2.15
19.056702136993408,-0.83,0.03,-1.51,1.72
19.06666898727417,-0.1,-0.05,-0.97,0.97
19.07656192779541,-0.14,-0.01,-0.54,0.55
19.086623191833496,-0.48,0.06,-0.35,0.59
19.096609115600586,-0.83,-0.03,-0.33,0.89
19.106625080108643,-0.93,-0.19,-0.2,0.97
19.116591930389404,-0.85,-0.18,-0.18,0.88
19.148518085479736,-0.54,-0.02,-0.19,0.57
19.14899706840515,-0.37,0.15,-0.36,0.53
19.149444103240967,-0.53,0.0,-0.56,0.77
19.156588077545166,-0.72,-0.08,-0.52,0.89
19.166523933410645,-0.63,-0.07,-0.58,0.85
19.176460027694702,-0.31,-0.15,-0.53,0.63
19.18647003173828,-0.27,-0.15,-0.48,0.57
19.19657611846924,-0.41,0.21,-0.4,0.61
19.206538200378418,-0.22,0.15,-0.17,0.31
19.216514110565186,-0.07,0.12,-0.15,0.2
19.247465133666992,0.19,0.3,-0.23,0.42
19.24790096282959,0.24,0.14,-0.16,0.32
19.24832010269165,0.0,-0.24,-0.42,0.48
19.256400108337402,-0.22,0.06,-0.71,0.74
19.26633310317993,-0.28,0.23,-0.79,0.86
19.276337146759033,-0.3,0.09,-1.34,1.37
19.28636121749878,-0.12,0.2,-2.35,2.36
19.29630994796753,0.43,-0.36,-1.52,1.62
19.306340217590332,0.78,-0.6,-0.19,1.0
19.316277027130127,0.64,-0.24,0.29,0.74
19.34737205505371,0.28,0.02,0.03,0.28
19.34779691696167,0.38,0.06,-0.64,0.74
19.34822106361389,1.06,-0.13,-0.92,1.4
19.35629415512085,1.6,-0.3,-1.01,1.91
19.366255044937134,1.74,-0.27,-1.26,2.16
19.376118183135986,1.36,-0.1,-1.07,1.73
19.38620901107788,0.64,0.12,-0.57,0.86
19.396181106567383,0.17,0.25,0.34,0.45
19.40619993209839,-0.06,0.22,1.18,1.2
19.416016101837158,-0.16,0.02,1.72,1.72
19.447582006454468,0.09,0.22,1.5,1.51
19.448018074035645,0.79,0.27,1.02,1.31
19.44843602180481,1.13,0.03,0.56,1.26
19.45611000061035,0.63,-0.12,-0.15,0.65
19.46605110168457,-0.06,-0.17,-0.08,0.19
19.475908041000366,-0.91,-0.11,0.09,0.92
19.486052989959717,-1.61,-0.02,-0.08,1.61
19.49600100517273,-1.58,0.0,0.35,1.61
19.506022930145264,-1.3,-0.14,0.66,1.46
19.515960216522217,-1.13,-0.09,0.51,1.24
19.547704219818115,-0.74,-0.08,0.3,0.8
19.54813504219055,-0.42,-0.18,-0.12,0.47
19.548556089401245,-0.36,-0.03,-0.28,0.45
19.55597710609436,-0.24,0.16,-0.47,0.55
19.566030025482178,0.0,0.1,-0.42,0.43
19.57587718963623,0.0,-0.01,-0.08,0.08
19.585894107818604,-0.08,-0.01,0.19,0.2
19.595859050750732,0.0,0.07,0.23,0.24
19.60588502883911,0.33,0.1,0.14,0.37
19.61582088470459,0.78,0.05,0.3,0.83
19.64771318435669,1.11,0.06,0.35,1.16
19.648147106170654,1.08,-0.02,0.2,1.09
19.648564100265503,0.91,0.02,-0.08,0.91
19.655760049819946,0.74,-0.02,-0.13,0.75
19.665700912475586,0.56,-0.13,0.01,0.57
19.675704956054688,0.46,-0.07,0.21,0.51
19.685829162597656,0.54,0.06,0.17,0.56
19.695728063583374,0.45,-0.03,0.23,0.5
19.705718994140625,0.45,0.05,0.59,0.74
19.715699195861816,0.73,0.09,0.84,1.11
19.747835159301758,0.87,0.08,0.46,0.98
19.748260021209717,0.82,0.09,0.03,0.82
19.748675107955933,0.68,0.15,-0.14,0.71
19.755630016326904,0.66,0.2,-0.24,0.73
19.76556706428528,0.69,0.37,0.02,0.78
19.77562189102173,0.68,0.4,0.33,0.85
19.785593032836914,0.78,0.46,0.29,0.95
19.795569896697998,1.24,0.41,0.18,1.31
19.805561065673828,2.07,0.4,0.3,2.12
19.815514087677002,2.65,0.6,0.41,2.74
19.84774923324585,2.81,0.8,0.37,2.94
19.84815502166748,2.52,0.87,0.37,2.69
19.84855318069458,2.04,0.74,0.45,2.21
19.85552215576172,1.89,0.53,0.59,2.04
19.865437984466553,1.59,0.55,0.65,1.8
19.87548589706421,1.07,0.89,0.53,1.48
19.88537907600403,0.56,1.95,0.53,2.09
19.895450115203857,1.49,3.74,0.07,4.02
19.905440092086792,2.93,4.14,1.55,5.3
19.91538715362549,3.54,4.04,1.48,5.57
19.947999954223633,3.83,4.68,1.0,6.12
19.948421955108643,3.58,5.25,1.1,6.44
19.948836088180542,3.51,5.69,0.78,6.73
19.955224990844727,3.71,6.02,0.31,7.07
19.965096950531006,3.98,6.05,-0.6,7.26
19.97505521774292,3.4,5.65,-1.69,6.8
19.985119104385376,2.49,5.22,-2.31,6.22
19.995217084884644,2.14,3.64,-2.17,4.74
20.00523614883423,1.35,1.98,-1.17,2.66
20.01514720916748,-0.48,0.98,-0.38,1.15
20.048216104507446,-0.28,-0.35,-1.1,1.18
20.04864811897278,3.33,-0.31,-0.48,3.37
20.04906702041626,5.69,-1.02,1.95,6.1
20.055167198181152,3.6,-1.25,2.69,4.66
20.06507706642151,4.24,-1.15,0.35,4.4
20.075026988983154,6.78,-0.64,1.23,6.92
20.08494997024536,8.63,-0.6,3.28,9.25
20.095054149627686,8.54,-1.59,4.16,9.63
20.105125904083252,7.98,-2.18,3.81,9.1
20.11506223678589,7.83,-1.87,3.34,8.71
20.148330211639404,7.68,-1.34,3.16,8.41
20.148756980895996,7.19,-1.14,3.0,7.87
20.14917302131653,6.27,-0.97,2.82,6.94
20.1549391746521,5.31,-0.34,2.47,5.86
20.1649010181427,4.39,0.29,1.96,4.81
20.17499017715454,3.8,0.96,1.49,4.19
20.184940099716187,3.29,1.63,1.01,3.8
20.194971084594727,2.29,2.29,0.28,3.25
20.20496416091919,0.79,2.7,-0.73,2.9
20.21489906311035,-1.01,2.72,-1.45,3.24
20.248494148254395,-2.68,2.69,-1.48,4.07
20.248924016952515,-4.01,2.66,-1.18,4.95
20.24934196472168,-4.52,2.66,-1.12,5.36
20.254781007766724,-4.23,2.69,-1.35,5.19
20.26483917236328,-3.86,2.3,-1.48,4.73
20.274816036224365,-3.96,1.71,-1.64,4.61
20.28493595123291,-4.28,1.43,-2.05,4.95
20.294820070266724,-5.08,1.26,-2.71,5.89
20.304829120635986,-5.65,1.52,-3.3,6.71
20.314680099487305,-4.82,1.97,-3.88,6.49
20.349236011505127,-5.52,1.97,-3.39,6.77
20.349961042404175,-6.19,0.65,-2.23,6.61
20.350383043289185,-5.76,-0.65,-2.03,6.14
20.35472011566162,-5.54,-1.74,-2.79,6.44
20.364726066589355,-5.45,-2.26,-3.03,6.63
20.374706029891968,-5.48,-1.98,-2.82,6.47
20.384605884552002,-4.93,-1.64,-2.42,5.73
20.394633054733276,-3.92,-2.03,-1.97,4.83
20.404673099517822,-3.57,-2.05,-1.71,4.45
20.414627075195312,-2.27,2.41,-2.3,4.03
20.44857120513916,0.95,2.7,-1.54,3.25
20.449018001556396,0.02,0.26,1.11,1.14
20.44975209236145,1.15,1.7,1.96,2.83
20.454500198364258,4.23,2.02,5.38,7.13
20.464383125305176,3.87,0.33,4.17,5.69
20.47453498840332,-0.05,-0.02,-2.99,2.99
20.484458923339844,-4.12,0.88,-4.76,6.35
20.494469165802002,-5.68,0.98,-3.16,6.57
20.50449800491333,-4.6,1.86,-2.54,5.57
20.51446509361267,-2.87,4.32,-1.15,5.31
20.548607110977173,-2.23,4.62,0.0,5.13
20.549373149871826,-2.32,3.03,-0.67,3.87
20.54980206489563,-2.59,1.0,-1.73,3.27
20.554357051849365,-2.66,-0.3,-1.91,3.28
20.56429100036621,-2.59,-1.15,-1.28,3.1
20.574368953704834,-2.66,0.44,-0.59,2.75
20.584298133850098,-4.26,0.35,-2.79,5.1
20.59432101249695,-5.41,-0.39,-4.93,7.32
20.604371070861816,-2.88,1.4,-1.48,3.52
20.614283084869385,-0.88,-0.37,1.91,2.13
20.648447036743164,-0.91,-1.98,1.46,2.62
20.64921808242798,-1.07,-1.78,0.34,2.1
20.649651050567627,-1.67,-0.94,0.21,1.92
20.654277086257935,-2.92,0.41,0.61,3.01
20.664164066314697,-3.34,1.86,0.7,3.88
20.674221992492676,-2.67,1.26,0.55,3.0
20.68418788909912,-2.39,-0.2,1.03,2.61
20.6941819190979,-1.92,-0.72,0.72,2.17
20.70420002937317,-1.47,-0.56,0.31,1.6
20.714113235473633,-0.84,-0.42,-0.01,0.93
20.74960422515869,-0.67,-0.32,-0.57,0.93
20.750030040740967,-1.66,-0.23,-0.92,1.91
20.75045394897461,-2.74,0.15,-1.38,3.07
20.754115104675293,-2.32,0.36,-1.37,2.71
20.76404309272766,-1.1,0.12,-1.32,1.72
20.77406406402588,-0.44,0.14,-2.23,2.27
20.78398895263672,-0.21,0.08,-2.21,2.22
20.79401922225952,-0.17,-0.33,-0.85,0.92
20.80400800704956,0.06,-0.18,0.15,0.24
20.81397294998169,0.14,-0.06,0.92,0.93
20.8489990234375,-0.37,-0.01,0.92,0.99
20.849603176116943,-0.68,0.05,0.24,0.72
20.85003089904785,-0.47,-0.01,-0.37,0.59
20.853907108306885,-0.14,-0.05,-0.72,0.73
20.863953113555908,0.01,-0.05,-0.7,0.7
20.873876094818115,-0.14,-0.04,-0.82,0.83
20.883865118026733,0.12,-0.13,-1.05,1.06
20.8937931060791,0.29,-0.14,-1.06,1.1
20.90389108657837,0.39,0.09,-1.31,1.36
20.913774967193604,0.53,0.25,-1.04,1.19
20.948840141296387,0.33,0.12,-0.73,0.81
20.949458122253418,-0.08,0.1,-0.68,0.69
20.9498770236969,-0.26,0.15,-0.47,0.55
20.95375919342041,-0.33,-0.01,0.08,0.33
20.96370792388916,-0.51,-0.11,0.93,1.06
20.973786115646362,-0.58,0.16,1.58,1.69
20.983664989471436,-0.72,0.1,1.75,1.89
20.9936580657959,-0.8,0.03,0.79,1.12
21.00376796722412,-0.37,-0.06,-0.21,0.42
21.013634204864502,-0.08,-0.28,-0.01,0.29
21.049023151397705,-0.43,0.04,0.63,0.76
21.049432039260864,-0.43,0.27,0.56,0.75
21.049833059310913,-0.05,0.08,-0.56,0.56
21.053680896759033,0.45,-0.01,-1.9,1.95
21.063605070114136,0.83,0.11,-2.34,2.48
21.073543071746826,1.26,0.0,-1.72,2.13
21.08350419998169,1.49,-0.04,-0.9,1.74
21.093533039093018,1.34,-0.1,-0.33,1.38
21.10360622406006,0.99,-0.02,-0.24,1.01
21.113415002822876,0.63,0.03,-0.2,0.66
21.149266004562378,0.23,-0.09,0.3,0.38
21.149697065353394,-0.05,0.07,0.74,0.74
21.15009903907776,-0.09,0.07,0.88,0.88
21.153341054916382,0.05,-0.03,0.63,0.63
21.163474082946777,0.22,0.05,0.18,0.28
21.17347002029419,0.37,0.0,0.02,0.37
21.183417081832886,0.12,-0.02,-0.39,0.4
21.193393230438232,-0.22,0.07,-0.55,0.59
21.203450202941895,-0.47,-0.01,-0.31,0.56
21.21330499649048,-0.77,-0.02,-0.2,0.79
21.248926162719727,-0.92,0.07,0.17,0.93
21.24935293197632,-0.68,0.03,0.69,0.96
21.24977397918701,-0.25,0.0,0.65,0.69
21.253220081329346,0.17,0.0,0.38,0.41
21.263261079788208,0.43,0.03,0.04,0.43
21.273277044296265,0.47,0.0,-0.14,0.49
21.283238887786865,0.29,-0.01,-0.23,0.37
21.29320192337036,0.19,0.04,-0.23,0.3
21.30309295654297,0.27,0.0,-0.22,0.34
21.31321096420288,0.5,-0.03,-0.3,0.58
21.348613023757935,0.45,-0.06,-0.18,0.48
21.34902811050415,0.21,-0.06,0.27,0.34
21.349428176879883,0.17,0.0,0.89,0.9
21.35308003425598,0.21,0.03,1.0,1.02
21.363177061080933,0.1,-0.02,0.85,0.85
21.37320899963379,0.16,0.12,0.68,0.7
21.38311195373535,0.52,0.25,0.46,0.73
21.393060207366943,0.79,0.35,0.1,0.86
21.40288019180298,1.07,0.37,-0.23,1.15
21.41306209564209,1.46,0.39,-0.64,1.64
21.449201107025146,1.85,0.32,-0.78,2.03
21.44963312149048,2.08,0.33,-0.68,2.21
21.45005202293396,2.26,0.35,-0.22,2.29
21.45280909538269,2.63,0.35,0.61,2.72
21.463016986846924,3.08,0.42,0.8,3.2
21.47289204597473,2.99,0.54,0.76,3.13
21.482935905456543,3.01,0.7,0.95,3.23
21.492890119552612,2.9,0.78,1.08,3.19
21.502819061279297,2.99,0.58,0.98,3.19
21.51285409927368,2.9,1.25,0.36,3.17
21.549453020095825,2.59,3.15,0.21,4.08
21.549882888793945,3.07,3.4,1.58,4.84
21.550299167633057,3.03,2.9,1.64,4.5
21.552808046340942,2.42,2.87,1.27,3.96
21.56277108192444,1.86,3.07,1.16,3.77
21.572883129119873,1.93,3.39,1.12,4.05
21.58277416229248,2.13,3.89,1.24,4.6
21.59278106689453,1.74,4.18,0.74,4.58
21.602898120880127,1.62,4.33,-0.08,4.62
21.61268401145935,2.37,4.15,-0.52,4.8
21.64986801147461,2.69,3.58,-0.62,4.52
21.65030002593994,1.52,2.72,-0.84,3.22
21.65072202682495,0.41,1.42,-0.88,1.72
21.652908086776733,0.96,0.68,-1.01,1.55
21.662642002105713,2.88,0.87,-0.34,3.02
21.672656059265137,5.18,0.73,0.86,5.3
21.682645082473755,5.87,-0.49,1.88,6.18
21.69262409210205,6.71,-0.25,0.23,6.71
21.702919006347656,7.51,0.37,-0.07,7.51
21.712618112564087,7.0,0.59,1.49,7.18
21.748980045318604,6.75,-0.27,2.11,7.07
21.749407052993774,6.56,-0.64,1.78,6.82
21.74982500076294,6.18,-0.4,1.51,6.37
21.75282096862793,5.52,-0.23,1.68,5.77
21.762519121170044,4.91,-0.45,1.81,5.25
21.772446155548096,4.8,-0.46,1.79,5.14
21.782458066940308,4.74,-0.11,1.73,5.04
21.792500019073486,4.33,0.21,1.52,4.59
21.80246901512146,3.49,0.58,1.19,3.73
21.812437057495117,2.52,1.03,0.76,2.82
21.8491690158844,1.58,1.56,0.35,2.24
21.84960103034973,0.63,2.07,-0.15,2.16
21.850018978118896,-0.5,2.37,-0.57,2.48
21.85236406326294,-1.56,2.52,-0.66,3.03
21.862343072891235,-2.35,2.39,-0.44,3.38
21.87230610847473,-3.05,2.1,-0.4,3.72
21.882302045822144,-3.53,1.6,-0.45,3.9
21.892294883728027,-3.42,1.1,-0.59,3.64
21.90227222442627,-2.94,0.76,-0.96,3.18
21.912292957305908,-2.39,0.57,-1.45,2.85
21.949007987976074,-2.21,0.43,-1.72,2.83
21.949450969696045,-2.94,0.44,-1.9,3.52
21.949870109558105,-4.22,0.5,-2.36,4.86
21.952144145965576,-5.02,0.85,-3.11,5.96
21.96221113204956,-5.43,1.07,-3.66,6.63
21.972164154052734,-5.66,0.3,-3.4,6.6
21.98217010498047,-5.34,-0.9,-2.62,6.01
21.992236137390137,-5.29,-1.84,-2.01,5.95
22.002202033996582,-5.41,-2.25,-1.68,6.09
22.01220417022705,-5.36,-2.14,-1.96,6.09
22.050026893615723,-5.16,-1.88,-2.35,5.97
22.050456047058105,-4.97,-1.54,-2.55,5.79
22.05087423324585,-4.56,-1.32,-2.38,5.31
22.052021026611328,-4.02,-1.23,-1.76,4.55
22.061898231506348,-2.19,3.68,-1.71,4.61
22.07199192047119,1.75,3.12,-0.42,3.6
22.081902027130127,4.32,1.33,2.26,5.05
22.092096090316772,6.49,5.17,5.69,10.06
22.101964950561523,4.49,2.2,9.73,10.93
22.111976146697998,-0.53,-2.11,2.56,3.35
22.149837017059326,-4.38,-1.22,-2.97,5.43
22.15026307106018,-6.83,-0.32,-2.52,7.28
22.150684118270874,-7.06,0.61,-1.75,7.29
22.152138233184814,-6.04,1.92,-2.27,6.73
22.162873029708862,-4.01,2.72,-1.48,5.06
22.171831130981445,-1.82,2.75,-0.3,3.31
22.18199396133423,-1.16,2.49,-1.2,2.99
22.19183611869812,-1.8,2.98,-2.41,4.23
22.2017879486084,-3.36,3.26,-2.28,5.2
22.21171522140503,-4.72,1.52,-1.34,5.13
22.25083303451538,-3.85,0.91,-0.53,3.99
22.251262187957764,-3.01,2.14,-2.02,4.2
22.251708984375,-2.55,-0.76,-3.63,4.5
22.25213098526001,-1.81,-0.24,-2.2,2.85
22.261714935302734,-1.5,0.6,-1.03,1.91
22.271754026412964,-1.17,-0.22,-0.61,1.33
22.28165602684021,-1.13,-1.03,-0.48,1.6
22.291697025299072,-1.01,-0.96,-0.59,1.51
22.30157995223999,-0.9,-0.73,-0.45,1.24
22.311654090881348,-0.84,-0.55,-0.3,1.04
22.352558135986328,-0.99,-0.04,-0.32,1.04
22.35325002670288,-0.96,0.28,-0.32,1.04
22.35363507270813,-0.96,-0.04,0.12,0.96
22.354040145874023,-1.02,-0.09,0.38,1.09
22.361506938934326,-1.12,0.03,0.37,1.17
22.37159490585327,-1.24,0.1,0.35,1.29
22.381513118743896,-1.53,0.04,0.16,1.53
22.39158296585083,-1.75,-0.04,0.09,1.75
22.401573181152344,-1.64,0.06,0.03,1.64
22.411468029022217,-1.08,0.15,-0.29,1.12
22.452245235443115,-0.49,0.05,-0.45,0.66
22.45267915725708,0.1,-0.32,-0.4,0.52
22.453476905822754,-0.08,-0.37,-0.48,0.61
22.453903198242188,-0.8,0.05,-1.6,1.78
22.46139621734619,-1.21,0.49,-2.94,3.21
22.471395015716553,-0.82,0.14,-2.6,2.72
22.48134994506836,-0.25,-0.12,-1.82,1.84
22.49133610725403,-0.02,-0.1,-0.86,0.86
22.501384019851685,-0.2,0.14,-0.01,0.24
22.51133918762207,-0.59,0.27,0.23,0.68
22.552457094192505,-0.47,-0.08,-0.07,0.48
22.552886962890625,0.18,-0.13,0.11,0.24
22.5536470413208,0.28,0.02,0.33,0.43
22.554067134857178,0.0,0.1,0.46,0.47
22.561285972595215,-0.6,0.07,0.65,0.88
22.571285009384155,-1.21,0.04,0.29,1.24
22.58109712600708,-0.99,-0.05,-0.27,1.02
22.591331005096436,-0.25,0.01,-0.23,0.33
22.60120391845703,-0.13,0.02,-0.08,0.15
22.611152172088623,-0.55,-0.02,0.02,0.55
22.652575969696045,-0.87,-0.03,0.15,0.88
22.65300703048706,-1.08,0.03,0.1,1.08
22.653770923614502,-0.89,0.09,0.12,0.9
22.65419292449951,-0.45,0.03,0.32,0.55
22.661302089691162,-0.15,0.01,0.06,0.16
22.671000957489014,0.14,0.02,-0.26,0.29
22.681057929992676,0.28,-0.12,-0.4,0.5
22.691148042678833,0.22,-0.16,-0.5,0.56
22.701076984405518,0.39,-0.09,-0.09,0.41
22.711122035980225,0.54,-0.21,0.89,1.06
22.75226593017578,0.5,-0.21,1.39,1.49
22.752676010131836,0.43,-0.14,1.24,1.31
22.75310516357422,0.48,-0.23,0.99,1.12
22.753868103027344,0.37,-0.25,0.61,0.75
22.76097822189331,0.52,-0.09,0.37,0.64
22.7708101272583,0.83,-0.07,0.47,0.95
22.780932903289795,0.95,0.02,-0.08,0.95
22.79101324081421,0.98,0.08,-0.52,1.11
22.80084800720215,0.26,-0.08,-0.52,0.58
22.810837030410767,-0.94,0.08,-1.07,1.42
22.852599143981934,-1.31,0.38,-1.18,1.8
22.85303497314453,-0.83,0.27,-0.82,1.19
22.853453159332275,-0.26,0.18,-0.57,0.65
22.854198932647705,0.15,0.18,-0.48,0.53
22.86076021194458,0.58,0.1,-0.26,0.64
22.87067413330078,0.91,0.05,-0.18,0.92
22.880743980407715,0.97,0.03,-0.15,0.98
22.89077615737915,0.46,-0.1,-0.06,0.47
22.90070605278015,-0.41,-0.1,-0.22,0.47
22.91072106361389,-0.63,0.14,-0.39,0.75
22.952816009521484,-0.35,0.16,-0.31,0.49
22.953241109848022,-0.33,0.17,-0.33,0.49
22.953988075256348,-0.17,0.08,-0.27,0.32
22.95441722869873,0.0,-0.05,-0.15,0.15
22.9606351852417,0.01,0.04,-0.27,0.27
22.970705032348633,0.33,0.1,-0.44,0.55
22.980597972869873,0.67,0.05,-0.44,0.8
22.990663051605225,0.74,0.06,-0.49,0.88
23.0005841255188,0.87,-0.06,-0.26,0.91
23.01063299179077,0.72,-0.22,0.46,0.88
23.052359104156494,0.24,-0.09,0.74,0.78
23.052793979644775,-0.11,-0.01,0.86,0.86
23.053222179412842,-0.06,0.11,0.9,0.9
23.053937911987305,0.54,0.29,0.33,0.69
23.060599088668823,1.65,0.32,-0.59,1.78
23.070713996887207,2.64,0.36,-1.12,2.89
23.0804181098938,3.09,0.32,-1.06,3.28
23.09042000770569,2.87,0.2,-0.7,2.96
23.10046100616455,2.63,0.12,0.24,2.64
23.110433101654053,2.63,-0.11,1.15,2.87
23.120262145996094,2.3,0.01,1.82,2.93
23.152818202972412,2.01,0.26,2.06,2.88
23.153239011764526,1.94,0.49,2.02,2.84
23.15365505218506,2.1,0.54,1.61,2.7
23.160312175750732,1.7,0.53,1.45,2.29
23.170273065567017,1.33,0.94,0.69,1.76
23.180301189422607,1.28,1.14,-0.3,1.74
23.190308094024658,1.32,0.94,-0.79,1.8
23.200261116027832,1.09,1.74,-1.1,2.32
23.210305213928223,1.71,3.15,-0.4,3.6
23.220269203186035,3.31,3.02,1.16,4.62
23.253071069717407,3.76,2.94,1.4,4.97
23.253496170043945,3.39,3.34,1.12,4.88
23.25425910949707,3.38,3.92,1.25,5.32
23.260201930999756,3.57,4.1,1.47,5.63
23.270164012908936,3.06,4.02,1.3,5.21
23.280145168304443,2.12,4.25,0.36,4.76
23.290234088897705,2.65,4.88,-0.67,5.59
23.300132036209106,4.38,5.2,-1.21,6.9
23.310150146484375,4.33,4.43,-1.66,6.41
23.320032119750977,2.4,2.87,-1.84,4.16
23.352516174316406,1.21,0.59,-0.79,1.56
23.352952003479004,1.29,-1.34,0.29,1.88
23.353375911712646,1.46,-1.29,0.85,2.12
23.36000394821167,2.26,-0.31,0.23,2.29
23.37000799179077,5.65,-0.63,-0.38,5.69
23.38002920150757,7.18,-0.54,0.75,7.23
23.39000105857849,6.84,-1.1,1.7,7.13
23.399906158447266,6.76,-1.61,1.87,7.19
23.409945964813232,7.11,-1.63,1.82,7.51
23.419937133789062,7.24,-1.61,1.92,7.66
23.45235800743103,6.58,-1.59,2.16,7.1
23.452786922454834,5.66,-1.41,2.2,6.23
23.453217029571533,4.93,-1.16,1.92,5.41
23.459903240203857,4.12,-0.75,1.58,4.47
23.469824075698853,3.28,-0.08,1.19,3.49
23.479793071746826,2.57,0.62,0.8,2.76
23.489755153656006,1.95,1.22,0.48,2.34
23.49985694885254,1.48,1.66,0.16,2.22
23.509857177734375,0.99,2.0,-0.03,2.23
23.519805908203125,0.35,2.23,-0.03,2.25
23.552423000335693,-0.52,2.46,0.15,2.51
23.55285120010376,-1.9,2.51,0.3,3.16
23.553271055221558,-2.77,2.44,0.03,3.69
23.55972719192505,-2.95,2.18,-0.15,3.67
23.569684982299805,-3.02,1.78,-0.2,3.51
23.579538106918335,-3.23,1.4,-0.22,3.52
23.589674949645996,-3.26,1.29,-0.64,3.56
23.59966516494751,-2.8,1.51,-1.24,3.41
23.609719038009644,-2.32,1.63,-1.62,3.26
23.619631052017212,-2.55,1.44,-1.77,3.42
23.65248394012451,-2.98,0.93,-1.63,3.52
23.652910232543945,-3.2,0.44,-1.27,3.47
23.653328895568848,-3.74,0.02,-1.15,3.91
23.65961003303528,-4.71,-0.69,-1.53,5.0
23.669480085372925,-5.88,-1.17,-1.89,6.28
23.67942190170288,-6.26,-1.37,-1.94,6.69
23.689565181732178,-5.27,-1.42,-1.63,5.69
23.699499130249023,-3.57,-1.17,-1.18,3.93
23.709530115127563,-2.34,-0.8,-1.03,2.67
23.719486236572266,-1.9,-0.75,-1.1,2.32
23.752501964569092,-2.26,-0.72,-1.33,2.71
23.752920150756836,-2.84,-1.04,-1.33,3.3
23.753323078155518,-3.2,-1.22,-0.96,3.55
23.759488105773926,-2.47,2.69,-1.26,3.86
23.769367218017578,-1.16,1.07,-1.16,1.95
23.77940320968628,-2.18,-1.75,-0.1,2.79
23.789429187774658,-4.08,0.07,-0.06,4.08
23.799413204193115,-2.75,1.38,-1.42,3.38
23.834897994995117,1.89,2.81,-0.21,3.39
23.835328102111816,3.53,2.62,1.02,4.51
23.83574914932251,1.04,1.68,-1.26,2.34
23.83924913406372,-2.78,1.28,-2.73,4.1
23.84928607940674,-4.16,1.35,-1.83,4.74
23.859310150146484,-3.22,1.51,-0.82,3.64
23.869230031967163,-2.08,1.3,0.13,2.45
23.879251956939697,-1.54,1.11,0.62,1.99
23.889244079589844,-1.71,0.84,0.52,1.97
23.899280071258545,-2.25,-0.02,0.01,2.25
23.936553955078125,-2.38,-0.42,-0.46,2.46
23.936984062194824,-3.49,1.83,-0.8,4.02
23.937406063079834,-5.75,1.53,-3.5,6.9
23.93920612335205,-5.63,-0.55,-6.34,8.49
23.949088096618652,-1.49,0.76,-3.2,3.61
23.959129095077515,0.67,-0.86,0.98,1.46
23.969057083129883,0.25,-2.02,0.53,2.1
23.979048013687134,0.39,-0.78,-0.51,1.01
23.989105224609375,0.66,0.82,-1.38,1.73
23.999061107635498,0.12,0.62,-1.88,1.98
24.03604507446289,-0.98,-0.09,-0.82,1.28
24.03647518157959,-1.04,-0.17,0.22,1.07
24.036896228790283,-1.74,-0.34,0.58,1.86
24.039000988006592,-3.05,-0.34,1.0,3.22
24.04896903038025,-3.84,-0.13,1.19,4.02
24.059025049209595,-3.46,-0.11,0.6,3.51
24.068857192993164,-2.7,-0.42,0.27,2.74
24.078917980194092,-2.08,-0.72,0.38,2.23
24.08885908126831,-1.24,-0.23,0.31,1.29
24.099024057388306,-0.31,-0.26,0.0,0.4
24.136309146881104,-0.87,-0.41,0.21,0.98
24.136741161346436,-2.03,0.2,0.47,2.09
24.137165069580078,-2.66,0.4,0.29,2.7
24.13880705833435,-2.08,-0.07,-0.32,2.1
24.148672103881836,-1.6,-0.07,-0.41,1.65
24.15876603126526,-1.45,0.07,-0.13,1.45
24.168685913085938,-1.03,0.02,0.08,1.03
24.17873501777649,-0.95,-0.2,0.3,1.01
24.188540935516357,-0.85,0.14,0.26,0.89
24.198788166046143,-0.91,0.09,0.04,0.91
24.236098051071167,-1.03,-0.05,0.02,1.03
24.236533164978027,-0.98,-0.17,-0.17,1.0
24.236958980560303,-0.72,-0.09,-0.46,0.85
24.23854112625122,-0.36,-0.04,-1.06,1.12
24.248652935028076,-0.15,0.02,-2.51,2.51
24.258642196655273,0.22,-0.39,-2.65,2.68
24.26863193511963,0.14,-0.69,-1.16,1.35
24.27866220474243,0.01,-0.13,-0.66,0.67
24.28850507736206,0.25,0.23,-0.37,0.5
24.298635959625244,0.46,0.09,-0.64,0.79
24.335938930511475,0.38,-0.02,-0.84,0.92
24.336365222930908,0.09,-0.07,-0.76,0.76
24.336787223815918,-0.1,-0.28,0.01,0.29
24.338480949401855,-0.09,0.08,0.58,0.59
24.34847593307495,0.06,0.35,0.65,0.74
24.358519077301025,-0.11,0.3,0.25,0.4
24.368454933166504,-0.14,0.09,-0.13,0.21
24.37852907180786,-0.22,-0.15,-0.28,0.38
24.388488054275513,-0.15,-0.15,-0.09,0.23
24.398502111434937,-0.29,0.0,-0.01,0.29
24.436376094818115,-0.65,-0.05,-0.21,0.68
24.43680500984192,-0.69,0.07,-0.19,0.71
24.43720817565918,-0.29,0.07,-0.27,0.4
24.438623905181885,0.21,0.04,-1.04,1.06
24.448307991027832,0.63,0.03,-1.11,1.27
24.458323001861572,0.91,0.02,-0.49,1.03
24.468297004699707,0.79,-0.03,-0.72,1.06
24.4782772064209,0.44,-0.08,-0.24,0.5
24.488601207733154,0.16,-0.12,0.32,0.37
24.49830722808838,-0.01,-0.09,0.18,0.2
24.53631019592285,0.15,0.01,0.08,0.17
24.536739110946655,0.49,-0.02,0.11,0.5
24.53715991973877,0.67,-0.12,-0.01,0.68
24.538135051727295,0.63,-0.14,-0.35,0.73
24.548192024230957,0.53,0.0,-0.6,0.8
24.558177947998047,0.41,-0.01,-0.54,0.67
24.568130016326904,0.42,-0.1,0.19,0.47
24.57819414138794,0.66,0.05,0.51,0.83
24.58818292617798,1.21,0.19,0.46,1.3
24.598220109939575,1.55,0.13,0.42,1.61
24.63660717010498,1.56,0.0,0.46,1.62
24.637030124664307,1.34,0.01,0.39,1.39
24.637444972991943,0.69,0.07,0.19,0.71
24.638034105300903,0.37,0.09,0.31,0.49
24.648072004318237,0.23,0.03,0.35,0.41
24.65808606147766,-0.13,0.16,0.11,0.23
24.668004035949707,-0.22,0.2,0.09,0.31
24.67798614501953,0.16,0.1,0.04,0.19
24.687993049621582,0.57,0.08,-0.13,0.59
24.6979079246521,0.74,0.08,-0.16,0.76
24.736949920654297,0.57,0.1,-0.26,0.63
24.737365007400513,0.21,0.15,-0.26,0.36
24.73779010772705,0.07,0.18,-0.1,0.21
24.738205909729004,0.25,0.11,-0.14,0.3
24.747890949249268,0.47,0.05,-0.11,0.48
24.757890224456787,0.88,0.08,0.02,0.88
24.76788091659546,1.36,0.1,0.13,1.36
24.777846097946167,1.78,0.16,0.19,1.79
24.787875175476074,2.11,0.31,0.05,2.13
24.79785919189453,2.74,0.48,-0.63,2.85
24.837249040603638,3.37,0.41,-0.22,3.4
24.83770513534546,3.43,0.49,0.33,3.48
24.83812403678894,3.87,0.8,0.53,3.98
24.83889603614807,4.32,1.35,0.89,4.61
24.847737073898315,4.69,1.9,1.03,5.16
24.85774302482605,4.4,2.28,0.98,5.05
24.867659091949463,3.32,3.72,-0.03,4.98
24.877688884735107,3.32,4.24,0.7,5.43
24.88776922225952,2.86,3.53,1.48,4.77
24.897619009017944,2.07,2.97,0.3,3.63
24.937087059020996,1.28,2.96,-0.27,3.23
24.937546014785767,1.11,3.26,-0.14,3.44
24.9379620552063,1.38,3.8,-0.06,4.04
24.938383102416992,1.69,3.91,-0.11,4.26
24.947598934173584,1.51,3.32,-0.27,3.65
24.957590103149414,0.89,2.76,-0.39,2.92
24.967522144317627,1.31,2.11,-0.54,2.54
24.977575063705444,3.47,1.73,-0.12,3.87
24.987539052963257,5.72,0.77,1.14,5.88
24.997541904449463,6.05,-0.04,2.44,6.52
25.037309169769287,4.55,-0.17,2.3,5.1
25.037746906280518,6.52,-0.72,0.79,6.6
25.038166999816895,8.35,0.19,1.47,8.48
25.038928985595703,8.8,-0.03,2.39,9.11
25.04744291305542,7.89,-0.49,2.51,8.29
25.057460069656372,6.86,-0.12,2.16,7.19
25.067327976226807,5.87,0.49,1.7,6.13
25.077332973480225,4.95,0.63,1.29,5.15
25.08736300468445,4.64,0.58,1.01,4.78
25.097300052642822,4.55,0.65,0.87,4.67
25.13709592819214,3.88,0.9,0.83,4.06
25.137521028518677,2.6,1.14,0.66,2.91
25.137939929962158,1.33,1.29,0.39,1.89
25.138355016708374,0.47,1.35,0.08,1.43
25.147220134735107,-0.01,1.39,-0.11,1.39
25.15735411643982,-0.34,1.4,-0.2,1.45
25.167144060134888,-0.63,1.4,-0.26,1.55
25.177278995513916,-0.93,1.36,-0.23,1.66
25.18719506263733,-1.27,1.43,-0.21,1.92
25.19719409942627,-1.54,1.41,-0.05,2.08
25.237343072891235,-1.76,1.4,0.03,2.24
25.237759113311768,-1.82,1.4,0.0,2.29
25.238162994384766,-2.03,1.16,0.05,2.33
25.238584995269775,-2.4,0.77,0.08,2.52
25.247133016586304,-2.5,0.54,0.04,2.55
25.25713300704956,-2.34,0.54,-0.04,2.4
25.267134189605713,-2.3,0.49,0.02,2.35
25.277102947235107,-1.93,0.48,-0.14,1.99
25.287033081054688,-2.16,0.54,-0.14,2.23
25.297072887420654,-3.52,0.36,0.07,3.53
25.337210178375244,-4.1,0.4,-0.25,4.12
25.33763599395752,-4.16,0.95,-0.91,4.36
25.338056087493896,-4.11,1.14,-1.31,4.46
25.33847713470459,-3.84,0.22,-0.98,3.96
25.346967220306396,-4.1,-0.88,-0.6,4.23
25.356956005096436,-4.78,-1.64,-0.8,5.11
25.366903066635132,-5.14,-2.13,-1.71,5.82
25.37692904472351,-5.11,-1.8,-2.42,5.93
25.386879920959473,-5.23,-1.08,-2.76,6.01
25.39692211151123,-5.89,-0.82,-3.25,6.77
25.437047958374023,-6.22,1.67,-3.74,7.44
25.43747901916504,-3.84,3.91,-4.14,6.86
25.437899112701416,-4.49,-1.41,-1.99,5.1
25.43832802772522,-2.5,-0.85,-1.98,3.3
25.44676923751831,4.03,1.99,1.84,4.85
25.45681405067444,6.36,1.23,5.14,8.26
25.46672296524048,2.65,0.04,0.86,2.78
25.47681999206543,-2.3,0.67,-1.52,2.83
25.486730098724365,-4.58,1.13,-1.08,4.83
25.496800899505615,-3.46,2.06,-0.78,4.1
25.53725814819336,-2.56,3.27,-0.67,4.2
25.53769588470459,-2.54,3.8,-1.07,4.69
25.538114070892334,-3.48,3.42,-2.24,5.36
25.538535118103027,-3.59,0.95,-2.9,4.71
25.54664421081543,-2.69,-1.02,-1.74,3.36
25.55650806427002,-2.41,-1.13,-0.95,2.82
25.566625118255615,-3.15,1.48,-1.11,3.65
25.576642990112305,-5.11,0.33,-3.68,6.3
25.586484909057617,-5.56,0.92,-5.02,7.54
25.59669589996338,-3.29,2.14,-2.58,4.69
25.636871099472046,-2.4,-0.17,-0.65,2.49
25.63730001449585,-2.06,-1.41,0.04,2.49
25.637716054916382,-0.54,-0.98,1.31,1.72
25.638137102127075,0.0,-1.11,1.45,1.82
25.646493911743164,-0.66,-1.25,0.87,1.65
25.656352043151855,-1.63,-0.53,0.95,1.95
25.666390895843506,-2.02,0.55,1.14,2.38
25.67659091949463,-1.89,0.83,0.5,2.12
25.68642807006836,-1.75,0.18,-0.52,1.83
25.696507930755615,-2.15,-0.31,-0.77,2.3
25.73695707321167,-2.61,0.05,-0.32,2.63
25.737394094467163,-2.3,0.29,-0.04,2.31
25.737812042236328,-1.56,0.12,-0.9,1.8
25.738229036331177,-0.56,-0.2,-1.12,1.26
25.746373176574707,0.09,-0.03,-0.57,0.57
25.756234169006348,-0.19,0.26,-0.47,0.56
25.7661771774292,-0.33,0.29,-0.63,0.76
25.776307106018066,-0.08,0.21,-0.8,0.83
25.78629207611084,0.1,0.12,-1.38,1.38
25.796279907226562,0.41,-0.18,-1.52,1.58
25.836693048477173,0.49,-0.15,-1.04,1.15
25.837130069732666,0.03,0.03,-0.64,0.64
25.837557077407837,-0.39,0.11,-0.25,0.47
25.837975025177002,-0.3,0.2,-0.12,0.38
25.846248149871826,-0.04,0.0,-0.14,0.14
25.8563551902771,-0.01,-0.1,-0.06,0.11
25.86612105369568,-0.2,-0.1,-0.09,0.24
25.876182079315186,-0.36,0.1,0.09,0.38
25.88612699508667,-0.58,0.11,0.27,0.64
25.89615297317505,-0.9,0.03,0.25,0.93
25.93749189376831,-0.91,-0.03,-0.01,0.91
25.93792200088501,-0.68,-0.16,-0.05,0.7
25.938343048095703,-0.46,-0.01,0.15,0.48
25.93876314163208,-0.45,0.08,0.72,0.85
25.946059226989746,-0.39,0.15,0.68,0.79
25.956367015838623,0.06,0.08,0.15,0.18
25.965930938720703,0.31,-0.12,-0.42,0.53
25.9760000705719,0.05,-0.12,-0.65,0.66
25.985939979553223,-0.12,0.16,-0.44,0.48
25.995909214019775,0.16,0.17,-0.3,0.38
26.0058650970459,0.73,0.22,-0.45,0.88
26.037835121154785,1.27,0.1,-0.37,1.32
26.038261890411377,1.41,-0.11,-0.41,1.47
26.038669109344482,0.81,-0.11,-0.65,1.04
26.045898914337158,0.38,0.02,-0.5,0.62
26.055840969085693,0.23,-0.02,-0.03,0.23
26.065818071365356,0.25,0.06,0.23,0.34
26.075830936431885,0.53,-0.01,0.15,0.55
26.08577609062195,0.52,-0.13,-0.33,0.62
26.095823049545288,0.54,-0.04,-0.34,0.63
26.105831146240234,0.87,0.06,-0.11,0.87
26.137587070465088,1.31,0.03,0.21,1.32
26.138011932373047,1.28,-0.01,0.46,1.36
26.13843011856079,0.45,0.01,0.37,0.58
26.14581608772278,-0.07,0.03,0.36,0.36
26.15579605102539,-0.33,0.0,0.46,0.56
26.16561794281006,-0.94,-0.2,0.02,0.96
26.17574119567871,-1.13,-0.08,-0.12,1.13
26.18581509590149,-0.93,-0.04,0.1,0.93
26.1957790851593,-0.49,-0.05,0.05,0.49
26.205692052841187,0.09,0.02,-0.05,0.1
26.236993074417114,0.55,0.0,-0.23,0.59
26.23740291595459,0.42,0.0,-0.63,0.75
26.237807035446167,0.11,0.14,-0.84,0.85
26.24567413330078,-0.11,0.14,-0.58,0.6
26.255566120147705,-0.31,0.1,-0.48,0.58
26.265489101409912,-0.34,0.07,-0.4,0.52
26.27557110786438,-0.27,0.04,-0.08,0.28
26.28545093536377,0.03,0.0,0.21,0.21
26.295536041259766,0.26,-0.01,0.39,0.46
26.305490016937256,0.37,0.11,0.2,0.43
26.33712601661682,0.39,0.2,-0.2,0.48
26.33753490447998,0.0,0.15,-0.2,0.25
26.33793807029724,-0.28,0.06,-0.18,0.33
26.345474004745483,-0.22,-0.02,0.09,0.23
26.355409145355225,-0.01,0.0,0.66,0.66
26.36534810066223,0.09,0.1,0.99,0.99
26.37540602684021,0.18,0.21,0.97,1.0
26.38535213470459,0.45,0.26,0.66,0.84
26.395414113998413,0.67,0.22,0.08,0.7
26.405351161956787,0.87,0.35,-0.64,1.13
26.437499046325684,1.12,0.51,-1.07,1.63
26.437936067581177,1.33,0.63,-1.31,1.97
26.438358068466187,1.7,0.83,-1.48,2.4
26.44528293609619,2.26,1.02,-1.21,2.75
26.455220222473145,2.62,1.04,-0.73,2.91
26.465096950531006,3.04,1.01,-0.13,3.2
26.47525906562805,3.63,1.18,0.7,3.88
26.485179901123047,3.82,1.33,1.16,4.2
26.495235919952393,3.85,2.05,0.27,4.37
26.505081176757812,4.97,4.1,1.05,6.52
26.537681102752686,5.58,3.37,2.98,7.16
26.538105010986328,5.62,2.99,1.91,6.64
26.538525104522705,4.83,3.44,1.45,6.1
26.545149087905884,4.31,3.75,0.91,5.78
26.55504322052002,3.97,3.97,0.53,5.63
26.565192222595215,3.03,4.04,0.36,5.06
26.575110912322998,1.97,4.24,0.19,4.67
26.585115909576416,1.19,4.05,-0.31,4.23
26.59506607055664,0.66,3.74,-0.91,3.9
26.60501194000244,1.13,4.07,-1.54,4.49
26.637557983398438,2.74,4.35,-2.18,5.58
26.63798713684082,3.92,2.78,-2.44,5.38
26.63840389251709,3.42,2.19,-1.34,4.27
26.645003080368042,4.79,2.18,-0.58,5.29
26.654906034469604,4.31,1.18,1.51,4.71
26.664849042892456,4.78,-0.06,0.96,4.87
26.674947023391724,7.42,-0.95,-0.24,7.48
26.68491005897522,8.71,-0.52,0.63,8.74
26.694900035858154,9.6,-0.94,1.41,9.74
26.704869031906128,9.61,-1.67,1.56,9.87
26.73793911933899,8.99,-1.61,1.61,9.27
26.738368034362793,8.14,-1.38,2.11,8.52
26.738786220550537,7.11,-1.24,2.14,7.52
26.744901180267334,6.0,-0.94,1.49,6.25
26.75486707687378,5.34,-0.47,0.97,5.44
26.76470422744751,4.61,-0.04,0.79,4.67
26.774688005447388,3.49,0.21,0.62,3.55
26.78473997116089,2.37,0.54,0.39,2.46
26.794724941253662,1.35,0.92,-0.01,1.63
26.80469512939453,0.42,1.43,-0.48,1.56
26.83820915222168,-0.27,1.96,-0.96,2.19
26.8386390209198,-1.05,2.46,-1.21,2.93
26.839081048965454,-2.45,2.78,-1.04,3.84
26.844701051712036,-3.09,3.02,-0.95,4.42
26.85463809967041,-3.05,3.45,-1.04,4.72
26.86466908454895,-2.77,3.78,-1.13,4.82
26.874486923217773,-2.74,3.47,-1.06,4.54
26.884594917297363,-2.45,3.91,-1.27,4.78
26.894629955291748,-1.97,4.02,-1.18,4.62
26.904587030410767,-2.64,0.92,-0.48,2.83
26.938172101974487,-4.82,0.06,-0.41,4.83
26.938600063323975,-5.71,0.31,-1.28,5.85
26.93904399871826,-5.92,0.33,-1.44,6.1
26.94453716278076,-5.6,0.25,-1.4,5.77
26.95444393157959,-5.32,-0.03,-1.27,5.46
26.964468002319336,-4.75,-0.03,-1.25,4.91
26.974367141723633,-4.12,-0.12,-1.2,4.29
26.984390020370483,-3.9,-0.22,-1.17,4.07
26.994489192962646,-3.54,-0.18,-1.04,3.69
27.00438690185547,-3.27,-0.2,-1.04,3.43
27.03848123550415,-3.07,0.02,-1.1,3.26
27.038934230804443,-2.93,-0.18,-1.11,3.13
27.039664030075073,-2.7,0.24,-1.45,3.07
27.044366121292114,-2.38,0.54,-1.42,2.82
27.05428123474121,-2.19,-0.58,-1.24,2.58
27.064398050308228,-2.35,-0.72,-1.1,2.69
27.07414197921753,-3.11,-0.55,-0.84,3.26
27.084280967712402,-4.32,-0.49,-0.84,4.42
27.094307899475098,-5.84,-0.71,-1.34,6.03
27.104287147521973,-7.01,-0.82,-2.2,7.39
27.138687133789062,-5.73,-0.07,-3.21,6.56
27.139441967010498,-2.15,0.83,-2.19,3.17
27.13986301422119,0.6,0.56,-0.16,0.83
27.144218921661377,0.82,0.12,0.42,0.92
27.15423822402954,0.33,0.33,0.41,0.62
27.164134979248047,0.26,0.56,0.8,1.01
27.17422389984131,-0.47,2.11,0.76,2.29
27.184194087982178,-2.35,4.25,0.04,4.85
27.194184064865112,-4.96,4.51,-2.29,7.08
27.204106092453003,-6.65,2.53,-4.91,8.64
27.23877501487732,-8.02,-0.28,-5.9,9.96
27.239517211914062,-5.52,1.06,-2.67,6.22
27.239938020706177,-3.83,-0.75,1.6,4.21
27.24410915374756,-2.59,-2.69,2.11,4.28
27.25408101081848,-0.88,-2.0,0.01,2.18
27.263981103897095,-0.48,-0.74,-1.07,1.38
27.27430295944214,-1.2,0.62,-0.1,1.35
27.283942222595215,-1.65,0.67,0.13,1.78
27.29400610923767,-1.97,0.28,0.69,2.1
27.30393695831299,-1.75,-0.16,1.1,2.07
27.338865041732788,-2.16,-0.4,1.16,2.48
27.33947992324829,-3.18,0.13,-0.35,3.2
27.339903116226196,-3.29,0.24,-0.7,3.37
27.3438560962677,-2.13,-0.33,0.12,2.15
27.35396409034729,-1.37,-0.55,-0.09,1.47
27.36388611793518,-1.34,-0.36,-0.39,1.44
27.373855113983154,-1.45,-0.32,-0.5,1.56
27.38394021987915,-1.18,-0.08,-0.61,1.33
27.3939208984375,-0.64,0.12,-0.69,0.94
27.403756141662598,0.13,0.1,-0.63,0.65
27.4391770362854,0.3,0.13,-0.92,0.97
27.439624071121216,0.2,0.23,-1.06,1.1
27.44004201889038,-0.15,-0.01,-0.88,0.89
27.443671226501465,-0.88,-0.03,-0.62,1.07
27.453682899475098,-1.03,0.14,-0.34,1.09
27.46372699737549,-0.54,0.0,-0.07,0.54
27.47388005256653,-0.19,-0.07,-0.02,0.2
27.48370909690857,-0.18,-0.07,0.03,0.19
27.493706226348877,-0.45,0.02,-0.08,0.45
27.503623962402344,-0.5,0.2,-0.24,0.58
27.53914213180542,-0.34,0.17,0.08,0.38
27.539582014083862,-0.46,0.08,0.51,0.69
27.540000915527344,-0.92,0.04,0.23,0.94
27.543653964996338,-0.93,0.17,-0.44,1.04
27.553540229797363,-0.71,0.05,-0.68,0.98
27.56363821029663,-0.69,-0.15,-1.09,1.29
27.57346510887146,-0.46,-0.17,-1.07,1.17
27.583474159240723,-0.62,-0.17,-0.76,0.99
27.593569040298462,-0.91,-0.12,-0.29,0.96
27.60352110862732,-1.01,0.38,-0.03,1.07
27.638882160186768,-0.66,0.43,-0.06,0.79
27.639313220977783,-0.29,0.0,-0.66,0.72
27.639735221862793,0.0,-0.22,-1.1,1.12
27.643453121185303,0.21,-0.33,-1.16,1.22
27.653364181518555,0.24,-0.36,-1.05,1.13
27.663405895233154,0.15,-0.16,-0.78,0.81
27.673365116119385,0.33,0.27,-1.01,1.09
27.68338108062744,0.7,0.0,-1.23,1.41
27.693384170532227,0.69,-0.38,-0.58,0.97
27.703376054763794,0.79,-0.05,0.05,0.79
27.739521980285645,1.1,0.22,-0.21,1.14
27.739951133728027,1.41,0.01,-0.87,1.65
27.74037003517151,1.62,-0.45,-0.81,1.86
27.743174076080322,0.92,-0.6,-0.64,1.27
27.753241062164307,0.31,-0.19,-0.24,0.43
27.763277053833008,0.35,-0.25,0.37,0.56
27.77317523956299,0.43,-0.07,0.52,0.67
27.783266067504883,0.69,0.17,0.0,0.71
27.7931809425354,1.09,-0.02,0.4,1.16
27.80313491821289,0.95,-0.21,0.41,1.05
27.839001178741455,0.89,0.06,0.28,0.93
27.83943009376526,0.96,0.21,0.61,1.15
27.839847087860107,0.73,0.1,0.66,0.98
27.84327220916748,0.27,0.0,0.48,0.55
27.853113174438477,-0.03,0.02,0.25,0.25
27.86313009262085,-0.32,0.08,0.19,0.38
27.87301015853882,-0.65,0.17,0.02,0.67
27.882978916168213,-0.76,0.22,-0.13,0.8
27.89307689666748,-0.67,0.14,0.01,0.68
27.903080940246582,-0.58,0.08,-0.15,0.6
27.939701080322266,-0.61,0.01,-0.35,0.7
27.940135955810547,-0.68,0.05,-0.42,0.8
27.940558910369873,-0.53,0.17,-0.29,0.62
27.942958116531372,0.06,0.15,0.0,0.16
27.95291304588318,0.33,0.07,0.35,0.48
27.962925910949707,-0.02,0.04,0.19,0.19
27.97286605834961,-0.32,0.1,-0.3,0.44
27.982755184173584,-0.09,0.17,-0.44,0.48
27.992897987365723,0.55,0.17,-0.18,0.6
28.00282311439514,0.98,0.04,0.46,1.08
28.03939390182495,1.27,0.03,0.94,1.58
28.039822101593018,1.53,0.07,1.12,1.89
28.040223121643066,1.79,0.07,1.35,2.24
28.04274892807007,2.11,0.03,1.57,2.63
28.0527400970459,2.65,-0.05,1.66,3.12
28.062753200531006,3.72,-0.12,1.69,4.08
28.072716236114502,4.85,0.08,1.0,4.95
28.0827579498291,5.55,0.31,0.96,5.64
28.092782974243164,5.64,0.63,1.04,5.76
28.102729082107544,5.42,0.92,0.37,5.5
28.13951015472412,5.0,1.3,0.23,5.17
28.139935970306396,4.42,2.04,0.19,4.87
28.14036202430725,3.25,2.2,-0.03,3.92
28.142518043518066,2.1,2.19,0.47,3.07
28.152595043182373,0.78,4.22,0.82,4.36
28.162596225738525,1.58,6.71,-1.19,6.99
28.172590017318726,2.69,6.33,0.79,6.92
28.182650089263916,2.51,5.41,0.39,5.97
28.19250202178955,2.61,5.28,-1.5,6.07
28.202628135681152,2.51,5.38,-2.06,6.28
28.240196228027344,2.52,5.7,-2.61,6.75
28.24063014984131,3.33,5.06,-2.79,6.66
28.241055965423584,3.48,3.23,-2.36,5.3
28.242345094680786,2.74,1.7,-1.33,3.48
28.252477169036865,3.62,0.93,-0.53,3.77
28.262557983398438,5.77,1.54,0.86,6.03
28.272308111190796,6.22,1.54,2.08,6.73
28.282459020614624,5.45,0.84,2.0,5.86
28.29229497909546,7.46,0.86,0.61,7.53
28.302460193634033,9.34,1.17,2.02,9.62
28.340198040008545,8.97,0.12,3.79,9.73
28.34062623977661,7.73,-0.75,3.67,8.58
28.341044902801514,6.81,-0.87,2.96,7.47
28.34221315383911,6.26,-0.41,2.49,6.74
28.35238003730774,5.44,0.11,2.15,5.85
28.36235523223877,4.66,0.5,1.76,5.0
28.372253894805908,4.37,0.78,1.51,4.68
28.382126092910767,4.0,0.93,1.47,4.36
28.392133235931396,2.68,1.05,1.3,3.15
28.402143001556396,0.58,0.81,0.99,1.4
28.439817905426025,-1.27,0.53,0.53,1.47
28.440251111984253,-2.03,0.71,0.12,2.15
28.440671920776367,-2.01,1.02,0.01,2.25
28.442190170288086,-1.57,1.34,0.0,2.06
28.452181100845337,-1.2,1.43,0.12,1.87
28.462115049362183,-1.05,1.21,0.22,1.61
28.47211217880249,-1.61,1.13,0.44,2.01
28.482088088989258,-2.19,1.28,0.28,2.55
28.49223804473877,-2.98,1.45,-0.13,3.31
28.502079010009766,-3.97,1.11,-0.35,4.13
28.540510177612305,-4.67,0.65,-0.61,4.75
28.54094123840332,-4.72,0.34,-0.88,4.81
28.54136896133423,-4.51,0.03,-1.06,4.63
28.542162895202637,-4.42,0.04,-1.55,4.68
28.552031993865967,-4.44,0.39,-2.43,5.07
28.56202793121338,-3.97,0.73,-3.05,5.05
28.57194709777832,-4.6,0.81,-2.75,5.42
28.581974983215332,-5.72,0.35,-2.56,6.27
28.5923490524292,-6.46,-0.51,-3.24,7.24
28.601823091506958,-7.21,-1.29,-4.01,8.35
28.640122890472412,-7.73,-2.21,-4.23,9.08
28.6405611038208,-8.3,-2.74,-4.02,9.62
28.640984058380127,-8.46,-2.48,-4.1,9.72
28.64181089401245,-7.76,-2.18,-4.26,9.11
28.651840209960938,-6.85,-2.05,-4.03,8.2
28.661838054656982,-6.72,-2.45,-3.71,8.05
28.671800136566162,-6.65,-1.58,-3.7,7.77
28.68180203437805,-1.86,5.38,-3.78,6.83
28.691827058792114,6.48,5.14,-0.42,8.28
28.701834201812744,16.11,5.89,10.13,19.92
28.74088716506958,15.42,0.09,15.66,21.97
28.741331100463867,3.81,-1.21,2.48,4.7
28.741756916046143,-7.48,-2.21,-5.77,9.7
28.74253511428833,-8.98,-0.59,-4.52,10.07
28.751667976379395,-5.35,2.47,-2.32,6.33
28.76172924041748,-2.52,4.74,-2.54,5.93
28.77167320251465,-2.27,6.69,-1.71,7.26
28.781710147857666,-4.12,5.83,-1.64,7.32
28.791523933410645,-4.14,1.2,-2.21,4.84
28.801627159118652,-2.39,-1.36,-2.4,3.64
28.840455055236816,-1.95,-0.61,-1.78,2.7
28.84088706970215,-3.06,1.28,-3.47,4.8
28.841310024261475,-5.05,0.05,-5.49,7.45
28.8417329788208,-4.34,1.25,-3.84,5.92
28.8515682220459,-2.0,0.18,-0.2,2.01
28.86161518096924,-0.43,-1.63,0.73,1.83
28.871469974517822,0.57,-1.33,-0.44,1.51
28.881477117538452,0.22,-1.23,0.14,1.25
28.89156723022461,-0.66,-1.32,0.7,1.63
28.901539087295532,-0.96,-0.48,0.77,1.32
28.940932035446167,-1.04,0.21,0.69,1.26
28.94138503074646,-1.64,0.36,0.53,1.76
28.94180393218994,-2.52,0.2,0.8,2.65
28.942541122436523,-3.07,-0.05,1.38,3.36
28.951467037200928,-3.17,0.11,1.62,3.56
28.961397171020508,-2.94,0.02,0.82,3.05
28.971330165863037,-2.91,-0.25,-0.31,2.93
28.981372117996216,-2.53,-0.18,-0.88,2.68
28.991331100463867,-1.63,-0.14,-0.63,1.75
29.001369953155518,-0.96,-0.17,-0.72,1.21
29.041122913360596,-0.17,-0.22,-1.34,1.36
29.04155206680298,0.79,0.04,-1.4,1.6
29.041970014572144,0.52,0.32,-0.66,0.89
29.04272699356079,-0.03,0.36,-0.49,0.6
29.05117106437683,-0.57,0.39,-0.7,0.98
29.06129002571106,-1.11,0.33,-1.0,1.53
29.071068048477173,-1.27,0.33,-0.59,1.43
29.08121395111084,-0.78,0.05,0.33,0.84
29.091224193572998,-0.63,-0.13,0.4,0.75
29.101271152496338,-0.96,-0.07,0.52,1.09
29.14079713821411,-1.08,-0.24,0.63,1.27
29.141232013702393,-0.97,-0.1,0.25,1.0
29.14164900779724,-1.09,0.0,0.05,1.09
29.14206600189209,-1.29,-0.14,0.16,1.3
29.151782989501953,-1.25,0.19,0.06,1.26
29.162111043930054,-0.51,0.47,0.42,0.81
29.17105507850647,0.25,0.26,0.06,0.36
29.181124210357666,0.29,0.12,-0.71,0.77
29.191112995147705,-0.02,0.01,-1.08,1.08
29.200897216796875,-0.26,-0.39,-1.03,1.13
29.241299152374268,-0.48,-0.39,-0.79,1.0
29.241722106933594,-0.06,0.02,-0.49,0.49
29.242143154144287,0.65,-0.01,-0.57,0.86
29.242980003356934,0.68,-0.27,-0.98,1.22
29.250912189483643,0.49,-0.29,-1.13,1.26
29.26103711128235,0.86,-0.05,-1.22,1.49
29.270893096923828,1.3,0.04,-1.17,1.74
29.280930042266846,1.55,0.04,-1.02,1.85
29.290865898132324,1.66,0.06,-0.57,1.75
29.30077314376831,1.03,-0.04,-0.01,1.03
29.341229915618896,0.5,0.01,-0.12,0.51
29.341665029525757,0.37,-0.22,-0.62,0.75
29.3420991897583,0.29,-0.27,-0.93,1.01
29.34251594543457,0.74,-0.04,-1.04,1.27
29.35080099105835,1.12,-0.19,-0.58,1.27
29.36077904701233,0.99,-0.09,-0.61,1.16
29.370886087417603,0.81,-0.05,-0.49,0.94
29.3808331489563,0.16,0.0,-0.11,0.19
29.3907630443573,-0.36,0.21,0.78,0.88
29.400629997253418,-0.23,0.23,1.15,1.19
29.44160509109497,0.1,0.09,0.48,0.49
29.442028999328613,0.28,0.0,-0.5,0.57
29.442447185516357,0.19,-0.19,-0.78,0.82
29.443193912506104,-0.11,-0.25,-0.81,0.85
29.45065402984619,-0.52,-0.26,-0.8,0.98
29.46061420440674,-0.61,-0.16,-0.72,0.95
29.470571041107178,-0.54,-0.25,-0.27,0.65
29.48055911064148,-0.53,-0.17,-0.15,0.57
29.490540981292725,-0.42,-0.17,-0.04,0.45
29.50059413909912,-0.31,-0.18,0.32,0.48
29.54183602333069,-0.08,-0.01,0.42,0.42
29.542262077331543,-0.01,-0.04,0.8,0.8
29.54268789291382,-0.14,0.24,0.85,0.89
29.543456077575684,-0.62,0.61,0.84,1.2
29.550517082214355,-0.4,0.36,0.9,1.04
29.560359954833984,0.52,0.22,0.76,0.94
29.570512056350708,0.11,0.23,0.59,0.64
29.58047604560852,-0.32,0.17,0.0,0.36
29.590497970581055,-0.06,0.22,-0.41,0.46
29.600418090820312,0.3,0.17,-0.66,0.74
29.64128017425537,0.33,0.22,-0.65,0.76
29.64171004295349,0.16,0.26,-0.22,0.37
29.64212703704834,0.11,0.28,0.45,0.54
29.642543077468872,0.27,0.34,0.59,0.73
29.650331020355225,0.84,0.27,0.63,1.08
29.66017198562622,1.66,0.26,0.66,1.8
29.670160055160522,2.35,0.28,0.52,2.42
29.680325031280518,3.0,0.32,0.41,3.04
29.690253019332886,3.6,0.32,0.4,3.63
29.70031213760376,4.08,0.36,0.34,4.1
29.742245197296143,5.08,0.64,0.24,5.12
29.74267292022705,6.45,1.3,0.27,6.58
29.743412017822266,7.3,2.13,0.36,7.61
29.743832111358643,7.57,2.67,1.02,8.09
29.7502601146698,6.83,2.96,2.43,7.83
29.760077953338623,4.79,4.37,1.67,6.69
29.770209074020386,3.6,5.62,-1.23,6.78
29.780165195465088,3.56,6.27,-1.17,7.3
29.790126085281372,2.61,6.29,-0.56,6.83
29.80014991760254,1.0,6.44,-1.3,6.64
29.841989040374756,0.76,6.75,-2.74,7.32
29.842419147491455,2.86,6.18,-3.05,7.46
29.842845916748047,5.37,4.55,-2.17,7.36
29.843617916107178,6.26,3.51,-0.5,7.19
29.850018978118896,5.8,2.79,1.33,6.57
29.860177993774414,6.89,0.98,0.43,6.97
29.869976043701172,7.5,0.36,0.7,7.54
29.88000512123108,7.73,-0.17,2.07,8.0
29.889941215515137,8.3,-0.43,1.98,8.54
29.899997234344482,8.39,-0.29,1.25,8.48
29.942368984222412,8.41,-0.07,1.15,8.48
29.94278311729431,8.14,-0.07,1.63,8.3
29.943536043167114,7.34,-0.2,1.98,7.6
29.94395923614502,6.56,-0.13,1.95,6.84
29.949871063232422,5.74,-0.03,1.76,6.0
29.959752082824707,4.66,0.25,1.45,4.88
29.969725131988525,3.86,0.76,0.91,4.03
29.979839086532593,3.31,1.22,0.15,3.53
29.989872932434082,2.42,1.62,-0.43,2.94
29.999892234802246,1.08,1.68,-0.89,2.18
30.009902000427246,-0.21,1.57,-1.17,1.96
30.043426036834717,-1.36,1.47,-1.17,2.31
30.043829917907715,-2.38,1.3,-1.07,2.91
30.044251918792725,-3.27,1.12,-0.85,3.55
30.04968500137329,-3.43,1.0,-0.76,3.65
30.059531211853027,-2.89,1.13,-0.83,3.21
30.069562911987305,-2.37,1.31,-0.84,2.83
30.079564094543457,-2.34,1.35,-0.76,2.8
30.089680194854736,-2.89,1.1,-0.84,3.2
30.099622011184692,-4.35,0.8,-0.9,4.51
30.109623908996582,-5.73,0.46,-1.42,5.92
30.14254093170166,-6.46,0.42,-2.24,6.85
30.14297103881836,-6.24,0.44,-2.43,6.71
30.14370822906494,-5.74,0.4,-2.31,6.2
30.149556159973145,-5.69,0.28,-2.24,6.12
30.159532070159912,-6.3,-0.04,-2.43,6.75
30.169307231903076,-6.82,-0.42,-2.74,7.36
30.179553985595703,-7.01,-0.51,-2.96,7.62
30.189492225646973,-7.88,-0.64,-2.69,8.35
30.19950294494629,-8.27,-1.19,-2.51,8.72
30.209467887878418,-8.66,-1.98,-3.03,9.38
30.242042064666748,-9.3,-2.89,-3.66,10.4
30.242470026016235,-9.96,-3.31,-3.93,11.2
