time,ax,ay,az,atotal
0.002460956573486328,-0.04,-0.04,0.12,0.13
0.008924007415771484,0.29,0.05,-0.36,0.46
0.01906108856201172,0.4,-0.06,-0.5,0.64
0.02891993522644043,0.1,-0.01,-0.2,0.22
0.038992881774902344,0.03,0.05,-0.07,0.09
0.04876708984375,0.03,0.02,0.01,0.03
0.05902814865112305,0.0,0.0,0.03,0.03
0.09215402603149414,-0.05,0.02,0.06,0.08
0.09397602081298828,-0.07,0.02,0.11,0.13
0.09535002708435059,-0.03,0.0,0.13,0.13
0.11512613296508789,0.02,0.02,0.05,0.05
0.11655187606811523,0.01,0.05,0.01,0.05
0.1312880516052246,0.02,-0.01,-0.04,0.04
0.13274693489074707,0.09,0.0,-0.1,0.13
0.14819908142089844,0.07,0.02,-0.03,0.07
0.15047693252563477,0.04,0.0,0.01,0.04
0.16578197479248047,0.05,0.01,0.03,0.05
0.16809606552124023,0.07,0.01,0.02,0.07
0.20466995239257812,0.05,0.02,0.02,0.05
0.20618796348571777,0.02,0.01,0.02,0.03
0.20769786834716797,0.01,0.01,0.04,0.04
0.21247100830078125,0.01,0.02,0.02,0.03
0.2174668312072754,0.02,0.01,-0.01,0.02
0.23000812530517578,0.04,0.01,0.0,0.04
0.2372570037841797,0.03,0.01,0.0,0.03
0.24730587005615234,0.02,0.02,0.01,0.03
0.2572288513183594,0.06,0.01,0.0,0.06
0.26735997200012207,0.06,-0.01,0.01,0.06
0.2950248718261719,0.02,0.0,0.0,0.02
0.2967829704284668,0.0,0.02,0.0,0.02
0.29778385162353516,0.01,0.02,0.01,0.02
0.3068540096282959,0.02,0.01,0.01,0.02
0.3164989948272705,0.04,0.02,0.01,0.04
0.32662296295166016,0.05,0.01,0.01,0.05
0.33645105361938477,0.04,0.02,0.02,0.04
0.34636592864990234,0.04,0.03,0.01,0.05
0.3563680648803711,0.05,0.01,0.01,0.05
0.3688931465148926,0.05,-0.01,0.04,0.06
0.39405012130737305,0.01,0.0,0.02,0.02
0.39552903175354004,0.03,0.0,0.02,0.03
0.3967628479003906,0.02,0.01,0.03,0.03
0.40621280670166016,0.0,0.0,0.01,0.01
0.41639184951782227,0.03,0.01,0.01,0.03
0.42609405517578125,0.05,0.0,0.04,0.06
0.4357900619506836,0.03,0.0,0.04,0.05
0.44596290588378906,0.02,0.0,0.03,0.03
0.45621299743652344,0.02,0.01,0.02,0.03
0.4680750370025635,0.01,0.01,0.0,0.01
0.4937119483947754,0.02,0.01,0.03,0.03
0.49529409408569336,0.03,0.0,0.05,0.05
0.49669694900512695,0.02,0.01,0.07,0.07
0.5157318115234375,0.07,0.01,0.05,0.08
0.5170509815216064,0.1,0.01,0.03,0.1
0.5316801071166992,0.09,0.0,0.02,0.09
0.5349678993225098,0.04,0.01,0.02,0.04
0.5468320846557617,-0.01,0.02,0.0,0.02
0.5571060180664062,-0.01,0.02,0.01,0.02
0.566870927810669,0.01,0.02,0.0,0.02
0.5993938446044922,0.03,0.02,-0.01,0.03
0.6008880138397217,0.03,0.01,-0.01,0.03
0.6019301414489746,-0.01,0.02,-0.01,0.02
0.604240894317627,0.0,0.02,-0.01,0.02
0.6148710250854492,-0.01,0.02,-0.01,0.02
0.624579906463623,-0.04,0.02,0.0,0.04
0.634221076965332,0.0,0.02,0.01,0.02
0.6443758010864258,0.08,0.0,0.04,0.08
0.6546158790588379,0.1,-0.01,0.04,0.1
0.6665349006652832,0.09,-0.01,0.01,0.09
0.7003059387207031,0.06,0.01,-0.01,0.06
0.7018089294433594,0.03,0.01,-0.03,0.04
0.7031550407409668,0.01,0.02,-0.02,0.03
0.7160520553588867,0.01,0.01,0.0,0.01
0.7174229621887207,-0.01,0.02,-0.01,0.02
0.7316889762878418,0.02,0.04,-0.02,0.04
0.7333030700683594,0.02,0.0,-0.01,0.02
0.7465510368347168,-0.01,0.02,0.0,0.02
0.753486156463623,0.0,0.03,0.0,0.03
0.7667419910430908,-0.02,0.02,0.01,0.03
0.7959661483764648,-0.02,0.02,0.0,0.02
0.797490119934082,0.0,0.03,0.01,0.03
0.7990119457244873,0.02,0.01,0.01,0.02
0.8029530048370361,0.04,0.02,-0.01,0.04
0.8160560131072998,0.02,0.03,-0.04,0.05
0.8227949142456055,0.0,0.03,-0.06,0.06
0.8327088356018066,0.01,0.01,-0.01,0.01
0.8426840305328369,0.03,0.02,0.03,0.04
0.8526949882507324,0.04,0.01,0.04,0.05
0.8652091026306152,0.04,0.01,0.03,0.05
0.8947939872741699,0.04,0.01,0.04,0.05
0.896049976348877,0.06,0.01,0.02,0.06
0.8973708152770996,0.08,0.01,0.03,0.08
0.9156961441040039,0.07,0.01,0.04,0.08
0.9169578552246094,0.05,0.02,0.01,0.05
0.9314520359039307,0.01,0.02,0.02,0.03
0.9326009750366211,0.01,0.02,0.02,0.03
0.941929817199707,0.01,0.01,0.01,0.01
0.9524059295654297,0.0,0.02,0.0,0.02
0.9637918472290039,0.0,0.02,-0.01,0.02
0.9742951393127441,0.01,0.01,-0.02,0.02
0.9984860420227051,0.02,0.01,-0.01,0.02
0.9998340606689453,0.0,0.02,0.03,0.03
1.0015459060668945,-0.04,0.02,0.05,0.06
1.0165510177612305,-0.05,0.03,0.05,0.07
1.021301031112671,0.0,0.02,-0.01,0.02
1.0312869548797607,0.07,0.03,-0.05,0.09
1.041499137878418,0.02,0.01,-0.02,0.03
1.050973892211914,-0.01,0.01,-0.02,0.02
1.0644021034240723,0.02,0.02,0.03,0.04
1.0736188888549805,0.07,0.01,0.06,0.09
1.0952191352844238,0.1,-0.01,0.02,0.1
1.096825122833252,0.05,0.0,-0.01,0.05
1.1007380485534668,0.01,0.02,-0.04,0.04
1.116713047027588,-0.01,0.02,-0.02,0.03
1.1204190254211426,0.02,0.02,-0.01,0.03
1.130295991897583,0.07,0.0,-0.01,0.07
1.1404991149902344,0.09,0.0,-0.02,0.09
1.1502890586853027,0.08,0.01,-0.02,0.08
1.1633410453796387,0.04,0.01,-0.01,0.04
1.1726019382476807,0.02,0.02,-0.02,0.03
1.1939010620117188,0.0,0.02,-0.01,0.02
1.1954288482666016,-0.02,0.01,0.01,0.02
1.2000818252563477,-0.01,0.02,0.03,0.03
1.2169430255889893,0.06,0.0,0.03,0.06
1.219702959060669,0.04,0.0,0.03,0.05
1.2313649654388428,0.02,0.01,0.0,0.02
1.2397141456604004,0.02,0.02,0.0,0.02
1.249579906463623,0.0,0.01,0.0,0.01
1.2621400356292725,0.0,0.02,0.01,0.02
1.2719841003417969,0.02,0.02,0.01,0.03
1.293208122253418,0.04,0.01,-0.01,0.04
1.2950959205627441,0.05,0.02,-0.02,0.05
1.2993190288543701,0.03,0.0,0.01,0.03
1.3162479400634766,0.03,0.0,0.02,0.03
1.3190860748291016,0.06,0.02,0.01,0.06
1.3317928314208984,0.04,0.03,0.0,0.05
1.3395659923553467,0.01,0.03,-0.03,0.04
1.350780963897705,0.02,0.03,-0.03,0.04
1.3623719215393066,0.01,0.01,0.0,0.01
1.3709230422973633,0.06,0.0,0.01,0.06
1.395482063293457,0.08,0.0,0.03,0.08
1.3971271514892578,0.05,0.01,0.02,0.05
1.3986639976501465,0.02,0.02,0.0,0.02
1.4160189628601074,0.02,0.02,0.0,0.02
1.418241024017334,0.04,0.02,0.02,0.04
1.4283180236816406,0.04,0.02,0.02,0.04
1.4383950233459473,0.02,0.02,-0.01,0.03
1.4482829570770264,0.05,0.01,-0.02,0.05
1.4611010551452637,0.06,0.01,-0.02,0.06
1.4704220294952393,0.04,0.01,-0.03,0.05
1.498431921005249,0.02,0.02,-0.02,0.03
1.500154972076416,-0.01,0.02,-0.02,0.03
1.5012059211730957,-0.03,0.02,0.02,0.04
1.5159931182861328,-0.02,0.02,0.05,0.05
1.5173940658569336,-0.01,0.03,0.03,0.04
1.5318140983581543,0.02,0.01,0.01,0.02
1.537431001663208,0.07,0.01,-0.01,0.07
1.5472989082336426,0.08,0.01,-0.03,0.08
1.5617239475250244,0.06,0.01,-0.02,0.06
1.5677800178527832,0.05,0.02,-0.01,0.05
1.5974469184875488,0.02,0.0,0.01,0.02
1.5991888046264648,0.01,0.01,-0.01,0.01
1.6005611419677734,0.02,0.02,-0.01,0.03
1.6161730289459229,0.05,0.0,0.02,0.05
1.6175498962402344,0.04,0.02,0.02,0.04
1.6311240196228027,0.03,0.01,0.02,0.03
1.636582851409912,0.05,0.01,0.01,0.05
1.6473100185394287,0.04,0.0,0.01,0.04
1.65995192527771,0.0,0.01,0.0,0.01
1.6666960716247559,-0.01,0.01,0.0,0.01
1.6972379684448242,0.03,0.01,0.0,0.03
1.698805809020996,0.07,0.01,-0.01,0.07
1.7000808715820312,0.06,0.01,0.0,0.06
1.7163610458374023,0.02,0.0,-0.01,0.02
1.7177739143371582,0.01,0.01,0.01,0.01
1.732123851776123,0.02,0.01,0.02,0.03
1.7359018325805664,0.01,0.0,0.03,0.03
1.7463741302490234,-0.01,0.01,0.03,0.03
1.7590651512145996,-0.04,0.03,-0.02,0.05
1.766052007675171,-0.02,0.03,-0.03,0.04
1.779158115386963,0.03,0.03,-0.01,0.04
1.8014779090881348,0.03,0.03,0.0,0.04
1.8027160167694092,-0.02,0.01,0.0,0.02
1.8050799369812012,-0.02,0.0,0.0,0.02
1.8154070377349854,-0.02,0.01,0.0,0.02
1.8253929615020752,-0.03,0.01,0.01,0.03
1.835360050201416,-0.01,0.0,0.02,0.02
1.845715045928955,0.02,0.01,0.0,0.02
1.8579468727111816,0.04,0.02,-0.01,0.04
1.8654060363769531,0.06,0.01,0.0,0.06
1.8784661293029785,0.04,0.02,-0.02,0.04
1.8962249755859375,0.05,0.01,-0.01,0.05
1.8978180885314941,0.07,0.0,0.0,0.07
1.9048359394073486,0.03,0.0,0.05,0.05
1.9172301292419434,-0.01,0.0,0.07,0.07
1.9243979454040527,0.03,0.01,0.07,0.07
1.9345309734344482,0.05,0.02,0.04,0.06
1.9450709819793701,0.03,0.01,0.02,0.03
1.956852912902832,0.0,0.01,0.02,0.02
1.9665770530700684,-0.03,0.02,0.0,0.03
1.9768600463867188,-0.04,0.03,-0.06,0.07
1.9951438903808594,-0.01,0.02,-0.07,0.07
1.9965310096740723,0.03,0.02,-0.06,0.06
2.0040159225463867,0.02,0.01,-0.03,0.03
2.0166311264038086,-0.02,0.03,0.01,0.03
2.024005889892578,0.0,0.02,0.02,0.02
2.033658981323242,0.01,0.0,0.06,0.06
2.04366397857666,0.01,-0.01,0.04,0.04
2.0558559894561768,0.03,0.01,-0.01,0.03
2.0638020038604736,0.04,0.0,-0.01,0.04
2.077096939086914,0.03,-0.01,-0.02,0.03
2.0952110290527344,0.02,0.01,-0.01,0.02
2.0967330932617188,0.04,0.02,-0.01,0.04
2.103240966796875,0.07,0.0,0.02,0.07
2.116776943206787,0.08,0.0,0.02,0.08
2.1228959560394287,0.07,0.0,0.01,0.07
2.132633924484253,0.07,-0.01,0.01,0.07
2.145279884338379,0.03,0.01,0.01,0.03
2.1553211212158203,0.03,0.02,0.04,0.05
2.16487193107605,0.03,0.01,0.01,0.03
2.1745710372924805,0.02,0.01,0.0,0.02
2.19871187210083,0.01,0.01,0.01,0.01
2.2001960277557373,0.04,0.01,0.0,0.04
2.202241897583008,0.03,0.0,0.0,0.03
2.2172250747680664,0.01,0.01,-0.01,0.01
2.2224130630493164,0.0,0.01,0.0,0.01
2.232138156890869,0.02,0.02,0.01,0.03
2.242271900177002,0.01,0.01,0.04,0.04
2.2543389797210693,-0.01,0.01,0.02,0.02
2.2641658782958984,0.01,0.02,-0.01,0.02
2.274228096008301,0.04,0.02,-0.02,0.04
2.299893856048584,0.07,0.01,-0.03,0.07
2.3015408515930176,0.05,-0.01,0.0,0.05
2.30325984954834,0.03,0.01,-0.02,0.03
2.317189931869507,0.03,0.02,-0.02,0.04
2.3214521408081055,0.02,0.02,-0.03,0.04
2.3315930366516113,0.03,0.01,-0.01,0.03
2.3419189453125,0.04,0.01,0.0,0.04
2.353724956512451,0.0,0.01,-0.02,0.02
2.3640809059143066,0.01,0.02,0.01,0.02
2.3738040924072266,-0.01,0.0,0.06,0.06
2.3991849422454834,0.02,0.02,0.03,0.04
2.4007668495178223,0.08,0.02,-0.03,0.08
2.40232515335083,0.07,0.03,-0.05,0.09
2.4173519611358643,0.06,0.02,-0.04,0.07
2.420728921890259,0.05,0.0,-0.02,0.05
2.4305758476257324,0.02,0.01,0.01,0.02
2.440606117248535,-0.01,0.01,0.0,0.01
2.450840950012207,0.0,0.02,0.0,0.02
2.463644027709961,0.02,0.02,0.02,0.03
2.4726359844207764,0.01,0.01,0.02,0.02
2.498201847076416,0.04,0.02,0.01,0.04
2.499795913696289,0.05,0.0,0.0,0.05
2.501422882080078,0.02,0.01,-0.02,0.03
2.5176329612731934,-0.01,0.01,-0.01,0.01
2.5198121070861816,0.02,0.01,-0.01,0.02
2.5323879718780518,-0.01,0.03,-0.02,0.03
2.5402989387512207,-0.05,0.03,-0.02,0.06
2.552156925201416,-0.05,0.02,-0.03,0.06
2.562485933303833,0.02,0.01,-0.01,0.02
2.5720620155334473,0.04,0.0,0.02,0.04
2.5798768997192383,0.06,0.01,0.0,0.06
2.599400043487549,0.04,0.01,0.0,0.04
2.600757122039795,0.03,0.01,0.0,0.03
2.609200954437256,0.05,0.01,0.01,0.05
2.6194558143615723,0.02,0.01,-0.01,0.02
2.6293678283691406,-0.01,0.02,-0.02,0.03
2.639233112335205,0.0,0.02,-0.01,0.02
2.651850938796997,0.05,0.01,0.01,0.05
2.659421920776367,0.06,0.0,0.0,0.06
2.6712870597839355,0.06,0.01,-0.01,0.06
2.6814539432525635,0.02,0.01,0.0,0.02
2.6999399662017822,0.02,0.02,0.0,0.02
2.701054096221924,0.02,0.01,0.0,0.02
2.708621025085449,0.01,0.02,-0.01,0.02
2.7185168266296387,-0.01,0.01,0.0,0.01
2.7284951210021973,0.01,0.01,-0.01,0.01
2.738497018814087,0.03,0.02,-0.02,0.04
2.7488150596618652,0.05,0.01,-0.01,0.05
2.7621288299560547,0.07,0.0,-0.01,0.07
2.7684988975524902,0.07,0.01,0.0,0.07
2.781416893005371,0.04,0.01,0.02,0.04
2.7965869903564453,0.02,0.0,0.01,0.02
2.7981269359588623,0.02,0.01,0.01,0.02
2.8077688217163086,0.0,0.01,0.01,0.01
2.8178439140319824,0.0,0.01,0.0,0.01
2.8282828330993652,0.05,0.02,0.01,0.05
2.840179920196533,0.08,0.01,0.01,0.08
2.8495869636535645,0.07,0.0,0.01,0.07
2.8608219623565674,0.04,0.01,0.02,0.04
2.8694069385528564,0.03,0.01,0.01,0.03
2.880002975463867,0.03,0.01,-0.01,0.03
2.8975558280944824,0.03,-0.01,-0.01,0.03
2.8988518714904785,0.02,0.01,-0.01,0.02
2.907099962234497,0.06,0.02,-0.01,0.06
2.916949987411499,0.06,0.0,-0.01,0.06
2.926793098449707,0.04,0.01,-0.01,0.04
2.939335823059082,0.03,0.01,-0.01,0.03
2.9489049911499023,0.03,0.01,0.0,0.03
2.960042953491211,0.02,0.02,0.03,0.04
2.9686689376831055,0.01,0.01,0.01,0.01
2.9791979789733887,-0.03,0.02,-0.02,0.04
3.002668857574463,0.02,0.01,-0.02,0.03
3.004241943359375,0.09,0.0,-0.06,0.1
3.006138801574707,0.07,0.01,-0.02,0.07
3.017548084259033,0.02,0.01,-0.02,0.03
3.0258629322052,0.03,0.01,-0.02,0.03
3.0362658500671387,-0.01,0.02,-0.03,0.03
3.0492639541625977,-0.04,0.02,-0.02,0.04
3.0578560829162598,-0.02,0.02,-0.02,0.03
3.067913055419922,-0.01,0.02,-0.01,0.02
3.0777180194854736,-0.01,0.02,-0.01,0.02
3.103693962097168,0.0,0.02,-0.01,0.02
3.1051478385925293,-0.02,0.03,-0.03,0.04
3.1065449714660645,-0.02,0.02,-0.01,0.03
3.1155059337615967,-0.03,0.02,0.03,0.04
3.125382900238037,0.0,0.02,0.0,0.02
3.1354119777679443,0.04,0.0,-0.05,0.06
3.14546799659729,0.07,0.01,-0.03,0.07
3.1577630043029785,0.07,0.01,0.01,0.07
3.167811870574951,0.09,-0.01,0.02,0.09
3.175436019897461,0.09,0.0,-0.01,0.09
3.2061028480529785,0.04,0.01,-0.03,0.05
3.2077419757843018,0.0,0.03,-0.01,0.03
3.20940899848938,-0.02,0.02,0.02,0.03
3.214529037475586,-0.03,0.02,0.02,0.04
3.2246339321136475,-0.03,0.01,0.02,0.03
3.2347300052642822,-0.02,0.02,0.01,0.03
3.245131015777588,0.01,0.01,-0.02,0.02
3.2569940090179443,0.02,0.01,-0.05,0.05
3.26682186126709,0.0,0.0,-0.03,0.03
3.277132034301758,-0.02,0.01,0.0,0.02
3.297982931137085,-0.02,0.01,0.02,0.03
3.2994799613952637,0.02,0.02,0.03,0.04
3.3042140007019043,0.07,0.0,0.02,0.07
3.316826820373535,0.07,0.0,0.01,0.07
3.324147939682007,0.04,0.01,0.0,0.04
3.333709955215454,0.01,0.0,0.0,0.01
3.346120834350586,0.02,0.01,0.0,0.02
3.356215000152588,0.03,0.01,-0.01,0.03
3.3656489849090576,0.04,0.0,-0.01,0.04
3.3734729290008545,0.08,0.0,0.0,0.08
3.385806083679199,0.11,0.0,-0.01,0.11
3.4017889499664307,0.09,0.0,0.0,0.09
3.403306007385254,0.04,0.01,0.0,0.04
3.413336992263794,0.0,0.02,0.0,0.02
3.4230661392211914,0.0,0.01,0.01,0.01
3.433079957962036,-0.02,0.01,0.0,0.02
3.443502902984619,-0.05,0.03,-0.03,0.06
3.456101894378662,-0.01,0.03,-0.05,0.05
3.465181827545166,0.04,0.02,-0.04,0.06
3.4750900268554688,0.03,0.01,0.0,0.03
3.4829330444335938,-0.01,0.01,-0.01,0.01
3.5023279190063477,-0.01,0.01,0.0,0.01
3.5036940574645996,0.01,0.02,0.0,0.02
3.512515068054199,0.01,0.01,0.0,0.01
3.522469997406006,0.0,0.0,0.0,0.0
3.5322299003601074,-0.01,0.01,-0.02,0.02
3.542757987976074,0.01,0.02,-0.02,0.03
3.554518938064575,0.06,0.01,-0.02,0.06
3.565168857574463,0.07,0.01,0.0,0.07
3.5742239952087402,0.04,0.01,0.0,0.04
3.5838699340820312,0.03,0.01,0.0,0.03
3.600252151489258,0.01,0.01,0.01,0.01
3.6016640663146973,0.01,0.01,0.01,0.01
3.6119790077209473,0.01,-0.01,0.01,0.01
3.621716022491455,0.02,0.01,0.08,0.08
3.6314430236816406,-0.01,0.01,0.06,0.06
3.644545078277588,-0.01,-0.01,0.04,0.04
3.651705026626587,0.07,-0.01,0.01,0.07
3.664188861846924,0.08,-0.01,0.06,0.1
3.6734559535980225,0.04,0.01,0.08,0.09
3.683565139770508,-0.03,0.02,0.02,0.04
3.700565814971924,-0.05,0.05,-0.06,0.09
3.702362060546875,0.0,0.05,-0.1,0.11
3.711094856262207,0.06,0.04,-0.13,0.14
3.7208340167999268,0.1,0.02,-0.16,0.18
3.730912923812866,0.14,-0.01,-0.12,0.18
3.7408499717712402,0.12,-0.01,-0.02,0.12
3.753319025039673,0.05,-0.01,0.04,0.06
3.7609190940856934,0.01,0.0,0.06,0.06
3.7726879119873047,0.01,0.0,0.08,0.08
3.7829439640045166,0.11,-0.01,0.08,0.13
3.811375141143799,0.15,0.01,0.12,0.19
3.8131070137023926,0.11,-0.04,0.06,0.13
3.8144400119781494,0.17,-0.01,0.06,0.18
3.8336939811706543,0.16,0.0,0.07,0.17
3.835170030593872,0.17,-0.01,0.13,0.21
3.850304126739502,0.18,0.01,0.23,0.29
3.8525359630584717,0.05,0.01,0.27,0.27
3.867137908935547,-0.04,0.0,0.09,0.09
3.8727049827575684,-0.03,0.1,-0.18,0.2
3.8794918060302734,0.03,0.11,-0.24,0.26
3.9072790145874023,0.0,0.03,-0.19,0.19
3.909191131591797,-0.14,0.05,-0.21,0.25
3.910705089569092,-0.31,0.14,-0.23,0.41
3.9194278717041016,-0.4,0.2,-0.31,0.54
3.9335219860076904,-0.45,0.18,-0.41,0.63
3.9394049644470215,-0.55,0.13,-0.4,0.69
3.949709892272949,-0.64,0.14,-0.39,0.76
3.962671995162964,-0.7,0.13,-0.43,0.83
3.969403028488159,-0.73,0.13,-0.51,0.89
3.9815659523010254,-0.77,0.13,-0.55,0.95
4.008398056030273,-0.84,0.13,-0.56,1.01
4.009948015213013,-1.0,0.14,-0.65,1.2
4.011537075042725,-1.19,0.18,-0.69,1.38
4.018619060516357,-1.48,0.29,-0.72,1.67
4.028697967529297,-1.68,0.33,-0.9,1.93
4.038723945617676,-1.56,0.39,-0.78,1.78
4.048573017120361,-1.47,0.46,-0.9,1.78
4.058845043182373,-1.45,0.58,-1.26,2.0
4.071279048919678,-1.52,0.7,-1.36,2.15
4.081328868865967,-1.58,0.87,-1.27,2.2
4.105407953262329,-1.53,1.01,-1.18,2.18
4.1070640087127686,-1.44,1.12,-0.85,2.01
4.10887598991394,-1.22,1.41,-0.66,1.97
4.117753982543945,-1.0,1.87,-0.87,2.29
4.127864837646484,-1.45,3.61,-1.3,4.1
4.137603998184204,-2.78,4.39,-1.78,5.49
4.148461818695068,-3.24,3.85,-1.36,5.21
4.162169933319092,-2.56,2.94,-0.83,3.98
4.169938087463379,-2.08,2.61,-1.05,3.49
4.177236080169678,-1.68,2.21,-1.29,3.06
4.190062046051025,-1.06,1.27,-1.19,2.03
4.207688808441162,-0.55,0.61,-1.07,1.34
4.209685802459717,-0.09,0.12,-0.96,0.97
4.217116832733154,0.26,-0.37,-0.95,1.05
4.227049827575684,-0.23,-2.09,-1.24,2.44
4.236914157867432,-2.24,-3.16,-1.84,4.28
4.24702000617981,-4.14,-2.64,-1.94,5.27
4.2569379806518555,-3.36,-2.37,-1.31,4.31
4.2694220542907715,-2.96,-2.96,-0.94,4.29
4.276965141296387,-4.81,-2.69,-1.07,5.61
4.289224147796631,-6.22,-1.98,-0.95,6.59
4.30712103843689,-6.21,-2.16,-0.39,6.58
4.308995008468628,-5.42,-2.33,0.01,5.89
4.316551923751831,-4.97,-2.18,0.16,5.42
4.326376914978027,-4.96,-1.84,0.28,5.29
4.336461067199707,-4.87,-1.53,0.44,5.12
4.346364974975586,-4.51,-1.34,0.63,4.74
4.356135845184326,-3.99,-1.17,0.74,4.22
4.368780136108398,-3.27,-0.91,0.82,3.49
4.3763628005981445,-2.48,-0.69,0.91,2.73
4.388164043426514,-1.93,-0.52,0.81,2.15
4.408337116241455,-1.58,-0.29,0.62,1.72
4.410261154174805,-1.34,-0.06,0.48,1.42
4.415599822998047,-1.19,0.15,0.43,1.27
4.425622940063477,-0.99,0.34,0.42,1.12
4.435671806335449,-0.73,0.43,0.47,0.96
4.445529937744141,-0.43,0.45,0.54,0.82
4.455172061920166,0.07,0.49,0.79,0.93
4.465888977050781,1.07,0.68,1.0,1.61
4.479097843170166,2.13,1.21,1.05,2.66
4.485601902008057,3.13,1.61,0.78,3.6
4.507110118865967,3.96,1.72,0.56,4.35
4.508981943130493,4.4,1.72,0.45,4.74
4.514724016189575,3.22,4.92,0.62,5.91
4.5248589515686035,2.49,5.61,0.3,6.14
4.5346808433532715,5.63,0.41,0.46,5.66
4.544763088226318,8.33,0.7,1.95,8.58
4.5547709465026855,9.16,1.98,1.83,9.54
4.567047119140625,9.06,2.37,1.49,9.48
4.577847957611084,8.75,2.34,1.52,9.18
4.587062835693359,8.43,2.34,1.87,8.94
4.614501953125,7.12,1.02,1.24,7.29
4.61625599861145,2.61,-0.74,-1.04,2.9
4.617700099945068,-3.2,-0.87,-3.41,4.75
4.634580135345459,-5.32,1.29,-3.82,6.67
4.636080980300903,-3.91,4.73,-0.9,6.2
4.650302886962891,1.52,8.13,2.26,8.57
4.654056072235107,6.1,3.45,2.3,7.37
4.666330814361572,4.81,-0.79,1.57,5.12
4.6770429611206055,2.38,-1.49,2.04,3.47
4.68601393699646,1.19,-1.57,1.78,2.65
4.709312915802002,1.33,-1.55,1.56,2.57
4.711138010025024,1.91,-1.07,1.8,2.83
4.713289022445679,2.19,-0.42,1.6,2.74
4.723412990570068,2.27,-0.12,1.64,2.8
4.733365058898926,1.93,-0.02,1.79,2.63
4.743165969848633,1.37,-0.09,1.7,2.18
4.753233909606934,0.97,-0.32,1.28,1.63
4.763659954071045,0.62,-0.27,0.61,0.91
4.775557041168213,0.3,0.12,-0.09,0.33
4.785315990447998,0.15,0.46,-0.61,0.77
4.8102898597717285,0.3,0.43,-0.66,0.84
4.812190055847168,0.69,0.19,-0.51,0.87
4.81364893913269,0.93,0.1,-0.6,1.11
4.822417974472046,0.82,0.15,-0.89,1.21
4.832754135131836,0.46,0.19,-1.04,1.15
4.842574119567871,0.15,0.15,-0.98,1.0
4.852405071258545,0.01,0.07,-0.76,0.76
4.862401008605957,-0.02,0.04,-0.42,0.42
4.872678995132446,0.02,0.02,-0.07,0.07
4.885213851928711,0.11,0.01,0.25,0.27
4.914062976837158,0.07,0.03,0.4,0.4
4.915646076202393,-0.2,0.06,0.27,0.34
4.917075157165527,-0.46,0.02,0.06,0.46
4.921730041503906,-0.43,-0.02,-0.19,0.47
4.9319069385528564,-0.17,0.03,-0.4,0.43
4.941861152648926,0.04,0.13,-0.51,0.52
4.951802015304565,0.09,0.28,-0.53,0.6
4.96152400970459,-0.1,0.09,-0.6,0.61
4.971966981887817,-0.35,-0.22,-0.66,0.77
4.984208106994629,-0.2,-0.3,-0.63,0.72
4.994338035583496,0.06,-0.17,-0.29,0.34
5.014969825744629,-0.06,-0.02,0.01,0.06
5.0165979862213135,-0.32,0.04,0.11,0.34
5.021141052246094,-0.41,0.07,0.26,0.49
5.0352888107299805,-0.07,0.04,0.52,0.52
5.04102087020874,0.4,0.06,0.6,0.72
5.050688028335571,0.63,0.3,0.45,0.83
5.060741901397705,0.47,0.24,0.16,0.55
5.070894002914429,0.12,-0.01,-0.03,0.12
5.0837178230285645,-0.14,0.11,0.12,0.21
5.093158006668091,-0.42,0.16,-0.24,0.5
5.114078044891357,-0.3,0.04,-0.97,1.01
5.115686893463135,0.28,0.1,-1.11,1.14
5.1201491355896,0.55,0.08,-0.97,1.11
5.1370179653167725,0.32,-0.03,-0.69,0.76
5.14008903503418,-0.07,0.0,-0.54,0.54
5.15000581741333,-0.44,0.23,-0.59,0.77
5.160017967224121,-0.48,0.39,-0.59,0.85
5.1699538230896,-0.26,0.29,-0.64,0.74
5.1823530197143555,-0.41,0.26,-1.02,1.12
5.19035005569458,-0.84,0.35,-1.56,1.8
5.21337890625,-1.15,0.53,-1.91,2.29
5.2152769565582275,-1.4,0.76,-2.08,2.61
5.219717979431152,-1.69,0.77,-1.94,2.68
5.234304904937744,-1.89,0.72,-1.41,2.46
5.239375114440918,-2.1,0.82,-1.15,2.53
5.250522136688232,-2.06,1.18,-1.2,2.66
5.259390830993652,-1.92,1.18,-1.24,2.57
5.271765947341919,-2.21,1.15,-1.33,2.82
5.28226900100708,-2.42,1.4,-1.45,3.14
5.291198968887329,-2.76,1.6,-1.46,3.5
5.314666032791138,-3.52,2.28,-1.5,4.45
5.316421031951904,-4.02,3.25,-2.21,5.62
5.318634986877441,-5.53,4.91,-3.74,8.28
5.334005832672119,-5.31,6.12,-3.08,8.66
5.338640928268433,-4.29,5.01,-3.29,7.37
5.350380897521973,-4.33,5.32,-3.54,7.71
5.3586390018463135,-4.8,5.72,-3.55,8.26
5.368237018585205,-5.6,6.27,-3.38,9.06
5.3788628578186035,-5.84,6.47,-3.51,9.39
5.390596866607666,-5.71,5.95,-3.45,8.93
5.416445016860962,-5.18,5.14,-3.75,8.2
5.418149948120117,-4.78,4.49,-4.76,8.1
5.419870853424072,-4.58,5.41,-5.28,8.83
5.427886962890625,-4.25,6.61,-5.35,9.5
5.438199043273926,-1.89,7.17,-4.24,8.54
5.448040008544922,2.82,8.37,-1.54,8.96
5.457911968231201,4.74,6.32,-0.8,7.94
5.4676618576049805,2.09,2.53,-2.13,3.91
5.4776599407196045,-2.08,0.29,-4.21,4.7
5.490334987640381,-6.06,-3.14,-5.1,8.52
5.515790939331055,-5.68,-5.72,-4.03,9.01
5.5174720287323,-2.56,-4.21,-2.99,5.76
5.519154071807861,-6.19,-3.31,-2.81,7.56
5.5354180335998535,-9.92,-2.76,-2.79,10.66
5.537003993988037,-11.2,-3.01,-2.09,11.78
5.550621032714844,-9.97,-3.94,-0.89,10.75
5.557271957397461,-8.63,-4.57,-0.28,9.76
5.566695928573608,-8.15,-4.78,-0.36,9.45
5.5774641036987305,-7.97,-4.7,-0.6,9.27
5.589613914489746,-7.74,-4.55,-0.65,9.0
5.619402885437012,-7.45,-4.44,-0.69,8.7
5.621203899383545,-7.0,-4.41,-0.78,8.31
5.622625827789307,-6.42,-4.35,-0.92,7.8
5.635087966918945,-5.8,-4.27,-0.97,7.26
5.636561870574951,-5.16,-3.96,-0.79,6.55
5.650707006454468,-4.61,-3.49,-0.37,5.79
5.656163930892944,-4.23,-3.03,0.1,5.2
5.66614294052124,-4.0,-2.34,0.07,4.63
5.67616605758667,-3.63,-1.37,-0.64,3.93
5.688465118408203,-2.79,-0.2,-1.46,3.15
5.718794822692871,-1.76,0.95,-1.7,2.62
5.720618009567261,-0.78,1.7,-1.06,2.14
5.722052097320557,-0.12,2.25,-0.37,2.28
5.735270023345947,0.16,2.94,-0.22,2.95
5.736694812774658,0.59,3.92,0.07,3.96
5.750862121582031,1.59,5.14,0.54,5.4
5.755486011505127,2.95,6.03,0.67,6.74
5.765913009643555,4.26,6.31,0.45,7.62
5.775476932525635,5.53,6.42,0.29,8.47
5.787838935852051,7.09,6.65,0.01,9.72
5.795627117156982,6.76,13.52,0.46,15.12
5.820712089538574,10.44,11.9,-1.66,15.91
5.822376012802124,18.14,5.09,-1.2,18.87
5.824784994125366,19.22,4.06,-0.33,19.64
5.835572004318237,16.35,4.19,-0.73,16.89
5.844709873199463,14.4,4.08,-0.26,14.96
5.855103015899658,14.14,3.83,1.04,14.68
5.864818096160889,14.56,4.07,2.26,15.28
5.875036954879761,14.5,4.43,2.79,15.41
5.886980056762695,13.13,3.25,3.12,13.88
5.897701978683472,8.68,-0.86,1.42,8.83
5.922418117523193,-0.36,-2.71,-1.35,3.04
5.924019813537598,-6.39,1.78,-1.06,6.71
5.925729990005493,-3.11,7.32,1.9,8.17
5.933682918548584,1.49,8.16,2.61,8.69
5.9440388679504395,6.46,5.12,1.92,8.46
5.954215049743652,7.91,-0.79,0.54,7.96
5.964051961898804,4.65,-1.1,1.21,4.92
5.97393798828125,2.03,0.04,2.86,3.5
5.983705997467041,0.7,-0.93,2.18,2.47
5.994024991989136,0.74,-1.34,1.46,2.11
6.018834114074707,1.14,-0.79,1.07,1.75
6.020488977432251,1.56,0.13,0.99,1.85
6.023379802703857,1.76,0.62,0.79,2.02
6.035588026046753,1.3,0.19,0.19,1.32
6.043515920639038,0.61,-0.32,-0.56,0.88
6.053061008453369,0.17,-0.38,-1.03,1.11
6.063226938247681,0.1,-0.16,-1.36,1.37
6.0731401443481445,0.22,0.11,-1.18,1.2
6.083259105682373,0.15,0.27,-0.77,0.82
6.096908092498779,0.03,0.42,-0.97,1.05
6.121528148651123,0.05,0.39,-1.83,1.87
6.123171806335449,0.02,-0.04,-2.34,2.34
6.124861001968384,-0.06,-0.28,-2.25,2.26
6.133793830871582,-0.03,-0.14,-1.76,1.76
6.14271092414856,-0.32,0.15,-0.46,0.58
6.152463912963867,-0.74,0.24,0.44,0.89
6.162464141845703,-1.11,-0.01,0.39,1.17
6.172155857086182,-1.33,0.07,0.09,1.33
6.182379961013794,-1.18,0.17,-0.02,1.19
6.192744970321655,-0.79,0.02,-0.08,0.79
6.226683139801025,0.03,0.03,0.13,0.13
6.228276014328003,0.98,0.07,0.26,1.01
6.229888916015625,1.37,0.05,0.17,1.38
6.2317681312561035,1.35,-0.07,0.2,1.36
6.241770029067993,0.95,-0.14,0.41,1.04
6.251855850219727,0.43,-0.04,0.41,0.59
6.261634826660156,0.05,0.06,0.17,0.18
6.271597862243652,0.02,0.09,-0.16,0.18
6.281780004501343,0.12,0.26,-0.27,0.39
6.291440010070801,0.41,0.2,-0.19,0.49
6.322619915008545,0.65,0.02,-0.14,0.66
6.324335098266602,0.67,-0.09,-0.17,0.69
6.32581901550293,0.55,0.0,-0.18,0.57
6.33257794380188,0.28,0.19,-0.34,0.47
6.341153144836426,-0.05,0.32,-0.59,0.67
6.3509931564331055,-0.28,0.48,-0.7,0.89
6.360881805419922,-0.33,0.52,-0.8,1.0
6.370669841766357,-0.34,0.45,-0.84,1.01
6.3807899951934814,-0.44,0.47,-0.6,0.88
6.393457889556885,-0.78,0.43,-0.35,0.95
6.422796010971069,-1.24,0.81,-0.03,1.48
6.424426078796387,-1.45,1.3,-0.52,2.01
6.426118850708008,-1.6,1.52,-1.03,2.43
6.434751033782959,-1.18,2.07,-0.4,2.41
6.440218925476074,-0.82,1.92,-0.59,2.16
6.450196027755737,-0.82,1.75,-0.55,2.0
6.4602320194244385,-1.32,1.38,-0.58,1.99
6.469906806945801,-1.83,1.14,-0.71,2.26
6.480088949203491,-2.07,1.17,-0.85,2.52
6.492735862731934,-2.13,1.29,-1.16,2.74
6.524332046508789,-2.34,1.34,-1.75,3.21
6.525929927825928,-2.6,1.36,-2.52,3.86
6.527811050415039,-2.73,1.33,-2.86,4.17
6.531131982803345,-3.19,1.44,-2.94,4.57
6.551054000854492,-3.83,1.88,-3.26,5.36
6.552506923675537,-4.31,2.94,-3.76,6.43
6.565277099609375,-4.51,3.8,-4.53,7.43
6.569202899932861,-4.72,4.25,-5.16,8.18
6.58274507522583,-5.16,4.69,-5.25,8.72
6.589724063873291,-5.6,4.82,-5.11,8.98
6.604093074798584,-5.94,4.7,-4.99,9.07
6.628086090087891,-6.02,4.63,-5.02,9.1
6.629730939865112,-5.47,4.77,-4.62,8.6
6.630756855010986,-4.86,4.86,-3.86,7.88
6.638759136199951,-3.73,4.86,-3.02,6.83
6.648885011672974,-1.49,5.46,-1.92,5.97
6.658829927444458,1.99,8.19,-0.24,8.43
6.668583869934082,4.28,8.86,-1.61,9.97
6.678308010101318,1.12,6.33,-3.6,7.36
6.688529014587402,-2.63,3.88,-3.86,6.07
6.698889970779419,-5.36,0.84,-3.47,6.44
6.727116107940674,-7.48,-2.33,-2.81,8.32
6.72873592376709,-7.14,-5.18,-2.01,9.04
6.7303619384765625,-0.63,-4.01,-0.78,4.13
6.7386088371276855,-0.25,-1.26,-0.46,1.36
6.748157024383545,-5.01,-1.67,-1.5,5.48
6.758033990859985,-8.52,-1.69,-2.17,8.95
6.767882823944092,-9.85,-1.98,-1.57,10.16
6.777673006057739,-8.95,-2.36,-0.65,9.27
6.787817001342773,-7.28,-2.74,-0.21,7.78
6.798074960708618,-5.92,-3.19,-0.22,6.72
6.8262038230896,-5.39,-3.44,-0.56,6.41
6.827897071838379,-5.45,-3.35,-1.04,6.48
6.829509019851685,-5.7,-3.01,-1.5,6.61
6.837102890014648,-5.82,-2.57,-1.79,6.6
6.847530841827393,-5.68,-2.3,-1.73,6.36
6.857287883758545,-5.26,-2.17,-1.49,5.88
6.86710786819458,-4.85,-2.17,-1.25,5.45
6.877019882202148,-4.45,-2.01,-1.04,4.99
6.887025833129883,-4.37,-1.75,-1.13,4.84
6.896939992904663,-4.5,-1.38,-1.15,4.84
6.925038814544678,-4.41,-0.94,-1.05,4.62
6.926732063293457,-4.09,-0.59,-1.08,4.27
6.928174018859863,-3.54,-0.35,-1.34,3.8
6.9365010261535645,-2.53,0.1,-1.7,3.04
6.951385021209717,-1.12,0.77,-1.9,2.33
6.956293106079102,0.07,1.4,-1.89,2.35
6.966546058654785,0.51,1.65,-1.89,2.56
6.976346015930176,0.22,2.04,-1.77,2.7
6.986072063446045,-0.06,2.83,-1.62,3.26
6.999495983123779,0.15,3.72,-1.29,3.94
7.031517028808594,0.89,4.33,-0.73,4.48
7.033170938491821,1.84,4.57,-0.27,4.93
7.0346839427948,2.48,4.89,-0.48,5.5
7.0519349575042725,3.12,5.51,-1.08,6.42
7.053423881530762,4.48,6.18,-1.29,7.74
7.06793999671936,6.76,6.78,-1.02,9.62
7.06942081451416,7.95,9.21,-0.47,12.17
7.0835280418396,9.1,8.23,-0.7,12.28
7.085343837738037,11.83,3.33,0.4,12.29
7.100606918334961,11.74,3.45,2.87,12.56
7.130213975906372,10.27,3.59,3.42,11.4
7.1320109367370605,8.82,3.9,3.53,10.26
7.133453845977783,8.4,3.55,3.6,9.8
7.151742935180664,8.64,3.55,4.01,10.16
7.153133869171143,8.5,3.41,4.45,10.18
7.16798996925354,8.17,2.88,4.3,9.67
7.169434070587158,7.74,2.49,3.8,8.97
7.1836018562316895,7.15,2.9,3.64,8.53
7.185065984725952,7.19,4.06,4.05,9.19
7.200318813323975,7.45,3.78,3.49,9.05
7.232926845550537,4.19,0.93,0.33,4.3
7.2342610359191895,-1.26,0.55,-2.72,3.04
7.2352659702301025,-2.14,2.53,-2.04,3.89
7.252104997634888,1.08,3.72,0.26,3.88
7.253535032272339,4.09,4.37,0.98,6.06
7.268018960952759,4.45,5.14,1.06,6.88
7.26948094367981,4.16,4.63,0.89,6.28
7.283661842346191,6.0,3.46,0.96,6.99
7.285076141357422,6.2,0.25,0.67,6.24
7.300550937652588,4.65,-0.57,2.4,5.26
7.331079959869385,3.77,-1.55,3.03,5.07
7.332426071166992,3.63,-1.68,2.27,4.59
7.333449840545654,3.89,-0.96,2.32,4.62
7.35191798210144,3.36,-0.24,2.06,3.94
7.353338003158569,2.55,0.01,1.78,3.1
7.368165016174316,1.9,-0.09,1.38,2.35
7.369657039642334,1.11,-0.05,0.92,1.44
7.3835790157318115,0.41,0.12,0.58,0.72
7.385066032409668,-0.14,0.16,0.21,0.29
7.399729013442993,-0.29,0.24,-0.22,0.43
7.402940034866333,-0.24,0.23,-0.51,0.6
7.4466681480407715,-0.2,0.09,-0.83,0.85
7.448008060455322,-0.07,-0.05,-1.25,1.25
7.448999881744385,0.18,-0.1,-1.66,1.67
7.46865701675415,0.37,0.09,-1.97,2.0
7.470122814178467,0.66,0.17,-1.9,2.01
7.484689950942993,0.83,0.03,-1.54,1.74
7.486156940460205,0.82,0.05,-1.22,1.47
7.500553131103516,0.55,0.06,-0.77,0.94
7.502033948898315,0.14,0.04,-0.27,0.3
7.517045974731445,-0.21,0.0,0.03,0.21
7.544306993484497,-0.47,-0.11,0.17,0.51
7.545612812042236,-0.71,-0.19,0.22,0.76
7.546622037887573,-0.99,-0.21,0.32,1.06
7.548785924911499,-1.0,-0.21,0.44,1.11
7.55151891708374,-0.65,-0.19,0.43,0.8
7.561551094055176,-0.29,-0.18,0.14,0.36
7.571802139282227,-0.07,-0.18,-0.5,0.53
7.58175802230835,-0.06,-0.29,-1.24,1.27
7.591571807861328,-0.13,-0.22,-1.77,1.78
7.601561069488525,-0.11,-0.09,-1.75,1.75
7.628597021102905,0.0,0.11,-0.84,0.84
7.6297760009765625,-0.19,0.25,0.04,0.31
7.630788803100586,-0.64,0.04,0.39,0.75
7.652486801147461,-0.76,0.06,0.47,0.89
7.653925895690918,-0.47,0.27,0.55,0.77
7.667715072631836,-0.06,0.29,0.59,0.66
7.670895099639893,0.11,0.26,0.45,0.53
7.683824062347412,0.06,0.19,-0.06,0.2
7.690797805786133,0.25,0.19,-0.49,0.58
7.700591087341309,0.65,0.26,-0.52,0.87
7.731555938720703,0.83,0.23,-0.6,1.04
7.732954978942871,0.37,0.23,-0.87,0.97
7.7339301109313965,-0.1,0.47,-0.95,1.06
7.752488136291504,-0.45,0.63,-0.78,1.09
7.753937005996704,-1.0,0.4,-0.82,1.35
7.768409967422485,-1.55,0.36,-0.9,1.82
7.769979953765869,-2.0,0.53,-1.14,2.36
7.783708095550537,-2.17,0.77,-1.36,2.67
7.789880037307739,-1.88,0.95,-1.49,2.58
7.800683975219727,-1.61,0.84,-1.67,2.46
7.841264009475708,-1.29,0.97,-1.38,2.12
7.843116998672485,-1.02,1.16,-1.01,1.84
7.844192028045654,-1.38,1.51,-0.7,2.16
7.8481011390686035,-2.27,2.59,0.26,3.45
7.849153995513916,-2.75,2.44,-0.35,3.69
7.868530035018921,-3.06,2.8,-0.48,4.17
7.8700339794158936,-3.34,3.39,-1.16,4.89
7.883826971054077,-3.42,3.79,-2.3,5.59
7.8893208503723145,-2.67,3.71,-2.94,5.43
7.89983606338501,-1.86,3.25,-2.79,4.66
7.9335761070251465,-2.2,3.08,-2.61,4.59
7.934852123260498,-3.38,3.33,-2.62,5.42
7.935851097106934,-4.36,3.78,-2.67,6.35
7.95251989364624,-5.22,4.36,-2.98,7.42
7.9539899826049805,-5.99,4.57,-3.48,8.29
7.968513011932373,-6.38,4.43,-3.9,8.69
7.969960927963257,-6.56,4.34,-4.4,9.01
7.9839630126953125,-6.54,3.97,-4.82,9.04
7.988562107086182,-5.95,3.51,-4.96,8.5
7.999956130981445,-5.24,4.32,-4.72,8.27
8.035918951034546,-4.9,5.46,-4.76,8.74
8.037259101867676,-4.01,6.63,-5.02,9.23
8.038264036178589,-1.11,9.09,-3.11,9.67
8.05259394645691,3.96,12.37,0.29,12.99
8.05405592918396,2.84,8.66,-1.31,9.2
8.068091869354248,-1.65,5.42,-5.17,7.66
8.06955099105835,-5.5,3.27,-6.89,9.4
8.084887981414795,-7.83,-0.82,-6.21,10.02
8.087803840637207,-7.59,-5.72,-4.87,10.67
8.100648880004883,0.51,-3.18,-2.32,3.96
8.136399984359741,2.37,-0.88,-1.64,3.01
8.137753009796143,-2.81,-2.1,-3.2,4.74
8.138781070709229,-7.64,-2.58,-4.87,9.42
8.152630805969238,-10.81,-2.47,-4.46,11.95
8.15414810180664,-11.85,-2.22,-2.97,12.41
8.168424129486084,-10.81,-2.82,-1.56,11.28
8.169970989227295,-8.95,-3.98,-0.54,9.8
8.184040069580078,-7.56,-4.85,0.11,8.98
8.18691897392273,-6.82,-4.83,0.2,8.35
8.200053930282593,-6.57,-4.16,-0.14,7.77
8.207211971282959,-6.52,-3.48,-0.5,7.4
8.247509956359863,-6.54,-3.05,-0.63,7.24
8.248702049255371,-6.37,-2.98,-0.53,7.05
8.249660968780518,-6.19,-2.94,-0.37,6.86
8.269158840179443,-6.17,-2.86,-0.03,6.8
8.270625114440918,-6.22,-2.57,0.38,6.74
8.285164833068848,-6.19,-1.86,0.69,6.5
8.286603927612305,-6.14,-1.12,0.38,6.25
8.300548076629639,-5.7,-0.33,-0.45,5.72
8.302011966705322,-4.15,0.77,-0.92,4.31
8.316774845123291,-1.45,2.12,-0.8,2.69
8.344082832336426,1.1,3.21,-0.32,3.4
8.345487117767334,1.81,3.71,0.16,4.13
8.346516132354736,1.09,4.0,0.36,4.16
8.34906005859375,0.75,5.0,0.73,5.1
8.355504035949707,1.62,6.45,0.91,6.71
8.365458965301514,3.51,7.68,0.34,8.45
8.375771045684814,5.75,8.83,-0.14,10.53
8.385477066040039,8.05,9.43,-0.42,12.4
8.395336151123047,9.97,9.14,0.12,13.52
8.405397891998291,11.58,8.21,1.72,14.29
8.435809135437012,11.95,6.76,3.16,14.08
8.437108993530273,10.12,7.74,3.88,13.31
8.438117027282715,10.67,6.61,4.53,13.34
8.452375888824463,12.6,6.16,4.73,14.8
8.454669952392578,13.1,7.47,4.19,15.65
8.468516826629639,13.39,6.85,2.87,15.31
8.474990844726562,14.04,5.47,1.96,15.19
8.484682083129883,14.93,3.93,0.85,15.46
8.4947669506073,15.46,2.29,-0.63,15.64
8.504492998123169,12.76,0.46,-2.57,13.02
8.536386966705322,3.29,0.4,-3.98,5.17
8.537719964981079,-6.56,3.18,-2.85,7.82
8.538708925247192,-6.61,5.21,1.32,8.51
8.552332878112793,0.8,3.48,3.94,5.31
8.553908824920654,6.2,2.84,2.34,7.2
8.568722009658813,7.04,4.5,1.77,8.54
8.574005126953125,8.08,5.2,2.03,9.82
8.583754062652588,8.01,1.3,1.56,8.26
8.593998908996582,4.55,0.0,2.19,5.04
8.60367488861084,3.18,-0.36,4.11,5.2
8.641593933105469,3.03,-1.39,3.47,4.81
8.642957925796509,3.16,-1.78,2.73,4.53
8.644035816192627,2.57,-1.02,1.7,3.24
8.648839950561523,1.76,0.01,0.51,1.83
8.668751955032349,0.9,0.47,-0.76,1.26
8.670217037200928,0.3,0.04,-1.6,1.62
8.68392300605774,0.6,0.03,-1.34,1.46
8.685389995574951,0.99,0.08,-0.78,1.26
8.700309991836548,0.88,0.13,-0.21,0.91
8.70294189453125,0.42,0.04,0.25,0.49
8.744441986083984,0.06,-0.07,-0.19,0.21
8.74559211730957,-0.11,0.08,-0.85,0.86
8.746859073638916,-0.01,0.33,-0.99,1.04
8.748652935028076,0.12,0.31,-0.9,0.95
8.752357006072998,0.15,0.09,-0.73,0.75
8.762435913085938,0.08,-0.09,-0.58,0.59
8.772571086883545,-0.02,-0.12,-0.38,0.39
8.782364845275879,-0.01,-0.15,-0.22,0.26
8.792192935943604,0.18,-0.17,0.01,0.24
8.802367925643921,0.44,-0.08,0.11,0.46
8.838156938552856,0.58,0.02,0.16,0.6
8.839308023452759,0.5,0.03,0.25,0.55
8.840296983718872,0.31,0.07,0.18,0.36
8.852488994598389,0.13,0.1,-0.06,0.17
8.853524923324585,-0.02,0.12,-0.33,0.35
8.868340015411377,-0.07,0.1,-0.65,0.66
8.871482849121094,-0.08,0.07,-0.76,0.76
8.884189128875732,-0.14,0.12,-0.72,0.74
8.891704082489014,-0.2,0.06,-0.51,0.55
8.901365995407104,-0.23,-0.03,-0.31,0.38
8.937762022018433,-0.29,-0.1,-0.24,0.38
8.938930034637451,-0.42,0.0,-0.1,0.43
8.939929962158203,-0.46,0.16,-0.03,0.48
8.952723979949951,-0.36,0.28,-0.14,0.47
8.953795909881592,-0.15,0.22,-0.32,0.41
8.968454837799072,0.05,0.1,-0.31,0.32
8.970747947692871,0.17,0.13,-0.36,0.41
8.983697891235352,0.07,0.17,-0.62,0.64
8.990827083587646,-0.32,0.21,-0.82,0.9
9.000671863555908,-0.85,0.2,-1.08,1.38
9.010838031768799,-1.35,0.27,-1.22,1.83
9.04141092300415,-1.76,0.4,-1.27,2.2
9.042559146881104,-1.96,0.58,-1.3,2.42
9.04374098777771,-1.96,0.89,-1.34,2.53
9.050249099731445,-1.84,1.11,-1.32,2.52
9.060099124908447,-1.83,1.11,-1.5,2.61
9.070114135742188,-2.14,1.19,-1.78,3.02
9.079993963241577,-2.59,1.45,-1.67,3.4
9.090016841888428,-3.13,1.9,-1.74,4.05
9.100247859954834,-3.32,2.75,-2.32,4.89
9.110083103179932,-3.0,4.02,-1.26,5.17
9.141714096069336,-2.24,4.06,-1.01,4.74
9.143059015274048,-2.37,3.86,-1.15,4.67
9.144148826599121,-3.01,4.06,-1.35,5.23
9.15041208267212,-3.86,4.38,-2.23,6.24
9.159494876861572,-4.3,4.58,-3.17,7.03
9.169179916381836,-4.59,5.02,-3.99,7.88
9.179141998291016,-4.82,5.58,-4.24,8.5
9.189294815063477,-5.59,6.2,-4.42,9.44
9.199603080749512,-6.72,6.42,-4.81,10.46
9.20930814743042,-6.94,5.65,-4.73,10.12
9.241002082824707,-7.11,5.28,-4.79,10.06
9.242398023605347,-7.33,4.64,-5.28,10.15
9.243442058563232,-6.47,4.47,-5.46,9.57
9.252449989318848,-5.09,6.31,-5.4,9.74
9.25851583480835,-2.39,8.88,-4.22,10.11
9.268517017364502,3.42,12.81,0.19,13.26
9.278558015823364,5.56,10.16,0.3,11.58
9.288594961166382,1.6,5.12,-3.7,6.51
9.298720836639404,-4.08,3.13,-6.64,8.39
9.308602809906006,-8.13,-0.58,-6.09,10.17
9.341241836547852,-7.27,-3.49,-4.45,9.21
9.34251594543457,0.98,-3.57,-3.41,5.03
9.343528985977173,1.82,-3.04,-3.26,4.81
9.3504319190979,-3.76,-2.55,-4.17,6.16
9.35814380645752,-8.8,-1.65,-4.87,10.19
9.368520975112915,-11.04,-1.49,-3.89,11.79
9.377817153930664,-10.6,-2.11,-1.91,10.97
9.387862920761108,-9.12,-3.24,-0.48,9.69
9.397993087768555,-8.3,-4.03,-0.07,9.22
9.407789945602417,-8.29,-4.13,-0.37,9.26
9.444989919662476,-8.48,-3.77,-0.68,9.3
9.446452140808105,-8.37,-3.52,-0.71,9.1
9.447410106658936,-7.94,-3.59,-0.53,8.72
9.449697971343994,-7.28,-3.7,-0.43,8.17
9.45703411102295,-6.61,-3.79,-0.42,7.63
9.467581033706665,-6.24,-3.71,-0.38,7.26
9.477028846740723,-6.07,-3.51,-0.46,7.02
9.487215995788574,-6.0,-3.28,-0.53,6.85
9.497112035751343,-6.0,-2.82,-0.53,6.65
9.507152080535889,-6.01,-2.13,-0.59,6.4
9.544304847717285,-5.82,-1.37,-1.12,6.08
9.545703887939453,-4.91,-0.6,-1.73,5.24
9.546672821044922,-3.15,0.3,-2.31,3.91
9.548650026321411,-0.79,1.3,-2.58,2.99
9.556205034255981,1.15,2.39,-2.3,3.51
9.566504001617432,1.94,3.33,-2.2,4.43
9.57634687423706,1.68,4.01,-1.52,4.6
9.586220979690552,1.18,5.06,-0.39,5.21
9.596154928207397,1.19,6.05,0.55,6.19
9.606359004974365,2.03,6.77,1.34,7.19
9.644218921661377,3.57,7.27,1.44,8.22
9.645694017410278,5.24,8.07,0.25,9.62
9.646642923355103,7.09,8.88,-0.87,11.39
9.648697853088379,8.48,10.3,-0.98,13.37
9.655537128448486,10.32,9.28,-1.22,13.93
9.665786027908325,12.61,6.81,-0.31,14.33
9.675607919692993,15.48,3.78,0.95,15.96
9.685688018798828,14.88,3.97,1.81,15.5
9.695519924163818,12.81,5.12,1.66,13.89
9.705635070800781,12.08,4.77,1.65,13.09
9.742156028747559,12.37,4.37,2.04,13.27
9.74343204498291,12.29,4.32,1.88,13.16
9.744508981704712,11.07,4.49,1.94,12.1
9.750677108764648,9.32,6.09,3.64,11.71
9.75478982925415,7.65,6.11,4.58,10.8
9.768790006637573,2.63,1.84,2.12,3.84
9.774713039398193,-3.51,0.82,-0.5,3.63
9.784533023834229,-1.46,2.32,0.4,2.77
9.794783115386963,4.31,4.4,1.35,6.3
9.804826021194458,6.42,5.39,0.83,8.42
9.814757823944092,6.7,5.05,0.56,8.4
9.846354007720947,9.38,3.45,0.61,10.01
9.847543001174927,9.4,0.64,-0.27,9.42
9.84853982925415,6.72,1.16,2.34,7.2
9.869671821594238,4.37,-0.87,2.53,5.12
9.870720863342285,3.36,-2.41,1.12,4.28
9.885748863220215,2.99,-2.09,0.84,3.74
9.887240886688232,2.31,-0.38,0.85,2.49
9.901363849639893,1.72,0.47,0.62,1.88
9.90389108657837,1.05,0.06,0.15,1.06
9.917749881744385,0.5,-0.26,0.07,0.56
9.946879863739014,0.34,-0.26,-0.07,0.43
9.948239803314209,0.32,0.0,0.38,0.49
9.949219942092896,0.49,0.1,0.62,0.79
9.969844818115234,0.75,0.03,0.26,0.79
9.970754146575928,0.74,0.14,-0.49,0.89
9.985562801361084,0.74,0.27,-1.27,1.49
9.986539840698242,0.94,0.15,-1.68,1.93
10.001420974731445,1.28,0.03,-1.4,1.89
10.00307297706604,1.17,-0.13,-0.9,1.48
10.017567157745361,0.65,-0.07,-0.2,0.68
10.045030117034912,-0.01,0.17,0.02,0.17
10.046388149261475,-0.6,0.27,-0.03,0.65
10.047428131103516,-0.69,0.16,-0.38,0.8
10.052547931671143,-0.39,0.1,-0.52,0.65
10.062518119812012,-0.05,0.05,-0.51,0.51
10.07260799407959,0.12,-0.11,-0.56,0.58
10.082633972167969,0.39,-0.11,-0.31,0.51
10.092324018478394,0.52,0.01,-0.16,0.54
10.102229118347168,0.39,-0.06,-0.49,0.62
10.1123948097229,0.18,-0.15,-0.48,0.53
10.143160820007324,0.11,-0.03,-0.22,0.24
10.144320011138916,0.02,0.1,-0.32,0.33
10.145546913146973,-0.21,0.01,-0.74,0.76
10.151809930801392,-0.41,-0.1,-0.84,0.94
10.161801815032959,-0.39,-0.16,-0.79,0.89
10.171794891357422,-0.37,-0.13,-0.88,0.96
10.181786060333252,-0.35,-0.09,-0.91,0.97
10.191454887390137,-0.35,0.02,-0.78,0.85
10.201833009719849,-0.4,0.21,-0.59,0.74
10.211599826812744,-0.55,0.32,-0.34,0.72
10.249515056610107,-0.52,0.49,-0.2,0.74
10.250890970230103,-0.6,0.72,-0.29,0.98
10.251885890960693,-1.04,0.83,-0.51,1.42
10.269528865814209,-1.48,0.75,-0.77,1.82
10.270543098449707,-1.92,0.54,-0.99,2.22
10.286003112792969,-2.21,0.41,-1.1,2.5
10.287460803985596,-2.23,0.76,-1.33,2.7
10.30148983001709,-1.79,1.29,-1.68,2.77
10.30297303199768,-2.01,2.18,-1.97,3.55
10.317553997039795,-2.3,3.38,-0.78,4.16
10.347992897033691,-2.03,2.82,-1.37,3.73
10.349349021911621,-2.49,2.95,-2.18,4.43
10.350419044494629,-3.05,3.49,-2.37,5.2
10.369522094726562,-3.61,3.59,-2.62,5.72
10.370589017868042,-3.82,3.74,-3.09,6.17
10.384796142578125,-3.99,4.0,-3.72,6.76
10.385838031768799,-4.57,4.67,-4.39,7.87
10.40142297744751,-5.21,5.4,-4.9,8.96
10.402899980545044,-5.69,6.11,-5.05,9.75
10.417812824249268,-6.16,6.75,-5.18,10.5
10.446123123168945,-6.78,6.9,-5.18,10.97
10.447553157806396,-7.4,6.13,-5.13,10.89
10.448611974716187,-7.27,4.86,-5.51,10.33
10.470087051391602,-5.92,3.65,-5.77,9.03
10.471135139465332,-4.32,3.78,-5.66,8.06
10.486006021499634,-4.02,5.65,-5.41,8.79
10.487036943435669,-2.17,8.87,-3.76,9.87
10.501031875610352,3.6,12.68,-1.41,13.25
10.502493858337402,4.84,10.74,-2.3,12.0
10.518170833587646,0.46,5.99,-4.17,7.31
10.546355962753296,-4.24,2.81,-5.74,7.66
10.547854900360107,-8.17,-1.17,-5.34,9.83
10.548836946487427,-8.19,-4.89,-4.06,10.36
10.569921970367432,0.24,-4.49,-2.03,4.93
10.570960998535156,1.78,-3.18,-1.15,3.82
10.586122035980225,-3.54,-3.87,-2.06,5.63
10.587191104888916,-8.28,-3.59,-3.11,9.54
10.601660013198853,-10.82,-3.42,-2.44,11.6
10.60306692123413,-10.38,-3.55,-0.75,10.99
10.61823296546936,-8.56,-4.05,0.39,9.47
10.619627952575684,-7.05,-4.85,0.54,8.57
10.662609100341797,-6.51,-5.16,0.04,8.3
10.663761138916016,-6.64,-4.59,-0.62,8.09
10.664721965789795,-6.78,-3.72,-1.14,7.81
10.666178941726685,-6.7,-3.09,-1.21,7.47
10.667706966400146,-6.28,-2.82,-1.03,6.96
10.677823066711426,-5.62,-2.62,-0.86,6.26
10.687976837158203,-5.17,-2.49,-0.91,5.81
10.697832107543945,-5.22,-2.24,-1.21,5.8
10.707687854766846,-5.62,-1.64,-1.32,6.0
10.717535972595215,-5.87,-0.84,-1.21,6.05
10.748165130615234,-5.55,-0.12,-1.41,5.72
10.749347925186157,-4.31,0.21,-1.99,4.75
10.750159978866577,-2.47,0.23,-2.46,3.49
10.769672870635986,-0.65,0.5,-2.47,2.6
10.770721912384033,0.53,1.06,-1.73,2.09
10.785889148712158,1.04,1.53,-0.87,2.04
10.786926984786987,0.89,1.8,-0.17,2.01
10.801514148712158,0.05,2.27,0.39,2.3
10.806697845458984,-0.85,3.24,1.04,3.5
10.81793212890625,-1.01,4.39,1.81,4.85
10.847890853881836,-0.44,5.05,2.54,5.66
10.8489990234375,0.49,5.27,2.71,5.94
10.849859952926636,1.7,5.55,1.96,6.12
10.870113849639893,3.49,6.49,0.75,7.4
10.871153831481934,6.44,6.99,-0.33,9.51
10.885934829711914,9.06,6.49,-0.72,11.16
10.887022018432617,10.7,5.57,-0.73,12.08
10.90223503112793,11.44,4.4,-0.13,12.25
10.90650987625122,9.8,7.0,1.11,12.09
10.917984962463379,9.6,6.93,1.27,11.9
10.947911977767944,12.84,2.45,1.32,13.13
10.949456930160522,13.47,2.9,2.32,13.97
10.950484991073608,12.11,3.5,2.19,12.79
10.969815969467163,11.81,2.42,1.51,12.14
10.970850944519043,10.85,2.34,1.5,11.2
10.986042022705078,10.52,3.97,2.37,11.49
10.98707103729248,11.13,6.49,4.14,13.53
11.00185489654541,11.31,6.07,4.33,13.54
11.005627155303955,6.0,1.28,0.29,6.14
11.01782512664795,-3.18,0.81,-2.99,4.43
11.053080081939697,-4.42,4.52,-0.95,6.39
11.05436086654663,1.78,7.46,2.26,7.99
11.055386066436768,5.71,5.79,1.75,8.31
11.056411027908325,6.43,2.59,0.9,6.99
11.065073013305664,7.41,0.9,0.65,7.49
11.075037956237793,6.86,-0.39,0.67,6.9
11.084758996963501,5.9,0.25,3.35,6.78
11.09495496749878,4.64,-0.99,3.22,5.73
11.104635953903198,3.65,-1.85,1.69,4.42
11.115038871765137,3.38,-1.69,0.88,3.88
11.151524066925049,2.71,-0.5,0.47,2.79
11.152796983718872,1.92,0.51,0.36,2.01
11.153784990310669,1.13,0.26,0.34,1.2
11.170184135437012,0.25,-0.09,0.34,0.43
11.171152114868164,-0.26,-0.01,0.35,0.43
11.184818029403687,-0.29,-0.02,0.62,0.68
11.185811996459961,0.06,-0.06,0.49,0.49
11.20129108428955,0.32,-0.11,-0.07,0.34
11.20398497581482,0.35,0.06,-0.66,0.74
11.218415021896362,0.27,0.31,-1.47,1.52
11.25202989578247,0.59,0.24,-2.24,2.32
11.253307819366455,1.08,-0.04,-2.13,2.38
11.254315853118896,1.37,-0.14,-1.45,1.99
11.270233154296875,1.09,-0.1,-0.62,1.25
11.271253108978271,0.42,-0.14,0.15,0.46
11.286103963851929,-0.27,-0.12,0.62,0.68
11.287094116210938,-0.62,-0.07,0.55,0.83
11.302101135253906,-0.45,0.03,0.49,0.66
11.303558826446533,-0.09,0.1,0.45,0.46
11.318058013916016,0.21,0.15,0.16,0.3
11.351163864135742,0.36,0.07,-0.2,0.41
11.352523803710938,0.47,-0.04,-0.5,0.68
11.353541851043701,0.38,0.03,-0.38,0.53
11.370459079742432,0.15,0.1,-0.58,0.6
11.371559143066406,-0.11,0.05,-0.87,0.87
11.386250972747803,-0.35,0.08,-0.85,0.92
11.387315034866333,-0.52,0.04,-0.53,0.74
11.401959896087646,-0.62,0.03,-0.26,0.67
11.403369903564453,-0.62,0.1,-0.31,0.7
11.418012142181396,-0.3,0.18,-0.42,0.54
11.422564029693604,0.04,0.22,-0.45,0.5
11.464365005493164,0.16,0.17,-0.49,0.54
11.465559005737305,0.23,0.11,-0.59,0.64
11.466569900512695,0.21,0.07,-0.65,0.68
11.486906051635742,0.14,-0.11,-0.82,0.83
11.487897872924805,0.03,-0.04,-0.9,0.9
11.503203868865967,-0.21,0.28,-0.73,0.8
11.504683017730713,-0.63,0.51,-0.78,1.12
11.51880407333374,-1.18,0.76,-0.99,1.71
11.520270824432373,-1.49,0.89,-1.05,2.02
11.534905910491943,-1.76,0.91,-1.32,2.38
11.565287113189697,-1.81,1.05,-1.63,2.65
11.566557884216309,-1.81,1.19,-1.99,2.94
11.56750202178955,-1.85,1.41,-2.16,3.17
11.586965084075928,-2.34,1.97,-1.88,3.59
11.588030815124512,-3.07,3.12,-1.31,4.56
11.602757930755615,-3.26,3.63,-0.85,4.95
11.603784084320068,-3.34,3.8,-1.31,5.22
11.618759155273438,-3.47,4.12,-1.66,5.63
11.620235919952393,-3.61,4.32,-2.01,5.97
11.634989976882935,-4.06,4.43,-2.6,6.54
11.664592027664185,-4.54,4.68,-3.15,7.24
11.665985107421875,-5.07,5.24,-3.72,8.18
11.666958808898926,-5.83,6.07,-4.16,9.38
11.686867952346802,-6.82,6.37,-4.92,10.54
11.687923908233643,-7.46,6.04,-5.24,10.93
11.703292846679688,-7.65,5.63,-5.16,10.8
11.704752922058105,-7.45,4.7,-5.46,10.36
11.718830108642578,-6.86,3.38,-5.6,9.47
11.720293045043945,-5.67,2.84,-5.05,8.1
11.735116958618164,-4.58,4.12,-4.47,7.61
11.765521049499512,-3.59,6.47,-4.53,8.67
11.766937017440796,-0.42,9.94,-3.08,10.41
11.767970085144043,5.48,13.85,-0.35,14.89
11.78679084777832,4.28,9.25,-1.73,10.33
11.787848949432373,-0.61,4.69,-4.77,6.71
11.803175926208496,-4.22,1.72,-6.2,7.69
11.804248809814453,-6.68,-3.01,-6.13,9.55
11.818850994110107,-4.36,-6.45,-5.55,9.56
11.820318937301636,3.96,-3.94,-3.94,6.83
11.835154056549072,2.27,-4.1,-4.11,6.23
11.865539073944092,-3.87,-4.31,-5.51,7.99
11.866817951202393,-9.11,-3.19,-6.18,11.46
11.867907047271729,-11.38,-2.97,-4.98,12.77
11.886953830718994,-11.7,-3.0,-2.61,12.35
11.888030052185059,-11.58,-3.17,-0.59,12.02
11.90316915512085,-11.45,-3.16,0.5,11.88
11.904193878173828,-11.07,-2.81,0.87,11.45
11.919184923171997,-10.52,-2.55,0.74,10.84
11.92065715789795,-9.72,-2.59,0.51,10.07
11.935112953186035,-8.61,-2.72,0.5,9.04
11.964797019958496,-7.57,-2.72,0.71,8.07
11.966109037399292,-6.66,-2.63,1.18,7.25
11.967095851898193,-6.2,-2.7,1.39,6.9
11.986937999725342,-6.33,-2.55,1.03,6.9
11.987853050231934,-6.69,-1.95,0.5,6.98
12.002956867218018,-6.92,-1.22,0.03,7.02
12.003993034362793,-6.75,-0.35,-0.21,6.76
12.019511938095093,-5.91,0.4,-0.43,5.93
12.020960807800293,-4.24,0.87,-0.84,4.4
12.035844802856445,-2.2,1.39,-1.1,2.82
12.064135074615479,-0.13,2.33,-0.66,2.42
12.065454959869385,1.36,3.2,0.08,3.47
12.066390991210938,1.54,3.45,0.62,3.82
12.087427139282227,1.01,3.91,1.51,4.31
12.088483810424805,0.92,4.95,2.38,5.56
12.10332703590393,1.84,6.24,2.52,6.97
12.104323863983154,3.59,7.53,1.79,8.53
12.118896007537842,5.7,8.57,0.71,10.31
12.119899988174438,7.99,9.04,-0.09,12.06
12.135679006576538,9.5,10.01,-0.68,13.81
12.164387941360474,9.37,14.33,-1.02,17.15
12.165795803070068,15.81,5.25,-2.45,16.83
12.166604995727539,19.78,3.79,0.61,20.14
12.187757968902588,17.58,3.71,1.68,18.04
12.188826084136963,14.53,3.48,1.2,14.98
12.203497886657715,13.38,2.86,0.96,13.71
12.20453405380249,13.11,3.02,1.25,13.51
12.217788934707642,13.58,4.13,2.35,14.38
12.218800067901611,14.06,5.36,3.66,15.48
12.235310077667236,11.95,3.52,3.08,12.83
12.236756801605225,3.61,-0.75,-0.76,3.76
12.28191614151001,-4.83,0.74,-2.75,5.6
12.283126831054688,-3.22,6.87,0.22,7.59
12.284137964248657,2.84,9.78,2.27,10.43
12.304180145263672,6.96,8.21,1.92,10.93
12.305186033248901,10.0,2.39,0.52,10.29
12.320174932479858,8.01,-0.71,-0.16,8.04
12.321655035018921,5.1,-0.08,2.96,5.89
12.33572793006897,3.6,-1.88,3.45,5.32
12.337181091308594,3.21,-2.63,2.36,4.77
12.352034091949463,2.56,-1.67,1.63,3.46
12.384265899658203,1.93,0.0,0.92,2.13
12.385572910308838,1.47,0.51,0.84,1.76
12.386598110198975,0.9,-0.22,0.96,1.33
12.404412031173706,0.81,-0.37,0.96,1.3
12.405352115631104,0.58,-0.02,0.18,0.6
12.420017957687378,0.33,0.15,-0.92,0.98
12.421077966690063,0.54,0.33,-1.22,1.37
12.435597896575928,0.93,0.33,-0.84,1.29
12.436977863311768,1.11,0.12,-0.87,1.41
12.451938152313232,1.07,-0.1,-1.12,1.55
12.482175827026367,0.87,-0.15,-1.19,1.48
12.48360013961792,0.57,-0.09,-0.87,1.04
12.484596014022827,0.21,-0.03,-0.27,0.34
12.50393795967102,0.0,0.0,0.18,0.18
12.504984855651855,-0.03,-0.02,0.4,0.4
12.520234107971191,0.01,0.06,0.47,0.47
12.521285057067871,0.07,0.1,0.16,0.2
12.535712003707886,-0.02,0.09,-0.39,0.4
12.537222862243652,-0.13,0.12,-0.65,0.67
12.552183151245117,0.04,0.16,-0.44,0.46
12.581677913665771,0.29,-0.02,-0.15,0.32
12.582913875579834,0.28,-0.07,-0.01,0.28
12.583714962005615,0.12,0.03,-0.25,0.27
12.603694915771484,-0.12,-0.05,-0.67,0.68
12.604709148406982,-0.36,0.09,-0.85,0.92
12.62044906616211,-0.28,0.17,-0.59,0.67
12.621495962142944,-0.09,0.06,-0.21,0.23
12.635825157165527,-0.1,0.04,-0.05,0.11
12.637237071990967,0.13,-0.05,-0.05,0.14
12.652091979980469,0.33,-0.28,-0.22,0.48
12.679894924163818,0.29,-0.26,-0.34,0.51
12.68120813369751,0.35,-0.14,-0.05,0.38
12.682039022445679,0.37,0.0,0.16,0.4
12.684473991394043,0.38,0.1,0.29,0.48
12.685628890991211,0.54,0.15,0.51,0.75
12.686750888824463,0.8,0.15,0.44,0.92
12.692391872406006,1.03,-0.03,0.07,1.03
12.702375888824463,0.96,-0.24,-0.44,1.08
12.712363004684448,0.44,-0.15,-0.74,0.87
12.722465991973877,-0.26,0.21,-0.53,0.62
12.754617929458618,-0.79,0.5,-0.21,0.95
12.755571842193604,-1.22,0.68,-0.07,1.39
12.756356000900269,-1.55,0.86,-0.23,1.78
12.770938873291016,-1.68,0.81,-0.79,2.02
12.771811962127686,-1.69,0.58,-1.36,2.24
12.786764144897461,-1.89,0.64,-1.91,2.76
12.791730880737305,-2.33,1.1,-2.05,3.29
12.802177906036377,-2.6,1.72,-2.03,3.72
12.811826944351196,-2.76,2.13,-2.19,4.11
12.821395874023438,-2.78,2.54,-2.5,4.51
12.857871055603027,-2.84,2.88,-2.81,4.92
12.859182834625244,-3.0,3.1,-2.97,5.23
12.859984874725342,-3.15,3.45,-3.08,5.59
12.87082815170288,-3.44,3.82,-3.22,6.06
12.871712923049927,-4.0,4.15,-3.7,6.84
12.88715410232544,-4.57,4.87,-4.17,7.87
12.890951156616211,-5.41,5.67,-4.92,9.25
12.902255058288574,-5.99,6.28,-5.54,10.29
12.911005020141602,-6.33,6.62,-5.65,10.76
12.921012878417969,-6.94,6.78,-5.7,11.25
12.957096099853516,-7.38,6.24,-5.44,11.09
12.958410024642944,-7.32,5.16,-4.98,10.24
12.959393978118896,-6.64,3.73,-4.9,9.05
12.970810890197754,-5.65,3.21,-4.69,8.01
12.9718599319458,-4.28,3.38,-4.38,6.99
12.986910820007324,-2.6,5.53,-3.12,6.86
12.990399837493896,1.76,10.36,-0.96,10.55
13.002225875854492,6.34,13.35,-0.91,14.8
13.010326862335205,3.39,9.06,-3.98,10.46
13.020214080810547,-2.15,4.25,-6.36,7.94
13.030189990997314,-6.95,0.13,-6.29,9.37
13.062695980072021,-9.27,-3.34,-5.11,11.09
13.06385087966919,-1.79,-3.86,-3.31,5.39
13.065003871917725,0.71,-3.22,-2.25,3.99
13.069622993469238,-4.8,-2.8,-3.19,6.4
13.079664945602417,-9.16,-1.48,-3.89,10.06
13.089674949645996,-10.51,-1.57,-2.72,10.96
13.09966492652893,-9.77,-2.64,-1.07,10.17
13.109632015228271,-8.68,-3.95,-0.43,9.54
13.119661808013916,-8.04,-4.7,-0.49,9.32
13.129531860351562,-7.77,-4.59,-0.74,9.05
13.161041021347046,-7.5,-3.96,-0.8,8.51
13.162223815917969,-7.13,-3.58,-0.57,7.99
13.163326025009155,-6.94,-3.59,-0.35,7.82
13.168627977371216,-6.88,-3.75,-0.4,7.84
13.179215908050537,-6.76,-3.72,-0.3,7.72
13.18870496749878,-6.32,-3.52,-0.02,7.23
13.19886589050293,-5.61,-3.15,0.31,6.44
13.208451986312866,-5.24,-2.58,-0.03,5.84
13.218626976013184,-4.78,-1.98,-0.71,5.22
13.228696823120117,-4.1,-1.38,-1.13,4.47
13.260568141937256,-3.35,-0.95,-1.06,3.63
13.261850833892822,-2.69,-0.6,-0.85,2.88
13.262700080871582,-1.78,-0.01,-0.54,1.86
13.268704891204834,-0.57,1.02,-0.08,1.17
13.28718614578247,0.35,1.79,0.35,1.85
13.28823709487915,0.08,2.21,0.87,2.37
13.302377939224243,-0.94,3.21,2.05,3.92
13.307700157165527,-1.65,4.36,3.73,5.97
13.319075107574463,-1.26,5.4,4.53,7.16
13.328112125396729,0.21,6.4,3.86,7.47
13.364459037780762,2.35,7.1,1.97,7.73
13.36561107635498,4.63,7.42,0.6,8.76
13.366671085357666,6.94,7.78,-0.62,10.44
13.388046026229858,7.61,9.77,-1.48,12.47
13.389071941375732,6.2,14.6,-1.9,15.97
13.403759956359863,13.61,5.75,-4.32,15.39
13.404810905456543,19.63,1.78,-1.68,19.78
13.41985297203064,19.32,1.4,-0.25,19.37
13.42130708694458,16.73,2.18,0.11,16.87
13.43581485748291,15.71,3.27,0.73,16.06
13.46688985824585,15.99,4.43,1.05,16.62
13.468225002288818,17.05,5.56,1.33,17.98
13.469245910644531,17.97,6.31,1.55,19.1
13.487779140472412,13.56,2.55,-0.89,13.82
13.48887586593628,1.41,-0.33,-4.49,4.71
13.503814935684204,-6.18,5.65,-3.1,8.92
13.504845142364502,-2.47,11.54,2.3,12.02
13.519901037216187,2.6,8.21,2.62,9.0
13.521353006362915,6.37,2.08,1.01,6.77
13.535770893096924,8.52,-0.19,0.87,8.56
13.56523609161377,6.34,-2.42,0.97,6.85
13.567384958267212,4.23,-1.3,3.01,5.35
13.56840181350708,3.28,-0.53,3.05,4.51
13.58804202079773,2.69,-0.86,2.42,3.71
13.589110851287842,2.68,-0.84,2.24,3.59
13.604103088378906,2.7,-0.56,1.94,3.37
13.605133056640625,2.57,-0.1,1.74,3.1
13.619858980178833,2.23,0.18,1.43,2.65
13.621323108673096,1.7,0.05,0.87,1.91
13.635951042175293,1.05,0.01,0.41,1.12
13.665907859802246,0.33,0.18,-0.14,0.4
13.667315006256104,-0.07,0.25,-0.63,0.68
13.668316841125488,-0.07,0.17,-0.66,0.68
13.687821865081787,-0.18,-0.06,-0.5,0.53
13.688840866088867,-0.82,-0.25,-0.74,1.13
13.703720092773438,-1.39,-0.21,-1.49,2.04
13.704736948013306,-1.28,-0.03,-2.42,2.73
13.71987795829773,-0.72,0.18,-2.97,3.06
13.721344947814941,-0.19,0.08,-2.64,2.64
13.735749006271362,-0.02,-0.03,-1.85,1.85
13.764868021011353,-0.18,-0.08,-1.35,1.36
13.766271114349365,-0.32,-0.22,-1.34,1.39
13.76724100112915,-0.3,-0.13,-0.88,0.93
13.787889003753662,-0.56,-0.04,0.04,0.56
13.78892183303833,-0.75,0.14,0.52,0.92
13.804006099700928,-0.61,0.4,0.81,1.09
13.804998874664307,-0.61,0.47,0.21,0.79
13.819958925247192,-0.44,0.26,-0.55,0.75
13.821388006210327,-0.05,0.14,-0.88,0.89
13.835651874542236,0.16,0.26,-0.88,0.93
13.837018013000488,0.2,0.27,-1.01,1.06
13.882045984268188,0.13,0.15,-0.79,0.81
13.88320803642273,-0.12,0.16,-0.69,0.71
13.884201049804688,-0.22,0.23,-0.64,0.71
13.904758930206299,-0.08,0.18,-0.26,0.32
13.905788898468018,-0.09,0.16,-0.13,0.22
13.919342994689941,-0.22,0.04,-0.33,0.39
13.92069387435913,-0.3,0.07,-0.47,0.56
13.936391830444336,-0.18,0.19,-0.43,0.5
13.937855005264282,0.14,0.26,-0.35,0.45
13.952634811401367,0.75,0.19,-0.25,0.81
13.983255863189697,1.16,0.12,-0.12,1.17
13.984632015228271,0.92,0.25,-0.06,0.95
13.985611915588379,0.32,0.54,0.02,0.62
14.0053391456604,-0.35,1.11,-0.01,1.16
14.00636911392212,-1.06,1.55,-0.35,1.91
14.021203994750977,-2.11,1.13,-1.07,2.62
14.022704124450684,-2.88,1.03,-0.47,3.09
14.036420822143555,-2.85,0.92,0.08,2.99
14.037878036499023,-2.74,1.05,0.09,2.93
14.052778005599976,-2.65,1.44,0.0,3.01
14.083148956298828,-2.62,1.52,-0.59,3.08
14.084986925125122,-2.34,1.43,-1.1,2.95
14.085976123809814,-2.16,1.5,-1.71,3.13
14.104833126068115,-2.19,1.68,-2.34,3.61
14.105853080749512,-2.44,1.76,-2.79,4.1
14.121254920959473,-2.88,2.21,-3.16,4.81
14.12271785736084,-3.41,3.01,-3.73,5.88
14.136754989624023,-3.71,3.86,-4.25,6.83
14.138198852539062,-4.01,4.88,-4.81,7.93
14.152676105499268,-4.68,5.89,-5.58,9.36
14.184986114501953,-5.72,6.63,-6.04,10.63
14.186219930648804,-6.82,6.93,-6.04,11.44
14.187182903289795,-7.43,6.61,-5.69,11.45
14.205284118652344,-7.37,5.81,-5.11,10.68
14.206310033798218,-7.16,5.08,-4.73,9.97
14.221191883087158,-6.32,4.97,-3.76,8.87
14.222656011581421,-4.9,5.46,-3.38,8.07
14.236775875091553,-2.82,7.52,-3.73,8.85
14.238248825073242,0.16,10.52,-2.23,10.75
14.252702951431274,4.25,12.31,0.57,13.03
14.284198999404907,2.68,7.05,-0.87,7.59
14.285561084747314,-2.05,3.59,-3.79,5.6
14.286569118499756,-6.37,0.91,-5.12,8.22
14.304615020751953,-9.34,-2.72,-4.97,10.92
14.305665969848633,-7.77,-6.14,-3.88,10.63
14.320742130279541,-0.15,-5.55,-2.02,5.9
14.321768999099731,-1.52,-3.7,-1.72,4.35
14.336741924285889,-6.85,-2.67,-3.2,8.01
14.338238954544067,-10.75,-1.84,-3.96,11.6
14.35280990600586,-11.95,-1.97,-3.28,12.54
14.380309104919434,-11.01,-2.56,-2.07,11.49
14.381647109985352,-9.28,-3.41,-1.33,9.97
14.382688999176025,-7.9,-4.07,-1.06,8.94
14.385260105133057,-7.29,-4.18,-0.9,8.45
14.386685848236084,-7.16,-3.75,-1.0,8.14
14.389606952667236,-6.97,-3.14,-1.15,7.73
14.399667024612427,-6.75,-2.6,-1.16,7.32
14.409801006317139,-6.32,-2.34,-0.69,6.77
14.419461965560913,-6.07,-2.19,0.05,6.45
14.429443836212158,-6.02,-1.92,0.35,6.32
14.465986967086792,-5.99,-1.42,-0.13,6.15
14.467427015304565,-5.73,-0.67,-0.93,5.84
14.468531131744385,-4.74,0.06,-1.46,4.96
14.488384008407593,-2.93,1.03,-1.22,3.33
14.489418029785156,-0.8,1.98,-0.76,2.26
14.504332065582275,0.97,2.31,-0.32,2.52
14.50537395477295,1.46,2.26,-0.09,2.69
14.520112991333008,1.04,2.86,0.19,3.04
14.521528005599976,0.95,4.07,0.48,4.2
14.53621792793274,1.71,5.1,0.51,5.4
14.566327095031738,2.82,5.45,0.19,6.13
14.567611932754517,4.01,5.54,-0.27,6.84
14.568675994873047,5.49,6.18,-0.72,8.29
14.5884370803833,7.32,7.15,-0.84,10.26
14.589601993560791,9.82,7.34,-0.87,12.29
14.604454040527344,11.77,6.3,-0.4,13.35
14.605434894561768,12.02,4.69,0.63,12.91
14.619977951049805,11.27,3.63,1.49,11.93
14.621458053588867,10.68,3.21,2.41,11.4
14.636366844177246,10.98,3.24,2.88,11.8
14.637837886810303,10.86,3.79,3.05,11.89
14.681808948516846,9.32,6.23,3.29,11.68
14.682952880859375,9.98,4.06,3.36,11.28
14.68393087387085,11.35,3.11,4.2,12.49
14.705127000808716,12.21,2.94,4.11,13.21
14.706212043762207,11.96,3.38,4.25,13.13
14.721282958984375,10.57,5.14,4.86,12.71
14.722770929336548,4.92,2.2,1.94,5.72
14.736791133880615,-3.76,1.81,-1.14,4.32
14.738226890563965,-2.46,5.77,0.34,6.28
14.75339412689209,4.54,6.8,1.65,8.34
14.782088994979858,7.5,7.56,1.41,10.74
14.783321857452393,6.92,7.04,2.1,10.09
14.784289836883545,4.6,1.54,2.23,5.33
14.80518388748169,4.0,-0.42,1.89,4.44
14.806222915649414,6.89,1.9,1.67,7.33
14.821188926696777,6.26,-0.63,0.6,6.32
14.822175979614258,3.53,-1.4,1.25,3.99
14.837118148803711,2.24,-0.35,1.5,2.71
14.838583946228027,2.01,-0.38,0.86,2.21
14.853137016296387,1.92,-0.5,0.06,1.98
14.882905006408691,1.87,-0.12,-0.6,1.96
14.884238958358765,1.63,0.08,-0.81,1.82
14.88532304763794,1.26,0.07,-0.82,1.5
14.904850959777832,0.68,0.11,-0.67,0.96
14.90589714050293,0.14,0.15,-0.14,0.24
14.921056032180786,-0.21,0.15,0.45,0.51
14.922013998031616,-0.24,-0.01,0.54,0.59
14.936501026153564,-0.31,-0.33,0.1,0.46
14.937882900238037,-0.47,-0.33,-0.43,0.71
14.95287799835205,-0.53,0.07,-0.93,1.07
14.980154037475586,-0.65,0.24,-1.26,1.43
14.981444835662842,-0.71,0.22,-1.6,1.76
14.982363939285278,-0.54,0.06,-1.84,1.91
14.984861850738525,0.08,-0.19,-1.7,1.71
14.986144065856934,0.69,-0.23,-1.38,1.55
14.994844913482666,0.79,-0.13,-1.02,1.29
15.005207061767578,0.52,0.02,-0.68,0.85
15.014938831329346,-0.04,-0.02,-0.35,0.35
15.024987936019897,-0.28,-0.22,0.29,0.45
15.034728050231934,-0.28,-0.17,1.06,1.1
15.070465087890625,-0.41,0.02,1.15,1.22
15.071630954742432,-0.44,0.16,0.58,0.74
15.072586059570312,-0.29,0.29,0.14,0.43
15.089020013809204,-0.06,0.21,-0.33,0.39
15.09002685546875,-0.02,0.06,-1.1,1.1
15.104505062103271,0.09,0.06,-1.35,1.35
15.105477809906006,0.13,0.12,-0.97,0.98
15.119925022125244,0.14,0.17,-0.46,0.51
15.124035835266113,0.12,0.18,-0.17,0.27
15.136228084564209,0.06,0.22,-0.04,0.23
15.17037296295166,0.12,0.24,0.05,0.27
15.171540975570679,0.28,0.23,0.06,0.36
15.172382831573486,0.4,0.17,-0.27,0.51
15.188557147979736,0.28,0.07,-0.91,0.95
15.1896390914917,0.16,0.14,-1.25,1.26
15.204447984695435,0.08,0.2,-1.0,1.02
15.20548391342163,-0.19,0.27,-0.85,0.91
15.220170974731445,-0.51,0.4,-0.66,0.92
15.223120927810669,-0.98,0.42,-0.65,1.24
15.236462116241455,-1.41,0.45,-0.88,1.72
15.270615100860596,-1.73,0.57,-1.09,2.12
15.271871089935303,-2.21,0.84,-1.46,2.77
15.272846937179565,-2.48,1.13,-1.42,3.07
15.28736686706543,-2.58,1.49,-1.26,3.23
15.288358926773071,-2.77,1.64,-1.01,3.37
15.305100917816162,-3.01,2.17,-1.2,3.89
15.306100845336914,-3.54,2.71,-2.37,5.04
15.320465087890625,-3.3,3.57,-1.67,5.14
15.322734832763672,-3.18,3.39,-1.82,4.99
15.336928844451904,-3.74,3.62,-2.12,5.62
15.369855880737305,-4.24,4.07,-2.72,6.47
15.37124490737915,-4.65,4.43,-3.75,7.43
15.372236013412476,-4.97,4.86,-4.36,8.2
15.388969898223877,-5.21,5.65,-5.0,9.16
15.390035152435303,-5.59,6.55,-5.05,9.98
15.404744148254395,-6.35,6.64,-4.88,10.4
15.405794143676758,-6.88,6.37,-4.91,10.58
15.42063593864441,-6.89,5.78,-4.83,10.2
15.422080993652344,-6.89,4.68,-4.72,9.57
15.436834812164307,-6.32,4.15,-4.59,8.84
15.44202709197998,-5.22,5.01,-5.27,8.95
15.481802940368652,-4.56,6.46,-5.86,9.84
15.482926845550537,-2.19,9.09,-3.07,9.84
15.483954906463623,3.14,12.39,1.73,12.89
15.485996007919312,4.22,7.84,0.61,8.92
15.491214036941528,0.15,3.57,-3.66,5.11
15.501451015472412,-5.32,1.5,-6.56,8.57
15.511379957199097,-8.91,-2.16,-6.33,11.14
15.52123212814331,-6.88,-5.47,-4.7,9.96
15.531261920928955,1.03,-4.32,-2.47,5.08
15.541404962539673,0.19,-2.87,-1.79,3.38
15.572768926620483,-5.34,-2.77,-2.97,6.7
15.574077129364014,-9.53,-2.17,-3.7,10.45
15.575098991394043,-11.25,-2.16,-2.73,11.77
15.589178085327148,-10.63,-2.71,-1.16,11.03
15.590256929397583,-8.81,-3.49,-0.19,9.47
15.60498595237732,-7.26,-4.4,-0.14,8.49
15.610337018966675,-6.61,-4.8,-0.36,8.17
15.620216846466064,-6.56,-4.26,-0.71,7.85
15.630566120147705,-6.66,-3.6,-1.09,7.64
15.64054012298584,-6.52,-3.14,-1.16,7.32
15.672868013381958,-6.17,-2.94,-1.04,6.91
15.674186944961548,-5.67,-2.72,-0.86,6.34
15.675230026245117,-5.41,-2.69,-0.84,6.09
15.689137935638428,-5.23,-2.65,-0.68,5.9
15.690210819244385,-5.04,-2.33,-0.5,5.57
15.704981803894043,-4.51,-1.83,-0.58,4.9
15.70951509475708,-3.63,-1.46,-1.18,4.08
15.720591068267822,-2.76,-1.06,-1.86,3.49
15.729882955551147,-1.9,-0.37,-1.85,2.67
15.739815950393677,-1.08,0.51,-1.34,1.79
15.773721933364868,-0.13,1.43,-0.91,1.69
15.775028944015503,1.02,2.48,-0.52,2.73
15.776046991348267,1.75,3.46,-0.15,3.88
15.78914213180542,1.54,4.24,0.63,4.55
15.790205955505371,1.06,5.4,1.84,5.8
15.805138111114502,1.7,6.55,2.71,7.28
15.808774948120117,4.02,7.48,2.93,8.98
15.818756103515625,7.06,8.01,1.22,10.74
15.829029083251953,9.91,8.45,-0.11,13.02
15.838773965835571,11.5,8.96,-1.03,14.61
15.87799882888794,10.1,13.04,-1.47,16.55
15.879273891448975,12.68,9.18,-1.02,15.68
15.880290985107422,18.29,4.47,2.52,18.99
15.885754108428955,18.29,4.37,5.04,19.46
15.88811206817627,15.46,3.58,4.4,16.46
15.904797077178955,13.48,3.58,4.0,14.5
15.90796184539795,12.31,3.71,3.77,13.39
15.92057991027832,11.4,4.18,3.9,12.75
15.928297996520996,10.64,6.05,4.05,12.89
15.938071012496948,6.79,4.12,1.64,8.1
15.976355075836182,-2.27,1.25,-2.36,3.5
15.977624893188477,-6.23,4.07,-2.54,7.86
15.978631019592285,0.58,6.89,1.34,7.04
15.988979816436768,6.67,5.68,2.92,9.23
15.990031003952026,7.93,1.8,2.35,8.46
16.00513505935669,6.79,-0.64,0.96,6.88
16.0072340965271,6.28,-0.38,0.7,6.33
16.020437955856323,5.25,-0.01,1.46,5.44
16.027615070343018,4.23,-0.48,2.83,5.11
16.03736901283264,3.6,-1.26,2.32,4.46
16.07567000389099,3.23,-1.09,1.92,3.91
16.076953887939453,2.49,-0.31,1.84,3.11
16.077980041503906,1.51,0.25,1.33,2.02
16.089291095733643,0.91,0.23,0.68,1.15
16.090338945388794,0.48,-0.01,0.05,0.48
16.10492515563965,0.08,-0.09,-0.37,0.38
16.106450080871582,-0.15,0.04,-0.47,0.49
16.120227813720703,-0.21,0.23,-0.36,0.47
16.12630295753479,-0.28,0.21,-0.17,0.38
16.137069940567017,-0.03,-0.05,-0.23,0.23
16.17464780807495,0.19,-0.14,-0.69,0.72
16.176015853881836,0.27,0.07,-1.27,1.3
16.177011966705322,0.36,0.25,-1.77,1.82
16.188974857330322,0.5,0.19,-1.8,1.87
16.190034866333008,0.63,-0.06,-1.35,1.49
16.205116033554077,0.7,-0.17,-0.61,0.94
16.206162929534912,0.58,-0.13,0.09,0.6
16.220635890960693,0.29,-0.13,0.34,0.46
16.2257719039917,0.1,-0.09,0.11,0.17
16.236806869506836,0.21,0.01,0.17,0.27
16.24578285217285,0.28,0.21,0.77,0.84
16.28036594390869,0.1,0.26,0.76,0.8
16.28149700164795,-0.18,0.15,0.1,0.25
16.28270697593689,-0.16,0.04,-0.69,0.7
16.284985065460205,-0.03,0.01,-1.23,1.23
16.30300807952881,-0.15,0.11,-1.49,1.5
16.304977893829346,-0.47,0.2,-1.3,1.39
16.321265935897827,-0.8,0.21,-1.0,1.29
16.32505702972412,-0.95,0.11,-0.78,1.23
16.337005138397217,-0.68,0.14,-0.36,0.78
16.345149040222168,-0.12,-0.04,-0.01,0.12
16.382051944732666,0.26,-0.12,-0.14,0.31
16.383198976516724,0.38,-0.02,-0.44,0.58
16.384187936782837,0.38,0.02,-0.32,0.49
16.38620615005493,0.39,0.06,-0.06,0.39
16.394611835479736,0.34,0.12,0.04,0.36
16.40434193611145,0.28,0.15,-0.17,0.36
16.4145610332489,0.31,0.21,-0.32,0.49
16.424230098724365,0.28,0.28,-0.38,0.54
16.434628009796143,-0.03,0.35,-0.56,0.66
16.44445514678955,-0.56,0.37,-0.8,1.04
16.475685119628906,-1.21,0.43,-0.98,1.61
16.4770188331604,-1.79,0.64,-1.16,2.22
16.478035926818848,-2.19,0.91,-1.18,2.64
16.48910903930664,-2.5,1.06,-1.08,2.92
16.493695974349976,-2.48,1.24,-0.86,2.9
16.504807949066162,-2.18,1.4,-1.12,2.82
16.513756036758423,-1.89,1.89,-1.42,3.02
16.52322793006897,-1.85,2.71,-1.64,3.66
16.53378200531006,-1.59,2.94,-1.32,3.59
16.543323040008545,-1.65,2.63,-1.32,3.37
16.574631929397583,-2.34,2.82,-1.58,3.99
16.575976848602295,-3.01,3.13,-1.92,4.74
16.57698893547058,-3.52,3.59,-2.73,5.72
16.589734077453613,-3.87,3.81,-3.74,6.59
16.592895030975342,-4.19,3.79,-4.37,7.14
16.605268001556396,-4.71,4.07,-4.61,7.74
16.613038063049316,-5.62,4.89,-4.95,8.94
16.62246084213257,-6.66,5.88,-5.45,10.42
16.632858991622925,-7.32,6.27,-5.72,11.2
16.642974853515625,-7.33,6.11,-5.62,11.07
16.680849075317383,-7.21,5.88,-5.8,10.96
16.682250022888184,-6.92,5.14,-6.15,10.58
16.683198928833008,-5.92,4.55,-5.77,9.43
16.68559980392456,-4.62,4.87,-5.63,8.76
16.692193031311035,-3.23,6.17,-5.28,8.73
16.702258110046387,-0.92,8.53,-3.26,9.17
16.71232295036316,4.29,12.07,-0.19,12.81
16.721792936325073,4.29,9.19,-2.07,10.35
16.7321879863739,-0.8,5.09,-5.52,7.55
16.74205994606018,-5.97,2.45,-6.84,9.4
16.77876901626587,-9.59,-1.41,-6.05,11.42
16.780118942260742,-8.26,-4.65,-4.66,10.56
16.781203985214233,0.31,-4.04,-2.65,4.84
16.785407066345215,0.43,-3.17,-2.04,3.79
16.80531883239746,-5.45,-2.44,-3.53,6.93
16.80637502670288,-10.74,-1.54,-4.47,11.73
16.820945978164673,-12.98,-1.52,-3.27,13.47
16.821985006332397,-12.1,-1.77,-1.2,12.28
16.837349891662598,-9.97,-2.58,0.33,10.3
16.841256141662598,-8.29,-3.55,1.02,9.07
16.88099503517151,-7.66,-4.01,1.08,8.71
16.882144927978516,-7.81,-3.74,0.58,8.67
16.883322954177856,-8.1,-3.23,0.14,8.72
16.885456085205078,-8.05,-2.93,0.14,8.56
16.90503215789795,-7.62,-2.79,0.39,8.12
16.90606999397278,-7.03,-2.77,0.74,7.59
16.92093515396118,-6.55,-2.62,1.16,7.14
16.922003984451294,-6.29,-2.05,1.14,6.71
16.93837308883667,-5.95,-1.4,0.17,6.11
16.94049310684204,-5.13,-0.75,-1.23,5.32
16.983426094055176,-3.82,-0.23,-2.28,4.45
16.984578132629395,-2.27,0.32,-2.22,3.19
16.98554801940918,-0.45,1.01,-1.69,2.01
17.00248098373413,1.77,1.73,-1.43,2.85
17.003638982772827,3.66,2.19,-1.17,4.42
17.020208835601807,4.06,2.27,-0.87,4.73
17.02141809463501,3.53,2.6,-0.35,4.39
17.037951946258545,3.35,3.76,0.51,5.06
17.039494037628174,4.05,5.18,1.06,6.66
17.05411195755005,5.75,6.33,0.9,8.59
17.055526971817017,7.9,7.02,0.51,10.58
17.102291107177734,9.71,7.47,0.5,12.26
17.103477954864502,10.99,7.35,0.94,13.25
17.104480981826782,12.33,6.46,1.65,14.01
17.123158931732178,13.31,5.2,2.21,14.45
17.12420392036438,13.33,4.01,2.46,14.13
17.138996124267578,12.47,3.36,2.59,13.17
17.140483856201172,10.3,6.51,3.11,12.57
17.1546049118042,8.7,8.45,3.11,12.52
17.155992031097412,11.2,3.21,3.01,12.03
17.170608043670654,13.23,1.8,3.35,13.76
17.200902938842773,13.06,1.66,2.23,13.35
17.202334880828857,11.23,3.32,1.62,11.82
17.203346014022827,8.25,5.0,1.16,9.71
17.222718000411987,0.61,2.38,-1.48,2.86
17.223757028579712,-5.5,3.78,-2.05,6.98
17.238842964172363,-1.67,5.96,1.02,6.27
17.24016284942627,4.35,5.75,2.29,7.56
17.25458002090454,6.76,5.14,1.66,8.65
17.25603699684143,5.92,2.82,1.29,6.68
17.27098798751831,5.55,1.77,1.32,5.97
17.30089497566223,6.36,0.88,1.3,6.55
17.302366018295288,4.87,-0.83,1.86,5.27
17.303380012512207,3.7,-1.42,2.97,4.95
17.32270908355713,2.89,-1.75,1.98,3.91
17.323769092559814,2.72,-1.3,1.43,3.33
17.33872890472412,2.34,-0.45,1.13,2.63
17.33973002433777,1.67,0.03,0.57,1.76
17.354658126831055,1.17,0.42,0.14,1.25
17.356104850769043,0.64,0.53,-0.62,1.03
17.37088108062744,0.18,0.34,-1.4,1.45
17.401462078094482,-0.07,0.03,-1.56,1.56
17.40286111831665,0.04,0.03,-0.78,0.78
17.403833866119385,0.33,0.27,0.28,0.51
17.422955989837646,0.5,0.15,0.34,0.62
17.423988819122314,0.44,0.0,-0.66,0.79
17.439076900482178,0.38,0.09,-1.64,1.68
17.440088033676147,0.41,0.0,-1.61,1.66
17.454753875732422,0.71,-0.08,-0.78,1.05
17.45622682571411,0.75,-0.13,0.03,0.76
17.471091985702515,0.66,-0.15,0.29,0.73
17.500618934631348,0.87,-0.28,0.54,1.06
17.50196099281311,1.08,-0.2,0.57,1.23
17.502954959869385,0.91,0.08,0.54,1.06
17.522758960723877,0.49,0.24,0.14,0.56
17.52380394935608,0.29,0.19,-0.28,0.44
17.53942108154297,0.3,0.13,-0.5,0.59
17.54086685180664,0.26,0.03,-0.82,0.86
17.554872035980225,0.3,-0.02,-0.89,0.93
17.556344032287598,0.17,-0.04,-1.0,1.01
17.57107901573181,-0.29,-0.01,-1.01,1.05
17.601791858673096,-0.63,0.18,-0.97,1.17
17.603108882904053,-0.68,0.32,-0.55,0.93
17.604176998138428,-0.42,0.37,-0.01,0.55
17.623036861419678,-0.22,0.22,-0.02,0.31
17.624096870422363,-0.03,-0.01,-0.1,0.1
17.639020919799805,0.18,-0.24,-0.3,0.42
17.640061855316162,0.16,-0.4,-0.41,0.59
17.655002117156982,-0.24,-0.27,-0.41,0.54
17.65634298324585,-0.67,0.04,-0.4,0.78
17.671005964279175,-0.77,0.35,-0.26,0.88
17.6999409198761,-0.61,0.56,-0.38,0.91
17.70137095451355,-0.34,0.68,-0.65,1.0
17.702383995056152,-0.24,0.62,-0.91,1.12
17.723095893859863,-0.44,0.44,-1.16,1.31
17.724092960357666,-0.8,0.33,-1.25,1.52
17.739426136016846,-1.29,0.42,-1.23,1.83
17.740890979766846,-1.73,0.83,-0.9,2.11
17.7548828125,-2.16,1.24,-0.7,2.58
17.75639295578003,-2.79,1.59,-1.39,3.49
17.771063804626465,-3.11,2.48,-0.79,4.05
17.801234006881714,-2.65,2.5,-0.91,3.75
17.802655935287476,-2.49,2.22,-1.15,3.52
17.803674936294556,-2.47,2.18,-1.35,3.56
17.82336401939392,-2.63,1.96,-1.79,3.73
17.82438087463379,-2.56,2.04,-1.91,3.78
17.839190006256104,-2.71,2.3,-2.19,4.17
17.840202808380127,-3.22,2.69,-2.83,5.06
17.854718923568726,-3.72,3.35,-3.68,6.21
17.856189012527466,-3.98,4.05,-4.41,7.18
17.870954036712646,-4.09,4.61,-4.7,7.75
17.872419834136963,-4.41,5.13,-4.63,8.19
17.915608882904053,-5.08,5.64,-4.59,8.87
17.91683006286621,-5.8,5.83,-4.53,9.38
17.918195009231567,-6.28,5.4,-4.54,9.44
17.92043113708496,-6.39,4.88,-4.59,9.25
17.921896934509277,-5.97,4.31,-4.52,8.63
17.92332696914673,-5.19,3.7,-4.42,7.75
17.924707889556885,-4.28,4.67,-4.9,8.0
17.93249797821045,-3.35,6.56,-5.14,8.98
17.942955017089844,-0.61,9.67,-3.09,10.17
17.95272397994995,3.37,12.47,-0.03,12.91
17.98037815093994,2.28,7.51,-1.32,7.95
17.981379985809326,-1.63,3.63,-4.17,5.76
17.982362985610962,-5.24,1.89,-5.56,7.87
17.992090940475464,-7.53,-0.83,-5.48,9.34
18.002485036849976,-6.86,-5.19,-5.18,10.04
18.0124568939209,1.1,-4.72,-3.61,6.04
18.0219988822937,4.19,-2.51,-2.95,5.7
18.031991004943848,-0.54,-2.79,-4.33,5.17
18.04213285446167,-6.08,-2.37,-5.52,8.54
18.0521240234375,-9.91,-2.25,-4.84,11.25
18.08195209503174,-11.36,-2.62,-3.03,12.04
18.082891941070557,-10.34,-3.34,-1.21,10.93
18.083879947662354,-8.65,-3.81,0.11,9.45
18.091468811035156,-7.74,-4.07,0.53,8.76
18.101679801940918,-7.6,-3.94,0.09,8.56
18.111474990844727,-7.78,-3.54,-0.71,8.57
18.12146282196045,-7.93,-3.13,-1.26,8.61
18.13130283355713,-7.83,-2.6,-1.1,8.32
18.141330003738403,-7.38,-2.22,-0.49,7.72
18.151443004608154,-6.68,-2.22,-0.09,7.03
18.182880878448486,-6.03,-2.16,0.04,6.4
18.18401288986206,-5.61,-1.64,-0.54,5.86
18.184836864471436,-5.16,-1.02,-1.43,5.45
18.190536975860596,-4.43,-0.48,-1.73,4.77
18.20116400718689,-3.18,0.06,-1.85,3.67
18.210829973220825,-1.24,0.78,-1.85,2.35
18.220752954483032,0.84,1.51,-1.62,2.36
18.230487823486328,2.06,1.89,-1.59,3.21
18.24052095413208,1.95,2.09,-1.43,3.19
18.25059199333191,1.53,2.85,-0.59,3.28
18.28745412826538,1.52,3.75,0.08,4.04
18.288795948028564,1.94,4.48,0.22,4.88
18.289825916290283,3.12,5.35,0.01,6.19
18.306754112243652,5.08,6.13,-0.25,7.96
18.307815074920654,7.19,6.49,-0.37,9.69
18.32260513305664,8.91,6.37,-0.26,10.95
18.323668956756592,10.05,5.93,0.21,11.67
18.338161945343018,10.64,5.45,1.16,12.01
18.339527130126953,11.02,4.35,2.01,12.01
18.35460615158081,11.09,3.54,2.18,11.84
18.38746690750122,11.31,3.58,2.05,12.03
18.38885498046875,11.63,3.27,2.08,12.25
18.38987112045288,9.9,5.85,2.5,11.76
18.406791925430298,8.23,7.98,2.42,11.71
18.407833099365234,10.74,3.06,2.19,11.38
18.422510147094727,12.93,1.91,2.71,13.34
18.423553943634033,12.67,1.7,1.91,12.92
18.43818998336792,11.0,4.26,1.83,11.93
18.439242839813232,8.92,6.6,1.43,11.18
18.454730987548828,1.93,4.5,-1.04,5.0
18.48685097694397,-5.32,5.53,-2.67,8.12
18.48827600479126,-3.83,6.76,0.12,7.77
18.489285945892334,1.09,4.95,2.06,5.47
18.506654977798462,4.35,3.04,2.13,5.71
18.507688999176025,5.31,1.72,2.27,6.02
18.522797107696533,4.23,-0.41,1.58,4.53
18.52380394935608,3.64,-0.41,1.03,3.8
18.538570880889893,5.2,0.93,1.54,5.5
18.540032863616943,5.48,-0.92,1.19,5.68
18.554462909698486,3.94,-0.9,1.52,4.31
18.587604999542236,3.42,-0.59,1.71,3.86
18.588905811309814,3.3,-0.52,1.14,3.52
18.58991289138794,3.2,0.07,0.76,3.28
18.606756925582886,2.43,0.51,0.03,2.48
18.607785940170288,1.56,0.6,-0.32,1.7
18.621551990509033,1.06,0.44,-0.38,1.2
18.622602939605713,0.6,0.21,-0.53,0.82
18.638401985168457,0.38,0.09,-0.19,0.43
18.639881134033203,0.29,0.02,0.29,0.41
18.654736042022705,0.14,-0.16,0.3,0.36
18.65756607055664,-0.12,-0.21,-0.17,0.29
18.70235013961792,-0.32,-0.05,-1.0,1.05
18.703482151031494,-0.26,-0.04,-1.37,1.39
18.70449209213257,0.48,0.05,-0.78,0.91
18.723817825317383,0.99,0.04,-0.61,1.16
18.724873065948486,1.13,-0.06,-0.78,1.37
18.739401817321777,1.12,-0.07,-0.9,1.43
18.740406036376953,0.97,-0.07,-0.62,1.15
18.755445957183838,0.63,-0.13,-0.15,0.66
18.756868839263916,0.34,-0.07,0.27,0.43
18.7712619304657,0.05,0.04,0.41,0.41
18.80077314376831,-0.24,0.13,-0.03,0.27
18.802066802978516,-0.44,0.15,-0.42,0.62
18.803050994873047,-0.46,0.18,-0.27,0.56
18.82360601425171,-0.39,0.09,-0.33,0.51
18.82463788986206,-0.15,0.04,-0.51,0.53
18.839367866516113,0.14,0.13,-0.57,0.6
18.8403959274292,0.08,0.01,-0.91,0.91
18.855434894561768,-0.28,-0.08,-0.95,0.99
18.856873035430908,-0.48,0.07,-0.76,0.9
18.871581077575684,-0.48,0.18,-0.62,0.8
18.900097846984863,-0.47,0.18,-0.66,0.83
18.90145492553711,-0.33,0.15,-0.55,0.65
18.902390956878662,-0.13,0.12,-0.4,0.43
18.924503803253174,-0.03,0.18,-0.45,0.48
18.925522804260254,0.02,0.18,-0.57,0.59
18.939632892608643,-0.05,0.07,-0.62,0.62
18.94064998626709,-0.2,-0.03,-0.74,0.76
18.955288887023926,-0.58,0.08,-0.9,1.07
18.956759929656982,-1.3,0.33,-1.07,1.71
18.97158908843994,-1.99,0.64,-1.15,2.38
19.000157833099365,-2.47,0.88,-0.89,2.76
19.001426935195923,-2.43,1.04,-0.72,2.73
19.00216794013977,-2.13,1.04,-0.66,2.46
19.00428295135498,-1.69,1.05,-0.98,2.21
19.005581855773926,-1.17,1.12,-1.22,2.02
19.01459789276123,-0.84,1.39,-1.19,2.01
19.024675846099854,-1.34,2.07,-1.25,2.76
19.034460067749023,-1.61,2.46,-0.83,3.05
19.044387817382812,-1.81,2.18,-1.12,3.04
19.05449914932251,-2.28,2.48,-1.52,3.69
19.089859008789062,-2.59,3.02,-2.0,4.45
19.090807914733887,-2.71,3.49,-2.66,5.15
19.091635942459106,-2.94,3.8,-3.3,5.82
19.10711097717285,-3.41,4.13,-3.73,6.52
19.10814595222473,-3.93,4.49,-3.87,7.11
19.122878074645996,-4.55,5.0,-4.03,7.87
19.12391996383667,-5.29,5.64,-4.24,8.81
19.13859796524048,-6.02,5.77,-4.45,9.45
19.14350986480713,-6.41,5.54,-4.43,9.56
19.15514087677002,-6.42,5.01,-4.52,9.31
19.191025018692017,-6.16,4.12,-4.82,8.84
19.192332983016968,-5.28,3.28,-4.81,7.85
19.193351984024048,-4.63,3.89,-4.83,7.73
19.207435131072998,-4.93,6.0,-4.84,9.15
19.20847797393799,-4.16,7.68,-4.19,9.68
19.223155975341797,0.03,10.65,-1.6,10.76
19.22422504425049,3.55,11.96,-0.37,12.48
19.238240957260132,1.0,7.27,-2.27,7.68
19.243163108825684,-2.79,4.03,-4.69,6.78
19.25521492958069,-5.82,1.37,-5.39,8.04
19.289729118347168,-7.86,-3.28,-5.31,10.03
19.291050910949707,-5.42,-7.07,-4.57,10.01
19.292115926742554,2.84,-3.76,-2.12,5.16
19.30709981918335,2.34,-2.44,-2.32,4.1
19.30815601348877,-3.37,-3.1,-4.27,6.26
19.323100090026855,-8.73,-3.1,-5.12,10.58
19.324092864990234,-11.47,-2.74,-4.1,12.48
19.338825941085815,-11.12,-2.73,-2.1,11.64
19.341894149780273,-9.58,-3.31,-0.37,10.14
19.35530400276184,-8.57,-3.87,0.17,9.4
19.390204906463623,-7.87,-4.25,0.08,8.94
19.391602993011475,-7.32,-4.14,-0.13,8.41
19.392616987228394,-7.01,-3.58,-0.16,7.87
19.40722894668579,-6.66,-3.31,-0.01,7.43
19.408313035964966,-6.22,-3.3,0.0,7.04
19.42306613922119,-6.02,-3.15,-0.37,6.8
19.42410898208618,-6.08,-2.54,-0.57,6.61
19.438349962234497,-6.2,-1.57,-0.62,6.42
19.44118595123291,-5.9,-0.73,-1.01,6.03
19.455212116241455,-4.53,-0.27,-1.94,4.93
19.461441040039062,-2.62,-0.09,-2.45,3.58
19.500332832336426,-1.1,0.03,-2.15,2.41
19.50147008895874,0.03,0.34,-1.31,1.35
19.502393007278442,0.98,0.94,-0.61,1.48
19.5040340423584,1.58,1.54,-0.42,2.24
19.511062145233154,1.54,2.07,-0.48,2.62
19.520853996276855,1.38,2.88,-0.35,3.21
19.5307559967041,1.52,3.85,0.05,4.13
19.540591955184937,2.08,4.5,0.5,4.98
19.55045199394226,2.76,5.08,0.56,5.8
19.560716152191162,3.98,5.95,0.27,7.16
19.592658042907715,5.99,6.59,0.05,8.9
19.593750953674316,8.07,6.39,0.11,10.29
19.594616889953613,9.91,5.89,0.24,11.53
19.60763692855835,11.29,5.03,0.55,12.37
19.61002206802368,11.67,4.17,1.16,12.44
19.623131036758423,10.8,3.55,1.65,11.48
19.62981414794922,9.94,3.05,1.94,10.57
19.63959503173828,9.62,2.8,1.98,10.21
19.650007963180542,9.62,2.54,2.36,10.22
19.659739017486572,9.21,3.56,3.01,10.32
19.692227840423584,6.75,8.53,3.16,11.32
19.693539142608643,7.85,4.94,2.32,9.56
19.69455099105835,10.45,3.01,3.34,11.37
19.707458972930908,10.98,1.73,3.32,11.6
19.709199905395508,8.4,2.47,3.23,9.33
19.72346305847168,3.68,3.75,2.15,5.67
19.729090929031372,-4.38,2.72,-0.18,5.15
19.73902988433838,-7.43,4.6,-0.08,8.73
19.748942852020264,-0.16,4.78,1.81,5.11
19.759203910827637,5.86,3.34,1.59,6.92
19.79062509536743,7.63,3.53,0.59,8.42
19.791852951049805,6.75,3.48,0.14,7.59
19.792765140533447,4.26,2.09,0.79,4.81
19.80755090713501,4.46,2.18,1.18,5.1
19.80858087539673,5.78,0.13,1.22,5.9
19.82325792312622,5.39,-0.25,2.36,5.88
19.8283269405365,4.56,-1.0,2.43,5.26
19.838647842407227,3.5,-1.56,0.76,3.9
19.84836483001709,2.98,-0.8,0.46,3.11
19.85846996307373,2.42,0.33,0.25,2.45
19.89555311203003,1.69,0.65,-0.18,1.81
19.896971940994263,1.08,-0.09,-0.4,1.15
19.897934913635254,0.73,-0.53,-0.42,0.99
19.908217906951904,0.56,-0.04,0.03,0.56
19.909291982650757,0.39,0.26,0.65,0.8
19.92353105545044,0.04,-0.06,0.74,0.74
19.92753314971924,-0.22,-0.36,0.33,0.53
19.93737506866455,-0.33,-0.29,-0.23,0.49
19.947792053222656,-0.17,-0.02,-0.74,0.75
19.957571029663086,0.2,0.14,-1.31,1.33
19.996874809265137,0.51,0.03,-1.53,1.61
19.998167037963867,0.72,0.08,-1.44,1.61
19.99917984008789,0.68,0.13,-1.15,1.34
20.003989934921265,0.52,0.02,-0.68,0.85
20.023486137390137,0.65,-0.03,-0.42,0.77
20.024506092071533,0.75,-0.03,-0.05,0.75
20.03868794441223,0.27,0.03,0.19,0.33
20.039726972579956,-0.39,0.11,0.21,0.45
20.055323123931885,-0.59,0.16,0.06,0.61
20.056830883026123,-0.22,-0.02,-0.41,0.46
20.102828979492188,0.26,-0.21,-0.82,0.88
20.103965997695923,0.55,-0.25,-0.92,1.1
20.104974031448364,0.38,-0.27,-0.89,1.0
20.124202966690063,0.06,-0.21,-0.66,0.69
20.125286102294922,-0.19,0.04,-0.62,0.64
20.140381813049316,-0.36,0.18,-0.41,0.57
20.141820907592773,-0.36,0.14,-0.29,0.48
20.155848026275635,-0.4,0.13,-0.26,0.49
20.157280921936035,-0.36,0.16,-0.33,0.51
20.171833992004395,-0.25,0.09,-0.35,0.43
20.2032949924469,-0.04,0.02,-0.3,0.3
20.204581022262573,0.02,0.03,-0.41,0.41
20.205563068389893,-0.04,0.14,-0.67,0.68
20.22439193725586,0.07,0.23,-0.6,0.64
20.225353002548218,0.1,0.23,-0.5,0.55
20.238741874694824,-0.01,0.32,-0.56,0.64
20.23976707458496,-0.15,0.38,-0.67,0.78
20.25593900680542,-0.32,0.49,-0.78,0.97
20.257375955581665,-0.55,0.63,-0.93,1.25
20.272254943847656,-1.07,0.72,-1.21,1.76
20.273723125457764,-1.44,0.86,-1.37,2.16
20.320255994796753,-1.5,1.06,-1.52,2.38
20.321488857269287,-1.64,1.58,-1.41,2.67
20.322493076324463,-2.12,2.13,-1.12,3.2
20.341025829315186,-2.8,2.22,-1.13,3.74
20.342092037200928,-3.11,1.84,-0.93,3.73
20.357162952423096,-3.17,1.74,-0.92,3.73
20.35845184326172,-3.22,2.0,-1.17,3.96
20.372387886047363,-3.32,2.53,-1.43,4.41
20.37384796142578,-3.25,3.3,-1.95,5.02
20.388720989227295,-3.27,4.0,-2.65,5.8
20.41961908340454,-3.54,4.26,-3.63,6.62
20.420912981033325,-3.91,4.2,-4.33,7.18
20.421926021575928,-4.22,4.32,-4.49,7.52
20.44084095954895,-4.92,4.97,-4.68,8.41
20.441864013671875,-6.14,5.62,-5.14,9.78
20.45688486099243,-6.84,5.92,-5.18,10.42
20.458229064941406,-7.09,5.74,-5.36,10.58
20.473148822784424,-6.98,5.25,-5.44,10.28
20.47463083267212,-6.44,4.91,-5.38,9.72
20.489222049713135,-5.62,4.86,-5.07,8.99
20.5190110206604,-5.08,6.07,-4.57,9.13
20.520391941070557,-3.97,8.07,-4.23,9.93
20.521409034729004,-0.78,10.41,-3.14,10.9
20.54076385498047,4.84,14.18,-1.2,15.03
20.54180598258972,3.19,10.69,-2.42,11.41
20.55716896057129,-2.19,5.62,-5.2,7.96
20.55819606781006,-6.83,1.98,-6.48,9.62
20.57283306121826,-10.0,-2.51,-5.57,11.71
20.57429313659668,-6.11,-5.14,-3.62,8.76
20.588902950286865,4.17,-3.15,-1.49,5.43
20.6179039478302,2.43,-3.09,-1.48,4.2
20.61926794052124,-4.22,-2.99,-3.34,6.15
20.620249032974243,-9.76,-2.69,-4.03,10.89
20.641000032424927,-12.36,-2.78,-2.59,12.93
20.64202094078064,-11.96,-3.25,-0.6,12.4
20.657243013381958,-10.15,-4.0,0.79,10.93
20.658304929733276,-8.59,-4.78,1.28,9.91
20.672948837280273,-7.72,-5.15,1.04,9.33
20.674418926239014,-7.36,-4.94,0.45,8.87
20.689072132110596,-7.28,-4.47,0.02,8.54
20.718460083007812,-7.24,-4.12,-0.12,8.33
20.719733953475952,-7.03,-3.75,-0.1,7.96
20.720736980438232,-6.61,-3.54,-0.1,7.49
20.740827083587646,-6.08,-3.42,-0.06,6.97
20.7418270111084,-5.6,-3.12,0.09,6.41
20.756539821624756,-5.12,-2.53,0.23,5.71
20.757561922073364,-4.68,-1.84,0.14,5.03
20.772917985916138,-4.36,-1.13,-0.38,4.52
20.77434802055359,-3.61,-0.35,-1.21,3.82
20.78910493850708,-2.26,0.39,-1.99,3.03
20.818295001983643,-0.65,1.23,-2.33,2.71
20.819735050201416,0.88,2.16,-1.94,3.03
20.82075786590576,1.89,3.0,-1.26,3.76
20.841247081756592,2.23,3.63,-0.62,4.3
20.84235191345215,2.21,4.05,0.17,4.61
20.857404947280884,1.9,4.53,1.27,5.07
20.858431816101074,1.81,5.34,2.37,6.11
20.874023914337158,2.34,6.49,2.82,7.45
20.875503063201904,3.65,7.44,2.63,8.69
20.89003300666809,5.19,8.01,2.47,9.85
20.921667098999023,6.77,8.11,2.58,10.87
20.92296314239502,8.63,7.72,2.57,11.86
20.92399501800537,10.1,6.51,2.28,12.23
20.941105842590332,10.45,5.61,2.41,12.1
20.942150115966797,8.96,8.8,3.0,12.91
20.957244873046875,10.3,5.76,2.19,12.0
20.958266019821167,12.96,3.0,2.43,13.52
20.972415924072266,13.04,4.27,2.46,13.94
20.973867893218994,12.76,3.48,0.99,13.26
20.989203929901123,13.17,2.18,0.07,13.34
21.018800020217896,13.54,1.57,-0.49,13.63
21.01993203163147,13.28,1.74,-0.68,13.41
21.02077007293701,12.19,2.35,-0.76,12.43
21.040961027145386,7.03,0.89,-2.58,7.54
21.041971921920776,-1.31,1.66,-3.34,3.95
21.057444095611572,-4.62,4.12,-0.73,6.23
21.058439016342163,-1.14,3.65,2.83,4.75
21.07309603691101,2.43,1.94,2.92,4.26
21.074548959732056,4.7,3.61,1.57,6.13
21.089366912841797,4.41,4.02,0.44,5.98
21.090759992599487,3.65,2.58,0.62,4.51
21.13480281829834,5.44,2.19,1.21,5.98
21.135961055755615,5.06,-0.67,1.16,5.23
21.136971950531006,3.25,-1.29,2.2,4.13
21.158612966537476,2.4,-1.12,2.44,3.6
21.159666061401367,2.22,-1.11,1.7,3.0
21.17406702041626,2.35,-0.76,1.33,2.8
21.175096035003662,2.22,-0.08,0.54,2.28
21.189718008041382,1.9,0.5,-0.25,1.98
21.191211938858032,1.34,0.64,-1.14,1.87
21.20586395263672,0.45,0.4,-1.85,1.94
21.237544059753418,-0.17,0.2,-1.89,1.9
21.238831043243408,-0.54,0.12,-1.74,1.82
21.239861011505127,-0.44,-0.02,-1.21,1.28
21.258124828338623,0.1,-0.19,-0.26,0.33
21.259191036224365,0.5,-0.18,-0.09,0.53
21.27417802810669,0.62,0.08,-0.82,1.03
21.275202989578247,0.69,0.1,-1.25,1.43
21.290035009384155,0.73,0.09,-1.15,1.36
21.291479110717773,0.57,-0.04,-0.84,1.01
21.305962085723877,0.34,-0.2,-0.41,0.56
21.335660934448242,0.04,-0.05,-0.06,0.08
21.337026119232178,-0.22,0.1,0.23,0.33
21.338025093078613,-0.16,0.14,0.3,0.36
21.357901096343994,0.06,0.18,0.14,0.23
21.358941078186035,0.19,0.14,-0.01,0.23
21.373878002166748,0.19,-0.02,-0.36,0.4
21.37484884262085,0.26,-0.08,-0.64,0.69
21.389607906341553,0.33,0.02,-0.42,0.53
21.3910870552063,0.2,0.12,-0.32,0.39
21.405949115753174,0.0,0.08,-0.49,0.49
21.436222076416016,0.09,-0.05,-0.39,0.4
21.437684059143066,0.23,-0.13,-0.23,0.35
21.438697814941406,0.21,-0.05,-0.18,0.28
21.457715034484863,0.3,-0.1,-0.08,0.32
21.458757877349854,0.44,-0.21,-0.05,0.49
21.47376298904419,0.37,-0.15,0.01,0.39
21.474795818328857,0.11,-0.06,0.06,0.13
21.490060806274414,0.0,0.06,0.07,0.09
21.49153184890747,-0.09,0.21,-0.31,0.38
21.506094932556152,-0.28,0.35,-0.73,0.85
21.535715103149414,-0.4,0.34,-0.97,1.1
21.53706693649292,-0.57,0.39,-1.12,1.31
21.538089990615845,-0.86,0.41,-1.21,1.54
21.557904958724976,-1.13,0.4,-1.33,1.79
21.558940887451172,-1.39,0.57,-1.43,2.07
21.574713945388794,-1.65,0.79,-1.37,2.28
21.575731992721558,-1.85,0.96,-1.3,2.45
21.58916401863098,-1.94,1.2,-1.6,2.78
21.590585947036743,-2.14,1.42,-2.01,3.26
21.606446027755737,-2.87,2.25,-2.25,4.28
21.63589596748352,-3.6,3.12,-1.78,5.08
21.637226104736328,-3.18,3.09,-1.23,4.6
21.638244152069092,-2.91,2.92,-1.34,4.33
21.657765865325928,-3.14,3.04,-1.56,4.64
21.658822059631348,-3.25,3.21,-1.81,4.91
21.674193859100342,-3.3,3.59,-2.23,5.36
21.675179958343506,-3.38,3.85,-2.8,5.83
21.690194129943848,-3.77,3.97,-3.68,6.59
21.69164800643921,-4.19,4.29,-4.16,7.29
21.706077098846436,-4.41,4.6,-4.26,7.66
21.73548698425293,-5.27,4.99,-4.58,8.58
21.73674702644348,-6.25,5.21,-4.83,9.46
21.737571954727173,-6.77,5.15,-4.91,9.82
21.758180141448975,-6.68,4.81,-5.04,9.65
21.759230136871338,-5.83,4.27,-5.27,8.94
21.774106979370117,-4.67,4.38,-5.5,8.44
21.77510690689087,-4.67,6.39,-5.63,9.71
21.79026508331299,-4.43,8.12,-5.29,10.65
21.79173994064331,-1.21,10.06,-3.72,10.79
21.80599093437195,3.93,13.3,-2.78,14.14
21.834183931350708,2.1,10.54,-4.67,11.71
21.8355610370636,-2.27,6.63,-5.64,8.99
21.836535930633545,-5.67,2.64,-5.99,8.66
21.838660955429077,-8.3,-2.69,-5.52,10.32
21.839823961257935,-6.63,-6.59,-4.54,10.39
21.841006994247437,2.61,-3.33,-2.16,4.75
21.842211961746216,3.21,-2.6,-1.88,4.53
21.84337091445923,-2.48,-3.61,-3.55,5.63
21.853221893310547,-8.01,-3.84,-4.49,9.95
21.8632709980011,-11.16,-3.95,-3.74,12.41
21.873037815093994,-11.75,-4.1,-2.09,12.61
21.90050506591797,-10.53,-4.61,-0.36,11.5
21.901445865631104,-9.16,-5.14,0.84,10.53
21.902426958084106,-8.51,-5.38,1.34,10.15
21.91287899017334,-8.38,-5.13,1.16,9.89
21.922529935836792,-8.22,-4.52,0.55,9.39
21.93257713317871,-7.8,-3.99,0.01,8.76
21.94237494468689,-7.15,-3.77,-0.27,8.08
21.952352046966553,-6.63,-3.63,-0.4,7.56
21.96221113204956,-6.29,-3.34,-0.47,7.13
21.97227191925049,-6.02,-2.97,-0.51,6.73
22.001580953598022,-5.78,-2.44,-0.52,6.29
22.00251793861389,-5.72,-1.65,-0.67,5.99
22.003360986709595,-5.57,-0.72,-1.17,5.73
22.025318145751953,-5.03,0.29,-1.88,5.37
22.02637481689453,-3.6,1.25,-2.43,4.51
22.04095983505249,-1.38,1.94,-2.77,3.65
22.042008876800537,0.98,3.16,-2.29,4.02
22.05688714981079,3.08,4.39,-1.15,5.48
22.061321020126343,3.74,4.37,-0.41,5.76
22.07295513153076,2.9,4.4,-0.03,5.26
22.103743076324463,2.05,5.5,0.46,5.88
22.104926109313965,2.53,6.77,0.93,7.28
22.105743885040283,4.24,7.29,1.0,8.49
22.124691009521484,6.03,7.21,0.48,9.41
22.12576389312744,7.48,7.56,0.21,10.63
22.140891075134277,9.08,7.62,0.62,11.86
22.14195203781128,10.88,6.55,1.25,12.76
22.15710687637329,12.3,5.21,1.54,13.44
22.160874843597412,12.82,4.36,1.81,13.66
22.17313814163208,12.66,4.14,2.16,13.49
22.203310012817383,11.64,5.26,2.18,12.95
22.204752922058105,9.97,7.53,1.8,12.62
22.205767154693604,10.9,4.99,2.21,12.18
22.224833965301514,13.14,4.02,3.35,14.14
22.225876808166504,14.3,3.71,3.07,15.08
22.241272926330566,13.49,3.15,2.46,14.06
22.242304801940918,10.33,2.17,1.62,10.67
22.256815910339355,1.94,0.26,-1.41,2.41
22.259788036346436,-7.36,1.98,-3.08,8.22
22.27301788330078,-6.6,5.28,-0.07,8.45
22.308446884155273,1.44,3.48,1.81,4.17
22.310359954833984,6.52,1.87,0.99,6.85
22.3113751411438,7.62,4.4,0.8,8.83
22.325450897216797,6.33,4.52,1.04,7.84
22.326507091522217,6.02,3.36,1.43,7.04
22.34117293357849,6.37,0.28,0.81,6.42
22.34219789505005,4.58,-1.17,1.64,5.0
22.357097148895264,3.56,-1.34,3.03,4.86
22.359274864196777,3.06,-1.52,2.45,4.2
22.37305784225464,2.88,-1.06,1.83,3.57
22.407698154449463,2.27,-0.28,0.88,2.45
22.408979892730713,1.64,0.25,-0.24,1.67
22.41000199317932,1.31,0.44,-1.17,1.81
22.425314903259277,0.83,0.23,-1.73,1.93
22.426372051239014,0.4,0.16,-1.44,1.5
22.441169023513794,0.18,0.24,-0.38,0.48
22.442227840423584,0.09,0.01,0.37,0.38
22.457141876220703,0.1,-0.2,0.22,0.31
22.458611011505127,0.13,-0.06,-0.32,0.35
22.473156929016113,0.16,0.19,-0.85,0.88
22.506539821624756,0.46,0.11,-0.95,1.06
22.507904052734375,0.79,-0.11,-0.78,1.11
22.50892210006714,1.16,-0.17,-0.46,1.25
22.52540683746338,1.24,-0.08,-0.2,1.25
22.526309967041016,1.02,-0.08,-0.06,1.02
22.54126214981079,0.59,-0.14,0.07,0.61
22.542243003845215,0.27,0.0,0.09,0.28
22.557085037231445,0.22,0.05,0.0,0.22
22.558531999588013,0.39,0.02,-0.08,0.39
22.573225021362305,0.42,-0.03,-0.27,0.5
22.604188919067383,0.22,-0.1,-0.55,0.6
22.605504035949707,-0.05,-0.09,-0.72,0.72
22.60650396347046,-0.26,0.12,-0.69,0.74
22.625752925872803,-0.46,0.15,-0.59,0.76
22.62676191329956,-0.49,0.03,-0.39,0.62
22.64167881011963,-0.43,-0.09,-0.08,0.44
22.642691135406494,-0.31,-0.16,0.08,0.35
22.65691900253296,-0.24,-0.11,0.03,0.26
22.65792989730835,-0.27,0.13,-0.15,0.33
22.673290014266968,-0.23,0.23,-0.72,0.79
22.67701292037964,-0.07,0.18,-0.96,0.97
22.718276023864746,0.08,0.16,-0.89,0.9
22.71941614151001,0.2,0.2,-0.85,0.89
22.7205810546875,0.19,0.24,-0.78,0.83
22.7221839427948,0.03,0.42,-0.68,0.79
22.726253986358643,-0.04,0.56,-0.61,0.82
22.73648500442505,-0.26,0.49,-0.84,1.0
22.74660015106201,-0.61,0.31,-1.3,1.46
22.756296157836914,-0.92,0.21,-1.68,1.92
22.76617193222046,-1.07,0.25,-1.65,1.98
22.775991916656494,-1.21,0.29,-1.43,1.89
22.803966999053955,-1.43,0.32,-1.25,1.92
22.805068016052246,-1.67,0.65,-1.17,2.14
22.80585813522339,-2.0,1.15,-1.3,2.64
22.82508611679077,-2.26,1.73,-1.16,3.07
22.82611608505249,-2.29,2.52,-0.33,3.42
22.8423969745636,-2.14,2.32,-0.35,3.17
22.845479011535645,-2.08,2.31,-0.45,3.14
22.85700297355652,-2.24,2.19,-0.87,3.25
22.86545991897583,-2.55,2.35,-1.61,3.82
22.875366926193237,-2.77,2.78,-2.43,4.61
22.905341148376465,-2.89,3.39,-3.2,5.48
22.906506061553955,-3.04,3.89,-3.96,6.32
22.907320976257324,-3.33,4.12,-4.57,6.99
22.925590991973877,-3.69,4.55,-4.58,7.43
22.926635026931763,-4.2,5.01,-4.38,7.86
22.941479921340942,-5.24,5.66,-4.61,8.98
22.944798946380615,-6.18,5.8,-4.81,9.74
22.957031965255737,-6.5,5.29,-4.7,9.6
22.964928150177002,-6.25,4.66,-4.81,9.16
22.97455596923828,-5.63,4.54,-5.02,8.8
23.006176948547363,-4.83,4.4,-4.97,8.2
23.007433891296387,-3.94,4.83,-4.8,7.86
23.008450031280518,-2.92,6.32,-4.31,8.18
23.025454998016357,-0.16,9.12,-2.86,9.55
23.02652096748352,4.1,12.24,-1.64,13.01
23.041555881500244,2.44,9.02,-3.05,9.82
23.04396104812622,-2.03,4.13,-4.47,6.41
23.056912899017334,-5.61,0.68,-4.96,7.51
23.064234972000122,-8.53,-2.58,-4.58,10.01
23.073909997940063,-4.63,-4.93,-3.78,7.74
23.113449096679688,2.15,-4.14,-3.12,5.61
23.114856958389282,-0.93,-2.87,-3.41,4.55
23.115861892700195,-6.45,-1.7,-4.18,7.87
23.125720024108887,-10.1,-0.97,-3.98,10.89
23.126792907714844,-10.92,-1.37,-2.31,11.24
23.141510009765625,-10.03,-2.24,-0.63,10.29
23.143128871917725,-8.77,-2.97,0.06,9.25
23.157325983047485,-7.9,-3.33,0.18,8.57
23.1633780002594,-7.39,-3.4,-0.06,8.13
23.17360496520996,-7.05,-3.23,-0.33,7.76
23.213164806365967,-6.7,-2.9,-0.42,7.31
23.21462106704712,-6.27,-2.71,-0.57,6.85
23.215643882751465,-5.72,-2.64,-0.81,6.35
23.22638702392578,-5.17,-2.51,-0.97,5.82
23.227438926696777,-4.69,-2.36,-1.12,5.36
23.241161823272705,-4.52,-2.11,-1.33,5.16
23.242203950881958,-4.43,-1.66,-1.35,4.91
23.25743007659912,-4.19,-1.17,-1.11,4.48
23.26250195503235,-3.73,-0.73,-1.08,3.95
23.273491859436035,-2.85,-0.41,-1.45,3.22
23.311311960220337,-1.69,-0.14,-1.97,2.59
23.312615871429443,-0.75,0.23,-2.29,2.42
23.313591957092285,-0.39,0.59,-2.05,2.16
23.326012134552002,-0.42,1.08,-1.13,1.61
23.327070951461792,-0.45,1.82,-0.06,1.87
23.341794967651367,-0.37,2.53,0.78,2.67
23.342852115631104,-0.23,3.17,1.35,3.45
23.357500076293945,-0.04,3.69,1.63,4.03
23.361809015274048,0.45,4.19,1.92,4.63
23.373703002929688,1.48,4.8,1.8,5.33
23.41023588180542,3.35,5.55,1.2,6.59
23.411527156829834,5.82,6.08,0.62,8.43
23.412542819976807,8.22,6.32,0.13,10.36
23.42565894126892,10.32,6.38,-0.14,12.13
23.426718950271606,11.93,5.49,-0.39,13.13
23.44171714782715,12.72,4.48,-0.03,13.48
23.442762851715088,11.83,4.75,0.93,12.78
23.457366943359375,8.9,8.52,2.04,12.48
23.4606990814209,10.83,3.41,1.6,11.46
23.473614931106567,12.59,2.64,3.18,13.25
23.481045961380005,12.17,3.21,3.58,13.08
23.51902198791504,11.42,3.3,3.15,12.29
23.520200967788696,11.03,4.26,3.51,12.33
23.521170139312744,11.25,5.93,4.44,13.47
23.54262113571167,11.27,7.22,5.33,14.4
23.543658018112183,8.05,4.13,3.0,9.53
23.558722019195557,-0.33,0.0,-1.84,1.86
23.560168981552124,-5.36,1.57,-2.72,6.21
23.57426404953003,-1.44,2.49,0.91,3.01
23.575690031051636,3.62,0.76,2.79,4.63
23.590478897094727,5.84,2.4,2.36,6.74
23.619897842407227,4.93,3.5,0.7,6.08
23.62123203277588,5.05,3.64,0.37,6.23
23.622233867645264,7.92,3.32,0.6,8.6
23.64219903945923,6.66,0.53,0.59,6.7
23.643245935440063,3.92,-0.81,2.1,4.52
23.658475875854492,2.35,-1.21,1.62,3.1
23.659489154815674,2.03,-1.26,0.7,2.48
23.673285007476807,1.8,-0.82,0.44,2.02
23.674713134765625,1.06,0.0,-0.01,1.06
23.69037389755249,0.39,0.44,-0.71,0.92
23.71979284286499,0.17,0.06,-1.23,1.24
23.721137046813965,0.31,-0.27,-1.12,1.19
23.722132921218872,0.63,-0.13,-0.27,0.69
23.742228031158447,0.84,-0.02,0.24,0.87
23.743283987045288,0.87,-0.14,0.07,0.88
23.758572101593018,0.63,-0.04,-0.24,0.67
23.759618997573853,0.37,0.09,-0.41,0.55
23.774598121643066,0.22,0.02,-0.57,0.61
23.776062965393066,0.26,0.01,-0.72,0.76
23.790486812591553,0.46,-0.03,-0.72,0.85
23.820379972457886,0.76,-0.05,-0.6,0.96
23.821882963180542,0.91,-0.06,-0.38,0.98
23.822794914245605,0.8,-0.06,-0.11,0.8
23.842924118041992,0.69,-0.09,-0.11,0.7
23.843894958496094,0.76,-0.03,-0.27,0.8
23.858232975006104,0.79,0.0,-0.37,0.87
23.859288930892944,0.56,-0.13,-0.25,0.62
23.874258041381836,0.29,-0.09,-0.02,0.3
23.875688076019287,0.16,0.07,0.17,0.24
23.889925003051758,0.07,0.05,0.22,0.23
23.918274879455566,0.04,-0.02,0.06,0.07
23.919726848602295,-0.04,0.13,-0.03,0.13
23.920652866363525,-0.04,0.19,-0.36,0.4
23.922728061676025,0.01,0.02,-0.79,0.79
23.927220821380615,0.02,-0.09,-0.84,0.84
23.93738102912903,-0.02,-0.04,-0.79,0.79
23.94730806350708,-0.1,0.05,-0.74,0.74
23.95723295211792,-0.16,0.16,-0.64,0.67
23.96707797050476,-0.23,0.29,-0.45,0.58
23.97730803489685,-0.46,0.31,-0.46,0.72
24.013410091400146,-0.77,0.37,-0.62,1.05
24.01459503173828,-0.72,0.4,-0.86,1.19
24.015605926513672,-0.61,0.42,-1.28,1.47
24.026108026504517,-0.77,0.52,-1.63,1.87
24.02713108062744,-1.04,0.63,-1.54,1.96
24.041933059692383,-1.33,0.71,-1.45,2.09
24.04634714126587,-1.71,0.54,-1.25,2.18
24.057344913482666,-1.98,0.49,-1.03,2.28
24.066408157348633,-2.04,0.7,-0.99,2.37
24.076355934143066,-1.97,0.86,-1.27,2.49
24.11264395713806,-1.91,1.04,-1.69,2.75
24.113967895507812,-2.47,1.84,-1.8,3.56
24.11500883102417,-2.93,2.76,-1.8,4.4
24.12605905532837,-2.72,2.63,-1.8,4.18
24.12701988220215,-2.64,2.92,-1.41,4.18
24.141777992248535,-2.93,3.07,-1.66,4.55
24.145598888397217,-3.18,3.54,-2.14,5.21
24.155635833740234,-3.22,4.12,-2.81,5.93
24.165796995162964,-3.21,4.28,-3.53,6.4
24.175522804260254,-3.4,4.38,-3.97,6.81
24.214399814605713,-4.02,4.79,-4.12,7.48
24.215806007385254,-5.04,5.37,-4.33,8.54
24.216824054718018,-5.9,5.84,-4.44,9.41
24.226551055908203,-6.45,5.78,-4.49,9.75
24.22756814956665,-6.6,5.21,-4.6,9.58
24.242223024368286,-6.4,4.49,-4.94,9.24
24.244796991348267,-6.09,3.86,-5.08,8.82
24.25688600540161,-5.11,3.74,-4.8,7.94
24.264881134033203,-4.31,4.8,-4.98,8.14
24.27488088607788,-2.8,6.64,-4.87,8.69
24.284914016723633,0.85,10.16,-3.19,10.68
24.317543029785156,4.35,13.11,-1.74,13.92
24.318705081939697,1.26,8.23,-3.54,9.04
24.32008981704712,-3.15,3.92,-5.41,7.38
24.32423996925354,-6.5,0.55,-5.68,8.64
24.34268593788147,-8.8,-3.61,-5.37,10.92
24.343955993652344,-4.13,-5.21,-4.2,7.86
24.357780933380127,3.85,-2.38,-2.43,5.13
24.36395788192749,1.68,-2.53,-2.62,4.01
24.37412405014038,-3.84,-2.89,-3.88,6.17
24.384289979934692,-8.3,-2.76,-4.14,9.67
24.415544033050537,-10.34,-2.91,-2.95,11.13
24.416754007339478,-10.05,-3.27,-1.34,10.65
24.417983055114746,-8.57,-4.06,-0.18,9.48
24.423341989517212,-7.43,-4.72,0.3,8.8
24.433583974838257,-6.97,-4.83,0.2,8.48
24.443190097808838,-6.94,-4.49,-0.2,8.26
24.453537940979004,-6.91,-4.02,-0.48,8.0
24.463299989700317,-6.67,-3.64,-0.55,7.61
24.4732928276062,-6.25,-3.47,-0.7,7.18
24.483369827270508,-5.72,-3.25,-0.92,6.64
24.51456880569458,-5.34,-3.04,-1.1,6.24
24.515676975250244,-5.33,-2.44,-1.2,5.98
24.516488075256348,-5.48,-1.64,-1.36,5.87
24.523082971572876,-5.13,-0.9,-1.93,5.55
24.53293800354004,-4.04,-0.28,-2.57,4.79
24.542656898498535,-2.38,-0.04,-3.15,3.94
24.55255103111267,-0.77,-0.04,-3.28,3.36
24.56232213973999,0.1,0.07,-2.62,2.62
24.572597980499268,0.47,0.56,-1.72,1.86
24.582613945007324,0.9,1.43,-0.91,1.91
24.61482810974121,1.21,2.18,-0.33,2.51
24.61621904373169,0.93,2.7,0.2,2.86
24.617326974868774,0.34,3.41,0.91,3.54
24.625983953475952,-0.04,4.27,1.76,4.61
24.631927967071533,0.26,5.13,2.37,5.65
24.641851902008057,1.57,5.78,2.2,6.38
24.65192985534668,3.53,6.19,1.42,7.26
24.661736965179443,5.7,6.55,0.16,8.68
24.672189950942993,8.2,6.8,-0.39,10.65
24.68193006515503,10.85,6.68,-0.47,12.75
24.720016956329346,12.98,5.77,0.01,14.2
24.721310138702393,13.73,4.57,0.65,14.48
24.72212791442871,12.81,3.52,1.26,13.34
24.742905139923096,11.47,3.06,2.22,12.07
24.743939876556396,9.21,7.26,3.0,12.1
24.759006023406982,9.39,6.7,2.84,11.87
24.76006507873535,12.09,2.82,3.5,12.89
24.774704933166504,12.93,2.62,4.06,13.8
24.776174068450928,12.08,2.53,3.14,12.73
24.79086208343506,10.51,4.21,3.13,11.74
24.82035803794861,9.05,6.07,2.96,11.29
24.821748971939087,2.83,2.73,-0.59,3.97
24.822761058807373,-5.25,2.64,-3.13,6.65
24.842777013778687,-3.69,5.47,-0.47,6.61
24.84384298324585,2.37,4.67,2.13,5.65
24.859169960021973,5.28,3.09,2.05,6.45
24.860180854797363,5.69,2.93,1.21,6.51
24.874753952026367,3.95,0.69,0.39,4.02
24.876203060150146,3.17,0.63,0.78,3.32
24.890771865844727,5.6,1.75,1.38,6.02
24.92028284072876,6.09,-0.87,1.02,6.23
24.921658039093018,4.56,-1.06,1.61,4.95
24.922650814056396,3.18,-0.49,1.37,3.49
24.94285011291504,2.26,-0.51,0.66,2.4
24.943904876708984,1.85,-0.52,0.31,1.94
24.958981037139893,1.35,-0.2,-0.28,1.39
24.959947109222412,0.95,0.23,-0.79,1.25
24.975072860717773,0.6,0.49,-1.02,1.28
24.97656488418579,0.63,0.18,-0.77,1.01
24.991132020950317,1.03,-0.04,-0.07,1.03
25.018683910369873,1.26,-0.15,0.34,1.31
25.019978046417236,0.87,-0.18,0.09,0.89
25.020832061767578,0.43,-0.02,-0.23,0.48
25.022511959075928,0.33,0.07,-0.57,0.66
25.0289089679718,0.42,0.05,-1.0,1.08
25.038989067077637,0.56,0.06,-1.16,1.28
25.04904294013977,0.82,0.05,-1.03,1.31
25.058699131011963,1.07,-0.1,-0.78,1.32
25.068663120269775,1.1,-0.17,-0.38,1.17
25.078593015670776,0.76,-0.12,-0.06,0.77
25.088886976242065,0.27,-0.07,0.05,0.28
25.12039303779602,0.11,-0.01,0.25,0.27
25.121336936950684,0.18,0.04,0.32,0.36
25.12213897705078,0.2,0.02,0.14,0.24
25.143229961395264,0.12,0.08,-0.16,0.21
25.144248008728027,-0.1,0.13,-0.53,0.55
25.15903401374817,-0.26,0.02,-0.62,0.67
25.16008496284485,-0.24,-0.13,-0.55,0.61
25.175146102905273,-0.03,-0.18,-0.37,0.41
25.177973985671997,0.07,-0.1,-0.2,0.23
25.19112205505371,-0.14,-0.06,-0.23,0.27
25.21861696243286,-0.44,0.01,-0.3,0.53
25.219960927963257,-0.53,0.15,-0.25,0.6
25.220993995666504,-0.38,0.12,-0.22,0.45
25.22731900215149,-0.14,0.12,-0.28,0.33
25.237329959869385,0.1,0.1,-0.43,0.45
25.247504949569702,0.26,0.02,-0.54,0.59
25.257259845733643,0.27,-0.01,-0.56,0.62
25.267212867736816,0.12,-0.04,-0.53,0.54
25.277060985565186,-0.35,-0.01,-0.72,0.8
25.28733491897583,-0.91,0.2,-1.14,1.47
25.317219018936157,-1.4,0.6,-1.35,2.03
25.318403959274292,-1.94,0.8,-1.5,2.57
25.319458961486816,-2.29,0.86,-1.5,2.86
25.326427936553955,-2.34,0.79,-1.4,2.83
25.342905044555664,-2.53,0.77,-1.87,3.23
25.34645414352417,-2.8,0.9,-2.18,3.66
25.35647487640381,-2.68,1.05,-2.12,3.57
25.366549015045166,-2.14,1.3,-2.04,3.22
25.376452922821045,-2.03,1.6,-2.26,3.43
25.386471033096313,-2.35,2.12,-3.01,4.36
25.418013095855713,-3.2,3.51,-3.45,5.87
25.41917610168457,-3.95,4.73,-2.95,6.83
25.420215129852295,-3.99,5.17,-2.4,6.95
25.425984859466553,-4.37,5.74,-2.7,7.7
25.44288206100464,-5.04,6.06,-3.62,8.67
25.445712089538574,-5.11,6.31,-4.06,9.07
25.45814800262451,-4.84,6.65,-4.09,9.18
25.465507984161377,-5.26,7.54,-3.93,9.99
25.475656986236572,-6.22,8.39,-4.78,11.48
25.48587989807129,-7.19,8.87,-5.32,12.59
25.523519039154053,-7.69,8.45,-5.82,12.82
25.52467107772827,-8.48,7.09,-8.05,13.67
25.525673866271973,-9.05,6.47,-8.77,14.16
25.543848037719727,-8.39,7.99,-7.49,13.79
25.544875144958496,-3.63,13.08,-4.28,14.23
25.558440923690796,6.04,18.34,-0.6,19.31
25.55956792831421,6.89,15.18,-3.61,17.05
25.57553791999817,-1.04,9.48,-8.0,12.44
25.57700490951538,-9.4,2.99,-7.65,12.48
25.59135103225708,-2.84,0.62,-2.52,3.84
25.623050928115845,6.25,1.28,-0.07,6.38
25.624311923980713,0.08,1.32,-1.94,2.34
25.62529492378235,-6.55,3.54,-2.74,7.93
25.64338493347168,-7.82,2.69,-0.58,8.29
25.64443802833557,-6.99,0.31,1.48,7.15
25.65957999229431,-6.74,-1.31,1.81,7.1
25.660614013671875,-6.57,-1.64,1.51,6.93
25.67503786087036,-6.87,-1.58,1.24,7.15
25.676501035690308,-6.75,-1.87,1.66,7.19
25.69118094444275,-6.29,-2.84,1.51,7.06
25.720890998840332,-5.19,-4.11,1.24,6.73
25.72233009338379,-4.13,-5.14,0.16,6.59
25.723241806030273,-2.81,-5.85,-0.64,6.52
25.74337601661682,-2.0,-6.14,-0.87,6.51
25.744418144226074,-1.9,-6.97,-0.51,7.24
25.75935983657837,-2.77,-7.59,-0.14,8.08
25.76040506362915,-3.75,-7.92,-0.09,8.76
25.77473211288452,-4.18,-8.14,0.1,9.15
25.77572011947632,-4.26,-8.64,0.62,9.65
25.792343139648438,-4.42,-9.13,1.41,10.24
25.818708896636963,-5.01,-9.28,2.16,10.76
25.8197340965271,-5.97,-8.93,3.21,11.21
25.820579051971436,-6.39,-8.7,4.34,11.63
25.823290824890137,-5.76,-8.72,5.21,11.67
25.83303689956665,-4.46,-8.56,5.23,10.97
25.842904090881348,-3.18,-7.78,4.39,9.48
25.852852821350098,-1.83,-6.79,3.2,7.72
25.862751960754395,0.07,-5.84,2.53,6.36
25.872847080230713,2.53,-5.04,2.0,5.98
25.88295292854309,5.37,-4.44,1.37,7.1
25.892658948898315,7.95,-3.71,1.25,8.86
25.9260311126709,9.74,-2.66,1.27,10.17
25.92720103263855,10.61,-1.39,1.65,10.82
25.92802381515503,10.66,-0.05,2.08,10.86
25.94333791732788,10.28,1.49,2.45,10.67
25.94437885284424,10.23,2.92,2.87,11.01
25.959641933441162,10.22,3.83,3.25,11.38
25.96181011199951,9.48,4.26,3.11,10.84
25.97482204437256,8.85,4.72,2.07,10.24
25.981714010238647,8.96,4.63,0.4,10.09
25.991760969161987,8.73,4.05,-1.23,9.7
26.02335000038147,8.34,4.47,-2.68,9.83
26.024713039398193,7.75,8.42,-1.86,11.59
26.02574110031128,3.58,17.69,-3.49,18.38
26.04354190826416,5.17,17.52,-9.49,20.58
26.044639110565186,0.86,19.78,-9.11,21.79
26.05729389190674,-3.37,24.92,-3.61,25.4
26.06090784072876,0.93,12.36,-0.61,12.4
26.074795961380005,4.16,-3.92,1.17,5.83
26.080991983413696,2.89,-9.73,5.12,11.36
26.091027975082397,3.47,-5.85,7.08,9.81
26.12122392654419,8.36,-0.12,5.63,10.07
26.122452974319458,7.83,-0.98,3.66,8.69
26.123273849487305,6.29,0.21,3.69,7.29
26.143090963363647,3.99,0.39,1.35,4.23
26.144134044647217,1.54,-0.45,-1.03,1.9
26.15967297554016,-0.24,0.53,-2.6,2.66
26.16072392463684,-0.23,1.6,-2.81,3.24
26.17491602897644,0.37,1.4,-2.51,2.89
26.180622100830078,0.44,0.46,-1.92,2.02
26.191511154174805,0.46,-0.1,-0.41,0.62
26.2228000164032,0.26,-0.3,0.36,0.53
26.22412395477295,0.32,-0.23,-0.29,0.48
26.225162029266357,0.8,-0.12,-0.89,1.2
26.243568897247314,1.27,-0.02,-1.17,1.72
26.244624137878418,1.02,0.08,-1.38,1.71
26.25968313217163,0.51,0.08,-1.27,1.37
26.260661125183105,0.34,-0.15,-0.66,0.75
26.27523398399353,0.42,-0.36,-0.22,0.59
26.27975082397461,0.05,-0.37,-0.12,0.39
26.291533946990967,-0.27,-0.1,-0.16,0.32
26.327413082122803,0.05,0.29,-0.03,0.29
26.328707933425903,0.4,0.55,-0.08,0.68
26.32974100112915,0.36,0.56,-0.5,0.83
26.343528985977173,0.13,0.31,-0.72,0.79
26.344587802886963,-0.12,0.05,-0.85,0.85
26.359519004821777,-0.42,0.02,-0.95,1.03
26.360569953918457,-0.54,0.2,-1.14,1.27
26.375187873840332,-0.6,0.11,-1.19,1.33
26.37854814529419,-0.59,0.0,-0.95,1.11
26.391660928726196,-0.49,0.09,-0.53,0.72
26.424870014190674,-0.29,0.06,-0.34,0.45
26.426273822784424,-0.19,-0.08,-0.13,0.24
26.427384853363037,-0.51,-0.22,-0.12,0.56
26.44392204284668,-1.08,-0.34,-0.25,1.15
26.44498896598816,-1.55,-0.42,-0.34,1.64
26.459391117095947,-1.81,-0.34,-0.35,1.87
26.46044397354126,-1.4,-0.17,-0.55,1.51
26.475382804870605,-0.7,0.34,-0.47,0.9
26.478089809417725,-0.32,0.73,-0.79,1.12
26.491811990737915,-0.47,1.03,-1.24,1.67
26.52635097503662,-1.07,1.14,-1.24,1.99
26.527878999710083,-1.68,1.04,-1.17,2.29
26.528931140899658,-2.62,0.89,-1.44,3.11
26.544312000274658,-2.95,0.7,-1.39,3.33
26.545362949371338,-2.42,0.8,-1.03,2.74
26.55964493751526,-1.99,1.33,-1.05,2.61
26.5606689453125,-2.28,2.28,-1.61,3.6
26.575461864471436,-2.19,3.8,-0.65,4.43
26.577319145202637,-1.94,3.32,-1.53,4.13
26.591866970062256,-2.53,3.33,-2.08,4.67
26.62522792816162,-3.06,3.48,-2.26,5.15
26.626594066619873,-3.62,3.74,-2.43,5.74
26.627617835998535,-4.45,4.91,-2.86,7.21
26.643757820129395,-5.39,5.97,-3.36,8.71
26.644778966903687,-6.64,7.67,-3.86,10.85
26.659693956375122,-8.14,10.08,-5.14,13.93
26.66072988510132,-9.12,10.04,-5.97,14.81
26.67576003074646,-9.33,8.68,-6.58,14.34
26.677232027053833,-8.61,7.67,-6.67,13.32
26.691773891448975,-7.34,6.49,-6.36,11.68
26.696674823760986,-6.04,6.12,-7.06,11.12
26.736905097961426,-6.05,8.05,-8.18,12.97
26.738062858581543,-4.65,12.71,-6.99,15.23
26.739032983779907,2.91,18.13,-0.25,18.36
26.740684986114502,5.48,13.65,0.71,14.72
26.745762825012207,0.35,7.0,-4.06,8.09
26.75602698326111,-5.84,3.88,-7.18,10.03
26.765877962112427,-7.63,0.96,-5.97,9.73
26.775929927825928,1.99,0.61,-3.42,4.0
26.786185026168823,6.08,0.69,-1.53,6.3
26.795886039733887,1.54,-0.08,-2.34,2.8
26.829493045806885,-4.3,0.15,-4.31,6.09
26.830811023712158,-8.11,-0.15,-4.14,9.1
26.831811904907227,-9.12,-1.55,-1.89,9.44
26.8433780670166,-8.1,-3.46,0.41,8.81
26.84500503540039,-6.47,-5.26,1.72,8.51
26.85985493659973,-5.37,-6.16,1.97,8.4
26.864872932434082,-5.22,-6.36,1.48,8.35
26.875816822052002,-5.58,-6.33,0.71,8.46
26.88517713546753,-5.98,-6.34,0.3,8.72
26.89499592781067,-5.97,-6.52,0.14,8.84
26.92900800704956,-5.72,-6.78,-0.01,8.87
26.930354118347168,-5.55,-7.0,-0.14,8.93
26.931249141693115,-5.33,-6.99,-0.2,8.79
26.93415403366089,-5.24,-6.74,-0.53,8.55
26.944700002670288,-5.29,-6.35,-0.94,8.31
26.954532146453857,-5.04,-5.78,-1.26,7.77
26.964417934417725,-4.34,-5.19,-1.48,6.92
26.974348068237305,-3.18,-5.13,-1.88,6.32
26.98413896560669,-1.75,-5.36,-2.02,5.98
26.994375944137573,-1.03,-5.44,-1.64,5.77
27.02544593811035,-0.84,-5.41,-0.74,5.52
27.026409149169922,-0.3,-5.36,0.14,5.37
27.02721405029297,0.87,-5.34,0.69,5.45
27.044000148773193,1.64,-5.14,1.0,5.48
27.044997930526733,1.68,-4.46,1.0,4.86
27.059937953948975,1.69,-3.38,1.17,3.95
27.063483953475952,2.46,-2.35,1.43,3.69
27.075253009796143,3.93,-1.5,1.62,4.5
27.08344292640686,5.4,-0.77,2.05,5.82
27.093416929244995,6.59,-0.08,2.68,7.11
27.13062596321106,7.47,0.52,3.22,8.15
27.1320481300354,8.06,1.23,3.76,8.97
27.13286590576172,8.77,1.98,3.86,9.78
27.144082069396973,9.86,2.28,3.37,10.66
27.145128965377808,11.14,2.78,2.6,11.77
27.16018295288086,12.14,3.27,1.49,12.66
27.162662982940674,12.17,3.44,0.28,12.64
27.175357818603516,12.19,3.92,0.29,12.8
27.18246102333069,12.75,3.83,0.63,13.32
27.192641019821167,11.34,5.37,0.88,12.57
27.23125982284546,4.08,13.32,-0.33,13.93
27.232630014419556,4.17,13.54,-5.34,15.14
27.23362684249878,0.98,17.38,-3.73,17.8
27.24440598487854,-6.03,22.61,-1.28,23.43
27.245460987091064,-5.73,21.54,1.23,22.32
27.260305881500244,0.14,1.8,2.75,3.28
27.261849880218506,6.27,-5.7,5.82,10.27
27.27539587020874,10.7,-6.67,6.81,14.33
27.28196692466736,10.59,-4.07,5.96,12.81
27.29203510284424,6.68,-1.29,3.89,7.83
27.329153060913086,2.85,-0.28,1.96,3.47
27.33054780960083,0.93,-0.16,0.53,1.08
27.331552028656006,0.29,-0.17,-1.04,1.09
27.34398102760315,0.85,-0.15,-1.38,1.62
27.345031023025513,1.65,0.67,-1.79,2.52
27.360085010528564,1.72,1.17,-2.4,3.17
27.361135005950928,0.79,0.72,-2.74,2.94
27.375643968582153,-0.19,0.42,-2.34,2.38
27.381304025650024,-0.43,0.05,-1.41,1.47
27.39200496673584,0.3,-0.13,-0.34,0.47
27.429530143737793,1.08,-0.25,0.02,1.1
27.430989027023315,1.24,-0.31,-0.35,1.32
27.43180799484253,1.01,-0.14,-0.38,1.08
27.440882921218872,0.5,0.14,0.42,0.66
27.441925048828125,0.02,0.18,0.7,0.72
27.46012783050537,0.1,0.07,0.46,0.47
27.461158990859985,0.52,-0.09,-0.16,0.55
27.47554588317871,0.66,-0.14,-0.99,1.19
27.480359077453613,0.45,0.02,-1.35,1.42
27.492110013961792,0.22,0.26,-1.26,1.3
27.500492095947266,-0.07,0.32,-1.03,1.08
27.53712511062622,-0.43,0.13,-0.89,0.99
27.53827714920044,-0.39,-0.08,-0.65,0.76
27.539196014404297,-0.13,-0.2,-0.55,0.59
27.541319847106934,-0.04,-0.23,-0.85,0.88
27.549997806549072,-0.21,-0.13,-1.08,1.1
27.559803009033203,-0.49,-0.03,-1.06,1.16
27.569661140441895,-0.49,0.14,-0.76,0.91
27.579607009887695,-0.46,0.3,-0.17,0.57
27.589727878570557,-0.43,0.37,0.22,0.6
27.5995090007782,-0.49,0.23,0.4,0.67
27.631857872009277,-0.55,0.06,0.51,0.75
27.6330349445343,-0.53,-0.03,0.49,0.72
27.63383197784424,-0.55,-0.04,0.38,0.66
27.644500017166138,-0.57,0.13,0.19,0.61
27.648974895477295,-0.58,0.23,0.01,0.62
27.659714937210083,-0.73,0.18,-0.35,0.82
27.66911506652832,-0.84,0.17,-0.86,1.21
27.67870593070984,-0.86,0.16,-1.08,1.38
27.68893003463745,-0.65,0.2,-1.06,1.25
27.698959827423096,-0.34,0.18,-0.97,1.04
27.73113489151001,-0.4,0.24,-1.21,1.29
27.73250699043274,-1.0,0.62,-1.53,1.93
27.73348093032837,-1.19,1.35,-0.88,2.0
27.744184017181396,-1.65,2.26,-0.35,2.82
27.74822998046875,-2.23,2.6,-0.19,3.43
27.76143193244934,-2.45,2.32,-0.47,3.4
27.76815414428711,-2.58,2.24,-1.11,3.59
27.77788996696472,-2.73,2.4,-1.82,4.06
27.788384914398193,-3.02,2.49,-2.73,4.77
27.798105001449585,-3.35,2.59,-3.38,5.41
27.830493927001953,-3.63,3.0,-3.82,6.06
27.831784963607788,-4.07,3.57,-4.29,6.9
27.832788944244385,-5.33,4.54,-5.11,8.66
27.84423303604126,-7.05,6.8,-5.97,11.47
27.847543001174927,-8.32,9.74,-6.16,14.21
27.86038589477539,-9.33,11.61,-6.59,16.28
27.86727499961853,-10.74,12.57,-7.8,18.28
27.877264976501465,-11.38,11.28,-8.41,18.09
27.88724994659424,-10.64,9.6,-8.21,16.51
27.896898984909058,-8.46,7.93,-8.05,14.11
27.93744397163391,-5.68,9.78,-7.62,13.63
27.93896198272705,-2.93,18.11,-7.32,19.75
27.93995189666748,5.47,25.56,-4.09,26.45
27.961039066314697,6.38,18.27,-4.14,19.78
27.96208381652832,-2.09,7.99,-7.56,11.19
27.976891040802002,-7.69,3.79,-7.08,11.11
27.977869033813477,3.36,4.07,-2.7,5.92
27.993356943130493,8.59,2.34,0.01,8.9
27.99482011795044,2.6,1.46,-1.1,3.17
28.00910997390747,-3.18,1.48,-2.83,4.5
28.041034936904907,-5.56,-0.3,-2.23,5.99
28.04243302345276,-5.88,-2.91,-0.43,6.57
28.04345703125,-5.15,-5.11,0.79,7.29
28.060956954956055,-4.74,-6.45,0.95,8.06
28.062022924423218,-4.86,-7.33,0.74,8.82
28.077022075653076,-5.14,-7.96,0.62,9.49
28.078349113464355,-5.29,-8.43,0.83,9.98
28.092934131622314,-5.25,-8.81,0.79,10.28
28.09441614151001,-5.66,-9.14,0.25,10.75
28.10907506942749,-6.14,-9.24,-0.29,11.09
28.14111614227295,-6.43,-8.99,-0.52,11.06
28.142377853393555,-6.19,-8.69,-0.28,10.67
28.14340901374817,-6.12,-8.62,-0.19,10.57
28.161165952682495,-6.16,-8.71,-0.21,10.67
28.16218614578247,-6.27,-8.67,-0.29,10.7
28.177510023117065,-6.31,-8.47,0.17,10.56
28.178997039794922,-6.27,-8.29,0.71,10.41
28.1930730342865,-6.1,-8.15,1.39,10.27
28.19457197189331,-5.39,-8.31,1.96,10.09
28.209282875061035,-3.95,-8.37,1.77,9.42
28.242093086242676,-2.43,-8.07,0.96,8.48
28.24337387084961,-1.05,-7.7,0.41,7.78
28.2443790435791,-0.15,-7.34,0.24,7.34
28.26110601425171,0.84,-6.97,0.2,7.02
28.262167930603027,2.26,-6.47,0.14,6.85
28.277215003967285,3.6,-5.98,0.28,6.98
28.278208017349243,4.32,-5.38,0.79,6.94
28.292945861816406,4.81,-4.58,1.49,6.8
28.29443097114563,5.62,-3.82,2.36,7.19
28.30958080291748,6.8,-3.23,3.18,8.17
28.311047077178955,7.89,-2.61,3.89,9.17
28.358711004257202,8.4,-1.84,4.06,9.5
28.359882831573486,8.3,-0.75,4.4,9.42
28.360918045043945,8.29,0.56,4.78,9.58
28.37817692756653,8.76,1.64,4.51,9.98
28.37918496131897,9.43,2.45,3.61,10.39
28.394109964370728,9.97,3.31,2.44,10.78
28.395583152770996,9.76,4.09,1.31,10.66
28.40965986251831,9.05,5.37,0.54,10.53
28.411171913146973,9.0,6.71,-0.32,11.23
28.425745010375977,9.05,7.44,-1.73,11.84
28.458415985107422,4.26,14.64,-0.74,15.26
28.4597909450531,1.85,19.68,-8.82,21.64
28.460808038711548,0.51,14.62,-13.88,20.16
28.478035926818848,-12.16,21.3,-9.21,26.19
28.479063034057617,-11.9,30.53,0.67,32.77
28.493802070617676,-0.05,6.53,5.81,8.74
28.49483299255371,8.08,-6.28,7.51,12.69
28.509615898132324,11.19,-9.92,5.74,16.01
28.51108980178833,9.78,-6.8,3.78,12.49
28.5259428024292,6.22,-0.54,4.78,7.86
28.556955814361572,1.63,1.2,4.18,4.64
28.558095932006836,0.06,0.57,2.35,2.41
28.55891513824463,0.21,-0.25,-0.27,0.42
28.577938079833984,0.94,-0.35,-2.4,2.6
28.578978061676025,1.85,1.17,-3.91,4.48
28.59373903274536,2.41,2.45,-4.36,5.55
28.594768047332764,1.72,1.53,-3.55,4.23
28.60920000076294,0.35,0.69,-2.22,2.35
28.610211849212646,-0.5,0.42,-0.97,1.16
28.625895977020264,-0.53,-0.28,-0.05,0.6
28.65557289123535,0.0,-0.77,0.23,0.8
28.656832933425903,0.29,-0.69,-0.04,0.74
28.65767812728882,0.31,-0.08,-0.49,0.58
28.67800283432007,0.31,0.39,-0.38,0.62
28.679000854492188,0.09,0.28,-0.01,0.29
28.694010972976685,-0.2,-0.17,0.1,0.28
28.69500494003296,-0.24,-0.32,0.04,0.4
28.709345817565918,-0.06,0.11,-0.6,0.61
28.710405826568604,0.15,0.51,-1.33,1.43
28.726068019866943,0.31,0.54,-1.63,1.74
28.753594875335693,0.14,0.12,-1.4,1.41
28.754734992980957,-0.6,-0.17,-1.02,1.19
28.755568981170654,-1.57,-0.16,-0.62,1.69
28.75859308242798,-2.3,-0.18,-0.42,2.34
28.75973892211914,-2.37,-0.05,-0.59,2.44
28.760978937149048,-1.69,0.31,-0.63,1.83
28.770554065704346,-1.0,0.5,-0.57,1.25
28.78071093559265,-0.67,0.46,-0.76,1.11
28.79060411453247,-0.58,0.31,-1.02,1.21
28.800477981567383,-0.43,0.09,-0.98,1.07
28.834882020950317,-0.29,0.15,-0.63,0.7
28.835928916931152,-0.31,0.39,-0.5,0.7
28.836678981781006,-0.33,0.53,-0.28,0.68
28.840906143188477,-0.34,0.53,-0.12,0.64
28.860829830169678,-0.41,0.47,0.0,0.62
28.861854076385498,-0.53,0.41,0.07,0.67
28.875784873962402,-0.79,0.48,0.14,0.93
28.87964701652527,-1.11,0.69,0.02,1.3
28.892369031906128,-1.39,0.91,-0.2,1.67
28.89957284927368,-1.73,0.82,-1.28,2.3
28.937758922576904,-1.84,1.06,-0.89,2.3
28.938798904418945,-1.21,1.21,-0.66,1.83
28.93976902961731,-1.29,1.08,-1.24,2.09
28.942273139953613,-1.7,1.3,-1.74,2.75
28.94921588897705,-1.92,1.33,-2.33,3.29
28.959292888641357,-2.3,1.97,-2.79,4.11
28.969149112701416,-3.09,2.74,-3.47,5.39
28.97911787033081,-3.71,3.48,-3.66,6.26
28.98884892463684,-4.09,4.07,-3.2,6.59
28.999207973480225,-4.89,4.23,-2.86,7.06
29.03689193725586,-6.05,5.22,-2.38,8.33
29.038208961486816,-7.81,7.69,-2.72,11.29
29.03898596763611,-9.61,10.14,-4.09,14.55
29.04126214981079,-10.64,12.09,-5.99,17.18
29.049307823181152,-11.02,13.46,-7.29,18.86
29.05937385559082,-10.86,13.09,-8.08,18.83
29.068180084228516,-10.57,11.5,-9.55,18.3
29.078253984451294,-10.45,10.99,-11.77,19.19
29.0879909992218,-7.97,15.35,-9.85,19.9
29.098947048187256,2.67,23.82,-0.77,23.98
29.10906410217285,8.22,19.5,0.63,21.17
29.137528896331787,1.71,9.67,-6.26,11.64
29.138458013534546,-6.81,5.11,-8.87,12.29
29.13944387435913,-0.16,4.6,-4.83,6.67
29.14747381210327,10.72,3.06,-1.1,11.2
29.15786600112915,7.76,1.18,-0.14,7.85
29.167625904083252,-0.34,1.53,-2.52,2.96
29.17758297920227,-4.22,0.26,-2.51,4.91
29.187366008758545,-4.63,-2.63,-0.62,5.36
29.197556018829346,-4.03,-5.31,0.41,6.67
29.207643032073975,-3.85,-7.08,0.35,8.06
29.238615036010742,-4.03,-7.99,0.17,8.95
29.239557027816772,-4.37,-8.33,0.19,9.4
29.24037003517151,-5.09,-8.56,0.3,9.96
29.261718034744263,-5.74,-8.77,0.32,10.48
29.26280689239502,-6.21,-8.9,0.13,10.85
29.277662992477417,-6.14,-8.99,0.06,10.88
29.278686046600342,-6.17,-8.73,-0.13,10.69
29.29377293586731,-6.34,-8.4,-0.3,10.52
29.296764850616455,-6.74,-8.25,-0.47,10.66
29.309651851654053,-6.78,-8.26,-0.67,10.7
29.33711814880371,-6.74,-8.27,-0.97,10.71
29.338430881500244,-6.42,-8.36,-1.08,10.59
29.339272022247314,-5.85,-8.61,-1.15,10.47
29.34599208831787,-5.15,-8.97,-1.1,10.4
29.356371879577637,-4.63,-9.3,-0.81,10.42
29.366171836853027,-3.92,-9.74,-0.23,10.5
29.37600088119507,-3.6,-9.99,-0.03,10.61
29.385860919952393,-3.62,-10.16,-0.02,10.78
29.39592409133911,-3.31,-10.03,0.11,10.56
29.40614604949951,-2.65,-9.63,0.49,9.99
29.436298847198486,-1.83,-8.97,1.21,9.23
29.437285900115967,-0.87,-7.9,1.94,8.18
29.438311100006104,0.26,-6.74,2.13,7.07
29.445369958877563,1.06,-5.41,2.06,5.88
29.461052894592285,1.61,-4.14,1.93,4.84
29.465280055999756,2.7,-3.03,2.4,4.71
29.47496795654297,4.39,-2.01,3.09,5.73
29.48528003692627,6.26,-1.23,3.3,7.18
29.495312929153442,7.77,-0.11,3.34,8.45
29.505227088928223,8.95,1.48,3.19,9.61
29.543500900268555,9.39,3.07,2.53,10.19
29.54469394683838,9.11,5.05,1.63,10.54
29.54568099975586,8.59,7.04,0.2,11.1
29.56213903427124,8.29,8.74,-0.32,12.05
29.563220024108887,9.21,9.53,-0.05,13.25
29.57710313796997,10.96,8.5,-0.18,13.87
29.578124046325684,11.52,7.17,-0.4,13.57
29.593461990356445,8.18,10.98,0.36,13.69
29.594942092895508,2.39,17.5,-2.87,17.89
29.60982084274292,4.48,14.3,-8.19,17.07
29.64351511001587,-0.16,16.62,-8.78,18.79
29.644788026809692,-6.81,25.69,-5.22,27.08
29.645805835723877,-2.93,15.04,1.02,15.35
29.66184902191162,5.04,-3.47,4.55,7.62
29.662904977798462,8.73,-10.6,6.7,15.27
29.67764902114868,10.47,-7.25,5.6,13.91
29.67868399620056,8.52,-1.13,4.13,9.53
29.6932430267334,3.95,0.3,2.83,4.86
29.694267988204956,0.04,0.23,1.3,1.32
29.709707021713257,-1.0,0.11,-0.7,1.22
29.740803003311157,-0.54,0.51,-2.18,2.3
29.742129802703857,0.13,0.98,-2.69,2.86
29.7431321144104,0.97,1.45,-2.55,3.08
29.761821031570435,1.3,1.48,-2.39,3.09
29.762818813323975,0.89,0.91,-1.8,2.2
29.777846813201904,0.47,0.15,-0.84,0.97
29.778892040252686,0.6,-0.58,0.02,0.83
29.793321132659912,1.33,-0.69,0.35,1.53
29.79435396194458,2.0,-0.4,0.32,2.06
29.80998992919922,1.83,-0.08,0.27,1.85
29.841217041015625,1.07,0.18,0.13,1.09
29.84262990951538,0.28,0.18,-0.02,0.33
29.843594074249268,-0.23,0.1,-0.31,0.39
29.86186408996582,-0.41,0.08,-0.75,0.85
29.862895965576172,-0.18,0.36,-1.0,1.07
29.87778902053833,0.31,0.5,-0.98,1.14
29.878830909729004,0.62,0.45,-0.89,1.17
29.893568992614746,0.37,0.27,-1.05,1.14
