time,ax,ay,az,atotal
0.04033088684082031,-0.09,0.06,-0.19,0.21
0.040656089782714844,-0.98,0.0,0.07,0.98
0.040924072265625,0.06,-0.01,-0.06,0.08
0.041190147399902344,-0.02,-0.07,0.14,0.15
0.042534828186035156,0.36,-0.11,0.23,0.44
0.052557945251464844,0.46,-0.03,0.09,0.46
0.06308698654174805,0.32,0.08,0.11,0.34
0.07253599166870117,0.19,0.08,0.05,0.21
0.08266305923461914,0.17,-0.09,0.08,0.2
0.09332513809204102,0.11,-0.06,0.11,0.16
0.14005088806152344,0.14,0.03,0.06,0.15
0.1402888298034668,0.15,0.03,0.06,0.16
0.1405470371246338,0.08,0.02,0.05,0.09
0.14081192016601562,0.04,0.01,0.04,0.05
0.14245104789733887,0.01,-0.01,0.04,0.04
0.15260887145996094,0.01,-0.03,0.05,0.05
0.1630258560180664,0.02,-0.02,0.04,0.04
0.17243289947509766,-0.01,-0.01,0.04,0.04
0.1824359893798828,-0.02,0.01,0.02,0.03
0.1931910514831543,0.0,-0.01,0.03,0.03
0.23973512649536133,0.02,-0.02,0.04,0.04
0.2400069236755371,0.07,-0.03,0.06,0.09
0.24027585983276367,0.09,-0.02,0.07,0.11
0.2405250072479248,0.09,0.01,0.08,0.12
0.2423381805419922,0.13,0.0,0.09,0.15
0.25235795974731445,0.21,-0.01,0.13,0.24
0.2628819942474365,0.2,0.0,0.16,0.25
0.27231407165527344,0.14,0.01,0.14,0.19
0.2824440002441406,0.12,-0.01,0.12,0.17
0.29305195808410645,0.04,-0.01,0.1,0.1
0.33926916122436523,-0.02,-0.03,0.07,0.07
0.3395371437072754,-0.04,-0.04,0.08,0.09
0.3397860527038574,0.01,-0.04,0.12,0.12
0.3400411605834961,0.12,-0.03,0.12,0.17
0.3422708511352539,0.18,-0.03,0.13,0.22
0.3521609306335449,0.2,-0.03,0.08,0.21
0.3626670837402344,0.16,-0.02,0.02,0.16
0.37214088439941406,0.01,-0.03,-0.06,0.06
0.38219404220581055,-0.1,-0.06,-0.1,0.15
0.3929600715637207,-0.16,-0.05,-0.06,0.17
0.4392518997192383,-0.16,-0.01,-0.02,0.16
0.43952512741088867,-0.21,0.0,-0.03,0.21
0.43976593017578125,-0.21,-0.04,-0.02,0.21
0.4400038719177246,-0.21,-0.02,0.03,0.21
0.44193410873413086,-0.2,0.06,0.03,0.21
0.4520430564880371,-0.27,0.07,-0.15,0.31
0.46257591247558594,-0.22,0.04,-0.28,0.35
0.4720311164855957,-0.29,0.0,-0.26,0.38
0.48207712173461914,-0.25,-0.03,-0.12,0.27
0.49280691146850586,-0.2,-0.07,-0.06,0.22
0.5390050411224365,-0.13,-0.02,-0.11,0.17
0.539276123046875,-0.08,-0.03,-0.07,0.11
0.5395410060882568,-0.05,0.01,-0.05,0.07
0.5398030281066895,-0.01,-0.05,0.02,0.05
0.5418150424957275,-0.02,-0.03,0.04,0.05
0.5518331527709961,0.07,0.03,-0.01,0.07
0.5623798370361328,0.1,0.03,0.0,0.1
0.5718929767608643,0.03,0.03,-0.03,0.05
0.5819120407104492,0.03,-0.02,0.0,0.03
0.5926041603088379,0.1,0.0,0.02,0.1
0.63932204246521,0.14,0.02,-0.03,0.14
0.6395840644836426,0.11,-0.01,-0.1,0.14
0.6398429870605469,0.03,-0.03,-0.17,0.17
0.6401009559631348,-0.07,-0.05,-0.23,0.24
0.6417241096496582,-0.06,-0.05,-0.26,0.27
0.6517300605773926,0.0,-0.01,-0.17,0.17
0.662294864654541,0.02,0.1,-0.06,0.11
0.6717691421508789,-0.01,0.06,0.0,0.06
0.6818580627441406,-0.11,-0.05,0.01,0.12
0.6926178932189941,-0.15,-0.09,-0.01,0.17
0.7388238906860352,-0.14,-0.08,0.01,0.16
0.7390880584716797,-0.07,-0.03,0.05,0.09
0.739346981048584,-0.14,-0.04,0.06,0.15
0.7396068572998047,-0.39,-0.08,0.01,0.39
0.7415928840637207,-0.68,-0.08,-0.06,0.68
0.7522079944610596,-0.72,-0.11,-0.18,0.75
0.7620930671691895,-0.66,0.02,-0.34,0.74
0.771543025970459,-0.66,0.09,-0.38,0.76
0.7815351486206055,-0.63,0.04,-0.3,0.69
0.792384147644043,-0.49,-0.01,-0.24,0.54
0.8386268615722656,-0.22,0.02,-0.18,0.28
0.8388981819152832,0.09,0.09,-0.05,0.13
0.8391618728637695,0.28,0.04,0.1,0.3
0.8394250869750977,0.3,-0.04,0.24,0.38
0.8414850234985352,0.14,-0.09,0.31,0.35
0.8513689041137695,-0.04,-0.06,0.3,0.3
0.861936092376709,-0.15,0.06,0.27,0.31
0.8713679313659668,0.02,0.08,0.31,0.32
0.8814501762390137,0.35,-0.03,0.44,0.56
0.8922979831695557,0.69,-0.02,0.65,0.94
0.9393858909606934,0.88,-0.01,0.72,1.13
0.9396469593048096,0.92,0.06,0.56,1.07
0.939903974533081,0.9,0.07,0.4,0.98
0.9401588439941406,0.88,0.01,0.37,0.95
0.9413261413574219,0.84,-0.11,0.4,0.93
0.9511950016021729,0.74,-0.1,0.38,0.83
0.9618210792541504,0.53,-0.02,0.44,0.68
0.9712271690368652,0.27,-0.08,0.45,0.53
0.9812510013580322,0.08,-0.15,0.38,0.41
0.9919939041137695,0.05,-0.05,0.33,0.33
1.0389509201049805,0.11,0.0,0.34,0.35
1.0392060279846191,0.24,0.0,0.36,0.43
1.039473056793213,0.14,0.01,0.27,0.3
1.0397381782531738,-0.2,-0.08,0.11,0.24
1.0410020351409912,-0.47,-0.15,-0.1,0.5
1.0512890815734863,-0.51,-0.15,-0.12,0.54
1.061607837677002,-0.46,-0.19,-0.14,0.51
1.0710301399230957,-0.29,-0.18,-0.03,0.34
1.0810680389404297,-0.07,-0.09,0.16,0.19
1.0919389724731445,0.24,-0.01,0.25,0.34
1.1389079093933105,0.48,0.05,0.27,0.55
1.139173984527588,0.37,0.11,0.17,0.42
1.139435052871704,0.19,0.01,0.14,0.23
1.1396961212158203,0.25,-0.09,0.26,0.37
1.1409080028533936,0.49,-0.12,0.44,0.66
1.15118408203125,0.88,-0.14,0.59,1.06
1.1614370346069336,1.01,-0.19,0.59,1.18
1.1709609031677246,0.82,-0.12,0.47,0.95
1.181030035018921,0.64,0.02,0.35,0.72
1.1917839050292969,0.69,-0.02,0.37,0.78
1.238765001296997,0.7,-0.09,0.3,0.76
1.239037036895752,0.58,-0.08,0.2,0.61
1.2392969131469727,0.53,0.01,0.13,0.54
1.2395591735839844,0.56,0.04,0.09,0.56
1.2408490180969238,0.47,-0.03,0.17,0.5
1.2512290477752686,0.25,-0.12,0.25,0.37
1.2614400386810303,0.0,-0.22,0.19,0.29
1.2730669975280762,-0.32,-0.27,-0.05,0.42
1.2808499336242676,-0.57,-0.3,-0.17,0.66
1.291576862335205,-0.76,-0.19,-0.31,0.84
1.3008761405944824,-0.82,-0.04,-0.36,0.89
1.3386600017547607,-0.65,0.07,-0.35,0.74
1.3389220237731934,-0.45,0.11,-0.28,0.54
1.3391799926757812,-0.27,0.07,-0.14,0.31
1.3408620357513428,-0.03,0.09,-0.16,0.18
1.3507790565490723,0.15,0.05,-0.16,0.22
1.361292839050293,0.07,0.01,-0.21,0.22
1.3707971572875977,-0.1,-0.1,-0.23,0.27
1.3808341026306152,-0.23,-0.07,-0.29,0.37
1.3914661407470703,-0.12,-0.03,-0.28,0.3
1.400712013244629,0.08,-0.01,-0.18,0.19
1.4384231567382812,0.21,0.01,-0.07,0.22
1.4386920928955078,0.23,0.08,-0.08,0.25
1.4389548301696777,0.09,0.1,-0.17,0.21
1.4405360221862793,-0.03,0.07,-0.24,0.25
1.4504530429840088,-0.05,0.06,-0.17,0.18
1.4610629081726074,0.05,0.02,-0.06,0.08
1.4705190658569336,0.12,-0.03,-0.02,0.12
1.4805798530578613,0.3,-0.04,0.01,0.3
1.4914159774780273,0.32,-0.09,-0.06,0.33
1.500558853149414,0.08,-0.05,-0.24,0.25
1.5388479232788086,-0.15,-0.02,-0.3,0.33
1.5391230583190918,-0.29,0.01,-0.32,0.43
1.5393939018249512,-0.38,0.05,-0.3,0.48
1.5404160022735596,-0.36,0.08,-0.28,0.46
1.550325870513916,-0.36,0.01,-0.19,0.4
1.560934066772461,-0.31,-0.03,-0.1,0.32
1.570425033569336,-0.3,-0.05,-0.01,0.3
1.580368995666504,-0.28,-0.05,0.01,0.28
1.5911879539489746,-0.23,-0.03,0.05,0.23
1.6005549430847168,-0.16,-0.03,0.03,0.16
1.638890027999878,-0.06,0.0,-0.04,0.07
1.6391539573669434,-0.04,0.04,-0.18,0.18
1.6394150257110596,-0.11,0.0,-0.28,0.3
1.6402430534362793,-0.23,-0.07,-0.3,0.38
1.6502370834350586,-0.31,-0.08,-0.28,0.42
1.6608250141143799,-0.21,-0.02,-0.16,0.26
1.6702079772949219,0.01,0.03,-0.01,0.03
1.680215835571289,0.19,0.02,0.07,0.2
1.691093921661377,0.24,0.04,0.07,0.25
1.7004339694976807,0.21,0.12,-0.08,0.25
1.7392559051513672,0.08,0.06,-0.24,0.26
1.7395219802856445,-0.17,0.01,-0.3,0.34
1.7399301528930664,-0.16,0.0,-0.26,0.3
1.7401859760284424,-0.08,0.03,-0.18,0.19
1.7501139640808105,-0.06,0.01,-0.1,0.11
1.7607131004333496,-0.11,-0.05,-0.06,0.13
1.770164966583252,-0.2,-0.06,-0.02,0.2
1.7801649570465088,-0.25,-0.07,0.03,0.26
1.7908611297607422,-0.16,-0.05,0.12,0.2
1.8001608848571777,-0.01,-0.03,0.17,0.17
1.8384130001068115,0.05,0.0,0.1,0.11
1.8386778831481934,0.01,-0.04,0.0,0.04
1.8389389514923096,-0.04,-0.03,-0.15,0.15
1.8399391174316406,-0.08,0.02,-0.27,0.28
1.8498921394348145,-0.16,0.05,-0.3,0.34
1.8605539798736572,-0.14,0.04,-0.21,0.25
1.8700380325317383,0.0,0.02,-0.05,0.05
1.8799660205841064,0.14,0.0,0.05,0.14
1.8905930519104004,0.21,0.01,0.09,0.22
1.9000511169433594,0.13,0.0,0.04,0.13
1.9381251335144043,0.0,-0.01,-0.06,0.06
1.9383890628814697,0.05,0.01,-0.14,0.14
1.9386310577392578,0.21,0.01,-0.12,0.24
1.939810037612915,0.19,0.04,-0.13,0.23
1.9499311447143555,0.09,0.05,-0.15,0.18
1.960340976715088,0.02,0.02,-0.09,0.09
1.9698171615600586,0.0,0.05,-0.03,0.05
1.9798798561096191,-0.1,-0.02,-0.01,0.1
1.9906220436096191,-0.2,-0.05,0.0,0.2
1.9999260902404785,-0.15,-0.03,0.05,0.16
2.0384750366210938,-0.07,-0.04,0.07,0.1
2.0387449264526367,-0.11,-0.03,0.08,0.13
2.039030075073242,-0.1,0.02,0.03,0.1
2.039592981338501,0.03,0.0,0.06,0.06
2.049623966217041,0.08,-0.02,0.07,0.1
2.0602078437805176,0.08,0.0,0.02,0.08
2.0696539878845215,0.1,0.01,-0.07,0.12
2.079694986343384,0.03,-0.02,-0.14,0.14
2.090419054031372,-0.02,-0.02,-0.15,0.15
2.0997838973999023,0.05,0.02,-0.1,0.11
2.1378440856933594,0.1,0.04,-0.02,0.1
2.1381101608276367,0.02,0.03,-0.01,0.03
2.1383450031280518,0.0,0.03,0.0,0.03
2.1394848823547363,0.02,-0.02,0.02,0.03
2.1494410037994385,-0.08,-0.02,0.01,0.08
2.160161018371582,-0.06,0.02,0.01,0.06
2.169512987136841,0.05,0.05,0.06,0.09
2.1795830726623535,0.32,0.14,0.03,0.35
2.190397024154663,0.65,0.08,0.0,0.65
2.1995668411254883,0.6,-0.01,0.0,0.6
2.2377140522003174,0.39,0.0,-0.02,0.39
2.2379860877990723,0.17,0.11,-0.07,0.21
2.2382500171661377,0.18,0.17,-0.24,0.34
2.2393641471862793,0.26,0.08,-0.25,0.36
2.2493438720703125,0.11,-0.07,-0.23,0.26
2.259974956512451,-0.13,-0.1,-0.2,0.25
2.269296169281006,-0.53,-0.1,-0.17,0.56
2.279438018798828,-0.73,-0.12,0.0,0.73
2.2901291847229004,-0.66,-0.12,0.13,0.68
2.2994308471679688,-0.59,-0.08,0.22,0.63
2.3382930755615234,-0.45,-0.07,0.26,0.52
2.33858585357666,-0.14,-0.09,0.25,0.3
2.339028835296631,0.04,-0.08,0.22,0.23
2.339293956756592,-0.01,-0.06,0.09,0.1
2.34920597076416,0.01,-0.07,-0.05,0.08
2.359778881072998,0.04,-0.03,-0.19,0.19
2.369227886199951,-0.05,0.01,-0.28,0.28
2.37921404838562,-0.16,0.02,-0.23,0.28
2.3899168968200684,-0.13,0.03,-0.13,0.18
2.3992228507995605,-0.06,0.0,0.07,0.09
2.4388861656188965,-0.04,-0.04,0.23,0.23
2.4391510486602783,-0.03,-0.03,0.32,0.32
2.43939208984375,-0.01,-0.03,0.29,0.29
2.4396350383758545,0.01,-0.03,0.21,0.21
2.4490649700164795,0.2,0.02,0.26,0.32
2.4596691131591797,0.45,-0.01,0.24,0.51
2.4693541526794434,0.54,0.01,0.16,0.56
2.4791150093078613,0.53,0.04,0.06,0.53
2.489717960357666,0.51,-0.02,0.06,0.51
2.4990758895874023,0.32,0.03,0.0,0.32
2.5382418632507324,0.12,0.05,-0.01,0.13
2.5386910438537598,0.1,0.0,0.0,0.1
2.538939952850342,0.09,0.0,0.04,0.09
2.5391998291015625,0.08,0.02,0.13,0.15
2.5488970279693604,0.12,-0.01,0.2,0.23
2.5595130920410156,0.16,-0.02,0.25,0.29
2.569079875946045,0.16,0.01,0.23,0.28
2.578969955444336,0.24,-0.04,0.21,0.32
2.5896060466766357,0.35,-0.04,0.16,0.38
2.599104881286621,0.3,-0.05,0.04,0.3
2.6382079124450684,0.2,-0.01,-0.07,0.21
2.6386618614196777,0.19,0.03,-0.03,0.19
2.638923168182373,0.23,0.07,0.01,0.24
2.6391758918762207,0.24,0.04,-0.01,0.24
2.6487009525299072,0.15,0.04,-0.04,0.16
2.6593451499938965,0.06,0.01,-0.04,0.07
2.6691980361938477,-0.06,0.0,-0.1,0.11
2.6787848472595215,-0.14,0.0,-0.05,0.14
2.6895360946655273,-0.1,0.0,0.02,0.1
2.698935031890869,-0.11,0.0,0.05,0.12
2.7385380268096924,-0.16,-0.02,0.03,0.16
2.738800048828125,-0.1,0.02,0.0,0.1
2.739058017730713,0.05,0.04,0.03,0.07
2.739314079284668,0.09,0.01,-0.05,0.1
2.7487521171569824,0.02,0.0,-0.16,0.16
2.7591729164123535,0.08,0.0,-0.12,0.14
2.768622875213623,0.1,0.02,-0.05,0.11
2.77864408493042,0.13,0.02,0.03,0.13
2.7892940044403076,0.19,0.01,0.09,0.21
2.798586845397949,0.11,0.0,-0.02,0.11
2.838304042816162,-0.04,-0.02,-0.1,0.1
2.838564872741699,-0.09,0.0,-0.07,0.11
2.8388171195983887,-0.08,0.06,-0.05,0.11
2.8390731811523438,0.0,0.04,-0.02,0.04
2.8484058380126953,0.05,0.03,0.0,0.05
2.858975887298584,0.09,0.03,0.0,0.09
2.868443012237549,0.15,0.01,0.01,0.15
2.87850284576416,0.14,0.0,0.0,0.14
2.8890581130981445,0.16,-0.05,0.04,0.17
2.8985400199890137,0.06,-0.04,0.0,0.07
2.937520980834961,0.04,-0.03,-0.02,0.05
2.937786102294922,0.02,-0.06,-0.01,0.06
2.9382028579711914,-0.08,-0.03,0.02,0.08
2.9384589195251465,-0.12,-0.04,0.09,0.15
2.948267936706543,-0.15,0.0,0.09,0.17
2.958832025527954,-0.12,0.02,0.11,0.16
2.9682559967041016,0.0,0.04,0.14,0.14
2.978292942047119,0.07,0.03,0.1,0.12
2.9888439178466797,0.08,0.02,-0.07,0.1
2.998289108276367,0.11,0.01,-0.18,0.21
3.0380101203918457,0.12,0.02,-0.25,0.27
3.0382628440856934,0.18,0.06,-0.25,0.31
3.0385069847106934,0.19,0.06,-0.15,0.24
3.0387649536132812,0.15,-0.03,-0.04,0.15
3.0481369495391846,0.01,-0.08,0.01,0.08
3.058696985244751,-0.08,-0.02,0.07,0.1
3.0681209564208984,-0.12,-0.03,0.09,0.15
3.0780811309814453,-0.17,-0.05,0.02,0.17
3.088775157928467,-0.22,0.02,0.02,0.22
3.0981369018554688,-0.15,0.01,0.04,0.15
3.1372129917144775,-0.11,0.0,-0.02,0.11
3.1374940872192383,-0.08,-0.04,-0.07,0.11
3.1379170417785645,-0.07,-0.04,-0.15,0.17
3.1381800174713135,-0.14,0.0,-0.18,0.22
3.148000955581665,-0.07,0.02,-0.14,0.15
3.1586220264434814,0.07,0.0,-0.02,0.07
3.168087959289551,0.03,0.08,-0.04,0.09
3.178117036819458,0.27,0.1,-0.03,0.28
3.188735008239746,0.43,0.04,-0.03,0.43
3.198276996612549,0.24,0.07,-0.05,0.25
3.2382149696350098,0.13,0.13,-0.17,0.25
3.238478183746338,0.21,0.22,-0.28,0.41
3.238736152648926,0.44,0.25,-0.41,0.65
3.2389931678771973,0.52,0.13,-0.45,0.69
3.247864007949829,0.27,0.02,-0.46,0.53
3.2584609985351562,0.02,0.01,-0.37,0.37
3.2679080963134766,-0.12,0.01,-0.21,0.24
3.277906894683838,-0.16,0.06,-0.02,0.17
3.2885241508483887,-0.08,0.21,0.1,0.24
3.2980451583862305,0.06,0.3,-0.07,0.31
3.3376388549804688,0.12,0.32,-0.33,0.47
3.3379080295562744,-0.12,0.08,-0.52,0.53
3.3381760120391846,-0.32,-0.17,-0.74,0.82
3.33843994140625,-0.58,-0.27,-0.8,1.02
3.347707986831665,-0.95,-0.27,-0.74,1.23
3.3584089279174805,-1.12,-0.1,-0.65,1.29
3.3677639961242676,-0.87,0.14,-0.51,1.01
3.3777990341186523,-0.67,0.2,-0.52,0.87
3.3884639739990234,-0.64,0.16,-0.56,0.86
3.3977389335632324,-0.53,-0.05,-0.36,0.64
3.437824010848999,-0.45,-0.28,-0.05,0.53
3.4380979537963867,-0.41,-0.34,0.03,0.53
3.438380002975464,-0.33,-0.28,-0.06,0.43
3.438645839691162,-0.35,-0.25,-0.14,0.45
3.447622060775757,-0.61,-0.26,-0.08,0.66
3.458148956298828,-0.68,-0.22,-0.06,0.71
3.4675400257110596,-0.47,-0.15,-0.06,0.49
3.477640151977539,-0.06,-0.04,-0.03,0.07
3.488278865814209,0.27,-0.03,0.02,0.27
3.4976439476013184,0.57,-0.04,-0.04,0.57
3.538274049758911,0.89,-0.01,0.04,0.89
3.538538932800293,1.24,0.07,0.18,1.25
3.5388009548187256,1.46,0.12,0.44,1.52
3.5390658378601074,1.59,-0.12,0.55,1.68
3.5474460124969482,1.15,-0.17,0.54,1.28
3.5580339431762695,0.66,-0.04,0.39,0.76
3.5674829483032227,0.49,0.01,0.32,0.58
3.5774950981140137,0.42,-0.01,0.45,0.61
3.5880930423736572,0.44,-0.07,0.38,0.58
3.597443103790283,0.55,0.04,0.23,0.59
3.63834810256958,0.66,0.15,0.26,0.72
3.6386170387268066,0.55,0.16,0.21,0.61
3.6388778686523438,0.58,0.06,0.12,0.59
3.6391329765319824,0.47,0.15,0.05,0.49
3.6474130153656006,0.34,0.26,0.11,0.44
3.657881021499634,0.25,0.1,0.04,0.27
3.667412042617798,0.3,-0.12,-0.11,0.34
3.6774001121520996,0.34,-0.19,0.14,0.41
3.6879119873046875,0.19,-0.2,0.53,0.59
3.6973559856414795,0.03,-0.21,0.76,0.78
3.737467050552368,-0.15,-0.11,1.07,1.08
3.737729072570801,-0.06,-0.03,1.14,1.14
3.7379708290100098,0.21,-0.03,1.21,1.22
3.738226890563965,0.37,-0.13,1.24,1.3
3.747081995010376,0.44,-0.17,1.02,1.12
3.7576489448547363,0.37,-0.26,0.77,0.89
3.7671189308166504,0.31,-0.45,0.61,0.81
3.7772269248962402,0.15,-0.44,0.4,0.61
3.7877368927001953,-0.12,-0.38,0.29,0.49
3.7971880435943604,-0.37,-0.31,0.09,0.49
3.8380541801452637,-0.42,-0.15,-0.02,0.44
3.838325023651123,-0.37,-0.26,0.07,0.45
3.8385848999023438,-0.33,-0.23,0.1,0.41
3.8388450145721436,-0.43,0.1,-0.04,0.44
3.847043037414551,-0.6,0.09,-0.06,0.6
3.857593059539795,-0.73,-0.15,0.14,0.75
3.8670859336853027,-0.68,-0.26,0.28,0.78
3.8770551681518555,-0.47,-0.25,0.51,0.73
3.887843132019043,-0.27,0.18,0.26,0.41
3.8970508575439453,-0.06,0.1,0.12,0.16
3.937811851501465,0.02,-0.28,-0.03,0.28
3.938075065612793,0.14,-0.52,0.14,0.55
3.938343048095703,-0.15,-0.37,0.23,0.46
3.938601016998291,-0.82,0.01,-0.11,0.82
3.946859836578369,-0.97,0.02,-0.07,0.97
3.9575071334838867,-1.75,-0.38,-0.27,1.81
3.9670228958129883,-3.18,-0.62,-1.43,3.54
3.9768259525299072,-3.26,-0.12,-1.14,3.45
4.019917964935303,-2.23,0.4,-0.27,2.28
4.020182132720947,-0.41,0.29,0.36,0.61
4.020447015762329,0.31,-0.11,0.53,0.62
4.02072811126709,0.43,0.02,0.19,0.47
4.027098178863525,0.54,0.27,-0.42,0.73
4.037117958068848,0.56,0.29,-1.02,1.19
4.0467870235443115,0.39,0.21,-1.2,1.27
4.057399034500122,0.36,0.21,-1.04,1.12
4.066890001296997,0.47,0.17,-0.87,1.0
4.076810836791992,0.53,0.03,-0.4,0.66
4.1218249797821045,0.35,0.05,-0.18,0.39
4.122073173522949,0.35,0.12,0.05,0.37
4.12233304977417,0.57,0.23,0.29,0.67
4.122588157653809,0.74,0.35,0.18,0.83
4.126564979553223,0.89,0.52,-0.25,1.06
4.136957168579102,1.25,0.42,-0.29,1.35
4.146608829498291,1.37,0.18,0.04,1.38
4.1572980880737305,1.36,0.07,-0.03,1.36
4.166733026504517,1.2,-0.09,-0.04,1.2
4.176630973815918,0.83,-0.12,0.04,0.83
4.2210259437561035,0.81,-0.06,0.33,0.87
4.221289157867432,0.91,-0.05,0.58,1.08
4.221546173095703,0.78,-0.06,0.38,0.86
4.2218029499053955,0.41,-0.12,0.21,0.47
4.226440906524658,0.22,-0.08,0.11,0.25
4.236435890197754,0.3,-0.01,0.21,0.36
4.2464141845703125,0.38,-0.03,0.3,0.48
4.256999969482422,0.21,-0.03,0.01,0.21
4.2664408683776855,0.08,0.0,-0.02,0.08
4.276448965072632,0.02,-0.01,0.04,0.04
4.321250915527344,-0.08,-0.04,-0.02,0.09
4.321539878845215,0.07,0.05,0.24,0.25
4.321799039840698,0.52,0.12,0.5,0.73
4.322059154510498,0.57,0.11,0.43,0.72
4.326259136199951,0.42,0.06,0.53,0.67
4.3362720012664795,0.29,-0.06,0.43,0.52
4.346202850341797,0.09,-0.06,0.38,0.39
4.356806039810181,-0.11,-0.11,0.1,0.18
4.366245985031128,-0.34,-0.13,-0.06,0.36
4.376374006271362,-0.34,-0.07,-0.09,0.35
4.42058801651001,-0.26,-0.02,-0.24,0.35
4.420866012573242,-0.04,0.02,-0.05,0.06
4.421128034591675,0.12,0.05,0.14,0.19
4.421389102935791,0.22,0.07,0.34,0.41
4.426156997680664,0.47,0.11,0.53,0.71
4.436307907104492,0.84,0.1,0.62,1.04
4.4461541175842285,1.16,0.08,0.69,1.35
4.456780910491943,1.55,0.06,0.91,1.79
4.466179847717285,1.77,0.04,1.09,2.07
4.476171970367432,2.22,0.11,1.19,2.52
4.521503925323486,2.55,0.15,1.17,2.8
4.5217719078063965,2.48,0.32,1.39,2.86
4.522032976150513,2.33,0.44,1.21,2.66
4.522275924682617,2.04,0.44,1.16,2.38
4.526029109954834,1.81,0.47,1.34,2.3
4.536002159118652,1.87,0.75,1.16,2.32
4.5460920333862305,2.12,1.17,1.09,2.65
4.5566229820251465,2.33,1.64,1.21,3.09
4.566050052642822,2.27,3.26,1.08,4.11
4.576079845428467,3.72,6.54,0.71,7.55
4.586842060089111,5.96,6.82,2.57,9.41
4.62128210067749,3.57,6.19,4.54,8.46
4.621556043624878,3.31,6.55,4.58,8.65
4.621819019317627,3.57,7.59,5.23,9.88
4.6258790493011475,3.39,8.28,5.3,10.39
4.635876178741455,3.93,9.24,5.09,11.25
4.645814895629883,4.58,9.5,4.45,11.44
4.656529903411865,4.78,10.01,2.79,11.43
4.66591215133667,5.16,9.97,2.56,11.51
4.675915002822876,6.46,9.52,2.46,11.76
4.686758995056152,4.58,7.99,0.65,9.23
4.7206621170043945,2.34,7.26,0.43,7.63
4.720927000045776,1.49,6.78,-0.48,6.95
4.721215009689331,1.81,8.13,-1.76,8.51
4.72567892074585,1.53,7.64,0.63,7.81
4.735692977905273,1.94,4.99,2.21,5.79
4.745821952819824,-0.04,2.53,0.74,2.63
4.756341934204102,-5.86,2.84,-5.41,8.46
4.765655040740967,-1.36,5.79,-3.58,6.94
4.775753974914551,4.27,4.33,1.17,6.19
4.786591053009033,7.02,2.04,3.36,8.04
4.82185697555542,5.81,0.33,3.72,6.9
4.822123050689697,3.79,-0.74,2.63,4.67
4.822386980056763,2.58,-1.21,1.89,3.41
4.825624942779541,1.28,-1.24,1.96,2.64
4.835504055023193,0.26,-1.18,2.1,2.42
4.845600128173828,-0.34,-1.41,2.14,2.58
4.856205940246582,-0.61,-1.73,2.13,2.81
4.865602016448975,-0.71,-2.03,2.24,3.1
4.875702857971191,-0.64,-2.43,2.2,3.33
4.886494159698486,-0.08,-2.88,2.27,3.66
4.921468019485474,0.62,-3.25,2.22,3.98
4.921739101409912,1.09,-3.64,2.06,4.32
4.922001838684082,1.14,-4.19,1.92,4.74
4.925420045852661,1.02,-4.85,1.93,5.31
4.935322999954224,0.81,-5.55,1.9,5.92
4.945459842681885,0.67,-6.22,1.97,6.55
4.956058979034424,0.7,-6.78,2.11,7.13
4.965502977371216,0.75,-7.13,2.02,7.44
4.97551703453064,0.8,-7.24,1.96,7.54
4.9861931800842285,0.43,-7.19,1.58,7.37
5.021661043167114,-0.5,-6.66,0.66,6.71
5.02192497253418,-1.96,-6.09,-0.77,6.44
5.022182941436768,-3.57,-5.73,-2.64,7.24
5.0253050327301025,-4.99,-5.18,-4.87,8.68
5.035227060317993,-6.0,-4.69,-6.17,9.8
5.045359134674072,-6.69,-4.23,-6.49,10.23
5.055791854858398,-6.57,-3.63,-6.35,9.83
5.065307140350342,-5.92,-3.07,-6.21,9.11
5.075257062911987,-5.7,-2.43,-6.34,8.86
5.086091041564941,-5.78,-1.89,-6.38,8.81
5.1219048500061035,-5.5,-1.65,-6.07,8.35
5.1221699714660645,-4.9,-2.05,-5.89,7.93
5.122434139251709,-4.98,-2.51,-6.07,8.24
5.125211954116821,-5.81,-2.36,-6.33,8.91
5.13525915145874,-6.42,-2.86,-6.38,9.49
5.145305156707764,-7.04,-3.61,-6.29,10.1
5.155585050582886,-7.51,-3.72,-6.27,10.46
5.165511131286621,-8.66,1.56,-7.42,11.51
5.175188064575195,-2.01,6.41,-3.53,7.58
5.185862064361572,20.49,11.52,17.46,29.28
5.221657991409302,29.31,28.98,23.09,47.24
5.22192907333374,2.23,22.65,-18.08,29.06
5.222188949584961,-4.87,1.3,-10.87,11.98
5.224984169006348,-12.25,-7.03,2.82,14.4
5.234953880310059,-14.65,-6.17,-1.71,15.98
5.244985103607178,-10.64,-1.05,-2.04,10.88
5.255495071411133,-9.91,-1.67,-5.59,11.49
5.265022039413452,-6.67,0.24,-5.54,8.67
5.275240898132324,-2.56,0.77,-2.81,3.87
5.285780906677246,1.48,0.27,-2.84,3.21
5.321665048599243,4.16,1.01,-1.92,4.69
5.321937084197998,3.38,1.18,-0.71,3.64
5.322203159332275,0.06,0.74,-0.53,0.91
5.324880123138428,-2.18,-0.09,-1.61,2.71
5.334796905517578,-2.32,-0.17,-1.91,3.0
5.344866991043091,-1.54,0.19,-0.98,1.83
5.355588912963867,-0.93,0.04,-0.5,1.05
5.364853858947754,-0.98,-0.18,-0.61,1.16
5.3749098777771,-0.88,-0.22,-0.43,1.0
5.385707855224609,-0.14,-0.15,-0.37,0.42
5.42175817489624,0.77,0.03,-0.5,0.91
5.422023057937622,0.95,0.14,-0.41,1.04
5.422285079956055,0.4,0.07,-0.09,0.41
5.42474889755249,-0.19,-0.05,0.13,0.23
5.43477201461792,-0.38,-0.08,0.44,0.58
5.444602966308594,-0.3,0.04,0.49,0.57
5.455621957778931,0.31,0.14,0.42,0.54
5.46471905708313,1.06,0.15,0.34,1.12
5.4747350215911865,1.38,0.07,0.39,1.43
5.4854888916015625,1.54,-0.05,0.62,1.66
5.521932125091553,1.84,0.01,1.06,2.12
5.522200107574463,1.98,0.25,1.17,2.31
5.522462844848633,1.7,0.31,0.99,1.99
5.524508953094482,1.04,0.16,0.84,1.34
5.534520149230957,0.34,0.05,0.72,0.79
5.544510841369629,-0.1,-0.08,0.87,0.87
5.555408954620361,0.06,-0.2,1.05,1.07
5.564576148986816,0.69,-0.25,0.99,1.23
5.574563980102539,1.33,-0.14,0.79,1.55
5.5852789878845215,1.36,0.13,0.32,1.4
5.62186598777771,0.9,0.32,-0.19,0.97
5.622129917144775,0.34,0.39,-0.3,0.59
5.622392177581787,-0.05,0.35,-0.02,0.35
5.624475955963135,0.04,0.26,0.42,0.49
5.634407997131348,0.22,0.15,0.73,0.77
5.6443891525268555,0.41,0.05,0.96,1.04
5.655379056930542,0.78,-0.06,1.16,1.39
5.664504051208496,0.91,0.07,1.12,1.44
5.676517009735107,0.92,0.46,0.76,1.27
5.685112953186035,1.18,0.9,1.03,1.8
5.722084045410156,1.51,1.28,1.8,2.67
5.722344875335693,2.18,1.43,1.78,3.15
5.722600936889648,2.16,2.02,1.6,3.36
5.724212169647217,1.91,2.21,1.64,3.34
5.734205961227417,1.88,2.37,1.58,3.41
5.744259834289551,2.01,2.38,1.75,3.57
5.755290985107422,2.13,2.56,1.92,3.84
5.764214038848877,2.4,2.87,2.49,4.49
5.774328947067261,2.56,3.51,3.13,5.35
5.785030841827393,2.73,5.7,2.97,6.98
5.822878837585449,4.69,8.53,3.31,10.28
5.8231401443481445,6.66,9.49,5.39,12.78
5.823407173156738,6.56,9.85,6.02,13.27
5.824049949645996,6.2,10.61,6.81,14.04
5.8340489864349365,6.34,11.13,8.36,15.29
5.844071865081787,6.25,10.98,7.65,14.76
5.855155944824219,5.71,10.4,5.19,12.94
5.864130020141602,5.72,9.81,2.84,11.7
5.874105930328369,5.49,9.61,-0.45,11.07
5.8849310874938965,3.27,10.89,-2.52,11.64
5.921947002410889,-1.83,12.88,-3.05,13.36
5.9222211837768555,-2.76,11.39,-2.98,12.09
5.922484874725342,1.28,6.05,0.2,6.18
5.923923015594482,1.38,3.61,2.48,4.59
5.933922052383423,-4.24,2.03,-4.35,6.4
5.944090843200684,-4.35,4.95,-6.08,8.96
5.954937934875488,1.3,5.08,0.56,5.27
5.964053153991699,4.94,2.32,2.59,6.04
5.974009037017822,5.68,0.63,2.61,6.28
5.984756946563721,4.18,-0.81,2.22,4.8
6.022162914276123,3.27,-1.88,1.68,4.12
6.022426128387451,3.14,-2.49,1.56,4.3
6.022684097290039,3.35,-2.56,1.67,4.53
6.023884057998657,3.4,-2.58,1.58,4.55
6.033864974975586,2.89,-2.97,1.54,4.42
6.043799877166748,2.03,-3.36,1.43,4.17
6.054455041885376,1.45,-3.51,1.35,4.03
6.063963890075684,1.39,-3.49,1.37,3.99
6.073882102966309,1.72,-3.43,1.53,4.13
6.084545135498047,2.2,-3.56,1.77,4.54
6.1222310066223145,2.82,-3.78,2.06,5.14
6.122496128082275,3.23,-4.13,2.18,5.67
6.12275505065918,3.07,-4.44,2.15,5.81
6.123666048049927,2.44,-4.83,1.83,5.71
6.1335601806640625,1.72,-5.44,1.66,5.94
6.143656015396118,1.3,-6.02,1.43,6.32
6.1543190479278564,1.03,-6.42,1.45,6.66
6.163669109344482,0.92,-6.77,1.51,6.99
6.173786163330078,0.76,-7.1,1.73,7.34
6.1843390464782715,0.35,-6.89,1.83,7.13
6.222892999649048,-0.12,-6.5,1.3,6.62
6.223356008529663,-1.13,-6.15,-0.01,6.25
6.223621845245361,-2.87,-5.54,-2.12,6.58
6.223884105682373,-4.43,-4.96,-3.92,7.71
6.234228134155273,-6.06,-4.32,-5.15,9.05
6.243528842926025,-7.06,-3.39,-5.95,9.83
6.254096984863281,-6.95,-2.22,-6.59,9.83
6.2635698318481445,-6.68,-0.92,-7.13,9.81
6.2736430168151855,-6.98,0.31,-7.87,10.52
6.285887002944946,-7.58,1.3,-8.76,11.65
6.322767019271851,-7.91,1.5,-9.05,12.11
6.323217868804932,-8.0,1.05,-8.52,11.73
6.323477029800415,-8.23,0.74,-8.36,11.75
6.323731899261475,-8.6,0.47,-9.0,12.45
6.333323001861572,-8.04,-0.28,-8.62,11.79
6.343409061431885,-7.09,-1.42,-7.37,10.32
6.353896141052246,-6.51,-1.0,-6.56,9.29
6.363390922546387,-5.42,5.63,-6.11,9.91
6.373457908630371,2.96,1.38,-3.35,4.67
6.384214878082275,12.69,7.19,9.3,17.29
6.422644138336182,26.41,16.32,26.96,41.11
6.423097133636475,13.53,14.55,-0.3,19.87
6.423375129699707,-1.75,7.24,-10.38,12.77
6.423635005950928,-8.77,-1.24,-0.63,8.87
6.433154106140137,-13.69,-3.44,-2.65,14.36
6.443202018737793,-14.83,-1.52,-0.49,14.91
6.453834056854248,-10.74,-1.26,-3.09,11.24
6.463268995285034,-6.62,-0.68,-6.4,9.23
6.4732561111450195,-3.81,0.52,-5.36,6.59
6.48398494720459,-2.48,0.37,-4.39,5.05
6.523116111755371,-0.31,0.31,-3.71,3.73
6.523390054702759,1.21,0.55,-3.09,3.36
6.523648977279663,0.18,0.89,-2.57,2.72
6.5238938331604,-1.21,0.89,-2.26,2.71
6.533066987991333,-1.66,0.59,-2.22,2.83
6.544098854064941,-1.45,0.25,-1.46,2.07
6.55368709564209,-1.26,-0.05,-0.21,1.27
6.56309700012207,-0.88,-0.23,0.96,1.32
6.572993993759155,-0.05,-0.1,0.92,0.92
6.583824157714844,0.99,-0.03,0.0,0.99
6.624076843261719,1.23,-0.04,-0.59,1.36
6.624352931976318,0.9,-0.09,-0.47,1.01
6.624617099761963,0.64,-0.16,-0.14,0.67
6.624876022338867,0.27,-0.15,0.18,0.35
6.6329851150512695,-0.06,-0.06,0.33,0.34
6.642937183380127,-0.04,0.04,0.29,0.29
6.6535069942474365,0.14,0.09,0.3,0.34
6.662947177886963,0.52,0.08,0.56,0.76
6.672836065292358,0.95,0.02,0.89,1.3
6.683632850646973,1.39,0.02,1.18,1.82
6.722980976104736,1.82,0.1,1.37,2.28
6.723252058029175,1.89,0.12,1.22,2.25
6.723514080047607,1.31,0.1,0.78,1.52
6.7237770557403564,0.58,-0.01,0.64,0.86
6.7327189445495605,0.4,-0.25,0.96,1.06
6.742748975753784,0.62,-0.47,1.22,1.44
6.753368854522705,0.93,-0.51,0.95,1.42
6.763948917388916,1.19,-0.23,0.44,1.28
6.7726731300354,1.28,0.13,0.38,1.34
6.7835869789123535,1.11,0.34,0.44,1.24
6.823920011520386,0.89,0.31,0.54,1.08
6.824181079864502,0.97,0.06,1.03,1.41
6.824422836303711,1.43,-0.05,1.03,1.76
6.824679851531982,1.66,-0.15,1.18,2.04
6.832679033279419,1.64,-0.07,1.42,2.17
6.842655181884766,1.61,0.22,1.26,2.05
6.853216171264648,1.62,0.61,1.11,2.05
6.8627028465271,1.52,1.11,0.84,2.06
6.872632026672363,1.13,1.55,0.8,2.07
6.883373975753784,0.99,1.69,0.6,2.04
6.92322301864624,1.12,2.21,0.65,2.56
6.92349100112915,1.58,2.71,1.15,3.34
6.923748016357422,1.34,2.81,2.02,3.71
6.924008846282959,1.85,2.93,2.31,4.16
6.932424068450928,2.16,3.1,2.76,4.67
6.942528009414673,2.32,3.34,3.19,5.16
6.953132152557373,2.67,4.49,3.13,6.08
6.962529182434082,3.54,6.45,2.81,7.87
6.972738027572632,4.84,7.79,3.84,9.94
6.983307838439941,5.08,8.4,5.64,11.32
7.023190975189209,5.58,9.34,6.6,12.72
7.023452043533325,6.8,10.39,7.11,14.3
7.023710012435913,6.94,10.66,6.91,14.47
7.023967027664185,5.99,10.29,6.01,13.33
7.0323638916015625,4.67,9.83,4.95,11.95
7.04234504699707,3.39,9.1,1.98,9.91
7.052986145019531,1.79,8.71,-2.39,9.2
7.06237006187439,0.17,10.38,-5.33,11.66
7.072581052780151,-1.38,13.2,-4.5,14.01
7.08310604095459,-1.81,11.37,-1.4,11.59
7.122575998306274,-0.25,5.62,0.23,5.63
7.122837066650391,1.25,2.37,1.54,3.09
7.123097896575928,-3.57,0.51,-1.71,3.99
7.12336802482605,-5.01,2.57,-6.66,8.72
7.1321680545806885,0.98,4.77,-0.16,4.87
7.142356872558594,5.45,2.63,3.52,7.0
7.152851104736328,7.06,0.37,3.83,8.04
7.162209987640381,5.29,-1.15,3.65,6.52
7.172181129455566,3.87,-2.03,3.02,5.31
7.183068037033081,3.18,-2.59,2.84,4.98
7.222902059555054,2.66,-2.65,2.66,4.6
7.223165988922119,2.06,-2.41,2.54,4.06
7.223428010940552,1.33,-2.45,2.33,3.63
7.223687171936035,0.75,-2.64,1.82,3.29
7.232018947601318,0.48,-2.78,1.67,3.27
7.241968154907227,0.74,-2.78,1.67,3.32
7.252781867980957,1.19,-2.66,1.38,3.22
7.262096881866455,1.49,-2.73,1.26,3.35
7.272143840789795,1.71,-3.04,1.17,3.67
7.282870054244995,1.86,-3.41,0.88,3.98
7.323459148406982,1.98,-3.95,0.83,4.49
7.323724031448364,1.94,-4.63,1.0,5.11
7.3239829540252686,1.75,-5.39,1.09,5.77
7.32423996925354,1.24,-6.07,0.85,6.25
7.331921100616455,0.75,-6.68,0.8,6.76
7.34183406829834,0.63,-7.15,1.06,7.25
7.354053974151611,0.53,-7.21,0.96,7.29
7.361976146697998,0.29,-7.05,0.56,7.07
7.371883869171143,-0.17,-6.98,0.21,6.98
7.382758140563965,-0.99,-6.6,-0.46,6.68
7.422347068786621,-1.83,-6.08,-1.28,6.47
7.4226109981536865,-2.6,-5.36,-2.41,6.42
7.422872066497803,-3.46,-4.38,-3.74,6.71
7.423131942749023,-4.61,-3.2,-5.18,7.63
7.431751012802124,-5.73,-2.35,-6.1,8.69
7.441780090332031,-6.52,-1.78,-6.14,9.13
7.452324867248535,-7.22,-0.96,-6.22,9.57
7.461770057678223,-8.14,0.3,-7.0,10.74
7.4719390869140625,-9.03,1.59,-8.03,12.18
7.482508182525635,-9.11,1.74,-7.7,12.05
7.5234739780426025,-8.57,0.7,-6.52,10.79
7.523737907409668,-7.94,0.02,-5.97,9.93
7.523998975753784,-7.67,-0.19,-6.08,9.78
7.524259090423584,-7.61,-0.27,-6.4,9.94
7.531577110290527,-7.54,-0.05,-6.73,10.1
7.541661024093628,-5.54,5.09,-6.63,10.02
7.552180051803589,1.14,0.4,-4.36,4.52
7.561604022979736,6.28,5.54,1.03,8.43
7.572011947631836,27.15,18.01,24.76,40.92
7.582288980484009,22.92,20.69,7.88,31.86
7.617074012756348,-0.03,12.36,-13.48,18.28
7.617341041564941,-8.6,-1.3,-7.84,11.7
7.617611885070801,-16.2,-6.19,0.99,17.37
7.621587038040161,-18.04,-3.96,6.12,19.45
7.631606101989746,-13.86,-2.75,-2.84,14.41
7.6415040493011475,-9.73,-2.48,-6.08,11.73
7.652070999145508,-5.23,-0.35,-5.77,7.79
7.661448001861572,-2.07,0.72,-2.81,3.56
7.671458959579468,0.03,0.24,-1.97,1.98
7.6823410987854,1.82,0.32,-3.68,4.11
7.718347072601318,2.09,0.97,-3.64,4.3
7.71862006187439,0.6,1.0,-2.15,2.44
7.718889951705933,-0.93,0.58,-1.44,1.8
7.721301078796387,-1.3,0.37,-1.14,1.76
7.7313079833984375,-1.44,0.06,-0.61,1.56
7.741342067718506,-1.41,-0.09,-0.04,1.41
7.751943111419678,-1.31,-0.06,0.03,1.31
7.761312961578369,-0.9,-0.06,-0.05,0.9
7.771363019943237,-0.14,0.08,-0.02,0.16
7.782211065292358,0.47,0.21,-0.27,0.58
7.819922924041748,0.9,0.16,-0.53,1.05
7.820198059082031,0.94,0.02,-0.72,1.18
7.8205039501190186,0.8,-0.12,-0.59,1.0
7.821184158325195,0.62,-0.19,-0.17,0.67
7.831377029418945,0.25,-0.07,0.21,0.33
7.841268062591553,-0.15,0.1,0.61,0.63
7.851758003234863,-0.28,0.13,0.79,0.84
7.861143112182617,0.02,0.12,0.84,0.84
7.8713109493255615,0.41,0.11,0.57,0.71
7.881963014602661,0.78,0.13,0.28,0.83
7.918654918670654,0.97,0.16,0.34,1.04
7.918929100036621,0.88,0.22,0.45,1.01
7.919200897216797,0.68,0.2,0.53,0.88
7.920960903167725,0.45,0.06,0.81,0.92
7.9309680461883545,0.45,-0.15,1.06,1.16
7.940997123718262,0.69,-0.28,1.01,1.25
7.9517011642456055,0.98,-0.3,0.62,1.19
7.961028099060059,1.07,-0.16,0.2,1.1
7.971050024032593,0.83,0.05,-0.16,0.84
7.981881141662598,0.61,0.28,-0.26,0.71
8.019018173217773,0.58,0.38,-0.12,0.7
8.019288063049316,0.72,0.4,0.47,0.94
8.01955795288086,0.88,0.43,1.24,1.58
8.020848989486694,1.04,0.47,1.63,1.98
8.030882835388184,1.13,0.39,2.03,2.35
8.040844917297363,1.24,0.32,2.18,2.52
8.051494121551514,1.54,0.42,1.87,2.45
8.060909986495972,1.76,0.87,1.43,2.42
8.071022033691406,1.64,1.32,1.38,2.51
8.081737995147705,1.82,1.68,1.3,2.79
8.119961977005005,1.79,2.16,1.4,3.13
8.120270013809204,1.85,2.18,1.3,3.14
8.120712041854858,1.9,2.03,1.54,3.17
8.120983123779297,2.21,1.94,1.74,3.41
8.130736827850342,2.49,2.03,1.93,3.74
8.140704154968262,2.66,2.23,2.25,4.13
8.151412010192871,2.87,2.95,2.65,4.89
8.160839080810547,3.22,4.83,2.69,6.39
8.17076301574707,4.84,6.86,3.38,9.05
8.181591033935547,6.06,7.28,5.19,10.8
8.219736099243164,5.92,7.66,5.84,11.3
8.220041990280151,5.87,8.33,6.74,12.21
8.220509052276611,5.08,8.65,7.83,12.72
8.220780849456787,4.25,9.29,7.86,12.88
8.230627059936523,4.08,9.53,6.53,12.25
8.240561962127686,4.55,8.38,4.25,10.43
8.251327991485596,4.71,7.5,1.01,8.91
8.26068902015686,3.41,8.44,-3.1,9.61
8.270648956298828,-0.15,11.84,-3.82,12.44
8.281533002853394,-3.82,12.9,-1.38,13.52
8.319549083709717,-2.03,10.43,-0.52,10.63
8.319852828979492,1.11,6.76,0.33,6.85
8.320137977600098,2.27,3.58,1.64,4.54
8.320587158203125,-2.09,1.67,-0.93,2.83
8.330525875091553,-4.1,3.73,-6.1,8.24
8.340489864349365,1.03,6.52,-1.9,6.86
8.351196050643921,5.59,4.83,2.23,7.71
8.360445976257324,8.19,2.18,3.56,9.19
8.370699882507324,7.31,0.29,3.85,8.26
8.381394863128662,5.46,-0.84,3.23,6.39
8.42002010345459,4.23,-1.49,2.98,5.38
8.420300006866455,3.08,-1.89,2.73,4.52
8.420567035675049,1.9,-1.85,2.35,3.54
8.420833110809326,0.6,-1.79,2.08,2.8
8.430315017700195,-0.37,-1.63,1.64,2.34
8.440528869628906,-0.9,-1.58,1.44,2.31
8.450904846191406,-1.06,-1.88,1.3,2.51
8.460279941558838,-0.7,-2.25,1.03,2.57
8.4704430103302,-0.11,-2.54,0.64,2.62
8.481213092803955,0.31,-2.88,0.46,2.93
8.519620895385742,0.51,-3.4,0.52,3.47
8.520081996917725,0.48,-4.05,0.69,4.13
8.520348072052002,0.16,-4.77,0.71,4.82
8.520621061325073,-0.27,-5.57,0.76,5.62
8.53016185760498,-0.44,-6.18,0.86,6.25
8.540485858917236,-0.46,-6.66,1.01,6.75
8.550724983215332,-0.38,-7.01,1.21,7.12
8.560160160064697,-0.1,-7.27,1.48,7.41
8.570225954055786,0.09,-7.34,1.61,7.51
8.581130981445312,0.18,-7.21,1.41,7.34
8.619966983795166,-0.34,-6.79,0.82,6.84
8.620243072509766,-1.37,-6.11,-0.23,6.26
8.620512008666992,-2.41,-5.31,-1.21,5.95
8.620781898498535,-3.19,-4.18,-2.66,5.89
8.630020141601562,-4.48,-2.73,-4.89,7.17
8.640002965927124,-5.68,-1.06,-6.94,9.03
8.650560855865479,-6.61,0.34,-7.86,10.27
8.6600341796875,-7.49,1.08,-8.33,11.25
8.670156955718994,-8.46,1.57,-9.08,12.5
8.680857181549072,-9.63,1.57,-9.95,13.93
8.71908187866211,-10.28,0.49,-10.22,14.5
8.719825029373169,-9.8,-0.75,-9.72,13.82
8.720092058181763,-8.98,-1.46,-9.16,12.91
8.720357894897461,-8.13,-1.86,-8.69,12.04
8.729835987091064,-7.83,3.21,-8.07,11.69
8.739920139312744,-2.79,0.51,-6.11,6.73
8.750485897064209,0.2,-0.48,-3.97,4.0
8.75988483428955,12.65,13.8,16.15,24.72
8.770375967025757,23.52,16.58,16.2,33.02
8.78049898147583,9.19,16.85,-13.07,23.22
8.789947986602783,-3.19,8.33,-9.61,13.11
8.82072114944458,-11.14,-6.69,-4.9,13.88
8.82104206085205,-12.99,-6.41,0.43,14.49
8.82132601737976,-12.83,-4.13,-3.35,13.88
8.829756021499634,-12.5,-2.64,-6.96,14.54
8.839738845825195,-8.85,-0.31,-3.7,9.59
8.850272178649902,-4.42,0.43,-0.34,4.45
8.859688997268677,-0.57,0.29,-0.49,0.8
8.869716167449951,1.87,0.74,-1.29,2.38
8.880535125732422,2.98,0.77,-1.22,3.31
8.889816999435425,1.85,0.67,-2.41,3.11
8.920251846313477,0.17,0.73,-3.73,3.8
8.920519828796387,-0.44,0.55,-3.11,3.18
8.920784950256348,-0.55,0.3,-2.14,2.22
8.929572105407715,-0.24,0.09,-1.7,1.71
8.939537048339844,-0.15,0.04,-1.6,1.6
8.950098037719727,-0.53,-0.08,-1.36,1.46
8.95956301689148,-0.54,-0.06,-0.91,1.05
8.969573974609375,-0.39,-0.01,-0.39,0.55
8.980392932891846,-0.43,0.0,0.0,0.43
8.989655017852783,-0.69,-0.13,0.36,0.78
9.019866943359375,-1.05,-0.32,0.8,1.35
9.020143032073975,-0.87,-0.43,0.85,1.29
9.020409107208252,0.0,-0.3,0.67,0.73
9.029387950897217,0.89,-0.03,0.32,0.94
9.039448976516724,1.48,0.18,0.1,1.49
9.049942016601562,1.75,0.19,0.15,1.76
9.059401035308838,1.55,0.01,0.28,1.57
9.069430828094482,0.88,-0.04,0.24,0.91
9.080250978469849,0.13,0.13,0.36,0.4
9.089542865753174,-0.36,0.22,0.53,0.67
9.120556831359863,-0.58,0.11,0.76,0.96
9.120826959609985,-0.72,0.07,0.75,1.04
9.121098041534424,-0.6,0.08,0.54,0.81
9.129301071166992,-0.56,0.12,0.27,0.63
9.139297008514404,-0.4,0.16,0.1,0.44
9.149878978729248,0.13,0.19,0.06,0.23
9.159320831298828,0.81,0.17,0.24,0.86
9.169300079345703,1.49,0.11,0.53,1.58
9.180062055587769,2.13,0.11,1.1,2.39
9.189247131347656,2.69,0.13,1.68,3.17
9.220698833465576,2.95,0.22,1.97,3.55
9.220972061157227,2.94,0.03,2.48,3.84
9.22124195098877,2.68,-0.01,2.64,3.76
9.229106903076172,2.43,0.32,1.56,2.9
9.23909306526184,1.85,0.57,0.98,2.16
9.249710083007812,1.04,0.86,0.96,1.65
9.25917387008667,0.7,0.98,0.89,1.49
9.2691330909729,1.09,1.18,0.97,1.87
9.279891014099121,1.61,1.78,0.86,2.54
9.289215087890625,2.38,2.58,1.4,3.77
9.32026195526123,2.02,2.51,1.75,3.66
9.320525169372559,2.17,2.79,1.62,3.88
9.32078504562378,2.35,2.97,2.19,4.37
9.329010963439941,2.39,2.87,2.72,4.62
9.33898115158081,2.7,3.36,3.07,5.29
9.34951901435852,2.88,5.02,2.9,6.47
9.358962059020996,3.91,7.41,2.87,8.85
9.368932962417603,5.46,7.96,5.04,10.88
9.379781007766724,5.33,8.44,6.15,11.72
9.389078140258789,6.04,9.67,6.42,13.08
9.42088794708252,7.28,10.42,7.14,14.57
9.42116403579712,7.68,10.41,6.89,14.65
9.421434879302979,6.85,10.17,5.42,13.4
9.428838014602661,5.85,9.59,3.84,11.87
9.43887710571289,5.06,8.49,-0.07,9.88
9.449404001235962,2.95,8.5,-5.22,10.4
9.458949089050293,0.05,11.08,-6.49,12.84
9.468998908996582,-2.04,13.23,-3.53,13.84
9.479581832885742,-1.41,10.36,0.19,10.45
9.488927841186523,0.85,5.43,-0.71,5.54
9.522139072418213,1.71,2.09,-0.26,2.71
9.52240800857544,-2.78,0.22,-1.99,3.42
9.522672176361084,-4.14,1.75,-4.93,6.67
9.528661012649536,1.01,3.81,-0.24,3.94
9.538669109344482,5.49,2.12,3.1,6.65
9.549288034439087,7.34,-0.19,4.51,8.61
9.558558940887451,5.92,-1.49,4.38,7.51
9.568722009658813,4.02,-1.86,3.12,5.41
9.57947301864624,2.54,-2.02,2.59,4.15
9.588757991790771,1.53,-2.19,2.68,3.78
9.621093034744263,0.83,-2.52,3.02,4.01
9.621356964111328,0.12,-2.91,3.3,4.4
9.621616840362549,-0.64,-3.13,3.13,4.47
9.628484964370728,-1.12,-3.1,2.73,4.27
9.638756036758423,-1.24,-3.12,2.39,4.12
9.649159908294678,-1.18,-3.11,1.83,3.79
9.65850305557251,-0.72,-3.1,1.62,3.57
9.668558120727539,0.09,-3.14,1.48,3.47
9.679267883300781,0.91,-3.35,1.49,3.77
9.688630104064941,1.48,-3.89,1.72,4.5
9.720854043960571,1.51,-4.42,2.05,5.1
9.721115112304688,1.15,-4.81,2.19,5.4
9.721373081207275,0.84,-5.15,2.04,5.6
9.728440999984741,0.17,-5.26,1.28,5.41
9.738369941711426,-0.14,-5.11,0.49,5.13
9.748985052108765,-0.83,-4.83,0.29,4.9
9.758294105529785,-1.99,-4.54,0.24,4.96
9.768343925476074,-3.25,-4.22,-0.52,5.35
9.779161930084229,-4.4,-3.66,-1.96,6.04
9.788434982299805,-5.25,-3.04,-3.08,6.8
9.8212571144104,-6.03,-2.33,-4.62,7.94
9.821528911590576,-6.53,-1.52,-6.01,9.0
9.82179307937622,-6.92,-0.72,-7.04,9.89
9.82823395729065,-7.72,-0.15,-8.08,11.17
9.838207960128784,-8.88,0.26,-9.13,12.73
9.848804950714111,-9.64,0.38,-9.54,13.56
9.858252048492432,-9.66,-0.39,-9.08,13.26
9.868266105651855,-8.98,-1.83,-8.49,12.49
9.878984928131104,-7.49,-2.1,-7.71,10.95
9.888406991958618,-6.28,-1.98,-7.24,9.78
9.921711921691895,-6.04,-2.57,-7.12,9.68
9.92198395729065,-6.71,-1.77,-7.09,9.92
9.922252178192139,-6.18,3.66,-4.69,8.57
9.928038120269775,-1.44,-5.99,-5.84,8.48
9.938089847564697,-0.71,6.74,0.47,6.79
9.948741912841797,21.17,19.08,25.99,38.57
9.958305835723877,19.89,22.17,4.28,30.09
9.968065977096558,-2.17,12.79,-12.61,18.09
9.978807926177979,-8.95,-1.05,-3.75,9.76
9.988155841827393,-13.44,-6.5,-3.92,15.43
10.020370960235596,-12.81,-2.89,0.49,13.14
10.02064299583435,-11.3,-3.05,-3.68,12.26
10.020910024642944,-9.07,-1.88,-7.32,11.8
10.027881145477295,-5.84,0.39,-4.4,7.32
10.038058996200562,-2.26,0.63,-2.05,3.11
10.048532009124756,0.87,0.52,-2.09,2.32
10.058235168457031,2.72,0.87,-2.59,3.85
10.06795883178711,2.74,1.01,-2.23,3.67
10.07873010635376,0.5,0.79,-2.26,2.44
10.088060855865479,-1.53,0.49,-2.44,2.92
10.121155977249146,-1.84,0.25,-1.76,2.55
10.121423959732056,-1.31,0.05,-1.14,1.73
10.121687889099121,-0.92,-0.04,-1.02,1.37
10.127872943878174,-0.75,-0.07,-1.0,1.25
10.137753009796143,-0.49,-0.02,-0.81,0.94
10.148457050323486,-0.09,0.03,-0.35,0.36
10.157747030258179,0.07,0.07,-0.14,0.17
10.16788101196289,-0.07,0.03,-0.01,0.07
10.178574085235596,-0.22,-0.08,0.26,0.34
10.187954902648926,-0.11,-0.15,0.47,0.5
10.222157001495361,0.2,-0.19,0.68,0.73
10.222429037094116,0.5,-0.12,0.82,0.96
10.222692966461182,0.8,-0.05,0.9,1.2
10.227646827697754,1.07,0.03,0.69,1.27
10.237617015838623,1.13,0.12,0.43,1.21
10.24822998046875,0.87,0.05,0.51,1.0
10.257606983184814,0.83,0.01,0.77,1.13
10.267651081085205,1.52,0.0,0.96,1.79
10.278421878814697,2.0,-0.09,1.15,2.3
10.287739992141724,1.73,-0.08,1.18,2.09
10.32173204421997,1.2,0.01,1.13,1.64
10.32199501991272,0.74,0.0,1.16,1.37
10.322254180908203,0.51,-0.09,1.05,1.17
10.327497959136963,0.49,-0.27,0.7,0.89
10.337638854980469,0.48,-0.27,0.35,0.65
10.34806489944458,0.65,-0.06,0.18,0.67
10.357529163360596,0.98,0.18,0.15,1.0
10.367542028427124,1.31,0.31,0.49,1.43
10.378294944763184,1.64,0.23,1.22,2.05
10.387628078460693,1.96,0.08,1.77,2.64
10.42112684249878,2.4,-0.04,2.08,3.17
10.421389102935791,2.35,0.08,2.28,3.27
10.421646118164062,1.83,0.21,2.11,2.8
10.427320957183838,1.4,0.46,1.75,2.28
10.437283039093018,1.38,0.75,1.43,2.12
10.447952032089233,1.6,1.33,0.95,2.28
10.457336902618408,1.58,2.04,0.53,2.63
10.467355966567993,1.41,2.12,0.81,2.67
10.478137016296387,1.46,2.7,1.21,3.29
10.487418174743652,1.71,2.63,1.65,3.54
10.521373987197876,1.72,2.63,2.29,3.88
10.521640062332153,2.22,2.59,2.66,4.32
10.521906852722168,2.6,3.01,2.9,4.92
10.527318954467773,2.79,4.98,2.72,6.32
10.537363052368164,4.16,7.75,2.57,9.16
10.547736167907715,5.96,8.49,4.93,11.48
10.557291984558105,6.24,8.73,6.63,12.61
10.567275047302246,7.14,9.97,7.43,14.33
10.577942848205566,7.42,10.82,8.05,15.39
10.587398052215576,6.38,10.53,8.06,14.71
10.62208890914917,5.15,9.94,6.65,13.02
10.622353076934814,4.33,9.06,3.09,10.5
10.622614860534668,4.8,8.24,-1.5,9.65
10.627045154571533,4.79,9.98,-5.58,12.39
10.636978149414062,0.02,13.69,-4.3,14.34
10.6476149559021,-3.57,12.73,-1.12,13.26
10.65703797340393,-0.56,8.97,-0.95,9.03
10.667066097259521,2.83,4.84,0.54,5.63
10.677855014801025,1.05,2.06,1.56,2.78
10.687249183654785,-4.61,0.84,-4.03,6.18
10.722334861755371,-3.11,3.82,-4.31,6.54
10.722620010375977,2.56,4.59,0.62,5.29
10.722897052764893,6.84,2.61,2.09,7.61
10.726945877075195,8.68,0.56,3.14,9.24
10.73687195777893,7.39,-1.36,3.3,8.2
10.747466087341309,5.87,-2.48,2.92,7.0
10.756903171539307,4.81,-2.93,2.74,6.26
10.76694393157959,3.92,-2.99,2.43,5.49
10.777676105499268,3.08,-2.93,2.22,4.79
10.786994934082031,1.92,-2.95,1.99,4.04
10.822216033935547,0.62,-3.09,1.47,3.47
10.82248306274414,-0.04,-3.12,1.23,3.35
10.822750091552734,0.14,-2.91,1.25,3.17
10.826742172241211,0.7,-2.67,1.29,3.04
10.83902883529663,1.16,-2.6,1.31,3.13
10.847394943237305,1.42,-2.85,1.21,3.4
10.857115030288696,1.45,-3.4,1.32,3.92
10.866801023483276,1.19,-3.87,1.26,4.24
10.877366065979004,0.83,-4.36,1.12,4.57
10.886801958084106,0.61,-4.97,1.43,5.2
10.922108173370361,0.33,-5.37,1.72,5.64
10.922380924224854,-0.21,-5.38,1.33,5.54
10.922658920288086,-1.13,-5.23,0.25,5.35
10.926547050476074,-2.43,-5.01,-1.08,5.67
10.936598062515259,-3.43,-4.7,-2.17,6.2
10.947267055511475,-4.5,-4.19,-2.78,6.74
10.956591129302979,-5.54,-3.63,-3.27,7.38
10.966588973999023,-6.23,-2.71,-4.33,8.05
10.977243900299072,-6.41,-1.18,-5.71,8.66
10.98674488067627,-6.55,0.35,-7.04,9.62
11.02159309387207,-6.69,1.14,-8.01,10.49
11.021864891052246,-7.32,1.35,-8.79,11.51
11.022127151489258,-8.64,1.04,-9.44,12.83
11.026501178741455,-9.94,-0.39,-9.62,13.83
11.036556959152222,-9.82,-1.99,-8.81,13.34
11.047061920166016,-8.64,-2.84,-7.87,12.02
11.056427001953125,-8.32,-3.27,-7.77,11.84
11.066589832305908,-8.66,-3.65,-7.55,12.05
11.077127933502197,-9.79,-1.38,-7.94,12.68
11.086565017700195,-7.58,4.44,-4.68,9.95
11.122002124786377,-1.81,-3.94,-5.51,7.01
11.122275829315186,8.57,11.63,10.9,18.09
11.122539043426514,22.9,21.79,23.57,39.43
11.126246929168701,7.15,20.85,-12.72,25.44
11.136279106140137,-1.91,5.94,-8.9,10.86
11.146812915802002,-8.34,-3.95,1.9,9.42
11.156423091888428,-11.25,-5.43,-3.1,12.87
11.166363954544067,-7.46,-3.49,-4.85,9.55
11.176920890808105,-8.38,-2.88,-5.83,10.6
11.186450004577637,-7.34,-1.44,-7.7,10.73
11.221964836120605,-4.84,0.72,-4.95,6.96
11.222238063812256,-2.51,0.29,-2.97,3.89
11.222507953643799,0.09,0.24,-2.19,2.2
11.226091861724854,1.95,0.82,-1.15,2.4
11.236133098602295,1.82,1.1,0.01,2.12
11.246742010116577,-0.12,0.87,-0.45,0.98
11.256178855895996,-1.56,0.25,-1.89,2.46
11.266193866729736,-1.7,0.11,-1.81,2.48
11.27682113647461,-1.1,0.23,-1.03,1.52
11.286226987838745,-0.46,0.12,-1.03,1.13
11.321581840515137,-0.11,-0.15,-1.3,1.31
11.321850061416626,-0.47,-0.37,-1.45,1.56
11.322106838226318,-0.97,-0.33,-1.12,1.51
11.32597017288208,-0.64,-0.04,-0.74,0.97
11.336030006408691,-0.2,0.19,-0.5,0.57
11.346551895141602,-0.3,0.19,-0.25,0.43
11.356053829193115,-0.63,0.12,0.14,0.65
11.366142988204956,-0.77,0.05,0.43,0.88
11.376904010772705,-0.61,-0.03,0.56,0.82
11.386091947555542,-0.2,-0.07,0.57,0.6
11.421979904174805,0.45,-0.01,0.46,0.64
11.422246932983398,1.08,0.17,0.17,1.1
11.422511100769043,1.37,0.26,-0.04,1.39
11.425948143005371,1.25,0.14,0.08,1.26
11.435898065567017,0.92,0.04,0.28,0.96
11.446583032608032,0.67,-0.02,0.45,0.8
11.455847024917603,0.41,-0.12,0.67,0.79
11.465898990631104,0.1,-0.12,1.0,1.01
11.476868152618408,0.12,-0.14,1.09,1.1
11.486012935638428,0.35,-0.16,0.93,1.0
11.522872924804688,0.44,-0.08,0.79,0.9
11.523140907287598,0.46,-0.03,0.73,0.86
11.523408889770508,0.49,0.03,0.49,0.69
11.525984048843384,0.8,0.12,0.49,0.94
11.53572702407837,1.59,0.23,1.01,1.89
11.546289920806885,2.28,0.33,1.47,2.73
11.5557861328125,2.55,0.31,1.81,3.14
11.565739154815674,2.45,0.28,1.8,3.05
11.60482406616211,2.27,0.28,2.11,3.11
11.605118036270142,2.16,0.71,2.15,3.12
11.605555057525635,2.45,1.31,1.55,3.18
11.605810165405273,2.32,1.75,1.13,3.11
11.615586042404175,2.12,2.09,0.89,3.1
11.625861167907715,2.37,2.87,1.06,3.87
11.635547161102295,2.48,3.32,1.63,4.45
11.64628005027771,2.09,3.37,1.89,4.39
11.655635833740234,2.19,3.65,2.33,4.85
11.665672063827515,1.9,3.78,3.0,5.18
11.706324100494385,1.91,5.38,3.0,6.44
11.706590175628662,3.59,7.78,2.99,9.07
11.706855058670044,5.81,8.01,4.91,11.04
11.707108974456787,5.44,7.94,5.41,11.04
11.715405941009521,4.81,8.64,6.03,11.58
11.725411891937256,4.85,9.91,7.86,13.54
11.73545789718628,5.95,10.6,8.37,14.75
11.746026039123535,6.15,9.93,6.89,13.56
11.755456924438477,5.57,8.74,5.43,11.7
11.765457153320312,5.98,7.29,2.06,9.65
11.80630898475647,6.29,6.93,-2.72,9.74
11.806579113006592,2.77,10.21,-4.85,11.63
11.806846141815186,-3.67,13.3,-2.35,13.99
11.80710506439209,-4.3,10.74,-0.57,11.58
11.815269947052002,0.45,5.6,1.29,5.76
11.825273036956787,2.32,3.13,3.4,5.17
11.835316181182861,-2.87,2.91,-0.31,4.09
11.846056938171387,-4.23,5.22,-4.8,8.25
11.855316162109375,1.03,7.08,0.05,7.15
11.865324020385742,5.15,5.06,3.03,7.82
11.906036853790283,6.48,2.48,3.73,7.87
11.90630292892456,4.56,0.47,3.03,5.49
11.906569004058838,3.13,-0.91,2.17,3.91
11.906827926635742,2.51,-1.78,2.78,4.14
11.915111064910889,1.95,-2.28,3.17,4.36
11.925101041793823,1.09,-2.41,2.97,3.97
11.935298919677734,0.21,-2.57,3.0,3.95
11.945813179016113,-0.55,-3.0,3.0,4.27
11.955161094665527,-1.17,-3.33,2.7,4.44
11.965145111083984,-0.9,-3.39,2.38,4.23
12.006341934204102,0.05,-3.43,2.61,4.31
12.006608963012695,1.03,-3.64,2.94,4.79
12.006875038146973,1.71,-3.88,2.84,5.1
12.007152080535889,1.86,-4.23,2.66,5.33
12.01505184173584,1.67,-4.72,2.44,5.56
12.025065898895264,1.29,-5.29,2.2,5.87
12.035029888153076,1.21,-5.87,2.17,6.37
12.045570850372314,1.28,-6.47,2.1,6.92
12.05667495727539,1.22,-7.02,2.03,7.4
12.065032958984375,0.85,-7.23,2.04,7.56
12.075826168060303,0.11,-7.25,1.77,7.46
12.106479167938232,-0.34,-7.3,1.21,7.4
12.10673999786377,-0.86,-7.07,0.27,7.12
12.106997966766357,-2.01,-6.27,-1.24,6.7
12.114870071411133,-3.28,-5.1,-2.8,6.67
12.124956130981445,-4.12,-3.73,-3.68,6.66
12.134881973266602,-4.23,-2.21,-4.26,6.39
12.145457983016968,-4.25,-0.35,-5.67,7.09
12.154818058013916,-5.62,1.78,-8.1,10.01
12.164927959442139,-7.82,3.46,-9.98,13.14
12.205964088439941,-9.05,4.01,-10.25,14.24
12.206634044647217,-10.13,3.23,-10.47,14.92
12.20690107345581,-11.3,1.34,-10.76,15.66
12.20716905593872,-11.1,-0.37,-10.2,15.07
12.21480417251587,-10.13,-1.65,-9.39,13.91
12.224694013595581,-9.46,-2.28,-9.2,13.39
12.235730171203613,-9.23,-1.39,-9.17,13.08
12.245358943939209,-8.82,6.67,-5.97,12.56
12.254725933074951,-2.2,-0.3,-3.78,4.38
12.264806032180786,10.57,7.88,15.94,20.68
12.275688171386719,20.07,13.57,24.86,34.71
12.307103157043457,9.29,12.35,-4.96,16.23
12.307379961013794,2.44,10.0,-6.24,12.03
12.307650089263916,-5.05,3.02,-2.42,6.36
12.314536094665527,-8.11,-1.28,-0.2,8.21
12.324542999267578,-9.9,0.78,-3.32,10.47
12.334575176239014,-9.0,-0.79,-9.1,12.82
12.345149993896484,-5.77,1.65,-9.77,11.46
12.354557037353516,-4.11,0.94,-7.85,8.91
12.364561080932617,-2.01,0.04,-6.04,6.36
12.375314950942993,-1.23,-0.34,-4.78,4.94
12.407586097717285,-0.72,0.21,-3.9,3.97
12.40785002708435,-0.78,0.84,-2.65,2.88
12.408108949661255,-1.62,0.8,-1.43,2.3
12.414446830749512,-2.23,0.46,-0.72,2.38
12.42444896697998,-2.4,0.12,0.05,2.4
12.434437036514282,-2.24,0.09,0.56,2.31
12.44507884979248,-1.61,0.25,0.53,1.71
12.45447301864624,-0.66,0.25,0.25,0.74
12.46442985534668,0.4,0.08,-0.1,0.42
12.47524118423462,1.19,0.03,-0.28,1.22
12.507813930511475,1.55,0.02,-0.55,1.64
12.508080959320068,1.61,-0.03,-0.86,1.82
12.508347988128662,1.36,-0.08,-1.09,1.74
12.514317035675049,0.97,-0.12,-1.22,1.56
12.5242919921875,0.6,-0.06,-1.07,1.22
12.534297943115234,0.08,0.08,-0.58,0.59
12.54482889175415,-0.48,0.18,0.06,0.51
12.554250001907349,-0.75,0.04,0.72,1.04
12.564264059066772,-0.45,-0.11,1.06,1.15
12.575117111206055,0.31,-0.22,0.87,0.94
12.608785152435303,1.15,-0.24,0.85,1.45
12.609050989151001,1.65,-0.06,1.1,1.98
12.609308958053589,1.81,0.16,1.08,2.11
12.614083051681519,1.91,0.12,1.08,2.19
12.624112129211426,2.1,-0.2,1.42,2.54
12.634099006652832,2.39,-0.62,1.76,3.03
12.64454984664917,2.66,-0.81,2.06,3.46
12.65408706665039,2.27,-0.55,2.05,3.1
12.664286136627197,1.41,-0.29,1.58,2.13
12.674952030181885,0.99,-0.22,1.17,1.54
12.708220958709717,0.97,-0.17,1.15,1.51
12.708488941192627,1.08,-0.15,0.98,1.46
12.70875883102417,1.28,-0.31,0.01,1.31
12.713935852050781,1.04,-0.52,0.18,1.17
12.723918914794922,1.07,-0.52,1.46,1.88
12.73392105102539,1.55,-0.45,1.92,2.5
12.744408130645752,2.26,-0.47,2.21,3.19
12.753986835479736,2.75,-0.38,2.09,3.47
12.764129161834717,2.46,-0.16,1.89,3.1
12.774815082550049,2.12,-0.13,1.51,2.6
12.808155059814453,1.93,-0.22,1.57,2.49
12.808418989181519,1.98,-0.13,1.65,2.58
12.808686017990112,2.34,0.19,0.98,2.54
12.813822031021118,2.17,0.78,0.73,2.41
12.823843002319336,1.77,1.34,0.92,2.4
12.833796977996826,1.34,2.17,0.87,2.69
12.844365119934082,0.98,3.77,0.98,4.01
12.853869915008545,1.02,5.99,1.1,6.17
12.863867998123169,2.51,7.06,1.84,7.71
12.874764919281006,3.41,6.94,3.56,8.51
12.90885305404663,3.99,6.68,4.71,9.09
12.909114837646484,4.74,7.19,5.9,10.43
12.909386157989502,4.01,7.67,7.08,11.18
12.913524150848389,4.26,8.94,8.71,13.18
12.923563003540039,5.21,9.55,9.4,14.37
12.933589935302734,6.1,9.25,7.9,13.6
12.944403171539307,7.72,8.48,5.71,12.81
12.953789949417114,8.11,7.65,2.68,11.46
12.963865995407104,6.49,7.62,-1.6,10.13
12.97446584701538,2.09,9.68,-5.23,11.19
13.00924015045166,-4.11,12.42,-4.04,13.69
13.00950288772583,-5.81,11.69,-0.74,13.07
13.010122060775757,-3.11,8.58,0.04,9.12
13.013499975204468,1.66,4.58,-0.16,4.87
13.023763179779053,2.08,1.88,1.01,2.98
13.033493995666504,-3.33,1.21,-2.84,4.54
13.044358968734741,-1.72,4.18,-4.16,6.14
13.053597927093506,2.91,4.71,0.51,5.55
13.063544988632202,6.36,2.1,2.2,7.04
13.074378967285156,7.76,-0.22,3.01,8.32
13.109421014785767,6.51,-1.71,3.21,7.45
13.10968804359436,5.05,-2.53,2.88,6.34
13.110285997390747,4.01,-2.64,2.75,5.53
13.113255023956299,3.11,-2.4,2.95,4.91
13.123347043991089,2.06,-2.33,3.0,4.32
13.13332986831665,1.28,-2.52,2.95,4.08
13.144236087799072,1.17,-2.85,2.8,4.16
13.153398990631104,1.49,-3.18,2.72,4.44
13.163413047790527,1.76,-3.57,2.5,4.7
13.174193859100342,1.95,-3.88,2.25,4.89
13.209681987762451,2.01,-4.23,2.14,5.14
13.210247993469238,1.98,-4.61,2.14,5.45
13.210510969161987,1.81,-5.15,2.07,5.83
13.213211059570312,1.34,-5.92,1.94,6.37
13.223222970962524,0.86,-6.61,1.81,6.9
13.23319387435913,0.33,-7.13,1.33,7.26
13.24415111541748,-0.38,-7.48,0.81,7.53
13.25323486328125,-1.67,-7.49,0.42,7.68
13.26327896118164,-2.67,-7.17,-0.56,7.67
13.274005889892578,-3.35,-6.69,-1.79,7.69
13.310394048690796,-4.81,-5.72,-3.58,8.28
13.310657978057861,-6.32,-4.22,-6.58,10.05
13.31092095375061,-7.02,-2.47,-7.38,10.48
13.313058853149414,-6.74,-1.53,-6.42,9.43
13.32313585281372,-6.1,-0.64,-6.41,8.87
13.333089828491211,-6.59,0.81,-8.36,10.67
13.344040870666504,-7.86,1.94,-10.34,13.13
13.353119850158691,-8.68,2.32,-10.74,14.0
13.363108158111572,-8.81,2.05,-10.46,13.82
13.373827934265137,-8.51,1.65,-10.5,13.61
13.41055703163147,-8.66,0.56,-11.4,14.32
13.41083288192749,-9.26,-1.67,-11.61,14.94
13.411093950271606,-9.34,4.35,-9.41,13.95
13.412920951843262,-4.03,-0.69,-7.16,8.24
13.42292308807373,5.17,5.3,3.1,8.02
13.433465957641602,21.06,15.14,34.74,43.35
13.443912982940674,14.37,12.62,5.89,20.01
13.452961921691895,-0.59,10.33,-12.41,16.15
13.462963104248047,-10.99,4.98,-0.79,12.09
13.473657131195068,-16.71,-2.56,-1.19,16.94
13.51111888885498,-13.64,-3.49,-0.46,14.08
13.511381149291992,-9.26,-2.04,-4.62,10.54
13.511640071868896,-5.65,-1.31,-8.0,9.88
13.512770175933838,-1.63,0.28,-7.0,7.19
13.522690057754517,0.85,0.94,-6.54,6.66
13.532732963562012,1.82,0.65,-5.49,5.82
13.543673038482666,2.78,0.38,-4.18,5.03
13.552771091461182,2.75,0.66,-3.22,4.28
13.56279993057251,0.72,0.73,-1.25,1.61
13.57360315322876,-1.15,0.17,0.15,1.17
13.611012935638428,-1.71,-0.02,0.08,1.71
13.611281871795654,-1.67,0.02,0.49,1.74
13.611541986465454,-1.34,-0.05,0.84,1.58
13.6126708984375,-1.02,-0.16,0.52,1.15
13.622596979141235,-0.63,-0.15,0.02,0.64
13.632663011550903,-0.2,-0.11,-0.29,0.36
13.64321517944336,0.12,-0.09,-0.65,0.66
13.6526460647583,0.24,-0.1,-1.02,1.05
13.662654876708984,0.34,-0.14,-1.06,1.12
13.673370838165283,0.31,-0.1,-0.68,0.75
13.711889028549194,0.16,0.05,-0.1,0.19
13.712337970733643,-0.01,0.2,0.39,0.43
13.712600946426392,0.02,0.29,0.65,0.71
13.71285605430603,0.38,0.32,0.63,0.8
13.722485065460205,0.68,0.2,0.45,0.83
13.732437133789062,0.68,0.07,0.23,0.72
13.742980003356934,0.7,0.07,0.27,0.75
13.753429889678955,1.2,0.07,0.46,1.28
13.762469053268433,1.45,-0.01,0.87,1.69
13.773168087005615,1.5,0.01,1.36,2.02
13.812360048294067,1.86,-0.01,1.74,2.54
13.8126220703125,2.0,-0.15,1.86,2.73
13.812880039215088,1.45,-0.25,1.71,2.25
13.813136100769043,1.01,-0.29,1.29,1.66
13.822307109832764,1.12,-0.22,0.97,1.49
13.832375049591064,1.38,-0.01,0.7,1.54
13.842956066131592,1.58,0.34,0.27,1.63
13.852376937866211,1.61,0.39,0.4,1.7
13.862380981445312,1.63,0.21,1.18,2.02
13.873083114624023,1.9,-0.04,1.92,2.7
13.911326885223389,2.06,0.12,2.22,3.03
13.911594867706299,2.09,0.72,1.74,2.81
13.912027835845947,1.75,1.33,1.04,2.43
13.912283897399902,0.99,1.89,0.85,2.29
13.922116994857788,0.86,2.24,0.84,2.54
13.932163953781128,1.0,2.48,1.15,2.91
13.942764043807983,1.33,2.62,1.76,3.42
13.952241897583008,1.77,2.69,2.11,3.84
13.96229600906372,2.08,2.71,2.84,4.44
13.972899913787842,2.33,3.04,3.07,4.9
14.012210845947266,2.51,4.56,3.07,6.04
14.012469053268433,3.7,7.01,3.02,8.48
14.012725830078125,5.41,8.16,4.57,10.8
14.012979984283447,5.6,8.52,5.8,11.72
14.02213191986084,5.81,9.62,6.8,13.13
14.032052993774414,6.35,10.79,8.18,14.95
14.042662143707275,6.18,10.7,7.97,14.7
14.052073955535889,6.45,9.87,6.19,13.31
14.062020063400269,6.82,8.36,3.71,11.4
14.072818040847778,7.43,7.46,-0.31,10.53
14.11195707321167,6.09,9.24,-3.76,11.68
14.11222791671753,-0.93,12.89,-3.84,13.48
14.112490177154541,-6.63,12.88,-2.64,14.72
14.112760066986084,-2.4,9.1,-2.17,9.65
14.121960163116455,2.37,4.21,1.39,5.02
14.13194990158081,0.62,2.35,2.01,3.15
14.142773151397705,-5.08,2.49,-4.31,7.11
14.151962041854858,-2.42,4.75,-3.56,6.41
14.161844968795776,2.65,4.25,2.14,5.44
14.172688007354736,6.22,1.84,3.5,7.37
14.21218204498291,7.12,0.31,3.56,7.96
14.212445974349976,5.54,-0.88,3.33,6.52
14.212707042694092,4.49,-1.84,2.97,5.68
14.212966918945312,3.89,-2.55,2.81,5.43
14.22176218032837,3.17,-2.86,2.64,5.01
14.231706142425537,2.74,-2.85,3.06,4.99
14.242403984069824,2.44,-2.78,3.55,5.12
14.251760005950928,2.23,-2.89,3.44,5.01
14.261662006378174,2.01,-3.01,2.89,4.63
14.272529125213623,1.91,-3.02,2.46,4.33
14.313107967376709,1.91,-2.88,2.04,4.01
14.313369035720825,1.86,-2.76,1.69,3.73
14.31362795829773,1.81,-2.94,1.58,3.79
14.313867092132568,1.75,-3.5,1.58,4.22
14.321601867675781,1.67,-4.21,1.72,4.84
14.331593036651611,1.42,-4.81,1.48,5.22
14.342175960540771,1.23,-5.48,1.5,5.81
14.351760864257812,0.76,-6.02,1.61,6.27
14.361556053161621,-0.22,-6.19,1.22,6.31
14.372395038604736,-0.95,-6.22,0.21,6.29
14.41333818435669,-1.81,-5.99,-1.29,6.38
14.413602828979492,-3.15,-5.87,-2.76,7.21
14.413865089416504,-4.5,-5.46,-3.62,7.94
14.414121150970459,-6.02,-5.0,-3.07,8.4
14.421489953994751,-7.05,-4.41,-3.09,8.87
14.43144702911377,-6.98,-3.01,-4.3,8.73
14.442017078399658,-5.9,-1.58,-4.87,7.81
14.451449871063232,-5.25,-0.53,-4.88,7.18
14.461426973342896,-6.44,0.38,-5.78,8.66
14.472299098968506,-8.42,1.29,-6.88,10.94
14.513688087463379,-9.91,1.63,-7.49,12.52
14.513954162597656,-10.44,1.7,-8.39,13.5
14.5142240524292,-10.09,1.51,-9.1,13.67
14.51448392868042,-9.57,0.43,-8.91,13.08
14.521312952041626,-10.39,0.06,-8.8,13.61
14.53125286102295,-9.73,3.45,-7.87,12.98
14.54184603691101,-7.02,-5.73,-9.71,13.28
14.551287174224854,-0.4,5.8,-4.22,7.18
14.56151795387268,23.37,20.36,28.22,41.91
14.572098016738892,16.31,20.66,6.36,27.07
14.61357307434082,-2.25,11.76,-10.77,16.1
14.613847017288208,-10.55,-0.94,0.02,10.59
14.614115953445435,-14.83,-6.56,-2.83,16.46
14.614376068115234,-11.35,-3.34,-2.39,12.07
14.621278047561646,-9.44,-2.22,-3.45,10.29
14.631181955337524,-6.93,-1.68,-5.84,9.21
14.641726016998291,-4.07,0.61,-5.8,7.11
14.651153087615967,-1.96,0.88,-4.69,5.15
14.661350965499878,0.2,0.61,-3.9,3.95
14.671865940093994,2.26,0.8,-2.99,3.83
14.714087963104248,2.18,0.9,-1.33,2.7
14.714355945587158,-0.07,0.55,-0.55,0.78
14.714613914489746,-1.89,-0.07,-1.22,2.25
14.71487283706665,-2.28,-0.12,-1.01,2.49
14.72098684310913,-1.99,0.0,0.25,2.0
14.731016159057617,-1.39,-0.06,0.57,1.5
14.741495132446289,-0.23,-0.02,-0.09,0.24
14.751036167144775,0.6,-0.02,-0.62,0.86
14.761229991912842,0.77,-0.15,-0.86,1.16
14.771764039993286,0.42,-0.18,-0.76,0.88
14.814146041870117,-0.04,-0.14,-0.41,0.43
14.814409017562866,-0.19,-0.04,-0.2,0.27
14.814669132232666,-0.23,0.07,-0.01,0.24
14.814927101135254,-0.45,0.23,0.27,0.57
14.820807933807373,-0.47,0.23,0.5,0.72
14.830840110778809,0.15,0.14,0.63,0.66
14.84139108657837,0.83,0.2,0.76,1.14
14.850852012634277,1.34,0.14,0.71,1.52
14.860864162445068,2.03,0.05,0.82,2.18
14.871626853942871,2.57,0.05,1.01,2.76
14.914238929748535,2.42,0.04,1.17,2.68
14.914507865905762,1.94,0.0,1.54,2.47
14.914772033691406,1.49,-0.07,1.74,2.29
14.915030002593994,1.22,-0.18,1.71,2.1
14.920624017715454,1.15,-0.19,1.46,1.86
14.930735111236572,1.02,-0.14,0.92,1.38
14.941320896148682,0.84,0.02,0.57,1.01
14.950739860534668,0.78,0.2,0.4,0.89
14.960757970809937,0.91,0.17,0.55,1.07
14.971529960632324,1.31,0.08,0.99,1.64
15.01477599143982,1.76,-0.01,1.55,2.34
15.015040874481201,1.9,-0.15,2.24,2.94
15.015282154083252,1.9,0.02,2.42,3.07
15.01554012298584,1.81,0.43,2.02,2.74
15.020580053329468,1.32,0.83,1.44,2.12
15.030586004257202,0.61,1.34,0.69,1.62
15.04112195968628,0.37,1.83,0.32,1.89
15.050578117370605,0.7,2.34,0.84,2.58
15.060701847076416,0.89,2.48,1.51,3.03
15.07134199142456,1.64,2.61,1.99,3.66
15.114986896514893,2.23,2.63,2.67,4.36
15.115265846252441,2.52,2.73,2.77,4.63
15.115532875061035,2.62,3.7,2.58,5.21
15.115789890289307,2.88,5.99,2.03,6.94
15.120534896850586,4.52,7.7,3.0,9.41
15.130505084991455,5.35,8.07,5.0,10.89
15.141014099121094,5.68,9.0,5.93,12.18
15.150434017181396,6.9,10.31,6.96,14.22
15.160567998886108,7.11,10.74,7.9,15.1
15.171202182769775,6.1,10.23,7.89,14.28
15.215041160583496,5.8,8.85,6.62,12.48
15.215312004089355,5.16,7.61,2.26,9.46
15.215574979782104,5.07,8.39,-3.07,10.27
15.21583890914917,2.18,11.47,-6.12,13.18
15.220196008682251,-5.48,13.49,-3.34,14.93
15.230394840240479,-6.2,10.93,-1.01,12.6
15.240875959396362,0.03,7.29,-0.14,7.29
15.25035285949707,2.59,3.1,1.71,4.38
15.260292053222656,-0.34,0.04,1.4,1.44
15.271006107330322,-3.13,0.79,-3.6,4.83
15.31555986404419,1.04,3.94,-1.46,4.32
15.31582498550415,5.06,3.25,2.0,6.33
15.316092014312744,7.34,1.51,2.94,8.04
15.316349983215332,7.43,0.19,3.35,8.15
15.320053100585938,6.49,-0.99,3.19,7.29
15.330106019973755,5.75,-1.73,3.41,6.9
15.342628955841064,4.93,-1.89,3.38,6.26
15.350146055221558,4.34,-1.64,2.86,5.45
15.360157012939453,3.7,-1.33,2.35,4.58
15.371003150939941,2.54,-1.29,2.11,3.54
15.415835857391357,1.33,-1.36,1.75,2.58
15.416100978851318,0.62,-1.18,1.51,2.01
15.41636610031128,0.59,-1.08,1.57,1.99
15.416626930236816,0.98,-1.05,1.2,1.87
15.419914960861206,0.98,-1.26,0.52,1.67
15.430005073547363,0.94,-1.49,0.25,1.77
15.440521955490112,0.73,-1.49,0.14,1.66
15.449985027313232,0.12,-1.82,-0.26,1.84
15.460118055343628,-0.55,-2.84,-0.77,2.99
15.4707670211792,-1.79,-3.64,-1.72,4.4
15.516350984573364,-2.11,-4.27,-1.97,5.15
15.516613960266113,-2.17,-5.01,-0.55,5.48
15.516875982284546,-1.42,-5.71,0.61,5.91
15.517133951187134,-0.85,-5.74,0.49,5.82
15.519948959350586,-1.28,-5.34,0.09,5.49
15.52979302406311,-2.4,-4.92,-0.47,5.49
15.540400981903076,-4.02,-4.49,-1.78,6.28
15.549859046936035,-5.41,-3.9,-3.51,7.53
15.559973001480103,-5.99,-3.43,-4.78,8.39
15.570623874664307,-6.88,-3.05,-5.99,9.61
15.616359949111938,-8.14,-2.65,-7.23,11.2
15.616626024246216,-8.9,-2.43,-8.29,12.4
15.616883993148804,-9.14,-2.7,-8.73,12.92
15.617125034332275,-9.14,-2.97,-8.43,12.78
15.619729042053223,-9.33,-2.95,-8.49,12.95
15.629667043685913,-9.37,-2.64,-8.81,13.12
15.64027214050293,-8.76,-2.14,-8.72,12.54
15.64969801902771,-8.07,-1.92,-8.39,11.79
15.659687042236328,-8.57,1.9,-8.5,12.21
15.67039704322815,-3.4,4.11,-5.88,7.93
15.717058181762695,-1.22,-1.77,-7.33,7.63
15.717342853546143,3.15,14.16,7.17,16.18
15.71760892868042,16.66,20.36,21.5,33.97
15.71787691116333,8.14,13.66,-8.26,17.91
15.719614028930664,-1.45,1.3,-3.17,3.72
15.729491949081421,-7.69,-5.21,3.51,9.92
15.740117073059082,-9.79,-3.7,0.15,10.46
15.749538898468018,-11.55,0.27,-1.48,11.64
15.759480953216553,-9.09,-1.9,-8.14,12.34
15.770284175872803,-5.19,1.92,-8.61,10.23
15.81705093383789,-4.38,1.69,-4.11,6.23
15.817315101623535,-2.16,0.0,-4.48,4.97
15.817574977874756,0.18,-0.31,-4.79,4.8
15.817831993103027,1.84,-0.29,-2.49,3.1
15.819383144378662,1.48,0.5,-0.92,1.81
15.829272031784058,-0.02,1.13,-1.25,1.68
15.839944839477539,-0.7,0.67,-1.82,2.06
15.851148128509521,-1.25,0.24,-1.76,2.17
15.859489917755127,-1.62,0.15,-1.46,2.18
15.870171070098877,-1.49,0.12,-1.37,2.02
15.917232036590576,-1.25,-0.02,-1.4,1.87
15.917494058609009,-1.1,-0.2,-1.32,1.72
15.917752027511597,-0.89,-0.26,-1.19,1.5
15.918016910552979,-0.79,-0.12,-1.13,1.38
15.919252872467041,-0.9,0.02,-0.94,1.3
15.92917013168335,-1.14,0.01,-0.66,1.31
15.93984317779541,-1.34,-0.02,-0.25,1.36
15.949246883392334,-1.31,-0.02,0.09,1.31
15.959367036819458,-0.88,0.01,0.11,0.88
15.96998906135559,-0.32,0.05,0.07,0.33
16.017657041549683,0.15,0.14,0.2,0.28
16.017927169799805,0.65,0.16,0.4,0.77
16.01819086074829,1.16,0.17,0.59,1.31
16.018481969833374,1.41,0.29,0.64,1.57
16.01911997795105,1.06,0.3,0.43,1.18
16.02912187576294,0.24,0.2,0.13,0.33
16.03974199295044,-0.43,0.06,0.39,0.58
16.04911184310913,-0.66,0.09,0.89,1.11
16.0590660572052,-0.08,0.09,1.18,1.18
16.06983494758606,0.99,-0.11,1.52,1.81
16.118238925933838,2.14,-0.49,2.12,3.05
16.118690013885498,3.49,-0.91,2.58,4.43
16.118957042694092,4.43,-0.87,2.34,5.08
16.11921501159668,4.38,-0.47,1.85,4.77
16.119477033615112,3.27,-0.08,0.99,3.41
16.129122972488403,1.8,0.03,0.68,1.92
16.13959002494812,1.01,-0.02,0.73,1.24
16.148938179016113,0.76,0.16,0.64,1.0
16.15892791748047,0.82,0.43,0.77,1.2
16.169692993164062,0.96,0.58,0.86,1.41
16.217907905578613,1.0,0.6,0.72,1.37
16.218183994293213,1.25,0.72,0.5,1.52
16.218637943267822,1.43,1.1,0.19,1.81
16.21889305114746,1.32,1.37,-0.26,1.92
16.21915292739868,1.19,1.79,-0.5,2.2
16.22916603088379,1.45,2.32,-0.21,2.74
16.239362001419067,1.31,2.55,0.94,3.01
16.24890899658203,1.13,2.62,1.75,3.34
16.258800983428955,1.88,3.4,2.05,4.39
16.269608974456787,2.38,4.84,2.5,5.94
16.31808304786682,3.56,6.35,2.85,7.81
16.318531036376953,4.62,6.72,4.06,9.1
16.318787097930908,4.43,7.23,4.36,9.53
16.319047927856445,4.05,8.01,4.77,10.16
16.319303035736084,3.8,8.38,6.02,10.99
16.32898187637329,3.95,8.55,6.7,11.55
16.339221954345703,4.84,8.55,6.21,11.62
16.348679065704346,5.44,8.82,4.94,11.47
16.35862684249878,5.28,8.86,4.08,11.09
16.3694269657135,5.61,8.48,1.78,10.32
16.37870693206787,6.11,8.68,-2.46,10.89
16.41887903213501,4.27,9.97,-3.75,11.47
16.41915202140808,-0.42,11.27,-2.65,11.58
16.419419050216675,-2.36,10.6,-1.24,10.93
16.41967797279358,-0.04,6.9,0.25,6.9
16.428467988967896,2.51,3.95,1.95,5.07
16.43907594680786,0.07,2.6,0.77,2.71
16.448494911193848,-2.32,3.53,-4.21,5.96
16.458653926849365,2.11,5.22,-1.38,5.79
16.469181060791016,6.31,3.69,2.42,7.69
16.47853994369507,8.44,1.77,3.66,9.36
16.518885135650635,7.44,0.58,3.98,8.45
16.519150018692017,5.53,-0.23,3.32,6.45
16.519407987594604,4.24,-0.79,2.67,5.07
16.519687175750732,3.15,-1.03,2.32,4.04
16.52838706970215,2.28,-1.2,2.31,3.46
16.53894805908203,1.74,-1.58,2.61,3.51
16.54835605621338,1.49,-2.01,2.69,3.67
16.558326959609985,1.11,-2.4,2.43,3.59
16.569071054458618,0.56,-2.69,1.95,3.36
16.57843589782715,0.21,-2.72,1.29,3.01
16.619368076324463,0.28,-2.75,1.12,2.98
16.619629859924316,0.62,-3.15,1.65,3.6
16.619887828826904,1.31,-3.41,1.9,4.11
16.620144844055176,2.25,-3.73,2.49,5.01
16.628175020217896,2.46,-3.64,2.93,5.28
16.63877010345459,1.26,-3.96,2.45,4.82
16.648223876953125,-0.66,-4.85,1.76,5.2
16.660306930541992,-1.9,-5.05,0.06,5.39
16.668946027755737,-1.98,-4.79,-1.67,5.44
16.678313970565796,-2.85,-4.69,-0.91,5.56
16.719455003738403,-3.24,-4.96,0.89,5.99
16.719722032546997,-3.49,-4.81,0.5,5.96
16.719983100891113,-4.55,-4.18,-1.03,6.26
16.720247983932495,-5.66,-3.49,-2.36,7.05
16.728026866912842,-5.8,-3.07,-2.71,7.09
16.738667011260986,-5.78,-2.77,-3.19,7.15
16.748066902160645,-6.88,-2.11,-4.66,8.57
16.758036136627197,-8.33,-1.21,-6.05,10.36
16.769003868103027,-9.11,-0.4,-6.57,11.23
16.778125047683716,-9.32,0.03,-6.89,11.59
16.819878101348877,-9.5,0.19,-7.14,11.88
16.82013988494873,-9.83,-0.03,-7.07,12.1
16.82039999961853,-9.77,-0.8,-7.13,12.12
16.8206570148468,-9.05,-1.38,-7.75,11.99
16.827818870544434,-8.52,-1.36,-8.15,11.86
16.838528156280518,-8.77,-1.07,-8.58,12.31
16.847917079925537,-8.68,-0.5,-7.76,11.65
16.8579158782959,-7.76,4.14,-6.05,10.67
16.86864709854126,0.44,-3.57,-7.14,7.99
16.87804102897644,13.21,10.65,9.88,19.63
16.919660091400146,28.36,21.57,25.66,43.9
16.919934034347534,9.32,20.37,-11.2,25.04
16.92019510269165,-1.32,5.19,-8.54,10.08
16.920456886291504,-9.94,-4.29,2.36,11.08
16.92772912979126,-15.89,-6.38,-1.75,17.21
16.938406944274902,-13.01,-3.64,-1.85,13.63
16.947794914245605,-11.6,-2.53,-4.37,12.65
16.957810878753662,-8.85,-1.0,-6.57,11.06
16.968432903289795,-4.35,0.79,-3.36,5.55
16.97780704498291,-1.52,0.46,-1.41,2.12
17.019986152648926,1.18,0.53,-1.58,2.04
17.02025604248047,3.01,0.93,-1.59,3.52
17.0205180644989,2.38,0.96,-1.43,2.93
17.0207839012146,-0.1,0.65,-2.13,2.22
17.02763605117798,-1.66,0.32,-2.91,3.36
17.038190841674805,-1.56,0.37,-2.34,2.83
17.047677040100098,-1.04,0.16,-1.25,1.63
17.057775020599365,-0.55,-0.1,-0.8,0.97
17.068358898162842,-0.36,-0.07,-1.0,1.06
17.077699184417725,-0.44,-0.1,-1.02,1.11
17.12016487121582,-0.31,-0.08,-0.89,0.94
17.120430946350098,-0.18,0.03,-0.79,0.81
17.120692014694214,-0.29,0.14,-0.59,0.67
17.120949029922485,-0.41,0.13,-0.4,0.58
17.127482891082764,-0.44,0.11,-0.15,0.47
17.13801598548889,-0.45,0.1,-0.05,0.46
17.147446155548096,-0.36,0.03,-0.04,0.36
17.157424926757812,-0.26,0.0,0.0,0.26
17.16818904876709,0.05,0.09,0.17,0.19
17.17766284942627,0.61,0.15,0.26,0.67
17.22034215927124,1.36,0.24,0.54,1.48
17.2206130027771,1.97,0.27,0.5,2.05
17.220871925354004,1.82,0.12,0.33,1.85
17.221137046813965,1.16,-0.07,0.6,1.3
17.22731113433838,0.67,-0.15,1.1,1.29
17.237833976745605,0.54,-0.11,1.48,1.57
17.24724006652832,0.59,-0.05,1.6,1.7
17.257256984710693,0.93,0.0,1.59,1.84
17.26799702644348,1.45,0.07,1.44,2.04
17.277366161346436,1.67,0.14,1.19,2.05
17.320716857910156,1.88,0.16,1.02,2.14
17.320988178253174,1.99,0.23,1.19,2.33
17.32125186920166,2.01,0.32,1.21,2.36
17.321511030197144,1.75,0.5,1.25,2.2
17.327117919921875,1.5,0.57,1.48,2.18
17.337811946868896,1.36,0.53,1.85,2.35
17.347086906433105,1.53,0.67,2.09,2.67
17.35713815689087,1.86,0.97,1.88,2.81
17.36790704727173,1.62,1.52,1.76,2.83
17.377195835113525,1.5,1.93,1.76,3.01
17.42119312286377,1.42,2.27,1.93,3.3
17.421463012695312,1.64,2.5,2.15,3.68
17.42172384262085,2.08,2.52,2.61,4.18
17.42198085784912,2.66,2.63,2.79,4.66
17.427073001861572,3.13,3.34,2.9,5.41
17.437510013580322,3.4,4.66,3.03,6.51
17.446951866149902,4.01,6.7,2.95,8.34
17.457151889801025,5.55,7.92,3.96,10.45
17.467653036117554,5.96,8.08,5.34,11.37
17.4771089553833,5.57,8.49,6.86,12.25
17.521425008773804,5.59,9.55,8.27,13.81
17.521687984466553,6.14,10.26,8.34,14.57
17.5219509601593,6.63,9.86,6.58,13.58
17.522207975387573,6.51,8.69,3.57,11.42
17.526887893676758,6.14,8.08,-1.46,10.25
17.53751516342163,4.9,9.76,-6.03,12.47
17.546903133392334,-0.57,13.51,-5.41,14.56
17.556854963302612,-5.82,12.61,-1.04,13.92
17.567587852478027,-3.37,9.5,-0.79,10.11
17.57701802253723,1.91,5.65,0.03,5.96
17.62193202972412,2.28,2.17,2.02,3.74
17.622200965881348,-2.41,0.54,-1.09,2.69
17.62246084213257,-2.58,3.16,-4.51,6.08
17.62272000312805,2.1,5.0,-0.42,5.43
17.626780033111572,5.62,3.46,1.62,6.79
17.637290000915527,7.68,1.58,2.86,8.34
17.646839141845703,7.35,-0.24,3.82,8.28
17.656705856323242,5.95,-1.22,3.1,6.81
17.667466163635254,4.52,-1.3,2.07,5.13
17.676849842071533,3.54,-1.29,1.9,4.21
17.722543954849243,2.97,-1.67,2.32,4.12
17.722808837890625,2.48,-2.06,2.69,4.19
17.72306799888611,1.65,-2.08,2.55,3.68
17.723328113555908,0.95,-1.89,2.03,2.93
17.72660493850708,0.63,-1.86,1.64,2.55
17.73712396621704,0.8,-1.76,1.16,2.25
17.746850967407227,1.06,-1.83,0.79,2.25
17.756587028503418,1.09,-2.09,0.58,2.42
17.767189979553223,1.17,-2.49,0.58,2.81
17.776695013046265,1.35,-3.07,0.64,3.41
17.82327699661255,1.47,-3.85,0.95,4.22
17.823539972305298,1.25,-4.34,1.23,4.68
17.823800086975098,0.75,-4.76,1.07,4.93
17.824060916900635,0.1,-5.02,0.3,5.02
17.82642102241516,-0.89,-5.05,-1.02,5.22
17.83694887161255,-1.87,-5.19,-1.99,5.86
17.84670901298523,-2.76,-5.0,-2.52,6.24
17.85642910003662,-3.27,-4.81,-2.32,6.26
17.867186069488525,-3.69,-4.67,-2.57,6.48
17.87653398513794,-4.36,-4.11,-3.56,6.96
17.923861980438232,-5.3,-3.42,-4.56,7.78
17.92412805557251,-5.93,-2.61,-5.73,8.64
17.924389839172363,-6.08,-1.64,-6.38,8.96
17.92465114593506,-6.8,-0.64,-7.22,9.93
17.926162004470825,-8.24,0.15,-8.26,11.66
17.93679904937744,-9.83,0.57,-9.02,13.35
17.946226119995117,-10.93,0.28,-9.14,14.25
17.956253051757812,-10.95,-0.54,-8.68,13.98
17.966963052749634,-9.92,-0.81,-8.01,12.77
17.976436138153076,-8.64,-0.77,-7.14,11.23
18.024410009384155,-7.69,-1.19,-6.33,10.03
18.024674892425537,-7.18,-2.21,-5.59,9.36
18.02493405342102,-8.14,2.1,-4.66,9.61
18.025192975997925,-3.39,-0.6,-4.11,5.36
18.026169061660767,3.1,-0.81,-2.57,4.1
18.036683082580566,20.37,13.91,21.97,33.03
18.046967029571533,20.24,15.8,15.38,29.93
18.0560941696167,1.03,12.18,-11.08,16.49
18.066804885864258,-6.77,3.55,-3.08,8.24
18.076254844665527,-11.95,0.5,-0.65,11.97
18.12435817718506,-12.75,-1.48,-7.91,15.07
18.12462615966797,-10.57,1.27,-4.11,11.41
18.124895095825195,-9.76,-1.34,-2.46,10.15
18.125155925750732,-7.11,-2.56,-7.0,10.3
18.126001834869385,-5.33,-1.34,-6.21,8.29
18.13652801513672,-3.77,-1.52,-3.92,5.64
18.14603900909424,-0.85,-0.88,-3.37,3.58
18.155985832214355,1.8,0.8,-2.67,3.31
18.166751861572266,3.36,1.81,-1.34,4.04
18.17606782913208,2.17,1.59,-1.09,2.9
18.22479486465454,-0.84,0.66,-2.51,2.72
18.225056171417236,-2.85,0.1,-2.67,3.9
18.225476026535034,-2.97,0.11,-1.45,3.3
18.22573709487915,-1.71,-0.01,-1.01,1.98
18.225994110107422,-0.86,-0.07,-0.96,1.29
18.237185955047607,-0.67,-0.11,-1.02,1.22
18.24574089050293,-0.39,-0.05,-1.02,1.09
18.255826950073242,0.01,0.08,-1.1,1.1
18.266549110412598,0.21,0.14,-1.15,1.17
18.27588415145874,0.18,0.12,-0.86,0.88
18.325229167938232,0.06,0.04,-0.34,0.34
18.325636863708496,-0.04,0.01,0.14,0.14
18.32589602470398,0.04,0.03,0.46,0.46
18.326154947280884,0.21,0.04,0.44,0.48
18.32641315460205,0.37,0.05,0.45,0.58
18.336227893829346,0.54,0.06,0.55,0.77
18.345841884613037,0.85,0.07,0.62,1.05
18.355703830718994,1.31,0.03,0.71,1.49
18.36641216278076,1.58,0.04,0.8,1.77
18.375718116760254,1.3,0.07,0.71,1.48
18.42504596710205,0.93,-0.03,0.64,1.12
18.42549705505371,0.64,-0.19,0.84,1.07
18.42576003074646,0.61,-0.2,1.11,1.28
18.426017999649048,0.87,-0.13,1.3,1.56
18.42628002166748,1.17,-0.03,1.54,1.93
18.436066150665283,1.4,-0.06,1.58,2.11
18.445516109466553,1.75,-0.2,1.55,2.34
18.455525875091553,2.02,-0.23,1.48,2.51
18.466369152069092,2.06,-0.04,1.23,2.39
18.475593090057373,1.91,0.13,0.89,2.11
18.526092052459717,1.45,0.34,0.98,1.78
18.526358127593994,1.15,0.44,1.32,1.8
18.5266170501709,1.19,0.43,1.44,1.91
18.526878833770752,1.21,0.52,1.36,1.89
18.527132987976074,1.46,0.78,1.16,2.02
18.535880088806152,1.63,1.16,0.92,2.2
18.545382022857666,1.46,1.68,0.48,2.27
18.5554039478302,1.19,2.32,0.42,2.64
18.56608009338379,0.99,2.66,1.24,3.09
18.575529098510742,1.11,3.01,2.03,3.79
18.62592601776123,2.02,3.25,2.27,4.44
18.626198053359985,2.42,3.55,2.49,4.96
18.626461029052734,2.43,4.0,2.61,5.35
18.626724004745483,2.73,5.74,2.16,6.71
18.626981019973755,4.49,7.43,2.37,8.99
18.635776042938232,5.7,7.48,4.0,10.21
18.645365953445435,5.68,7.68,5.03,10.79
18.655359029769897,6.33,8.7,6.18,12.4
18.665814876556396,7.56,9.47,6.92,13.95
18.675373077392578,8.05,9.45,6.54,14.03
18.726590156555176,7.1,8.93,5.97,12.87
18.726855993270874,6.6,8.25,4.97,11.67
18.72711992263794,6.5,7.45,1.34,9.97
18.7273850440979,5.44,7.85,-3.57,10.19
18.727645874023438,2.29,10.59,-6.68,12.72
18.73565697669983,-1.08,13.41,-4.82,14.29
18.745169162750244,-1.85,11.46,0.08,11.6
18.755125999450684,-0.47,6.37,0.57,6.41
18.766000986099243,1.58,2.79,0.14,3.2
18.775107860565186,-0.87,0.74,0.19,1.15
18.830549001693726,-4.11,1.64,-4.81,6.53
18.830811023712158,0.01,4.65,-2.47,5.26
18.83106803894043,4.32,3.97,1.51,6.05
18.831326961517334,6.69,1.51,3.29,7.6
18.83159303665161,6.45,-0.24,3.07,7.14
18.835451126098633,5.14,-1.14,1.55,5.48
18.844936847686768,4.37,-2.01,0.98,4.9
18.854865074157715,3.88,-2.78,1.33,4.95
18.865375995635986,2.8,-3.0,1.6,4.4
18.875094890594482,1.55,-2.94,2.1,3.93
18.927774906158447,0.26,-3.02,2.23,3.76
18.928042888641357,-0.43,-3.01,2.0,3.63
18.928303956985474,-0.31,-2.91,1.68,3.37
18.928560972213745,0.38,-2.77,1.55,3.19
18.9288170337677,1.27,-2.69,1.72,3.43
18.935287952423096,1.82,-2.53,1.86,3.62
18.944786071777344,1.84,-2.47,1.89,3.61
18.954766988754272,1.57,-2.55,1.97,3.58
18.965312957763672,1.2,-3.01,2.16,3.89
18.974903106689453,0.84,-3.68,1.94,4.24
19.028611183166504,0.57,-4.35,1.88,4.77
19.028882026672363,0.21,-4.68,1.83,5.02
19.029145002365112,0.11,-4.8,1.79,5.12
19.02940797805786,0.09,-4.89,1.66,5.16
19.029669046401978,-0.3,-4.9,0.88,4.98
19.035137176513672,-1.21,-4.8,-0.5,4.97
19.044600009918213,-2.39,-4.6,-1.3,5.34
19.05482816696167,-3.39,-4.66,-1.24,5.89
19.06547498703003,-4.04,-4.7,-1.56,6.39
19.07484483718872,-4.69,-4.51,-2.51,6.97
19.12832498550415,-5.47,-4.1,-3.49,7.67
19.12858486175537,-6.31,-3.19,-4.9,8.6
19.12884283065796,-6.25,-2.38,-5.77,8.83
19.12909984588623,-5.65,-1.91,-6.1,8.53
19.12936496734619,-6.58,-1.13,-7.13,9.76
19.134958028793335,-8.78,0.0,-8.54,12.24
19.144551992416382,-10.54,0.53,-9.55,14.23
19.154556035995483,-10.57,0.41,-9.74,14.37
19.211278915405273,-9.17,0.11,-9.36,13.1
19.21154499053955,-8.1,0.07,-8.76,11.93
19.21180295944214,-6.13,4.55,-7.78,10.89
19.21205997467041,-2.39,-1.81,-6.67,7.31
19.212321043014526,-5.76,0.52,-8.46,10.24
19.214645862579346,8.73,16.71,11.61,22.14
19.224346160888672,19.67,24.86,11.7,33.79
19.23488712310791,4.1,17.18,-11.85,21.26
19.24437403678894,-9.02,-5.56,-1.57,10.71
19.254405975341797,-12.69,-11.66,4.8,17.88
19.313220024108887,-10.95,-8.0,-4.99,14.45
19.313511848449707,-10.36,-3.81,-7.0,13.07
19.31380605697632,-8.76,-0.36,-4.24,9.73
19.314599990844727,-4.8,1.99,-1.69,5.46
19.314865112304688,-0.08,0.83,-0.97,1.27
19.315124988555908,2.61,0.26,-3.89,4.69
19.324303150177002,2.75,0.94,-4.56,5.4
19.334732055664062,0.54,1.03,-2.92,3.14
19.344223022460938,-1.42,1.02,-2.18,2.79
19.35423707962036,-1.7,0.76,-2.57,3.17
19.413409948349,-1.78,0.25,-2.39,2.99
19.41384196281433,-2.12,0.09,-1.67,2.7
19.41411018371582,-1.8,0.11,-1.33,2.24
19.414725065231323,-0.82,0.19,-1.61,1.81
19.41498899459839,-0.13,0.22,-1.67,1.68
19.415247917175293,-0.08,0.15,-1.2,1.21
19.424055099487305,-0.2,0.07,-0.75,0.77
19.43453884124756,-0.28,0.04,-0.33,0.43
19.44409418106079,-0.47,0.02,0.08,0.47
19.454113960266113,-0.41,0.01,0.35,0.53
19.51381015777588,-0.06,-0.04,0.63,0.63
19.51408100128174,0.5,-0.05,0.93,1.05
19.514698028564453,1.11,0.0,1.03,1.51
19.51496195793152,1.61,-0.06,0.98,1.88
19.5152268409729,1.72,-0.13,0.84,1.91
19.51550817489624,1.7,-0.12,0.73,1.85
19.52401113510132,1.78,-0.1,0.97,2.02
19.534503936767578,1.83,-0.07,1.3,2.24
19.543936014175415,1.64,-0.02,1.57,2.27
19.553972959518433,1.08,0.08,1.53,1.87
19.61368417739868,0.36,0.19,1.12,1.19
19.614057064056396,-0.28,0.16,0.71,0.77
19.61465883255005,-0.49,0.0,0.48,0.68
19.614922046661377,-0.36,-0.11,0.31,0.48
19.615181922912598,-0.05,-0.06,-0.02,0.08
19.615460872650146,0.23,0.1,-0.1,0.27
19.623759984970093,0.37,0.21,0.04,0.42
19.634336948394775,0.6,0.15,0.27,0.67
19.64377498626709,1.03,0.12,0.6,1.19
19.653883934020996,1.39,0.27,0.93,1.69
19.664485931396484,1.55,0.39,1.53,2.21
19.71401309967041,1.34,0.62,1.78,2.31
19.714282035827637,1.28,1.15,1.63,2.37
19.714879989624023,1.03,1.43,1.5,2.31
19.715142011642456,0.89,1.89,1.34,2.48
19.715403079986572,1.61,2.23,1.64,3.2
19.723620891571045,2.44,2.58,1.51,3.85
19.734328031539917,2.78,2.77,1.36,4.15
19.743574142456055,2.82,2.85,1.44,4.26
19.75370216369629,2.71,2.94,1.65,4.32
19.7642719745636,2.65,3.12,1.87,4.5
19.814491987228394,2.53,3.81,2.06,5.01
19.814754962921143,2.96,5.68,2.09,6.73
19.81501603126526,4.7,7.11,3.28,9.13
19.815274000167847,5.51,7.38,4.96,10.46
19.815552949905396,5.78,8.03,6.0,11.57
19.8235080242157,6.63,9.21,7.34,13.51
19.834056854248047,7.22,10.06,7.51,14.48
19.84349298477173,7.04,10.34,6.9,14.28
19.853490829467773,6.1,9.66,6.42,13.1
19.864112854003906,5.7,8.36,3.29,10.63
19.915825843811035,5.89,7.72,-1.06,9.76
19.916101932525635,4.53,9.12,-4.62,11.18
19.916368007659912,0.36,11.98,-4.06,12.65
19.916630029678345,-2.46,11.67,-1.0,11.96
19.916893005371094,-1.83,9.03,1.25,9.29
19.92323112487793,0.83,5.34,1.98,5.75
19.933969020843506,2.39,2.34,2.91,4.43
19.943379878997803,-1.41,0.03,0.82,1.63
19.953359127044678,-4.12,0.91,-4.94,6.49
19.963989973068237,0.32,4.01,-2.32,4.64
20.01547598838806,4.89,3.17,1.49,6.01
20.015737056732178,7.83,1.13,3.25,8.55
20.015995979309082,8.03,-0.87,4.55,9.27
20.016252994537354,6.47,-2.33,4.17,8.04
20.016510009765625,5.21,-2.91,3.15,6.74
20.02310609817505,3.95,-2.75,2.49,5.41
20.033771991729736,3.02,-2.33,2.93,4.8
20.043209075927734,2.31,-2.23,3.9,5.05
20.05323314666748,1.7,-2.21,4.01,4.88
20.06392002105713,0.85,-2.1,3.39,4.07
20.11649799346924,-0.17,-1.79,2.73,3.26
20.116764068603516,-0.95,-1.08,1.86,2.35
20.11702585220337,-0.15,-0.45,2.29,2.33
20.117284059524536,1.23,0.46,2.68,2.98
20.11754083633423,1.07,0.97,1.62,2.17
20.123121976852417,-1.58,0.31,0.02,1.61
20.133545875549316,-3.69,-0.13,-3.05,4.78
20.143115043640137,-4.13,-0.43,-4.2,5.9
20.153059005737305,-3.72,-1.54,-1.21,4.2
20.163694858551025,-2.39,-2.7,0.97,3.73
20.216538906097412,-1.97,-2.83,0.48,3.48
20.21680212020874,-2.42,-2.88,-0.26,3.77
20.217072010040283,-3.4,-3.02,-0.48,4.57
20.21732807159424,-4.39,-2.67,-0.28,5.14
20.217584133148193,-5.28,-2.4,-0.88,5.86
20.222968101501465,-6.28,-2.25,-2.48,7.11
20.23324489593506,-7.03,-1.99,-4.25,8.45
20.243000030517578,-7.71,-1.91,-5.36,9.58
20.252952098846436,-8.88,-2.17,-6.47,11.19
20.26357412338257,-9.62,-2.86,-6.59,12.0
20.3172390460968,-9.29,-3.79,-6.17,11.77
20.317501068115234,-8.55,-4.29,-6.56,11.59
20.317759037017822,-7.94,-4.42,-6.68,11.27
20.318016052246094,-7.77,-4.41,-6.61,11.11
20.318283081054688,-7.51,-4.15,-6.88,10.99
20.32275915145874,-6.72,-4.35,-6.7,10.43
20.333125114440918,-5.7,-4.86,-6.54,9.94
20.342761039733887,-5.22,-5.05,-6.33,9.63
20.352741956710815,-5.41,-5.46,-6.4,10.0
20.36336088180542,-6.66,1.32,-5.44,8.7
20.41719913482666,-1.23,-3.51,-4.49,5.83
20.41747498512268,4.74,3.31,1.77,6.04
20.41773295402527,18.13,24.29,24.03,38.67
20.41798996925354,8.29,30.13,-9.05,32.53
20.41824698448181,-2.06,10.86,-15.68,19.18
20.422657012939453,-7.7,-10.15,-7.21,14.63
20.433009147644043,-10.85,-6.54,-1.86,12.8
20.442541122436523,-11.14,-3.88,0.22,11.79
20.452582836151123,-11.32,-3.14,-4.88,12.72
20.463294982910156,-9.12,-0.74,-4.36,10.13
20.517518997192383,-4.42,-0.06,-1.78,4.76
20.517788887023926,0.44,-0.08,-1.51,1.57
20.518059968948364,3.1,0.63,-1.04,3.32
20.518322944641113,4.38,0.75,-0.7,4.49
20.518581867218018,3.03,0.57,-2.5,3.96
20.522429943084717,-0.3,0.93,-2.97,3.12
20.5330970287323,-2.38,0.83,-2.07,3.26
20.54246711730957,-1.89,0.54,-2.26,2.99
20.552435874938965,-1.34,0.31,-2.67,3.0
20.563133001327515,-1.64,0.21,-2.54,3.03
20.617970943450928,-1.18,0.23,-2.24,2.54
20.61824607849121,-0.15,0.2,-1.77,1.78
20.618515014648438,0.35,0.11,-1.2,1.25
20.61878490447998,0.15,-0.01,-0.66,0.67
20.619045972824097,-0.35,-0.06,-0.36,0.5
20.622251987457275,-0.55,-0.06,0.1,0.56
20.6331729888916,-0.38,-0.06,0.58,0.69
20.64247989654541,-0.17,-0.02,0.57,0.59
20.65226984024048,-0.03,0.01,0.38,0.38
20.663005828857422,0.02,0.05,0.31,0.31
20.717918872833252,0.05,0.11,0.26,0.28
20.718188047409058,0.27,0.1,0.21,0.35
20.718451023101807,0.41,0.09,0.32,0.52
20.718708992004395,0.55,0.06,0.52,0.75
20.718966960906982,0.89,0.14,0.69,1.13
20.72209405899048,1.22,0.22,0.94,1.55
20.73295497894287,1.24,0.17,0.94,1.56
20.742156982421875,0.85,0.08,0.77,1.14
20.753002166748047,0.24,0.04,0.71,0.75
20.76289415359497,0.01,0.0,0.85,0.85
20.81841802597046,0.21,0.0,1.09,1.11
20.818687915802002,0.92,0.01,1.02,1.37
20.818963050842285,1.68,-0.03,1.12,2.01
20.819223880767822,2.3,-0.1,1.45,2.72
20.819488048553467,2.89,0.04,1.63,3.31
20.82199501991272,3.02,0.39,1.41,3.35
20.83284616470337,2.57,0.66,1.33,2.96
20.842029094696045,1.92,0.71,1.4,2.48
20.852038860321045,1.36,0.81,1.21,1.99
20.86263084411621,1.04,1.2,0.88,1.81
20.919023990631104,0.87,1.67,0.79,2.04
20.919286966323853,1.47,2.25,1.0,2.86
20.91954803466797,1.65,2.11,1.82,3.23
20.919804096221924,1.82,2.32,1.97,3.54
20.920063018798828,2.47,2.59,1.88,4.04
20.92184591293335,2.68,2.76,2.28,4.47
20.93266010284424,3.01,2.93,2.54,4.9
20.941872119903564,3.3,3.69,2.7,5.63
20.951876163482666,3.31,5.62,2.56,7.0
20.962507009506226,4.8,7.82,2.73,9.57
21.018980026245117,6.64,7.67,4.64,11.15
21.019253969192505,6.14,7.36,5.19,10.89
21.01952600479126,5.4,7.63,5.75,10.97
21.019786834716797,4.74,8.11,6.94,11.67
21.020063877105713,5.1,8.83,6.57,12.13
21.021816968917847,5.84,9.55,4.55,12.08
21.03261709213257,6.3,9.27,2.97,11.59
21.04167604446411,6.55,8.57,0.12,10.78
21.051701068878174,5.12,9.02,-3.7,11.01
21.062443017959595,1.86,10.58,-4.6,11.68
21.119781970977783,-1.01,11.58,-2.32,11.85
21.12005305290222,-0.87,9.88,1.32,10.0
21.12031888961792,0.87,6.21,0.58,6.29
21.120579957962036,2.01,3.11,0.4,3.72
21.120850086212158,-0.78,0.49,0.45,1.02
21.12158203125,-3.47,1.39,-3.75,5.29
21.132084846496582,0.98,4.6,-1.93,5.08
21.141576051712036,5.04,3.77,1.78,6.54
21.151577949523926,6.9,1.83,3.09,7.77
21.162281036376953,6.78,0.2,4.7,8.25
21.22017502784729,5.6,-0.89,4.69,7.35
21.22044086456299,4.37,-1.22,3.54,5.75
21.22073197364807,3.3,-1.21,2.74,4.45
21.221163988113403,2.68,-1.36,2.83,4.12
21.221426010131836,2.23,-1.57,3.19,4.19
21.221683979034424,1.74,-1.8,3.35,4.18
21.23192310333252,0.82,-2.22,3.44,4.17
21.241427898406982,0.04,-2.36,3.12,3.91
21.25139808654785,0.04,-2.23,3.07,3.79
21.262094974517822,0.6,-2.2,3.42,4.11
21.32014799118042,1.38,-1.84,3.69,4.34
21.320410013198853,1.74,-1.23,3.52,4.11
21.32067108154297,0.85,-1.34,2.43,2.9
21.321085929870605,-0.78,-1.49,0.76,1.84
21.321342945098877,-1.64,-1.27,-1.37,2.48
21.321598052978516,-2.15,-1.5,-1.8,3.18
21.331732988357544,-2.52,-2.21,-0.62,3.4
21.341311931610107,-2.28,-2.74,-0.34,3.58
21.351312160491943,-2.22,-2.93,-0.85,3.77
21.36205291748047,-2.46,-2.84,-1.17,3.93
21.42097806930542,-2.99,-2.43,-1.42,4.1
21.421244144439697,-3.85,-2.07,-1.94,4.78
21.421504974365234,-4.96,-1.69,-2.86,5.96
21.421764850616455,-6.11,-1.19,-4.14,7.47
21.42202401161194,-7.01,-0.76,-5.64,9.02
21.42228412628174,-7.93,-0.47,-7.19,10.71
21.431641101837158,-8.35,-0.64,-7.84,11.47
21.441087007522583,-8.46,-1.22,-7.89,11.63
21.45102310180664,-8.67,-1.77,-7.83,11.81
21.461663007736206,-8.98,-2.16,-8.14,12.31
21.521131992340088,-8.74,-2.54,-8.94,12.75
21.521393060684204,-8.02,-2.86,-8.7,12.17
21.521655082702637,-7.39,-3.44,-7.72,11.22
21.52191400527954,-7.18,-4.12,-7.3,11.03
21.522171020507812,-7.44,-4.23,-7.41,11.32
21.52242612838745,-7.72,1.74,-6.61,10.31
21.531476974487305,-2.82,-2.8,-6.23,7.38
21.54098606109619,0.32,1.65,-2.92,3.36
21.551249027252197,12.44,15.4,20.11,28.21
21.561676025390625,14.62,14.81,8.37,22.43
21.621984004974365,0.79,13.62,-12.62,18.58
21.622509002685547,-5.56,1.42,-1.84,6.02
21.62278413772583,-9.96,-2.21,0.42,10.21
21.62305212020874,-11.5,-2.55,-4.69,12.67
21.623317003250122,-5.93,-2.24,-7.34,9.69
21.623576164245605,-7.02,-0.25,-6.55,9.6
21.631268978118896,-7.35,-0.37,-5.28,9.05
21.64066505432129,-4.68,0.24,-4.85,6.74
21.650740146636963,-1.98,-0.42,-3.6,4.12
21.66134786605835,0.22,-0.19,-1.84,1.86
21.723158836364746,1.45,0.47,-0.89,1.76
21.723423957824707,1.02,0.84,-0.91,1.6
21.723708152770996,-0.87,0.75,-1.71,2.05
21.723968982696533,-2.23,0.44,-2.15,3.12
21.724227905273438,-2.38,0.41,-1.58,2.88
21.724488019943237,-1.52,0.16,-1.05,1.85
21.73118805885315,-0.8,-0.05,-1.14,1.39
21.74080514907837,-0.6,-0.11,-1.35,1.48
21.750638961791992,-0.25,-0.1,-1.39,1.41
21.761420011520386,0.11,0.0,-1.33,1.33
21.82351016998291,0.07,0.11,-1.13,1.13
21.823781967163086,-0.29,0.13,-0.76,0.82
21.82405400276184,-0.58,0.04,-0.36,0.68
21.824313163757324,-0.61,-0.05,0.09,0.61
21.82457399368286,-0.42,-0.03,0.35,0.54
21.82483196258545,-0.08,0.04,0.4,0.4
21.83101201057434,0.44,0.09,0.39,0.59
21.840566158294678,0.88,0.16,0.45,1.0
21.850540161132812,1.1,0.17,0.51,1.22
21.861143112182617,1.08,0.1,0.47,1.18
21.92412805557251,1.05,0.09,0.32,1.1
21.92440414428711,1.03,0.07,0.29,1.07
21.924677848815918,1.1,0.06,0.51,1.21
21.924942016601562,1.2,0.08,0.81,1.45
21.925200939178467,0.96,0.13,1.29,1.61
21.925467014312744,0.83,0.18,1.43,1.66
21.930871963500977,0.88,0.13,1.29,1.56
21.940475940704346,0.79,0.0,1.27,1.49
21.950325965881348,0.85,-0.16,1.34,1.59
21.961007118225098,1.32,-0.28,1.12,1.75
22.023879051208496,1.76,-0.13,0.82,1.94
22.024144172668457,1.88,0.19,0.7,2.01
22.024405002593994,1.69,0.43,1.06,2.04
22.024662017822266,1.61,0.55,1.23,2.09
22.024924993515015,1.7,0.44,1.76,2.48
22.025179862976074,1.83,0.42,2.37,3.02
22.030717849731445,1.89,0.76,1.64,2.61
22.04023313522339,1.58,1.33,1.14,2.35
22.050338983535767,1.11,1.99,1.05,2.5
22.06089210510254,1.38,2.33,1.24,2.97
22.124515056610107,1.33,2.58,1.82,3.42
22.124786853790283,2.01,2.75,2.05,3.97
22.12505292892456,2.57,2.85,2.21,4.42
22.125317096710205,2.84,2.93,2.41,4.73
22.12558102607727,2.92,3.32,2.66,5.15
22.12584114074707,2.84,4.37,2.84,5.93
22.130568981170654,3.29,6.63,2.54,7.82
22.14001202583313,5.03,8.11,3.65,10.21
22.150338172912598,5.13,8.47,5.24,11.2
22.160686016082764,5.11,9.52,6.7,12.71
22.224997997283936,6.18,10.55,8.15,14.69
22.225276947021484,6.74,11.06,7.88,15.16
22.225548028945923,5.9,10.95,7.0,14.27
22.22581696510315,5.37,10.2,5.25,12.66
22.22608184814453,6.22,8.8,0.45,10.78
22.226348876953125,6.59,9.67,-4.85,12.66
22.230431079864502,2.35,13.82,-5.72,15.14
22.239899158477783,-3.58,14.88,-2.8,15.55
22.250200986862183,-2.77,10.88,-1.51,11.32
22.260627031326294,1.6,5.41,0.21,5.64
22.325520992279053,1.39,2.52,2.14,3.58
22.325793981552124,-4.81,1.35,-2.6,5.63
22.32606601715088,-4.37,3.55,-5.16,7.63
22.326332092285156,1.41,4.83,0.36,5.04
22.32659101486206,5.8,2.53,2.92,6.96
22.326864004135132,7.86,0.24,3.83,8.74
22.330239057540894,6.74,-0.96,3.96,7.87
22.33975100517273,5.33,-1.68,3.12,6.4
22.34973382949829,4.56,-2.31,2.62,5.74
22.36045789718628,3.82,-2.84,2.49,5.37
22.42613697052002,3.07,-3.06,2.66,5.08
22.426405906677246,2.38,-3.12,2.92,4.89
22.426663875579834,1.88,-3.17,2.91,4.69
22.426928997039795,1.51,-3.35,2.61,4.5
22.42718505859375,1.21,-3.46,2.33,4.34
22.427441120147705,1.25,-3.31,1.86,3.99
22.430166006088257,1.36,-3.17,1.5,3.76
22.439589977264404,1.4,-3.21,1.22,3.7
22.44966197013855,1.3,-3.35,1.09,3.75
22.46025514602661,0.98,-3.59,0.83,3.81
22.526530981063843,0.46,-4.19,0.52,4.24
22.526793003082275,-0.02,-4.92,0.46,4.94
22.527050971984863,-0.42,-5.45,0.5,5.48
22.52730894088745,-0.58,-5.76,0.58,5.81
22.527565002441406,-0.6,-5.61,0.35,5.65
22.527822971343994,-0.67,-5.35,-0.25,5.39
22.52991008758545,-1.15,-4.99,-1.1,5.23
22.539473056793213,-2.48,-4.58,-1.73,5.48
22.549479007720947,-4.58,-4.3,-2.04,6.6
22.56011199951172,-5.7,-3.78,-2.66,7.33
22.6265549659729,-5.74,-2.84,-3.49,7.29
22.626824855804443,-5.78,-1.76,-4.68,7.64
22.62709093093872,-5.99,-0.76,-5.95,8.47
22.627352952957153,-6.77,-0.01,-7.18,9.86
22.627617835998535,-8.42,0.53,-8.09,11.68
22.627882957458496,-10.45,1.04,-8.71,13.64
22.629863023757935,-11.66,1.09,-9.1,14.83
22.63935899734497,-11.78,0.57,-9.34,15.04
22.649322986602783,-10.89,0.06,-9.34,14.34
22.66005802154541,-9.47,-0.49,-8.34,12.62
22.72735905647278,-8.26,-1.24,-6.97,10.87
22.727633953094482,-8.1,0.15,-6.79,10.57
22.727892875671387,-6.2,3.4,-6.37,9.51
22.728150844573975,0.48,-2.55,-5.6,6.17
22.728405952453613,9.68,7.55,9.61,15.59
22.728710174560547,24.33,15.66,28.38,40.52
22.72966194152832,13.16,15.26,-0.28,20.15
22.739218950271606,-3.33,10.16,-10.09,14.7
22.74922513961792,-11.58,1.58,-1.72,11.81
22.759847164154053,-14.65,-5.19,-2.67,15.76
22.827512979507446,-12.32,-2.53,-0.03,12.57
22.827785968780518,-9.75,-2.51,-3.9,10.79
22.828050136566162,-6.08,-1.89,-7.41,9.76
22.82832384109497,-3.14,-0.31,-6.94,7.62
22.828600883483887,-2.57,0.32,-4.45,5.14
22.82903814315796,-1.39,0.42,-3.06,3.38
22.829813957214355,1.16,0.7,-3.15,3.42
22.839016914367676,2.52,1.02,-2.43,3.64
22.84900188446045,1.15,1.11,-1.16,1.97
22.859673023223877,-1.0,0.72,-0.44,1.3
22.929157972335815,-2.07,0.19,-0.81,2.23
22.92941904067993,-2.13,-0.05,-1.02,2.36
22.929678916931152,-1.57,-0.17,-0.43,1.63
22.929934978485107,-0.89,-0.12,-0.75,1.17
22.930194854736328,-0.42,0.01,-1.21,1.28
22.93045711517334,-0.01,0.09,-1.18,1.18
22.93124794960022,0.16,0.14,-1.04,1.06
22.938889980316162,0.03,0.14,-0.8,0.81
22.948856830596924,-0.2,0.06,-0.61,0.64
22.959546089172363,-0.36,-0.04,-0.32,0.48
23.028849124908447,-0.36,-0.11,0.09,0.38
23.029114961624146,-0.3,-0.1,0.52,0.6
23.029385089874268,-0.07,-0.02,0.88,0.88
23.02964687347412,0.44,0.14,1.21,1.29
23.02990698814392,1.3,0.16,1.32,1.85
23.03016495704651,1.96,0.2,1.14,2.27
23.030960083007812,1.8,0.21,0.35,1.84
23.039093017578125,1.37,0.04,0.32,1.4
23.048853874206543,1.4,-0.16,0.96,1.7
23.059338092803955,1.71,-0.16,1.63,2.36
23.129482984542847,1.47,0.0,1.86,2.37
23.129745960235596,1.08,0.12,1.51,1.86
23.130007028579712,1.01,0.06,1.53,1.83
23.13027811050415,1.38,-0.03,1.29,1.88
23.130550861358643,1.77,-0.07,0.75,1.92
23.130812168121338,1.62,0.07,0.6,1.72
23.13161611557007,1.06,0.31,0.45,1.19
23.13855791091919,0.54,0.48,0.39,0.82
23.148648977279663,0.39,0.44,0.63,0.86
23.15921115875244,0.86,0.37,1.06,1.41
23.22909116744995,1.5,0.51,1.27,2.03
23.2293701171875,1.77,0.48,1.77,2.54
23.229629039764404,1.98,0.76,1.95,2.88
23.229891061782837,2.05,1.49,1.67,3.03
23.230159044265747,1.73,1.75,1.51,2.88
23.23042917251587,1.04,2.2,1.39,2.8
23.231182098388672,1.22,2.41,1.39,3.03
23.238404989242554,1.7,2.58,1.58,3.47
23.248409032821655,2.29,2.58,2.0,3.98
23.259128093719482,2.93,2.84,2.53,4.8
23.32957887649536,3.32,3.2,3.08,5.54
23.329854011535645,3.31,4.08,3.34,6.22
23.330119132995605,3.11,6.27,3.06,7.63
23.330379962921143,3.93,8.99,3.27,10.34
23.330641984939575,5.02,10.56,5.7,13.0
23.33090114593506,5.7,11.52,7.65,14.95
23.331702947616577,7.18,12.41,8.08,16.45
23.3381929397583,7.77,12.4,7.97,16.66
23.34831190109253,6.66,11.23,7.55,15.08
23.35894799232483,6.75,9.4,4.07,12.26
23.430283069610596,7.43,8.61,-1.28,11.44
23.430549144744873,4.79,10.32,-4.8,12.34
23.430808067321777,-2.68,13.76,-4.3,14.66
23.43106508255005,-4.63,13.28,-2.92,14.36
23.43132209777832,0.84,7.74,-0.38,7.79
23.431576013565063,2.58,3.46,1.79,4.67
23.43236804008484,-2.9,2.26,-1.91,4.14
23.43804097175598,-5.1,3.59,-6.68,9.13
23.44815683364868,0.41,5.44,-1.34,5.61
23.45874786376953,5.2,3.65,2.24,6.73
23.53103995323181,7.99,1.68,2.37,8.5
23.53130292892456,7.19,0.69,1.88,7.46
23.531564950942993,5.56,-0.12,1.24,5.69
23.531826972961426,4.85,-1.17,0.95,5.07
23.53208589553833,4.34,-2.02,1.15,4.92
23.532346963882446,3.59,-2.36,1.33,4.49
23.533133029937744,2.59,-2.74,1.51,4.06
23.538054943084717,1.69,-3.39,1.7,4.15
23.54793906211853,1.18,-3.92,1.7,4.43
23.55862808227539,1.07,-4.23,1.72,4.69
23.631903171539307,1.11,-4.37,1.6,4.78
23.63216805458069,1.07,-4.33,1.16,4.6
23.63242483139038,1.04,-4.29,0.79,4.48
23.632680892944336,0.91,-4.39,0.51,4.51
23.632936000823975,0.7,-4.61,0.22,4.66
23.63319206237793,0.55,-5.02,0.15,5.05
23.63398790359497,0.38,-5.72,0.29,5.73
23.637847900390625,0.34,-6.29,0.66,6.33
23.64783811569214,0.39,-6.7,0.86,6.76
23.658470153808594,0.21,-7.09,1.39,7.22
23.73190212249756,-0.22,-7.3,1.52,7.45
23.732169151306152,-0.39,-7.19,1.26,7.3
23.732431888580322,-0.88,-6.65,0.31,6.71
23.732694149017334,-2.31,-5.9,-1.17,6.44
23.732954025268555,-4.35,-5.03,-2.71,7.18
23.73321008682251,-6.53,-4.09,-3.79,8.58
23.733980178833008,-7.31,-3.2,-4.27,9.05
23.73770499229431,-7.18,-2.13,-4.87,8.93
23.747647047042847,-7.71,-0.73,-6.44,10.07
23.75830101966858,-8.74,0.36,-7.87,11.76
23.83102297782898,-9.65,0.57,-8.31,12.74
23.831938982009888,-10.35,0.3,-8.51,13.4
23.832200050354004,-10.34,0.04,-8.26,13.23
23.832465171813965,-9.56,-0.03,-8.0,12.46
23.832721948623657,-8.44,0.1,-7.92,11.57
23.83298110961914,-7.47,-0.07,-7.73,10.74
23.833790063858032,-7.09,-0.5,-7.25,10.15
23.837594985961914,-7.97,3.17,-6.98,11.05
23.84752607345581,-5.45,1.76,-5.01,7.6
23.858169078826904,0.91,-0.65,-5.66,5.76
23.932156085968018,13.98,13.57,15.13,24.66
23.933089017868042,18.0,15.14,17.14,29.1
23.933357000350952,7.85,11.71,-6.59,15.56
23.933614015579224,1.47,8.1,-5.19,9.73
23.933871030807495,-6.95,2.99,-1.18,7.65
23.93412685394287,-12.6,-1.87,-2.88,13.05
23.93523406982422,-11.14,-2.07,0.02,11.33
23.937438011169434,-9.81,-2.41,-2.68,10.45
23.947373867034912,-7.16,-2.05,-6.02,9.57
23.95796799659729,-3.89,-0.1,-5.12,6.43
23.96741008758545,-1.61,0.75,-4.46,4.8
24.03269600868225,-0.45,0.81,-4.47,4.56
24.032963037490845,0.78,0.88,-4.02,4.18
24.033226013183594,1.01,0.85,-2.97,3.25
24.03348684310913,0.18,0.77,-2.2,2.33
24.033748149871826,-0.53,0.58,-1.67,1.84
24.034535884857178,-0.83,0.42,-1.25,1.55
24.03729796409607,-0.76,0.3,-0.78,1.12
24.047308921813965,-0.73,0.11,-0.05,0.73
24.057907104492188,-0.64,-0.14,0.54,0.84
24.067291975021362,0.03,-0.26,0.67,0.71
24.13328218460083,0.73,-0.17,0.85,1.13
24.133545875549316,0.96,-0.14,1.08,1.45
24.133802890777588,0.83,-0.16,0.82,1.17
24.134058952331543,0.79,-0.15,0.3,0.85
24.134310007095337,0.84,-0.14,0.01,0.85
24.135450839996338,0.73,-0.11,0.2,0.76
24.137094020843506,0.64,-0.03,0.3,0.7
24.147215843200684,0.5,0.0,0.25,0.55
24.157644033432007,0.54,0.02,0.13,0.55
24.167219161987305,0.89,0.04,0.25,0.92
24.233433961868286,1.56,0.08,0.75,1.73
24.23370099067688,2.15,0.13,1.29,2.51
24.23396587371826,2.31,0.1,1.38,2.69
24.234227180480957,2.01,0.01,0.98,2.23
24.234489917755127,1.46,-0.04,0.74,1.63
24.235622882843018,0.72,-0.17,0.67,0.99
24.23690104484558,0.22,-0.27,0.69,0.77
24.246870040893555,0.31,-0.3,0.56,0.7
24.25750207901001,0.6,-0.29,0.58,0.88
24.266974925994873,0.88,-0.18,0.68,1.12
24.332784175872803,1.06,0.04,0.37,1.12
24.333050966262817,1.07,0.23,-0.08,1.09
24.3333101272583,0.71,0.27,-0.02,0.75
24.33356499671936,0.37,0.15,0.45,0.6
24.333822011947632,0.62,0.01,1.03,1.2
24.334607124328613,1.35,-0.09,1.5,2.02
24.336793899536133,1.97,-0.02,1.84,2.69
24.346771001815796,2.16,0.31,1.96,2.93
24.357411861419678,1.92,0.83,1.6,2.63
24.366815090179443,1.58,1.25,0.71,2.13
24.43569302558899,1.2,1.72,0.35,2.12
24.435967922210693,1.39,2.41,0.6,2.84
24.436416149139404,1.55,2.59,1.42,3.33
24.436673164367676,1.67,2.78,2.05,3.83
24.43693208694458,2.43,3.13,2.48,4.67
24.437724113464355,2.62,3.53,2.93,5.28
24.437989950180054,2.74,4.55,2.8,6.0
24.44654893875122,3.5,6.77,2.16,7.92
24.457158088684082,5.09,8.04,3.02,9.98
24.466761112213135,5.04,8.31,4.24,10.6
24.532876014709473,4.66,9.13,5.59,11.67
24.533148050308228,5.3,10.04,7.26,13.47
24.533411026000977,6.38,10.48,7.22,14.23
24.533674001693726,7.21,11.06,5.42,14.27
24.533935070037842,7.11,10.92,4.64,13.83
24.534728050231934,6.78,9.51,2.54,11.95
24.536471843719482,6.35,8.8,-2.25,11.08
24.54644203186035,3.14,9.68,-5.42,11.52
24.5571608543396,-1.8,11.79,-5.02,12.94
24.5665340423584,-3.6,11.38,-2.18,12.13
24.633296966552734,-0.78,6.6,0.05,6.64
24.633556842803955,2.02,2.75,1.56,3.75
24.633815050125122,-1.56,0.79,-0.24,1.76
24.634073972702026,-4.33,2.43,-5.2,7.18
24.63433003425598,0.91,4.59,-0.77,4.74
24.63553810119629,5.47,2.98,2.7,6.78
24.636327028274536,7.47,0.95,3.16,8.16
24.64634609222412,6.46,-0.2,2.71,7.0
24.656981945037842,4.86,-1.08,1.65,5.24
24.66645908355713,3.82,-1.86,1.0,4.36
24.733369827270508,2.96,-2.16,1.11,3.82
24.733643054962158,1.92,-2.21,1.56,3.31
24.733903884887695,1.1,-2.27,1.89,3.15
24.73416304588318,0.42,-2.51,2.0,3.23
24.73442316055298,-0.25,-2.76,1.76,3.28
24.735558032989502,-0.55,-2.92,1.7,3.42
24.73613691329956,-0.5,-2.97,1.75,3.48
24.74623203277588,-0.32,-2.71,1.38,3.05
24.756814002990723,-0.08,-2.37,1.14,2.63
24.766247034072876,0.07,-2.39,1.16,2.65
24.83382797241211,0.02,-2.65,1.01,2.83
24.83409309387207,-0.22,-3.15,0.8,3.25
24.834354877471924,-0.45,-3.86,0.65,3.94
24.834614992141724,-0.47,-4.55,0.62,4.61
24.834869861602783,-0.46,-5.3,0.8,5.37
24.836169004440308,-0.35,-5.89,1.23,6.02
24.836442947387695,0.09,-6.2,1.53,6.38
24.846044063568115,0.38,-6.22,1.78,6.48
24.856688976287842,0.35,-6.21,2.16,6.58
24.866011142730713,0.17,-5.98,2.22,6.38
24.933846950531006,-0.37,-5.69,1.45,5.88
24.934114933013916,-1.58,-5.27,0.22,5.5
24.934375047683716,-2.97,-4.45,-1.35,5.51
24.934632062911987,-4.51,-3.55,-2.65,6.32
24.93488883972168,-5.86,-3.18,-3.49,7.52
24.936177968978882,-6.76,-2.95,-4.38,8.57
24.93643808364868,-7.18,-2.31,-5.14,9.12
24.945858001708984,-7.02,-1.52,-5.63,9.12
24.956527948379517,-6.75,-1.05,-6.01,9.09
24.965960025787354,-7.27,-0.8,-6.43,9.73
25.034175872802734,-8.36,-0.56,-6.92,10.86
25.034440994262695,-9.19,-0.33,-7.46,11.84
25.034703016281128,-9.04,-0.17,-7.66,11.85
25.034964084625244,-8.2,-0.35,-7.71,11.26
25.03524684906006,-7.88,-0.85,-7.68,11.03
25.036550045013428,-8.14,-1.73,-7.29,11.06
25.03683090209961,-9.09,-1.06,-7.09,11.57
25.04569101333618,-7.99,3.74,-6.88,11.18
25.056325912475586,2.66,1.43,-3.21,4.4
25.06594204902649,21.03,13.9,21.58,33.18
25.133853912353516,27.9,21.66,21.12,41.15
25.134130001068115,3.45,19.59,-14.93,24.87
25.13439702987671,-6.66,3.71,-5.42,9.35
25.134660005569458,-11.36,-5.1,0.39,12.45
25.134932041168213,-12.22,-5.79,-1.93,13.65
25.136322021484375,-9.2,-3.29,-1.29,9.85
25.136587142944336,-8.63,-2.52,-5.97,10.79
25.14554786682129,-6.49,-0.2,-6.96,9.51
25.15627908706665,-3.6,1.1,-3.69,5.27
25.16597604751587,-1.54,0.34,-2.54,2.98
25.23395013809204,0.54,0.09,-2.89,2.94
25.234210968017578,1.67,0.52,-2.07,2.71
25.23446798324585,0.87,0.64,-0.7,1.28
25.23474407196045,-1.25,0.5,-1.0,1.67
25.23500394821167,-2.21,0.24,-1.84,2.88
25.236265182495117,-1.9,0.26,-1.86,2.67
25.236526012420654,-1.43,0.06,-1.38,1.98
25.24543809890747,-0.72,-0.08,-0.72,1.02
25.256020069122314,-0.11,-0.02,-0.81,0.81
25.265486001968384,0.17,-0.03,-1.14,1.15
25.334058046340942,0.06,-0.04,-0.94,0.94
25.334326028823853,-0.12,0.06,-0.84,0.85
25.334614038467407,-0.4,0.19,-0.7,0.82
25.33488702774048,-0.6,0.13,-0.32,0.69
25.335309982299805,-0.62,0.01,0.13,0.63
25.336419105529785,-0.39,-0.06,0.47,0.61
25.33667802810669,-0.03,-0.1,0.72,0.72
25.34527897834778,0.19,-0.09,0.81,0.83
25.35608196258545,0.56,-0.02,0.85,1.01
25.36539602279663,1.0,0.11,0.76,1.26
25.434169054031372,1.29,0.23,0.66,1.46
25.43441390991211,1.2,0.24,0.66,1.39
25.434700965881348,1.07,0.16,0.74,1.31
25.43514394760132,1.18,0.11,0.95,1.51
25.435399055480957,1.04,-0.05,1.28,1.65
25.43647813796997,0.71,-0.12,1.41,1.58
25.43674087524414,0.83,-0.06,1.22,1.47
25.445176124572754,1.3,-0.05,1.02,1.65
25.455748081207275,1.55,-0.07,0.94,1.81
25.465110063552856,1.65,-0.06,0.99,1.92
25.53421902656555,1.71,-0.03,0.92,1.94
25.534514904022217,1.75,0.04,0.79,1.92
25.534964084625244,1.73,0.15,0.81,1.91
25.535221099853516,1.8,0.18,0.93,2.03
25.53547501564026,1.69,0.16,0.91,1.92
25.53659200668335,1.24,0.05,1.19,1.71
25.536854028701782,1.18,0.3,1.32,1.79
25.54501485824585,1.32,0.77,1.01,1.83
25.55573797225952,1.27,1.14,0.59,1.8
25.564999103546143,1.15,1.64,0.35,2.03
25.63440704345703,1.53,2.21,0.84,2.81
25.6348659992218,1.87,2.44,0.96,3.22
25.63512897491455,2.12,3.31,1.29,4.13
25.63540005683899,2.45,3.61,1.7,4.68
25.63565683364868,2.47,3.78,2.33,5.08
25.63676905632019,2.6,4.44,2.73,5.82
25.637033939361572,2.91,6.57,2.29,7.54
25.64488196372986,4.51,8.34,2.81,9.88
25.65560293197632,5.03,8.76,4.54,11.07
25.66495990753174,4.89,9.46,5.81,12.13
25.734178066253662,5.37,10.41,6.79,13.53
25.734621047973633,5.98,10.93,7.0,14.29
25.734879970550537,6.65,11.28,6.22,14.49
25.73513698577881,7.0,11.52,5.52,14.56
25.735393047332764,6.35,10.18,4.14,12.69
25.736525058746338,5.89,8.5,-0.07,10.34
25.736783981323242,4.56,8.74,-4.03,10.64
25.744776010513306,0.67,11.22,-4.26,12.02
25.75527286529541,-2.86,12.56,-2.28,13.08
25.764678955078125,-1.23,8.03,0.52,8.14
25.834824085235596,1.36,3.71,2.89,4.89
25.83509397506714,-1.14,2.3,1.83,3.15
25.83536386489868,-5.4,3.24,-4.77,7.9
25.835630893707275,-1.03,5.61,-2.12,6.08
25.835894107818604,4.02,4.13,2.7,6.36
25.8370361328125,6.32,1.81,3.26,7.33
25.83730411529541,5.33,0.3,2.72,5.99
25.844563007354736,3.29,-0.61,1.96,3.87
25.855216026306152,2.16,-1.48,1.88,3.22
25.864743947982788,1.69,-2.18,2.18,3.51
25.935570001602173,1.37,-2.53,2.47,3.79
25.93583917617798,1.14,-2.74,2.68,3.99
25.9360990524292,0.91,-2.91,2.91,4.21
25.93670105934143,0.62,-3.07,2.94,4.29
25.93696403503418,0.42,-3.25,2.72,4.25
25.93776512145996,0.58,-3.4,2.49,4.25
25.938029050827026,0.75,-3.47,2.25,4.2
25.94443416595459,0.87,-3.46,1.95,4.06
25.955026149749756,1.09,-3.54,1.76,4.1
25.964600086212158,1.26,-3.76,1.63,4.28
26.03489398956299,1.29,-4.25,1.7,4.75
26.03515601158142,1.17,-4.86,1.93,5.35
26.035413026809692,1.07,-5.33,1.84,5.73
26.03567600250244,1.09,-5.82,1.95,6.23
26.03593111038208,1.26,-6.26,2.38,6.81
26.037063121795654,0.92,-6.33,2.64,6.91
26.03732395172119,0.57,-6.39,2.5,6.88
26.044311046600342,0.19,-6.26,1.78,6.51
26.054702043533325,-1.18,-5.87,0.31,5.99
26.06431484222412,-2.86,-5.36,-1.29,6.21
26.134711980819702,-3.91,-4.78,-1.95,6.47
26.134987831115723,-4.57,-4.37,-2.0,6.63
26.135256052017212,-5.21,-3.66,-2.75,6.93
26.135522842407227,-5.84,-2.52,-4.3,7.67
26.13578510284424,-6.06,-1.39,-5.48,8.28
26.13695192337036,-6.06,-0.51,-5.8,8.4
26.13722515106201,-6.51,0.33,-6.06,8.9
26.144103050231934,-7.29,1.28,-6.52,9.86
26.154600143432617,-7.95,2.07,-7.03,10.81
26.164320945739746,-8.07,2.14,-7.87,11.47
26.23528504371643,-8.42,1.52,-10.22,13.32
26.235548973083496,-9.07,0.8,-10.58,13.95
26.235808849334717,-9.52,-0.36,-8.77,12.94
26.23606586456299,-10.06,-1.77,-7.55,12.7
26.23632287979126,-10.58,-0.85,-7.65,13.08
26.2374370098114,-6.86,5.03,-7.19,11.13
26.237698078155518,1.23,4.44,-3.37,5.7
26.24415397644043,16.51,16.66,23.51,33.2
26.25441598892212,28.46,21.08,19.97,40.65
26.26405906677246,5.91,20.47,-12.62,24.76
26.335628986358643,-7.19,1.89,-5.26,9.1
26.33590602874756,-13.66,-10.31,2.74,17.33
26.336178064346313,-13.14,-9.44,3.03,16.46
26.33643913269043,-10.26,-6.7,-4.55,13.07
26.337029933929443,-8.57,-3.13,-8.29,12.32
26.33785390853882,-4.75,1.17,-7.17,8.67
26.338119983673096,-1.78,2.69,-3.94,5.09
26.343873977661133,-0.34,1.53,-3.26,3.61
26.3544499874115,0.73,0.5,-4.36,4.44
26.36391305923462,1.54,0.43,-3.52,3.86
26.43572187423706,0.78,0.61,-1.74,2.0
26.435983180999756,-0.86,0.7,-1.09,1.55
26.436244010925293,-1.46,0.45,-1.08,1.87
26.436501026153564,-1.38,0.11,-0.9,1.65
26.43708610534668,-1.15,-0.13,-0.46,1.24
26.437896966934204,-0.82,-0.22,-0.05,0.85
26.43815517425537,-0.37,-0.17,0.01,0.4
26.443870067596436,-0.39,-0.14,-0.32,0.52
26.454522132873535,-0.47,-0.05,-0.85,0.97
26.463765144348145,-0.57,0.11,-1.04,1.19
26.53593897819519,-0.54,0.15,-0.71,0.9
26.536201000213623,-0.35,0.07,-0.32,0.47
26.536458015441895,-0.27,-0.01,-0.13,0.29
26.537035942077637,-0.24,-0.12,0.14,0.3
26.537296056747437,-0.21,-0.14,0.4,0.47
26.5380699634552,-0.1,0.03,0.4,0.41
26.53832697868347,0.24,0.2,0.35,0.46
26.543532848358154,0.76,0.21,0.49,0.92
26.61922597885132,1.28,0.18,0.62,1.43
26.619488954544067,1.4,0.19,0.76,1.6
26.61974596977234,1.29,0.17,0.69,1.47
26.6200008392334,0.89,0.13,0.61,1.08
26.620622158050537,0.3,0.03,0.53,0.6
26.620882987976074,-0.34,-0.01,0.45,0.56
26.621170043945312,-0.77,0.01,0.37,0.85
26.623828887939453,-0.77,-0.07,0.5,0.92
26.63331890106201,0.18,-0.11,0.69,0.72
26.643374919891357,1.78,-0.13,1.18,2.13
26.71957302093506,3.28,-0.27,1.59,3.65
26.71983504295349,4.17,-0.31,1.58,4.47
26.72044086456299,4.07,-0.05,1.51,4.34
26.720703125,3.68,0.22,1.84,4.12
26.72096014022827,3.04,0.15,2.23,3.77
26.72123384475708,2.45,0.2,1.94,3.13
26.72148895263672,2.38,0.34,1.36,2.76
26.723750114440918,2.35,0.62,0.95,2.6
26.733294010162354,2.22,1.22,0.42,2.56
26.743412017822266,1.83,1.76,-0.02,2.53
26.8191339969635,1.58,2.1,0.03,2.62
26.819395065307617,1.9,2.71,0.29,3.32
26.81965398788452,2.1,3.15,1.63,4.12
26.819911003112793,1.85,3.21,2.57,4.5
26.820530891418457,1.96,4.06,2.53,5.16
26.820791959762573,1.94,6.56,2.07,7.14
26.821046829223633,3.76,8.79,2.47,9.87
26.82357406616211,5.63,9.04,4.59,11.59
26.8331241607666,6.07,9.46,4.95,12.28
26.843086004257202,6.21,9.94,5.44,12.92
26.919486045837402,5.79,10.03,5.95,13.02
26.91975998878479,5.83,10.29,5.53,13.05
26.92002010345459,6.63,10.08,4.41,12.84
26.92063617706299,7.12,9.56,2.55,12.18
26.92089605331421,7.38,8.66,0.06,11.37
26.921154022216797,5.73,8.63,-3.5,10.93
26.921424865722656,2.35,9.37,-4.72,10.75
26.923327922821045,-0.43,10.79,-3.7,11.41
26.93294596672058,-1.87,8.98,-1.64,9.31
26.943022966384888,-0.2,4.98,-1.03,5.08
27.018408060073853,0.37,2.02,0.71,2.17
27.019463062286377,-2.16,1.92,-2.81,4.03
27.019731998443604,1.93,4.65,-2.22,5.5
27.019996166229248,6.68,4.42,2.04,8.26
27.020255088806152,8.0,3.01,3.54,9.25
27.020883083343506,6.22,2.17,3.69,7.55
27.021143913269043,4.48,1.73,1.95,5.18
27.023288011550903,4.1,1.24,1.1,4.42
27.032819032669067,3.86,0.63,1.56,4.21
27.043004035949707,3.04,-0.14,2.09,3.69
27.053470134735107,1.99,-0.98,2.44,3.29
27.1192409992218,0.97,-1.6,2.39,3.03
27.1195068359375,-0.18,-2.03,2.15,2.96
27.119771003723145,-1.37,-2.32,1.58,3.12
27.120037078857422,-2.04,-2.62,1.26,3.55
27.120296955108643,-2.1,-2.88,1.09,3.72
27.12092900276184,-1.95,-2.78,0.67,3.46
27.12330198287964,-1.68,-2.61,0.12,3.1
27.132688999176025,-1.6,-3.06,0.22,3.46
27.142623901367188,-1.33,-3.8,0.48,4.05
27.153292179107666,-0.87,-4.53,0.77,4.67
27.219411849975586,-0.48,-5.33,1.53,5.56
27.21967601776123,-0.46,-5.85,2.01,6.2
27.219921112060547,-0.46,-5.96,2.0,6.3
27.2201828956604,-0.52,-5.84,1.68,6.09
27.2204430103302,-1.04,-5.72,1.08,5.91
27.221065044403076,-1.78,-5.59,0.45,5.88
27.223047018051147,-3.05,-5.46,0.48,6.27
27.23245906829834,-4.08,-5.21,0.37,6.62
27.242531061172485,-4.61,-5.32,-0.24,7.04
27.253131866455078,-5.41,-5.44,-1.83,7.88
27.319121837615967,-6.16,-4.93,-3.88,8.79
27.319383144378662,-7.03,-4.15,-5.7,9.95
27.319651126861572,-7.95,-3.63,-6.86,11.11
27.319918155670166,-8.5,-3.36,-7.01,11.51
27.320173978805542,-8.86,-3.35,-6.77,11.64
27.3204288482666,-9.63,-3.3,-7.3,12.52
27.322870016098022,-10.18,-2.99,-7.87,13.21
27.33237314224243,-9.63,-2.91,-7.79,12.72
27.34237289428711,-8.09,-3.22,-7.31,11.36
27.352982997894287,-6.8,-3.25,-6.88,10.2
27.419219970703125,-6.39,-3.26,-6.93,9.97
27.419497966766357,-6.53,-3.55,-7.1,10.27
27.41975498199463,-7.03,-3.73,-7.16,10.7
27.420011043548584,-7.62,0.57,-7.9,10.99
27.42026710510254,-3.58,8.33,-3.83,9.84
27.420525074005127,23.68,12.74,17.04,31.83
27.422779083251953,33.64,28.49,24.02,50.2
27.432284832000732,3.72,26.11,-15.55,30.61
27.44222593307495,-0.6,5.47,-13.88,14.93
27.452864170074463,-8.99,-6.36,1.74,11.14
27.518020153045654,-15.98,-7.94,1.49,17.9
27.518301963806152,-12.48,-5.28,-4.14,14.16
27.51857089996338,-10.58,-2.29,-8.3,13.64
27.51883316040039,-8.09,0.22,-7.03,10.71
27.51909589767456,-4.21,1.49,-3.2,5.49
27.519358158111572,-0.81,0.7,-2.43,2.65
27.522444009780884,1.39,0.47,-2.14,2.59
27.532068014144897,2.49,0.77,-0.76,2.71
27.542073011398315,2.11,0.67,0.23,2.22
27.55264186859131,-0.2,0.48,-1.88,1.95
27.618911027908325,-1.3,0.41,-3.28,3.55
27.619173049926758,-0.82,0.56,-2.54,2.72
27.61943483352661,-0.49,0.54,-1.57,1.73
27.619693994522095,-0.71,0.19,-0.9,1.16
27.61995506286621,-0.59,-0.27,-0.63,0.9
27.620213985443115,-0.17,-0.43,-0.69,0.83
27.62231683731079,0.07,-0.36,-0.63,0.72
27.63190793991089,0.27,-0.07,-0.27,0.38
27.641906023025513,0.35,0.16,-0.01,0.38
27.652546882629395,0.22,0.14,0.43,0.5
27.718914031982422,-0.07,0.16,0.81,0.82
27.719176054000854,0.0,0.15,0.85,0.86
27.719436168670654,0.45,0.16,1.01,1.11
27.719693183898926,0.79,0.14,0.56,0.97
27.719949960708618,1.03,0.26,0.09,1.06
27.720190048217773,1.32,0.26,0.07,1.34
27.72215986251831,1.57,0.16,0.29,1.6
27.73173713684082,1.57,0.23,0.81,1.78
27.741798877716064,1.48,0.28,1.06,1.84
27.75233793258667,1.19,0.21,0.91,1.51
27.81892204284668,0.58,0.11,0.93,1.1
27.8191819190979,0.19,-0.01,0.99,1.0
27.819440841674805,-0.21,-0.11,0.94,0.96
27.81969690322876,-0.56,-0.3,1.0,1.18
27.8199520111084,-0.54,-0.53,1.04,1.28
27.820208072662354,-0.31,-0.62,0.8,1.05
27.822146892547607,0.01,-0.43,0.37,0.56
27.83159303665161,0.45,0.01,0.01,0.45
27.841597080230713,0.8,0.36,0.21,0.9
27.852236032485962,0.77,0.62,0.85,1.3
27.91866898536682,0.86,0.81,1.28,1.74
27.918931007385254,0.99,0.83,1.24,1.79
27.91919183731079,1.29,0.44,2.31,2.68
27.919450998306274,1.85,0.69,2.43,3.13
27.919708967208862,2.11,1.29,1.64,2.96
27.919968128204346,2.16,2.09,0.88,3.13
27.92226004600525,2.38,2.61,1.11,3.7
27.931493043899536,2.45,2.63,1.6,3.93
27.941577911376953,2.69,2.57,1.97,4.2
27.952096939086914,2.99,2.65,2.28,4.6
28.0185809135437,2.98,2.97,2.67,4.98
28.0188410282135,2.93,3.3,3.26,5.48
28.01909589767456,2.53,3.74,3.84,5.92
28.0193510055542,2.1,5.69,3.57,7.03
28.019603967666626,3.28,8.77,3.18,9.88
28.01986002922058,5.06,10.41,5.32,12.73
28.022147178649902,5.85,10.9,7.43,14.43
28.031339168548584,6.52,11.27,7.68,15.11
28.04140615463257,6.5,11.49,8.15,15.51
28.05195188522339,4.85,10.89,7.79,14.24
28.118781089782715,3.92,9.54,4.11,11.1
28.119045972824097,4.76,8.62,-1.71,9.99
28.11930799484253,3.92,10.35,-5.23,12.24
28.119569063186646,-1.73,13.19,-4.32,13.98
28.11982798576355,-5.24,12.7,-2.28,13.92
28.120087146759033,-1.46,8.96,-1.08,9.14
28.12205410003662,4.19,3.51,1.18,5.59
28.131260871887207,1.11,1.27,1.23,2.08
28.14114499092102,-4.57,0.97,-4.82,6.71
28.15181803703308,-2.02,3.5,-3.23,5.17
28.219086170196533,2.64,3.6,1.59,4.73
28.219345092773438,6.08,1.89,2.31,6.77
28.219599962234497,7.44,0.67,2.95,8.03
28.219856023788452,6.56,-0.53,3.5,7.45
28.22011089324951,5.55,-1.6,2.97,6.49
28.220365047454834,5.02,-1.99,1.81,5.69
28.221767902374268,4.4,-2.04,1.23,5.0
28.231081008911133,3.64,-2.15,1.51,4.48
28.24104404449463,2.86,-2.39,1.87,4.16
28.251659870147705,1.8,-2.61,1.51,3.51
28.318959951400757,0.86,-2.74,0.89,3.0
28.319222927093506,0.37,-2.75,0.61,2.84
28.319483995437622,0.29,-2.48,0.08,2.49
28.319746017456055,0.37,-2.16,-0.55,2.25
28.320006847381592,0.33,-2.03,-1.13,2.34
28.320268154144287,0.31,-2.09,-1.64,2.67
28.3213210105896,0.13,-2.54,-1.53,2.96
28.33086109161377,-0.13,-3.15,-1.27,3.39
28.341102123260498,-0.55,-3.57,-1.34,3.85
28.351544857025146,-1.01,-4.06,-1.19,4.34
28.41906499862671,-1.24,-4.68,-0.76,4.9
28.419323921203613,-1.15,-5.16,-0.46,5.3
28.4195818901062,-0.83,-5.49,-0.28,5.55
28.41983699798584,-0.42,-5.74,-0.02,5.75
28.420093059539795,-0.19,-5.95,0.18,5.95
28.420510053634644,-0.3,-6.0,-0.04,6.0
28.421272039413452,-0.62,-5.96,-0.64,6.02
28.43073797225952,-1.27,-5.75,-1.31,6.03
28.440757036209106,-2.2,-5.59,-2.22,6.4
28.451213836669922,-3.35,-5.46,-3.23,7.17
28.518611907958984,-4.24,-5.32,-4.12,7.95
28.518877029418945,-5.21,-5.01,-5.07,8.82
28.519136905670166,-6.09,-4.41,-6.15,9.71
28.519397020339966,-6.82,-3.77,-6.9,10.4
28.519657135009766,-7.72,-2.96,-7.68,11.28
28.51991605758667,-8.43,-2.25,-8.38,12.09
28.520977020263672,-8.8,-2.16,-8.73,12.58
28.530601024627686,-8.88,-2.22,-8.77,12.67
28.540606021881104,-9.0,-1.96,-8.88,12.79
28.551246166229248,-9.33,-2.21,-8.56,12.85
28.618456840515137,-9.54,-2.29,-8.09,12.71
28.61872386932373,-9.17,-2.0,-7.64,12.1
28.61898183822632,-9.61,0.63,-7.55,12.23
28.61923885345459,-6.43,7.16,-7.05,11.92
28.61949586868286,9.19,2.71,1.29,9.66
28.619752883911133,35.36,17.44,31.67,50.57
28.620912075042725,29.66,30.3,15.0,44.97
28.630470991134644,3.2,16.5,-16.21,23.35
28.640440940856934,-7.38,-5.14,-3.72,9.73
28.651039123535156,-16.6,-8.72,3.57,19.08
28.717774868011475,-22.07,-3.71,-0.52,22.38
28.718045949935913,-18.22,0.42,-5.11,18.92
28.718307971954346,-9.46,-0.53,-8.11,12.47
28.718567848205566,-3.46,0.63,-5.5,6.52
28.71882915496826,-1.98,0.56,-2.61,3.32
28.719089031219482,-0.48,0.08,-2.78,2.82
28.720810890197754,2.27,0.48,-3.56,4.24
28.73037600517273,3.0,0.88,-2.89,4.25
28.740374088287354,0.85,0.95,-1.64,2.07
28.750904083251953,-1.01,0.72,-0.89,1.52
28.818089962005615,-1.32,0.25,-0.93,1.63
28.818355083465576,-1.04,-0.14,-0.69,1.25
28.818615913391113,-0.76,-0.25,0.12,0.8
28.818876028060913,-0.11,-0.12,0.2,0.25
28.819136142730713,0.52,0.01,-0.07,0.52
28.819397926330566,0.8,-0.06,-0.23,0.83
28.82056498527527,0.59,-0.1,-0.36,0.69
28.830184936523438,0.32,-0.1,-0.5,0.6
28.840173959732056,0.12,-0.11,-0.6,0.62
28.850767135620117,0.04,0.0,-0.5,0.5
28.918352127075195,0.04,0.12,-0.14,0.18
28.918612957000732,-0.2,0.14,0.44,0.5
28.918874979019165,-0.59,0.07,0.75,0.95
28.91911792755127,-0.43,0.07,0.72,0.84
28.91937494277954,0.3,0.16,0.63,0.71
28.919797897338867,1.11,0.29,0.57,1.28
28.92056703567505,1.67,0.3,0.93,1.93
28.92999505996704,1.99,0.13,1.21,2.33
28.939971923828125,2.16,-0.03,1.34,2.54
28.950541973114014,2.07,-0.23,1.9,2.81
29.018805980682373,1.86,-0.43,2.27,2.96
29.019068002700806,1.98,-0.53,2.17,2.98
29.019329071044922,1.95,-0.59,1.9,2.78
29.019742965698242,1.55,-0.43,1.17,1.98
29.01999807357788,1.07,-0.09,0.2,1.09
29.02025318145752,0.85,0.31,-0.19,0.92
29.02101707458496,0.83,0.53,-0.16,0.99
29.029896020889282,0.83,0.48,0.04,0.95
29.040160179138184,0.84,0.35,0.48,1.02
29.050493001937866,0.94,0.22,0.98,1.37
29.118800163269043,0.87,0.2,1.44,1.69
29.119059085845947,0.79,0.33,1.7,1.9
29.11947798728943,0.73,0.6,1.11,1.45
29.119735956192017,0.76,1.01,0.6,1.39
29.119991064071655,0.82,1.43,0.92,1.88
29.1202449798584,1.72,1.87,1.2,2.8
29.12100601196289,1.96,2.16,1.65,3.35
29.129690170288086,1.91,2.48,1.95,3.68
29.13960886001587,2.07,2.94,2.03,4.12
29.15031599998474,2.07,2.96,2.53,4.4
29.219018936157227,2.37,3.37,2.72,4.93
29.21944808959961,3.03,4.87,2.57,6.28
29.219707012176514,4.81,6.84,2.69,8.78
29.219965934753418,6.6,7.47,4.11,10.78
29.22022795677185,6.21,7.73,4.55,10.9
29.220484972000122,5.66,8.74,5.42,11.73
29.221259117126465,6.04,10.15,7.33,13.9
29.22956609725952,7.15,11.07,7.53,15.17
29.23944616317749,7.73,11.11,6.69,15.09
29.250200033187866,7.29,10.12,5.83,13.76
29.3187198638916,7.17,8.65,2.31,11.47
29.31914710998535,6.67,8.61,-2.68,11.21
29.319408893585205,3.51,11.57,-5.72,13.37
29.31966495513916,-2.8,14.27,-4.03,15.09
29.3199200630188,-4.52,11.56,-1.5,12.5
29.320176124572754,0.22,5.99,0.84,6.05
29.32094383239746,2.34,3.08,2.44,4.57
29.32941484451294,-2.96,2.27,-1.95,4.2
29.33951997756958,-4.49,4.07,-6.18,8.65
29.349990844726562,0.77,5.49,-0.39,5.55
29.419611930847168,5.0,3.37,2.44,6.5
29.419870853424072,7.19,1.45,2.88,7.87
29.420126914978027,6.04,0.35,2.55,6.56
29.420382022857666,4.57,-0.63,1.57,4.87
29.42064094543457,3.67,-1.64,1.67,4.35
29.420902967453003,2.84,-2.29,2.02,4.17
29.421669006347656,2.02,-2.28,2.11,3.7
29.42925000190735,1.23,-2.17,2.46,3.5
29.439608097076416,0.48,-2.36,2.53,3.49
29.4499249458313,0.02,-2.53,2.22,3.36
29.519719123840332,-0.13,-2.76,1.92,3.36
29.520001888275146,0.01,-2.82,1.6,3.24
29.520269870758057,0.36,-2.83,1.5,3.22
29.520535945892334,0.73,-2.92,1.57,3.39
29.520799160003662,0.89,-3.11,1.6,3.6
29.521064043045044,0.84,-3.56,1.53,3.96
29.52186918258667,0.69,-4.38,1.58,4.7
29.529158115386963,0.38,-5.33,1.75,5.62
29.539499044418335,-0.04,-6.24,2.14,6.59
29.549745082855225,-0.23,-7.07,2.38,7.46
29.619593143463135,-0.56,-7.75,2.53,8.17
29.61985683441162,-0.89,-8.08,2.79,8.59
29.620112895965576,-0.9,-7.78,2.6,8.25
29.620376110076904,-1.14,-7.27,1.78,7.57
29.62063503265381,-2.0,-6.67,0.7,6.99
29.620891094207764,-3.55,-5.72,-1.36,6.86
29.621674060821533,-5.71,-4.54,-3.62,8.14
29.628973960876465,-7.38,-3.62,-4.25,9.25
29.639604091644287,-7.52,-2.97,-4.37,9.19
29.649571895599365,-7.58,-2.13,-5.1,9.38
29.71996784210205,-8.36,-1.06,-6.29,10.51
29.720229148864746,-9.0,-0.4,-6.9,11.34
29.720489978790283,-8.74,-0.41,-6.86,11.11
29.72074604034424,-7.93,-0.94,-6.81,10.49
29.721004009246826,-7.37,-1.76,-6.48,9.97
29.72126293182373,-6.94,-2.51,-6.39,9.76
29.722033977508545,-6.92,-2.99,-6.67,10.06
29.728783130645752,-7.8,-3.2,-7.51,11.29
29.738823890686035,-8.93,-3.57,-8.62,12.91
29.74943494796753,-9.31,-3.21,-9.32,13.55
29.81978702545166,-9.9,5.68,-5.93,12.86
29.820055961608887,-3.8,1.86,-3.22,5.31
29.820319175720215,28.57,14.56,21.41,38.55
29.820579051971436,23.49,32.8,7.95,41.11
29.820836067199707,5.35,23.64,-18.31,30.37
29.82109498977661,1.51,-0.67,-9.48,9.62
29.821874141693115,-11.38,-8.54,4.9,15.04
29.828613996505737,-13.73,-9.14,-0.05,16.49
29.83864998817444,-9.25,-3.66,-8.96,13.38
29.849297046661377,-10.93,-0.51,-6.63,12.79
29.919232845306396,-8.09,0.23,-3.01,8.63
29.919497966766357,-2.97,0.68,-2.77,4.11
29.91975688934326,0.97,0.44,-1.49,1.83
29.920012950897217,3.99,0.97,-0.06,4.1
29.92026710510254,4.32,1.3,0.44,4.53
29.9205219745636,1.42,1.03,-0.74,1.9
29.921283960342407,-1.28,0.21,-3.38,3.62
29.928525924682617,-2.33,-0.2,-4.03,4.65
29.938529014587402,-1.8,0.06,-2.73,3.27
29.949115991592407,-0.32,0.14,-1.58,1.61
30.01935601234436,0.28,-0.05,-1.38,1.4
30.01961898803711,0.1,-0.14,-1.51,1.51
30.019876956939697,-0.08,-0.22,-1.37,1.38
30.020136833190918,-0.12,-0.14,-0.8,0.82
30.020392894744873,-0.19,-0.03,-0.29,0.34
30.020649909973145,-0.48,0.02,0.24,0.53
30.021417140960693,-0.74,0.02,0.55,0.92
30.028335094451904,-0.72,0.01,0.58,0.92
30.03872299194336,-0.46,0.07,0.51,0.69
30.04896306991577,-0.22,0.1,0.33,0.4
30.119405031204224,-0.12,0.1,-0.04,0.16
30.11967897415161,0.1,0.13,-0.17,0.23
30.11994695663452,0.55,0.18,0.01,0.57
30.120205879211426,1.09,0.12,0.29,1.13
30.120465993881226,1.61,0.05,0.63,1.72
30.120727062225342,1.83,0.04,0.89,2.03
30.121509075164795,1.71,0.08,1.09,2.02
30.12824296951294,1.33,0.11,1.0,1.66
30.138195991516113,0.62,0.17,1.07,1.24
30.148841857910156,0.12,0.09,1.32,1.32
30.219862937927246,0.2,-0.05,1.28,1.29
