time,ax,ay,az,atotal
0.005010128021240234,1.22,-0.22,0.54,1.35
0.014801979064941406,1.1,0.06,0.58,1.24
0.024745941162109375,0.73,-0.13,0.66,0.99
0.035449981689453125,0.72,-0.11,0.66,0.98
0.04478812217712402,0.88,-0.07,0.62,1.07
0.05479311943054199,0.84,-0.13,0.51,0.99
0.06585121154785156,0.65,-0.05,0.28,0.7
0.09682106971740723,0.39,-0.04,0.15,0.41
0.09713411331176758,0.13,-0.15,0.02,0.19
0.0974421501159668,-0.06,-0.13,-0.14,0.2
0.10463213920593262,-0.04,0.01,-0.25,0.25
0.1145939826965332,-0.01,0.04,-0.32,0.32
0.1246640682220459,-0.19,0.01,-0.29,0.34
0.13532018661499023,-0.32,-0.01,-0.27,0.41
0.1446700096130371,-0.26,0.03,-0.39,0.46
0.1545710563659668,-0.16,0.04,-0.55,0.57
0.1656641960144043,-0.21,0.09,-0.67,0.7
0.1967010498046875,-0.37,0.04,-0.6,0.7
0.1970062255859375,-0.5,-0.03,-0.49,0.7
0.19728326797485352,-0.53,-0.03,-0.46,0.7
0.20443415641784668,-0.64,-0.04,-0.47,0.79
0.2143392562866211,-0.73,-0.09,-0.44,0.85
0.22443723678588867,-0.71,-0.05,-0.38,0.8
0.2352919578552246,-0.6,0.01,-0.29,0.66
0.2445201873779297,-0.53,0.0,-0.2,0.56
0.25447702407836914,-0.39,-0.02,-0.15,0.41
0.26541900634765625,-0.3,-0.01,-0.14,0.33
0.29665708541870117,-0.22,0.02,-0.21,0.3
0.2969679832458496,-0.09,0.05,-0.3,0.31
0.2972712516784668,-0.1,0.04,-0.38,0.39
0.30434608459472656,-0.16,0.02,-0.4,0.43
0.31444597244262695,-0.13,0.02,-0.26,0.29
0.32436227798461914,-0.02,0.06,-0.14,0.15
0.33515501022338867,0.0,0.07,-0.11,0.13
0.3444690704345703,0.09,0.02,-0.12,0.15
0.354341983795166,0.25,0.03,-0.07,0.26
0.36535120010375977,0.24,0.08,-0.12,0.27
0.3959050178527832,0.21,0.14,-0.03,0.25
0.396212100982666,0.28,0.08,0.1,0.3
0.3965139389038086,0.29,-0.1,0.07,0.31
0.40428805351257324,0.26,-0.15,-0.04,0.3
0.41422224044799805,0.18,0.01,-0.19,0.26
0.4251899719238281,0.13,0.04,-0.3,0.32
0.43521809577941895,0.02,-0.04,-0.3,0.3
0.44419193267822266,-0.12,-0.08,-0.23,0.27
0.45418405532836914,-0.23,-0.11,-0.18,0.31
0.46515893936157227,-0.2,-0.01,-0.17,0.26
0.5007131099700928,-0.16,0.01,-0.21,0.26
0.5010020732879639,-0.03,-0.03,-0.17,0.17
0.5012922286987305,-0.21,-0.17,-0.2,0.33
0.5039660930633545,-0.34,-0.14,-0.11,0.38
0.51397705078125,-0.37,0.01,-0.01,0.37
0.5239171981811523,-0.52,0.0,-0.1,0.52
0.5350069999694824,-0.78,0.17,-0.17,0.81
0.5439472198486328,-0.96,0.25,-0.29,1.03
0.5539770126342773,-0.69,0.07,0.04,0.69
0.5649580955505371,-0.34,-0.06,0.23,0.41
0.6023681163787842,0.07,-0.09,0.29,0.31
0.6026351451873779,0.25,-0.06,0.14,0.29
0.602898120880127,0.28,0.0,-0.03,0.28
0.6037650108337402,0.22,0.05,-0.08,0.23
0.6137580871582031,0.25,0.03,-0.04,0.25
0.623816967010498,0.29,-0.08,-0.03,0.3
0.6347179412841797,0.35,-0.18,0.04,0.39
0.6437981128692627,0.3,-0.14,0.03,0.33
0.6538641452789307,0.05,0.12,-0.13,0.18
0.6646451950073242,-0.16,0.3,-0.23,0.41
0.7041640281677246,-0.2,0.13,-0.04,0.24
0.7044260501861572,-0.34,-0.12,0.26,0.44
0.7046852111816406,-0.51,-0.06,0.22,0.55
0.7049412727355957,-0.55,0.18,0.05,0.58
0.7135872840881348,-0.48,0.2,-0.12,0.53
0.7235751152038574,-0.45,0.11,-0.12,0.47
0.7345170974731445,-0.43,-0.12,0.01,0.44
0.7437939643859863,-0.47,-0.21,0.22,0.55
0.7536382675170898,-0.57,0.14,0.32,0.66
0.7644219398498535,-0.46,0.54,0.12,0.71
0.8035931587219238,-0.09,0.17,0.32,0.37
0.8038592338562012,-0.03,-0.53,0.68,0.86
0.8041172027587891,-0.04,-0.7,0.7,0.99
0.8043732643127441,0.23,-0.34,0.61,0.73
0.8134379386901855,0.38,-0.03,0.44,0.58
0.8234682083129883,0.58,0.02,0.31,0.65
0.8344821929931641,0.7,-0.11,0.21,0.73
0.8435060977935791,0.78,-0.23,0.13,0.82
0.8534870147705078,0.94,-0.1,0.23,0.97
0.8641841411590576,1.05,0.07,0.24,1.07
0.9036412239074707,1.0,0.13,0.2,1.02
0.9038882255554199,0.82,0.13,0.19,0.85
0.9041461944580078,0.71,-0.12,0.28,0.77
0.9044032096862793,0.59,-0.3,0.29,0.72
0.9132490158081055,0.69,-0.13,0.3,0.76
0.9233102798461914,0.77,0.08,0.24,0.81
0.9342122077941895,0.71,0.11,0.2,0.74
0.9433751106262207,0.68,-0.07,0.21,0.71
0.953315258026123,0.63,-0.18,0.13,0.66
0.964069128036499,0.62,-0.08,0.07,0.62
1.0036611557006836,0.72,-0.02,0.02,0.72
1.0039281845092773,0.66,0.02,-0.05,0.66
1.0041871070861816,0.53,-0.01,0.01,0.53
1.0044491291046143,0.37,-0.19,-0.03,0.41
1.0131592750549316,0.24,-0.12,-0.06,0.27
1.0231680870056152,0.3,0.1,0.09,0.32
1.033724069595337,0.36,0.11,0.27,0.46
1.0432052612304688,0.38,-0.07,0.42,0.57
1.0532331466674805,0.44,-0.22,0.55,0.73
1.0639410018920898,0.58,-0.24,0.61,0.87
1.1038150787353516,0.79,-0.17,0.62,1.01
1.1040780544281006,0.91,-0.15,0.65,1.12
1.1043200492858887,0.93,-0.16,0.65,1.14
1.1045801639556885,0.92,-0.06,0.8,1.22
1.113025188446045,-0.59,0.43,0.88,1.14
1.1230559349060059,-0.93,-0.09,0.64,1.13
1.1335840225219727,0.39,0.12,0.04,0.41
1.1430561542510986,0.76,0.37,0.28,0.89
1.1530532836914062,0.91,0.21,0.47,1.04
1.1637630462646484,1.05,0.12,0.33,1.1
1.2033262252807617,1.17,0.19,0.31,1.22
1.2035880088806152,1.06,0.17,0.38,1.13
1.2038440704345703,0.93,0.09,0.46,1.04
1.2041001319885254,1.07,0.11,0.48,1.17
1.212846279144287,1.52,0.19,0.57,1.63
1.2229032516479492,1.74,0.23,0.74,1.9
1.233428955078125,1.76,0.36,0.8,1.96
1.2429170608520508,1.65,0.46,0.66,1.83
1.2529010772705078,1.63,0.68,0.3,1.79
1.2636332511901855,1.84,1.08,0.12,2.13
1.3031160831451416,2.17,1.37,0.19,2.57
1.3033771514892578,2.23,1.3,0.21,2.58
1.3036351203918457,1.83,1.03,-0.21,2.11
1.3038921356201172,0.87,0.91,-0.72,1.45
1.3126921653747559,0.39,1.41,-1.13,1.84
1.3227691650390625,1.01,1.47,-0.68,1.9
1.3333120346069336,1.38,1.49,-0.25,2.04
1.3426971435546875,1.23,1.69,-0.2,2.09
1.3527700901031494,0.93,1.68,-0.28,1.94
1.3636181354522705,0.97,1.67,-0.16,1.93
1.4034819602966309,1.39,1.69,0.29,2.2
1.4037432670593262,1.75,1.89,0.76,2.68
1.404006004333496,2.02,2.19,1.21,3.21
1.4042611122131348,3.21,2.58,2.05,4.6
1.4125680923461914,4.24,3.2,2.11,5.71
1.4226012229919434,4.43,3.19,1.31,5.61
1.433164119720459,4.69,3.37,1.41,5.94
1.4425501823425293,4.64,3.27,1.76,5.94
1.4526550769805908,4.34,2.86,2.02,5.57
1.4633910655975342,3.8,2.61,2.11,5.06
1.4997241497039795,3.23,2.41,2.12,4.55
1.4999830722808838,2.63,2.3,2.0,4.02
1.5002400875091553,2.07,2.13,1.86,3.5
1.5024590492248535,1.84,1.84,2.0,3.28
1.5124471187591553,1.7,1.77,2.27,3.34
1.5224542617797852,1.44,1.7,2.46,3.31
1.5331270694732666,1.02,1.43,2.65,3.17
1.5425710678100586,0.59,1.11,2.68,2.96
1.5524001121520996,0.24,0.73,2.61,2.72
1.5633981227874756,-0.05,0.38,2.52,2.54
1.5998680591583252,-0.19,0.19,2.52,2.53
1.600135087966919,-0.18,0.16,2.63,2.64
1.6003930568695068,-0.32,0.13,2.55,2.57
1.6022701263427734,-0.47,0.07,2.39,2.43
1.6122770309448242,-0.36,-0.02,2.39,2.41
1.6223421096801758,-0.22,-0.18,2.52,2.53
1.6328880786895752,-0.23,-0.39,2.62,2.65
1.642320156097412,-0.3,-0.67,2.75,2.84
1.652489185333252,-0.48,-0.98,2.61,2.82
1.6630561351776123,-0.69,-1.29,2.34,2.75
1.6993341445922852,-0.85,-1.55,2.12,2.76
1.6995971202850342,-1.12,-1.78,1.78,2.75
1.6998491287231445,-1.21,-2.01,1.44,2.75
1.7021081447601318,-1.17,-2.26,1.25,2.83
1.7121591567993164,-1.38,-2.42,0.91,2.93
1.7221801280975342,-1.71,-2.58,0.38,3.11
1.7327561378479004,-1.98,-2.78,-0.07,3.41
1.7421541213989258,-1.94,-2.93,-0.27,3.52
1.7521140575408936,-1.96,-3.0,-0.48,3.61
1.7628910541534424,-2.12,-2.97,-0.95,3.77
1.7989130020141602,-2.49,-3.07,-1.31,4.16
1.7991762161254883,-2.99,-3.15,-1.82,4.7
1.7994389533996582,-3.29,-3.1,-2.5,5.16
1.8019740581512451,-3.32,-3.05,-2.89,5.35
1.8120040893554688,-3.3,-2.94,-3.25,5.48
1.821972131729126,-3.36,-2.57,-3.69,5.61
1.8325562477111816,-3.61,-2.3,-4.02,5.87
1.8420581817626953,-3.91,-2.46,-4.19,6.23
1.852112054824829,-4.23,-2.78,-4.48,6.75
1.8629181385040283,-4.13,-2.83,-4.66,6.83
1.8967881202697754,-3.96,-2.76,-4.71,6.74
1.8970601558685303,-4.07,-2.93,-4.72,6.88
1.8973281383514404,-4.25,-3.21,-4.76,7.14
1.902022123336792,-4.34,-3.41,-4.76,7.28
1.9119009971618652,-4.37,-3.3,-4.72,7.22
1.9218811988830566,-4.42,-3.0,-4.63,7.06
1.9325270652770996,-4.8,-2.97,-4.61,7.28
1.9419491291046143,-5.32,-3.05,-4.6,7.66
1.9523682594299316,-5.04,1.38,-5.18,7.35
1.9627630710601807,6.97,6.93,1.51,9.94
1.9973249435424805,23.51,12.94,22.3,34.89
1.9976210594177246,22.07,18.8,12.82,31.69
1.997908115386963,9.79,12.79,-12.09,20.13
2.0020501613616943,-1.67,2.97,-10.32,10.86
2.0119211673736572,-7.17,-1.87,-4.84,8.85
2.021799087524414,-9.64,-0.05,-1.72,9.79
2.0324511528015137,-10.93,-1.45,2.06,11.21
2.0417909622192383,-9.54,-2.36,-3.04,10.28
2.0521881580352783,-5.96,-0.96,-3.15,6.8
2.0626602172851562,-3.48,0.17,-2.71,4.41
2.0974650382995605,-3.4,0.88,-1.53,3.83
2.0977580547332764,-2.08,1.08,-1.43,2.74
2.098055124282837,-0.59,0.83,-1.76,2.03
2.1019582748413086,-0.22,0.76,-1.36,1.57
2.1116199493408203,-0.87,0.83,-1.26,1.74
2.121678113937378,-0.77,0.53,-1.66,1.9
2.132305145263672,0.29,0.1,-1.71,1.73
2.141660213470459,0.61,0.08,-1.29,1.42
2.151689052581787,0.22,0.14,-0.88,0.91
2.1626319885253906,0.04,0.03,-0.73,0.73
2.1982791423797607,0.1,-0.04,-0.68,0.68
2.1985690593719482,-0.05,-0.07,-0.51,0.51
2.198838233947754,-0.05,-0.19,-0.13,0.23
2.2019662857055664,0.17,-0.17,0.22,0.32
2.2115039825439453,0.38,-0.09,0.42,0.57
2.2215051651000977,0.47,-0.11,0.58,0.75
2.232119083404541,0.42,-0.12,0.59,0.73
2.2414932250976562,0.42,-0.04,0.67,0.79
2.25154709815979,0.6,0.09,0.56,0.82
2.2624731063842773,1.13,0.15,0.38,1.2
2.2984089851379395,1.73,0.13,0.15,1.74
2.2986960411071777,2.19,0.1,0.21,2.2
2.298981189727783,2.2,-0.03,0.55,2.26
2.301248073577881,1.95,-0.16,0.82,2.12
2.3113081455230713,1.6,-0.2,1.08,1.94
2.321371078491211,1.31,-0.19,1.17,1.76
2.332094192504883,1.07,-0.23,1.17,1.6
2.3414461612701416,1.13,-0.25,1.38,1.8
2.3513290882110596,1.3,-0.23,1.49,1.99
2.362298011779785,1.27,-0.17,1.27,1.8
2.3981380462646484,1.05,-0.22,1.09,1.52
2.398433208465576,0.8,-0.29,0.74,1.12
2.3987181186676025,0.54,-0.33,0.31,0.7
2.401155948638916,0.5,-0.23,0.09,0.55
2.411160945892334,0.64,-0.14,-0.04,0.65
2.4210472106933594,0.5,-0.07,0.22,0.55
2.4317550659179688,0.4,-0.07,0.55,0.68
2.44134521484375,0.42,-0.17,0.84,0.95
2.4514479637145996,0.58,-0.27,1.09,1.26
2.4621520042419434,0.96,-0.44,1.4,1.75
2.497897148132324,1.57,-0.36,1.47,2.18
2.4981679916381836,1.57,-0.24,1.43,2.13
2.4984540939331055,1.31,-0.06,1.25,1.81
2.501221179962158,1.19,0.09,0.81,1.44
2.5110161304473877,1.41,0.14,0.69,1.57
2.521052122116089,1.68,0.38,0.43,1.77
2.5317912101745605,1.74,0.73,0.42,1.93
2.5410642623901367,1.59,0.99,0.69,1.99
2.551154136657715,1.49,1.25,0.77,2.09
2.562044143676758,1.46,1.85,0.94,2.53
2.5980420112609863,1.64,2.35,1.44,3.2
2.5983362197875977,2.0,2.85,2.11,4.07
2.5986242294311523,3.09,4.29,3.15,6.15
2.6008241176605225,4.01,5.23,4.06,7.74
2.6109321117401123,4.32,6.65,4.77,9.25
2.6209592819213867,5.52,8.92,4.79,11.53
2.6316821575164795,5.76,9.17,6.59,12.67
2.6409292221069336,4.51,9.59,7.48,12.97
2.650907039642334,4.01,11.45,7.34,14.17
2.661879062652588,4.85,13.22,9.01,16.71
2.694662094116211,7.01,13.08,8.29,16.99
2.6949729919433594,8.25,10.77,5.25,14.54
2.695280075073242,6.99,8.73,2.46,11.45
2.7007269859313965,4.78,8.38,-1.47,9.75
2.7107720375061035,2.3,9.65,-5.26,11.22
2.720790147781372,-2.97,12.26,-4.56,13.41
2.7314462661743164,-5.33,11.84,-2.55,13.23
2.740786075592041,-0.18,8.58,-2.69,8.99
2.7508950233459473,3.1,3.51,0.09,4.68
2.7617311477661133,0.97,-0.6,0.85,1.42
2.796966075897217,-2.19,-1.85,-4.61,5.42
2.797295093536377,0.3,1.07,-1.84,2.14
2.7976181507110596,3.28,1.01,2.2,4.07
2.800668239593506,5.2,-0.78,2.53,5.83
2.8105950355529785,5.37,-2.49,2.99,6.63
2.820600986480713,4.51,-3.1,3.08,6.27
2.8314261436462402,4.3,-2.1,2.59,5.44
2.8407440185546875,4.69,-1.05,1.87,5.15
2.8506431579589844,4.87,-1.12,0.99,5.09
2.8617782592773438,4.16,-1.85,0.5,4.58
2.8976850509643555,3.32,-2.03,0.59,3.93
2.8980159759521484,2.81,-2.14,0.83,3.62
2.898332118988037,2.53,-2.32,0.67,3.49
2.900386095046997,2.33,-2.58,0.51,3.51
2.9105072021484375,2.01,-2.84,0.29,3.49
2.92049503326416,1.84,-3.02,-0.19,3.54
2.9312620162963867,2.01,-3.2,-0.62,3.82
2.940567970275879,2.17,-3.52,-0.72,4.19
2.950562000274658,2.15,-3.93,-0.64,4.52
2.961617946624756,1.86,-4.35,-0.28,4.73
2.998812198638916,1.46,-4.58,-0.19,4.81
2.9991531372070312,0.52,-4.66,-0.65,4.73
2.9994759559631348,-1.05,-4.6,-1.63,4.99
3.0002622604370117,-2.35,-4.54,-2.49,5.68
3.0103492736816406,-3.4,-4.51,-3.17,6.47
3.0202810764312744,-4.19,-4.07,-3.95,7.05
3.031147003173828,-4.92,-3.37,-5.2,7.91
3.0404982566833496,-5.82,-2.81,-6.64,9.26
3.050384998321533,-6.63,-2.58,-6.99,9.97
3.061488151550293,-7.14,-2.55,-6.68,10.1
3.0982720851898193,-7.49,-2.64,-6.59,10.31
3.0986032485961914,-7.59,-2.63,-6.8,10.52
3.098940134048462,-7.39,-2.39,-6.92,10.4
3.100114107131958,-7.07,-2.12,-6.88,10.09
3.1101131439208984,-6.73,-1.92,-6.87,9.8
3.1200621128082275,-6.41,-1.78,-6.76,9.48
3.1309990882873535,-6.12,-1.62,-6.63,9.16
3.1402082443237305,-5.82,-1.49,-6.48,8.83
3.150329113006592,-5.61,-1.56,-6.23,8.52
3.161339282989502,-5.92,-1.68,-5.99,8.58
3.198613166809082,-6.85,-1.86,-5.74,9.12
3.198946952819824,-7.93,-1.48,-5.56,9.79
3.199301242828369,-7.09,3.81,-5.77,9.9
3.2000012397766113,4.09,-0.71,-2.53,4.86
3.210103988647461,19.44,8.26,13.52,25.07
3.2200231552124023,29.19,21.71,22.93,43.0
3.2307751178741455,7.15,20.05,-8.53,22.93
3.2400741577148438,-9.7,6.35,-8.8,14.55
3.2501471042633057,-11.52,-6.18,-7.26,14.95
3.261139154434204,-14.78,-2.8,-1.33,15.1
3.2969090938568115,-16.24,-0.43,2.1,16.38
3.297244071960449,-10.67,-2.32,-4.83,11.93
3.297581195831299,-5.63,-1.69,-6.17,8.52
3.299938201904297,-3.17,-0.19,-3.64,4.83
3.3099379539489746,-2.36,0.31,-1.67,2.9
3.3202099800109863,0.06,0.62,-2.03,2.12
3.3306920528411865,2.41,0.83,-2.79,3.77
3.3399462699890137,1.91,0.96,-2.28,3.12
3.350053071975708,-0.5,0.82,-1.39,1.68
3.361119270324707,-1.56,0.49,-1.49,2.21
3.3984012603759766,-1.59,0.04,-1.34,2.07
3.39876127243042,-1.45,-0.23,-0.49,1.54
3.3991212844848633,-0.81,-0.03,-0.25,0.84
3.399677276611328,-0.2,0.24,-0.53,0.61
3.4097962379455566,0.36,0.11,-0.7,0.79
3.420259952545166,0.66,-0.3,-0.27,0.77
3.4305970668792725,0.28,-0.46,0.46,0.7
3.4398860931396484,-0.22,-0.25,0.71,0.78
3.4499521255493164,-0.33,0.05,0.44,0.55
3.4609620571136475,-0.37,0.24,0.19,0.48
3.4986541271209717,-0.14,0.23,0.24,0.36
3.499005079269409,0.25,0.1,0.45,0.52
3.4995391368865967,0.63,0.04,0.75,0.98
3.4998631477355957,1.14,0.12,0.62,1.3
3.509592056274414,1.92,0.18,0.16,1.93
3.5200841426849365,1.94,0.11,0.07,1.94
3.530687093734741,1.53,0.01,0.76,1.7
3.5396780967712402,1.34,-0.07,1.26,1.84
3.5498721599578857,1.02,-0.07,1.37,1.7
3.5608391761779785,0.76,-0.05,1.49,1.67
3.598483085632324,0.82,-0.13,1.6,1.8
3.5988450050354004,1.33,-0.24,1.47,1.99
3.5993852615356445,1.96,-0.3,1.24,2.33
3.5997121334075928,2.19,-0.28,1.03,2.43
3.609598159790039,1.78,-0.09,0.77,1.94
3.6198840141296387,1.15,0.12,0.76,1.38
3.630315065383911,1.02,0.24,0.89,1.37
3.6395750045776367,1.07,0.46,0.85,1.44
3.649510145187378,1.17,0.61,1.21,1.79
3.6605401039123535,1.44,0.74,1.81,2.42
3.698273181915283,1.87,1.01,1.66,2.69
3.699303150177002,2.05,1.47,1.16,2.77
3.6996312141418457,1.95,2.11,0.96,3.02
3.699955940246582,2.28,2.77,1.34,3.82
3.709373950958252,2.29,2.82,2.32,4.31
3.719435214996338,2.9,2.92,2.78,4.96
3.730224132537842,3.4,3.38,3.1,5.7
3.7393360137939453,3.56,4.07,3.47,6.42
3.749387264251709,4.13,5.22,3.65,7.59
3.76043701171875,4.8,6.89,3.84,9.23
3.769458055496216,5.84,8.29,4.58,11.12
3.799513101577759,5.42,9.27,5.07,11.87
3.799852132797241,5.18,10.82,6.44,13.61
3.8001790046691895,5.89,12.04,7.73,15.47
3.8096542358398438,6.71,12.34,7.19,15.77
3.8192481994628906,7.16,12.28,6.26,15.53
3.830219268798828,6.74,11.47,5.26,14.3
3.8392410278320312,5.82,9.86,1.21,11.51
3.849346160888672,4.6,9.48,-3.53,11.11
3.860185146331787,1.74,12.23,-5.58,13.55
3.8693530559539795,-1.41,14.7,-3.69,15.22
3.898940086364746,-1.04,10.62,-1.51,10.77
3.8992691040039062,1.34,4.96,0.06,5.13
3.8995940685272217,-0.68,1.55,0.45,1.75
3.9090311527252197,-4.62,0.7,-4.97,6.82
3.919106960296631,-1.46,3.5,-1.93,4.25
3.9298501014709473,2.99,3.16,2.15,4.85
3.939357280731201,5.27,1.04,3.28,6.29
3.9490621089935303,4.7,-0.61,4.18,6.31
3.960103988647461,3.72,-1.53,3.65,5.43
3.9692182540893555,3.01,-1.99,2.81,4.57
3.998383045196533,2.14,-2.14,2.2,3.74
3.9988932609558105,1.34,-2.3,2.2,3.45
3.9992170333862305,0.93,-2.59,2.75,3.89
4.008906126022339,0.57,-3.01,3.09,4.35
4.018857002258301,0.14,-3.39,3.06,4.56
4.029667139053345,-0.14,-3.58,3.02,4.68
4.038962125778198,0.05,-3.73,3.07,4.83
4.048971176147461,0.34,-3.79,2.67,4.64
4.0600481033325195,0.58,-3.74,2.28,4.41
4.069097995758057,0.75,-3.83,2.3,4.53
4.099935054779053,0.97,-4.06,2.34,4.78
4.100266933441162,0.99,-4.46,2.24,5.08
4.100594997406006,0.66,-4.84,1.86,5.22
4.108743190765381,0.22,-5.09,1.43,5.29
4.118756055831909,0.04,-5.38,1.21,5.51
4.129590034484863,-0.05,-5.64,1.16,5.75
4.138895034790039,-0.74,-5.49,0.35,5.55
4.148835182189941,-2.42,-5.05,-1.23,5.73
4.159876108169556,-3.91,-4.75,-2.32,6.57
4.1688971519470215,-5.01,-4.35,-3.23,7.37
4.1995439529418945,-6.25,-3.54,-5.03,8.76
4.199887275695801,-6.98,-2.73,-6.85,10.15
4.200218200683594,-7.33,-2.39,-7.69,10.88
4.208662986755371,-7.7,-2.12,-7.78,11.14
4.2187371253967285,-8.02,-1.79,-8.19,11.6
4.229401111602783,-8.86,-1.37,-8.79,12.55
4.238661050796509,-9.71,-1.2,-9.22,13.44
4.248648166656494,-9.72,-1.53,-9.3,13.53
4.259712219238281,-8.55,-1.89,-8.59,12.26
4.268845081329346,-7.1,-2.41,-7.67,10.72
4.299989223480225,-6.18,-2.66,-7.05,9.74
4.300325155258179,-6.2,-2.48,-7.01,9.68
4.300650119781494,-6.6,-2.38,-7.24,10.08
4.308442115783691,-6.84,-2.73,-6.91,10.09
4.318396091461182,-6.88,-2.14,-6.59,9.76
4.329292058944702,-5.5,5.84,-5.26,9.59
4.338413238525391,11.49,5.55,4.65,13.58
4.348626136779785,36.23,15.32,29.6,49.22
4.359569072723389,23.48,20.66,7.3,32.11
4.368507146835327,1.05,13.26,-15.95,20.76
4.395188093185425,-7.91,1.04,-4.03,8.93
4.3955512046813965,-15.23,-2.98,-0.89,15.54
4.398313999176025,-16.93,-4.07,-3.44,17.74
4.408282279968262,-15.71,-2.76,-5.92,17.01
4.418330192565918,-10.56,-1.89,-9.59,14.38
4.429176092147827,-5.01,0.45,-7.26,8.83
4.4383251667022705,-3.06,1.26,-3.59,4.88
4.448431015014648,-0.72,0.79,-3.52,3.67
4.459754943847656,2.74,1.1,-3.6,4.65
4.468498229980469,3.08,1.38,-2.52,4.21
4.497288227081299,0.36,1.19,-2.18,2.5
4.497910976409912,-1.86,0.66,-3.13,3.7
4.498277187347412,-2.03,0.31,-3.46,4.02
4.508265972137451,-1.58,0.27,-2.23,2.74
4.518320083618164,-1.56,-0.02,-0.71,1.71
4.529139995574951,-1.78,-0.3,0.19,1.81
4.538188934326172,-1.19,-0.3,0.22,1.24
4.54840612411499,-0.6,-0.22,-0.04,0.64
4.559568166732788,-0.22,-0.25,0.09,0.34
4.568350076675415,0.22,-0.22,0.3,0.43
4.598367214202881,0.77,-0.17,0.46,0.91
4.598755121231079,0.91,-0.15,0.85,1.25
4.599135160446167,0.66,-0.04,1.02,1.21
4.6080710887908936,0.49,0.12,0.97,1.09
4.6182332038879395,0.54,0.24,0.86,1.04
4.628977060317993,0.77,0.24,0.68,1.05
4.6380839347839355,1.15,0.08,0.74,1.36
4.648372173309326,1.51,-0.15,1.17,1.91
4.659351110458374,1.8,-0.12,1.52,2.35
4.668298244476318,1.92,0.0,1.88,2.68
4.698444128036499,1.9,-0.03,2.01,2.76
4.698836088180542,1.88,-0.18,1.76,2.58
4.699217081069946,1.8,-0.28,1.69,2.48
4.708009243011475,1.72,-0.44,1.89,2.59
4.717940092086792,1.62,-0.51,1.54,2.29
4.729036092758179,1.76,-0.31,1.16,2.13
4.738068103790283,1.93,-0.03,0.74,2.06
4.7481300830841064,1.76,0.1,0.77,1.92
4.759222030639648,1.53,0.15,1.12,1.9
4.768140077590942,1.06,0.09,1.08,1.51
4.800325155258179,0.67,0.01,1.07,1.26
4.800724983215332,0.76,0.14,1.12,1.36
4.80111026763916,1.13,0.37,1.1,1.61
4.807812213897705,1.41,0.62,1.16,1.92
4.817748069763184,1.41,0.98,0.84,1.91
4.828954219818115,1.17,1.3,0.95,1.99
4.838072061538696,0.78,1.61,0.82,1.96
4.847929000854492,0.9,2.09,0.69,2.37
4.85905122756958,1.26,2.81,0.99,3.23
4.867947101593018,1.25,3.1,1.45,3.64
4.899791240692139,1.45,3.05,1.94,3.89
4.900174140930176,1.62,3.0,2.42,4.18
4.9005560874938965,1.95,2.97,2.96,4.62
4.907658100128174,2.2,3.27,3.51,5.27
4.917709112167358,2.29,4.4,3.71,6.19
4.928491115570068,3.13,7.04,3.48,8.45
4.938135147094727,5.29,8.64,5.1,11.34
4.947690010070801,5.37,8.43,6.84,12.11
4.959006071090698,5.75,9.25,8.06,13.54
4.967915058135986,6.5,10.53,8.77,15.16
4.999825954437256,6.33,11.02,8.31,15.18
5.000218152999878,5.34,10.47,6.95,13.65
5.000579118728638,4.72,9.44,2.87,10.93
5.007612228393555,4.78,8.84,-2.12,10.27
5.017477989196777,3.01,10.63,-5.11,12.17
5.028295993804932,-1.55,13.58,-3.07,14.0
5.03797721862793,-1.38,13.31,-0.7,13.39
5.047598123550415,1.41,9.26,-0.51,9.38
5.0588812828063965,2.27,4.3,0.74,4.91
5.067574977874756,-0.38,1.28,1.39,1.92
5.099475145339966,-5.25,0.63,-4.8,7.14
5.099833965301514,-3.07,3.95,-4.19,6.52
5.100183010101318,1.72,4.77,1.26,5.22
5.107356071472168,4.96,2.93,2.4,6.24
5.117288112640381,5.61,0.61,2.76,6.28
5.128234148025513,4.77,-0.88,2.69,5.54
5.137968063354492,4.54,-1.61,2.3,5.33
5.147412061691284,4.47,-1.91,2.15,5.31
5.158614158630371,3.95,-1.78,1.95,4.75
5.167456150054932,2.9,-1.54,1.68,3.68
5.200016975402832,1.49,-1.51,1.38,2.53
5.200377941131592,0.12,-1.6,1.25,2.03
5.200745105743408,-0.6,-1.82,1.26,2.29
5.207180023193359,-0.7,-2.13,1.41,2.64
5.2171571254730225,-0.59,-2.42,1.37,2.84
5.2280590534210205,-0.39,-2.79,1.2,3.06
5.237272262573242,-0.21,-3.18,1.09,3.36
5.247223138809204,-0.09,-3.66,1.16,3.84
5.2583911418914795,0.02,-4.28,1.46,4.52
5.267264127731323,-0.16,-5.1,1.79,5.4
5.30023193359375,-0.47,-5.99,1.9,6.3
5.300597190856934,-0.91,-6.67,1.73,6.95
5.30095100402832,-1.32,-7.17,1.51,7.44
5.307186126708984,-1.56,-7.54,1.45,7.83
5.316930055618286,-1.55,-8.02,1.24,8.26
5.327808141708374,-1.31,-8.23,0.95,8.38
5.337047100067139,-1.33,-7.96,0.52,8.08
5.347200155258179,-2.01,-7.53,-0.13,7.79
5.358320236206055,-3.12,-6.72,-1.32,7.52
5.367126941680908,-4.2,-5.66,-2.98,7.65
5.400788068771362,-5.11,-4.5,-5.16,8.54
5.401142120361328,-5.88,-3.15,-7.15,9.77
5.401492118835449,-6.73,-1.87,-8.37,10.9
5.406826972961426,-7.78,-0.83,-8.83,11.79
5.416810989379883,-8.81,0.2,-9.01,12.6
5.427700042724609,-9.63,1.03,-9.44,13.52
5.436861038208008,-9.83,1.18,-10.04,14.1
5.446954250335693,-8.91,0.47,-9.84,13.28
5.458275079727173,-7.43,-0.41,-8.98,11.66
5.467008113861084,-6.38,-1.44,-8.03,10.35
5.5005271434783936,-6.41,-2.64,-7.69,10.35
5.500906944274902,-6.73,-2.42,-7.65,10.47
5.501258134841919,-7.15,5.08,-5.1,10.14
5.506744146347046,2.51,3.57,1.48,4.6
5.516664028167725,28.61,9.99,20.75,36.72
5.527569055557251,27.55,18.19,12.27,35.21
5.536738157272339,2.75,17.21,-11.41,20.83
5.546869277954102,-8.38,6.41,-8.84,13.76
5.558222055435181,-14.74,-2.55,-1.39,15.02
5.566895961761475,-11.88,-6.23,-3.5,13.86
5.601818084716797,-7.56,-3.03,-5.35,9.74
5.602176189422607,-6.6,-2.57,-6.79,9.81
5.602527141571045,-3.67,-0.24,-6.33,7.32
5.606622219085693,-1.61,1.05,-4.03,4.46
5.616595268249512,1.21,0.72,-3.02,3.33
5.627501010894775,3.79,1.2,-2.96,4.95
5.636551141738892,3.49,1.41,-1.85,4.19
5.646672248840332,0.76,0.96,-1.17,1.69
5.657894134521484,-1.86,0.22,-2.18,2.87
5.666591167449951,-2.92,-0.15,-3.13,4.28
5.700815200805664,-2.69,0.02,-1.94,3.31
5.701176166534424,-1.62,0.03,-0.71,1.76
5.701547145843506,-0.9,-0.14,-0.59,1.08
5.706470012664795,-0.99,-0.25,-0.57,1.16
5.716616153717041,-1.38,-0.33,-0.44,1.48
5.7273759841918945,-1.76,-0.32,-0.32,1.81
5.736423969268799,-1.73,-0.18,-0.16,1.74
5.746596097946167,-1.43,-0.08,0.06,1.43
5.757419109344482,-0.97,-0.04,0.28,1.01
5.76655912399292,-0.61,0.04,0.47,0.77
5.801229953765869,-0.34,0.04,0.58,0.67
5.80158805847168,-0.11,0.07,0.68,0.69
5.801947116851807,0.23,0.05,0.67,0.71
5.806276082992554,0.89,0.04,0.61,1.07
5.816308975219727,1.57,0.08,0.47,1.64
5.827176094055176,1.84,0.16,0.46,1.9
5.836438179016113,1.73,0.13,0.86,1.93
5.84636116027832,1.34,0.03,1.0,1.67
5.857371091842651,0.92,0.02,0.77,1.19
5.866424083709717,0.37,0.04,0.44,0.57
5.901320934295654,0.04,0.1,0.23,0.25
5.901678085327148,0.24,0.17,0.47,0.55
5.902026176452637,0.99,0.26,0.93,1.38
5.906173229217529,1.83,0.21,1.08,2.13
5.916415214538574,2.49,-0.07,1.36,2.83
5.927001953125,3.05,-0.36,1.79,3.55
5.936164140701294,3.73,-0.36,2.08,4.28
5.946205139160156,3.85,-0.17,2.05,4.36
5.957180023193359,3.09,0.14,1.84,3.59
5.966300010681152,1.99,0.44,1.26,2.39
6.001920223236084,1.28,0.73,0.86,1.7
6.002272129058838,1.25,1.06,0.84,1.84
6.002624034881592,1.54,1.3,0.63,2.11
6.005814075469971,2.01,1.71,0.55,2.69
6.015958070755005,2.36,2.49,0.8,3.52
6.026693105697632,2.31,3.54,1.72,4.56
6.036011219024658,1.71,3.52,2.72,4.76
6.046110153198242,1.72,3.98,2.72,5.11
6.057021141052246,1.8,5.28,2.99,6.32
6.066047191619873,2.48,7.7,2.88,8.58
6.100016117095947,4.95,9.32,3.65,11.16
6.1003570556640625,5.82,9.34,5.13,12.14
6.100683212280273,5.48,10.44,5.42,12.97
6.105725049972534,5.76,11.62,6.67,14.58
6.116337060928345,5.7,12.22,6.94,15.16
6.126553058624268,5.77,12.73,6.17,15.27
6.135930061340332,6.16,13.19,4.55,15.25
6.145877122879028,6.66,13.01,1.93,14.74
6.156867027282715,5.8,11.02,-1.62,12.55
6.165983200073242,3.38,9.46,-4.22,10.89
6.200464248657227,0.97,11.51,-4.41,12.36
6.2007951736450195,-0.13,11.69,-0.15,11.69
6.201123237609863,0.99,6.91,0.53,7.0
6.205799102783203,0.64,3.33,1.61,3.75
6.215672969818115,-4.0,1.33,-1.96,4.64
6.226396083831787,-1.99,3.72,-2.82,5.07
6.235635280609131,3.93,4.97,1.87,6.6
6.245755195617676,8.05,3.11,3.54,9.32
6.256870269775391,8.64,1.3,4.91,10.02
6.265768051147461,6.76,0.37,4.42,8.08
6.299324989318848,5.15,-0.17,2.66,5.79
6.2996580600738525,3.69,-0.72,1.49,4.04
6.299984931945801,2.56,-1.21,1.43,3.17
6.305562973022461,1.84,-1.75,2.34,3.45
6.31549596786499,1.57,-2.17,2.85,3.91
6.326333045959473,1.46,-2.52,2.79,4.03
6.335604190826416,1.06,-3.05,2.62,4.15
6.345714092254639,0.68,-3.5,2.43,4.31
6.356842994689941,0.55,-3.73,2.31,4.42
6.365576267242432,0.39,-3.77,1.98,4.27
6.399391174316406,0.25,-3.85,1.65,4.19
6.399722099304199,0.43,-4.09,1.36,4.33
6.400047063827515,0.68,-4.55,1.22,4.75
6.405649185180664,0.61,-4.99,1.1,5.14
6.415370941162109,0.43,-5.27,0.66,5.32
6.4264490604400635,0.43,-5.5,0.56,5.54
6.43541407585144,0.23,-5.6,0.8,5.66
6.44540810585022,-0.02,-5.54,0.67,5.58
6.482716083526611,-0.71,-5.13,-0.49,5.2
6.483025074005127,-2.71,-4.4,-2.42,5.7
6.4833290576934814,-5.47,-3.91,-4.75,8.23
6.485194206237793,-7.48,-3.82,-5.88,10.25
6.495233058929443,-8.17,-3.71,-5.58,10.56
6.505568981170654,-7.99,-3.25,-5.42,10.18
6.51530122756958,-8.08,-2.15,-6.34,10.49
6.526085138320923,-8.54,-0.86,-7.5,11.39
6.535239219665527,-8.94,-0.03,-7.92,11.94
6.5452821254730225,-9.61,0.55,-8.13,12.59
6.583927154541016,-10.2,0.79,-8.33,13.19
6.584277153015137,-10.41,0.75,-8.31,13.34
6.584798097610474,-10.35,0.47,-8.03,13.1
6.585108280181885,-9.81,-0.33,-7.54,12.37
6.595067977905273,-9.14,-1.75,-7.24,11.79
6.605377197265625,-8.06,-3.41,-5.98,10.59
6.615154266357422,-8.2,-3.98,-4.91,10.35
6.625843048095703,-9.29,0.39,-5.38,10.74
6.635127067565918,-1.78,3.43,-3.27,5.06
6.645214080810547,18.1,4.46,8.6,20.52
6.684775114059448,37.1,18.13,28.98,50.44
6.68525505065918,18.94,22.98,0.42,29.78
6.685578107833862,-8.4,12.89,-12.6,19.88
6.685917139053345,-16.34,-2.71,-2.87,16.81
6.695034027099609,-16.46,-6.99,-5.5,18.7
6.70504903793335,-17.46,-1.73,-2.2,17.68
6.714935064315796,-16.57,-2.15,-3.84,17.14
6.725686073303223,-9.73,-2.21,-8.7,13.23
6.734947204589844,-4.57,0.3,-7.76,9.01
6.744998931884766,-1.52,0.46,-4.78,5.03
6.783342123031616,1.32,0.31,-4.16,4.37
6.78365421295166,3.4,1.19,-3.58,5.07
6.783966064453125,2.85,1.61,-1.79,3.73
6.784806251525879,-0.07,1.11,-0.73,1.33
6.794936180114746,-2.36,0.33,-1.44,2.78
6.804800033569336,-2.71,-0.1,-2.02,3.38
6.814795017242432,-2.11,-0.02,-1.2,2.42
6.82553505897522,-1.63,-0.11,-0.28,1.65
6.834954261779785,-0.98,-0.15,0.02,0.99
6.844843149185181,0.04,-0.11,-0.06,0.13
6.883676052093506,0.79,-0.13,-0.37,0.88
6.884010076522827,1.05,-0.26,-0.75,1.31
6.884511947631836,0.86,-0.29,-0.51,1.04
6.884822130203247,0.37,-0.18,-0.01,0.41
6.8945841789245605,-0.09,-0.09,0.31,0.33
6.904624938964844,-0.28,0.0,0.62,0.68
6.914449214935303,-0.4,0.13,0.82,0.92
6.925326108932495,-0.3,0.23,0.94,1.01
6.934624195098877,0.28,0.2,1.09,1.14
6.944738149642944,1.08,0.16,1.34,1.72
6.983617067337036,1.69,0.15,1.48,2.25
6.983942985534668,2.02,0.07,1.25,2.37
6.984452247619629,2.1,-0.03,1.15,2.39
6.984753131866455,1.9,-0.2,1.2,2.25
6.994500160217285,1.68,-0.36,1.64,2.37
7.004639148712158,1.43,-0.39,2.11,2.57
7.014486074447632,1.62,-0.39,2.0,2.6
7.025378227233887,1.84,-0.35,1.72,2.54
7.034509181976318,2.07,-0.27,1.75,2.72
7.044429063796997,2.8,-0.05,1.77,3.31
7.083313941955566,2.99,0.15,0.97,3.14
7.0836591720581055,2.13,0.19,0.7,2.25
7.08417010307312,1.42,0.3,0.87,1.69
7.084474086761475,0.91,0.35,1.08,1.45
7.094295024871826,0.88,0.69,1.2,1.64
7.104379177093506,1.37,1.18,1.15,2.14
7.114383220672607,1.65,1.57,1.07,2.51
7.125140190124512,1.47,1.86,1.06,2.59
7.1342620849609375,2.0,2.78,1.06,3.58
7.144395112991333,2.47,3.71,1.7,4.77
7.155433177947998,1.97,3.91,2.39,4.98
7.183910131454468,2.51,4.1,2.7,5.51
7.184226036071777,2.57,4.15,3.34,5.91
7.184529066085815,2.55,4.74,3.5,6.42
7.194170951843262,2.77,6.3,3.76,7.84
7.2041990756988525,3.72,8.31,4.16,10.01
7.214211940765381,4.83,9.3,5.95,12.05
7.225015163421631,5.44,10.31,7.26,13.73
7.234363079071045,6.93,11.53,7.84,15.57
7.2446370124816895,8.37,12.54,7.78,16.96
7.25519323348999,8.23,12.46,7.28,16.61
7.2842371463775635,7.41,11.71,5.6,14.94
7.284544944763184,7.06,10.5,1.03,12.69
7.284850120544434,5.44,9.74,-4.39,11.98
7.2939772605896,2.23,11.97,-6.27,13.69
7.304012060165405,0.57,15.09,-1.56,15.18
7.314062118530273,1.67,12.82,2.19,13.11
7.324751138687134,2.3,6.69,0.37,7.08
7.334041118621826,0.11,2.95,0.36,2.97
7.3440470695495605,-5.65,0.6,-3.21,6.52
7.35508918762207,-5.48,2.67,-5.28,8.06
7.385656118392944,0.38,5.31,0.0,5.32
7.3859710693359375,5.11,4.48,2.16,7.13
7.386275053024292,7.05,1.89,3.69,8.17
7.393907070159912,5.95,-0.22,4.42,7.41
7.4038450717926025,4.53,-1.39,3.92,6.14
7.41465425491333,3.29,-1.74,3.46,5.08
7.424545049667358,1.98,-1.54,2.82,3.77
7.433917045593262,0.81,-1.42,2.61,3.07
7.443981170654297,-0.11,-1.85,2.81,3.36
7.454986095428467,-0.68,-2.57,2.94,3.96
7.485636234283447,-0.87,-3.0,2.94,4.28
7.485948085784912,-0.66,-3.35,3.04,4.57
7.486252069473267,-0.37,-3.65,2.88,4.66
7.493711948394775,0.12,-3.91,2.64,4.71
7.503836154937744,0.76,-4.09,2.46,4.83
7.513725280761719,1.26,-4.37,2.36,5.12
7.5244269371032715,1.18,-4.92,2.15,5.49
7.53380012512207,0.78,-5.64,1.83,5.98
7.543869972229004,0.17,-6.32,1.27,6.44
7.5547590255737305,-0.41,-6.79,0.44,6.81
7.585165023803711,-0.98,-6.86,-0.45,6.94
7.585484027862549,-1.65,-6.6,-1.26,6.91
7.585797071456909,-2.53,-6.19,-1.8,6.92
7.593626022338867,-3.43,-5.79,-2.87,7.31
7.603720188140869,-4.8,-5.0,-4.9,8.48
7.613780975341797,-6.35,-3.98,-7.15,10.35
7.624251127243042,-7.48,-3.19,-8.43,11.71
7.633594036102295,-8.13,-2.5,-8.74,12.19
7.643648147583008,-8.25,-1.85,-8.84,12.23
7.6546471118927,-8.23,-1.22,-9.3,12.47
7.686185121536255,-8.46,-0.82,-9.84,13.0
7.686500072479248,-8.6,-1.24,-9.69,13.01
7.686803102493286,-9.06,-1.86,-9.6,13.33
7.693374156951904,-9.41,-2.27,-10.09,13.98
7.703364133834839,-9.29,-3.03,-9.96,13.95
7.713489055633545,-9.39,-3.66,-9.84,14.08
7.723964214324951,-9.17,-4.04,-9.52,13.82
7.733418941497803,-8.36,2.75,-9.02,12.6
7.743494987487793,-0.61,6.04,-3.48,6.99
7.754511117935181,13.38,12.18,18.25,25.69
7.785894155502319,29.88,22.41,27.86,46.59
7.786193132400513,11.97,24.2,-19.08,33.06
7.7864830493927,-0.34,8.54,-12.1,14.81
7.793248176574707,-11.57,-6.22,4.48,13.87
7.803285121917725,-18.97,-9.8,0.15,21.35
7.813348054885864,-15.89,-6.09,-8.06,18.82
7.824067115783691,-13.88,-2.73,-12.16,18.65
7.8332531452178955,-9.12,1.32,-7.37,11.79
7.843379974365234,-3.82,2.46,-3.35,5.64
7.854149103164673,1.28,0.91,-3.68,4.0
7.885968208312988,3.72,0.5,-3.32,5.01
7.886271953582764,3.14,0.72,-2.07,3.82
7.8865580558776855,0.49,1.2,-2.52,2.83
7.893134117126465,-2.25,1.15,-2.18,3.33
7.903193950653076,-2.69,0.72,-1.45,3.13
7.913149118423462,-1.83,0.29,-1.33,2.28
7.924159049987793,-1.57,0.02,-1.04,1.88
7.933173179626465,-1.27,-0.08,-1.03,1.63
7.945613145828247,-0.56,-0.06,-1.09,1.22
7.954009056091309,0.15,-0.06,-1.11,1.12
7.985918045043945,0.34,-0.1,-0.79,0.86
7.9862060546875,0.04,-0.04,-0.61,0.61
7.986497163772583,-0.19,0.03,-0.44,0.48
7.992966175079346,-0.02,-0.03,-0.09,0.09
8.003008127212524,0.35,-0.08,0.42,0.55
8.013011932373047,0.72,-0.09,0.94,1.18
8.02407693862915,0.92,-0.12,1.13,1.46
8.033218145370483,1.13,-0.06,1.22,1.66
8.04301905632019,1.37,0.11,1.1,1.76
8.053853988647461,1.52,0.24,0.59,1.64
8.085755109786987,1.49,0.23,0.21,1.52
8.086055278778076,1.34,0.12,0.37,1.39
8.086321115493774,1.35,0.12,0.81,1.57
8.09281301498413,1.17,0.24,1.06,1.59
8.10275912284851,0.71,0.32,1.02,1.28
8.112832069396973,0.36,0.24,1.12,1.2
8.123911142349243,0.23,0.07,1.27,1.29
8.133027076721191,0.37,-0.18,1.05,1.12
8.142850160598755,0.57,-0.47,0.86,1.13
8.153723239898682,0.56,-0.53,0.75,1.07
8.186063051223755,0.48,-0.29,0.56,0.79
8.186359167098999,0.81,-0.06,0.64,1.03
8.186644077301025,1.5,-0.01,0.97,1.78
8.192694187164307,2.23,0.06,1.07,2.47
8.202666282653809,2.66,0.09,1.63,3.12
8.212643146514893,2.58,0.39,1.75,3.14
8.22373104095459,2.35,0.99,1.32,2.87
8.23275899887085,1.74,1.82,1.14,2.76
8.242773056030273,0.95,2.46,1.02,2.82
8.253719091415405,0.73,2.5,1.29,2.9
8.28632116317749,0.82,2.26,1.8,3.0
8.286609172821045,1.42,2.19,2.33,3.49
8.28689193725586,2.4,2.51,2.47,4.26
8.292458057403564,3.03,2.98,2.65,5.0
8.302487134933472,3.35,3.37,3.04,5.64
8.312526226043701,3.53,4.1,3.53,6.46
8.32361912727356,3.96,6.19,3.9,8.31
8.332600116729736,5.54,8.68,4.7,11.31
8.34256911277771,6.88,9.85,6.4,13.61
8.35346007347107,6.92,10.7,7.72,14.89
8.386115074157715,6.73,11.56,9.17,16.21
8.386389255523682,6.68,11.56,9.1,16.15
8.386672019958496,6.89,10.8,6.81,14.5
8.392380237579346,6.54,9.63,2.63,11.93
8.402368068695068,6.76,9.54,-2.5,11.95
8.412405014038086,3.4,11.33,-5.32,12.97
8.42304015159607,-5.92,14.19,-4.62,16.05
8.432361125946045,-6.25,13.03,-2.87,14.73
8.44241714477539,0.25,7.35,-0.7,7.38
8.453421115875244,-0.1,2.08,-0.06,2.08
8.486576080322266,-5.21,2.24,-4.45,7.2
8.486865997314453,-0.61,3.79,-3.07,4.91
8.487152099609375,6.25,3.65,3.09,7.86
8.492236137390137,9.72,1.38,5.26,11.13
8.502211093902588,8.66,0.1,4.75,9.87
8.512205123901367,7.36,-0.63,3.85,8.33
8.522958278656006,7.12,-1.45,3.15,7.91
8.532257080078125,6.11,-2.01,2.53,6.91
8.542267084121704,4.62,-2.04,1.91,5.39
8.55315613746643,3.67,-2.16,1.88,4.65
8.587329149246216,3.53,-2.71,2.15,4.94
8.587623119354248,3.72,-3.16,2.25,5.37
8.587907075881958,3.75,-3.35,2.47,5.6
8.592111110687256,3.38,-3.08,2.65,5.28
8.602066040039062,2.99,-2.26,2.67,4.6
8.612121105194092,2.1,-1.27,2.37,3.41
8.62275218963623,0.71,-0.96,0.9,1.49
8.632081031799316,-0.18,-1.01,-0.74,1.26
8.642091274261475,-0.92,-0.86,-1.76,2.16
8.652982234954834,-1.3,-1.26,-1.5,2.35
8.687282085418701,-1.73,-1.9,-1.01,2.76
8.687570095062256,-1.8,-2.27,-0.96,3.05
8.687856197357178,-1.49,-2.43,-1.36,3.15
8.69191598892212,-1.5,-2.66,-1.68,3.48
8.701938152313232,-2.25,-3.0,-1.48,4.03
8.711874961853027,-3.29,-3.17,-1.4,4.77
8.72252893447876,-3.96,-2.92,-1.68,5.19
8.731961250305176,-4.22,-2.45,-2.16,5.33
8.742123126983643,-4.67,-1.95,-2.94,5.85
8.752905130386353,-5.38,-1.25,-4.34,7.02
8.787153244018555,-6.36,-0.58,-5.8,8.62
8.787442207336426,-7.25,-0.29,-6.85,9.97
8.787734985351562,-7.76,-0.28,-7.81,11.01
8.791730165481567,-8.04,-0.61,-8.43,11.66
8.801746129989624,-7.91,-1.45,-8.08,11.39
8.811792135238647,-7.52,-2.38,-7.93,11.18
8.822497129440308,-7.81,-2.79,-8.96,12.2
8.831869125366211,-8.19,-2.92,-9.23,12.68
8.841848134994507,-8.2,-3.65,-9.06,12.75
8.852824211120605,-8.29,-3.86,-9.39,13.1
8.887804985046387,-8.17,2.45,-7.87,11.6
8.88809609413147,-3.44,-3.25,-5.86,7.53
8.88838505744934,-4.51,-3.58,-6.71,8.84
8.891504049301147,0.33,10.33,3.6,10.94
8.902160167694092,11.86,16.89,15.94,26.07
8.911631107330322,7.65,16.76,-7.6,19.92
8.922314167022705,-2.28,4.91,-4.5,7.03
8.931642055511475,-7.89,-3.35,2.04,8.81
8.941777229309082,-10.39,0.16,-5.36,11.69
8.952612161636353,-7.87,-1.36,-8.53,11.68
8.986961126327515,-7.26,-0.54,-5.61,9.19
8.98724913597107,-6.85,-1.12,-5.42,8.8
8.987534046173096,-2.95,0.24,-5.67,6.39
8.991422176361084,-0.94,0.03,-4.82,4.91
9.001431941986084,0.58,0.0,-3.6,3.64
9.011592149734497,1.57,0.5,-2.65,3.12
9.022106170654297,1.92,0.77,-1.71,2.68
9.031637191772461,1.14,0.71,-1.4,1.94
9.041396141052246,0.21,0.42,-1.56,1.62
9.052412033081055,-0.58,0.25,-1.04,1.21
9.08766794204712,-1.24,0.2,-0.41,1.32
9.08795714378357,-1.55,-0.07,0.06,1.55
9.088240146636963,-1.53,-0.32,-0.06,1.56
9.091309070587158,-1.1,-0.39,-0.14,1.17
9.101335048675537,-0.57,-0.32,-0.33,0.73
9.112665176391602,-0.25,-0.15,-0.42,0.51
9.12181806564331,-0.2,-0.05,-0.34,0.39
9.131312131881714,-0.2,-0.04,-0.3,0.36
9.141263008117676,-0.1,-0.02,0.02,0.1
9.152306079864502,0.22,-0.04,0.53,0.57
9.187603950500488,0.71,-0.04,0.72,1.01
9.187894105911255,1.19,0.02,0.57,1.31
9.188181161880493,1.35,0.07,0.52,1.44
9.191074132919312,1.22,0.12,0.5,1.32
9.201159954071045,1.23,0.17,0.41,1.3
9.211137056350708,1.42,0.17,0.44,1.49
9.221756935119629,1.46,0.06,0.57,1.56
9.231236934661865,1.33,0.04,0.76,1.53
9.241278171539307,0.91,0.13,0.86,1.25
9.252149105072021,0.55,0.18,1.24,1.36
9.288246154785156,0.49,0.1,1.56,1.63
9.288527011871338,0.65,-0.02,1.44,1.58
9.288790225982666,0.85,-0.2,1.32,1.58
9.290998935699463,0.96,-0.15,1.14,1.49
9.301233053207397,0.85,0.13,0.5,0.99
9.311062097549438,0.63,0.38,0.18,0.75
9.321636199951172,0.61,0.56,0.24,0.86
9.33108901977539,1.05,0.61,0.44,1.29
9.34120798110962,1.47,0.52,0.84,1.77
9.351746082305908,1.55,0.29,1.42,2.12
9.387073040008545,1.63,0.37,1.88,2.51
9.387341976165771,1.78,0.95,1.89,2.76
9.387616157531738,1.75,2.02,1.69,3.16
9.390982151031494,1.5,2.45,1.69,3.33
9.400956153869629,1.01,2.85,1.67,3.45
9.410871028900146,1.52,3.08,1.83,3.89
9.421576976776123,2.1,3.01,2.32,4.34
9.430873155593872,2.73,3.16,2.53,4.88
9.44123911857605,3.25,3.71,2.87,5.7
9.451794147491455,3.39,4.91,3.19,6.76
9.487282276153564,4.13,7.19,3.33,8.93
9.487560272216797,5.87,9.04,4.7,11.75
9.487827062606812,6.44,9.75,5.96,13.11
9.491079092025757,5.78,10.27,6.76,13.58
9.50078010559082,5.26,11.06,8.45,14.87
9.51079511642456,5.15,11.29,8.82,15.22
9.521387100219727,4.76,10.35,7.16,13.45
9.530800104141235,4.81,8.85,3.79,10.76
9.54122805595398,6.68,8.04,-1.74,10.59
9.551562070846558,6.62,9.91,-4.83,12.85
9.587579250335693,0.82,12.89,-2.69,13.19
9.587855100631714,-2.84,12.81,-0.47,13.12
9.58812427520752,0.44,8.68,-0.12,8.69
9.590868949890137,2.67,4.3,1.36,5.24
9.600550174713135,-1.51,2.17,0.42,2.67
9.610598087310791,-4.65,1.87,-3.69,6.22
9.621243000030518,-0.51,3.98,-1.07,4.15
9.630692958831787,4.38,3.48,2.07,5.96
9.641057968139648,7.18,1.34,3.27,8.0
9.651484966278076,7.26,-0.47,3.83,8.22
9.688426971435547,6.41,-1.63,3.47,7.46
9.688700199127197,5.76,-2.28,2.64,6.73
9.688969135284424,4.89,-2.43,1.83,5.75
9.690958023071289,4.15,-2.36,1.59,5.03
9.700418949127197,3.68,-2.55,2.17,4.97
9.710415124893188,3.37,-2.85,2.75,5.2
9.721055030822754,3.01,-3.0,2.89,5.13
9.730486154556274,2.49,-3.09,2.91,4.92
9.740597248077393,1.88,-3.14,2.59,4.48
9.751289129257202,1.31,-3.05,1.66,3.71
9.788442134857178,0.91,-3.03,1.33,3.43
9.788715124130249,0.68,-3.18,1.13,3.44
9.78898310661316,0.88,-3.34,1.3,3.69
9.790239095687866,1.02,-3.57,1.14,3.88
9.800264120101929,0.67,-3.81,0.93,3.97
9.81028127670288,-0.08,-3.69,0.68,3.75
9.820970058441162,-0.55,-3.67,-0.08,3.71
9.830353260040283,-1.05,-3.31,-1.24,3.68
9.840285062789917,-2.42,-2.58,-2.67,4.43
9.851146221160889,-4.08,-2.11,-4.77,6.62
9.888370990753174,-5.64,-1.69,-5.52,8.07
9.888642072677612,-6.78,-1.63,-4.73,8.42
9.888909101486206,-7.0,-1.31,-4.64,8.49
9.89008116722107,-6.77,-0.42,-5.81,8.93
9.900166034698486,-6.5,0.19,-6.38,9.1
9.91011905670166,-7.18,0.6,-6.54,9.73
9.920770168304443,-9.07,1.2,-7.51,11.83
9.930175065994263,-10.84,1.41,-9.05,14.19
9.940142154693604,-11.53,1.04,-9.68,15.09
9.951045036315918,-10.53,-0.58,-8.75,13.7
9.988332271575928,-9.01,-2.44,-7.13,11.74
9.988609075546265,-8.1,-3.03,-6.38,10.74
9.98887825012207,-7.82,-3.09,-5.78,10.2
9.989997148513794,-8.55,-1.73,-5.26,10.18
9.99989914894104,-5.95,1.52,-5.26,8.08
10.009992122650146,-1.39,-2.95,-4.69,5.71
10.020549058914185,-0.32,3.63,-0.57,3.68
10.030234098434448,14.32,15.74,20.34,29.43
10.040390014648438,18.01,14.54,10.48,25.4
10.050939083099365,2.68,11.34,-11.78,16.56
10.08811616897583,-6.55,3.67,-1.83,7.72
10.088379144668579,-10.69,-0.95,-1.48,10.83
10.088639259338379,-10.84,-1.4,-4.49,11.81
10.089931011199951,-10.7,-2.1,-3.37,11.41
10.099881172180176,-10.14,-2.88,-6.29,12.27
10.10982608795166,-7.27,-1.33,-7.18,10.3
10.120435237884521,-4.17,0.34,-5.38,6.81
10.129830121994019,-2.13,0.63,-3.82,4.41
10.139894008636475,-0.81,0.57,-3.35,3.49
10.150586128234863,0.15,0.73,-2.86,2.95
10.188776016235352,0.06,1.05,-1.63,1.93
10.189064979553223,-1.06,0.99,-1.06,1.79
10.18951416015625,-2.14,0.51,-1.26,2.53
10.189778089523315,-2.44,0.11,-1.36,2.79
10.199716091156006,-2.03,-0.08,-0.85,2.2
10.209708213806152,-1.26,-0.21,-0.12,1.28
10.220319271087646,-0.75,-0.22,0.15,0.79
10.229755163192749,-0.32,-0.15,0.04,0.35
10.239641189575195,0.01,0.07,-0.44,0.44
10.250452995300293,0.27,0.14,-0.96,1.0
10.288197994232178,0.41,-0.02,-0.88,0.97
10.288464069366455,0.35,-0.09,-0.56,0.66
10.28872299194336,0.29,-0.06,-0.4,0.49
10.289546012878418,0.25,0.0,-0.14,0.28
10.299543142318726,0.28,0.14,0.2,0.37
10.3095121383667,0.55,0.22,0.71,0.92
10.32011604309082,0.89,0.17,1.32,1.6
10.32958698272705,1.32,0.1,1.49,1.99
10.339729070663452,1.95,0.12,0.94,2.16
10.350321054458618,2.21,0.25,0.81,2.36
10.389572143554688,1.91,0.17,1.03,2.17
10.38983416557312,1.73,-0.07,1.34,2.18
10.390093088150024,1.85,-0.22,1.87,2.63
10.390352249145508,1.78,-0.3,2.25,2.88
10.39937710762024,1.92,-0.29,2.24,2.96
10.409434080123901,2.12,-0.23,1.81,2.79
10.419933080673218,1.76,-0.21,1.44,2.28
10.429388046264648,1.23,-0.12,1.07,1.63
10.439403057098389,0.87,0.0,0.6,1.05
10.450205087661743,0.88,0.06,0.56,1.04
10.488728046417236,1.2,0.15,0.85,1.47
10.48915410041809,1.45,0.51,0.74,1.7
10.489412069320679,1.35,0.76,0.99,1.83
10.489666938781738,1.11,0.9,1.82,2.31
10.499249935150146,1.02,1.05,2.08,2.54
10.509257078170776,1.16,1.58,1.52,2.48
10.519835948944092,0.74,2.33,1.19,2.71
10.529292106628418,0.46,2.91,1.33,3.23
10.539411067962646,0.92,2.74,1.77,3.38
10.550011157989502,1.68,2.49,2.41,3.85
10.589958190917969,2.67,2.49,2.96,4.7
10.590224266052246,3.64,2.99,3.65,5.95
10.59048318862915,4.5,3.66,4.33,7.23
10.590747117996216,5.01,4.56,4.91,8.36
10.599356174468994,5.11,6.31,4.95,9.5
10.608997106552124,5.61,8.69,5.43,11.68
10.619740962982178,6.45,10.44,7.36,14.3
10.629094123840332,7.09,12.0,8.31,16.22
10.639089107513428,7.65,13.01,8.67,17.4
10.649837970733643,7.34,12.43,8.72,16.86
10.689624071121216,6.17,10.39,6.62,13.77
10.689885139465332,4.84,8.74,0.19,9.99
10.690144062042236,4.33,9.75,-6.99,12.75
10.69040298461914,1.03,13.66,-8.18,15.95
10.699012279510498,-3.06,16.04,-1.47,16.39
10.708901166915894,-2.72,13.52,0.98,13.82
10.719635963439941,1.92,7.98,-1.13,8.28
10.728943109512329,2.67,3.21,0.01,4.17
10.739110946655273,-3.03,0.2,-1.45,3.36
10.749773979187012,-5.59,1.0,-6.23,8.42
10.789637088775635,-0.93,4.01,-2.26,4.69
10.789904117584229,4.68,3.53,1.33,6.01
10.790164947509766,8.53,1.14,3.29,9.21
10.790421962738037,8.51,-1.16,4.82,9.84
10.798782110214233,6.35,-2.51,4.26,8.04
10.80868911743164,4.48,-2.74,2.72,5.91
10.819416046142578,3.16,-2.38,1.8,4.34
10.828832149505615,2.6,-2.1,1.81,3.8
10.838839054107666,2.3,-2.29,2.32,3.98
10.849611282348633,1.72,-2.79,2.55,4.15
10.890006065368652,1.13,-3.21,2.37,4.14
10.890268087387085,0.86,-3.51,2.18,4.22
10.890526056289673,0.9,-3.83,1.95,4.39
10.890782117843628,1.04,-4.29,1.79,4.76
10.898684024810791,1.26,-4.67,1.46,5.05
10.908806085586548,1.34,-4.95,1.17,5.25
10.91929316520691,1.19,-5.19,1.37,5.49
10.928650140762329,1.22,-5.31,1.17,5.57
10.938735008239746,1.25,-5.39,1.08,5.63
10.94943904876709,0.59,-5.4,1.1,5.54
10.990907192230225,-0.37,-5.42,0.65,5.47
10.991172075271606,-1.36,-5.5,-0.75,5.71
10.991433143615723,-3.35,-5.0,-2.43,6.49
10.992038249969482,-5.23,-4.43,-4.98,8.47
10.998534202575684,-6.71,-3.69,-7.07,10.42
11.008742094039917,-7.89,-3.08,-7.03,11.0
11.019130229949951,-7.57,-2.44,-6.31,10.15
11.028449058532715,-6.83,-1.34,-7.33,10.1
11.03865909576416,-7.03,0.07,-9.31,11.66
11.049355030059814,-8.15,1.14,-10.32,13.19
11.090384006500244,-9.17,1.4,-10.47,13.98
11.090651035308838,-9.29,0.39,-9.61,13.37
11.090911149978638,-9.55,-0.51,-9.16,13.24
11.091170072555542,-10.48,-1.14,-10.23,14.68
11.09857702255249,-10.58,-2.66,-10.05,14.83
11.108617067337036,-9.5,-3.97,-8.69,13.47
11.119016170501709,-8.5,-3.86,-8.34,12.51
11.128424167633057,-9.14,1.01,-7.97,12.16
11.138533115386963,-4.68,2.42,-3.35,6.24
11.1491379737854,2.47,-0.87,-1.39,2.96
11.189857006072998,16.07,12.28,19.0,27.74
11.190542221069336,27.94,17.1,23.94,40.57
11.190816164016724,8.89,17.64,-10.74,22.48
11.19108510017395,-3.41,9.69,-11.74,15.59
11.198255062103271,-8.62,-3.05,-11.95,15.04
11.208226203918457,-15.3,-1.95,2.56,15.63
11.218831062316895,-17.35,-2.43,3.07,17.78
11.228178024291992,-12.79,-3.58,-6.57,14.81
11.2381911277771,-8.39,-1.86,-8.73,12.25
11.248996257781982,-4.38,0.4,-5.85,7.31
11.290152072906494,-0.81,0.87,-3.54,3.73
11.290804147720337,2.29,0.76,-3.28,4.07
11.291065216064453,3.67,0.91,-2.89,4.75
11.291324138641357,2.36,1.18,-1.95,3.28
11.29814100265503,-0.46,1.0,-1.89,2.18
11.308045148849487,-1.59,0.61,-1.74,2.43
11.318650245666504,-1.44,0.15,-0.92,1.71
11.32804012298584,-1.69,-0.28,-0.09,1.71
11.33808422088623,-1.49,-0.35,0.01,1.53
11.348909139633179,-0.82,-0.18,-0.16,0.85
11.358088970184326,0.13,-0.11,-0.39,0.42
11.392154216766357,0.66,-0.33,-0.26,0.78
11.392418146133423,0.54,-0.47,0.09,0.72
11.392677068710327,0.37,-0.4,0.17,0.57
11.397822141647339,0.37,-0.2,0.27,0.49
11.407900094985962,0.16,0.17,0.53,0.57
11.418530941009521,-0.04,0.39,0.54,0.66
11.42783808708191,-0.03,0.39,0.52,0.65
11.43790316581726,0.22,0.28,0.45,0.57
11.448720932006836,0.68,0.27,0.58,0.93
11.45816707611084,1.33,0.15,1.09,1.72
11.49171495437622,2.03,-0.03,1.56,2.56
11.492278099060059,2.47,-0.2,1.89,3.11
11.492541074752808,2.28,-0.33,2.0,3.05
11.497791051864624,1.79,-0.36,1.96,2.67
11.50777006149292,1.41,-0.42,1.48,2.08
11.518342018127441,1.15,-0.43,0.9,1.52
11.527827262878418,1.0,-0.08,0.48,1.11
11.537798166275024,0.99,0.33,0.05,1.04
11.548580169677734,0.99,0.45,-0.1,1.09
11.55784010887146,1.1,0.41,0.28,1.2
11.591880083084106,1.29,0.32,0.71,1.5
11.592141151428223,1.45,0.13,1.43,2.04
11.592398166656494,1.56,0.04,1.85,2.42
11.597640037536621,1.65,0.36,1.65,2.36
11.607623100280762,1.48,0.88,1.13,2.05
11.61824107170105,0.89,1.26,0.53,1.63
11.627665996551514,0.81,1.49,0.5,1.76
11.637645244598389,1.0,1.82,1.01,2.3
11.64833402633667,1.6,2.38,1.22,3.11
11.657636165618896,1.95,2.72,1.48,3.65
11.692747116088867,1.97,2.88,1.96,4.0
11.693006992340088,2.0,2.77,2.39,4.16
11.693267107009888,2.19,2.89,2.74,4.54
11.697529077529907,2.47,3.27,3.24,5.22
11.707541942596436,2.71,4.65,3.46,6.39
11.717994213104248,3.87,7.02,3.7,8.82
11.7275071144104,5.51,8.11,5.6,11.29
11.737446069717407,5.63,8.64,7.03,12.48
11.748324155807495,6.2,10.15,8.3,14.5
11.757476091384888,6.61,11.32,9.28,16.06
11.792298078536987,6.02,10.79,9.31,15.47
11.79256010055542,5.17,9.12,8.09,13.24
11.792817115783691,5.04,7.63,3.38,9.74
11.797324180603027,6.5,7.95,-2.84,10.65
11.80737018585205,5.24,11.3,-5.99,13.82
11.81786823272705,-0.79,14.88,-3.29,15.25
11.827317237854004,-2.3,14.32,-0.47,14.51
11.837323188781738,0.53,10.05,-1.25,10.14
11.848135948181152,1.98,5.41,-0.05,5.76
11.85736608505249,-0.39,2.53,1.38,2.9
11.893119096755981,-5.27,1.14,-3.73,6.55
11.893391132354736,-3.3,4.02,-5.15,7.31
11.893649101257324,2.39,5.41,-0.02,5.91
11.897119045257568,6.41,3.42,2.13,7.57
11.90735411643982,8.67,0.75,3.33,9.31
11.917722225189209,7.79,-1.52,3.21,8.56
11.927157163619995,5.85,-3.0,2.0,6.87
11.93723201751709,4.67,-3.62,2.13,6.28
11.947970151901245,3.72,-3.62,2.48,5.75
11.957198143005371,3.06,-3.21,2.65,5.16
11.993453025817871,2.19,-2.79,2.5,4.33
11.993715286254883,1.39,-2.77,2.2,3.8
11.993981122970581,1.03,-2.85,1.99,3.62
11.996994972229004,1.31,-2.9,1.97,3.74
12.00711727142334,1.85,-3.05,1.93,4.05
12.017630100250244,2.35,-3.16,1.65,4.26
12.02693223953247,2.43,-3.37,1.47,4.4
12.037070274353027,2.08,-3.48,1.1,4.2
12.047880172729492,1.65,-3.61,0.85,4.05
12.056969165802002,0.99,-4.07,0.64,4.23
12.093584060668945,0.1,-4.6,0.49,4.62
12.093853950500488,-0.91,-5.0,0.08,5.08
12.094113111495972,-1.52,-5.36,-0.87,5.63
12.09688115119934,-1.89,-5.36,-1.63,5.91
12.10694694519043,-2.82,-5.13,-2.57,6.39
12.117382049560547,-4.85,-4.53,-4.51,8.02
12.126873970031738,-6.97,-3.84,-5.48,9.66
12.13700819015503,-7.8,-3.39,-5.28,10.01
12.1476149559021,-7.24,-2.51,-5.68,9.53
12.157034158706665,-6.35,-1.4,-6.31,9.06
12.19386625289917,-6.05,-0.44,-7.12,9.35
12.194129943847656,-6.7,0.27,-7.64,10.16
12.194392204284668,-8.1,0.43,-8.09,11.45
12.19684910774231,-9.38,-0.04,-8.43,12.61
12.206815242767334,-9.83,-0.69,-8.98,13.33
12.217344284057617,-9.1,-1.05,-9.01,12.84
12.22661018371582,-8.37,-1.2,-8.55,12.02
12.236763000488281,-8.01,-1.58,-8.31,11.64
12.247485160827637,-8.09,-2.33,-7.94,11.57
12.256860256195068,-9.01,-2.77,-7.42,11.99
12.294384956359863,-9.08,1.64,-6.94,11.54
12.294649124145508,-3.0,0.96,-4.43,5.43
12.294909000396729,3.83,1.57,1.58,4.43
12.29678726196289,17.42,12.98,22.02,30.93
12.307047128677368,22.06,14.39,11.32,28.66
12.317179203033447,6.79,14.49,-13.71,21.07
12.326530933380127,-3.85,4.0,-5.71,7.96
12.336627960205078,-9.13,-3.88,0.18,9.92
12.34735107421875,-11.54,-2.81,-4.21,12.6
12.356588125228882,-9.52,-3.27,-6.5,11.98
12.393218040466309,-7.52,-1.96,-8.43,11.46
12.393480062484741,-5.13,-0.24,-7.48,9.07
12.393738269805908,-4.1,1.1,-4.33,6.06
12.396382093429565,-2.72,0.83,-3.01,4.14
12.406411170959473,-0.53,0.61,-2.09,2.24
12.417013168334961,0.21,0.5,-1.27,1.38
12.426608085632324,-0.79,0.44,-0.62,1.09
12.436497211456299,-2.2,0.37,-0.41,2.26
12.447202205657959,-2.72,0.11,-0.71,2.81
12.456465244293213,-2.17,-0.02,-0.61,2.25
12.494558095932007,-1.47,-0.08,-0.15,1.47
12.494823932647705,-1.32,-0.19,0.19,1.34
12.495082139968872,-1.3,-0.32,0.3,1.37
12.496315002441406,-0.54,-0.29,-0.06,0.61
12.506318092346191,0.13,0.0,-0.95,0.95
12.516875267028809,0.65,0.13,-1.64,1.76
12.526646137237549,1.0,0.1,-1.87,2.12
12.536373138427734,0.75,-0.03,-1.32,1.51
12.547107219696045,-0.11,-0.19,-0.11,0.24
12.556355953216553,-0.72,-0.14,0.64,0.97
12.594510078430176,-0.94,0.13,0.98,1.36
12.594778060913086,-0.83,0.3,1.1,1.41
12.59503698348999,-0.24,0.28,0.91,0.98
12.59619426727295,0.69,0.25,0.91,1.16
12.606101989746094,1.66,0.27,0.99,1.95
12.616727113723755,2.22,0.26,1.0,2.44
12.626534938812256,2.0,0.25,0.93,2.21
12.636162281036377,1.35,0.11,0.78,1.56
12.646862983703613,0.73,-0.17,0.85,1.13
12.656185150146484,0.57,-0.27,1.39,1.52
12.69467806816101,1.1,-0.2,1.96,2.25
12.694941997528076,2.11,-0.1,1.98,2.89
12.695203065872192,2.33,-0.07,1.21,2.62
12.696012020111084,1.71,0.06,0.7,1.84
12.706005096435547,1.23,0.3,0.54,1.37
12.716761112213135,1.22,0.48,0.74,1.5
12.726016998291016,1.29,0.59,1.01,1.74
12.736223220825195,0.97,0.64,1.0,1.53
12.746694087982178,0.68,0.66,1.61,1.86
12.756034135818481,0.95,0.77,1.97,2.31
12.794771194458008,1.52,1.17,1.94,2.72
12.795035123825073,1.65,1.68,1.79,2.95
12.79531717300415,1.43,1.74,1.59,2.75
12.795896053314209,1.65,2.5,1.2,3.22
12.805938243865967,1.99,2.7,1.43,3.64
12.81639313697815,1.98,2.76,1.91,3.89
12.82585096359253,2.69,2.87,2.5,4.66
12.835905075073242,3.33,3.15,3.19,5.58
12.846650123596191,3.67,3.61,3.91,6.46
12.855992078781128,3.78,4.55,4.45,7.4
12.894991159439087,3.82,6.7,4.19,8.77
12.89543628692627,4.9,9.32,4.95,11.63
12.895709037780762,5.59,10.95,7.38,14.33
12.895970106124878,5.98,11.97,8.65,15.93
12.905895233154297,6.25,12.5,9.09,16.67
12.916290283203125,5.78,12.26,9.22,16.39
12.925796031951904,5.43,11.26,7.31,14.48
12.935784101486206,5.63,9.73,2.05,11.42
12.946465015411377,6.08,9.35,-2.98,11.54
12.955714225769043,2.22,11.89,-3.77,12.66
12.99538803100586,-3.67,14.44,-2.3,15.07
12.99566125869751,-2.82,12.66,-1.8,13.09
12.995920181274414,0.77,6.64,-0.2,6.68
12.996177196502686,0.29,3.07,1.76,3.55
13.00551700592041,-5.32,1.71,-3.66,6.67
13.016134262084961,-5.03,4.11,-7.1,9.62
13.02558708190918,1.07,5.1,0.08,5.21
13.035608053207397,5.03,2.75,2.76,6.36
13.04642915725708,6.07,0.72,2.52,6.61
13.05564022064209,4.47,-0.77,2.49,5.17
13.095670223236084,3.71,-1.83,2.59,4.88
13.09593415260315,3.95,-2.37,2.6,5.28
13.09619426727295,4.22,-2.46,2.4,5.44
13.096450090408325,4.21,-2.26,2.6,5.43
13.105432033538818,3.66,-2.32,3.03,5.28
13.116003036499023,2.72,-2.67,3.1,4.91
13.125461101531982,1.93,-2.94,2.91,4.56
13.13543701171875,1.92,-3.09,2.92,4.66
13.146098136901855,2.47,-3.33,2.91,5.06
13.155457973480225,2.88,-3.47,2.7,5.25
13.195847034454346,2.91,-3.49,2.43,5.15
13.19611120223999,2.58,-3.71,2.24,5.04
13.196372985839844,1.99,-4.08,1.78,4.87
13.196628093719482,1.45,-4.51,1.38,4.93
13.205425262451172,0.96,-4.95,1.06,5.15
13.215816020965576,0.36,-5.43,0.7,5.48
13.225285053253174,-0.18,-6.01,0.3,6.02
13.235215187072754,-0.62,-6.57,0.38,6.61
13.24594497680664,-1.45,-6.78,0.01,6.93
13.255332946777344,-2.13,-6.69,-0.64,7.05
13.296277046203613,-2.8,-6.43,-1.82,7.24
13.296540260314941,-4.11,-5.44,-3.95,7.87
13.296799182891846,-5.9,-3.91,-6.62,9.69
13.29705810546875,-7.49,-2.43,-7.77,11.06
13.305184125900269,-7.44,-1.44,-7.29,10.51
13.31564998626709,-6.6,-0.31,-7.16,9.74
13.325109958648682,-6.86,1.06,-8.63,11.07
13.33508825302124,-8.16,2.22,-10.32,13.34
13.345823049545288,-9.0,2.41,-10.56,14.08
13.355256080627441,-8.67,1.04,-10.01,13.28
13.39646315574646,-7.72,-0.26,-10.19,12.78
13.396725177764893,-6.93,-0.92,-10.27,12.42
13.396984100341797,-6.71,-1.82,-9.61,11.86
13.397241115570068,-7.16,-2.66,-9.12,11.89
13.404951095581055,-7.11,3.63,-6.55,10.32
13.415512084960938,-2.85,-1.09,-3.96,4.99
13.42614221572876,2.6,5.0,4.09,6.96
13.435408115386963,15.2,14.41,27.6,34.64
13.445733070373535,14.23,14.44,2.07,20.37
13.45498013496399,-1.74,12.42,-12.25,17.53
13.49724817276001,-11.8,1.47,-1.08,11.94
13.497514247894287,-13.75,-7.43,-3.65,16.04
13.497774124145508,-7.9,-3.94,-6.57,11.0
13.498039245605469,-7.97,-1.99,-6.25,10.32
13.50486707687378,-5.1,-0.33,-7.89,9.4
13.515429019927979,-2.76,1.95,-6.08,6.95
13.524769067764282,-0.55,1.11,-4.39,4.56
13.534820079803467,2.42,0.4,-4.21,4.87
13.545553207397461,3.28,0.4,-2.45,4.11
13.554829120635986,1.36,0.58,-1.27,1.94
13.597743034362793,-1.02,0.59,-1.34,1.78
13.598011016845703,-2.25,0.51,-1.85,2.95
13.598271131515503,-2.2,0.42,-1.56,2.72
13.598528146743774,-1.85,0.22,-0.74,2.0
13.604709148406982,-1.9,-0.1,-0.45,1.95
13.61524510383606,-2.11,-0.39,-0.34,2.17
13.624706268310547,-1.47,-0.46,-0.38,1.58
13.634673118591309,-0.22,-0.18,-0.55,0.61
13.645302057266235,0.28,0.05,-0.92,0.96
13.654682159423828,0.33,0.03,-0.8,0.86
13.698173999786377,0.31,-0.1,-0.21,0.38
13.698437213897705,0.29,-0.2,0.63,0.72
13.698683261871338,0.29,-0.17,1.19,1.23
13.698939085006714,0.4,0.01,1.21,1.27
13.704424142837524,0.73,0.27,0.97,1.24
13.715104103088379,1.1,0.42,0.68,1.35
13.724557161331177,0.96,0.26,0.17,1.0
13.7345552444458,0.62,0.0,0.35,0.71
13.745113134384155,0.76,-0.06,0.85,1.14
13.75459098815918,0.94,0.06,1.05,1.41
13.798342227935791,0.82,0.2,1.25,1.5
13.798603057861328,0.79,0.26,1.36,1.59
13.798871994018555,0.45,0.15,1.18,1.27
13.799133062362671,0.02,-0.07,0.74,0.74
13.804342269897461,0.23,-0.21,0.6,0.67
13.814821243286133,0.78,-0.06,0.49,0.92
13.824429035186768,1.46,0.25,0.34,1.51
13.834355115890503,1.99,0.48,0.44,2.09
13.84501028060913,2.14,0.63,0.84,2.38
13.854594230651855,2.05,0.76,1.21,2.49
13.89847207069397,1.92,0.77,1.88,2.79
13.898750066757202,1.97,0.82,2.47,3.26
13.899011135101318,2.21,1.14,2.52,3.54
13.899277210235596,2.46,1.99,2.48,4.02
13.904288053512573,2.96,2.53,2.63,4.69
13.914760112762451,3.03,3.09,2.69,5.09
13.924365997314453,3.37,3.38,2.47,5.37
13.934235095977783,3.24,3.31,2.86,5.44
13.945043087005615,3.16,3.38,3.26,5.66
13.954246997833252,3.15,3.63,3.82,6.13
13.998968124389648,3.02,4.48,4.22,6.85
13.999237060546875,2.93,7.01,3.97,8.57
13.999496936798096,4.28,10.26,4.49,11.98
13.999755144119263,5.47,11.45,7.2,14.58
14.004338264465332,5.95,12.44,8.72,16.31
14.014524936676025,6.82,13.89,8.79,17.79
14.024052143096924,5.63,13.97,8.66,17.37
14.034081935882568,4.1,12.04,6.92,14.47
14.04512906074524,5.35,9.71,0.53,11.09
14.054135084152222,6.81,9.76,-4.52,12.73
14.099502086639404,1.41,13.0,-3.7,13.58
14.099836111068726,-4.64,15.04,-2.69,15.96
14.100098133087158,-1.29,11.62,-2.68,11.99
14.100365161895752,1.83,4.79,0.66,5.16
14.103960037231445,-2.69,1.92,0.19,3.31
14.11441707611084,-6.79,1.77,-5.9,9.16
14.124046087265015,-2.33,4.35,-2.41,5.49
14.133932113647461,3.46,4.06,2.33,5.82
14.18144702911377,7.32,2.06,2.92,8.14
14.18171215057373,7.36,0.52,3.7,8.25
14.181970119476318,5.73,-0.69,3.78,6.89
14.182233095169067,4.93,-1.6,3.11,6.04
14.183763027191162,3.96,-2.12,2.36,5.07
14.193747997283936,3.08,-2.35,1.85,4.29
14.203952074050903,2.48,-2.81,2.11,4.3
14.21433711051941,1.99,-3.54,2.82,4.94
14.223820209503174,1.71,-4.01,2.88,5.22
14.233867168426514,1.52,-4.33,2.84,5.39
14.284032106399536,1.34,-4.62,2.94,5.63
14.284296035766602,1.35,-4.59,2.54,5.41
14.284556150436401,1.53,-4.42,2.32,5.22
14.28481411933899,1.59,-4.35,2.2,5.12
14.285073280334473,1.64,-4.43,2.22,5.21
14.293676137924194,1.38,-4.61,2.24,5.3
14.303681135177612,0.92,-4.85,2.13,5.37
14.314229965209961,0.47,-5.14,1.92,5.5
14.323561191558838,-0.12,-5.47,1.49,5.67
14.333779096603394,-0.97,-5.9,0.77,6.02
14.383362054824829,-1.75,-6.43,0.41,6.67
14.383628129959106,-2.43,-6.79,0.19,7.21
14.383886098861694,-3.0,-6.73,-0.55,7.38
14.384143114089966,-3.63,-6.41,-1.92,7.61
14.384398937225342,-4.54,-5.8,-3.58,8.18
14.393507957458496,-6.24,-4.64,-5.61,9.58
14.403501987457275,-7.57,-3.31,-7.41,11.09
14.414645195007324,-7.91,-2.31,-8.21,11.63
14.423418045043945,-7.98,-1.29,-8.36,11.62
14.433504104614258,-8.48,-0.22,-8.73,12.17
14.483765125274658,-9.42,0.35,-9.49,13.37
14.484041213989258,-9.64,0.11,-9.77,13.72
14.484300136566162,-8.96,-0.33,-9.63,13.15
14.484557151794434,-8.8,-0.35,-9.64,13.05
14.48481798171997,-8.89,-0.33,-9.68,13.14
14.493326187133789,-8.41,-0.43,-9.57,12.74
14.503337144851685,-7.87,4.68,-8.53,12.51
14.513978004455566,-0.93,-0.23,-7.03,7.09
14.523513078689575,8.49,6.24,2.76,10.89
14.534055233001709,25.7,21.93,31.46,46.16
14.544113159179688,13.35,18.78,-0.89,23.05
14.584553241729736,-3.73,8.59,-12.81,15.86
14.584819078445435,-11.13,-3.6,3.57,12.23
14.585079193115234,-16.26,-4.54,1.63,16.96
14.585337162017822,-14.94,-3.68,-2.28,15.55
14.593191146850586,-10.01,-2.56,-6.03,11.96
14.603251934051514,-6.58,-0.35,-7.21,9.76
14.613829135894775,-4.29,1.3,-4.52,6.36
14.623202085494995,-2.67,1.07,-3.18,4.28
14.633249282836914,-0.7,0.23,-4.36,4.42
14.643917083740234,1.62,0.33,-4.17,4.48
14.685495138168335,1.97,0.89,-3.35,3.98
14.685758113861084,0.3,1.21,-3.23,3.46
14.686017036437988,-1.26,0.83,-2.77,3.15
14.68627405166626,-1.61,0.31,-1.57,2.27
14.69308614730835,-1.4,-0.03,-0.59,1.51
14.703059196472168,-1.04,-0.25,0.38,1.13
14.713702201843262,-1.05,-0.25,0.33,1.12
14.723055124282837,-0.82,-0.21,-0.23,0.87
14.733189105987549,-0.21,-0.04,-0.29,0.36
14.743808269500732,0.44,0.05,-0.2,0.48
14.785871028900146,0.59,0.06,-0.52,0.78
14.786132097244263,0.37,0.02,-0.41,0.55
14.786389112472534,0.18,-0.09,-0.28,0.34
14.786662101745605,0.13,-0.11,0.03,0.17
14.79297399520874,0.14,-0.01,0.35,0.37
14.802924156188965,0.28,0.12,0.6,0.67
14.813483238220215,0.64,0.24,0.97,1.18
14.82302713394165,1.17,0.29,1.13,1.65
14.833032131195068,1.63,0.23,1.35,2.12
14.843636989593506,1.88,0.06,1.61,2.47
14.885993957519531,1.65,-0.11,1.53,2.25
14.886256217956543,1.11,-0.16,1.4,1.79
14.886516094207764,0.67,-0.08,1.47,1.61
14.886773109436035,0.55,0.05,1.45,1.55
14.892772197723389,0.67,0.03,1.31,1.47
14.902859210968018,0.77,-0.07,1.19,1.41
14.913331985473633,0.84,-0.05,0.76,1.13
14.92287302017212,0.71,0.24,0.11,0.75
14.932762145996094,0.56,0.63,-0.02,0.84
14.943509101867676,0.86,0.77,0.41,1.22
14.9862060546875,1.55,0.63,1.29,2.11
14.986467123031616,2.04,0.52,1.76,2.74
14.986729145050049,2.43,0.25,2.75,3.67
14.986988067626953,2.55,0.74,2.63,3.73
14.992603063583374,2.15,1.61,2.13,3.42
15.002557277679443,1.46,2.32,1.84,3.3
15.013185024261475,1.34,2.76,1.96,3.64
15.022634029388428,1.95,3.14,2.35,4.38
15.032612085342407,2.74,3.12,2.84,5.03
15.043414115905762,3.45,3.17,3.28,5.71
15.08712100982666,3.85,3.49,3.79,6.43
15.087382078170776,3.83,4.44,4.1,7.15
15.087638139724731,3.9,6.54,3.89,8.55
15.08789610862732,5.03,8.57,4.59,10.94
15.092419147491455,5.57,9.38,6.2,12.54
15.102560043334961,5.93,10.59,8.07,14.57
15.112921237945557,6.49,11.92,9.24,16.41
15.122621059417725,5.88,12.34,9.08,16.41
15.132516145706177,5.49,11.58,8.22,15.22
15.143241167068481,5.21,9.98,3.25,11.71
15.18723726272583,5.0,9.5,-4.2,11.52
15.187506198883057,2.22,12.71,-7.55,14.94
15.187768936157227,-4.02,16.31,-2.13,16.93
15.188027143478394,-3.75,13.44,1.15,14.0
15.192270278930664,1.54,8.35,-1.08,8.55
15.202357053756714,1.84,3.81,0.67,4.28
15.212752103805542,-3.41,1.16,-0.31,3.61
15.222339153289795,-5.63,2.02,-5.5,8.12
15.233587265014648,-0.65,5.36,-1.65,5.64
15.243093013763428,4.21,4.83,2.45,6.85
15.287987232208252,7.5,2.34,3.56,8.62
15.288255214691162,7.83,0.34,3.91,8.75
15.288516998291016,6.36,-1.26,3.53,7.38
15.288784980773926,5.09,-2.23,3.15,6.38
15.292233943939209,3.83,-2.51,2.56,5.24
15.302188158035278,2.82,-2.39,1.85,4.13
15.312586069107056,2.22,-2.34,1.84,3.71
15.322144985198975,1.77,-2.75,2.29,3.99
15.332141160964966,1.47,-3.23,2.28,4.21
15.343153953552246,1.3,-3.58,1.99,4.29
15.388275146484375,1.05,-3.75,1.59,4.2
15.388538122177124,0.86,-3.6,1.12,3.86
15.388803005218506,0.72,-3.53,0.78,3.68
15.389059066772461,0.76,-3.61,0.3,3.7
15.391952991485596,0.99,-4.03,0.31,4.16
15.401952266693115,1.18,-4.45,0.45,4.62
15.412668228149414,1.06,-4.92,0.28,5.04
15.422080039978027,0.66,-5.64,0.21,5.68
15.432038068771362,0.24,-6.24,0.11,6.24
15.442768096923828,-0.19,-6.53,-0.24,6.53
15.489050149917603,-0.56,-6.66,-0.4,6.69
15.489315032958984,-1.56,-6.53,-0.97,6.78
15.489580154418945,-3.37,-6.08,-2.37,7.34
15.489838123321533,-5.29,-5.6,-4.44,8.89
15.49184513092041,-6.63,-4.98,-6.03,10.25
15.501897096633911,-6.87,-4.21,-6.27,10.2
15.512668132781982,-6.15,-3.39,-6.41,9.5
15.52193307876587,-6.06,-2.42,-7.44,9.89
15.531912088394165,-7.05,-1.48,-8.7,11.29
15.542631149291992,-8.21,-1.16,-9.14,12.34
15.58925199508667,-8.98,-1.43,-9.58,13.2
15.589516162872314,-9.34,-1.89,-9.9,13.74
15.589773178100586,-9.12,-2.43,-9.53,13.41
15.590023040771484,-9.18,-2.63,-9.42,13.41
15.591715097427368,-9.85,-2.85,-10.4,14.6
15.601668119430542,-10.31,-0.01,-11.29,15.28
15.612621068954468,-6.93,5.54,-6.57,11.03
15.621885061264038,-1.18,2.21,-3.61,4.39
15.632025241851807,15.07,20.74,26.64,36.97
15.642581939697266,20.13,29.45,6.8,36.31
15.689824104309082,6.65,17.06,-17.01,24.99
15.690091133117676,-5.09,-5.68,3.55,8.41
15.69035005569458,-16.38,-11.25,2.73,20.05
15.690616130828857,-12.21,-9.59,-4.24,16.09
15.691590070724487,-10.26,-5.04,-9.56,14.9
15.701525211334229,-7.89,-0.39,-9.56,12.4
15.712325096130371,-4.17,3.46,-4.64,7.13
15.721662998199463,-0.88,3.36,-3.77,5.12
15.7316312789917,2.23,1.63,-5.27,5.95
15.742391109466553,3.47,0.35,-3.34,4.82
15.79114818572998,1.31,0.05,-0.42,1.37
15.79141616821289,-2.07,0.37,-1.4,2.52
15.791675090789795,-3.05,0.33,-2.23,3.79
15.791932106018066,-2.58,0.36,-1.08,2.82
15.792189121246338,-1.52,0.35,-0.19,1.57
15.80143117904663,-1.12,0.17,-0.18,1.14
15.812378168106079,-0.88,-0.1,-0.75,1.16
15.821423053741455,-0.23,-0.3,-1.1,1.16
15.831438064575195,0.19,-0.34,-1.13,1.19
15.842154026031494,0.18,-0.19,-1.0,1.03
15.891303062438965,0.01,-0.08,-0.72,0.72
15.891564130783081,-0.15,-0.09,-0.42,0.45
15.891823053359985,-0.2,-0.08,-0.02,0.21
15.89207911491394,-0.08,0.01,0.35,0.35
15.892334938049316,0.21,0.07,0.67,0.7
15.901337146759033,0.68,0.12,0.88,1.11
15.912140130996704,1.21,0.18,0.89,1.51
15.921312093734741,1.54,0.23,0.73,1.71
15.931278228759766,1.42,0.27,0.52,1.53
15.941997051239014,1.04,0.25,0.45,1.16
15.991477012634277,0.72,0.09,0.44,0.84
15.991740226745605,0.58,-0.07,0.57,0.81
15.991998195648193,0.45,-0.09,0.91,1.01
15.992254257202148,0.29,0.02,1.13,1.16
15.992513179779053,0.03,0.15,1.22,1.22
16.00116515159607,-0.05,0.17,1.13,1.14
16.01159405708313,0.24,0.09,1.23,1.25
16.021128177642822,1.17,0.04,1.3,1.74
16.031174182891846,2.44,0.01,1.32,2.77
16.04184913635254,3.22,0.06,1.37,3.49
16.092195987701416,3.35,0.17,1.28,3.59
16.092461109161377,2.9,0.15,2.2,3.64
16.09272003173828,2.23,0.51,2.21,3.18
16.092976093292236,1.65,0.88,1.51,2.4
16.093231201171875,1.3,1.46,1.19,2.28
16.100982189178467,1.37,2.18,1.4,2.93
16.111481189727783,2.11,3.05,1.84,4.14
16.121021270751953,2.3,3.53,2.46,4.87
16.13101816177368,2.6,3.72,2.8,5.33
16.141648054122925,3.16,3.91,3.29,6.0
16.191980123519897,3.44,3.86,3.49,6.23
16.19224214553833,3.35,4.31,3.62,6.55
16.1924991607666,3.01,6.03,3.36,7.53
16.192755222320557,3.98,8.69,3.41,10.14
16.19301128387451,5.3,10.2,5.62,12.79
16.20094394683838,6.05,11.2,7.49,14.76
16.211452960968018,6.77,12.07,7.88,15.92
16.22082805633545,6.68,12.15,8.38,16.2
16.230826139450073,5.57,10.71,8.28,14.63
16.241515159606934,5.21,9.12,4.34,11.36
16.292797088623047,6.6,8.26,-2.32,10.82
16.293058156967163,6.45,9.72,-7.01,13.6
16.29331612586975,-0.29,13.77,-5.47,14.81
16.29357409477234,-6.58,13.75,-1.54,15.32
16.293830156326294,-2.46,9.44,-1.56,9.87
16.300652027130127,1.91,3.94,-0.01,4.37
16.31120204925537,-1.15,1.26,0.44,1.76
16.320723056793213,-4.83,1.0,-5.24,7.19
16.33072805404663,-0.54,4.15,-3.32,5.34
16.34144616127014,5.3,4.85,1.42,7.32
16.393623113632202,9.22,2.85,3.24,10.17
16.393885135650635,10.2,1.18,4.27,11.12
16.394142150878906,8.6,0.07,4.32,9.62
16.394400119781494,6.79,-0.68,3.26,7.56
16.394662141799927,5.29,-1.15,2.23,5.85
16.40059518814087,3.83,-1.26,1.67,4.36
16.411121129989624,2.8,-1.51,1.82,3.66
16.420571088790894,1.89,-2.15,2.18,3.59
16.430548191070557,1.11,-2.77,1.92,3.54
16.441175937652588,0.69,-3.16,1.55,3.58
16.49394702911377,0.48,-3.36,1.02,3.54
16.49421215057373,0.58,-3.38,0.58,3.47
16.49447512626648,0.68,-3.24,0.35,3.32
16.494734287261963,0.64,-3.17,-0.02,3.23
16.49499225616455,0.45,-3.33,-0.47,3.39
16.50052499771118,0.19,-3.97,-0.36,3.99
16.51099920272827,0.06,-4.84,0.12,4.84
16.520462036132812,0.16,-5.54,0.31,5.55
16.53041696548462,0.17,-6.04,0.53,6.06
16.54109525680542,-0.27,-6.33,0.28,6.34
16.593923091888428,-0.87,-6.52,-0.14,6.57
16.594182014465332,-1.81,-6.51,-0.77,6.8
16.594440937042236,-3.2,-6.38,-2.16,7.45
16.59470009803772,-4.84,-6.11,-3.64,8.6
16.594956159591675,-6.3,-5.64,-4.14,9.41
16.600216150283813,-6.73,-4.87,-4.69,9.53
16.610804080963135,-6.43,-3.66,-5.56,9.25
16.620277166366577,-6.46,-2.38,-6.55,9.5
16.630203247070312,-6.98,-1.44,-7.4,10.27
16.64091920852661,-8.11,-0.79,-8.19,11.55
16.694359064102173,-9.65,-0.42,-8.97,13.18
16.694621086120605,-10.85,-0.47,-9.28,14.28
16.694887161254883,-10.52,-1.19,-8.71,13.7
16.695143222808838,-9.05,-1.84,-8.11,12.29
16.695759057998657,-8.34,-1.77,-8.03,11.71
16.700071096420288,-8.35,-1.96,-7.76,11.56
16.71064305305481,-8.7,-2.47,-7.39,11.67
16.720072269439697,-9.33,-1.33,-7.54,12.06
16.730080127716064,-7.1,5.46,-5.9,10.72
16.74085521697998,7.94,5.33,3.36,10.13
16.794623136520386,28.71,14.62,29.77,43.86
16.794899940490723,21.73,18.33,14.23,31.79
16.795160055160522,-0.26,13.23,-18.04,22.37
16.795423984527588,-8.75,4.32,-11.12,14.79
16.796058177947998,-12.11,-2.46,-0.74,12.37
16.799926280975342,-12.68,-4.25,-2.25,13.56
16.810511112213135,-11.93,-2.3,-3.78,12.72
16.820001125335693,-10.76,-1.75,-7.44,13.19
16.829885005950928,-7.04,-0.53,-6.71,9.73
16.840672969818115,-4.74,0.13,-2.65,5.43
16.895170211791992,-2.9,-0.18,-1.61,3.32
16.895442008972168,0.31,0.21,-1.84,1.87
16.89607000350952,1.91,0.67,-1.39,2.45
16.896332263946533,0.45,0.69,-1.11,1.38
16.896591186523438,-1.55,0.55,-1.86,2.48
16.899786949157715,-1.81,0.51,-2.38,3.03
16.910319089889526,-1.2,0.38,-1.81,2.2
16.919809103012085,-0.35,0.06,-0.95,1.01
16.92967414855957,-0.17,-0.11,-0.92,0.94
16.940441131591797,-1.07,-0.28,-0.61,1.26
16.995580196380615,-1.38,-0.31,-0.48,1.49
16.99584412574768,-0.45,0.08,-0.96,1.06
16.99610424041748,0.88,0.35,-1.46,1.74
16.996366024017334,1.45,0.22,-1.28,1.94
16.99663019180298,1.26,-0.04,-0.6,1.39
16.999686241149902,0.67,-0.22,0.22,0.73
17.010224103927612,0.25,-0.19,0.63,0.7
17.01966404914856,0.2,0.08,0.58,0.61
17.029739141464233,0.05,0.31,0.52,0.6
17.040382146835327,-0.12,0.2,0.85,0.88
17.095928192138672,0.14,0.05,0.71,0.72
17.096189975738525,0.57,0.15,0.48,0.76
17.096446990966797,0.95,0.29,0.52,1.12
17.096728086471558,1.19,0.3,0.79,1.45
17.096982955932617,1.09,0.22,0.92,1.44
17.099521160125732,0.7,0.09,1.1,1.3
17.110013961791992,0.35,-0.06,1.2,1.25
17.119461059570312,0.15,-0.15,1.27,1.28
17.129822254180908,0.52,-0.18,1.43,1.53
17.14018201828003,1.41,-0.24,1.35,1.96
17.19645118713379,2.36,-0.25,1.16,2.64
17.196712970733643,2.93,-0.13,1.26,3.19
17.19697093963623,3.17,0.19,1.61,3.56
17.197232246398926,2.82,0.53,1.56,3.26
17.197487115859985,2.4,0.45,2.08,3.2
17.19937801361084,2.26,0.68,2.34,3.32
17.20986318588257,2.27,1.25,1.74,3.12
17.219354152679443,2.24,2.02,1.57,3.4
17.22973108291626,2.49,2.76,2.11,4.27
17.240145206451416,2.42,2.86,3.15,4.89
17.296285152435303,2.91,3.31,3.59,5.68
17.296545028686523,3.53,3.94,3.8,6.51
17.29681921005249,3.63,4.46,4.03,7.02
17.29707407951355,3.61,5.14,4.2,7.55
17.297344207763672,3.21,6.59,4.37,8.53
17.299240112304688,3.19,9.62,3.62,10.76
17.309755086898804,4.95,11.95,5.42,14.02
17.31966495513916,6.24,12.72,7.6,16.07
17.329587936401367,6.7,13.42,7.17,16.62
17.339930057525635,7.2,13.86,7.08,17.14
17.396600246429443,6.89,13.53,6.68,16.58
17.39686918258667,5.08,12.21,3.69,13.72
17.397130012512207,3.95,10.88,-2.53,11.84
17.397387981414795,2.6,11.67,-7.2,13.95
17.39765214920044,-0.86,14.98,-5.43,15.95
17.3990581035614,-1.97,14.88,-0.94,15.03
17.409558057785034,0.68,9.67,-1.72,9.84
17.419027090072632,1.73,3.79,-0.1,4.16
17.429018020629883,-3.03,-0.26,0.0,3.04
17.439861059188843,-5.83,0.24,-5.62,8.1
17.4979829788208,-0.95,4.08,-1.62,4.49
17.49827003479004,4.62,3.84,2.5,6.5
17.498734951019287,7.88,1.14,3.92,8.87
17.4989972114563,7.06,-0.93,4.9,8.64
17.499255180358887,5.23,-1.69,4.17,6.89
17.499511241912842,3.53,-1.94,2.77,4.88
17.509413242340088,1.9,-2.15,1.87,3.42
17.518877029418945,1.09,-2.38,1.65,3.09
17.528919219970703,0.81,-3.05,2.09,3.78
17.53958511352539,0.55,-3.68,2.51,4.48
17.599000930786133,0.1,-3.98,2.54,4.72
17.59926700592041,-0.37,-4.26,2.45,4.92
17.599528074264526,-0.29,-4.25,2.28,4.83
17.599786281585693,0.29,-4.02,2.25,4.61
17.600048065185547,0.59,-3.75,1.97,4.27
17.600309133529663,0.48,-3.58,1.69,3.98
17.6092791557312,0.12,-3.9,1.55,4.19
17.618792057037354,-0.42,-4.54,1.3,4.74
17.628722190856934,-0.66,-5.07,1.3,5.27
17.639557123184204,-0.32,-5.48,1.47,5.68
17.69896411895752,0.01,-5.8,1.96,6.12
17.69922709465027,-0.01,-5.64,2.13,6.02
17.69950294494629,-0.1,-5.69,1.74,5.95
17.69975996017456,-0.84,-5.59,0.97,5.73
17.70002317428589,-1.51,-5.01,-0.46,5.25
17.700279235839844,-3.14,-4.44,-1.91,5.76
17.709099054336548,-5.59,-4.31,-3.38,7.82
17.71854019165039,-7.29,-3.94,-4.87,9.61
17.72859001159668,-7.6,-2.98,-5.86,10.04
17.739280223846436,-7.72,-2.27,-6.71,10.47
17.798891067504883,-8.43,-2.12,-7.58,11.53
17.79916524887085,-9.54,-2.15,-8.19,12.75
17.799411058425903,-11.05,-2.15,-8.94,14.37
17.79966711997986,-12.15,-2.25,-9.75,15.73
17.79992413520813,-11.59,-2.45,-9.92,15.45
17.800179958343506,-10.05,-2.67,-8.93,13.7
17.808856964111328,-8.96,-3.14,-8.23,12.56
17.81837224960327,-8.5,-3.9,-7.96,12.28
17.828357219696045,-8.62,-4.19,-7.37,12.09
17.839025020599365,-9.1,-3.25,-7.45,12.2
17.899105072021484,-8.87,6.54,-5.83,12.46
17.899372100830078,8.68,6.8,5.98,12.54
17.8996319770813,41.36,19.03,31.53,55.37
17.899889945983887,18.46,29.31,2.19,34.7
17.900148153305054,-2.24,18.52,-20.23,27.51
17.90040397644043,-4.92,-1.2,-7.07,8.69
17.90871000289917,-10.04,-8.52,4.67,13.97
17.918203115463257,-12.05,-4.89,-0.18,13.0
17.928328037261963,-10.36,-4.98,-7.11,13.51
17.938886165618896,-8.97,-2.92,-9.65,13.49
17.99895405769348,-8.89,0.22,-6.52,11.02
17.999216079711914,-6.67,1.36,-3.54,7.67
17.999474048614502,-2.19,0.57,-3.01,3.76
17.999714136123657,1.39,0.57,-2.11,2.59
17.999969959259033,2.9,0.59,-0.71,3.04
18.000226974487305,0.95,0.46,-0.18,1.07
18.00860023498535,-1.93,0.38,-1.86,2.7
18.018081188201904,-2.56,0.14,-2.94,3.9
18.028083086013794,-1.68,0.3,-2.31,2.87
18.038761138916016,-0.92,0.25,-1.41,1.7
18.10001015663147,-0.85,0.1,-1.19,1.46
18.100276947021484,-1.15,-0.16,-1.13,1.62
18.100536108016968,-1.3,-0.38,-1.01,1.68
18.10079312324524,-1.15,-0.28,-0.88,1.47
18.101051092147827,-0.51,0.01,-0.78,0.93
18.101309061050415,-0.1,0.22,-0.7,0.74
18.108493089675903,-0.16,0.2,-0.47,0.53
18.117948055267334,-0.46,0.06,-0.14,0.48
18.12799310684204,-0.61,-0.02,-0.05,0.61
18.13862705230713,-0.42,-0.05,-0.02,0.42
18.20043706893921,-0.11,0.03,-0.03,0.11
18.20070219039917,0.25,0.14,-0.13,0.31
18.200961112976074,0.81,0.34,-0.23,0.9
18.20122194290161,1.34,0.41,-0.03,1.4
18.201481103897095,1.45,0.27,0.44,1.53
18.20173716545105,1.28,0.18,0.59,1.42
18.208410263061523,0.97,0.1,0.6,1.14
18.21789312362671,0.32,0.0,0.81,0.87
18.22792410850525,-0.12,0.01,1.17,1.17
18.238571166992188,0.15,0.12,1.48,1.49
18.30070209503174,0.59,0.2,1.48,1.6
18.3009672164917,0.85,0.14,1.18,1.46
18.30122709274292,1.07,-0.01,0.98,1.45
18.301485061645508,1.54,-0.12,1.04,1.86
18.301748275756836,2.29,-0.1,1.17,2.57
18.302006244659424,2.84,0.14,1.15,3.06
18.308232069015503,2.9,0.31,1.46,3.26
18.317724227905273,2.4,0.4,1.99,3.14
18.327726125717163,1.57,0.48,2.31,2.83
18.33839702606201,0.99,0.7,2.01,2.34
18.401018142700195,0.88,0.83,2.12,2.44
18.40128517150879,1.19,1.27,2.34,2.91
18.401546001434326,2.01,2.1,1.97,3.51
18.401801109313965,2.24,2.92,2.03,4.2
18.402056217193604,1.91,3.13,2.45,4.4
18.40231418609619,2.11,3.29,2.87,4.84
18.408100128173828,2.31,3.23,3.25,5.13
18.417582988739014,2.58,3.57,3.61,5.69
18.427608013153076,2.86,4.62,3.88,6.67
18.438241004943848,3.3,7.03,3.33,8.44
18.501399040222168,4.93,8.97,3.88,10.94
18.50166893005371,5.17,9.68,5.45,12.25
18.501931190490723,5.41,10.94,7.26,14.2
18.50219202041626,6.23,12.63,8.7,16.55
18.502448081970215,5.68,13.35,8.51,16.81
18.502706050872803,4.09,12.43,8.36,15.52
18.507878065109253,3.58,10.29,4.64,11.84
18.51736307144165,4.98,8.37,-2.15,9.97
18.527367115020752,4.88,9.49,-5.86,12.17
18.53805708885193,-0.81,13.31,-3.16,13.7
18.60236120223999,-4.06,13.65,1.09,14.28
18.602631092071533,0.76,10.13,-0.46,10.16
18.602893114089966,2.96,5.14,-0.45,5.94
18.603150129318237,-0.2,1.48,0.67,1.63
18.603413105010986,-4.65,-0.24,-3.93,6.09
18.603673934936523,-2.77,2.43,-4.59,5.88
18.60768413543701,2.87,4.58,0.65,5.44
18.61721897125244,7.43,3.31,2.45,8.49
18.627272129058838,9.46,0.98,3.28,10.06
18.637916088104248,8.0,-1.15,3.8,8.93
18.702929973602295,5.83,-2.48,3.43,7.2
18.70320415496826,4.24,-2.83,2.58,5.71
18.70346713066101,3.28,-2.65,1.65,4.52
18.703731060028076,3.05,-2.41,1.77,4.27
18.703988075256348,2.67,-2.34,2.52,4.35
18.704246044158936,1.71,-2.37,2.45,3.81
18.70760726928711,0.59,-2.47,1.83,3.13
18.7174129486084,-0.23,-2.59,1.24,2.88
18.72712016105652,-0.48,-2.67,0.82,2.83
18.7377290725708,-0.3,-2.67,0.36,2.71
18.803526163101196,0.02,-2.81,-0.07,2.81
18.803791999816895,-0.01,-3.12,-0.26,3.13
18.80405902862549,-0.2,-3.6,-0.19,3.61
18.804320096969604,-0.08,-4.31,0.32,4.32
18.804577112197876,0.05,-4.78,0.96,4.87
18.804835081100464,-0.01,-5.15,1.02,5.25
18.80748701095581,-0.32,-5.49,0.92,5.57
18.816935062408447,-0.95,-5.5,0.34,5.59
18.826941967010498,-2.08,-5.22,-0.34,5.62
18.837598085403442,-3.78,-4.87,-1.42,6.32
18.90352511405945,-5.23,-4.45,-2.75,7.39
18.90379309654236,-6.44,-4.08,-4.31,8.75
18.904056072235107,-7.54,-3.32,-5.58,9.95
18.9043231010437,-7.76,-2.55,-5.92,10.08
18.904582023620605,-7.85,-2.16,-6.37,10.33
18.904845237731934,-8.34,-2.1,-7.08,11.13
18.907341957092285,-8.78,-2.44,-7.41,11.74
18.916829109191895,-9.16,-2.62,-7.67,12.23
18.926841259002686,-9.54,-2.42,-8.24,12.83
18.937461137771606,-9.54,-2.28,-8.77,13.15
19.00307607650757,-8.96,-2.32,-9.04,12.93
19.004167079925537,-8.44,-2.55,-9.09,12.66
19.004436016082764,-8.55,-2.74,-8.94,12.67
19.004700183868408,-8.78,-3.18,-8.75,12.79
19.004963159561157,-9.1,2.25,-8.21,12.46
19.005224227905273,-4.7,2.45,-5.27,7.47
19.007174015045166,8.98,5.7,4.15,11.41
19.016886234283447,26.97,19.88,27.29,43.21
19.026652097702026,15.59,19.04,-3.68,24.88
19.037343978881836,3.33,10.28,-13.65,17.4
19.046651124954224,-5.63,-0.99,-1.47,5.9
19.104305267333984,-13.64,-3.0,-1.19,14.01
19.104571104049683,-12.72,-4.62,-4.53,14.27
19.10482907295227,-9.63,-2.99,-6.6,12.05
19.105088233947754,-8.63,-1.41,-7.5,11.52
19.105345249176025,-5.53,0.7,-5.59,7.89
19.10697603225708,-2.88,0.97,-3.81,4.87
19.116536140441895,0.0,0.62,-2.67,2.74
19.126673221588135,2.27,1.05,-1.74,3.04
19.13715696334839,1.85,1.38,-0.73,2.42
19.14670205116272,-0.73,0.84,-0.59,1.25
19.204825162887573,-2.16,0.03,-1.85,2.84
19.205095052719116,-2.23,0.02,-2.1,3.06
19.205353260040283,-1.52,0.27,-1.56,2.19
19.20560908317566,-0.57,0.32,-1.3,1.45
19.205904006958008,0.07,0.21,-1.38,1.39
19.206826210021973,-0.04,-0.06,-1.58,1.58
19.21633815765381,-0.46,-0.18,-1.35,1.43
19.226376056671143,-0.64,-0.14,-0.89,1.1
19.237019062042236,-0.8,-0.18,-0.34,0.88
19.24637222290039,-0.84,-0.26,0.26,0.91
19.305548191070557,-0.56,-0.23,0.61,0.85
19.30597496032715,-0.02,-0.07,0.84,0.84
19.306239128112793,0.71,0.1,0.82,1.08
19.306496143341064,1.44,0.25,0.64,1.59
19.306753158569336,1.84,0.35,0.35,1.9
19.307498931884766,1.73,0.35,0.27,1.78
19.31618309020996,1.31,0.22,0.43,1.39
19.326192140579224,0.92,0.04,0.6,1.09
19.336894035339355,0.83,-0.1,0.68,1.07
19.34614896774292,0.85,-0.1,0.77,1.15
19.4058780670166,0.87,0.0,0.97,1.3
19.406147956848145,0.88,0.02,1.12,1.42
19.406407117843628,0.87,-0.01,1.34,1.59
19.406668186187744,1.04,-0.17,1.63,1.94
19.406926155090332,1.56,-0.33,1.65,2.29
19.407694101333618,2.42,-0.35,1.57,2.9
19.416111946105957,3.15,-0.24,1.47,3.48
19.42608118057251,2.9,0.05,1.12,3.1
19.436660051345825,2.28,0.22,1.51,2.74
19.44608211517334,1.89,0.4,1.89,2.7
19.506420135498047,1.87,0.7,1.26,2.36
19.50668215751648,2.02,1.05,1.13,2.54
19.50694513320923,1.88,1.38,1.22,2.63
19.507212162017822,1.67,1.65,1.01,2.55
19.50747013092041,1.55,2.26,1.0,2.91
19.508254051208496,1.95,3.27,1.39,4.05
19.515979051589966,1.99,3.82,2.59,5.02
19.525942087173462,1.86,3.59,3.18,5.14
19.53659415245056,2.46,4.1,3.22,5.76
19.54593801498413,2.53,4.53,3.93,6.5
19.60653305053711,2.96,6.29,3.53,7.79
19.606796264648438,4.59,8.46,3.63,10.28
19.607062101364136,5.46,9.06,5.19,11.78
19.60731816291809,4.98,9.72,6.32,12.61
19.607579231262207,5.42,10.85,7.63,14.32
19.608365058898926,6.42,11.7,8.0,15.55
19.615783214569092,6.75,12.28,7.28,15.79
19.62575912475586,6.53,11.93,5.57,14.69
19.63644027709961,7.16,10.62,1.43,12.88
19.645833015441895,7.72,9.98,-3.52,13.09
19.707038164138794,4.07,11.73,-5.61,13.62
19.70730710029602,-2.1,13.92,-4.38,14.74
19.707580089569092,-1.82,11.66,-1.38,11.88
19.707837104797363,1.84,5.71,1.72,6.24
19.708094120025635,0.69,3.09,2.19,3.84
19.70888900756836,-5.85,2.2,-4.04,7.44
19.71562623977661,-4.67,4.42,-5.31,8.33
19.72563409805298,1.43,5.11,0.87,5.37
19.73625898361206,5.79,2.96,2.47,6.95
19.74565315246582,6.8,1.03,2.36,7.27
19.807753086090088,5.03,-0.59,2.1,5.48
19.808016061782837,3.9,-1.66,1.5,4.49
19.80827522277832,3.08,-2.18,1.42,4.03
19.808532238006592,2.24,-2.27,1.53,3.53
19.808789253234863,1.71,-2.52,1.98,3.63
19.809604167938232,1.36,-3.27,2.7,4.45
19.815479278564453,1.02,-4.01,2.99,5.1
19.825456142425537,0.7,-4.3,2.85,5.2
19.83605718612671,0.56,-4.39,2.83,5.25
19.84541893005371,0.73,-4.39,2.8,5.25
19.908663272857666,1.05,-4.26,2.41,5.0
19.908939123153687,1.27,-4.29,2.1,4.94
19.909200191497803,1.19,-4.49,1.72,4.95
19.90946626663208,1.07,-4.84,1.22,5.1
19.909725189208984,1.14,-5.32,0.92,5.51
19.910484075546265,1.15,-5.84,0.86,6.01
19.915316104888916,0.78,-6.34,1.01,6.46
19.925329208374023,0.56,-6.89,0.89,6.96
19.935965061187744,0.55,-7.24,0.92,7.31
19.945348262786865,0.17,-7.34,0.89,7.39
20.008055210113525,-0.07,-7.21,0.8,7.25
20.008327960968018,-0.38,-6.96,0.2,6.97
20.008591175079346,-1.68,-6.17,-1.12,6.49
20.008852005004883,-3.71,-5.24,-2.68,6.95
20.009111166000366,-5.5,-4.38,-4.21,8.19
20.009895086288452,-6.34,-3.49,-5.04,8.81
20.01512622833252,-6.26,-2.43,-5.22,8.5
20.02536916732788,-6.33,-1.18,-6.09,8.86
20.03571319580078,-7.35,0.19,-7.61,10.58
20.045295238494873,-9.13,1.29,-8.31,12.41
20.108291149139404,-11.17,1.76,-8.39,14.08
20.108554124832153,-12.38,1.39,-8.22,14.92
20.108814239501953,-11.68,0.67,-7.78,14.04
20.10907220840454,-9.78,0.29,-7.42,12.27
20.109328269958496,-7.83,0.22,-7.05,10.53
20.110109090805054,-6.91,1.31,-6.88,9.83
20.114943981170654,-7.03,5.77,-6.08,10.93
20.1250319480896,-0.38,-2.64,-7.38,7.84
20.135626077651978,12.97,5.87,1.11,14.27
20.145634174346924,31.77,23.02,30.79,49.87
20.208449125289917,11.18,21.3,3.85,24.36
20.20871925354004,-5.9,9.17,-12.14,16.31
20.208980083465576,-11.2,-4.23,2.39,12.2
20.209237098693848,-16.22,-5.2,1.01,17.06
20.20949411392212,-15.06,-3.62,-2.41,15.67
20.210289001464844,-10.37,-2.8,-4.49,11.64
20.214896202087402,-6.31,-1.72,-7.31,9.8
20.22487711906433,-3.82,0.62,-6.47,7.53
20.235494136810303,-3.2,1.09,-4.54,5.66
20.244895935058594,-1.66,0.68,-4.9,5.21
20.308853149414062,0.93,0.71,-4.63,4.77
20.309121131896973,1.37,0.74,-3.81,4.11
20.309381008148193,-0.65,1.07,-2.89,3.14
20.30964207649231,-2.17,0.74,-1.69,2.84
20.309900283813477,-1.75,0.02,-0.37,1.78
20.3106369972229,-0.69,0.02,0.2,0.71
20.315016269683838,-0.14,-0.04,0.25,0.28
20.324742078781128,-0.05,-0.27,0.33,0.42
20.33531618118286,-0.35,-0.38,0.15,0.53
20.344755172729492,-0.46,-0.33,0.4,0.69
20.409439086914062,-0.34,-0.14,0.13,0.39
20.409704208374023,0.17,0.02,-0.54,0.56
20.40996217727661,0.47,0.06,-0.98,1.08
20.4102201461792,0.21,0.09,-1.03,1.05
20.410463094711304,-0.22,0.09,-0.65,0.69
20.41124725341797,-0.45,0.05,-0.2,0.49
20.414865970611572,-0.43,0.05,0.23,0.49
20.424519062042236,-0.04,0.12,0.6,0.61
20.435200214385986,1.01,0.24,0.7,1.25
20.444715976715088,2.08,0.35,0.75,2.23
20.509836196899414,2.25,0.34,0.87,2.43
20.510104179382324,1.72,0.15,0.49,1.79
20.510361194610596,0.96,0.01,0.46,1.06
20.510618209838867,0.34,-0.04,0.82,0.88
20.510882139205933,0.21,-0.02,1.08,1.1
20.51164197921753,0.37,0.03,1.33,1.38
20.514793157577515,0.69,-0.04,1.01,1.22
20.52444815635681,1.07,0.0,0.51,1.18
20.534990072250366,1.21,0.22,0.39,1.29
20.544419050216675,1.0,0.49,0.1,1.11
20.609867095947266,0.56,0.59,0.01,0.81
20.610132217407227,0.52,0.51,0.49,0.87
20.610387086868286,1.16,0.3,1.4,1.84
20.610647201538086,1.93,0.22,2.03,2.8
20.610902070999146,2.49,0.06,2.63,3.62
20.611679077148438,2.77,0.02,3.13,4.17
20.614238262176514,2.88,0.68,2.65,3.97
20.624268054962158,2.56,1.49,1.76,3.44
20.63486909866333,2.44,2.4,1.51,3.74
20.64426612854004,1.99,3.08,1.79,4.08
20.709821224212646,1.86,3.18,2.21,4.29
20.710081100463867,2.2,3.25,2.54,4.67
20.71033811569214,2.43,3.11,2.97,4.93
20.710593223571777,2.56,3.12,3.0,5.02
20.710854053497314,2.63,3.39,3.12,5.3
20.711605072021484,2.66,4.0,3.35,5.85
20.714262008666992,2.7,5.81,3.23,7.17
20.72413921356201,4.05,8.2,3.51,9.79
20.734742164611816,5.78,8.86,6.54,12.43
20.744308948516846,6.75,9.51,7.59,13.91
20.810822010040283,7.93,10.67,7.33,15.18
20.811084270477295,7.2,11.5,7.86,15.68
20.8113431930542,5.53,11.22,7.94,14.81
20.81160020828247,4.99,10.08,3.47,11.77
20.811856269836426,6.3,9.06,-2.98,11.43
20.812685012817383,5.49,11.57,-6.55,14.38
20.81402826309204,-0.77,15.62,-4.28,16.21
20.82403802871704,-3.45,14.44,-2.41,15.04
20.83467411994934,0.79,9.1,-1.47,9.25
20.844069004058838,2.83,4.23,0.89,5.16
20.911652088165283,-1.82,2.04,-0.63,2.8
20.911914110183716,-5.49,2.07,-7.0,9.13
20.912172079086304,-0.97,4.72,-3.1,5.72
20.912431240081787,4.2,4.17,2.02,6.25
20.912686109542847,7.41,2.3,3.13,8.36
20.913687229156494,7.07,1.25,2.99,7.77
20.913947105407715,5.26,0.1,2.57,5.85
20.92386293411255,4.55,-1.04,2.38,5.23
20.934464931488037,4.1,-1.67,2.15,4.92
20.94385004043579,3.14,-1.77,1.75,4.0
21.011970043182373,2.23,-1.87,1.77,3.4
21.012234210968018,1.37,-2.54,2.0,3.51
21.012475967407227,0.89,-3.22,2.0,3.89
21.01273202896118,0.67,-3.74,1.92,4.25
21.01301407814026,0.52,-3.83,1.46,4.13
21.013967990875244,0.33,-3.66,1.06,3.82
21.014227151870728,0.16,-3.54,0.65,3.6
21.023771286010742,-0.03,-3.52,0.17,3.52
21.03422212600708,-0.13,-3.79,-0.03,3.79
21.043676137924194,-0.35,-4.42,0.05,4.43
21.112099170684814,-0.71,-5.12,-0.22,5.17
21.112359046936035,-1.02,-5.86,-0.14,5.94
21.112621068954468,-0.98,-6.59,0.31,6.66
21.112905979156494,-0.99,-6.99,0.48,7.07
21.113189220428467,-0.97,-7.4,0.93,7.52
21.114140033721924,-0.86,-7.52,1.04,7.64
21.11439609527588,-1.33,-7.18,0.19,7.3
21.123528957366943,-2.67,-6.93,-0.93,7.48
21.134228229522705,-4.14,-6.85,-1.91,8.22
21.143540143966675,-5.14,-6.79,-3.23,9.1
21.212459087371826,-6.04,-6.57,-4.61,10.04
21.212738037109375,-6.88,-6.12,-5.9,10.93
21.213013172149658,-7.48,-5.48,-6.7,11.43
21.213433265686035,-8.28,-4.71,-7.26,11.97
21.213690280914307,-9.53,-4.11,-8.02,13.11
21.21450114250183,-10.77,-3.43,-8.5,14.14
21.214758157730103,-11.8,-2.41,-8.93,14.99
21.223441123962402,-12.01,-1.06,-9.57,15.39
21.234015941619873,-11.27,0.13,-9.93,15.02
21.243371963500977,-10.4,0.38,-9.49,14.08
21.313054084777832,-9.55,-0.06,-8.47,12.76
21.31333827972412,-8.31,-0.6,-7.24,11.03
21.313600063323975,-8.65,4.19,-6.22,11.44
21.31385898590088,-2.52,5.49,-3.93,7.2
21.314125061035156,17.41,1.04,4.01,17.89
21.31492805480957,40.87,19.32,26.65,52.47
21.315545082092285,23.03,29.28,10.27,38.64
21.3232581615448,-3.08,12.5,-12.3,17.8
21.3338680267334,-14.45,-6.16,-2.69,15.93
21.343246936798096,-20.08,-8.58,-1.17,21.86
21.412250995635986,-19.52,-0.63,-2.9,19.74
21.41253113746643,-14.01,1.72,-2.96,14.42
21.412793159484863,-5.6,-0.34,-6.27,8.41
21.413207054138184,-0.74,0.68,-6.13,6.21
21.41346311569214,-0.31,0.59,-4.11,4.16
21.414247035980225,0.61,0.48,-5.15,5.2
21.414504051208496,2.88,0.9,-4.47,5.39
21.423131942749023,1.73,1.11,-2.74,3.42
21.43345022201538,-1.46,1.25,-2.33,3.02
21.443150997161865,-2.89,0.61,-1.63,3.37
21.513421058654785,-2.41,-0.03,-0.77,2.53
21.513683080673218,-1.45,-0.21,-0.26,1.48
21.51394510269165,-0.5,-0.23,0.1,0.55
21.51420497894287,0.51,-0.28,0.06,0.58
21.514469146728516,1.24,-0.21,0.01,1.25
21.51557493209839,1.26,-0.11,0.16,1.27
21.515835285186768,0.84,-0.02,0.02,0.84
21.522971153259277,0.49,0.04,-0.04,0.49
21.533387184143066,0.26,0.03,0.02,0.26
21.54293727874756,0.08,-0.04,0.01,0.09
21.61460304260254,0.01,-0.05,0.05,0.07
21.61487102508545,0.09,0.05,0.23,0.25
21.61514115333557,0.27,0.14,0.55,0.62
21.61576008796692,0.65,0.1,0.87,1.09
21.61602020263672,1.18,-0.02,1.12,1.62
21.616785049438477,1.59,-0.09,1.3,2.05
21.617045164108276,1.76,-0.08,1.44,2.27
21.622782230377197,1.58,-0.06,1.23,2.0
21.633260250091553,1.09,-0.11,1.04,1.51
21.642850160598755,0.73,-0.27,1.18,1.41
21.713321208953857,0.91,-0.32,1.25,1.57
21.71356511116028,1.46,-0.32,1.28,1.96
21.71382427215576,2.0,-0.28,1.37,2.44
21.714081287384033,2.2,-0.21,1.24,2.53
21.714336156845093,1.98,-0.26,1.29,2.37
21.715099096298218,1.78,-0.31,1.59,2.4
21.715712070465088,1.96,-0.34,1.56,2.52
21.722628116607666,2.28,-0.37,1.75,2.89
21.733265161514282,2.43,-0.12,1.37,2.79
21.74288511276245,2.0,0.09,0.92,2.2
21.813542127609253,1.37,0.31,0.66,1.55
21.813804149627686,1.09,0.54,0.78,1.44
21.814064025878906,1.22,0.8,0.87,1.69
21.814321994781494,1.4,1.02,0.62,1.83
21.814576148986816,1.42,1.35,0.5,2.02
21.815704107284546,0.96,1.74,0.35,2.01
21.81596326828003,0.76,2.31,0.34,2.45
21.822501182556152,1.13,3.44,0.91,3.73
21.833222150802612,1.25,3.96,2.0,4.6
21.842478275299072,1.41,4.78,2.47,5.56
21.91368007659912,3.06,6.63,2.52,7.72
21.913942098617554,4.76,7.02,4.28,9.5
21.914205074310303,5.01,7.61,4.82,10.3
21.914462089538574,5.88,8.78,5.17,11.76
21.914719104766846,5.73,9.33,6.25,12.6
21.915864944458008,4.95,10.03,7.61,13.52
21.916126251220703,5.97,11.2,8.02,15.01
21.92243719100952,6.94,10.82,6.54,14.42
21.99639105796814,6.92,9.59,4.9,12.8
21.996663093566895,7.69,8.2,2.08,11.43
21.99692416191101,8.02,7.78,-2.08,11.36
21.997180938720703,4.45,9.97,-4.26,11.71
21.9974422454834,-2.36,13.59,-3.76,14.29
21.997701168060303,-3.61,11.9,-2.03,12.6
21.99795627593994,-0.2,6.33,0.08,6.33
22.002686977386475,1.16,3.16,2.25,4.04
22.01222324371338,-3.12,1.95,-1.33,3.91
22.022250175476074,-2.68,3.83,-4.03,6.17
22.09789800643921,2.73,5.06,0.17,5.75
22.098183155059814,6.76,3.46,1.8,7.8
22.098440170288086,8.89,1.7,2.4,9.36
22.09869623184204,8.17,0.31,2.6,8.57
22.099308967590332,6.66,-0.64,2.42,7.11
22.099569082260132,5.26,-1.34,1.9,5.75
22.099843978881836,3.77,-1.82,1.17,4.34
22.102667093276978,2.49,-2.08,0.89,3.36
22.112091064453125,1.46,-2.16,1.26,2.89
22.12204122543335,0.85,-2.08,1.22,2.55
22.198353052139282,0.92,-2.22,1.11,2.64
22.19860816001892,1.31,-2.63,1.11,3.14
22.19886827468872,1.75,-2.86,0.6,3.4
22.199474096298218,1.71,-3.0,0.07,3.45
22.199734210968018,1.65,-3.12,-0.15,3.53
22.20001220703125,1.58,-3.33,-0.16,3.68
22.20026707649231,1.3,-3.79,0.01,4.0
22.202449083328247,0.99,-4.43,0.15,4.54
22.21205711364746,0.62,-5.16,0.18,5.2
22.221896171569824,-0.01,-5.84,0.19,5.84
22.298380136489868,-0.76,-6.55,0.02,6.59
22.298662185668945,-1.5,-7.27,-0.01,7.42
22.29892611503601,-2.25,-7.81,-0.32,8.13
22.299524068832397,-2.74,-7.96,-0.71,8.44
22.299785137176514,-3.5,-7.95,-1.58,8.82
22.300042152404785,-4.53,-7.65,-3.07,9.4
22.300312042236328,-5.48,-6.84,-4.45,9.82
22.302329063415527,-6.66,-5.54,-6.03,10.55
22.311703205108643,-7.13,-4.32,-6.98,10.87
22.321707248687744,-6.91,-3.15,-7.23,10.48
22.397664070129395,-6.95,-2.11,-7.52,10.45
22.39862823486328,-8.11,-1.11,-8.45,11.76
22.398900032043457,-10.0,-0.15,-9.48,13.78
22.399484157562256,-11.45,0.19,-9.73,15.02
22.39974594116211,-11.52,-0.17,-9.15,14.71
22.40000605583191,-10.39,0.04,-9.25,13.91
22.40027618408203,-8.94,0.1,-9.05,12.72
22.402136087417603,-7.88,-0.51,-7.91,11.17
22.41270112991333,-8.51,2.73,-7.35,11.57
22.421682119369507,-3.99,3.95,-6.29,8.43
22.43222427368164,9.01,1.03,-1.04,9.12
22.498289108276367,28.75,16.95,26.28,42.47
22.49863314628601,24.25,20.98,19.06,37.3
22.49889612197876,2.61,10.71,-12.58,16.72
22.499515056610107,-8.52,0.57,-3.2,9.11
22.499778270721436,-15.62,-6.33,4.95,17.56
22.50004005432129,-20.0,-3.43,1.76,20.36
22.50194501876831,-15.45,-3.33,-6.22,16.98
22.511460065841675,-6.92,-0.59,-10.38,12.48
22.521430015563965,-4.32,1.56,-6.84,8.23
22.53212022781372,-2.96,1.47,-4.18,5.32
22.59802007675171,-0.62,1.02,-4.2,4.36
22.59828519821167,2.53,0.38,-4.76,5.4
22.59854221343994,2.65,0.6,-4.35,5.12
22.598802089691162,0.68,0.85,-2.8,3.0
22.599070072174072,-1.06,0.74,-1.54,2.01
22.599685192108154,-1.7,0.33,-1.16,2.08
22.601799964904785,-1.18,0.04,-0.62,1.33
22.61141300201416,-0.51,0.04,0.08,0.51
22.62140703201294,-1.11,-0.06,0.12,1.11
22.631970167160034,-1.34,-0.15,0.04,1.34
22.698296070098877,-0.72,-0.02,-0.16,0.73
22.698562145233154,0.28,0.07,-0.71,0.76
22.69882106781006,0.72,0.09,-1.35,1.53
22.699084281921387,0.4,-0.1,-1.41,1.46
22.699682235717773,-0.06,-0.32,-0.89,0.94
22.699947118759155,-0.21,-0.33,-0.37,0.53
22.701672077178955,-0.3,-0.12,0.05,0.32
22.711324214935303,-0.38,0.1,0.53,0.65
22.72114109992981,-0.12,0.24,1.01,1.04
22.73185110092163,0.49,0.23,1.0,1.13
22.798974990844727,1.15,0.2,0.78,1.4
22.799238204956055,1.39,0.15,0.7,1.56
22.799839973449707,1.12,0.1,0.69,1.31
22.80009698867798,0.78,0.04,0.85,1.15
22.800395965576172,0.58,-0.08,1.09,1.23
22.800814151763916,0.39,-0.12,1.21,1.27
22.80162000656128,0.34,-0.11,1.33,1.37
22.81104016304016,0.47,-0.15,1.16,1.26
22.82103705406189,0.71,-0.09,0.94,1.18
22.83171010017395,1.17,-0.02,0.66,1.34
22.897942066192627,1.67,0.06,0.59,1.77
22.89820623397827,2.09,0.11,0.99,2.31
22.898475170135498,2.25,0.23,1.17,2.54
22.898731231689453,2.15,0.31,1.3,2.53
22.898990154266357,1.81,0.33,1.94,2.67
22.899245262145996,1.76,0.67,1.72,2.55
22.901437282562256,1.56,0.96,1.11,2.14
22.91094708442688,0.97,1.17,0.76,1.69
22.92089605331421,0.79,1.48,0.86,1.88
22.931536197662354,1.47,1.9,1.09,2.63
22.998023986816406,2.27,2.84,1.42,3.9
22.998289108276367,2.77,3.02,2.04,4.57
22.998557090759277,3.17,3.08,2.49,5.07
22.998812198638916,3.19,2.99,2.79,5.18
22.999065160751343,2.87,3.27,2.84,5.19
22.999319076538086,2.47,4.58,2.7,5.86
23.00116205215454,2.69,6.65,2.94,7.75
23.010826110839844,3.81,8.03,4.55,9.98
23.020901203155518,4.71,8.72,6.58,11.89
23.031311988830566,5.85,9.74,7.87,13.82
23.098714113235474,6.91,10.64,8.33,15.17
23.09897804260254,6.75,10.91,8.19,15.22
23.09924602508545,5.68,10.3,7.87,14.15
23.099502086639404,4.89,8.6,5.89,11.51
23.10011911392212,5.49,7.22,0.72,9.09
23.100545167922974,6.32,8.72,-4.61,11.71
23.10132598876953,1.69,13.19,-4.44,14.01
23.11062216758728,-4.65,13.85,-1.27,14.66
23.12052607536316,-1.66,11.09,-1.96,11.38
23.131213188171387,2.77,6.97,-0.94,7.55
23.198227167129517,2.08,3.11,1.24,3.94
23.198491096496582,-3.09,1.37,-2.33,4.1
23.19874906539917,-2.39,3.58,-4.96,6.56
23.19900894165039,2.4,5.16,-0.75,5.74
23.199267148971558,6.3,3.52,1.61,7.39
23.199522018432617,8.29,1.13,2.86,8.84
23.200858116149902,7.67,-0.8,3.39,8.42
23.210453033447266,6.38,-2.01,2.85,7.27
23.220471143722534,5.15,-2.41,2.04,6.04
23.231014251708984,4.01,-2.26,1.42,4.81
23.29885506629944,3.17,-2.09,1.32,4.01
23.299123287200928,2.38,-2.04,1.55,3.49
23.299382209777832,1.55,-2.28,1.6,3.18
23.299978256225586,0.84,-2.51,1.17,2.89
23.300405979156494,0.76,-2.67,0.62,2.84
23.300685167312622,1.32,-2.72,0.48,3.06
23.301466941833496,1.9,-2.68,0.46,3.31
23.310308933258057,2.01,-2.68,0.35,3.36
23.320281982421875,1.62,-2.94,-0.11,3.35
23.33094811439514,1.38,-3.25,-0.29,3.54
23.399010181427002,1.02,-3.34,-0.19,3.49
23.399270057678223,0.68,-3.79,-0.32,3.86
23.399528980255127,-0.01,-4.64,-0.7,4.69
23.400108098983765,-0.84,-5.07,-1.71,5.41
23.400527954101562,-1.3,-5.39,-2.3,6.0
23.400788068771362,-2.57,-5.74,-1.72,6.52
23.40158224105835,-3.37,-5.86,-1.45,6.91
23.410155057907104,-3.84,-5.75,-2.11,7.22
23.420149087905884,-4.6,-5.39,-3.11,7.73
23.430686950683594,-5.09,-4.7,-4.26,8.13
23.499799251556396,-5.39,-3.87,-5.6,8.68
23.500410079956055,-5.68,-3.12,-6.83,9.41
23.500672101974487,-6.67,-2.44,-7.93,10.64
23.50094223022461,-8.2,-2.28,-8.74,12.19
23.501204013824463,-9.5,-2.49,-9.2,13.45
23.501461029052734,-10.1,-3.05,-9.16,13.97
23.50225806236267,-9.72,-3.81,-8.7,13.58
23.50997495651245,-8.51,-3.89,-8.39,12.56
23.519979000091553,-7.77,-3.6,-8.3,11.92
23.530581951141357,-7.97,-3.97,-8.19,12.09
23.59959316253662,-8.8,-4.49,-7.78,12.57
23.599870204925537,-10.0,-3.49,-7.71,13.1
23.600479125976562,-7.28,3.34,-7.11,10.71
23.600739002227783,1.89,1.89,-2.95,3.98
23.600998163223267,15.56,20.02,26.73,36.84
23.601267099380493,22.73,34.44,11.77,42.91
23.60201406478882,2.38,17.22,-23.89,29.54
23.60999298095703,-1.95,-8.73,3.69,9.67
23.619935989379883,-12.77,-9.44,2.04,16.01
23.630417108535767,-16.0,-3.9,-4.08,16.96
23.699737071990967,-14.48,-1.72,-2.72,14.83
23.700335025787354,-12.08,-1.17,-6.2,13.62
23.700606107711792,-6.95,1.2,-2.2,7.38
23.700867176055908,-2.3,0.6,-1.55,2.83
23.701143264770508,1.96,0.14,-2.37,3.07
23.70140027999878,4.1,0.25,-2.38,4.74
23.70216703414917,3.09,0.38,-2.8,4.18
23.70965814590454,0.32,0.78,-3.63,3.72
23.719704151153564,-1.17,0.96,-3.39,3.71
23.73030424118042,-1.0,0.73,-2.15,2.48
23.8005211353302,-0.56,0.19,-1.97,2.05
23.8007869720459,-1.49,-0.15,-1.29,1.97
23.80106210708618,-2.42,-0.35,-0.53,2.5
23.801319122314453,-1.91,-0.23,-0.21,1.93
23.80158305168152,0.1,0.16,-0.35,0.39
23.801841259002686,1.83,0.22,-0.61,1.94
23.802617073059082,1.76,0.09,-0.72,1.9
23.80961322784424,0.5,-0.16,-0.41,0.66
23.8196702003479,-0.51,-0.37,0.31,0.7
23.830193996429443,-0.52,-0.23,0.4,0.69
23.8996901512146,-0.19,0.08,0.45,0.49
23.89995813369751,-0.26,0.23,0.48,0.59
23.90060520172119,-0.34,0.13,0.4,0.54
23.900866985321045,0.19,0.11,0.66,0.69
23.901127099990845,1.02,0.19,1.09,1.5
23.901392936706543,1.58,0.27,1.23,2.02
23.90220022201538,1.55,0.32,1.23,2.0
23.909409046173096,1.26,0.3,1.34,1.86
23.91952896118164,0.89,0.14,1.54,1.78
23.93005108833313,0.45,-0.09,1.67,1.73
23.999832153320312,0.49,-0.37,1.7,1.8
24.000093936920166,1.05,-0.62,1.44,1.88
24.000725269317627,1.41,-0.51,0.76,1.68
24.000985145568848,1.32,0.03,0.2,1.33
24.001240253448486,1.24,0.7,-0.02,1.42
24.001495122909546,1.41,0.99,0.35,1.75
24.00226926803589,1.53,0.79,1.09,2.03
24.00928020477295,1.56,0.59,1.39,2.17
24.01923418045044,1.47,0.42,1.7,2.28
24.029874086380005,1.35,0.5,2.18,2.61
24.09959125518799,1.4,0.92,2.2,2.76
24.09985613822937,1.65,1.37,2.01,2.93
24.100123167037964,1.91,2.06,1.57,3.21
24.100733280181885,2.05,2.53,1.51,3.58
24.10099220275879,2.16,2.72,1.76,3.89
24.10124707221985,2.37,2.54,2.15,4.08
24.102066040039062,2.53,2.5,2.33,4.25
24.109107971191406,2.52,2.71,2.41,4.41
24.11914610862732,2.54,3.13,2.63,4.81
24.129722118377686,2.22,4.44,2.74,5.67
24.19927716255188,2.9,7.14,2.66,8.15
24.199542999267578,4.86,8.61,4.61,10.9
24.199799060821533,5.25,8.86,6.25,12.04
24.200057983398438,5.61,9.54,7.63,13.44
24.20067310333252,6.04,10.28,9.26,15.09
24.200933933258057,5.51,10.05,9.57,14.93
24.20171022415161,4.4,9.04,8.5,13.16
24.20896005630493,4.14,7.65,4.44,9.76
24.218980073928833,5.63,7.57,-2.07,9.65
24.229573249816895,5.16,10.7,-6.25,13.42
24.29867911338806,0.12,14.08,-4.05,14.65
24.29894709587097,-1.69,13.35,0.55,13.46
24.299206256866455,0.66,10.66,1.49,10.78
24.299463272094727,3.82,5.88,1.25,7.12
24.299721240997314,2.43,1.82,1.43,3.35
24.29998016357422,-2.07,0.16,-0.74,2.2
24.30108404159546,-5.19,1.26,-6.13,8.13
24.309072017669678,-1.3,4.5,-3.6,5.9
24.318785190582275,3.85,4.88,0.65,6.24
24.329484939575195,7.14,2.9,1.74,7.9
24.400290966033936,9.34,0.38,3.53,9.99
24.400906085968018,9.15,-1.54,4.27,10.21
24.401167154312134,7.56,-2.29,3.23,8.53
24.40142512321472,5.77,-2.37,1.89,6.51
24.40171194076538,4.17,-2.28,1.04,4.86
24.401968002319336,2.71,-2.01,0.75,3.45
24.40274405479431,1.14,-1.83,0.84,2.31
24.408666133880615,-0.31,-1.69,0.74,1.87
24.418702125549316,-1.02,-1.48,0.04,1.79
24.42923593521118,-0.76,-1.36,-0.19,1.56
24.500110149383545,0.3,-1.71,-0.1,1.73
24.500383138656616,1.48,-2.16,-0.21,2.62
24.5009822845459,2.14,-2.31,-0.06,3.14
24.501243114471436,1.93,-2.11,0.0,2.85
24.50149917602539,0.51,-1.95,-0.82,2.17
24.5017671585083,-1.5,-2.81,-1.78,3.64
24.502511024475098,-3.18,-3.4,-2.85,5.45
24.508560180664062,-3.02,-3.83,-3.7,6.12
24.518527030944824,-3.29,-4.54,-2.0,5.95
24.52913522720337,-2.59,-5.28,-0.2,5.88
24.600736141204834,-1.94,-5.2,-0.26,5.55
24.600998163223267,-2.19,-4.84,-1.0,5.4
24.601256132125854,-3.51,-4.87,-1.92,6.3
24.601514101028442,-5.41,-4.76,-3.17,7.87
24.60179114341736,-6.18,-4.61,-3.77,8.58
24.602046966552734,-5.49,-4.74,-4.13,8.34
24.602813243865967,-5.73,-4.82,-5.12,9.07
24.608394145965576,-7.94,-4.38,-7.42,11.71
24.618327140808105,-10.42,-3.78,-9.35,14.5
24.6289119720459,-11.18,-3.46,-9.35,14.97
24.700948238372803,-10.97,-3.43,-8.96,14.57
24.701210975646973,-10.59,-3.5,-8.94,14.29
24.7014741897583,-9.48,-3.38,-8.68,13.29
24.70174503326416,-7.97,-3.12,-7.8,11.57
24.70200204849243,-7.65,-2.97,-7.59,11.17
24.70225715637207,-8.45,-3.71,-7.5,11.89
24.703030109405518,-9.26,-4.28,-7.11,12.43
24.70824909210205,-10.11,2.76,-6.93,12.56
24.718111991882324,-0.43,4.81,-1.35,5.01
24.728841066360474,19.82,11.12,16.17,27.89
24.80206823348999,32.78,23.41,24.45,47.12
24.802370071411133,8.34,28.06,-12.75,31.92
24.802666187286377,-5.33,9.88,-20.88,23.7
24.802927017211914,-10.72,-7.17,-4.7,13.72
24.803190231323242,-13.29,-10.53,10.49,19.93
24.803447246551514,-12.65,-9.22,-1.13,15.69
24.80424928665161,-11.79,-5.12,-9.69,16.09
24.808062076568604,-8.71,-0.79,-6.38,10.82
24.818231105804443,-4.84,1.25,-1.95,5.36
24.828691959381104,-0.75,1.79,-1.62,2.52
24.90138816833496,2.8,1.78,-1.99,3.86
24.901648998260498,4.25,1.5,-1.68,4.8
24.901910066604614,1.66,0.96,-1.82,2.64
24.902195930480957,-2.09,0.44,-2.88,3.58
24.902451992034912,-2.93,0.27,-3.3,4.42
24.90270709991455,-1.98,0.28,-2.05,2.86
24.903610229492188,-1.1,0.21,-0.9,1.43
24.907957077026367,-0.84,0.07,-0.99,1.3
24.918148040771484,-0.71,-0.13,-1.08,1.29
24.9285249710083,-0.27,-0.08,-0.56,0.62
25.00125217437744,0.17,0.02,-0.11,0.2
25.001513957977295,0.21,0.0,0.23,0.31
25.00177812576294,0.04,-0.05,0.55,0.55
25.002044200897217,-0.04,-0.08,0.89,0.89
25.002302169799805,0.07,-0.12,1.19,1.19
25.002559185028076,0.23,-0.09,1.13,1.15
25.00337028503418,0.58,0.05,0.76,0.95
25.0077862739563,0.9,0.14,0.56,1.06
25.01797103881836,1.2,0.22,0.27,1.24
25.028347969055176,1.39,0.26,0.3,1.44
25.101038932800293,1.42,0.16,0.64,1.56
25.10130023956299,1.39,0.04,1.08,1.76
25.101561069488525,1.29,-0.03,1.27,1.81
25.101827144622803,0.96,-0.04,1.48,1.76
25.102083206176758,0.62,0.0,1.62,1.73
25.102338075637817,0.58,0.09,1.33,1.45
25.103142261505127,0.6,0.2,1.07,1.24
25.10761594772339,0.92,0.16,0.86,1.26
25.117993116378784,1.67,0.14,0.95,1.92
25.128129959106445,2.33,0.32,1.04,2.57
25.200448036193848,2.36,0.29,1.66,2.89
25.20071005821228,2.0,0.41,1.6,2.59
25.201348066329956,1.89,0.62,0.65,2.09
25.201609134674072,1.09,0.98,0.19,1.47
25.20186996459961,0.43,1.51,0.14,1.57
25.202147960662842,1.02,1.92,0.89,2.34
25.20289421081543,1.38,2.15,1.5,2.96
25.207532167434692,1.9,2.8,2.27,4.07
25.217438220977783,2.68,3.06,2.62,4.83
25.22800612449646,3.04,3.32,2.79,5.29
25.299875259399414,3.06,3.63,2.72,5.47
25.30013418197632,2.88,3.8,3.03,5.64
25.300389051437378,2.57,4.03,3.54,5.94
25.300644159317017,2.38,5.46,3.59,6.95
25.300899028778076,3.51,7.66,3.81,9.24
25.301483154296875,5.07,8.56,5.84,11.53
25.302227020263672,5.48,9.0,6.98,12.63
25.307359218597412,6.41,10.21,6.89,13.88
25.317320108413696,7.35,11.15,7.08,15.11
25.327855110168457,7.12,10.44,6.83,14.36
25.40142512321472,6.56,9.03,4.58,12.06
25.401686191558838,6.7,8.01,-0.15,10.44
25.401961088180542,5.48,8.3,-5.26,11.25
25.402223110198975,1.97,11.47,-6.77,13.46
25.402480125427246,-2.58,14.06,-2.63,14.53
25.402738094329834,-2.18,11.51,0.34,11.71
25.403541088104248,1.66,7.11,-2.34,7.66
25.407165050506592,1.28,3.21,-1.42,3.73
25.41715097427368,-3.09,0.42,-1.72,3.56
25.4276762008667,-3.27,0.95,-4.96,6.01
25.501060009002686,2.54,3.41,-0.4,4.27
25.50169014930725,6.52,2.47,2.47,7.39
25.50195026397705,8.18,0.41,3.9,9.07
25.502213954925537,7.29,-1.21,5.22,9.04
25.502490043640137,5.91,-1.91,5.09,8.03
25.502748012542725,4.83,-1.61,3.57,6.21
25.503559112548828,4.08,-1.13,2.31,4.82
25.507051944732666,3.3,-1.11,2.11,4.07
25.517040252685547,2.62,-1.64,2.59,4.03
25.527586936950684,2.02,-2.2,2.9,4.16
25.60123920440674,1.15,-2.57,2.79,3.96
25.601856231689453,0.05,-2.74,2.41,3.64
25.60212016105652,-0.11,-2.6,2.16,3.38
25.602402210235596,0.49,-2.56,2.46,3.58
25.602659225463867,1.12,-2.27,2.77,3.75
25.602915287017822,1.32,-1.46,2.61,3.26
25.603718280792236,0.84,-1.26,1.95,2.46
25.606898069381714,-0.09,-1.77,0.85,1.96
25.616857051849365,-1.01,-1.97,-0.82,2.36
25.627418994903564,-1.12,-2.14,-1.85,3.04
25.70125913619995,-1.75,-2.54,-1.27,3.33
25.70186710357666,-2.21,-3.29,-0.52,3.99
25.702129125595093,-2.06,-3.75,-0.62,4.32
25.702410221099854,-2.13,-3.63,-1.15,4.36
25.702670097351074,-2.9,-3.38,-1.66,4.75
25.702927112579346,-4.37,-3.23,-2.06,5.81
25.70371723175049,-5.9,-2.74,-2.96,7.14
25.70671796798706,-6.43,-2.22,-4.03,7.9
25.71668815612793,-6.85,-1.76,-5.32,8.85
25.72728204727173,-7.72,-1.19,-7.05,10.52
25.80160903930664,-8.93,-0.6,-8.07,12.05
25.801873207092285,-10.17,-0.24,-8.8,13.45
25.80213713645935,-11.26,-0.79,-9.1,14.49
25.80239510536194,-11.72,-2.19,-8.61,14.7
25.80265212059021,-10.96,-3.16,-7.91,13.88
25.80290913581848,-9.93,-3.21,-7.4,12.79
25.80381202697754,-9.27,-3.5,-6.95,12.1
25.806623935699463,-9.0,-4.08,-6.56,11.86
25.81651020050049,-9.99,-1.79,-7.03,12.34
25.827120065689087,-8.33,2.65,-5.78,10.47
25.901533126831055,-0.2,-4.27,-6.22,7.54
25.901868104934692,16.22,12.06,15.69,25.58
25.902128219604492,28.92,24.38,19.41,42.51
25.902387142181396,7.99,20.54,-12.46,25.31
25.902658939361572,-2.3,5.48,-9.07,10.84
25.902915000915527,-8.38,-3.7,-10.61,14.01
25.903711080551147,-14.5,-0.57,-2.23,14.68
25.90642809867859,-14.46,-2.01,4.77,15.35
25.916367053985596,-13.18,-5.68,-5.71,15.44
25.927058219909668,-11.56,-3.7,-8.34,14.72
26.00163698196411,-8.22,-1.34,-4.12,9.29
26.00190305709839,-3.84,-0.43,-2.24,4.46
26.00216293334961,0.5,0.46,-1.55,1.69
26.002421140670776,4.23,1.61,-0.97,4.62
26.002676010131836,5.49,2.2,-0.57,5.94
26.00293207168579,2.45,1.48,-1.25,3.12
26.003729104995728,-0.76,0.62,-3.29,3.43
26.006357192993164,-1.98,0.13,-3.49,4.01
26.016240119934082,-2.01,-0.03,-2.02,2.84
26.02698516845703,-1.21,-0.18,-1.26,1.75
26.101778030395508,-0.97,-0.3,-1.29,1.64
26.102041244506836,-0.8,-0.35,-0.97,1.3
26.10230302810669,0.02,-0.06,-0.31,0.31
26.102591037750244,0.93,0.23,0.08,0.96
26.10285210609436,1.21,0.21,0.44,1.3
26.10310697555542,1.01,0.06,0.81,1.29
26.10387897491455,0.67,-0.03,0.86,1.09
26.106104135513306,0.58,0.06,0.71,0.91
26.11615514755249,0.54,0.14,0.44,0.71
26.126737117767334,0.39,0.22,0.17,0.47
26.20142412185669,0.35,0.15,0.19,0.42
26.202043056488037,0.44,0.02,0.34,0.55
26.20230507850647,0.53,-0.03,0.63,0.82
26.202563285827637,0.73,0.0,0.94,1.19
26.202816009521484,0.93,0.0,1.21,1.52
26.203071117401123,0.99,-0.06,1.07,1.45
26.2038791179657,0.84,-0.16,0.83,1.19
26.205841064453125,0.28,-0.26,0.98,1.05
26.215854167938232,-0.19,-0.28,1.02,1.07
26.22648525238037,-0.19,-0.21,0.94,0.98
26.301026105880737,-0.14,-0.14,0.8,0.82
26.301279067993164,-0.14,-0.1,0.67,0.69
26.30152416229248,0.27,-0.03,0.67,0.72
26.302110195159912,1.08,0.05,0.77,1.32
26.30237102508545,1.67,0.08,0.76,1.83
26.30263113975525,2.03,0.06,1.15,2.33
26.30340313911438,2.12,0.26,1.5,2.6
26.305782079696655,1.96,0.36,1.56,2.53
26.315808057785034,1.42,0.59,2.06,2.57
26.326457977294922,0.94,1.12,1.73,2.26
26.40085005760193,0.59,1.68,1.41,2.27
26.401109218597412,0.63,2.02,1.52,2.6
26.4013671875,1.16,2.56,1.81,3.34
26.401631116867065,2.49,3.21,1.96,4.51
26.402234077453613,2.98,3.38,2.27,5.04
26.402497053146362,2.89,3.71,2.7,5.42
26.403292179107666,2.93,4.55,2.92,6.14
26.405853271484375,3.31,6.28,2.88,7.66
26.41568112373352,4.51,7.45,3.92,9.55
26.426258087158203,4.8,7.77,5.27,10.54
26.50102996826172,4.93,8.7,6.06,11.69
26.501296043395996,5.4,9.81,7.68,13.57
26.50156021118164,5.39,10.65,9.32,15.14
26.501817226409912,5.53,10.76,9.07,15.12
26.502432107925415,5.28,10.01,6.81,13.2
26.502692222595215,4.94,8.51,3.39,10.4
26.50347900390625,4.59,7.99,-1.46,9.32
26.505529165267944,2.23,9.5,-4.24,10.63
26.515552043914795,-3.49,12.21,-2.4,12.92
26.526103019714355,-5.18,12.18,-1.32,13.3
26.60047197341919,0.68,9.19,-1.32,9.3
26.60073208808899,3.26,4.64,0.28,5.67
26.60098910331726,0.93,1.79,0.82,2.17
26.601248264312744,-3.39,1.74,-3.68,5.29
26.60150408744812,-0.57,4.8,-3.52,5.97
26.60175895690918,4.2,5.28,1.0,6.82
26.602856159210205,7.41,3.07,2.53,8.41
26.605428218841553,8.56,1.02,3.06,9.14
26.61537218093872,7.8,-0.61,2.87,8.33
26.62599015235901,7.03,-1.56,2.11,7.5
26.700847148895264,6.26,-1.95,1.63,6.75
26.701122283935547,5.17,-1.75,1.55,5.67
26.701388120651245,4.36,-1.25,1.57,4.79
26.70164918899536,3.62,-1.09,1.59,4.1
26.701906204223633,2.89,-1.34,1.2,3.4
26.702524185180664,2.46,-1.6,0.68,3.01
26.70329999923706,2.38,-1.71,0.42,2.96
26.705315113067627,2.61,-1.56,0.29,3.05
26.715264081954956,2.88,-1.42,0.22,3.21
26.725769996643066,2.71,-1.73,0.51,3.25
26.73518419265747,2.28,-2.3,0.37,3.25
26.80076813697815,1.88,-2.99,0.01,3.53
26.8010311126709,1.27,-3.52,0.06,3.74
26.801290035247803,0.34,-3.83,-0.11,3.84
26.801548957824707,-0.47,-4.31,-0.78,4.4
26.80180597305298,-1.52,-4.55,-1.96,5.18
26.80293107032776,-2.97,-5.0,-3.07,6.57
26.805066108703613,-4.15,-5.77,-3.36,7.86
26.815186023712158,-4.68,-6.39,-3.01,8.47
26.825719118118286,-4.82,-6.46,-2.76,8.51
26.835068225860596,-4.87,-5.71,-3.37,8.22
26.90113615989685,-5.14,-4.66,-4.56,8.3
26.901400089263916,-5.51,-3.55,-5.88,8.8
26.90165901184082,-5.83,-2.3,-7.23,9.56
26.901916027069092,-6.32,-1.13,-8.19,10.4
26.902531147003174,-7.79,-0.3,-9.68,12.42
26.9033100605011,-10.81,-0.1,-12.61,16.6
26.90497398376465,-13.94,-0.84,-13.81,19.64
26.9149911403656,-13.3,-1.99,-11.43,17.64
26.925559043884277,-9.95,-2.63,-9.45,13.97
26.934919118881226,-7.65,-2.63,-9.04,12.13
27.004738092422485,-6.9,-2.64,-8.36,11.15
27.00500512123108,-7.78,-0.67,-7.88,11.09
27.005266189575195,-5.17,3.7,-6.21,8.88
27.0055251121521,0.72,-0.98,-3.04,3.27
27.005783081054688,9.53,10.59,14.39,20.24
27.006575107574463,25.95,18.69,22.88,39.32
27.0068359375,13.12,21.05,-11.54,27.35
27.014688968658447,-2.93,7.6,-14.33,16.48
27.025317192077637,-13.15,-7.55,-4.43,15.79
27.034667015075684,-19.36,-7.15,4.91,21.21
27.10075306892395,-16.58,-3.89,-1.61,17.1
27.101015090942383,-12.82,-3.3,-7.0,14.97
27.101274013519287,-8.06,-1.07,-4.46,9.27
27.101530075073242,-2.9,1.01,-1.94,3.63
27.10178804397583,1.22,0.99,-2.21,2.71
27.102894067764282,4.67,0.96,-3.36,5.83
27.104632139205933,6.09,1.34,-3.39,7.09
27.114647150039673,3.1,1.49,-2.32,4.14
27.125193119049072,-0.64,0.96,-1.45,1.85
27.134627103805542,-1.72,0.44,-1.76,2.49
27.200870037078857,-1.81,0.04,-2.24,2.88
27.201131105422974,-1.95,-0.11,-1.98,2.78
27.201388120651245,-1.63,-0.14,-1.42,2.16
27.201645135879517,-0.87,-0.08,-0.91,1.26
27.201900959014893,-0.51,-0.05,-0.45,0.68
27.20296812057495,-0.57,-0.01,-0.12,0.58
27.204451084136963,-0.48,0.05,-0.06,0.48
27.21444320678711,-0.24,0.05,0.11,0.26
27.22498893737793,0.14,-0.03,0.26,0.29
27.23444128036499,0.52,-0.04,0.29,0.59
27.300607204437256,0.71,0.03,0.37,0.8
27.300868034362793,0.66,0.14,0.34,0.75
27.301125049591064,0.56,0.24,0.12,0.62
27.301379203796387,0.45,0.21,0.16,0.52
27.301634073257446,0.63,0.02,0.54,0.83
27.30272912979126,1.23,-0.1,1.07,1.63
27.304335117340088,1.74,-0.05,1.3,2.17
27.314363956451416,1.64,0.02,1.47,2.2
27.324969053268433,1.34,0.09,1.52,2.02
27.334339141845703,1.28,0.01,1.42,1.91
27.400527000427246,1.25,-0.15,1.49,1.95
27.400789260864258,1.02,-0.26,1.48,1.81
27.40104627609253,0.61,-0.21,1.16,1.32
27.40130114555359,0.53,0.03,0.81,0.96
27.401556968688965,0.84,0.29,0.87,1.24
27.402323246002197,1.27,0.41,1.02,1.67
27.404186248779297,1.92,0.21,1.37,2.36
27.414123058319092,2.49,0.03,2.15,3.28
27.424710273742676,2.61,0.1,2.61,3.69
27.4341721534729,2.5,0.51,2.3,3.43
27.50052309036255,2.17,0.94,1.74,2.93
27.500784158706665,1.72,1.5,1.48,2.72
27.50103998184204,1.57,1.81,1.27,2.71
27.50129508972168,1.27,1.95,0.95,2.51
27.50155019760132,1.64,2.87,1.06,3.47
27.502292156219482,1.83,3.05,1.48,3.85
27.504075050354004,1.89,3.19,2.38,4.4
27.514127254486084,2.47,3.16,2.93,4.96
27.52467918395996,2.7,3.16,3.28,5.29
27.53406810760498,2.77,3.31,3.49,5.55
27.600172996520996,2.77,4.02,3.72,6.13
27.600433111190796,2.74,6.23,3.2,7.52
27.600688934326172,4.52,8.51,3.61,10.28
27.600945949554443,5.07,8.71,6.25,11.85
27.601200103759766,5.32,9.39,7.54,13.16
27.601962089538574,6.65,10.18,8.12,14.62
27.603806018829346,6.84,9.86,7.96,14.4
27.613887071609497,6.12,8.57,6.28,12.26
27.62459707260132,5.65,7.21,1.81,9.33
27.633876085281372,6.31,8.02,-2.99,10.63
27.700325965881348,3.61,12.08,-4.67,13.44
27.700587272644043,-3.35,14.82,-2.48,15.39
27.700844049453735,-3.45,12.63,-2.34,13.3
27.701102256774902,2.04,8.02,-1.85,8.47
27.70135807991028,3.66,3.57,0.52,5.13
27.702102184295654,-1.18,1.64,-0.63,2.11
27.703639030456543,-4.67,1.94,-6.21,8.0
27.713655948638916,-0.33,4.61,-2.53,5.26
27.724236011505127,4.33,4.34,2.22,6.52
27.733803272247314,7.33,2.38,2.94,8.24
27.800508975982666,8.08,1.01,2.54,8.52
27.80077028274536,7.38,-0.12,2.24,7.71
27.80102825164795,6.69,-1.14,1.95,7.06
27.80128526687622,6.08,-1.76,1.69,6.55
27.80154013633728,5.44,-1.89,1.24,5.89
27.802268981933594,4.91,-1.89,1.13,5.38
27.803483963012695,4.22,-2.2,1.53,4.99
27.81344699859619,3.3,-2.6,1.58,4.48
27.824103116989136,2.42,-2.79,1.18,3.87
27.833521127700806,2.01,-2.72,0.83,3.48
27.90135908126831,1.9,-2.36,0.32,3.04
27.901623249053955,1.79,-2.05,-0.16,2.72
27.90188217163086,1.59,-1.97,-0.61,2.6
27.902138233184814,1.6,-2.13,-0.77,2.77
27.902395248413086,1.65,-2.44,-0.75,3.03
27.90372610092163,1.34,-2.9,-0.84,3.3
27.903985023498535,0.58,-3.58,-0.83,3.72
27.913330078125,-0.52,-4.32,-1.27,4.53
27.92401909828186,-1.47,-5.02,-1.86,5.55
27.933500051498413,-2.26,-5.48,-2.68,6.5
28.00161600112915,-3.3,-5.88,-3.62,7.65
28.00189709663391,-4.58,-6.25,-4.06,8.74
28.00215721130371,-5.65,-6.32,-4.43,9.56
28.002422094345093,-6.3,-5.98,-4.85,9.94
28.002726078033447,-6.5,-5.46,-5.63,10.18
28.00404405593872,-6.28,-4.83,-6.23,10.07
28.004323959350586,-6.27,-4.25,-6.7,10.11
28.01327610015869,-6.7,-4.02,-7.08,10.54
28.02389907836914,-7.53,-3.97,-7.05,11.05
28.03334093093872,-8.84,-3.7,-7.49,12.16
28.10200810432434,-9.95,-3.11,-8.44,13.41
28.102270126342773,-10.56,-2.16,-9.13,14.12
28.102565050125122,-11.08,-1.18,-9.62,14.72
28.103020191192627,-11.56,-0.96,-9.45,14.96
28.10363507270813,-11.07,-1.45,-8.05,13.76
28.104412078857422,-10.24,-0.58,-6.63,12.21
28.104673147201538,-7.05,5.21,-5.7,10.45
28.113221168518066,0.63,-2.11,-4.62,5.11
28.12381410598755,10.92,7.66,8.41,15.76
28.13371706008911,33.93,22.47,25.77,48.16
28.20185613632202,18.53,23.11,-6.51,30.32
28.20212697982788,-1.35,5.7,-8.39,10.23
28.202409267425537,-13.82,-7.42,-4.67,16.36
28.202693939208984,-21.61,-8.18,-1.48,23.15
28.203444004058838,-22.05,-1.71,-1.6,22.17
28.204219102859497,-16.38,-1.75,-6.24,17.61
28.20447826385498,-8.24,-0.79,-4.41,9.37
28.213093280792236,-3.9,0.15,-2.69,4.74
28.22358012199402,-0.77,0.12,-3.24,3.33
28.232996940612793,2.48,0.76,-3.15,4.08
28.30175805091858,4.75,1.36,-2.9,5.72
28.302025079727173,3.82,1.53,-2.14,4.63
28.302306175231934,0.86,1.05,-2.06,2.46
28.302744150161743,-1.63,0.34,-2.51,3.01
28.30299997329712,-3.08,-0.28,-1.33,3.36
28.304134130477905,-3.06,-0.49,-0.04,3.09
28.30439805984497,-2.32,-0.08,-0.05,2.32
28.312868118286133,-0.11,0.24,-1.36,1.38
28.323445081710815,1.97,0.12,-1.67,2.58
28.33298397064209,2.22,-0.14,-0.73,2.34
28.40166997909546,0.96,-0.31,0.16,1.02
28.40194320678711,-0.39,-0.21,0.81,0.92
28.402204036712646,-0.49,0.15,0.81,0.95
28.402647972106934,0.06,0.3,0.4,0.5
28.402907133102417,0.26,0.19,-0.01,0.32
28.404025077819824,0.05,0.12,-0.11,0.17
28.4042911529541,-0.17,0.08,0.0,0.18
28.413480281829834,0.28,0.14,0.31,0.44
28.423794269561768,1.43,0.21,0.58,1.55
28.43273401260376,2.4,0.22,0.8,2.53
28.50127124786377,2.53,0.12,1.26,2.82
28.501538276672363,2.04,-0.01,1.67,2.63
28.501795053482056,1.35,-0.18,2.12,2.51
28.502087116241455,1.28,-0.4,2.47,2.81
28.502514123916626,1.75,-0.48,1.95,2.66
28.503281116485596,1.86,-0.19,1.46,2.37
28.503897190093994,1.59,0.25,1.01,1.9
28.512617111206055,1.11,0.51,0.61,1.36
28.523128986358643,0.86,0.52,0.56,1.15
28.532506942749023,0.81,0.52,0.69,1.18
28.6008620262146,0.91,0.47,0.92,1.37
28.601123094558716,1.23,0.45,1.12,1.72
28.601383209228516,1.54,0.59,1.25,2.06
28.60163927078247,1.89,0.81,1.46,2.52
28.601906061172485,2.0,0.97,1.74,2.82
28.602863073349,1.9,1.13,1.76,2.82
28.60311794281006,1.94,1.75,1.47,2.99
28.612420082092285,1.96,2.33,1.45,3.37
28.623094081878662,1.79,2.65,1.58,3.56
28.632447242736816,2.14,2.59,1.83,3.82
28.701220989227295,2.41,2.55,2.46,4.28
28.701483249664307,2.54,2.47,2.76,4.49
28.70177698135376,2.68,2.62,2.88,4.72
28.70221710205078,2.7,2.86,3.02,4.95
28.702473163604736,2.88,3.23,3.35,5.47
28.703235149383545,2.92,3.87,3.8,6.15
28.70384407043457,2.96,5.8,3.93,7.6
28.71226215362549,4.3,8.38,4.63,10.49
28.722854137420654,5.85,9.35,6.75,12.93
28.732254028320312,5.9,9.65,8.0,13.85
28.801531076431274,6.79,10.7,8.62,15.32
28.801966190338135,7.61,11.29,7.94,15.76
28.80222511291504,7.66,11.16,4.42,14.23
28.80248713493347,8.64,11.21,-0.06,14.15
28.802742958068848,7.88,11.96,-3.58,14.76
28.803882122039795,2.29,15.0,-3.63,15.6
28.804147243499756,-2.52,15.42,-1.58,15.7
28.812064170837402,-1.1,11.2,-1.84,11.4
28.8226900100708,1.53,5.17,0.28,5.39
28.832229137420654,-0.38,2.81,1.48,3.19
28.901721000671387,-6.47,2.59,-5.28,8.74
28.901986122131348,-5.29,5.09,-4.95,8.85
28.902249097824097,-0.32,4.93,1.92,5.3
28.902506113052368,3.67,2.42,3.12,5.39
28.90277099609375,5.33,1.09,3.09,6.25
28.90389919281006,4.88,0.2,3.82,6.2
28.90416407585144,4.75,-0.58,3.96,6.21
28.9122531414032,4.37,-1.05,3.9,5.95
28.92254400253296,3.1,-1.45,3.55,4.93
28.932119131088257,2.16,-2.01,3.29,4.41
29.00209617614746,1.55,-2.63,3.65,4.75
29.002367973327637,0.77,-2.99,4.1,5.13
29.00263023376465,0.02,-3.38,4.07,5.29
29.002888202667236,-0.28,-3.61,3.82,5.26
29.00312900543213,-0.28,-3.68,3.48,5.07
29.00429105758667,-0.2,-3.67,3.25,4.9
29.004552125930786,-0.45,-3.8,3.05,4.89
29.011974096298218,-0.51,-4.01,2.56,4.78
29.02240514755249,-0.35,-4.36,2.22,4.9
29.031939029693604,-0.32,-4.92,2.13,5.37
29.102546215057373,-0.36,-5.53,1.76,5.81
29.10281014442444,-0.35,-6.17,1.39,6.33
29.103071212768555,-0.3,-6.83,1.0,6.9
29.103328227996826,-0.24,-7.28,0.57,7.3
29.103584051132202,-0.57,-7.43,-0.32,7.45
29.104705095291138,-1.09,-7.33,-1.11,7.49
29.104966163635254,-1.96,-7.13,-1.78,7.6
29.111679077148438,-3.48,-6.61,-2.86,7.99
29.122143268585205,-5.32,-5.64,-5.03,9.24
29.131628036499023,-7.17,-4.17,-7.77,11.36
29.202555179595947,-7.71,-2.43,-8.9,12.02
29.202823162078857,-7.1,-1.23,-9.16,11.65
29.203087091445923,-6.41,-0.26,-10.02,11.89
29.203346252441406,-6.22,0.45,-10.85,12.51
29.203622102737427,-6.0,0.39,-10.63,12.21
29.204740047454834,-5.89,0.36,-10.35,11.91
29.205007076263428,-6.83,0.69,-11.41,13.31
29.211565017700195,-7.11,0.41,-12.57,14.44
29.221970081329346,-5.96,6.42,-9.11,12.63
29.231481075286865,-1.53,1.24,-3.36,3.89
29.302963256835938,-1.02,-0.9,-6.69,6.82
29.303235054016113,6.85,13.86,18.95,24.45
29.303497076034546,12.96,17.64,11.87,24.9
29.303761959075928,0.39,16.66,-14.46,22.06
29.30439519882202,-16.95,1.76,0.54,17.04
29.30520510673523,-21.9,-8.24,-1.23,23.43
29.305466175079346,-12.89,-3.33,-8.92,16.02
29.311373233795166,-8.41,-1.53,-9.08,12.47
29.321766138076782,-5.04,-0.31,-7.22,8.81
29.33140993118286,-1.14,1.65,-5.79,6.12
29.402249097824097,2.99,1.64,-5.12,6.15
29.40251111984253,5.96,1.22,-4.66,7.66
29.4027681350708,4.86,0.86,-3.22,5.89
29.403027057647705,1.32,0.64,-2.32,2.74
29.40328311920166,-0.9,0.3,-2.31,2.49
29.40439009666443,-1.49,0.04,-2.57,2.97
29.404649257659912,-1.28,0.0,-2.06,2.42
29.41117525100708,-0.96,0.06,-0.65,1.16
29.421828269958496,-0.99,-0.05,0.54,1.12
29.431199073791504,-0.82,-0.16,0.84,1.18
29.503039121627808,-0.61,-0.22,0.38,0.75
29.50330114364624,-0.54,-0.2,0.02,0.57
29.503567218780518,-0.39,-0.14,-0.11,0.42
29.503833055496216,-0.1,-0.13,-0.13,0.2
29.50444221496582,0.2,-0.08,0.0,0.21
29.50520610809326,0.3,0.01,0.26,0.39
29.505465984344482,0.49,0.08,0.25,0.55
29.511036157608032,0.83,0.21,0.17,0.87
29.522011280059814,1.27,0.27,0.36,1.34
29.531100273132324,1.64,0.22,0.65,1.77
29.60238814353943,1.71,0.19,0.79,1.89
29.60265612602234,1.49,0.11,1.02,1.8
29.60291314125061,1.3,0.14,1.18,1.76
29.603168964385986,1.26,0.22,1.19,1.74
29.603424072265625,1.35,0.24,1.22,1.83
29.604547023773193,1.55,0.14,1.31,2.03
29.604807138442993,1.74,-0.08,1.26,2.14
29.610909938812256,1.88,-0.29,1.25,2.27
29.685286045074463,2.03,-0.59,1.43,2.55
29.685550212860107,2.29,-0.65,1.7,2.92
29.68580412864685,2.39,-0.39,1.64,2.92
29.686063051223755,2.14,-0.04,0.92,2.32
29.686320066452026,1.7,0.24,0.87,1.92
29.68657612800598,1.53,0.34,0.99,1.85
29.686830043792725,1.66,0.3,0.86,1.89
29.69123601913452,1.75,0.21,1.25,2.16
29.700737953186035,1.8,0.01,2.0,2.69
29.710726261138916,1.84,0.04,2.31,2.95
29.785689115524292,1.46,0.49,2.15,2.64
29.785950183868408,1.05,1.28,1.76,2.41
29.786206245422363,0.62,2.09,1.45,2.61
29.786461114883423,0.66,2.79,1.8,3.38
29.786715984344482,1.42,3.62,2.16,4.44
29.786970138549805,2.19,3.59,2.02,4.66
29.787224054336548,2.25,3.58,2.76,5.04
29.791059017181396,2.46,3.71,3.35,5.57
29.800578117370605,2.55,5.25,3.16,6.63
29.810577154159546,3.9,7.89,2.97,9.28
29.885914087295532,5.95,8.8,4.37,11.48
29.886211156845093,6.4,8.39,6.25,12.26
29.886473178863525,6.79,8.74,7.9,13.59
29.886733055114746,7.27,9.36,8.33,14.48
29.8869891166687,7.38,9.66,7.91,14.5
29.887251138687134,6.96,9.43,6.68,13.49
29.887514114379883,6.41,8.33,3.38,11.04
29.89094114303589,5.56,7.84,-2.21,9.86
29.900458097457886,3.83,9.78,-6.73,12.47
29.910484075546265,-1.7,13.54,-4.76,14.45
29.984370231628418,-4.93,12.39,1.01,13.37
29.984645128250122,-1.15,9.26,0.1,9.33
29.98490309715271,2.5,5.85,-0.42,6.37
29.985159158706665,1.83,2.88,1.47,3.71
29.985417127609253,-2.53,1.23,-1.75,3.31
29.98567295074463,-2.72,3.42,-5.82,7.27
29.985929012298584,2.47,5.96,-1.29,6.57
29.990722179412842,6.75,4.44,1.58,8.23
30.0003399848938,8.41,1.66,2.81,9.02
30.010266065597534,7.5,-0.86,2.88,8.07
30.085011959075928,6.44,-2.64,2.22,7.3
30.08593511581421,5.58,-3.65,2.52,7.12
30.086181163787842,4.55,-3.65,3.0,6.55
30.08644199371338,3.91,-3.02,3.21,5.89
