time,ax,ay,az,atotal
0.0019230842590332031,0.26,-0.29,-0.56,0.68
0.003078937530517578,-0.18,0.33,-0.57,0.68
0.009196996688842773,0.36,-0.04,-0.1,0.37
0.01929616928100586,0.45,0.0,-0.13,0.46
0.029213905334472656,0.21,0.03,-0.19,0.28
0.039175987243652344,0.06,-0.01,-0.04,0.07
0.0491938591003418,-0.05,0.0,0.05,0.07
0.09810900688171387,-0.07,-0.02,0.16,0.17
0.09871292114257812,-0.15,-0.05,0.15,0.21
0.09929895401000977,-0.35,-0.06,0.24,0.42
0.1006631851196289,-0.35,-0.03,0.27,0.44
0.10179305076599121,-0.09,-0.04,0.26,0.27
0.10908889770507812,-0.02,-0.03,0.15,0.15
0.11909818649291992,-0.05,-0.02,0.02,0.05
0.12902498245239258,-0.07,-0.02,-0.16,0.17
0.13909387588500977,-0.08,0.01,-0.2,0.21
0.14903903007507324,0.01,0.03,-0.18,0.18
0.19825506210327148,0.05,0.01,-0.17,0.17
0.19885015487670898,0.14,0.05,-0.17,0.22
0.19937896728515625,0.33,0.05,-0.1,0.34
0.2006821632385254,0.43,0.05,-0.02,0.43
0.20174789428710938,0.35,0.04,-0.02,0.35
0.20904016494750977,0.14,-0.02,-0.04,0.14
0.21898794174194336,0.06,-0.01,-0.08,0.1
0.2289271354675293,0.1,0.0,-0.02,0.1
0.238908052444458,0.07,0.0,-0.01,0.07
0.24891996383666992,-0.02,-0.03,0.08,0.08
0.2974879741668701,-0.24,-0.04,0.07,0.25
0.29808616638183594,-0.38,-0.01,0.01,0.38
0.29866695404052734,-0.15,-0.04,0.14,0.2
0.299807071685791,0.0,-0.04,0.11,0.11
0.30123090744018555,-0.06,0.03,-0.03,0.07
0.3089261054992676,-0.07,-0.03,0.03,0.08
0.31885719299316406,-0.15,-0.06,0.11,0.19
0.3287839889526367,-0.09,0.03,0.13,0.16
0.3388969898223877,0.02,0.05,0.12,0.13
0.3488578796386719,0.11,-0.01,0.05,0.12
0.3974919319152832,0.02,-0.11,0.04,0.11
0.39809107780456543,0.05,0.01,-0.06,0.07
0.39867591857910156,0.07,-0.01,0.07,0.09
0.3997988700866699,-0.14,-0.02,0.06,0.15
0.4012320041656494,-0.18,-0.02,-0.02,0.18
0.40857410430908203,-0.05,-0.01,0.01,0.05
0.4187140464782715,-0.14,-0.01,0.05,0.14
0.42870092391967773,-0.21,-0.03,0.12,0.24
0.4386780261993408,-0.16,0.02,0.24,0.28
0.44863200187683105,-0.03,-0.09,0.32,0.33
0.49718308448791504,-0.08,-0.03,0.32,0.33
0.49771785736083984,-0.24,-0.03,0.25,0.34
0.49826812744140625,-0.3,-0.02,0.2,0.36
0.49941015243530273,-0.2,-0.05,0.2,0.28
0.5008440017700195,-0.14,-0.05,0.26,0.29
0.508519172668457,-0.15,-0.05,0.36,0.39
0.5185320377349854,-0.23,-0.09,0.36,0.43
0.5284850597381592,-0.35,-0.06,0.24,0.42
0.5384941101074219,-0.38,-0.06,0.14,0.4
0.5484771728515625,-0.4,-0.1,0.13,0.43
0.5971150398254395,-0.28,-0.06,0.18,0.33
0.5977020263671875,-0.17,-0.06,0.27,0.32
0.5982470512390137,-0.1,-0.1,0.29,0.32
0.5993959903717041,-0.08,-0.1,0.3,0.32
0.6008350849151611,-0.22,-0.1,0.24,0.34
0.6083331108093262,-0.35,-0.17,0.36,0.53
0.6184320449829102,-0.12,-0.13,0.46,0.49
0.6284070014953613,0.05,-0.15,0.57,0.59
0.6383969783782959,0.3,-0.12,0.68,0.75
0.6483330726623535,0.35,-0.1,0.63,0.72
0.6967580318450928,-0.07,-0.14,0.48,0.5
0.6973628997802734,-0.12,-0.11,0.33,0.36
0.6979470252990723,-0.03,-0.1,0.17,0.19
0.6991171836853027,0.07,-0.07,0.22,0.24
0.7002391815185547,0.21,-0.07,0.23,0.31
0.7082319259643555,0.25,-0.07,0.21,0.33
0.718095064163208,0.49,0.02,0.08,0.49
0.7283201217651367,0.58,-0.11,0.07,0.59
0.7383360862731934,0.5,-0.09,0.02,0.5
0.7482700347900391,0.58,0.08,-0.21,0.62
0.7967009544372559,0.73,0.12,-0.1,0.74
0.797295093536377,1.02,0.04,0.0,1.02
0.7978770732879639,0.95,-0.1,-0.04,0.95
0.7990090847015381,0.64,-0.11,0.01,0.64
0.8001141548156738,0.33,-0.07,-0.08,0.34
0.8081459999084473,-0.06,-0.03,-0.19,0.2
0.8179159164428711,-0.11,0.06,-0.13,0.18
0.828057050704956,0.2,0.08,-0.02,0.21
0.8381280899047852,0.25,0.01,-0.04,0.25
0.848081111907959,0.1,0.0,-0.27,0.28
0.8962059020996094,0.05,0.04,-0.27,0.27
0.8967480659484863,0.05,0.05,-0.1,0.12
0.8972930908203125,0.15,0.0,-0.11,0.18
0.8984689712524414,0.43,0.01,-0.1,0.44
0.8996050357818604,0.7,0.0,-0.03,0.7
0.9079360961914062,0.86,-0.03,0.02,0.86
0.9179580211639404,0.64,0.01,0.2,0.67
0.9278709888458252,0.06,-0.15,0.09,0.18
0.9379301071166992,-0.37,-0.13,-0.08,0.4
0.9478790760040283,-0.5,-0.04,-0.13,0.51
0.9961628913879395,-0.58,0.04,-0.39,0.7
0.99676513671875,-0.38,0.15,-0.41,0.57
0.9973580837249756,0.08,-0.03,-0.01,0.08
0.9984869956970215,0.33,-0.22,0.19,0.43
0.9995920658111572,0.16,-0.1,0.06,0.19
1.007775068283081,-0.12,0.04,-0.3,0.32
1.0180530548095703,-0.25,0.05,-0.5,0.56
1.0277462005615234,-0.37,-0.01,-0.53,0.64
1.0377931594848633,-0.6,0.07,-0.82,1.01
1.0478200912475586,-0.32,0.05,-0.5,0.59
1.0961730480194092,0.21,-0.13,0.0,0.24
1.096771001815796,0.25,-0.08,-0.16,0.3
1.0973539352416992,-0.2,0.18,-0.56,0.62
1.0985121726989746,-0.49,0.25,-0.64,0.84
1.0996499061584473,-0.06,0.12,-0.16,0.2
1.1076650619506836,0.63,-0.04,0.21,0.66
1.1176018714904785,0.76,-0.11,0.11,0.77
1.1275691986083984,0.39,0.12,-0.14,0.43
1.137587070465088,-0.05,0.31,-0.3,0.43
1.1476130485534668,-0.28,0.12,-0.12,0.32
1.1961240768432617,-0.33,-0.07,0.25,0.41
1.1967270374298096,-0.21,-0.06,0.19,0.28
1.1973118782043457,-0.04,0.02,0.3,0.3
1.198470115661621,0.03,0.04,0.33,0.33
1.1996049880981445,0.07,-0.1,0.22,0.25
1.2075791358947754,0.22,-0.04,0.2,0.3
1.2175331115722656,0.15,0.04,0.07,0.17
1.2275209426879883,-0.36,-0.06,-0.18,0.4
1.2375450134277344,-0.54,0.13,-0.37,0.66
1.2474579811096191,-0.38,0.19,-0.36,0.55
1.2957890033721924,-0.12,0.02,-0.2,0.23
1.296389102935791,-0.02,0.04,-0.26,0.26
1.2969551086425781,0.06,0.04,-0.16,0.17
1.2980480194091797,0.2,-0.02,0.01,0.2
1.2991530895233154,0.48,-0.03,-0.02,0.48
1.3074140548706055,0.99,-0.1,0.3,1.03
1.317378044128418,1.12,-0.14,0.2,1.14
1.327368974685669,0.41,0.03,-0.09,0.42
1.3373379707336426,0.04,0.03,0.02,0.05
1.3473801612854004,-0.09,-0.02,0.0,0.09
1.3959441184997559,-0.46,0.02,-0.28,0.53
1.3965470790863037,-0.86,0.07,-0.63,1.06
1.3971328735351562,-0.76,0.15,-0.84,1.14
1.3982901573181152,-0.47,0.16,-0.78,0.92
1.3994300365447998,-0.17,0.23,-0.55,0.61
1.4072089195251465,0.12,0.22,-0.17,0.3
1.417233943939209,0.4,0.23,-0.03,0.46
1.4272069931030273,0.71,0.45,-0.34,0.9
1.4372200965881348,1.08,0.55,-0.68,1.38
1.4472200870513916,1.5,0.56,-0.84,1.8
1.496002197265625,2.02,0.69,-0.85,2.29
1.4966039657592773,2.79,0.81,-0.6,2.96
1.4971880912780762,3.54,0.69,-0.05,3.6
1.4983100891113281,4.38,0.86,0.27,4.47
1.4994101524353027,4.99,0.93,0.6,5.11
1.5071039199829102,5.49,1.21,1.0,5.71
1.517045021057129,6.26,1.6,1.02,6.54
1.5270750522613525,5.84,2.7,1.9,6.7
1.5370841026306152,5.25,4.41,1.39,6.99
1.5470950603485107,3.87,6.31,0.22,7.4
1.596458911895752,4.48,8.1,-1.74,9.41
1.5970649719238281,6.94,7.08,-1.24,9.99
1.5976459980010986,4.76,4.78,0.05,6.74
1.598829984664917,2.06,3.28,-1.31,4.08
1.5999910831451416,1.08,1.8,-1.97,2.87
1.607029914855957,3.25,0.7,-1.72,3.74
1.6168930530548096,4.9,2.25,-0.12,5.39
1.6268858909606934,5.26,1.09,-0.1,5.37
1.6369118690490723,5.22,-0.26,-0.06,5.22
1.64695405960083,6.18,-0.91,1.02,6.32
1.696052074432373,7.05,-1.39,1.28,7.29
1.696648120880127,6.81,-1.46,1.06,7.04
1.6972289085388184,6.48,-1.53,1.02,6.73
1.6983840465545654,6.43,-1.59,1.23,6.73
1.699517011642456,6.28,-1.63,1.4,6.63
1.7066841125488281,5.77,-1.44,1.46,6.12
1.7166249752044678,4.94,-1.16,1.29,5.23
1.7266058921813965,3.73,-0.96,1.08,4.0
1.73661208152771,2.46,-0.72,0.75,2.67
1.7466630935668945,1.62,-0.24,0.3,1.66
1.795888900756836,0.98,0.31,-0.11,1.03
1.7965011596679688,0.81,0.86,-0.41,1.25
1.7970800399780273,0.77,1.5,-0.52,1.76
1.798248052597046,-0.07,1.71,-0.21,1.72
1.7993910312652588,-0.91,1.68,-0.05,1.91
1.8065919876098633,-2.03,2.16,-0.45,2.99
1.8164920806884766,-3.2,2.79,-1.14,4.39
1.8264870643615723,-4.16,2.63,-1.27,5.08
1.8365578651428223,-4.71,1.98,-1.0,5.2
1.8465008735656738,-4.97,1.17,-0.48,5.12
1.895348072052002,-5.44,0.52,-0.02,5.46
1.8959479331970215,-6.27,0.16,-0.44,6.28
1.8965649604797363,-6.8,0.58,-1.09,6.91
1.8977460861206055,-6.95,1.25,-1.06,7.14
1.8989191055297852,-6.6,0.55,-0.38,6.63
1.9065229892730713,-5.41,-0.57,1.01,5.53
1.9165019989013672,-5.0,-0.85,1.81,5.38
1.9264979362487793,-5.82,-0.78,0.98,5.95
1.936418056488037,-6.48,-0.54,-0.35,6.51
1.9464340209960938,-6.23,-0.52,-0.77,6.29
1.9959869384765625,-5.08,1.29,-0.53,5.26
1.9965860843658447,-4.1,1.61,-0.7,4.46
1.997164011001587,-6.4,-1.41,-1.16,6.65
1.9982919692993164,-7.44,-1.41,-1.79,7.78
1.9993770122528076,-7.76,-0.92,-2.71,8.27
2.0063672065734863,-5.47,0.11,-3.99,6.77
2.016345977783203,-0.21,0.86,-2.72,2.86
2.026344060897827,5.74,0.2,-0.15,5.74
2.036190986633301,7.67,-0.78,2.1,7.99
2.0462520122528076,4.58,-0.5,2.38,5.18
2.095623016357422,1.75,0.46,1.41,2.29
2.096238136291504,-0.21,-0.19,0.49,0.56
2.0968270301818848,-2.11,0.71,0.01,2.22
2.0979628562927246,-4.4,2.85,0.08,5.24
2.099073886871338,-7.2,1.89,-0.98,7.5
2.1061959266662598,-10.18,1.09,-3.39,10.78
2.1161580085754395,-6.24,4.72,-0.73,7.85
2.1262149810791016,-2.18,1.2,3.17,4.03
2.13604998588562,-1.69,-2.83,1.96,3.83
2.146143913269043,-2.45,-1.88,-1.37,3.37
2.1963679790496826,-2.68,-0.11,-1.75,3.2
2.1969680786132812,-2.81,0.69,-0.91,3.03
2.1975510120391846,-2.61,1.18,-0.77,2.96
2.198701858520508,-1.89,0.3,-0.16,1.92
2.1998469829559326,-1.31,-0.53,-0.11,1.41
2.206166982650757,-1.02,-0.37,-0.14,1.09
2.2160279750823975,-0.89,-0.15,0.07,0.9
2.2260141372680664,-0.81,0.11,0.06,0.81
2.2358551025390625,-0.52,0.18,-0.06,0.55
2.2459869384765625,-0.15,-0.07,0.02,0.16
2.2963080406188965,0.18,-0.03,-0.1,0.2
2.2969040870666504,0.22,0.13,-0.02,0.25
2.2974860668182373,0.17,-0.02,0.02,0.17
2.2986159324645996,0.16,-0.05,-0.31,0.35
2.2997169494628906,0.26,0.06,-0.68,0.73
2.305954933166504,0.45,0.07,-0.78,0.9
2.3159120082855225,0.65,0.06,-0.8,1.03
2.3259711265563965,0.72,0.13,-0.79,1.07
2.3359498977661133,0.6,0.2,-0.65,0.9
2.3459110260009766,0.45,0.31,-0.5,0.74
2.3968420028686523,0.5,0.34,-0.48,0.77
2.3974461555480957,0.61,0.21,-0.56,0.85
2.3980278968811035,0.75,0.07,-0.7,1.02
2.3991739749908447,0.9,0.05,-0.57,1.06
2.4003350734710693,0.83,-0.06,-0.22,0.86
2.405733108520508,0.57,0.02,-0.01,0.57
2.4157800674438477,0.2,-0.02,0.25,0.32
2.4258179664611816,0.12,-0.1,0.65,0.66
2.436005115509033,0.03,-0.13,0.47,0.48
2.4456369876861572,-0.26,-0.08,0.02,0.27
2.4963221549987793,-0.63,0.02,-0.2,0.66
2.4969120025634766,-0.64,0.07,-0.37,0.74
2.4974770545959473,-0.64,0.05,-0.51,0.81
2.4986071586608887,-0.58,0.07,-0.41,0.71
2.4997401237487793,-0.15,0.06,-0.23,0.28
2.5057480335235596,0.14,0.02,0.09,0.16
2.515716075897217,-0.06,-0.07,0.25,0.26
2.525629997253418,-0.4,-0.03,-0.02,0.4
2.5355191230773926,-0.73,0.05,-0.13,0.74
2.545614004135132,-1.04,0.02,-0.25,1.06
2.5966739654541016,-0.88,0.1,-0.32,0.94
2.5972681045532227,-0.18,0.05,-0.16,0.24
2.5978500843048096,0.57,0.08,-0.07,0.57
2.599001884460449,0.92,0.1,0.02,0.92
2.6001269817352295,0.93,0.07,0.34,0.99
2.6055421829223633,0.95,0.12,0.57,1.11
2.615422010421753,0.85,0.2,0.34,0.93
2.6254680156707764,0.94,0.33,-0.11,1.0
2.6354451179504395,1.49,0.37,-0.33,1.57
2.6454529762268066,2.1,0.33,-0.01,2.12
2.6972100734710693,2.47,0.34,-0.25,2.5
2.6978001594543457,2.64,0.43,-0.53,2.72
2.6983799934387207,2.75,0.44,-0.42,2.81
2.6995182037353516,2.78,0.57,-0.35,2.85
2.7009639739990234,2.5,0.84,-0.64,2.71
2.7053329944610596,2.26,0.95,-1.17,2.71
2.715402126312256,2.61,0.87,-1.01,2.93
2.7253150939941406,3.0,0.96,-0.96,3.29
2.7352938652038574,3.19,1.34,-1.43,3.74
2.745242118835449,2.69,1.82,-0.86,3.35
2.7963950634002686,1.3,3.28,-0.42,3.55
2.797002077102661,1.87,4.79,-0.37,5.15
2.7975900173187256,2.39,4.64,0.92,5.29
2.7987241744995117,2.98,4.32,1.07,5.35
2.7998509407043457,3.51,4.15,1.12,5.54
2.805227041244507,3.45,3.75,0.79,5.15
2.8151469230651855,3.76,3.81,0.52,5.37
2.8251471519470215,4.12,4.03,0.22,5.76
2.8351268768310547,4.12,4.33,-0.01,5.97
2.8451859951019287,3.79,4.07,-0.29,5.56
2.897104024887085,3.19,3.64,-0.64,4.88
2.897697925567627,2.58,3.4,-0.78,4.33
2.898284912109375,2.29,3.48,-0.95,4.27
2.8994698524475098,2.02,3.94,-1.41,4.64
2.900914192199707,1.5,4.35,-1.71,4.9
2.9052250385284424,0.8,3.86,-1.38,4.17
2.915091037750244,-0.45,4.62,-0.87,4.72
2.925063133239746,0.68,5.51,-3.34,6.47
2.934968948364258,3.71,3.86,-3.31,6.29
2.9449620246887207,5.33,2.3,-1.39,5.96
2.996304988861084,6.42,0.59,-0.61,6.47
2.9969050884246826,7.93,-0.51,-0.62,7.97
2.9974961280822754,4.53,-1.45,0.11,4.75
2.998648166656494,0.68,-1.29,-1.06,1.8
3.0001230239868164,3.52,-0.66,-3.25,4.83
3.0049359798431396,7.25,-0.17,-2.68,7.73
3.0148940086364746,9.23,-0.07,-1.27,9.31
3.024862051010132,9.32,-0.92,-0.2,9.36
3.0348758697509766,7.9,-1.99,0.65,8.17
3.0448830127716064,6.65,-2.59,0.81,7.18
3.0968360900878906,5.94,-2.79,0.66,6.59
3.097433090209961,5.38,-2.68,0.53,6.03
3.0980210304260254,5.06,-2.4,0.45,5.61
3.099215030670166,4.72,-2.13,0.61,5.21
3.1006698608398438,4.28,-1.91,0.76,4.74
3.104789972305298,3.68,-1.95,0.77,4.23
3.114811897277832,3.03,-1.92,0.73,3.66
3.124800205230713,2.58,-1.7,0.83,3.19
3.134765148162842,2.45,-1.45,1.05,3.03
3.144707202911377,2.55,-1.14,1.42,3.13
3.1969170570373535,2.64,-0.48,1.92,3.29
3.197512149810791,2.47,0.56,2.12,3.3
3.1981029510498047,1.76,1.78,1.62,2.98
3.199267864227295,0.36,2.77,0.42,2.82
3.2006988525390625,-0.93,3.61,-0.84,3.82
3.204619884490967,-2.09,4.65,-1.17,5.23
3.214655876159668,-3.34,5.14,-0.65,6.16
3.224637985229492,-4.19,4.95,-0.01,6.48
3.234621047973633,-4.68,4.53,0.03,6.51
3.244590997695923,-4.87,4.35,-0.41,6.54
3.297534942626953,-5.2,4.44,-0.91,6.89
3.298125982284546,-5.76,5.15,-1.76,7.92
3.298704147338867,-6.77,5.36,-2.61,9.02
3.3001890182495117,-7.12,6.14,-2.59,9.75
3.3013291358947754,-7.94,3.55,-2.03,8.93
3.3045201301574707,-10.37,-1.04,-1.51,10.53
3.3144919872283936,-10.63,-1.13,-0.98,10.73
3.3244810104370117,-10.72,0.2,-0.86,10.75
3.334397077560425,-9.91,0.28,-1.06,9.97
3.3443188667297363,-8.91,-0.02,-1.26,8.99
3.3979430198669434,-8.03,-0.4,-1.28,8.14
3.398545980453491,-7.74,-0.6,-1.32,7.87
3.399479866027832,-7.86,-0.6,-1.61,8.04
3.400592088699341,-7.54,-0.73,-1.64,7.75
3.4017109870910645,-7.81,0.61,-2.57,8.24
3.404162883758545,-2.1,3.01,-2.86,4.65
3.414217948913574,4.94,2.85,1.24,5.83
3.4243268966674805,4.95,2.09,2.02,5.74
3.4342410564422607,0.99,3.04,0.44,3.22
3.444262981414795,-2.44,4.55,0.06,5.16
3.4975790977478027,-3.88,5.16,-0.59,6.48
3.4981741905212402,-5.34,3.95,-1.54,6.81
3.4987668991088867,-7.18,0.95,-2.43,7.63
3.5002570152282715,-6.24,0.75,-2.11,6.62
3.5014162063598633,-4.34,0.84,0.81,4.49
3.504080057144165,-4.73,-1.28,1.62,5.16
3.514167070388794,-5.74,-1.98,0.21,6.07
3.524139881134033,-5.48,-0.86,-0.6,5.57
3.534095048904419,-4.5,0.18,-0.11,4.5
3.544074058532715,-3.46,0.67,0.24,3.53
3.5977799892425537,-2.53,0.64,0.46,2.64
3.5983810424804688,-1.81,0.3,0.57,1.92
3.5993170738220215,-1.21,0.15,0.48,1.31
3.6004860401153564,-0.66,0.07,0.2,0.69
3.6016249656677246,-0.16,-0.06,-0.24,0.29
3.6039319038391113,0.27,-0.09,-0.47,0.54
3.614048957824707,0.47,0.07,-0.69,0.83
3.6239938735961914,0.45,0.21,-1.05,1.16
3.633862018585205,0.32,0.26,-1.67,1.72
3.6439900398254395,0.18,0.21,-2.18,2.19
3.6982979774475098,0.02,0.05,-2.12,2.12
3.699213981628418,-0.14,-0.13,-1.81,1.82
3.699796199798584,-0.05,-0.18,-1.41,1.42
3.700927972793579,0.21,-0.3,-0.87,0.94
3.702022075653076,0.12,-0.3,-0.44,0.54
3.7039060592651367,0.05,-0.12,-0.22,0.25
3.713839054107666,0.03,-0.08,0.07,0.11
3.72397518157959,-0.12,-0.11,0.22,0.27
3.7338509559631348,-0.11,-0.06,0.13,0.18
3.7439260482788086,0.0,-0.04,0.02,0.04
3.7981839179992676,-0.03,-0.01,-0.12,0.12
3.799100875854492,0.02,0.18,-0.51,0.54
3.7996878623962402,0.29,0.36,-1.12,1.21
3.8008580207824707,0.84,0.09,-1.02,1.32
3.802001953125,1.51,-0.36,-0.49,1.62
3.8038220405578613,1.99,-0.57,-0.35,2.09
3.813742160797119,2.21,-0.51,-0.24,2.28
3.8237881660461426,2.05,-0.35,-0.31,2.1
3.833742141723633,1.68,-0.56,-0.17,1.77
3.843669891357422,1.49,-0.61,0.25,1.62
3.898071050643921,0.94,-0.22,0.26,0.99
3.8989760875701904,-0.66,0.23,0.32,0.76
3.8995590209960938,-2.55,1.02,0.62,2.81
3.9006950855255127,-3.7,1.34,0.96,4.05
3.9018149375915527,-2.52,0.37,1.22,2.82
3.9039499759674072,-0.38,-0.01,1.12,1.18
3.913527011871338,0.63,0.17,0.98,1.17
3.923656940460205,0.39,0.21,0.74,0.86
3.933583974838257,0.01,0.37,-0.24,0.44
3.9435548782348633,-0.14,0.38,-0.59,0.71
3.9535269737243652,-0.05,0.21,-0.43,0.48
3.9978220462799072,0.37,0.1,-0.32,0.49
3.998720169067383,0.95,0.26,-0.46,1.08
3.9998669624328613,1.35,0.37,-0.68,1.55
4.000996112823486,1.68,0.36,-0.83,1.9
4.003411054611206,2.13,0.27,-0.95,2.34
4.0132269859313965,2.66,0.06,-0.81,2.78
4.02347993850708,3.03,-0.04,-0.47,3.06
4.033570051193237,3.31,0.03,0.04,3.31
4.043577194213867,3.38,0.46,-0.05,3.41
4.053356170654297,3.12,0.93,-0.09,3.25
4.098150014877319,3.12,1.32,-0.07,3.38
4.099021911621094,3.28,1.64,-0.46,3.69
4.1001670360565186,3.41,2.0,-0.64,4.0
4.101294994354248,3.62,2.42,-0.39,4.37
4.103272914886475,3.61,2.75,0.3,4.54
4.113240003585815,3.59,3.35,1.12,5.03
4.123258113861084,4.03,4.02,0.52,5.71
4.133263111114502,6.64,4.63,-0.46,8.1
4.143309116363525,6.59,4.94,1.29,8.33
4.153255939483643,6.16,4.3,0.1,7.51
4.19758415222168,5.66,4.33,0.86,7.17
4.198493957519531,5.01,4.36,0.57,6.66
4.199636936187744,5.01,4.62,0.18,6.81
4.200745105743408,4.92,5.19,-0.12,7.15
4.203130006790161,4.48,5.09,-0.63,6.8
4.213036060333252,3.88,4.88,-0.61,6.26
4.2231831550598145,3.97,5.46,-0.93,6.81
4.233148097991943,4.31,6.62,-1.83,8.1
4.243159055709839,4.7,6.97,-2.88,8.88
4.253078937530518,2.8,7.21,-2.13,8.02
4.297550201416016,-1.55,8.54,-1.15,8.75
4.298459053039551,-1.8,7.49,-4.09,8.72
4.299617052078247,2.14,5.24,-3.95,6.9
4.300736904144287,5.18,3.61,-1.47,6.48
4.303001880645752,7.82,0.56,-0.34,7.84
4.313032150268555,8.93,-1.81,0.61,9.13
4.323092937469482,-0.76,-3.51,2.12,4.17
4.332983016967773,-5.79,-3.86,-1.55,7.12
4.343043088912964,-1.04,-1.57,-4.12,4.52
4.352910995483398,5.83,-0.56,-2.24,6.27
4.398984909057617,9.43,-1.3,-0.39,9.52
4.399580955505371,10.48,-2.23,0.63,10.73
4.4007391929626465,9.16,-3.26,1.31,9.81
4.401886940002441,7.16,-3.82,1.89,8.33
4.40275502204895,5.82,-4.1,2.21,7.45
4.412880897521973,5.24,-4.09,2.15,6.98
4.4228291511535645,5.19,-3.83,1.88,6.71
4.432811975479126,5.13,-3.44,1.57,6.37
4.442853927612305,4.9,-3.02,1.48,5.94
4.452836990356445,4.41,-2.91,1.51,5.49
4.498042106628418,3.73,-2.82,1.76,4.99
4.498821973800659,2.96,-2.61,2.12,4.47
4.499942064285278,2.36,-2.29,2.46,4.1
4.50105094909668,2.25,-1.49,2.99,4.02
4.50265908241272,2.48,-0.4,3.35,4.18
4.512729167938232,2.14,1.05,2.94,3.78
4.522745132446289,0.73,2.6,1.49,3.08
4.532687187194824,-1.0,3.54,-0.18,3.68
4.581272125244141,-2.21,4.3,-0.83,4.9
4.581865072250366,-3.05,5.5,-0.49,6.3
4.582450866699219,-3.85,6.28,-0.32,7.37
4.583032131195068,-4.57,6.18,-0.76,7.72
4.584197998046875,-5.16,5.77,-1.53,7.89
4.592655181884766,-6.12,5.67,-2.23,8.63
4.602527141571045,-7.41,5.47,-3.15,9.73
4.612529993057251,-8.85,5.08,-4.05,10.97
4.62253999710083,-10.03,4.12,-4.19,11.62
4.63240909576416,-9.56,5.28,-3.62,11.5
4.6824798583984375,-9.82,1.28,-2.88,10.31
4.683070182800293,-12.9,-3.05,-2.47,13.48
4.683650970458984,-12.92,-1.85,-2.66,13.32
4.6842360496521,-11.81,-0.78,-2.99,12.2
4.685364007949829,-10.51,-0.15,-3.36,11.03
4.692368030548096,-9.31,-0.63,-3.37,9.92
4.702316999435425,-9.14,-0.4,-3.33,9.73
4.712305068969727,-9.01,0.88,-4.0,9.89
4.7222900390625,-3.61,3.97,-3.83,6.59
4.732297897338867,3.62,4.89,0.95,6.15
4.782711029052734,4.61,2.8,1.92,5.72
4.783294200897217,0.3,2.53,0.53,2.6
4.783869028091431,-3.84,2.97,0.15,4.85
4.7844460010528564,-6.06,3.6,-1.03,7.12
4.785574913024902,-6.81,4.66,-2.01,8.49
4.792206048965454,-5.77,2.44,-0.93,6.33
4.8021440505981445,-3.93,-0.07,0.57,3.97
4.8121771812438965,-2.86,-1.0,0.85,3.14
4.822207927703857,-2.58,-0.51,0.39,2.65
4.832143068313599,-3.96,-1.15,-2.17,4.65
4.882844924926758,-3.59,0.36,-2.73,4.52
4.883432865142822,-2.47,2.1,-0.96,3.38
4.8840131759643555,-1.89,0.57,-0.08,1.97
4.884574890136719,-1.89,-0.34,-0.17,1.92
4.885699033737183,-1.84,-0.16,-0.25,1.86
4.892062187194824,-1.67,0.11,-0.27,1.69
4.902070045471191,-1.54,0.35,-0.11,1.58
4.912049055099487,-1.44,0.35,0.08,1.48
4.922019004821777,-1.37,0.22,0.26,1.41
4.93201208114624,-1.31,0.04,0.54,1.41
4.982882022857666,-1.1,-0.01,0.51,1.21
4.983476161956787,-0.71,-0.17,0.21,0.75
4.984055042266846,-0.34,-0.31,-0.14,0.48
4.984631061553955,0.13,-0.27,-0.66,0.72
4.985756874084473,0.53,-0.16,-1.02,1.16
4.991947174072266,0.64,0.0,-1.18,1.34
5.001902103424072,0.55,0.07,-1.18,1.3
5.011919021606445,0.36,-0.04,-1.19,1.24
5.021867990493774,0.2,-0.06,-1.25,1.26
5.031940937042236,0.19,-0.08,-1.3,1.31
5.083626985549927,0.3,-0.12,-1.26,1.3
5.08421516418457,0.31,-0.06,-1.12,1.16
5.084796905517578,0.19,0.15,-0.75,0.78
5.085376024246216,-0.06,0.25,-0.1,0.27
5.08652400970459,-0.32,0.11,0.57,0.66
5.091929912567139,-0.61,0.11,0.88,1.07
5.101868152618408,-0.64,0.04,0.85,1.06
5.111867904663086,-0.6,0.03,0.69,0.91
5.121914863586426,-0.42,0.11,0.37,0.57
5.131852149963379,-0.06,0.17,0.13,0.22
5.183321952819824,0.21,0.14,-0.03,0.25
5.1839141845703125,0.41,0.05,-0.19,0.45
5.18448805809021,0.6,0.07,-0.41,0.73
5.185067176818848,0.66,0.08,-0.71,0.97
5.1862101554870605,0.73,0.01,-0.94,1.19
5.191781997680664,0.89,-0.06,-0.87,1.24
5.201706886291504,0.73,-0.14,-0.53,0.91
5.211747169494629,0.48,-0.09,-0.24,0.54
5.221997976303101,0.13,-0.11,0.1,0.19
5.23168420791626,0.13,-0.13,0.35,0.39
5.283082962036133,0.06,-0.11,0.33,0.35
5.283670902252197,0.06,0.06,0.29,0.3
5.284214973449707,0.16,0.13,0.36,0.41
5.284791946411133,0.41,0.16,0.15,0.46
5.285912990570068,0.58,0.09,-0.12,0.59
5.2916600704193115,0.64,-0.05,-0.08,0.64
5.301576137542725,0.62,-0.13,-0.1,0.64
5.311590194702148,0.66,-0.16,-0.04,0.68
5.321542978286743,0.84,-0.17,0.1,0.86
5.331427097320557,0.97,-0.13,-0.13,0.98
5.382920980453491,0.91,-0.1,-0.07,0.91
5.383513927459717,0.98,0.05,-0.12,0.98
5.384087085723877,1.1,0.09,-0.1,1.1
5.384660005569458,1.12,0.0,-0.01,1.12
5.385810852050781,1.24,0.08,-0.02,1.24
5.391512870788574,1.36,0.12,0.09,1.36
5.401437997817993,1.66,0.23,-0.14,1.68
5.411459922790527,2.08,0.53,-0.13,2.15
5.421465873718262,2.12,0.66,-0.23,2.23
5.431384086608887,1.91,0.76,-0.43,2.1
5.482903003692627,1.69,0.81,-0.71,2.0
5.483489036560059,1.52,0.72,-0.77,1.84
5.484063148498535,1.45,0.84,-0.73,1.82
5.484633922576904,1.37,1.26,-1.12,2.17
5.485776901245117,1.35,1.72,-1.3,2.54
5.491357088088989,1.99,1.78,-0.87,2.8
5.501313209533691,2.51,2.29,-0.17,3.4
5.511276006698608,2.99,3.02,0.42,4.27
5.52128791809082,3.85,3.94,-0.03,5.5
5.531391143798828,6.45,6.24,-0.73,9.0
5.582740068435669,5.37,4.69,1.81,7.35
5.583331108093262,4.82,4.4,0.58,6.55
5.583904027938843,3.94,4.66,0.82,6.15
5.584473133087158,4.14,4.53,0.08,6.13
5.585608959197998,4.47,4.82,-0.18,6.57
5.591166973114014,4.42,5.68,-0.29,7.2
5.601142883300781,4.21,6.06,-0.58,7.4
5.6111369132995605,4.31,6.45,-1.01,7.82
5.621079921722412,4.74,7.5,-1.71,9.03
5.631231069564819,5.28,8.17,-2.67,10.08
5.682845115661621,5.52,7.78,-3.31,10.09
5.683448076248169,3.59,7.21,-2.33,8.38
5.684037208557129,-1.23,8.53,0.34,8.62
5.684628963470459,-3.73,6.64,-1.57,7.77
5.686150074005127,-0.78,4.04,-3.39,5.33
5.691058158874512,3.09,2.23,-2.04,4.32
5.701006889343262,6.61,0.14,-1.35,6.74
5.711026191711426,8.97,-0.83,-0.2,9.01
5.720927000045776,1.86,-2.6,1.48,3.52
5.730931997299194,-3.53,-3.61,-0.75,5.1
5.782932996749878,-0.91,-1.96,-3.41,4.03
5.78353214263916,4.66,-0.8,-2.21,5.21
5.784128189086914,8.06,-1.44,-0.17,8.18
5.784707069396973,9.28,-2.17,1.24,9.61
5.786203861236572,8.67,-2.71,2.14,9.33
5.7909321784973145,7.16,-3.15,2.66,8.26
5.800897121429443,6.01,-3.76,2.83,7.63
5.810911178588867,5.5,-3.99,2.55,7.25
5.820852994918823,5.37,-3.7,2.11,6.85
5.830815076828003,5.3,-3.24,1.76,6.45
5.883251190185547,5.03,-2.87,1.46,5.97
5.88385009765625,4.66,-2.59,1.24,5.47
5.884432077407837,4.39,-2.41,1.11,5.12
5.885005950927734,4.17,-2.29,1.16,4.89
5.886478900909424,3.76,-2.29,1.32,4.59
5.890812873840332,3.04,-2.12,1.4,3.96
5.900722980499268,2.4,-1.83,1.47,3.35
5.910754203796387,2.21,-1.5,1.8,3.22
5.920669078826904,1.85,-0.86,2.14,2.95
5.930708885192871,1.04,0.25,2.17,2.41
5.983368873596191,-0.23,1.58,1.6,2.26
5.983964920043945,-1.72,2.27,0.54,2.89
5.984549045562744,-2.41,3.01,-0.98,3.97
5.985152006149292,-2.37,4.42,-2.32,5.52
5.9866251945495605,-2.94,6.09,-2.3,7.14
5.990679979324341,-4.06,7.42,-1.7,8.62
6.000402927398682,-4.71,7.35,-1.47,8.85
6.010601043701172,-4.62,6.31,-1.78,8.02
6.020562171936035,-4.06,5.52,-2.38,7.25
6.030579090118408,-4.76,5.47,-3.3,7.96
6.083714008331299,-7.34,5.62,-4.08,10.1
6.084306001663208,-9.86,4.7,-4.7,11.89
6.084886074066162,-10.93,2.23,-4.83,12.15
6.085780143737793,-11.17,-0.31,-4.04,11.88
6.086930990219116,-11.22,-1.0,-3.31,11.74
6.090306997299194,-10.95,-1.68,-2.88,11.44
6.1004650592803955,-10.83,-2.47,-2.5,11.38
6.1103949546813965,-10.75,-2.73,-2.3,11.32
6.1204140186309814,-9.27,1.1,-2.4,9.63
6.130397081375122,-6.59,5.25,-2.42,8.76
6.183847904205322,-6.86,1.87,-2.07,7.4
6.184442043304443,-4.62,0.53,-0.61,4.69
6.185359954833984,5.63,1.38,3.81,6.93
6.1859400272369385,12.75,-0.11,10.18,16.31
6.1870951652526855,9.4,-1.27,6.96,11.76
6.190150022506714,0.63,-0.51,0.78,1.12
6.200394153594971,-6.28,0.03,-1.79,6.53
6.210330963134766,-6.85,1.56,-2.17,7.35
6.220273017883301,-6.09,5.73,-2.18,8.64
6.230102062225342,-6.05,7.66,-3.4,10.33
6.283905029296875,-5.67,4.94,-4.67,8.85
6.284494876861572,-6.86,1.36,-4.38,8.25
6.28539514541626,-4.54,0.66,-1.2,4.74
6.285973072052002,-3.18,-1.61,1.61,3.91
6.2871270179748535,-3.92,-3.2,0.1,5.06
6.289989948272705,-4.74,-2.85,-2.15,5.93
6.300032138824463,-3.94,-0.91,-1.89,4.46
6.3101279735565186,-2.89,0.61,-1.07,3.14
6.32005500793457,-2.15,0.64,-0.82,2.38
6.330039978027344,-1.55,0.07,-0.15,1.55
6.384450912475586,-0.96,0.01,0.64,1.15
6.3853559494018555,-0.25,0.26,1.04,1.1
6.385932922363281,0.24,0.45,1.34,1.43
6.386507987976074,0.04,0.35,1.45,1.49
6.387655019760132,-0.36,0.05,0.96,1.02
6.389852046966553,-0.69,-0.08,0.19,0.72
6.399911880493164,-0.99,-0.02,-0.21,1.01
6.410040855407715,-1.18,0.04,-0.48,1.27
6.419955015182495,-1.3,-0.04,-0.72,1.48
6.429965972900391,-1.33,-0.03,-0.92,1.61
6.48440408706665,-1.31,0.04,-0.96,1.62
6.485311031341553,-1.21,0.12,-0.77,1.43
6.485897064208984,-1.16,0.11,-0.65,1.33
6.486479997634888,-1.07,0.09,-0.58,1.22
6.487618923187256,-0.87,0.08,-0.39,0.95
6.489865064620972,-0.79,0.08,-0.17,0.81
6.499902009963989,-0.59,0.02,-0.16,0.61
6.509909152984619,-0.12,-0.03,-0.26,0.28
6.519804954528809,0.46,0.02,-0.38,0.59
6.529767036437988,0.61,-0.02,-0.48,0.77
6.583999156951904,0.6,-0.01,-0.76,0.96
6.584923028945923,0.45,-0.04,-0.66,0.79
6.585504055023193,0.23,0.06,-0.36,0.43
6.5860819816589355,-0.03,0.1,-0.27,0.28
6.587254047393799,-0.17,0.05,-0.4,0.43
6.590003967285156,-0.23,0.06,-0.32,0.39
6.599790096282959,-0.18,-0.01,0.06,0.19
6.609750032424927,-0.12,-0.13,0.22,0.28
6.619672060012817,0.2,-0.03,0.34,0.39
6.629715919494629,0.47,0.01,0.22,0.51
6.682930946350098,0.39,-0.04,-0.1,0.4
6.6847569942474365,-0.01,0.0,-0.36,0.36
6.685342073440552,-0.31,0.05,-0.38,0.49
6.6859259605407715,-0.26,0.08,-0.14,0.3
6.687139987945557,-0.31,0.03,-0.04,0.31
6.689579963684082,-0.66,0.14,-0.08,0.67
6.699594974517822,-0.88,0.32,-0.22,0.96
6.709532022476196,-0.67,0.31,-0.28,0.78
6.719557046890259,-0.33,0.24,-0.11,0.42
6.729508876800537,-0.04,0.21,0.15,0.26
6.739534854888916,0.26,0.18,0.28,0.42
6.783670902252197,0.61,0.1,0.42,0.74
6.784575939178467,0.94,0.1,0.67,1.15
6.785131931304932,1.27,0.21,0.8,1.51
6.786294937133789,1.6,0.27,0.52,1.7
6.789422988891602,1.8,0.34,0.15,1.83
6.799415111541748,2.09,0.4,-0.26,2.14
6.809574127197266,2.28,0.39,-0.78,2.44
6.8193559646606445,2.29,0.37,-0.9,2.48
6.829305171966553,2.34,0.59,-1.11,2.65
6.839365005493164,2.37,0.85,-1.28,2.82
6.883846998214722,2.42,0.9,-1.16,2.83
6.884836196899414,2.7,0.82,-0.9,2.96
6.885501861572266,3.07,0.63,-0.51,3.17
6.886720180511475,3.5,0.81,-0.37,3.61
6.889466047286987,3.48,1.67,-0.53,3.89
6.899255037307739,3.46,2.77,-0.24,4.43
6.909183025360107,4.23,3.79,-0.81,5.73
6.919151067733765,5.1,4.24,-0.88,6.69
6.929224014282227,4.34,3.81,-0.23,5.77
6.939009189605713,4.82,3.73,0.0,6.09
6.983457088470459,5.43,3.89,0.32,6.68
6.984374046325684,5.74,4.13,0.49,7.08
6.984960079193115,5.85,4.49,0.52,7.39
6.986109972000122,5.54,4.77,0.33,7.31
6.989047050476074,5.49,5.14,0.59,7.54
6.999070167541504,5.1,5.21,0.02,7.29
7.009165048599243,4.08,5.16,-0.62,6.6
7.0190160274505615,3.43,5.37,-0.93,6.43
7.0290398597717285,2.75,6.19,-1.42,6.92
7.039093017578125,1.58,7.09,-2.02,7.53
7.08346700668335,1.52,7.41,-2.68,8.02
7.084366083145142,1.51,7.56,-2.68,8.16
7.084913015365601,-0.7,8.41,-2.52,8.8
7.086075067520142,0.04,7.43,-4.19,8.53
7.088957071304321,2.91,5.1,-3.52,6.84
7.098976135253906,5.22,3.61,-1.53,6.52
7.109034061431885,7.78,1.57,-0.54,7.95
7.11899209022522,9.89,-1.39,0.11,9.98
7.128942012786865,3.33,-2.99,2.09,4.93
7.138854026794434,-3.66,-4.3,0.02,5.64
7.183829069137573,-2.8,-2.44,-3.34,4.99
7.184611082077026,3.68,-0.79,-2.62,4.58
7.185193061828613,8.09,-1.72,-0.56,8.28
7.186344146728516,9.54,-2.26,0.89,9.84
7.188819885253906,8.61,-2.83,1.56,9.19
7.198800086975098,6.65,-3.49,2.11,7.8
7.208824157714844,5.22,-4.22,2.57,7.18
7.218724012374878,4.82,-4.7,2.57,7.2
7.228801012039185,4.98,-4.41,2.1,6.97
7.2387518882751465,5.05,-3.94,1.56,6.59
7.283840179443359,4.81,-3.63,1.26,6.15
7.284625053405762,4.63,-3.33,1.09,5.8
7.285206079483032,4.58,-2.98,1.05,5.56
7.286344051361084,4.54,-2.44,0.94,5.23
7.288654088973999,4.31,-1.91,1.26,4.87
7.298707008361816,3.76,-1.5,1.94,4.48
7.308722019195557,3.33,-0.93,2.58,4.31
7.318669080734253,3.19,0.0,3.08,4.43
7.328656196594238,3.48,0.99,3.16,4.8
7.338621139526367,3.33,2.06,1.99,4.39
7.384212970733643,1.81,3.56,-0.13,3.99
7.384807109832764,-0.23,4.96,-1.69,5.24
7.385395050048828,-1.18,5.96,-2.24,6.47
7.3865509033203125,-1.24,7.04,-2.29,7.5
7.388485908508301,-1.69,8.01,-2.37,8.52
7.3984410762786865,-3.2,7.81,-2.85,8.9
7.408488988876343,-5.88,6.61,-3.47,9.5
7.418598175048828,-8.82,5.59,-4.26,11.27
7.428587913513184,-10.72,5.33,-4.98,12.96
7.4385130405426025,-11.57,4.68,-5.43,13.61
7.4847800731658936,-11.37,3.45,-5.5,13.09
7.485368013381958,-10.82,1.99,-4.69,11.95
7.4859490394592285,-10.73,0.6,-3.2,11.21
7.487089157104492,-11.11,-0.91,-2.64,11.45
7.489497184753418,-11.22,-2.09,-2.94,11.78
7.498456001281738,-10.22,-2.15,-3.13,10.9
7.508331060409546,-8.06,-1.9,-2.77,8.73
7.518377065658569,-6.15,0.84,-2.02,6.52
7.529458999633789,-4.35,5.1,-1.25,6.81
7.538377046585083,-4.13,2.46,-1.71,5.1
7.584484100341797,-5.74,0.79,-1.56,6.0
7.5850770473480225,-6.8,-0.51,-0.34,6.82
7.585664987564087,-2.77,0.63,0.66,2.91
7.586817979812622,6.89,2.0,4.35,8.39
7.588214874267578,11.54,0.76,7.18,13.61
7.598280906677246,5.44,-0.78,3.84,6.7
7.608159065246582,-4.01,-0.41,-0.95,4.14
7.61811900138855,-8.78,0.25,-2.87,9.24
7.628280162811279,-7.72,3.15,-3.47,9.03
7.638252019882202,-5.46,6.77,-2.99,9.19
7.684494972229004,-5.28,3.5,-4.04,7.51
7.68508505821228,-6.71,2.19,-3.93,8.07
7.6856689453125,-4.78,3.03,-0.96,5.74
7.686863899230957,-4.49,-1.57,1.24,4.91
7.688039064407349,-4.95,-2.93,0.61,5.78
7.6980791091918945,-4.59,-1.73,0.06,4.9
7.707934856414795,-3.66,-0.5,0.22,3.7
7.717859983444214,-3.51,0.36,0.3,3.54
7.728154182434082,-3.18,0.36,0.42,3.22
7.7380781173706055,-2.55,0.1,0.29,2.56
7.784739017486572,-1.7,-0.11,-0.19,1.71
7.785351991653442,-0.91,0.07,-0.78,1.2
7.785937070846558,-0.33,0.17,-0.02,0.37
7.78711199760437,-0.21,0.09,0.48,0.53
7.788286209106445,-0.06,0.04,-0.34,0.34
7.798030853271484,0.16,-0.12,-0.96,0.98
7.807877063751221,0.04,-0.05,-1.4,1.4
7.817864894866943,-0.06,0.24,-2.23,2.24
7.828011989593506,0.12,0.05,-2.3,2.3
7.837990045547485,0.09,-0.1,-1.88,1.88
7.88528299331665,-0.04,0.07,-1.1,1.1
7.885874032974243,0.07,0.14,-0.18,0.23
7.886455059051514,0.29,0.04,0.09,0.3
7.887639045715332,0.46,-0.05,-0.19,0.5
7.888761043548584,0.42,-0.08,-0.28,0.51
7.897850036621094,-0.02,-0.08,-0.17,0.18
7.907860994338989,-0.79,-0.02,-0.01,0.79
7.917840003967285,-1.38,0.02,0.11,1.38
7.927802085876465,-1.52,0.01,0.09,1.52
7.9379191398620605,-1.19,-0.09,-0.02,1.19
7.9846601486206055,-0.84,-0.08,0.0,0.84
7.985234022140503,-0.64,0.12,0.0,0.65
7.985785007476807,-0.35,0.14,-0.09,0.38
7.986922025680542,-0.21,0.04,-0.36,0.41
7.988067150115967,-0.23,0.01,-0.49,0.54
7.997736930847168,-0.25,-0.11,-0.32,0.42
8.007934093475342,-0.46,-0.09,-0.27,0.54
8.017721176147461,-0.42,0.04,-0.11,0.43
8.027661085128784,-0.04,0.08,0.21,0.22
8.037662029266357,0.08,0.06,0.52,0.52
8.08438491821289,-0.07,0.1,0.42,0.43
8.084980010986328,-0.13,0.01,0.07,0.14
8.08555793762207,0.11,-0.04,-0.07,0.13
8.086683988571167,0.35,-0.02,-0.09,0.36
8.087804079055786,0.3,0.04,-0.17,0.34
8.09753704071045,0.23,0.12,-0.12,0.28
8.107530117034912,0.17,0.1,0.04,0.2
8.11739206314087,0.11,0.05,0.05,0.13
8.127599000930786,0.16,0.01,0.28,0.32
8.137482166290283,0.3,-0.02,0.58,0.65
8.186060905456543,0.31,0.09,0.57,0.65
8.186635971069336,0.16,0.24,0.79,0.84
8.187222957611084,0.0,0.38,0.6,0.71
8.188319206237793,0.07,0.38,0.07,0.39
8.189373016357422,0.67,0.28,-0.09,0.73
8.197396993637085,1.6,0.3,-0.27,1.65
8.207347869873047,2.25,0.39,-0.5,2.33
8.217274188995361,2.42,0.53,-0.78,2.59
8.227396965026855,2.41,0.58,-1.17,2.74
8.237310886383057,2.69,0.56,-1.63,3.19
8.28580617904663,2.94,0.23,-0.86,3.07
8.286400079727173,2.83,0.32,-0.87,2.97
8.28701114654541,2.6,0.71,-1.17,2.93
8.288134098052979,2.48,0.85,-0.75,2.72
8.289233207702637,2.57,1.01,-0.28,2.77
8.297255992889404,2.93,1.33,0.35,3.23
8.307135105133057,3.04,2.06,0.57,3.71
8.317167043685913,2.61,3.06,0.01,4.02
8.327215194702148,3.43,4.72,-0.8,5.88
8.337158203125,3.19,4.25,0.78,5.37
8.38610315322876,3.12,3.65,0.12,4.8
8.386698007583618,3.65,3.58,0.53,5.14
8.387271881103516,3.77,3.06,0.24,4.86
8.38841199874878,3.96,3.02,0.11,4.98
8.389530181884766,4.33,3.51,-0.13,5.57
8.396939039230347,4.94,4.01,-0.25,6.36
8.406913042068481,5.62,4.5,-0.46,7.21
8.416943073272705,5.96,4.77,-0.39,7.64
8.426967144012451,6.0,4.71,-0.13,7.62
8.437096118927002,5.28,4.57,-0.3,6.98
8.486943006515503,4.01,4.54,-0.6,6.08
8.487566947937012,2.68,4.66,-1.04,5.47
8.488169193267822,2.22,5.48,-1.33,6.06
8.489403009414673,2.27,6.4,-1.6,6.97
8.490599155426025,1.5,6.94,-1.53,7.26
8.496854066848755,0.04,6.98,-1.53,7.14
8.506983995437622,0.46,8.27,-3.56,9.01
8.516952991485596,2.21,7.0,-3.79,8.26
8.526923179626465,4.79,5.3,-2.54,7.58
8.536843061447144,7.12,2.94,-1.75,7.89
8.586213111877441,9.93,0.47,-1.12,10.0
8.586813926696777,7.28,-2.26,0.55,7.64
8.58739709854126,-1.99,-2.81,-0.17,3.44
8.588571071624756,-1.15,0.26,-4.66,4.8
8.58969497680664,6.26,0.8,-3.94,7.43
8.596710205078125,10.63,-0.39,-1.71,10.77
8.60672402381897,12.07,-1.09,-0.09,12.11
8.616708040237427,10.9,-1.76,0.92,11.07
8.626638889312744,7.94,-2.49,1.28,8.41
8.636701107025146,5.31,-3.16,1.69,6.4
8.68647289276123,3.78,-3.27,1.77,5.3
8.687064170837402,3.32,-3.05,1.6,4.78
8.687638998031616,3.4,-2.93,1.44,4.71
8.688812017440796,3.5,-2.97,1.22,4.74
8.689953088760376,3.66,-3.0,1.02,4.84
8.696551084518433,3.86,-2.72,0.99,4.82
8.70651912689209,4.17,-2.4,1.5,5.03
8.716539859771729,4.19,-2.1,2.36,5.24
8.72658109664917,3.97,-1.54,3.11,5.27
8.736526012420654,4.08,-0.8,3.38,5.35
8.786267042160034,4.12,0.32,3.28,5.27
8.786859035491943,3.12,1.91,2.71,4.55
8.78743314743042,0.97,3.27,1.33,3.66
8.788628101348877,-1.06,4.2,-0.21,4.33
8.789793968200684,-2.1,5.66,-1.23,6.16
8.796392917633057,-2.66,7.87,-1.75,8.48
8.80637502670288,-3.67,9.68,-2.5,10.64
8.816370964050293,-5.75,9.86,-3.83,12.03
8.826372146606445,-8.37,8.79,-4.72,13.02
8.836392879486084,-10.08,7.49,-5.24,13.6
8.886955976486206,-11.03,5.98,-5.5,13.69
8.887547016143799,-11.08,4.4,-5.11,12.97
8.888125896453857,-10.57,2.94,-4.16,11.73
8.889256000518799,-10.71,1.26,-2.77,11.13
8.890359878540039,-11.25,-0.83,-1.51,11.38
8.896249055862427,-11.34,-1.93,-1.25,11.57
8.906282901763916,-10.58,-2.29,-1.62,10.94
8.916224956512451,-9.07,-2.05,-1.99,9.5
8.926277160644531,-7.17,-1.32,-1.95,7.54
8.936205863952637,-6.0,-0.39,-1.72,6.25
8.985680103302002,-6.27,-0.54,-1.61,6.49
8.986271858215332,-6.1,2.51,-1.49,6.76
8.986849069595337,-3.72,8.97,-1.17,9.78
8.987975120544434,-5.26,2.35,-1.72,6.01
8.989075183868408,2.1,-2.55,-1.17,3.5
8.996160984039307,11.17,-0.49,8.36,13.96
9.006134986877441,8.29,1.99,8.82,12.26
9.016133069992065,-1.93,2.44,-0.17,3.11
9.026083946228027,-9.94,2.16,-3.1,10.63
9.0360689163208,-8.86,1.8,-1.51,9.16
9.086530208587646,-5.83,3.44,-0.87,6.82
9.087116003036499,-4.3,6.46,-0.57,7.78
9.087691068649292,-4.63,5.25,-0.3,7.0
9.08881402015686,-6.07,2.17,-0.43,6.46
9.089919090270996,-7.65,1.12,-3.14,8.34
9.095967054367065,-8.44,0.66,-3.93,9.33
9.105998992919922,-6.74,1.95,-1.64,7.2
9.115971088409424,-4.96,-0.31,0.1,4.97
9.125917911529541,-4.25,-0.98,0.13,4.36
9.13594388961792,-3.62,-0.25,-0.42,3.65
9.186537027359009,-2.8,-0.02,0.16,2.8
9.18712306022644,-1.73,0.02,0.48,1.79
9.18769907951355,-0.99,-0.04,0.28,1.02
9.188857078552246,-0.77,0.04,0.08,0.77
9.18999719619751,-0.51,0.05,0.4,0.65
9.19814395904541,-0.19,-0.03,0.63,0.65
9.205892086029053,-0.05,-0.07,0.21,0.22
9.215889930725098,-0.4,0.04,-0.36,0.53
9.225893020629883,-0.61,0.07,-0.94,1.12
9.235846042633057,-0.61,-0.05,-1.45,1.57
9.28656816482544,-0.56,-0.23,-1.62,1.72
9.287158012390137,-0.71,-0.24,-1.74,1.89
9.287735939025879,-0.76,-0.07,-1.66,1.82
9.288899898529053,-0.6,-0.06,-1.32,1.45
9.290045976638794,-0.29,-0.1,-1.06,1.1
9.295763969421387,-0.05,-0.01,-0.95,0.95
9.305742025375366,0.31,0.0,-0.66,0.72
9.315746068954468,0.75,-0.12,-0.35,0.83
9.325587034225464,0.83,-0.21,-0.24,0.88
9.335669040679932,0.72,-0.29,-0.28,0.82
9.386430978775024,0.59,-0.38,-0.49,0.85
9.387022018432617,0.23,-0.37,-0.84,0.94
9.387601852416992,-0.23,-0.07,-0.96,0.98
9.388766050338745,-0.45,0.14,-0.74,0.87
9.389915943145752,-0.75,0.22,-0.3,0.83
9.395652055740356,-1.27,0.35,0.1,1.32
9.405601024627686,-1.24,0.56,0.23,1.37
9.41563892364502,-0.66,0.38,0.2,0.78
9.425615072250366,-0.12,0.03,-0.14,0.18
9.435556888580322,0.29,-0.06,-0.45,0.53
9.486505031585693,0.58,-0.12,-0.53,0.79
9.487092971801758,0.78,-0.08,-0.4,0.88
9.48766803741455,0.8,0.02,-0.27,0.84
9.488851070404053,0.62,-0.16,-0.08,0.64
9.490012168884277,0.25,-0.29,-0.16,0.41
9.495491027832031,-0.07,-0.12,-0.46,0.48
9.505500078201294,-0.27,0.06,-0.47,0.54
9.51571798324585,-0.43,0.06,-0.19,0.47
9.525459051132202,-0.46,0.12,0.01,0.47
9.535413026809692,-0.24,0.22,0.09,0.33
9.586466073989868,0.29,0.09,0.14,0.33
9.58703899383545,0.95,-0.11,0.19,0.97
9.587615966796875,1.33,-0.28,0.15,1.36
9.588734149932861,1.45,-0.26,0.1,1.47
9.589858055114746,1.51,-0.25,0.15,1.53
9.595280170440674,1.43,-0.34,0.58,1.58
9.605245113372803,1.31,-0.29,0.7,1.51
9.615202903747559,1.08,-0.14,0.55,1.22
9.625195980072021,0.48,0.23,0.28,0.6
9.635231018066406,0.2,0.53,-0.02,0.56
9.686514854431152,0.7,0.41,0.27,0.85
9.687099933624268,1.19,0.44,0.42,1.33
9.687672138214111,1.74,0.42,-0.34,1.82
9.688853979110718,2.14,0.17,-0.6,2.22
9.690028190612793,2.66,0.18,0.09,2.66
9.69527006149292,3.46,0.38,0.34,3.49
9.705175876617432,4.13,0.51,-0.33,4.17
9.715233087539673,3.97,0.59,-1.09,4.15
9.725147008895874,3.55,0.72,-0.86,3.72
9.735148906707764,3.82,0.94,-0.96,4.04
9.787316083908081,4.14,1.25,-1.36,4.53
9.787917137145996,4.43,1.56,-1.49,4.92
9.788501024246216,4.51,2.31,-1.28,5.22
9.789643049240112,4.48,3.37,-0.64,5.64
9.791078090667725,4.5,4.3,1.43,6.38
9.795212030410767,4.43,5.95,1.22,7.51
9.805131912231445,6.31,7.75,-0.49,10.0
9.815101146697998,4.23,5.66,2.69,7.56
9.825051069259644,3.64,5.31,0.74,6.48
9.835093975067139,3.89,5.6,0.53,6.83
9.886990070343018,3.96,5.26,-0.08,6.58
9.887589931488037,4.04,5.58,-0.59,6.91
9.888166904449463,3.93,5.75,-1.28,7.08
9.889292001724243,4.0,5.81,-1.9,7.3
9.890767097473145,4.67,6.65,-2.23,8.42
9.894880056381226,5.2,7.24,-2.97,9.39
9.904953956604004,5.38,6.44,-3.2,8.98
9.914977073669434,2.36,7.42,-1.38,7.9
9.924911975860596,-2.67,9.17,-0.44,9.56
9.934879064559937,-2.49,6.08,-4.16,7.77
9.987086057662964,1.93,3.74,-3.91,5.74
9.98767900466919,6.01,2.12,-2.39,6.8
9.988264083862305,10.41,-0.02,-1.59,10.53
9.989441871643066,6.81,-1.37,1.15,7.04
9.9909029006958,-3.18,-3.66,0.12,4.84
9.994916915893555,-3.52,-2.85,-4.41,6.32
10.004812002182007,2.93,-0.6,-3.86,4.88
10.014814853668213,8.4,-1.35,-1.18,8.58
10.024735927581787,10.65,-2.45,0.51,10.94
10.034756183624268,10.32,-3.32,1.24,10.91
10.087233066558838,8.42,-3.9,1.52,9.4
10.087817192077637,6.55,-4.94,1.8,8.39
10.088391065597534,5.72,-5.7,1.81,8.27
10.089863061904907,5.95,-5.41,1.61,8.2
10.090968132019043,6.16,-4.69,1.39,7.86
10.09467601776123,6.05,-4.3,1.05,7.49
10.104655027389526,5.72,-4.18,0.84,7.13
10.1146879196167,5.41,-3.93,0.92,6.74
10.124538898468018,5.02,-3.46,1.16,6.2
10.134570121765137,4.59,-3.0,1.43,5.66
10.187234878540039,4.27,-2.52,1.8,5.27
10.187819957733154,4.29,-1.95,2.18,5.19
10.188395023345947,4.66,-1.0,2.77,5.51
10.189834117889404,4.25,0.76,3.41,5.5
10.190986156463623,2.14,2.94,2.75,4.55
10.194727897644043,-0.46,4.82,0.12,4.84
10.204585075378418,-1.78,6.44,-2.79,7.24
10.214627981185913,-2.06,8.59,-4.08,9.73
10.224821090698242,-3.27,11.07,-3.86,12.17
10.234708070755005,-6.18,11.9,-4.21,14.05
10.287630081176758,-9.14,10.15,-5.39,14.68
10.288226127624512,-10.0,7.59,-4.62,13.37
10.288827896118164,-9.86,5.8,-4.04,12.13
10.290277004241943,-9.59,4.91,-4.68,11.74
10.291380882263184,-9.29,3.41,-4.58,10.9
10.294219970703125,-10.17,1.34,-2.98,10.68
10.304301977157593,-11.54,-0.65,-1.3,11.63
10.314413070678711,-12.47,-2.49,-0.82,12.74
10.324366092681885,-11.85,-3.15,-0.95,12.29
10.334311962127686,-9.82,-1.64,-1.19,10.02
10.387781143188477,-8.23,-0.13,-1.65,8.39
10.388383865356445,-7.69,0.19,-1.98,7.94
10.389304161071777,-7.16,3.58,-1.97,8.24
10.390452861785889,-5.62,8.7,-1.48,10.46
10.391563892364502,-7.85,3.17,-3.81,9.28
10.394062995910645,-1.09,-0.99,-2.58,2.97
10.404169082641602,10.49,-0.63,5.25,11.74
10.41425108909607,11.39,0.04,8.39,14.14
10.424230098724365,4.0,0.87,4.15,5.82
10.434193134307861,-5.11,0.63,0.24,5.15
10.48956298828125,-9.56,-0.8,-1.0,9.64
10.490469932556152,-8.66,2.3,-2.1,9.2
10.49104905128479,-6.58,8.75,-2.63,11.25
10.49217700958252,-7.14,5.9,-4.57,10.32
10.493275165557861,-8.98,2.96,-4.14,10.32
10.494237899780273,-5.68,4.13,-0.36,7.03
10.504083156585693,-4.76,-1.13,1.96,5.27
10.514051914215088,-5.35,-4.24,0.73,6.86
10.523980140686035,-5.56,-2.52,-0.55,6.12
10.534221172332764,-4.49,-0.52,-0.36,4.53
10.592010974884033,-3.41,0.29,0.14,3.42
10.592598915100098,-2.3,0.39,0.04,2.33
10.593175888061523,-1.15,0.06,-0.29,1.18
10.594686031341553,-0.18,0.11,-0.57,0.6
10.595870018005371,0.33,0.36,-1.02,1.13
10.59645414352417,0.38,0.22,-1.11,1.19
10.603960037231445,0.04,-0.16,-0.73,0.74
10.614009857177734,-0.23,-0.11,-0.38,0.45
10.623916149139404,-0.62,0.08,-0.15,0.64
10.633897066116333,-0.8,0.09,-0.24,0.84
10.691986083984375,-0.67,-0.05,-0.65,0.93
10.692583084106445,-0.51,-0.01,-1.2,1.3
10.693166017532349,-0.63,0.1,-1.42,1.55
10.6947021484375,-0.92,0.18,-1.14,1.47
10.695839881896973,-1.2,0.11,-0.58,1.33
10.6964430809021,-1.08,-0.01,0.02,1.08
10.703731060028076,-0.9,-0.1,0.31,0.95
10.713746070861816,-0.83,-0.07,0.24,0.86
10.723703861236572,-0.64,-0.02,0.12,0.65
10.733747959136963,-0.4,0.08,-0.06,0.41
10.74375295639038,-0.16,-0.01,-0.22,0.27
10.792695045471191,-0.03,0.02,-0.34,0.34
10.793308019638062,0.06,0.06,-0.35,0.36
10.794792175292969,0.08,0.1,-0.29,0.31
10.79593801498413,0.05,0.15,-0.32,0.35
10.796500205993652,0.05,0.16,-0.39,0.42
10.803606986999512,0.14,0.17,-0.57,0.61
10.81370496749878,0.25,0.11,-0.87,0.91
10.823613166809082,0.34,-0.09,-0.63,0.72
10.833725929260254,0.35,-0.13,-0.03,0.37
10.843555927276611,0.35,-0.05,0.31,0.47
10.89174199104309,0.41,0.02,0.51,0.65
10.892313957214355,0.51,-0.05,0.41,0.65
10.89345908164978,0.53,-0.19,0.54,0.78
10.894906997680664,0.53,-0.19,0.82,0.99
10.89542007446289,0.59,0.08,0.44,0.74
10.903385162353516,0.44,0.35,0.05,0.56
10.913494110107422,0.43,0.38,0.18,0.6
10.923387050628662,0.62,0.21,-0.3,0.72
10.933408975601196,0.03,0.05,-1.14,1.14
10.943392038345337,0.07,0.25,-0.15,0.29
10.990897178649902,0.95,0.31,0.43,1.08
10.991495132446289,0.85,0.04,0.14,0.86
10.992632865905762,0.94,0.23,0.04,0.96
10.993785858154297,1.65,0.33,-0.51,1.75
10.994731903076172,1.9,0.09,-0.8,2.06
11.003335952758789,1.87,-0.03,-0.81,2.03
11.013346195220947,2.01,-0.07,-0.64,2.11
11.023321151733398,2.22,0.0,-0.58,2.29
11.0333251953125,2.42,0.08,-0.6,2.49
11.043352127075195,2.9,0.23,-0.48,2.94
11.091371059417725,3.3,0.57,-0.11,3.35
11.091969966888428,3.4,0.77,-0.13,3.48
11.093132972717285,3.48,0.89,-0.21,3.59
11.094629049301147,3.57,1.18,-0.66,3.81
11.095211029052734,3.97,1.6,-1.0,4.39
11.103250980377197,4.44,1.94,-0.78,4.9
11.113107204437256,4.23,2.7,-0.25,5.02
11.123249053955078,3.63,3.97,1.14,5.49
11.133161067962646,3.75,5.95,-0.65,7.06
11.143153190612793,3.62,5.64,0.57,6.72
11.192126989364624,2.73,4.95,0.9,5.72
11.192739009857178,2.99,4.8,0.83,5.71
11.193879127502441,2.88,4.87,0.83,5.71
11.195294857025146,3.2,5.02,0.58,5.98
11.195894002914429,3.55,5.28,0.05,6.36
11.203086853027344,3.41,5.61,-0.52,6.58
11.213037967681885,3.45,5.67,-1.02,6.71
11.223060131072998,3.71,5.34,-1.52,6.67
11.233014106750488,4.43,5.53,-2.09,7.38
11.243005990982056,5.47,6.22,-2.81,8.74
11.292407989501953,5.9,6.28,-3.45,9.28
11.293023109436035,3.45,7.9,-1.5,8.75
11.294169902801514,-1.32,9.56,-1.19,9.72
11.295683860778809,-1.11,5.62,-5.19,7.72
11.296268939971924,3.12,4.06,-4.57,6.86
11.302999019622803,7.02,2.85,-2.48,7.97
11.312934875488281,10.6,0.45,-1.45,10.7
11.322893142700195,7.36,-1.05,0.41,7.44
11.375294208526611,-2.24,-2.33,0.44,3.26
11.37588906288147,-2.78,-2.5,-3.75,5.29
11.376466989517212,2.89,-0.76,-4.07,5.04
11.37704086303711,8.21,-0.94,-1.38,8.37
11.378868103027344,10.76,-1.62,0.63,10.89
11.382829189300537,10.8,-2.49,1.59,11.19
11.392736911773682,8.83,-3.83,1.85,9.8
11.402751922607422,6.78,-5.02,2.14,8.7
11.412867069244385,5.79,-5.12,1.99,7.98
11.422767162322998,5.68,-4.17,1.45,7.19
11.475406169891357,5.66,-3.39,0.98,6.66
11.47600507736206,5.36,-3.14,0.59,6.23
11.476591110229492,4.86,-2.85,0.31,5.64
11.477192878723145,4.38,-2.41,0.24,5.0
11.478979110717773,3.96,-2.07,0.38,4.48
11.482701063156128,3.49,-1.73,0.63,3.94
11.492570877075195,2.81,-1.35,0.87,3.23
11.502631187438965,2.22,-0.97,1.13,2.67
11.5126371383667,1.9,-0.57,1.4,2.42
11.522622108459473,2.03,-0.15,1.86,2.75
11.574862957000732,2.3,0.39,2.25,3.24
11.575452089309692,1.68,1.82,1.96,3.15
11.576030015945435,0.13,3.26,0.77,3.35
11.576606035232544,-1.34,4.2,-0.76,4.47
11.578453063964844,-2.14,5.27,-1.78,5.95
11.582547187805176,-2.78,6.73,-2.17,7.59
11.592514991760254,-3.83,8.19,-2.13,9.28
11.60251498222351,-6.07,9.06,-2.29,11.14
11.612396001815796,-8.78,8.56,-2.85,12.58
11.622479915618896,-10.59,6.8,-3.19,12.98
11.675711154937744,-11.9,5.2,-3.64,13.48
11.676308155059814,-12.35,3.66,-4.19,13.54
11.676936149597168,-11.92,1.61,-3.46,12.51
11.67785906791687,-11.38,-0.22,-2.02,11.55
11.679350852966309,-10.91,-0.96,-1.23,11.02
11.682389974594116,-10.85,-1.69,-0.91,11.01
11.692339897155762,-10.54,-2.37,-0.92,10.84
11.702324867248535,-9.42,-2.46,-0.68,9.75
11.712179183959961,-7.98,-1.83,-0.41,8.19
11.72226095199585,-5.75,5.54,-0.62,8.0
11.775093078613281,-5.28,8.08,-1.42,9.75
11.775686025619507,-7.79,0.09,-4.23,8.86
11.776267051696777,0.66,-1.77,-3.68,4.13
11.776851177215576,10.53,0.13,4.27,11.36
11.778778076171875,9.87,1.44,5.91,11.59
11.782269954681396,1.12,1.29,0.35,1.74
11.79222297668457,-8.03,0.87,-2.78,8.54
11.8021821975708,-8.82,2.08,-3.28,9.63
11.812023162841797,-5.35,6.14,-2.36,8.47
11.822235107421875,-3.65,8.4,-1.46,9.27
11.874939918518066,-4.79,4.08,-1.8,6.54
11.875529050827026,-6.69,-0.73,-3.16,7.43
11.87611699104309,-4.87,0.3,-1.87,5.22
11.876721858978271,-3.61,-0.07,0.27,3.62
11.878162860870361,-4.05,-2.14,0.46,4.6
11.88208818435669,-3.99,-2.85,-0.33,4.91
11.892054080963135,-3.33,-1.62,-0.76,3.78
11.902045011520386,-2.76,-0.08,-1.08,2.96
11.912095069885254,-2.35,0.35,-0.84,2.52
11.922057151794434,-1.89,0.22,-0.13,1.9
11.975523948669434,-1.45,0.3,-0.13,1.48
11.976080894470215,-1.09,0.38,0.21,1.17
11.976999044418335,-0.72,0.51,0.76,1.16
11.977581024169922,-0.39,0.41,0.63,0.84
11.97906494140625,-0.2,0.02,0.33,0.38
11.98197603225708,0.03,-0.28,-0.05,0.28
11.991904020309448,0.11,-0.21,-0.41,0.47
12.001939058303833,0.15,-0.02,-0.81,0.82
12.012202978134155,0.13,0.16,-0.82,0.84
12.021903991699219,-0.07,0.2,-0.95,0.97
12.075354099273682,-0.75,0.09,-1.13,1.35
12.075953960418701,-1.11,0.01,-0.98,1.48
12.076868057250977,-0.88,0.09,-0.66,1.1
12.077460050582886,-0.49,0.11,-0.53,0.73
12.079016208648682,-0.43,0.06,-0.47,0.63
12.081866025924683,-0.62,-0.03,-0.24,0.66
12.091730117797852,-0.97,-0.16,0.12,0.99
12.101744174957275,-1.01,-0.2,0.32,1.07
12.11172103881836,-0.71,-0.12,0.29,0.77
12.121755123138428,-0.79,-0.02,-0.1,0.79
12.17583417892456,-1.11,0.01,-0.19,1.12
12.176748991012573,-1.26,0.01,-0.12,1.26
12.1773099899292,-1.04,-0.04,-0.05,1.04
12.177890062332153,-0.71,-0.02,0.06,0.71
12.179379940032959,-0.54,0.01,-0.07,0.54
12.181695938110352,-0.2,0.06,-0.34,0.39
12.191457033157349,0.15,0.05,-0.32,0.35
12.201662063598633,0.33,0.2,-0.16,0.41
12.2116219997406,0.35,0.16,0.24,0.45
12.221646070480347,0.32,-0.05,0.2,0.38
12.275990962982178,0.16,-0.1,-0.07,0.2
12.276913166046143,0.1,-0.05,-0.03,0.11
12.277470111846924,0.2,-0.03,-0.03,0.2
12.27800703048706,0.33,0.05,0.08,0.34
12.2794508934021,0.33,0.13,0.39,0.52
12.281535148620605,-0.01,0.27,0.51,0.57
12.291531085968018,-0.42,0.41,0.53,0.79
12.301432132720947,-0.42,0.35,0.35,0.64
12.311429023742676,-0.23,0.36,-0.03,0.42
12.321495056152344,0.09,0.47,-0.48,0.67
12.378069877624512,0.07,0.42,-0.53,0.67
12.378705024719238,-0.03,0.41,-0.45,0.6
12.379644870758057,0.09,0.43,-0.64,0.77
12.380277156829834,0.57,0.31,-0.77,1.0
12.381432056427002,1.33,0.3,-0.72,1.54
12.382596969604492,2.04,0.33,-0.99,2.29
12.39139199256897,2.47,0.22,-1.29,2.79
12.401350975036621,2.55,0.07,-1.06,2.76
12.411320209503174,2.56,0.27,-0.87,2.71
12.421318054199219,2.68,0.63,-0.64,2.82
12.476580142974854,2.99,0.83,-0.47,3.13
12.477373123168945,3.28,0.99,-0.39,3.44
12.477950096130371,3.4,1.3,-0.43,3.66
12.478540897369385,3.06,1.95,-0.12,3.63
12.48000192642212,3.23,2.78,-0.16,4.26
12.481143951416016,4.33,3.88,-0.9,5.88
12.491160869598389,4.37,4.65,0.03,6.38
12.50127100944519,4.18,4.21,0.1,5.93
12.51117992401123,5.09,3.95,0.25,6.44
12.521170139312744,5.6,3.77,0.18,6.75
12.57560920715332,6.17,3.67,-0.13,7.18
12.576523065567017,6.66,3.87,-0.18,7.7
12.577102184295654,6.71,4.22,-0.32,7.93
12.577676057815552,6.62,4.59,-0.35,8.06
12.57885217666626,6.07,4.89,-0.45,7.8
12.581099033355713,5.21,4.83,-0.37,7.11
12.59116506576538,4.1,4.65,-0.91,6.26
12.601107120513916,3.09,4.67,-1.7,5.85
12.611047983169556,2.25,5.0,-2.35,5.96
12.621190071105957,1.92,6.16,-2.83,7.04
12.675588130950928,2.21,8.05,-2.38,8.68
12.676500082015991,0.26,10.44,-2.04,10.64
12.677075862884521,0.1,8.16,-5.35,9.75
12.677648067474365,3.49,6.0,-5.64,8.94
12.678819179534912,6.5,4.31,-2.91,8.32
12.680830955505371,9.6,1.9,-0.79,9.81
12.690922975540161,11.02,-0.31,0.24,11.02
12.700927972793579,1.87,-1.3,1.73,2.86
12.710844993591309,-3.92,-2.3,-0.8,4.61
12.720875024795532,-0.91,-1.0,-4.22,4.43
12.775951862335205,5.58,-0.53,-3.07,6.39
12.776741027832031,9.85,-1.28,-0.77,9.96
12.77731704711914,11.79,-1.99,0.69,11.97
12.77790117263794,11.08,-2.75,1.59,11.52
12.779076099395752,8.58,-3.27,2.18,9.43
12.780822992324829,6.2,-3.9,2.31,7.68
12.790742874145508,4.98,-4.25,2.09,6.87
12.800768852233887,4.89,-3.84,1.71,6.44
12.810741901397705,5.19,-3.34,1.34,6.31
12.820738077163696,5.28,-2.94,1.08,6.13
12.876284122467041,5.16,-2.56,0.86,5.82
12.87706208229065,4.76,-2.12,0.83,5.27
12.877634048461914,4.06,-1.83,0.92,4.54
12.878206014633179,3.14,-1.64,1.14,3.72
12.879327058792114,2.35,-1.49,1.45,3.13
12.88083791732788,2.0,-1.25,1.86,3.0
12.89063310623169,2.11,-0.8,2.29,3.21
12.900614976882935,2.02,0.55,2.34,3.13
12.910557985305786,0.88,2.31,1.33,2.8
12.920623064041138,-0.83,3.58,-0.54,3.71
12.976577043533325,-2.1,4.9,-2.12,5.73
12.977171897888184,-3.09,7.0,-2.95,8.2
12.97774887084961,-4.63,8.96,-3.55,10.69
12.978323936462402,-7.06,9.38,-4.25,12.48
12.979825019836426,-9.21,8.0,-4.42,12.97
12.980955123901367,-9.51,5.75,-3.91,11.78
12.990458011627197,-8.98,4.36,-4.12,10.79
13.000492095947266,-8.66,4.18,-4.69,10.69
13.010442018508911,-8.4,3.8,-4.21,10.13
13.020410060882568,-8.36,1.58,-2.85,8.97
13.076910018920898,-8.9,-0.87,-1.31,9.03
13.077503204345703,-10.13,-2.27,-0.72,10.4
13.078081130981445,-10.67,-2.94,-1.1,11.12
13.078657150268555,-9.3,-2.71,-1.32,9.77
13.080138206481934,-6.91,-1.13,-1.68,7.2
13.081265926361084,-5.61,0.29,-2.19,6.02
13.090341091156006,-5.28,4.61,-2.39,7.4
13.100401878356934,-3.37,8.82,-1.73,9.59
13.110308170318604,-5.09,2.85,-1.96,6.15
13.120285034179688,-8.69,-2.84,-2.85,9.57
13.177412986755371,-2.89,-2.12,-1.71,3.97
13.17800498008728,8.03,1.82,4.66,9.46
13.178578853607178,9.89,3.34,7.86,13.06
13.179147005081177,1.2,1.98,3.14,3.9
13.180663108825684,-9.44,1.56,-2.16,9.8
13.181857109069824,-10.53,3.93,-3.56,11.78
13.190203189849854,-6.79,7.63,-1.59,10.33
13.200216054916382,-6.47,6.79,-1.52,9.5
13.210122108459473,-6.83,2.58,-3.93,8.29
13.2201509475708,-7.43,-0.07,-3.81,8.35
13.277415037155151,-4.99,1.25,-0.49,5.16
13.27801513671875,-4.24,-0.54,1.35,4.48
13.278575897216797,-4.24,-2.39,0.63,4.9
13.279118061065674,-3.99,-1.96,-0.34,4.45
13.280599117279053,-3.43,-1.03,-0.26,3.59
13.281732082366943,-3.02,-0.05,-0.09,3.02
13.290049076080322,-2.74,0.34,-0.32,2.77
13.300091028213501,-2.1,0.39,-0.57,2.21
13.309956073760986,-1.12,0.35,-0.47,1.26
13.319972038269043,-0.16,0.55,-0.26,0.62
13.377608060836792,0.43,0.49,-0.08,0.65
13.378196001052856,0.62,0.09,0.02,0.62
13.37877106666565,0.56,-0.26,-0.04,0.61
13.379347085952759,0.43,-0.55,-0.12,0.7
13.380881071090698,0.43,-0.47,-0.45,0.77
13.38200306892395,0.49,-0.02,-1.01,1.12
13.389912128448486,0.37,0.25,-1.38,1.45
13.399688005447388,0.09,0.33,-1.62,1.65
13.409785985946655,-0.28,0.33,-1.81,1.86
13.419847965240479,-0.58,0.22,-1.47,1.59
13.429842948913574,-0.72,0.19,-0.82,1.1
13.4778470993042,-0.81,0.22,-0.24,0.87
13.478430986404419,-0.66,0.11,0.29,0.72
13.479030132293701,-0.63,-0.17,0.23,0.69
13.480560064315796,-1.06,-0.21,-0.4,1.15
13.48170518875122,-1.08,-0.09,-0.69,1.28
13.490010023117065,-0.56,-0.09,-0.27,0.62
13.49979019165039,-0.1,0.0,0.02,0.1
13.50974988937378,-0.11,0.03,0.08,0.13
13.519767999649048,-0.55,-0.07,0.18,0.58
13.529776096343994,-0.86,-0.03,0.25,0.89
13.57726502418518,-0.85,-0.04,-0.02,0.85
13.5778489112854,-0.64,-0.07,-0.26,0.69
13.578434944152832,-0.56,0.05,-0.3,0.63
13.579615116119385,-0.48,0.17,-0.18,0.54
13.58106517791748,-0.2,0.15,-0.15,0.29
13.589715957641602,0.09,-0.06,-0.2,0.22
13.599605083465576,0.17,-0.08,-0.14,0.23
13.60949420928955,-0.01,0.01,-0.03,0.03
13.619598865509033,-0.2,0.05,0.14,0.24
13.629465103149414,-0.27,0.05,0.18,0.32
13.67660903930664,-0.2,0.16,-0.04,0.25
13.677206039428711,-0.02,0.21,-0.07,0.22
13.677795886993408,0.33,0.11,-0.04,0.35
13.67895793914795,0.72,-0.04,0.02,0.72
13.68009614944458,0.92,-0.11,0.11,0.93
13.689481973648071,1.24,-0.05,0.07,1.24
13.699499130249023,1.5,0.06,0.15,1.5
13.709321975708008,1.42,0.11,0.48,1.5
13.719459056854248,1.94,0.38,0.22,1.98
13.729372024536133,2.74,0.48,-0.1,2.78
13.776349067687988,3.12,0.47,-0.26,3.16
13.77693796157837,3.51,0.49,-0.25,3.55
13.77752685546875,4.23,0.43,-0.38,4.26
13.778717994689941,5.02,0.56,-1.84,5.37
13.779918193817139,6.4,0.31,-1.49,6.57
13.789313077926636,7.22,0.46,-0.82,7.28
13.799259185791016,7.06,0.97,-1.69,7.32
13.809211015701294,6.44,1.17,-1.46,6.7
13.819231986999512,5.55,1.62,-1.58,5.99
13.829183101654053,4.16,1.85,-1.4,4.76
13.87863802909851,2.18,3.23,-0.61,3.94
13.879229068756104,0.71,6.72,-0.33,6.76
13.879814147949219,1.02,6.83,1.6,7.08
13.881272077560425,1.24,5.94,2.25,6.47
13.882397174835205,2.99,5.72,1.93,6.73
13.889159202575684,4.02,6.0,1.21,7.32
13.89910101890564,4.38,6.11,0.29,7.52
13.909089088439941,4.07,5.33,-0.41,6.71
13.919065952301025,3.52,4.99,-1.32,6.24
13.929058074951172,3.89,6.07,-1.75,7.41
13.983161926269531,4.52,8.11,-2.42,9.59
13.984126091003418,4.4,9.72,-3.69,11.28
13.984725952148438,3.32,8.85,-3.4,10.04
13.98588514328003,2.37,7.23,-2.35,7.96
13.987025022506714,0.85,9.1,-2.43,9.45
13.98895001411438,0.15,6.91,-5.13,8.6
13.999020099639893,2.69,4.34,-4.77,6.98
14.008969068527222,6.26,3.53,-2.26,7.53
14.019057035446167,9.76,-0.21,-0.75,9.79
14.028990030288696,4.68,-3.35,1.51,5.95
14.083002090454102,-4.48,-4.94,0.68,6.7
14.083944082260132,-4.43,-4.17,-3.35,6.94
14.084532022476196,2.74,-1.47,-2.86,4.22
14.085699081420898,9.27,-2.37,-0.47,9.57
14.08688497543335,12.07,-3.35,1.24,12.58
14.08887505531311,11.38,-3.85,1.98,12.17
14.099106073379517,8.91,-4.86,2.49,10.45
14.108888149261475,6.83,-5.71,2.62,9.27
14.118893146514893,5.91,-5.59,2.18,8.42
14.128813028335571,5.84,-5.11,1.55,7.91
14.183198928833008,5.73,-4.53,1.05,7.37
14.1841139793396,5.31,-3.89,0.72,6.62
14.184696197509766,4.76,-3.44,0.64,5.9
14.185851097106934,4.15,-3.03,0.52,5.16
14.186981201171875,3.57,-2.54,0.44,4.4
14.188715934753418,2.81,-2.29,0.5,3.65
14.19870901107788,2.04,-2.35,0.59,3.16
14.20870304107666,1.51,-2.17,0.78,2.75
14.218772888183594,1.25,-1.31,1.09,2.11
14.228726863861084,1.1,-0.08,1.49,1.85
14.28331708908081,0.99,1.2,1.9,2.45
14.284235000610352,1.24,2.27,1.87,3.19
14.284800052642822,1.24,3.15,1.22,3.59
14.285969972610474,-0.03,4.85,0.01,4.85
14.287127017974854,-2.09,6.63,-1.66,7.14
14.28862190246582,-3.98,8.02,-2.54,9.3
14.29852819442749,-5.1,8.63,-2.34,10.29
14.308618068695068,-4.99,8.11,-1.87,9.7
14.31864595413208,-4.13,7.0,-1.42,8.25
14.328505039215088,-3.5,5.81,-1.23,6.89
14.384532928466797,-3.96,4.93,-2.11,6.66
14.385128021240234,-5.41,4.28,-3.42,7.69
14.385705947875977,-6.96,3.69,-4.2,8.92
14.38687801361084,-7.91,2.61,-3.99,9.23
14.388028144836426,-8.25,1.1,-3.0,8.84
14.388628005981445,-8.27,-0.94,-1.74,8.5
14.398272037506104,-8.71,-2.42,-1.03,9.09
14.408358097076416,-8.97,-3.18,-1.11,9.58
14.418437004089355,-8.46,-2.83,-1.45,9.03
14.428319931030273,-7.13,-1.79,-1.78,7.56
14.485265016555786,-6.0,-1.04,-1.84,6.36
14.48588514328003,-5.56,-0.71,-1.74,5.86
14.486481189727783,-5.5,-0.77,-1.52,5.75
14.48761510848999,-4.5,4.21,-1.76,6.4
14.488719940185547,0.08,10.03,-1.26,10.1
14.489302158355713,-0.16,3.27,-1.33,3.53
14.498147964477539,6.52,-1.62,1.24,6.83
14.508287906646729,13.16,-1.71,10.54,16.94
14.518306016921997,8.95,-0.58,8.91,12.64
14.528313159942627,-0.73,0.88,0.97,1.49
14.584881067276001,-10.13,-0.09,-3.6,10.75
14.585484027862549,-11.82,-0.12,-4.71,12.72
14.586071014404297,-9.18,3.43,-4.46,10.76
14.587262153625488,-6.53,8.58,-2.78,11.13
14.588451862335205,-5.75,6.33,-3.69,9.31
14.589039087295532,-8.72,1.33,-5.15,10.21
14.598249912261963,-6.18,3.34,-2.3,7.39
14.608144044876099,-4.51,-0.81,1.97,4.98
14.618175029754639,-5.52,-4.6,1.51,7.34
14.628127098083496,-6.43,-3.19,-0.18,7.18
14.685477018356323,-5.82,-1.02,0.69,5.94
14.68608808517456,-4.94,-0.23,2.52,5.55
14.686683177947998,-3.97,-0.01,2.08,4.48
14.687887191772461,-2.75,0.43,0.13,2.78
14.689049005508423,-1.37,0.7,-0.75,1.71
14.689631938934326,-0.17,0.84,-0.52,1.0
14.698304176330566,0.33,0.58,-0.14,0.68
14.708019971847534,0.4,0.19,-0.1,0.45
14.71825885772705,0.11,-0.13,0.01,0.17
14.727936029434204,-0.38,-0.11,-0.81,0.9
14.785588026046753,-0.45,-0.04,-1.72,1.77
14.78618597984314,-0.38,0.03,-2.15,2.18
14.786778926849365,-0.75,0.05,-2.55,2.65
14.787949085235596,-1.03,0.06,-2.57,2.76
14.789073944091797,-0.76,0.07,-2.12,2.25
14.789656162261963,-0.1,0.08,-1.46,1.46
14.797818183898926,0.13,0.01,-0.63,0.64
14.80783987045288,0.21,-0.04,0.19,0.28
14.817875862121582,0.37,0.02,0.46,0.59
14.827883005142212,0.62,0.07,0.73,0.96
14.885342121124268,0.46,0.16,0.66,0.82
14.885931968688965,0.16,0.19,0.06,0.25
14.886512994766235,-0.03,0.07,-0.23,0.24
14.887668132781982,-0.34,-0.11,-0.82,0.89
14.888797044754028,-0.47,-0.25,-1.23,1.34
14.88939619064331,-0.22,-0.35,-1.14,1.21
14.897772073745728,0.08,-0.2,-0.89,0.91
14.907719135284424,0.15,0.04,-0.16,0.22
14.917766094207764,0.13,0.12,0.34,0.38
14.927726984024048,0.16,0.1,0.24,0.3
14.985527992248535,0.06,0.04,0.26,0.26
14.9861159324646,-0.04,-0.05,0.31,0.31
14.986722946166992,-0.3,-0.03,0.3,0.42
14.987859010696411,-0.53,-0.03,0.4,0.66
14.988929033279419,-0.7,-0.01,0.35,0.78
14.98950719833374,-0.86,-0.08,0.3,0.91
14.997515201568604,-0.87,-0.06,0.14,0.88
15.007488012313843,-0.74,0.08,0.02,0.74
15.017561912536621,-0.45,0.27,-0.16,0.54
15.027544021606445,-0.13,0.29,-0.27,0.41
15.084897994995117,0.22,0.13,-0.09,0.27
15.085515022277832,0.54,-0.06,-0.05,0.54
15.086100101470947,0.81,-0.23,0.09,0.84
15.087273120880127,1.03,-0.13,0.13,1.04
15.08839201927185,1.2,0.09,-0.19,1.21
15.08897590637207,1.41,0.23,0.05,1.42
15.097512006759644,1.87,0.28,0.34,1.92
15.107464075088501,2.61,0.31,0.22,2.63
15.11749005317688,3.53,0.42,0.1,3.55
15.127447128295898,4.41,0.56,-0.33,4.45
15.185634136199951,4.84,0.52,-0.52,4.89
15.186224937438965,4.85,0.58,-0.26,4.89
15.186797142028809,4.9,0.63,0.19,4.94
15.18801999092102,4.72,0.73,-0.01,4.77
15.189174175262451,4.03,1.26,-0.58,4.26
15.189751148223877,3.37,2.02,-1.0,4.05
15.197267055511475,3.06,2.69,-1.27,4.26
15.207309007644653,2.68,4.25,-1.07,5.13
15.217272996902466,2.81,6.15,-0.75,6.8
15.227258205413818,2.36,5.61,1.09,6.18
15.28513503074646,2.36,5.42,0.86,5.97
15.285693168640137,3.65,5.45,1.79,6.79
15.286269187927246,3.52,4.94,1.03,6.15
15.287438869476318,3.27,4.94,0.76,5.97
15.288514137268066,3.31,4.88,0.38,5.9
15.289093017578125,4.06,5.09,-0.2,6.51
15.2971670627594,4.64,5.7,-0.78,7.39
15.307157039642334,4.77,6.36,-1.18,8.03
15.317234992980957,4.96,7.69,-1.82,9.33
15.327120065689087,4.29,8.71,-3.17,10.21
15.385747909545898,3.64,8.19,-3.85,9.75
15.386343002319336,3.56,7.67,-2.95,8.95
15.38694715499878,0.95,9.23,-2.11,9.51
15.38809585571289,-1.55,9.46,-4.56,10.61
15.389203071594238,1.14,6.13,-5.98,8.63
15.389786005020142,5.62,4.48,-3.58,8.02
15.39698600769043,10.52,2.18,-2.04,10.93
15.406874179840088,12.26,-1.52,-0.59,12.36
15.417027950286865,3.51,-2.75,1.44,4.68
15.427043914794922,-4.87,-3.93,-1.34,6.39
15.486659049987793,-5.0,-2.3,-5.13,7.52
15.487247943878174,2.64,-1.07,-4.13,5.01
15.487833023071289,9.4,-2.32,-1.85,9.85
15.489014148712158,12.24,-2.97,0.15,12.59
15.490188121795654,12.3,-3.28,1.18,12.78
15.490771055221558,10.57,-3.43,2.2,11.32
15.49676513671875,8.34,-4.04,3.03,9.74
15.50681209564209,6.72,-4.79,3.19,8.84
15.516778945922852,6.15,-4.7,2.75,8.21
15.52661418914795,6.03,-4.07,1.98,7.53
15.585645198822021,5.57,-3.65,1.34,6.79
15.586245059967041,5.0,-3.52,0.96,6.18
15.58686113357544,4.63,-3.5,0.72,5.84
15.58804202079773,4.31,-3.21,0.91,5.45
15.589202880859375,3.83,-2.65,1.37,4.85
15.589792013168335,3.38,-1.97,1.73,4.27
15.596749067306519,3.06,-1.13,2.03,3.84
15.606746196746826,2.68,0.06,2.49,3.65
15.616600036621094,2.3,1.6,3.04,4.13
15.626641035079956,1.45,3.13,2.78,4.43
15.686053037643433,-0.38,4.59,1.06,4.72
15.68668508529663,-2.52,6.22,-1.61,6.9
15.687272071838379,-4.3,8.27,-3.73,10.03
15.68842887878418,-5.83,10.18,-4.25,12.47
15.68957805633545,-6.67,10.77,-4.16,13.33
15.690160989761353,-6.45,10.06,-3.86,12.55
15.696678161621094,-6.01,8.16,-3.14,10.6
15.706685066223145,-6.05,6.15,-3.24,9.21
15.716454982757568,-6.85,4.55,-3.29,8.85
15.726574897766113,-8.2,2.95,-2.52,9.07
15.786332130432129,-9.67,1.15,-1.76,9.89
15.786942958831787,-10.65,-0.61,-1.22,10.73
15.787529945373535,-10.41,-1.4,-0.57,10.51
15.788665056228638,-9.35,-1.25,-0.3,9.43
15.789773941040039,-8.11,-1.08,-0.67,8.2
15.790358066558838,-7.12,-0.88,-1.27,7.28
15.796369075775146,-7.14,0.03,-1.63,7.32
15.806397914886475,-7.01,-0.19,-1.24,7.12
15.816294193267822,-5.94,4.56,-0.45,7.5
15.826437950134277,-5.76,9.08,-0.14,10.75
15.886033058166504,-10.23,0.93,-4.51,11.21
15.886651039123535,-4.53,-3.64,-5.42,7.94
15.887233972549438,7.91,-1.53,2.51,8.43
15.888370037078857,9.62,1.82,6.45,11.72
15.889474868774414,0.93,3.51,2.01,4.15
15.890053033828735,-8.28,2.88,-1.49,8.89
15.896288871765137,-8.93,0.61,-0.95,9.0
15.90634799003601,-5.65,1.97,-0.54,6.0
15.916145086288452,-4.09,7.06,-1.34,8.26
15.926194190979004,-6.84,8.05,-2.25,10.8
15.985837936401367,-10.74,2.88,-4.64,12.04
15.986461162567139,-9.96,3.52,-2.38,10.82
15.987046003341675,-6.41,2.29,0.64,6.83
15.988172054290771,-4.47,-2.13,1.22,5.09
15.989291191101074,-4.16,-2.73,-0.01,4.97
15.989869117736816,-3.02,-0.84,-0.51,3.17
15.996124029159546,-1.87,0.33,0.22,1.91
16.006175994873047,-0.95,0.39,0.09,1.03
16.016140937805176,-0.12,0.25,-0.5,0.57
16.026031970977783,0.25,0.02,-0.64,0.68
16.086283206939697,0.21,-0.15,-0.57,0.62
16.086892127990723,0.06,-0.22,-0.53,0.57
16.087476015090942,-0.3,-0.1,-0.42,0.52
16.088600158691406,-0.81,0.01,-0.34,0.87
16.089704990386963,-1.04,-0.01,-0.38,1.1
16.090282917022705,-0.79,-0.15,-0.54,0.96
16.095980167388916,-0.38,-0.23,-0.88,0.98
16.10594892501831,0.29,-0.26,-1.2,1.26
16.116255044937134,0.89,-0.23,-1.21,1.51
16.125883102416992,0.69,-0.09,-0.87,1.11
16.18661594390869,0.18,0.04,-0.5,0.53
16.187251091003418,0.09,0.01,0.02,0.09
16.187828063964844,0.0,-0.17,0.35,0.38
16.188958168029785,-0.53,0.0,0.04,0.53
16.190056085586548,-0.94,0.27,-0.1,0.98
16.190975189208984,-0.93,0.27,0.5,1.08
16.195823192596436,-0.66,0.19,1.06,1.26
16.205832958221436,0.0,0.13,0.83,0.84
16.215824127197266,0.76,0.04,-0.06,0.76
16.225857973098755,1.09,-0.05,-0.86,1.38
16.28682804107666,1.26,-0.07,-1.33,1.83
16.287424087524414,1.47,-0.07,-1.47,2.08
16.287965059280396,1.13,-0.32,-1.14,1.63
16.289135932922363,0.32,-0.39,-0.61,0.79
16.290295124053955,0.0,-0.03,-0.34,0.34
16.291213989257812,-0.19,0.05,0.07,0.2
16.295669078826904,-0.29,0.02,0.34,0.44
16.3056321144104,-0.01,0.12,0.43,0.44
16.315603971481323,0.03,0.17,0.58,0.6
16.32546615600586,-0.2,0.15,0.27,0.36
16.3871169090271,-0.28,0.18,-0.02,0.33
16.38771390914917,-0.19,0.12,-0.24,0.32
16.388290882110596,-0.25,0.01,-0.44,0.5
16.389430046081543,-0.39,0.02,-0.48,0.61
16.390832901000977,-0.28,0.1,-0.43,0.52
16.391411066055298,-0.06,0.12,-0.35,0.37
16.39556908607483,0.17,0.1,-0.24,0.31
16.405477046966553,0.4,0.02,-0.1,0.41
16.415565967559814,0.51,-0.03,0.03,0.51
16.42545509338379,0.49,-0.04,0.0,0.49
16.48768401145935,0.63,-0.05,-0.02,0.63
16.488272190093994,0.85,-0.15,-0.02,0.86
16.488816022872925,0.72,0.12,-0.2,0.75
16.48997688293457,0.68,0.44,-0.2,0.83
16.491443157196045,1.03,0.35,-0.17,1.1
16.49202013015747,1.2,0.24,-0.32,1.26
16.495347023010254,1.34,0.28,-0.5,1.45
16.505393981933594,1.65,0.34,-0.73,1.83
16.51542901992798,1.83,0.2,-0.72,1.97
16.52538299560547,1.78,0.1,-0.37,1.82
16.58798313140869,2.11,0.3,0.06,2.13
16.588587999343872,2.64,0.69,0.2,2.73
16.589173078536987,2.83,1.27,0.19,3.1
16.59069800376892,2.93,1.65,0.14,3.36
16.591796875,2.96,1.77,0.19,3.45
16.59237289428711,3.11,1.86,0.16,3.62
16.595306873321533,3.56,1.73,0.08,3.95
16.605286121368408,3.56,2.04,0.46,4.12
16.61526608467102,3.4,2.66,0.36,4.33
16.625154972076416,3.7,2.93,-0.86,4.79
16.688265085220337,4.9,3.47,-1.6,6.21
16.688875198364258,4.5,4.06,-0.76,6.1
16.689457893371582,4.72,3.7,-0.86,6.05
16.690937042236328,4.75,4.24,-0.14,6.36
16.69206190109253,5.02,4.7,-0.01,6.87
16.69263792037964,5.57,5.01,0.46,7.5
16.69559097290039,5.98,5.23,0.13,7.94
16.70522689819336,6.44,5.54,-0.07,8.49
16.7150821685791,6.38,5.59,-0.42,8.49
16.725153923034668,6.07,5.67,-0.79,8.34
16.78880000114441,5.46,6.14,-1.04,8.28
16.789427995681763,4.83,7.34,-1.96,9.0
16.790295124053955,3.74,8.17,-3.46,9.62
16.79147720336914,2.75,7.32,-2.45,8.19
16.792670011520386,0.6,7.54,0.74,7.59
16.79325008392334,0.07,7.97,-1.15,8.05
16.795032024383545,2.7,8.5,-4.91,10.18
16.805283069610596,5.35,7.26,-5.1,10.36
16.814935207366943,7.18,3.65,-3.89,8.94
16.825178146362305,9.05,0.5,-2.45,9.38
16.889161109924316,5.66,0.02,1.02,5.75
16.890124082565308,-2.8,-1.14,-1.08,3.21
16.890711069107056,-0.73,-0.43,-4.34,4.42
16.891892910003662,4.61,-0.49,-1.38,4.83
16.89308500289917,7.69,-1.23,0.59,7.81
16.893702030181885,8.71,-2.16,1.06,9.03
16.894888877868652,7.89,-3.54,1.03,8.7
16.904905080795288,6.31,-4.51,1.1,7.83
16.91480803489685,5.04,-4.89,1.39,7.15
16.924764156341553,4.48,-4.57,1.36,6.54
16.990325927734375,4.58,-4.07,1.16,6.23
16.991117000579834,4.81,-3.51,0.99,6.03
16.99169111251831,4.84,-3.08,1.08,5.83
16.992851972579956,4.92,-2.82,1.25,5.8
16.99398899078369,5.22,-2.67,1.68,6.09
16.994586944580078,5.42,-2.49,2.43,6.44
16.995759963989258,5.3,-2.17,3.08,6.5
17.004724979400635,4.77,-1.84,3.63,6.27
17.014652013778687,3.86,-1.06,3.78,5.5
17.02466607093811,2.95,0.1,3.22,4.36
17.09035897254944,2.06,1.33,2.22,3.3
17.09123420715332,1.13,2.47,1.05,2.91
17.09181308746338,0.23,3.84,-0.22,3.85
17.092936038970947,-1.05,5.61,-1.38,5.87
17.094077110290527,-2.93,7.46,-2.17,8.3
17.09467601776123,-4.98,8.97,-3.31,10.78
17.09581708908081,-7.25,9.68,-4.93,13.06
17.10451889038086,-9.6,9.28,-5.68,14.51
17.114542961120605,-10.69,7.96,-5.45,14.39
17.124541997909546,-10.66,6.15,-4.7,13.17
17.190250873565674,-10.56,4.27,-3.7,11.97
17.19104504585266,-10.86,2.17,-3.1,11.5
17.191622018814087,-11.19,0.03,-2.8,11.53
17.192737102508545,-11.3,-1.09,-2.61,11.64
17.19384503364563,-11.23,-0.9,-2.65,11.57
17.1944260597229,-10.55,-0.91,-2.7,10.92
17.195590019226074,-10.02,-0.96,-2.9,10.47
17.20439910888672,-9.52,-0.75,-3.49,10.16
17.214367866516113,-8.88,-0.48,-3.64,9.6
17.22437620162964,-7.35,4.22,-3.12,9.03
17.291167974472046,-6.92,4.5,-2.4,8.59
17.291770935058594,-9.66,-0.38,-3.13,10.16
17.292354106903076,-8.71,-2.82,-3.66,9.85
17.293482065200806,2.99,-0.15,0.03,2.99
17.294620037078857,13.09,2.29,7.62,15.31
17.295201063156128,10.12,2.39,6.76,12.4
17.29635190963745,-0.68,2.04,0.54,2.21
17.304301023483276,-8.53,2.33,-2.53,9.19
17.314292907714844,-7.56,4.01,-1.73,8.73
17.32428002357483,-5.94,7.32,-1.88,9.61
17.391467094421387,-6.04,6.48,-2.6,9.23
17.392065048217773,-6.15,1.85,-3.33,7.23
17.392643928527832,-5.45,0.05,-2.82,6.13
17.39376211166382,-2.79,0.68,0.26,2.88
17.394865036010742,-1.98,-1.98,1.82,3.33
17.3954439163208,-3.39,-3.17,0.7,4.69
17.396585941314697,-4.44,-2.24,-0.26,4.97
17.404189109802246,-4.05,-0.36,-0.24,4.07
17.41410493850708,-3.63,0.8,-0.22,3.72
17.42407989501953,-2.99,0.51,-0.35,3.05
17.492559909820557,-2.16,0.35,-0.32,2.21
17.493160009384155,-1.13,0.4,0.19,1.21
17.493757009506226,-0.07,0.34,0.65,0.73
17.49493098258972,0.4,0.22,0.53,0.69
17.496073007583618,0.19,0.16,0.09,0.26
17.496644020080566,-0.24,-0.06,-0.5,0.55
17.49785089492798,-0.66,-0.26,-0.92,1.16
17.503987073898315,-0.65,-0.06,-1.24,1.4
17.51404905319214,-0.52,0.19,-1.38,1.48
17.523951053619385,-0.29,0.27,-1.26,1.32
17.533936977386475,-0.46,0.03,-0.89,1.0
17.59314489364624,-0.75,-0.07,-0.84,1.12
17.59375810623169,-0.8,0.0,-0.96,1.24
17.594887018203735,-0.65,0.05,-0.73,0.97
17.595988988876343,-0.48,0.14,-0.25,0.55
17.59657096862793,-0.35,0.11,0.45,0.58
17.597718000411987,-0.31,0.02,0.62,0.69
17.603852033615112,-0.11,0.11,-0.03,0.15
17.61382508277893,-0.04,0.09,-0.54,0.54
17.623805046081543,-0.37,-0.09,-0.88,0.95
17.633743047714233,-0.67,-0.15,-1.05,1.25
17.693342208862305,-0.47,-0.08,-0.9,1.01
17.693943977355957,-0.04,-0.13,-0.87,0.88
17.695096969604492,0.18,-0.2,-1.09,1.12
17.69624400138855,0.35,-0.17,-1.36,1.41
17.696810007095337,0.35,-0.15,-1.41,1.46
17.697916984558105,0.22,-0.28,-0.71,0.79
17.70366907119751,0.0,-0.29,-0.01,0.29
17.713480949401855,-0.02,-0.12,-0.42,0.43
17.7236909866333,0.25,-0.18,-0.73,0.79
17.733612060546875,0.35,-0.43,-0.22,0.59
17.795958995819092,0.27,-0.08,-0.44,0.52
17.796627044677734,0.18,0.26,-0.24,0.39
17.797935962677002,-0.1,0.2,0.54,0.58
17.799551010131836,-0.19,0.12,0.6,0.64
17.800251007080078,-0.11,0.14,0.4,0.43
17.801762104034424,-0.18,0.22,0.21,0.35
17.803351879119873,-0.32,0.24,0.29,0.49
17.813467025756836,-0.64,0.44,0.4,0.87
17.82346200942993,-0.44,0.4,0.71,0.92
17.833427906036377,0.0,0.28,0.42,0.5
17.893599033355713,0.41,0.02,0.32,0.52
17.894208908081055,0.96,-0.12,0.31,1.01
17.89541006088257,1.6,-0.03,0.08,1.6
17.89658808708191,1.94,0.12,0.22,1.95
17.89716100692749,2.34,0.33,0.29,2.38
17.89864492416382,2.75,0.35,0.18,2.77
17.903547048568726,3.25,0.29,0.25,3.27
17.913434982299805,3.55,0.53,0.28,3.6
17.923439979553223,3.48,0.79,-0.05,3.56
17.933369159698486,3.19,0.83,-0.35,3.31
17.99445390701294,3.21,0.75,-0.64,3.35
17.995054006576538,3.45,0.86,-1.03,3.7
17.996253967285156,3.47,1.2,-1.36,3.91
17.997397899627686,3.19,1.55,-1.34,3.79
17.998311042785645,2.58,2.34,-1.18,3.67
17.99948787689209,2.01,3.25,-0.26,3.83
18.00328803062439,2.1,4.38,-0.02,4.85
18.013259887695312,3.75,5.24,-0.71,6.48
18.023269176483154,3.43,4.69,0.69,5.85
18.033222198486328,4.28,4.53,0.12,6.23
18.094666004180908,4.46,4.46,0.3,6.31
18.09526491165161,4.8,4.26,0.22,6.42
18.09643316268921,5.22,4.21,-0.28,6.71
18.09758710861206,5.62,4.58,-0.88,7.3
18.098485946655273,5.68,4.96,-0.87,7.59
18.099669933319092,5.42,5.06,-0.98,7.47
18.103190898895264,4.44,4.89,-1.42,6.75
18.11306405067444,3.34,4.98,-1.53,6.18
18.177917957305908,3.28,5.59,-1.63,6.68
18.178829193115234,4.2,6.45,-2.7,8.15
18.179409980773926,5.25,6.47,-3.23,8.93
18.179980039596558,3.45,6.84,-2.04,7.92
18.181125164031982,-0.68,8.22,-3.04,8.79
18.18225407600403,-0.24,7.16,-4.98,8.72
18.183008193969727,3.3,6.18,-3.56,7.85
18.19301700592041,6.07,4.41,-1.43,7.63
18.2029709815979,8.55,1.22,-0.21,8.63
18.21294903755188,8.39,-1.66,0.72,8.58
18.279358863830566,0.22,-2.7,1.83,3.26
18.279973030090332,-5.03,-3.58,-1.98,6.48
18.280560970306396,-2.31,-0.42,-4.55,5.12
18.281167030334473,5.33,-0.37,-3.37,6.31
18.28232717514038,10.15,-1.64,-0.89,10.32
18.28347396850586,11.58,-2.23,0.74,11.81
18.284056186676025,10.39,-2.65,1.8,10.87
18.292922019958496,8.04,-3.19,2.66,9.04
18.302845001220703,6.03,-3.59,2.79,7.55
18.312838077545166,5.07,-3.67,2.32,6.67
18.37930202484131,5.11,-3.45,1.84,6.43
18.379935026168823,5.23,-3.0,1.49,6.21
18.380513191223145,5.09,-2.65,1.21,5.86
18.38108491897583,4.8,-2.45,1.04,5.48
18.382233142852783,4.51,-2.27,1.02,5.15
18.38337206840515,4.17,-2.04,1.21,4.79
18.383955001831055,3.68,-1.66,1.77,4.4
18.39265489578247,3.06,-1.1,2.37,4.02
18.40257215499878,2.53,-0.35,2.82,3.8
18.412615060806274,2.6,0.39,3.21,4.14
18.47939109802246,2.69,1.29,2.97,4.2
18.479995012283325,1.19,2.89,1.5,3.46
18.48057794570923,-1.42,4.03,-0.64,4.32
18.481184005737305,-3.29,4.76,-2.04,6.13
18.48237419128418,-4.08,6.43,-2.3,7.95
18.483558177947998,-4.41,7.8,-1.76,9.13
18.484137058258057,-4.78,7.85,-1.37,9.29
18.492487907409668,-5.86,7.59,-1.91,9.77
18.502424001693726,-7.09,7.18,-2.83,10.47
18.51258087158203,-8.18,6.91,-3.99,11.42
18.580202102661133,-9.23,6.3,-5.22,12.33
18.580806016921997,-9.71,4.81,-4.76,11.83
18.581387996673584,-9.78,2.42,-3.22,10.57
18.581961154937744,-9.89,0.08,-1.28,9.97
18.583132028579712,-10.02,-1.49,0.1,10.13
18.584233045578003,-10.72,-1.9,-0.74,10.91
18.584814071655273,-11.29,-1.37,-2.49,11.64
18.592374086380005,-10.73,-0.8,-3.2,11.22
18.602251052856445,-9.69,-0.35,-3.33,10.25
18.612393856048584,-9.09,0.53,-3.23,9.66
18.680088996887207,-7.43,6.57,-2.96,10.35
18.680702209472656,-9.96,3.48,-3.68,11.17
18.681282997131348,-9.98,-2.55,-6.52,12.19
18.68188190460205,3.21,-0.86,-1.86,3.8
18.68305015563965,12.21,1.35,6.86,14.07
18.68418598175049,7.61,1.87,4.48,9.02
18.68476104736328,-1.26,2.03,-0.13,2.39
18.692255973815918,-6.71,0.67,-1.02,6.82
18.70212697982788,-5.6,0.83,-0.9,5.73
18.7122700214386,-3.1,3.0,-1.33,4.51
18.780696868896484,-2.81,5.58,-1.07,6.33
18.781297206878662,-4.22,5.94,-1.03,7.35
18.781902074813843,-4.99,2.32,-0.56,5.53
18.78250503540039,-4.58,0.56,0.52,4.64
18.78368306159973,-4.97,-0.12,-0.89,5.05
18.784857034683228,-5.05,-0.76,-2.32,5.6
18.785812854766846,-3.57,0.37,-1.68,3.96
18.792136192321777,-2.66,-0.35,-1.09,2.89
18.802304983139038,-2.26,-1.17,-1.2,2.81
18.811945915222168,-1.89,-0.61,-1.21,2.32
18.88101601600647,-1.74,0.05,-0.86,1.94
18.881661891937256,-1.7,0.24,-0.49,1.78
18.882243156433105,-1.39,0.24,-0.06,1.41
18.882800102233887,-1.01,0.2,0.16,1.04
18.884039878845215,-0.58,0.02,0.09,0.58
18.885212898254395,-0.41,-0.17,0.04,0.44
18.88618302345276,-0.37,-0.2,0.0,0.42
18.892096042633057,-0.3,-0.08,-0.03,0.31
18.90192699432373,-0.01,-0.13,-0.12,0.17
18.91193699836731,0.2,-0.24,-0.29,0.42
18.9813871383667,0.26,-0.06,-0.71,0.75
18.982027053833008,0.13,0.2,-0.96,0.98
18.98260498046875,-0.2,0.23,-1.04,1.08
18.983220100402832,-0.51,0.3,-1.14,1.28
18.984379053115845,-0.71,0.36,-1.13,1.38
18.98593497276306,-1.04,0.31,-0.82,1.36
18.986852169036865,-1.26,0.25,-0.51,1.38
18.991950035095215,-1.2,0.22,-0.18,1.23
19.001816034317017,-0.84,0.1,0.2,0.86
19.0116970539093,-0.52,-0.05,0.45,0.68
19.08171319961548,-0.24,-0.13,0.34,0.43
19.082324981689453,0.11,-0.09,0.11,0.17
19.08290719985962,0.24,-0.15,0.04,0.28
19.08348298072815,0.27,-0.14,-0.05,0.3
19.084650993347168,0.25,-0.19,-0.16,0.35
19.086132049560547,-0.09,-0.19,-0.35,0.4
19.087018966674805,-0.56,0.0,-0.72,0.91
19.091645002365112,-0.58,0.1,-0.89,1.06
19.101659059524536,-0.45,0.13,-0.65,0.8
19.111629962921143,-0.32,0.02,-0.43,0.53
19.1819109916687,-0.2,-0.04,-0.31,0.37
19.18251895904541,-0.15,-0.02,-0.26,0.3
19.183115005493164,-0.13,0.02,-0.14,0.19
19.183732986450195,0.0,0.12,0.0,0.12
19.184890031814575,0.1,0.15,0.07,0.19
19.186694145202637,0.13,0.11,-0.01,0.17
19.187303066253662,0.25,0.07,-0.13,0.29
19.191586017608643,0.29,0.11,-0.26,0.4
19.201531887054443,0.17,0.21,-0.34,0.43
19.211579084396362,0.39,0.24,-0.41,0.61
19.28176498413086,0.94,0.02,-0.27,0.97
19.282369136810303,1.49,-0.35,0.05,1.53
19.28295612335205,2.05,-0.53,0.2,2.12
19.28353500366211,2.67,-0.43,0.52,2.75
19.284656047821045,3.2,-0.43,1.01,3.38
19.286447048187256,2.79,-0.38,0.88,2.95
19.287057876586914,1.79,-0.03,0.62,1.89
19.291419982910156,1.55,0.18,0.53,1.64
19.30136799812317,1.5,0.38,-0.39,1.59
19.311602115631104,0.91,0.65,-0.96,1.47
19.381977081298828,0.36,0.96,-1.71,1.99
19.38256311416626,0.36,0.91,-1.56,1.84
19.38310408592224,0.84,0.64,-1.12,1.53
19.383681058883667,1.55,0.39,-0.5,1.67
19.384832859039307,2.38,0.28,0.01,2.39
19.386621952056885,3.33,0.4,0.05,3.35
19.387207984924316,4.0,0.78,-0.51,4.1
19.391362190246582,4.11,1.13,-0.94,4.36
19.401166915893555,4.31,1.7,-1.27,4.8
19.411241054534912,4.15,2.47,-1.55,5.07
19.48207402229309,3.12,3.06,-0.71,4.42
19.48267102241516,2.72,3.26,0.8,4.32
19.48324203491211,3.12,3.63,1.6,5.04
19.48380994796753,5.2,4.75,0.09,7.04
19.484922885894775,5.31,4.83,1.83,7.4
19.486667156219482,4.8,4.78,0.93,6.83
19.487276077270508,4.68,5.06,0.96,6.95
19.49108099937439,4.56,4.76,0.3,6.59
19.50110387802124,5.02,4.68,0.12,6.86
19.51112413406372,5.25,5.45,-0.39,7.57
19.582937002182007,4.75,5.82,-1.19,7.6
19.58353900909424,4.27,5.91,-1.22,7.39
19.584117889404297,4.4,6.12,-1.27,7.64
19.584696054458618,5.17,6.89,-1.71,8.78
19.58653998374939,5.83,7.53,-2.9,9.95
19.587722063064575,5.39,7.1,-3.6,9.61
19.588326930999756,2.47,8.49,-1.9,9.04
19.59101700782776,-1.36,10.21,-0.84,10.33
19.600786209106445,-0.84,7.49,-3.81,8.44
19.610913038253784,3.24,5.02,-3.5,6.92
19.68309998512268,6.8,3.74,-1.98,8.0
19.683709144592285,11.06,1.65,-1.19,11.24
19.684298992156982,9.36,-1.51,0.86,9.51
19.684884071350098,-1.47,-3.88,1.12,4.29
19.68668794631958,-5.4,-2.86,-3.59,7.08
19.687808990478516,-0.07,0.14,-4.69,4.69
19.688403129577637,7.3,-0.7,-2.18,7.65
19.690913200378418,10.41,-2.04,-0.13,10.6
19.700899124145508,10.9,-2.68,0.91,11.26
19.710914134979248,9.22,-3.26,1.26,9.86
19.783714056015015,6.84,-3.82,1.48,7.97
19.78431797027588,5.37,-4.43,1.43,7.1
19.784897089004517,5.35,-4.57,1.34,7.16
19.785801887512207,5.84,-4.23,1.54,7.37
19.787322998046875,5.73,-3.88,1.63,7.1
19.788447856903076,5.03,-3.43,1.61,6.29
19.78903102874756,4.39,-3.28,1.65,5.72
19.790711879730225,3.86,-3.15,1.76,5.28
19.8006329536438,3.27,-2.76,1.91,4.68
19.810676097869873,2.7,-2.1,2.34,4.14
19.88424801826477,2.33,-1.08,2.79,3.79
19.88486099243164,2.38,0.02,3.5,4.23
19.885792016983032,2.26,1.18,3.93,4.68
19.886739015579224,0.66,2.69,2.5,3.73
19.88791513442993,-1.94,3.96,-0.48,4.43
19.8890860080719,-4.06,5.19,-2.77,7.14
19.889693021774292,-5.4,6.68,-3.34,9.21
19.890904903411865,-6.49,7.97,-2.8,10.65
19.90049409866333,-7.59,8.37,-2.37,11.54
19.910491943359375,-8.68,7.94,-2.46,12.01
19.985846042633057,-9.42,7.47,-3.24,12.45
19.98704719543457,-9.74,6.76,-4.52,12.68
19.987660884857178,-9.63,5.24,-4.76,11.95
19.988234996795654,-9.52,3.27,-3.37,10.61
19.989418983459473,-9.85,1.04,-2.16,10.13
19.990592002868652,-10.81,-1.11,-2.06,11.06
19.991178035736084,-11.14,-2.43,-2.4,11.65
19.992374897003174,-10.2,-2.49,-2.71,10.84
20.000275135040283,-9.0,-1.58,-2.99,9.61
20.01035785675049,-8.0,-0.92,-3.21,8.66
20.085707187652588,-7.01,2.81,-3.47,8.31
20.086864948272705,-4.25,7.71,-2.97,9.29
20.087454080581665,-5.59,1.23,-2.17,6.12
20.088077068328857,-2.89,-1.78,-2.43,4.17
20.089261054992676,6.56,0.02,3.58,7.47
20.09044098854065,9.35,1.54,8.1,12.46
20.09101104736328,3.91,1.18,2.63,4.85
20.092194080352783,-4.36,0.38,-1.14,4.52
20.100270986557007,-8.26,0.2,-1.48,8.39
20.11020803451538,-6.9,1.54,-1.87,7.31
20.186660051345825,-5.58,5.06,-1.83,7.75
20.187262058258057,-4.85,6.44,-1.5,8.2
20.187855005264282,-4.42,2.71,-1.55,5.41
20.18843412399292,-3.69,1.25,-1.03,4.02
20.189614057540894,-4.88,-0.91,-2.77,5.68
20.19077491760254,-5.11,-1.15,-3.41,6.25
20.19135618209839,-4.11,0.09,-2.22,4.67
20.19251298904419,-3.39,-1.04,-1.31,3.78
20.20004105567932,-2.39,-1.44,-1.19,3.03
20.210033893585205,-1.4,-0.64,-1.63,2.24
20.287012100219727,-1.73,-0.15,-1.1,2.05
20.28761100769043,-2.36,0.04,0.23,2.37
20.288209915161133,-2.33,0.25,1.0,2.54
20.28878116607666,-1.45,0.1,0.75,1.63
20.289978981018066,-0.52,0.17,0.26,0.6
20.29112720489502,-0.35,0.38,0.09,0.52
20.291698932647705,-0.26,0.04,0.36,0.44
20.29287600517273,-0.22,-0.09,0.43,0.49
20.299921989440918,-0.44,0.05,0.09,0.45
20.309947967529297,-0.91,0.09,-0.24,0.94
20.319908142089844,-1.28,0.2,-0.63,1.44
20.388180017471313,-1.26,0.29,-0.92,1.58
20.388792037963867,-1.08,0.13,-1.28,1.67
20.389384031295776,-0.94,0.03,-1.49,1.76
20.39057207107544,-0.91,0.0,-1.26,1.55
20.39170789718628,-0.88,-0.06,-0.83,1.21
20.392287015914917,-0.65,-0.03,-0.4,0.76
20.39346408843994,-0.25,0.03,-0.11,0.27
20.39970111846924,-0.07,-0.03,-0.01,0.07
20.409696102142334,-0.25,-0.09,-0.11,0.28
20.419764041900635,-0.47,-0.06,-0.23,0.52
20.488067150115967,-0.51,-0.07,-0.25,0.57
20.48870086669922,-0.36,-0.01,-0.1,0.37
20.489295959472656,-0.19,-0.01,-0.2,0.27
20.490478038787842,-0.07,-0.07,-0.38,0.39
20.49162006378174,-0.11,-0.04,-0.34,0.35
20.492199897766113,0.15,-0.01,-0.03,0.15
20.49335503578186,0.27,0.09,0.14,0.31
20.499650955200195,0.06,0.07,0.16,0.18
20.50965404510498,-0.09,-0.04,0.19,0.21
20.519543170928955,-0.1,-0.01,0.19,0.21
20.587180137634277,-0.03,0.03,0.22,0.22
20.58780002593994,0.0,-0.03,0.15,0.15
20.588407039642334,0.01,0.0,-0.12,0.12
20.58965802192688,0.02,0.06,-0.36,0.36
20.590848922729492,-0.04,0.08,-0.32,0.33
20.591432094573975,0.02,0.0,-0.25,0.25
20.59262204170227,0.03,0.02,-0.17,0.17
20.599535942077637,0.07,0.09,-0.19,0.22
20.609482049942017,0.24,0.05,-0.18,0.3
20.619467973709106,0.36,-0.01,0.03,0.36
20.68786907196045,0.51,0.04,-0.07,0.51
20.68853998184204,0.76,0.1,-0.09,0.77
20.689208984375,1.1,0.15,-0.02,1.11
20.690532207489014,1.51,0.23,0.02,1.52
20.69170308113098,1.69,0.35,-0.01,1.72
20.69228219985962,1.72,0.55,-0.15,1.81
20.693471908569336,1.63,0.68,-0.29,1.78
20.69938611984253,1.71,0.85,-0.56,1.99
20.70934295654297,1.98,0.87,-0.8,2.3
20.71932601928711,2.37,0.86,-0.98,2.7
20.788175106048584,2.76,0.83,-1.0,3.05
20.78882098197937,3.14,0.84,-1.06,3.41
20.789422035217285,3.38,0.88,-1.03,3.64
20.79058003425598,3.39,1.23,-1.29,3.83
20.79169511795044,3.53,1.66,-0.59,3.94
20.79227304458618,3.28,2.71,-0.02,4.25
20.793413162231445,3.72,4.35,-0.96,5.8
20.7992160320282,4.01,4.29,0.49,5.89
20.80918788909912,3.12,3.61,0.72,4.82
20.819176197052002,3.43,3.6,1.08,5.08
20.88851308822632,3.4,3.65,1.19,5.12
20.889111042022705,2.85,3.58,1.19,4.72
20.889674186706543,2.82,3.37,1.12,4.53
20.890872955322266,3.32,3.25,0.93,4.73
20.892009973526,3.87,3.31,0.88,5.16
20.89258599281311,4.3,3.52,0.5,5.57
20.894105911254883,4.49,4.09,-0.07,6.07
20.89907217025757,4.13,4.43,-0.67,6.09
20.90913486480713,3.52,4.45,-0.9,5.74
20.919092178344727,3.01,4.86,-1.26,5.85
20.988973140716553,3.15,5.75,-2.05,6.86
20.98960304260254,4.57,6.62,-2.94,8.56
20.990209102630615,5.78,6.58,-3.63,9.48
20.991426944732666,4.39,6.95,-3.18,8.81
20.99259901046753,0.16,8.98,-4.52,10.05
20.99317693710327,0.57,8.07,-6.59,10.43
20.994705200195312,4.73,6.67,-4.93,9.54
20.998929023742676,7.77,5.43,-2.75,9.87
21.008944988250732,8.87,3.36,-1.05,9.54
21.01887607574463,7.89,-1.03,-0.3,7.96
21.08949899673462,0.94,-2.88,0.33,3.04
21.09018087387085,-7.12,-2.89,-1.77,7.88
21.09081792831421,-6.23,0.32,-4.91,7.93
21.09201407432556,3.28,0.43,-4.46,5.55
21.093209981918335,9.6,-1.09,-2.11,9.88
21.094115018844604,11.41,-2.03,-0.16,11.59
21.095319986343384,10.22,-2.62,0.91,10.58
21.0987548828125,8.03,-3.01,1.73,8.74
21.108784198760986,6.17,-3.84,1.94,7.52
21.118717193603516,5.39,-4.8,1.96,7.47
21.19026803970337,5.64,-4.91,2.09,7.76
21.190939903259277,5.93,-4.27,2.0,7.57
21.191588878631592,5.79,-3.63,1.76,7.05
21.192853927612305,5.41,-3.45,1.46,6.58
21.194350004196167,5.03,-3.35,1.03,6.13
21.19492816925049,4.74,-2.99,1.12,5.71
21.196099996566772,4.27,-2.44,1.44,5.12
21.19861102104187,3.69,-1.9,1.85,4.54
21.20875310897827,3.06,-1.27,2.32,4.04
21.218581199645996,2.65,-0.51,2.72,3.83
21.289620876312256,2.53,0.54,3.05,3.99
21.290244102478027,2.49,1.55,3.16,4.31
21.290833950042725,1.55,2.82,2.13,3.85
21.292034149169922,-0.65,4.47,-0.16,4.51
21.2932391166687,-2.77,5.95,-2.24,6.93
21.294147968292236,-4.08,8.0,-3.47,9.62
21.295318126678467,-5.3,9.63,-3.4,11.5
21.298511028289795,-6.88,9.71,-2.86,12.23
21.308494091033936,-8.05,8.38,-2.42,11.86
21.31849718093872,-8.5,6.64,-2.61,11.09
21.390290021896362,-9.09,5.62,-3.96,11.39
21.39091396331787,-9.43,4.98,-5.4,11.95
21.39149808883667,-9.16,3.82,-4.51,10.9
21.392634868621826,-9.37,1.9,-1.87,9.74
21.394105911254883,-10.04,-0.08,-0.33,10.04
21.394707202911377,-10.57,-1.23,-0.93,10.68
21.395875930786133,-10.29,-1.27,-2.32,10.62
21.398250102996826,-9.58,-0.84,-3.09,10.1
21.408337116241455,-8.88,0.82,-2.81,9.35
21.4182071685791,-6.97,6.06,-2.46,9.55
21.490050077438354,-6.39,2.46,-1.97,7.12
21.490663051605225,-8.72,-1.39,-1.9,9.03
21.49124503135681,-9.65,-3.16,-1.71,10.29
21.492398977279663,-1.65,0.37,-0.65,1.81
21.493854999542236,9.46,3.45,5.22,11.34
21.494428157806396,9.41,2.82,7.05,12.09
21.495637893676758,-0.15,0.53,1.64,1.73
21.49819803237915,-8.77,-0.1,-1.78,8.94
21.508184909820557,-8.61,1.31,-2.42,9.03
21.518224000930786,-4.87,5.66,-1.98,7.72
21.589917182922363,-2.39,7.49,-1.34,7.97
21.590537071228027,-3.87,4.34,-1.27,5.95
21.59112310409546,-6.78,0.35,-3.28,7.53
21.59226703643799,-7.27,0.89,-2.93,7.88
21.59375810623169,-6.02,1.94,-0.95,6.39
21.594336986541748,-4.9,-0.77,0.36,4.97
21.59556007385254,-4.59,-1.66,0.15,4.88
21.598092079162598,-4.04,-0.85,-0.56,4.16
21.60806107521057,-3.14,-0.39,0.15,3.16
21.61803913116455,-2.46,-0.07,0.67,2.55
21.690494060516357,-1.67,0.19,0.7,1.82
21.69118595123291,-1.06,0.21,0.55,1.21
21.691821098327637,-0.41,0.11,0.06,0.42
21.693374156951904,0.15,0.14,-0.31,0.37
21.694545030593872,0.46,0.13,-0.6,0.76
21.695125102996826,0.53,0.0,-0.94,1.07
21.696335077285767,0.42,-0.19,-1.17,1.25
21.697882175445557,0.26,-0.28,-1.48,1.52
21.707963943481445,-0.04,-0.19,-1.68,1.69
21.717920064926147,-0.08,0.07,-1.64,1.64
21.790850162506104,0.02,0.05,-1.15,1.15
21.79152488708496,0.07,-0.19,-0.7,0.72
21.792185068130493,0.25,-0.14,-0.48,0.55
21.79378318786621,0.35,-0.16,-0.1,0.39
21.79498600959778,0.22,0.02,0.29,0.36
21.79556703567505,-0.1,0.16,0.45,0.48
21.79677700996399,-0.37,0.06,0.68,0.77
21.79797101020813,-0.37,-0.04,0.38,0.53
21.807878017425537,-0.18,-0.11,-0.19,0.28
21.817606925964355,-0.06,-0.1,-0.49,0.5
21.891024112701416,0.12,-0.04,-0.74,0.75
21.891695022583008,0.2,-0.05,-0.78,0.8
21.892699003219604,-0.01,-0.15,-0.91,0.92
21.893868923187256,-0.36,-0.27,-0.95,1.05
21.895044088363647,-0.66,-0.25,-0.72,1.0
21.89564299583435,-0.54,-0.08,-0.61,0.81
21.896817207336426,-0.53,0.0,-0.45,0.69
21.897995948791504,-0.53,0.2,-0.18,0.59
21.90764307975769,-0.47,0.27,0.23,0.58
21.917601108551025,-0.14,0.18,0.56,0.6
21.989779949188232,0.12,0.11,0.35,0.38
21.990421056747437,0.23,0.05,-0.04,0.23
21.991029024124146,0.22,0.04,-0.31,0.38
21.992620944976807,0.01,0.02,-0.49,0.49
21.993834018707275,-0.27,-0.02,-0.6,0.65
21.994423866271973,-0.37,0.0,-0.66,0.75
21.995656967163086,-0.43,0.11,-0.55,0.7
21.997458934783936,-0.43,0.21,-0.56,0.73
22.007484912872314,-0.02,0.21,-0.32,0.38
22.017530918121338,0.58,0.02,-0.12,0.59
22.09011220932007,1.19,-0.12,-0.37,1.25
22.090800046920776,1.58,-0.26,-0.06,1.6
22.091402053833008,1.8,-0.34,0.27,1.85
22.092904090881348,2.0,-0.38,0.19,2.04
22.094067096710205,1.96,-0.17,0.35,1.99
22.094647884368896,1.61,0.21,0.04,1.62
22.095850944519043,0.98,0.51,-0.1,1.1
22.097332000732422,0.81,0.5,0.27,0.98
22.10740900039673,1.2,0.33,0.01,1.24
22.11734914779663,1.82,0.15,0.11,1.82
22.189794063568115,2.67,0.18,0.22,2.68
22.190463066101074,2.87,0.28,0.06,2.88
22.191114902496338,2.35,0.64,-0.35,2.46
22.192788124084473,2.13,0.88,-0.54,2.36
22.193912982940674,2.26,1.03,-0.51,2.53
22.19449806213379,2.14,1.31,-0.41,2.54
22.195680141448975,1.97,1.5,-0.28,2.49
22.19710397720337,2.2,1.79,-0.44,2.87
22.207212924957275,2.65,2.38,-0.56,3.6
22.217027187347412,3.72,2.72,0.1,4.6
22.289464950561523,3.9,3.37,0.1,5.15
22.290075063705444,3.69,3.82,-1.08,5.41
22.290674209594727,5.3,4.68,-1.34,7.19
22.29218816757202,4.3,4.03,0.7,5.93
22.29330801963806,4.37,3.87,-0.55,5.86
22.29389715194702,4.85,4.45,0.36,6.59
22.295045852661133,5.13,4.55,0.32,6.86
22.297121047973633,5.45,4.7,0.26,7.2
22.307038068771362,5.83,5.2,0.31,7.81
22.316876888275146,5.84,5.32,-0.01,7.89
22.390374183654785,5.15,5.32,-0.3,7.41
22.390975952148438,4.57,5.44,-0.4,7.11
22.391577005386353,4.04,5.87,-1.13,7.21
22.393126010894775,3.95,6.97,-2.22,8.31
22.39429998397827,4.09,7.85,-3.76,9.61
22.39488410949707,2.8,8.78,-2.66,9.59
22.396079063415527,-0.34,10.26,0.09,10.26
22.39729118347168,-0.53,9.38,-2.5,9.72
22.406909942626953,2.28,6.27,-4.26,7.91
22.416850090026855,5.06,4.38,-3.58,7.58
22.49042510986328,10.15,4.38,-2.7,11.37
22.490994930267334,8.72,-1.54,-1.68,9.01
22.491901874542236,-0.35,-2.99,0.72,3.09
22.493128061294556,-6.64,-1.55,-2.65,7.31
22.494286060333252,-1.79,0.05,-5.1,5.4
22.494863986968994,5.79,-0.85,-2.49,6.35
22.496083974838257,10.2,-1.99,-0.22,10.39
22.497303009033203,10.95,-3.0,1.01,11.39
22.506793975830078,9.4,-3.51,2.03,10.23
22.516741037368774,7.52,-3.75,2.75,8.84
22.591125011444092,6.42,-4.12,2.74,8.1
22.592149019241333,6.66,-4.2,2.33,8.21
22.592791080474854,7.29,-3.87,2.07,8.5
22.594090938568115,7.37,-3.64,2.17,8.5
22.595242977142334,6.98,-3.46,2.27,8.11
22.595823049545288,6.68,-3.26,2.36,7.79
22.59705901145935,6.4,-2.99,2.47,7.48
22.59825611114502,6.02,-2.65,2.5,7.03
22.606685161590576,5.06,-2.05,2.62,6.05
22.6165828704834,3.8,-1.6,2.68,4.91
22.691207885742188,3.12,-1.16,2.5,4.16
22.692212104797363,2.82,-0.48,2.79,3.99
22.69285011291504,2.46,0.62,3.53,4.34
22.694097995758057,1.57,2.29,4.08,4.93
22.69524908065796,-0.18,4.0,3.35,5.22
22.695828914642334,-2.05,5.58,0.91,6.01
22.697026014328003,-3.48,7.56,-2.22,8.61
22.698206901550293,-4.95,10.38,-4.24,12.25
22.706435203552246,-7.55,12.06,-4.89,15.04
22.71647596359253,-10.0,11.03,-4.97,15.69
22.790807008743286,-10.63,7.81,-3.85,13.74
22.791758060455322,-10.36,5.05,-3.06,11.92
22.79236602783203,-11.77,3.85,-5.1,13.39
22.793538093566895,-13.98,2.67,-7.35,16.01
22.79467010498047,-15.36,1.02,-5.77,16.43
22.79525089263916,-16.2,-0.73,-3.81,16.65
22.796431064605713,-16.59,-0.62,-4.87,17.3
22.797587871551514,-14.39,3.96,-6.43,16.25
22.806125164031982,-15.03,0.53,-7.26,16.69
22.816361904144287,-16.43,-2.34,-6.98,18.0
22.88630199432373,-8.49,-0.86,-6.82,10.92
22.88690185546875,11.33,4.1,3.45,12.53
22.887465000152588,20.19,4.1,11.85,23.76
22.888577938079834,9.26,1.79,2.13,9.66
22.890099048614502,-4.22,1.83,-1.63,4.87
22.8906831741333,-8.68,3.02,-0.47,9.2
22.892178058624268,-8.06,5.86,-1.68,10.1
22.896183967590332,-7.08,6.35,-2.17,9.75
22.90598487854004,-4.93,1.56,-0.59,5.2
22.916184902191162,-3.3,-0.66,0.6,3.41
22.986855030059814,-4.13,-0.66,-0.41,4.2
22.98747491836548,-6.14,-2.01,-2.73,7.01
22.98809003829956,-6.18,-0.22,-3.01,6.87
22.989655017852783,-5.32,0.85,-2.14,5.79
22.99115300178528,-3.95,-0.07,-2.09,4.46
22.991733074188232,-2.53,-0.11,-2.14,3.31
22.992913007736206,-1.36,-0.01,-1.53,2.04
22.99608302116394,-0.89,-0.08,-0.89,1.26
23.00608491897583,-0.89,0.13,-0.6,1.08
23.016109943389893,-0.87,0.3,-0.48,1.03
23.08608388900757,-0.52,0.16,0.07,0.54
23.08668088912964,0.07,-0.31,0.67,0.74
23.087255001068115,0.16,-0.47,0.74,0.89
23.0883731842041,-0.2,-0.28,0.41,0.53
23.089820861816406,-0.54,-0.19,0.24,0.62
23.090408086776733,-0.44,-0.15,0.1,0.47
23.091943979263306,-0.17,-0.09,-0.17,0.25
23.09598207473755,-0.09,0.13,-0.5,0.52
23.106154918670654,-0.08,0.31,-0.73,0.79
23.115971088409424,-0.23,0.37,-0.58,0.72
23.1858491897583,-0.58,0.21,-0.38,0.72
23.18643808364868,-0.81,0.08,-0.48,0.94
23.187018871307373,-0.77,0.11,-0.89,1.18
23.18811798095703,-0.42,0.11,-1.07,1.15
23.189544200897217,0.08,-0.01,-0.57,0.57
23.19012999534607,0.42,-0.1,-0.28,0.51
23.19165802001953,0.35,-0.14,-0.35,0.51
23.195858001708984,0.09,-0.13,-0.26,0.3
23.20577096939087,-0.17,0.03,-0.19,0.25
23.21578097343445,-0.36,0.08,-0.23,0.43
23.285382986068726,-0.45,0.03,-0.28,0.53
23.285984992980957,-0.46,-0.05,-0.37,0.59
23.286563873291016,-0.36,-0.02,-0.59,0.69
23.28768301010132,-0.19,0.01,-0.9,0.91
23.28878116607666,0.15,-0.14,-0.7,0.72
23.28973698616028,0.29,-0.08,-0.49,0.57
23.29122805595398,0.34,0.03,-0.27,0.43
23.295688152313232,0.2,0.01,-0.19,0.27
23.305612087249756,0.2,-0.06,0.05,0.21
23.315659046173096,0.41,-0.02,0.44,0.6
23.385016918182373,0.42,0.07,0.28,0.5
23.385612964630127,0.04,0.16,0.07,0.17
23.386189937591553,-0.04,0.2,-0.11,0.23
23.387360095977783,-0.13,0.17,-0.63,0.66
23.38850688934326,-0.53,0.11,-0.66,0.85
23.389087200164795,-0.81,0.07,-0.44,0.92
23.39093804359436,-0.91,-0.06,-0.25,0.94
23.39552903175354,-0.85,-0.02,-0.11,0.85
23.40546202659607,-0.54,0.17,-0.23,0.61
23.415570974349976,-0.16,0.2,-0.36,0.44
23.48469305038452,0.31,0.17,-0.23,0.42
23.485293865203857,0.81,0.19,-0.24,0.86
23.48587417602539,1.44,0.17,-0.06,1.45
23.48699712753296,2.1,0.31,-0.09,2.12
23.488095998764038,2.42,0.52,-0.27,2.48
23.488676071166992,2.84,0.68,-0.24,2.93
23.490516185760498,3.25,0.82,-0.69,3.42
23.495366096496582,3.17,0.89,-0.82,3.39
23.505306005477905,3.25,0.85,-0.69,3.42
23.51532506942749,3.39,0.82,-0.63,3.54
23.58496904373169,3.47,0.93,-0.46,3.62
23.585569858551025,3.79,1.18,-0.27,3.97
23.586148977279663,3.89,1.71,-0.48,4.27
23.587270975112915,3.33,4.05,-1.1,5.35
23.588368892669678,3.23,5.4,0.64,6.32
23.588942050933838,3.4,4.38,0.61,5.57
23.590780019760132,3.83,4.38,0.44,5.83
23.59523606300354,3.67,4.35,0.4,5.7
23.605252027511597,3.96,3.92,0.49,5.59
23.615226984024048,4.52,3.73,-0.02,5.86
23.685298919677734,5.33,3.73,-0.32,6.51
23.685858011245728,5.98,3.92,-0.61,7.17
23.68643617630005,6.19,4.09,-0.79,7.46
23.687600135803223,5.99,4.23,-0.58,7.35
23.688749074935913,5.42,4.33,-0.56,6.95
23.689327001571655,4.36,3.88,-0.49,5.85
23.691203117370605,3.04,3.6,-0.47,4.73
23.695137977600098,2.09,4.29,-0.46,4.79
23.705096006393433,1.56,5.24,-0.56,5.49
23.715044021606445,1.01,5.52,-1.3,5.76
23.78550910949707,-0.11,6.26,-3.01,6.94
23.786110877990723,-0.06,7.23,-5.29,8.95
23.786686897277832,2.55,7.1,-4.83,8.95
23.787796020507812,5.05,6.62,-2.81,8.78
23.788896083831787,7.02,4.28,-1.62,8.37
23.789472103118896,8.23,1.39,-0.73,8.37
23.79127788543701,6.08,-1.97,-0.45,6.4
23.794957160949707,0.06,-2.21,-0.36,2.23
23.80488109588623,-4.51,-1.1,-3.61,5.88
23.814916133880615,-1.17,1.56,-5.68,6.0
23.885950088500977,6.02,0.43,-4.71,7.65
23.886549949645996,10.49,-1.16,-3.02,10.97
23.88713002204895,11.54,-1.86,-1.43,11.77
23.88830304145813,10.31,-1.99,0.03,10.5
23.889782905578613,8.07,-2.37,1.07,8.47
23.89074206352234,6.13,-3.03,1.43,6.98
23.89189910888672,5.3,-3.81,1.31,6.65
23.894822120666504,5.31,-3.92,1.04,6.68
23.904715061187744,5.46,-3.56,0.61,6.54
23.914780139923096,5.18,-3.24,0.31,6.11
23.986042022705078,4.62,-3.08,0.01,5.55
23.986643075942993,4.25,-3.01,-0.16,5.21
23.98722219467163,4.06,-2.79,-0.1,4.92
23.988437175750732,3.77,-2.49,0.17,4.52
23.99033212661743,3.27,-2.02,0.61,3.89
23.990920066833496,2.61,-1.32,1.06,3.11
23.99209690093994,2.05,-0.59,1.57,2.64
23.99464988708496,1.77,-0.16,1.89,2.59
24.004648208618164,1.31,0.76,1.4,2.06
24.014636993408203,-0.08,2.35,-0.09,2.35
24.086586952209473,-1.7,3.52,-1.87,4.33
24.087188005447388,-2.41,4.94,-2.84,6.18
24.087769985198975,-2.71,6.5,-2.62,7.51
24.088892936706543,-3.26,7.27,-1.95,8.2
24.09072208404541,-4.08,6.93,-1.82,8.24
24.091309070587158,-4.56,6.22,-2.26,8.03
24.09252691268921,-4.94,6.42,-3.14,8.68
24.09451699256897,-5.81,7.04,-4.14,10.02
24.104496955871582,-7.68,7.82,-4.82,11.97
24.114519119262695,-9.38,7.52,-4.9,12.98
24.186738967895508,-9.37,4.92,-3.99,11.31
24.187340021133423,-9.09,1.66,-2.75,9.64
24.18792200088501,-9.6,-0.53,-1.75,9.77
24.189391136169434,-10.43,-1.33,-1.41,10.6
24.19088315963745,-11.16,-1.98,-1.46,11.42
24.191477060317993,-11.01,-1.74,-1.51,11.24
24.192713022232056,-9.57,-1.16,-1.99,9.84
24.19417905807495,-8.31,-0.13,-2.63,8.71
24.204197883605957,-7.68,0.09,-2.76,8.16
24.21421718597412,-7.83,-0.51,-2.27,8.16
24.28708791732788,-7.64,3.41,-1.73,8.54
24.28768301010132,-4.98,10.53,-1.67,11.76
24.288261890411377,-3.41,2.78,-3.48,5.6
24.289752960205078,7.51,-2.27,1.69,8.02
24.29120397567749,14.6,-1.93,11.62,18.75
24.291795015335083,8.51,0.14,8.18,11.8
24.292948007583618,-2.44,1.51,1.13,3.08
24.2940890789032,-11.96,-0.22,-2.28,12.17
24.304006099700928,-11.58,1.0,-3.29,12.07
24.31400489807129,-7.27,5.77,-3.32,9.85
24.38659405708313,-4.09,9.86,-2.46,10.95
24.38719892501831,-2.82,6.65,-2.32,7.58
24.387781143188477,-3.58,2.46,-2.05,4.8
24.389235973358154,-5.4,-0.77,-2.36,5.94
24.390707969665527,-5.4,-0.34,-0.35,5.42
24.39126706123352,-5.23,-1.27,1.04,5.48
24.392488956451416,-5.03,-2.0,-0.01,5.41
24.393907070159912,-4.36,-0.97,-1.14,4.6
24.403921127319336,-3.2,0.14,-0.94,3.33
24.413925170898438,-2.52,0.42,-0.73,2.65
24.486464023590088,-1.83,0.18,-0.61,1.93
24.48705816268921,-0.99,-0.16,-0.26,1.03
24.487637042999268,-0.13,-0.24,0.16,0.31
24.48914098739624,0.49,0.01,0.39,0.62
24.49025797843933,0.96,-0.07,0.35,1.02
24.491199016571045,1.01,-0.23,0.45,1.12
24.49242401123047,1.15,-0.41,0.19,1.23
24.49390697479248,0.9,-0.56,-0.31,1.1
24.503995895385742,0.24,-0.18,-0.92,0.96
24.514070987701416,-0.54,0.25,-1.2,1.33
24.586639881134033,-0.76,0.34,-1.49,1.7
24.587244033813477,-0.61,0.28,-1.64,1.77
24.587828159332275,-0.58,0.1,-1.41,1.52
24.589351177215576,-0.86,0.08,-1.11,1.4
24.590458869934082,-1.06,0.14,-0.42,1.14
24.591376066207886,-1.03,0.0,0.19,1.04
24.59254002571106,-1.02,-0.13,0.47,1.13
24.59368896484375,-0.99,-0.11,0.41,1.07
24.603722095489502,-0.87,0.11,-0.03,0.87
24.613753080368042,-0.59,0.24,-0.41,0.75
24.684694051742554,-0.29,0.11,-0.34,0.46
24.686616897583008,-0.07,-0.03,-0.56,0.56
24.687182903289795,-0.08,-0.03,-0.79,0.79
24.688365936279297,-0.25,-0.04,-0.87,0.9
24.689794063568115,-0.26,0.01,-0.83,0.86
24.690382957458496,-0.23,-0.06,-0.61,0.65
24.691972017288208,-0.05,-0.05,-0.54,0.54
24.69355297088623,0.27,-0.01,-0.28,0.38
24.70356297492981,0.36,-0.06,-0.09,0.37
24.71366786956787,0.19,-0.05,-0.05,0.2
24.72359299659729,0.13,0.04,-0.02,0.13
24.786099910736084,0.16,0.08,-0.08,0.19
24.78668212890625,0.08,0.11,-0.37,0.39
24.78780698776245,0.02,0.12,-0.55,0.56
24.789233207702637,0.01,0.04,-0.54,0.54
24.789812088012695,-0.14,0.0,-0.42,0.44
24.79132318496704,-0.44,0.23,-0.35,0.6
24.79346513748169,-0.8,0.45,0.03,0.91
24.803415060043335,-0.72,0.44,0.33,0.9
24.813452005386353,-0.29,0.25,0.19,0.42
24.823410034179688,0.26,0.06,0.07,0.27
24.885732173919678,0.8,0.03,-0.01,0.8
24.886327981948853,1.12,0.07,-0.1,1.12
24.887496948242188,1.46,0.11,-0.35,1.5
24.888988971710205,1.87,0.03,-0.67,1.98
24.889569997787476,2.16,0.01,-0.86,2.32
24.891028881072998,2.21,0.09,-0.62,2.29
24.893182039260864,2.28,0.36,-0.19,2.31
24.90319299697876,2.62,0.43,0.13,2.65
24.91319990158081,3.21,0.54,0.18,3.26
24.92327308654785,3.5,0.76,-0.16,3.58
24.985661029815674,3.23,1.25,-0.58,3.51
24.986268043518066,2.68,1.68,-0.69,3.23
24.987526893615723,2.59,1.86,-0.6,3.24
24.9889919757843,2.96,1.82,-0.12,3.47
24.989578008651733,3.14,1.74,0.04,3.59
24.99078106880188,3.64,2.22,-0.6,4.3
24.993196964263916,4.63,3.56,-0.37,5.85
25.003156185150146,4.3,3.77,0.31,5.72
25.013115882873535,4.0,3.59,-0.06,5.37
25.023044109344482,3.84,3.37,0.84,5.17
25.086230039596558,3.47,2.84,0.84,4.56
25.086769104003906,3.47,2.48,0.83,4.34
25.088233947753906,3.85,2.66,0.62,4.72
25.08933401107788,4.14,2.95,0.05,5.08
25.089911937713623,4.78,3.71,-0.22,6.05
25.091400146484375,5.15,4.42,-0.67,6.81
25.09291410446167,5.14,4.71,-0.46,6.98
25.103000164031982,4.84,4.45,-0.32,6.58
25.11302614212036,4.62,4.13,-0.46,6.21
25.123018980026245,4.41,4.03,-0.78,6.02
25.18647289276123,4.05,4.09,-1.07,5.85
25.18709087371826,4.35,4.1,-1.24,6.1
25.188536167144775,4.21,4.98,-1.1,6.61
25.18969488143921,1.02,7.18,-0.47,7.26
25.19028091430664,-1.82,8.12,-2.17,8.59
25.191864013671875,1.17,8.15,-4.78,9.52
25.193110942840576,4.69,6.24,-3.6,8.59
25.202880859375,6.33,4.22,-2.14,7.9
25.269880056381226,7.83,2.11,-1.29,8.21
25.27048397064209,8.93,0.22,-0.66,8.95
25.271071910858154,1.61,-0.83,0.76,1.96
25.271663188934326,-5.45,-0.96,-1.95,5.86
25.272826194763184,-4.04,0.82,-5.35,6.75
25.27397108078003,2.52,0.92,-4.39,5.14
25.274930000305176,7.34,-0.3,-1.82,7.56
25.282805919647217,9.17,-1.06,-0.09,9.23
25.292792081832886,8.3,-1.56,0.64,8.46
25.30282211303711,6.43,-2.29,1.03,6.9
25.370368003845215,4.91,-3.29,0.95,5.98
25.37097692489624,4.44,-4.02,0.71,6.03
25.371562004089355,4.88,-4.19,0.85,6.48
25.37214994430542,5.63,-3.65,0.95,6.77
25.373332977294922,6.06,-2.68,1.03,6.7
25.37446689605713,6.23,-2.04,1.02,6.63
25.375444889068604,5.93,-2.1,1.28,6.41
25.382616996765137,5.54,-2.36,1.53,6.21
25.392755031585693,5.09,-2.37,2.15,6.01
25.40254807472229,4.4,-1.99,2.57,5.47
25.470009088516235,3.67,-1.27,2.02,4.37
25.470620155334473,3.55,-0.33,1.06,3.71
25.471210956573486,3.58,0.06,0.48,3.61
25.471793174743652,1.73,0.5,0.01,1.8
25.472962856292725,-0.47,1.38,-0.6,1.57
25.47408699989319,-1.45,2.01,-1.07,2.69
25.475044012069702,-1.38,2.7,-1.23,3.27
25.48245620727539,-1.34,3.81,-1.2,4.21
25.492346048355103,-1.98,4.95,-1.27,5.48
25.502431869506836,-3.4,5.66,-2.35,7.0
25.57105016708374,-5.23,5.84,-3.98,8.79
25.57165288925171,-6.74,6.19,-4.81,10.33
25.57223892211914,-8.05,6.96,-4.81,11.67
25.57279109954834,-9.32,7.59,-4.9,12.98
25.573948860168457,-10.53,7.59,-5.46,14.08
25.575443983078003,-10.92,6.07,-5.73,13.74
25.57604217529297,-10.27,3.32,-5.2,11.98
25.582393169403076,-9.85,0.65,-4.24,10.74
25.592287063598633,-10.27,-0.85,-3.25,10.8
25.60239887237549,-11.64,-0.9,-2.66,11.97
25.669941902160645,-12.05,-0.97,-2.23,12.29
25.67055606842041,-10.88,-1.36,-1.47,11.06
25.671141147613525,-8.55,-1.0,-0.91,8.65
25.671721935272217,-6.46,-0.58,-0.59,6.51
25.672873973846436,-5.71,-0.54,0.02,5.73
25.6739821434021,-5.2,2.43,0.54,5.76
25.674557209014893,-2.53,9.48,0.61,9.83
25.68229389190674,-2.41,5.95,0.09,6.42
25.692030906677246,5.17,0.87,1.83,5.55
25.702209949493408,16.57,-0.79,12.3,20.65
25.76756715774536,11.6,0.33,9.28,14.85
25.76834797859192,-0.86,2.3,0.87,2.6
25.76892399787903,-10.17,0.64,-1.21,10.26
25.769501209259033,-11.19,-0.92,-0.57,11.24
25.770623207092285,-8.91,0.71,-1.42,9.05
25.77172613143921,-5.73,3.65,-1.42,6.94
25.7722749710083,-3.28,4.74,-0.36,5.77
25.78208017349243,-2.09,4.48,-1.11,5.06
25.792015075683594,-3.19,2.79,-2.18,4.76
25.802088975906372,-5.85,1.84,-3.35,6.98
25.868234157562256,-6.75,1.35,-4.44,8.19
25.868839979171753,-4.97,2.63,-1.3,5.77
25.869418144226074,-3.16,-0.34,1.28,3.42
25.869997024536133,-2.61,-1.85,1.18,3.4
25.871114015579224,-2.58,-1.02,0.22,2.78
25.872230052947998,-2.45,-0.27,0.15,2.46
25.872806072235107,-2.33,-0.17,0.28,2.35
25.881918907165527,-1.78,-0.02,0.06,1.78
25.892072200775146,-1.24,0.17,-0.2,1.26
25.90189218521118,-0.71,0.0,-0.18,0.73
25.968509197235107,-0.23,-0.2,-0.11,0.32
25.969106197357178,0.07,-0.29,-0.14,0.32
25.969674110412598,0.08,-0.17,-0.44,0.47
25.97024703025818,-0.05,0.16,-0.75,0.76
25.97138500213623,-0.14,0.25,-1.04,1.07
25.972487926483154,-0.2,0.24,-1.35,1.38
25.973061084747314,-0.34,0.2,-1.59,1.63
25.981781005859375,-0.52,0.23,-1.62,1.71
25.992085933685303,-0.58,0.15,-1.24,1.37
26.001744031906128,-0.28,0.0,-0.88,0.92
26.069025993347168,0.14,-0.05,-0.73,0.74
26.06963014602661,0.45,-0.09,-0.57,0.73
26.070224046707153,0.52,-0.15,-0.33,0.63
26.070801973342896,0.49,-0.13,-0.12,0.52
26.07192301750183,0.44,-0.11,0.2,0.49
26.07303810119629,0.35,-0.13,0.43,0.56
26.07361888885498,0.12,-0.29,0.44,0.54
26.081640005111694,-0.12,-0.21,0.2,0.31
26.091603994369507,-0.3,-0.01,-0.08,0.31
26.101603031158447,-0.47,0.0,-0.26,0.53
26.167898178100586,-0.6,-0.08,-0.48,0.77
26.168498039245605,-0.24,-0.12,-0.73,0.77
26.169069051742554,-0.05,-0.15,-0.45,0.47
26.169651985168457,-0.01,0.01,-0.12,0.12
26.170799016952515,-0.2,0.2,-0.15,0.32
26.171930074691772,-0.58,0.17,-0.57,0.83
26.17251205444336,-1.4,-0.11,-0.17,1.41
26.181452989578247,-1.62,-0.01,0.26,1.64
26.19147801399231,-1.3,0.22,-0.07,1.32
26.20135498046875,-1.09,0.29,-0.36,1.18
26.26805019378662,-0.81,0.44,-0.59,1.09
26.2686710357666,-0.37,0.38,-0.5,0.72
26.269259929656982,0.07,-0.12,-0.15,0.2
26.269843101501465,0.48,-0.44,0.2,0.68
26.271047115325928,0.73,-0.49,0.63,1.08
26.272207021713257,0.71,-0.29,0.79,1.1
26.27279305458069,0.72,-0.02,0.43,0.83
26.281301021575928,1.15,0.06,0.04,1.15
26.291285037994385,1.6,0.05,-0.16,1.6
26.30133819580078,1.74,0.15,-0.22,1.76
26.36832094192505,1.82,0.29,-0.23,1.85
26.368935108184814,2.16,0.34,-0.48,2.23
26.3695170879364,2.62,0.29,-0.72,2.73
26.370105981826782,2.66,0.18,-0.5,2.71
26.371245861053467,2.81,0.16,-0.12,2.81
26.37234592437744,3.14,0.17,0.15,3.14
26.372929096221924,3.95,0.24,0.37,3.97
26.38117790222168,4.65,0.59,-0.16,4.69
26.39115810394287,4.78,1.08,-0.59,4.93
26.40090799331665,5.26,1.43,-1.34,5.61
26.46886110305786,5.82,1.31,-1.59,6.17
26.469467163085938,5.73,1.3,-1.51,6.06
26.47005319595337,4.68,1.57,-0.73,4.99
26.470655918121338,3.26,2.64,-0.05,4.19
26.471778869628906,2.61,5.03,-0.75,5.71
26.472877025604248,2.58,5.92,1.36,6.59
26.47345209121704,2.04,5.6,1.77,6.21
26.481081008911133,1.72,5.42,1.51,5.88
26.49095916748047,1.95,5.1,1.74,5.73
26.501052856445312,2.87,4.85,1.62,5.86
26.570138931274414,3.63,4.79,0.97,6.08
26.57077407836914,3.78,4.66,0.37,6.01
26.57135009765625,3.76,4.56,-0.13,5.91
26.57192611694336,3.35,4.31,-0.36,5.47
26.573090076446533,2.54,5.01,-0.47,5.63
26.57424306869507,2.27,6.59,-1.04,7.04
26.574822902679443,3.0,7.1,-2.51,8.1
26.58097219467163,3.41,6.12,-2.17,7.33
26.59085988998413,1.36,6.5,-0.77,6.68
26.600692987442017,-0.13,8.02,-2.66,8.45
26.669454097747803,0.76,6.42,-5.05,8.2
26.67006206512451,3.51,4.95,-3.57,7.04
26.670671939849854,7.35,3.01,-2.35,8.28
26.67125415802002,10.65,0.28,-1.34,10.73
26.672375202178955,7.99,-1.55,0.7,8.16
26.67347288131714,-1.32,-2.57,0.44,2.92
26.674057006835938,-2.71,-2.38,-3.13,4.77
26.680752992630005,2.1,-0.8,-3.88,4.48
26.69076704978943,7.2,-1.12,-1.76,7.49
26.700772047042847,9.55,-2.04,0.01,9.76
26.770251035690308,9.78,-2.73,1.0,10.2
26.770864963531494,8.45,-3.06,1.66,9.13
26.771445989608765,6.85,-3.54,2.09,7.98
26.77204203605652,5.84,-4.29,2.16,7.56
26.773218154907227,5.6,-4.32,1.76,7.28
26.77436900138855,5.71,-3.92,1.3,7.04
26.77495002746582,5.5,-3.54,1.01,6.61
26.780606031417847,4.89,-3.15,0.68,5.85
26.79061508178711,4.22,-2.93,0.43,5.15
26.80059814453125,3.75,-2.66,0.31,4.6
26.869944095611572,3.55,-2.39,0.42,4.3
26.870574951171875,3.37,-2.08,0.92,4.06
26.871159076690674,3.17,-1.69,1.45,3.87
26.8717360496521,3.16,-1.1,1.91,3.85
26.87287998199463,2.75,-0.13,2.07,3.44
26.87398099899292,1.27,1.26,1.29,2.2
26.874564170837402,-0.67,2.34,-0.47,2.47
26.880587100982666,-1.73,3.23,-2.14,4.24
26.890467166900635,-1.85,4.64,-2.71,5.68
26.900497913360596,-2.07,6.18,-2.2,6.87
26.9707350730896,-3.17,7.27,-2.05,8.19
26.97134804725647,-4.68,7.66,-3.03,9.47
26.97193193435669,-5.82,7.77,-3.99,10.49
26.97250986099243,-6.19,7.83,-4.65,11.01
26.973658084869385,-6.43,7.6,-5.01,11.14
26.974792003631592,-7.1,6.79,-4.88,10.96
26.9756920337677,-7.97,4.72,-4.08,10.12
26.980306148529053,-8.76,1.62,-2.81,9.34
26.990328073501587,-9.65,-0.71,-2.11,9.9
27.000315189361572,-10.39,-1.36,-1.86,10.64
27.07134199142456,-10.77,-0.68,-1.88,10.95
27.071949005126953,-10.24,-0.42,-2.04,10.44
27.07253885269165,-8.71,-0.41,-2.27,9.01
27.07312297821045,-7.08,-0.25,-2.54,7.52
27.07429790496826,-5.8,1.65,-2.59,6.56
27.075793027877808,-4.24,5.98,-2.14,7.63
27.076758861541748,-5.95,3.18,-2.1,7.06
27.080174922943115,-8.32,-0.75,-1.87,8.56
27.090167999267578,-6.37,-1.75,-0.93,6.67
27.100150108337402,3.69,1.42,2.71,4.79
27.171605110168457,10.41,2.17,8.17,13.4
27.172209978103638,6.62,1.49,5.32,8.62
27.17281198501587,-1.9,1.28,0.54,2.35
27.17341899871826,-7.79,-0.08,-1.21,7.88
27.174563884735107,-6.95,-0.08,-1.3,7.07
27.17598295211792,-4.24,0.95,-1.53,4.6
27.176927089691162,-2.92,2.85,-1.48,4.34
27.180047035217285,-3.19,4.23,-1.49,5.5
27.19008207321167,-3.3,3.17,-2.09,5.03
27.200062036514282,-3.76,2.01,-1.98,4.7
27.270925045013428,-6.29,-0.27,-3.59,7.24
27.271533012390137,-5.65,1.09,-3.28,6.62
27.272127151489258,-3.44,1.28,-0.5,3.7
27.27271008491516,-2.22,-0.96,0.33,2.44
27.273832082748413,-2.1,-1.69,-0.64,2.77
27.275274991989136,-1.98,-0.96,-1.24,2.52
27.275854110717773,-1.77,-0.17,-1.12,2.1
27.27987003326416,-1.6,0.31,-0.29,1.65
27.28983998298645,-1.53,0.5,0.32,1.64
27.299828052520752,-1.31,0.27,0.6,1.46
27.371217012405396,-0.92,-0.06,1.01,1.36
27.371817111968994,-0.41,-0.11,1.15,1.22
27.37240505218506,0.05,-0.14,0.97,0.98
27.372981071472168,0.44,-0.26,0.54,0.74
27.374142169952393,0.54,-0.21,0.33,0.66
27.37562108039856,0.5,0.0,-0.14,0.51
27.376198053359985,0.34,0.14,-0.67,0.76
27.379765033721924,0.0,0.24,-1.18,1.2
27.389680862426758,-0.43,0.28,-1.77,1.84
27.399659156799316,-0.88,0.16,-1.79,2.0
27.40960693359375,-1.05,0.1,-1.27,1.65
27.472031116485596,-1.05,0.1,-0.63,1.22
27.472546100616455,-0.74,-0.01,0.34,0.81
27.47312903404236,-0.56,-0.17,0.83,1.01
27.47465419769287,-0.66,-0.19,0.51,0.85
27.475764989852905,-0.64,0.0,-0.4,0.75
27.476348876953125,-0.35,-0.01,-1.08,1.13
27.4794979095459,-0.19,-0.07,-0.82,0.84
27.490180015563965,-0.38,-0.04,-0.87,0.95
27.49958300590515,-0.52,0.0,-0.71,0.88
27.50956106185913,-0.48,-0.04,-0.71,0.85
27.57183313369751,-0.29,-0.1,-0.37,0.48
27.572417974472046,-0.17,0.04,0.13,0.21
27.573001861572266,-0.16,0.06,0.15,0.22
27.574362993240356,-0.03,0.02,0.1,0.1
27.57564401626587,0.22,0.11,0.17,0.29
27.576205015182495,0.22,0.06,0.17,0.28
27.579503059387207,-0.09,0.03,-0.23,0.24
27.589425086975098,-0.23,0.09,-0.58,0.63
27.599430084228516,-0.1,0.08,-0.44,0.45
27.609426021575928,0.13,0.01,-0.32,0.34
27.670695066452026,0.14,0.09,-0.48,0.5
27.671305179595947,0.01,0.24,-0.54,0.59
27.671889066696167,0.1,0.26,-0.4,0.48
27.67303991317749,0.25,0.18,-0.23,0.38
27.674511909484863,0.49,0.08,0.0,0.49
27.67510986328125,0.97,-0.05,0.2,0.99
27.679347038269043,1.34,-0.16,0.33,1.38
27.68924617767334,1.4,-0.04,0.18,1.41
27.69937801361084,1.43,0.11,0.08,1.43
27.709294080734253,1.46,0.15,-0.1,1.47
27.770512104034424,1.33,0.27,-0.52,1.45
27.77112913131714,1.16,0.3,-0.67,1.37
27.77171516418457,1.34,0.37,-0.53,1.48
27.772845029830933,1.48,0.39,-0.47,1.6
27.77400302886963,1.4,0.55,-0.19,1.51
27.7749080657959,1.58,0.79,-0.18,1.77
27.779206037521362,1.9,1.03,-0.53,2.22
27.789008140563965,2.4,1.28,-0.79,2.83
27.799281120300293,3.17,1.08,-0.58,3.39
27.809131145477295,3.37,1.21,-0.82,3.67
27.871284008026123,3.81,1.39,-0.56,4.09
27.871883869171143,4.01,2.12,-1.7,4.84
27.87246608734131,4.04,3.92,-1.69,5.87
27.87360405921936,3.22,3.26,-0.95,4.67
27.875033855438232,2.76,3.03,-0.7,4.15
27.875611066818237,2.66,3.02,0.18,4.02
27.87913203239441,3.11,2.75,0.33,4.16
27.889009952545166,3.44,3.06,0.61,4.64
27.89903211593628,3.81,3.64,0.85,5.33
27.908961057662964,4.42,4.15,0.85,6.12
27.97181797027588,5.22,4.58,0.72,6.98
27.972404956817627,5.46,4.5,0.81,7.12
27.972981929779053,5.29,4.39,0.56,6.89
27.97442388534546,4.58,4.42,0.19,6.36
27.97557306289673,3.68,4.52,-0.1,5.82
27.976151943206787,3.02,5.38,-0.59,6.19
27.978954076766968,3.18,6.7,-0.75,7.45
27.988751888275146,4.47,7.17,-1.53,8.58
27.99888300895691,4.97,6.58,-1.87,8.45
28.008815050125122,1.87,7.61,-1.18,7.92
28.07197403907776,-2.27,8.86,-2.72,9.54
28.072568893432617,-1.22,8.44,-5.14,9.95
28.073153018951416,3.07,7.14,-3.01,8.33
28.074684143066406,6.66,5.77,-1.59,8.95
28.07588291168213,9.16,3.2,-1.29,9.78
28.07646608352661,8.9,-1.02,-0.66,8.98
28.07865285873413,1.12,-2.38,0.31,2.64
28.08879518508911,-5.76,-2.41,-2.78,6.83
28.09873914718628,-3.85,0.68,-5.62,6.84
28.10869789123535,4.28,0.25,-4.27,6.05
28.17198419570923,9.48,-1.17,-1.79,9.71
28.172580003738403,11.14,-1.78,0.07,11.28
28.1731960773468,10.64,-2.03,1.28,10.9
28.174702167510986,8.84,-2.29,2.34,9.42
28.175878047943115,7.17,-2.91,2.67,8.18
28.17645788192749,6.49,-3.8,2.48,7.91
28.178513050079346,6.84,-4.18,2.1,8.28
28.188663959503174,7.1,-3.84,1.51,8.21
28.19859790802002,6.56,-3.18,0.82,7.33
28.208498001098633,5.49,-3.01,0.45,6.27
28.272258043289185,4.48,-3.16,0.23,5.48
28.272881984710693,3.8,-3.0,0.06,4.84
28.273797035217285,3.26,-2.7,0.33,4.24
28.274927139282227,2.79,-2.22,0.83,3.66
28.276031970977783,2.32,-1.54,1.2,3.03
28.27661108970642,1.77,-0.61,1.81,2.6
28.2783260345459,1.21,0.39,2.39,2.7
28.288572072982788,0.77,1.41,1.89,2.48
28.29842710494995,-0.23,2.87,-0.15,2.88
28.308353900909424,-1.8,4.55,-2.64,5.55
28.373045921325684,-3.16,6.37,-4.25,8.28
28.373977184295654,-4.34,8.25,-4.53,10.36
28.374556064605713,-5.43,8.97,-4.15,11.27
28.37569808959961,-6.03,8.14,-3.73,10.79
28.376816034317017,-6.14,6.79,-3.3,9.73
28.377750873565674,-6.44,5.49,-3.6,9.19
28.378960132598877,-7.5,5.06,-5.09,10.38
28.388248920440674,-8.77,4.7,-6.19,11.71
28.39832901954651,-9.38,3.44,-5.27,11.29
28.408196926116943,-9.77,1.9,-3.27,10.47
28.473584175109863,-10.57,0.08,-2.13,10.78
28.47445297241211,-11.27,-1.57,-2.31,11.61
28.475088119506836,-11.36,-2.25,-3.15,12.0
28.476337909698486,-10.16,-1.99,-3.09,10.8
28.47783088684082,-8.34,-1.23,-2.81,8.88
28.47842001914978,-7.78,0.08,-2.97,8.32
28.479595184326172,-6.54,5.52,-2.77,8.99
28.488163948059082,-3.44,9.67,-1.02,10.31
28.49802303314209,-4.89,2.01,-0.94,5.36
28.50823402404785,0.39,-2.4,0.5,2.48
28.573723077774048,11.03,-0.45,9.31,14.44
28.574589014053345,10.87,0.58,12.14,16.3
28.575229167938232,1.31,0.82,2.27,2.74
28.57649302482605,-9.43,0.14,-2.6,9.78
28.578022956848145,-11.63,0.61,-3.29,12.1
28.578612089157104,-8.22,2.56,-3.42,9.26
28.579787015914917,-4.83,6.43,-2.73,8.49
28.58791708946228,-2.65,6.52,-2.46,7.45
28.598056077957153,-2.64,3.36,-1.89,4.67
28.607934951782227,-5.62,0.13,-3.47,6.6
28.672677040100098,-7.11,0.3,-3.57,7.96
28.673540115356445,-6.74,1.32,-1.44,7.01
28.674137115478516,-6.12,-0.63,-0.56,6.17
28.675323009490967,-5.03,-1.57,-0.77,5.32
28.676465034484863,-3.86,-1.24,-1.3,4.25
28.677041053771973,-2.56,-0.53,-1.31,2.92
28.67858600616455,-1.63,0.09,-1.1,1.96
28.68777108192444,-0.96,0.18,-0.63,1.16
28.6977219581604,-0.38,0.18,-0.27,0.49
28.707709074020386,0.0,0.28,0.05,0.28
28.773041009902954,0.16,0.13,0.37,0.42
28.773866176605225,0.43,-0.26,0.8,0.94
28.774440050125122,0.63,-0.44,1.05,1.3
28.77558994293213,0.59,-0.53,0.65,1.02
28.77671504020691,0.56,-0.41,-0.04,0.69
28.777288913726807,0.29,-0.11,-0.6,0.67
28.778800010681152,-0.04,0.22,-1.04,1.06
28.787723064422607,-0.33,0.36,-1.32,1.4
28.797702074050903,-0.35,0.39,-1.29,1.39
28.807626008987427,-0.21,0.37,-1.31,1.37
28.873790979385376,0.0,0.19,-1.22,1.23
28.874446868896484,0.17,0.07,-0.94,0.95
28.875083923339844,0.07,0.1,-0.58,0.59
28.876338958740234,-0.07,0.02,0.04,0.08
28.877492904663086,-0.25,-0.09,0.61,0.66
28.878417015075684,-0.44,-0.12,0.94,1.04
28.879590034484863,-0.64,-0.19,0.71,0.97
28.887667179107666,-0.65,-0.08,0.29,0.71
28.897735118865967,-0.73,0.03,-0.27,0.77
28.90754985809326,-0.9,0.01,-0.61,1.08
28.972611904144287,-1.0,0.05,-0.51,1.12
28.973419189453125,-0.78,-0.07,-0.1,0.78
28.97402000427246,-0.37,-0.08,0.04,0.38
28.97523808479309,-0.26,0.17,-0.21,0.37
28.9764142036438,-0.17,0.15,-0.08,0.24
28.977010011672974,0.0,0.13,0.14,0.19
28.97855806350708,0.11,0.07,-0.02,0.13
28.987488985061646,0.09,0.24,-0.28,0.37
28.997416019439697,0.13,0.17,-0.58,0.61
29.007384061813354,0.19,0.01,-0.74,0.76
29.072911024093628,0.16,-0.04,-0.6,0.62
29.073759078979492,0.0,0.04,-0.52,0.52
29.07439088821411,-0.17,0.01,-0.45,0.48
29.07571005821228,-0.23,-0.04,-0.25,0.34
29.076974868774414,-0.12,0.07,-0.33,0.35
29.07755398750305,-0.03,0.12,-0.52,0.53
29.079127073287964,0.01,0.18,-0.42,0.45
29.087285041809082,0.23,0.17,-0.28,0.4
29.097256183624268,0.56,0.07,-0.25,0.61
29.107274055480957,0.92,-0.05,-0.27,0.96
29.172726154327393,1.35,-0.04,-0.29,1.38
29.173537015914917,1.66,-0.03,-0.27,1.68
29.174135208129883,1.8,0.06,-0.57,1.88
29.17536687850952,1.98,0.03,-0.63,2.07
29.17653799057007,2.12,-0.13,-0.71,2.23
29.177135944366455,2.25,0.01,-0.78,2.38
29.178683042526245,2.7,0.17,-0.56,2.76
29.187169075012207,2.81,0.3,-0.39,2.85
29.197160005569458,2.28,0.7,-0.16,2.39
29.207128047943115,1.8,1.11,0.5,2.17
29.27305793762207,1.89,1.38,0.43,2.37
29.273648977279663,2.08,1.35,0.34,2.5
29.274224042892456,2.33,1.48,0.12,2.76
29.275381088256836,2.22,1.94,-0.56,3.0
29.276517868041992,2.38,2.75,-1.35,3.87
29.277127981185913,3.36,3.68,-0.69,5.03
29.27868413925171,3.25,3.31,-0.5,4.66
29.28686499595642,3.5,3.21,-0.37,4.76
29.29707098007202,3.84,3.16,0.01,4.97
29.307018995285034,3.97,3.1,-0.12,5.03
29.373283863067627,3.97,3.28,-0.11,5.15
29.373836040496826,4.44,3.55,-0.24,5.68
29.374410152435303,5.07,4.0,-0.52,6.47
29.37553906440735,5.81,4.76,-0.69,7.54
29.376669883728027,6.07,4.79,-0.6,7.75
29.377246856689453,5.85,4.54,-0.47,7.41
29.378782987594604,5.24,4.25,-0.3,6.75
29.38685703277588,3.76,3.95,-0.34,5.46
29.39684295654297,2.33,4.39,-0.51,4.99
29.406672954559326,1.62,5.64,-0.62,5.9
29.473248958587646,2.03,6.7,-0.98,7.06
29.473841190338135,2.54,6.88,-1.65,7.51
29.474420070648193,0.91,7.02,-2.0,7.35
29.475552082061768,-1.08,7.32,-3.9,8.36
29.476688861846924,0.6,6.84,-4.35,8.12
29.47726607322693,3.41,6.37,-1.81,7.44
29.478839874267578,5.79,4.56,-0.8,7.41
29.486644983291626,7.7,1.23,-0.39,7.8
29.496686935424805,6.82,-1.84,0.43,7.07
29.506729125976562,-0.4,-2.15,0.83,2.33
29.57389497756958,-4.46,-2.26,-2.35,5.52
29.574482917785645,-0.7,0.11,-4.53,4.58
29.5750629901886,6.09,-0.72,-3.42,7.02
29.576260089874268,10.14,-2.07,-1.57,10.46
29.577412128448486,11.3,-2.37,-0.25,11.54
29.577996015548706,10.36,-2.55,0.89,10.7
29.579543113708496,8.51,-2.83,1.77,9.14
29.58653998374939,6.91,-3.18,1.96,7.85
29.59656810760498,6.32,-3.69,1.75,7.52
29.606515884399414,6.26,-3.57,1.43,7.34
29.673305988311768,6.0,-3.08,0.87,6.8
29.673896074295044,5.25,-2.9,0.3,6.0
29.67448091506958,4.48,-2.77,-0.06,5.26
29.675639152526855,3.96,-2.54,-0.36,4.71
29.67680311203003,3.52,-1.99,-0.35,4.05
29.677384853363037,3.07,-1.34,-0.08,3.35
29.67857313156128,2.63,-0.78,0.46,2.78
29.68640398979187,2.19,-0.03,1.34,2.56
29.696348190307617,2.22,0.54,2.03,3.05
29.70642614364624,1.51,1.22,1.51,2.45
29.773254871368408,-0.64,2.18,-0.32,2.29
29.773858070373535,-2.3,2.7,-2.26,4.2
29.77443790435791,-2.01,3.76,-2.91,5.16
29.77557611465454,-1.22,5.39,-2.47,6.05
29.77675485610962,-1.24,6.38,-1.94,6.78
29.77734088897705,-2.36,6.48,-1.87,7.14
29.778510093688965,-4.46,6.01,-2.09,7.77
29.786298036575317,-6.72,5.29,-2.73,8.97
29.796159029006958,-7.96,5.54,-3.88,10.44
29.806287050247192,-8.94,6.03,-4.79,11.79
29.873914003372192,-9.81,5.79,-5.08,12.47
29.87451410293579,-10.37,4.22,-4.09,11.91
29.87510108947754,-10.2,2.02,-2.0,10.58
29.876260995864868,-10.3,-0.1,-0.65,10.32
29.877393007278442,-10.34,-1.47,-1.07,10.49
29.877973079681396,-9.95,-1.5,-2.0,10.25
29.879502058029175,-9.12,-0.92,-2.4,9.47
29.886138916015625,-8.13,-0.62,-2.07,8.41
29.8959379196167,-7.7,-0.24,-1.98,7.95
29.90606689453125,-7.2,-0.4,-1.89,7.45
29.973674058914185,-6.65,-0.81,-1.5,6.86
29.974266052246094,-6.7,-1.33,-1.3,6.95
29.974842071533203,-7.12,-1.45,-1.2,7.36
29.976015090942383,-5.97,5.13,-1.37,7.98
29.97713804244995,-4.83,8.23,-1.81,9.71
29.977715969085693,-2.53,0.85,-3.58,4.46
29.979263067245483,8.69,-1.7,1.89,9.05
29.98599100112915,12.43,-1.7,9.09,15.49
29.996074199676514,6.28,0.01,5.13,8.1
30.005935192108154,-2.85,1.42,-0.66,3.25
30.07365107536316,-8.85,1.16,-2.8,9.35
30.074300050735474,-6.77,1.74,-1.71,7.19
30.074941158294678,-3.07,4.06,-0.29,5.09
30.076258182525635,-2.59,5.68,0.01,6.24
30.07749319076538,-4.76,4.89,-0.84,6.87
30.078075885772705,-5.35,3.0,-0.72,6.17
30.079653024673462,-4.9,2.65,-2.5,6.1
30.085813999176025,-4.45,0.74,-3.63,5.79
30.09603786468506,-2.56,0.93,-0.37,2.74
30.105829000473022,-1.37,-0.75,0.95,1.82
