time,ax,ay,az,atotal
0.002427816390991211,-0.44,-1.19,-1.2,1.74
0.00689697265625,0.53,-1.58,-1.23,2.07
0.017042875289916992,0.99,-0.39,0.63,1.23
0.026846885681152344,-0.36,0.13,0.71,0.8
0.03657102584838867,-0.52,1.55,0.04,1.63
0.047333717346191406,-0.34,1.42,-1.46,2.06
0.07116484642028809,0.04,0.3,-1.19,1.22
0.07277083396911621,0.26,-0.4,-0.04,0.47
0.07630777359008789,0.16,-0.42,0.37,0.58
0.08674097061157227,-0.05,-0.06,0.08,0.11
0.09650588035583496,-0.1,0.01,-0.03,0.1
0.10645294189453125,0.02,-0.19,0.17,0.25
0.11625981330871582,0.18,-0.17,0.33,0.41
0.12603092193603516,0.18,-0.03,0.33,0.37
0.13651084899902344,0.11,-0.03,0.24,0.26
0.1490778923034668,0.12,-0.14,0.08,0.2
0.17409682273864746,0.13,0.04,-0.06,0.14
0.1757829189300537,0.12,0.31,-0.19,0.38
0.17740869522094727,0.02,0.27,-0.3,0.4
0.18543100357055664,-0.15,0.14,-0.19,0.27
0.20009279251098633,-0.29,0.07,-0.11,0.31
0.20534801483154297,-0.2,0.01,-0.18,0.26
0.21515798568725586,-0.02,0.03,-0.19,0.19
0.22513389587402344,-0.12,0.02,-0.11,0.16
0.23518681526184082,-0.11,-0.01,0.04,0.11
0.24532175064086914,0.05,0.03,0.01,0.05
0.2711477279663086,0.16,0.07,-0.11,0.2
0.2727069854736328,0.16,0.01,-0.09,0.18
0.27466392517089844,0.09,0.1,0.03,0.13
0.2846989631652832,0.07,0.05,0.08,0.11
0.2948648929595947,-0.01,-0.05,0.12,0.13
0.30464887619018555,-0.16,-0.13,0.05,0.21
0.314816951751709,-0.17,-0.06,0.02,0.18
0.32457494735717773,-0.07,0.0,-0.01,0.07
0.33500099182128906,-0.04,0.03,-0.02,0.05
0.3471808433532715,-0.01,0.05,0.01,0.05
0.37265992164611816,0.09,0.04,0.02,0.1
0.37436771392822266,0.07,-0.16,0.0,0.17
0.37587594985961914,0.07,-0.2,0.1,0.23
0.3837778568267822,0.0,0.18,-0.23,0.29
0.39382076263427734,0.0,0.21,-0.27,0.34
0.4039597511291504,0.03,0.14,-0.04,0.14
0.4140009880065918,0.16,0.03,0.53,0.55
0.4239797592163086,0.23,-0.15,0.81,0.85
0.43386173248291016,0.03,-0.28,0.7,0.75
0.44398069381713867,-0.04,-0.22,0.44,0.49
0.4790167808532715,-0.03,-0.3,0.23,0.37
0.48074984550476074,0.13,-0.51,0.37,0.64
0.4822578430175781,0.25,-0.03,0.09,0.26
0.5006248950958252,0.06,0.25,-0.21,0.33
0.5020790100097656,-0.22,0.41,-0.42,0.62
0.5164117813110352,-0.27,0.47,-0.49,0.73
0.5178728103637695,0.06,0.41,-0.29,0.5
0.5335419178009033,0.33,0.04,-0.05,0.33
0.535031795501709,0.05,-0.43,0.09,0.44
0.5501537322998047,-0.16,0.01,0.34,0.37
0.5722737312316895,0.09,-0.04,0.05,0.11
0.5741398334503174,0.15,-0.08,-0.19,0.25
0.5757138729095459,0.0,-0.02,-0.01,0.02
0.5823040008544922,0.0,0.04,0.31,0.31
0.592473030090332,-0.02,-0.12,0.37,0.38
0.6023979187011719,-0.11,-0.18,0.29,0.35
0.6125838756561279,-0.05,-0.07,0.09,0.12
0.6222567558288574,0.16,0.08,-0.08,0.19
0.6322598457336426,0.19,0.09,-0.16,0.26
0.6422410011291504,0.03,0.02,-0.12,0.12
0.6732850074768066,-0.1,-0.07,-0.07,0.14
0.6747958660125732,-0.04,-0.07,-0.07,0.1
0.6763129234313965,0.08,-0.1,-0.09,0.15
0.6816728115081787,0.03,-0.06,0.01,0.06
0.6918158531188965,0.02,0.02,0.27,0.27
0.7017059326171875,0.0,-0.09,0.39,0.4
0.7117228507995605,-0.04,-0.2,0.37,0.42
0.7215428352355957,-0.05,-0.12,0.34,0.36
0.7315759658813477,-0.05,-0.02,0.19,0.19
0.7414278984069824,-0.05,0.03,-0.01,0.05
0.7744789123535156,-0.04,0.12,-0.04,0.13
0.7762458324432373,0.01,0.12,-0.08,0.14
0.7775158882141113,0.04,0.07,-0.12,0.14
0.7809219360351562,0.05,0.07,-0.12,0.14
0.7998347282409668,0.05,0.03,-0.2,0.2
0.801177978515625,0.0,-0.01,-0.23,0.23
0.8107378482818604,0.01,0.02,-0.04,0.04
0.8208398818969727,0.1,-0.04,0.13,0.16
0.8308620452880859,0.18,-0.11,0.29,0.35
0.8439860343933105,0.23,-0.16,0.35,0.44
0.853085994720459,0.13,-0.22,0.35,0.43
0.8759498596191406,-0.04,-0.19,0.5,0.53
0.8777337074279785,-0.14,-0.19,0.49,0.54
0.8801479339599609,-0.15,-0.14,0.56,0.59
0.8900659084320068,-0.14,-0.17,0.53,0.57
0.9002218246459961,0.01,-0.2,0.38,0.42
0.9102120399475098,0.1,-0.15,0.29,0.34
0.920184850692749,0.05,-0.07,0.04,0.09
0.9300847053527832,0.04,0.01,-0.06,0.07
0.939882755279541,0.02,0.01,-0.07,0.07
0.9524328708648682,-0.01,-0.01,-0.04,0.04
0.9762439727783203,0.04,-0.01,-0.11,0.11
0.977686882019043,0.04,0.02,-0.13,0.13
0.9793047904968262,-0.18,-0.02,-0.12,0.21
0.9894928932189941,-0.3,-0.03,-0.04,0.3
0.9996838569641113,-0.13,0.06,0.31,0.34
1.0093727111816406,0.03,-0.03,0.28,0.28
1.0195069313049316,0.1,-0.07,0.24,0.26
1.0293498039245605,0.11,-0.01,0.04,0.11
1.039003849029541,0.06,-0.01,-0.22,0.22
1.0496628284454346,0.03,0.04,-0.29,0.29
1.0758728981018066,0.05,0.1,-0.23,0.25
1.077460765838623,0.09,0.09,-0.07,0.14
1.078989028930664,0.11,0.02,0.09,0.14
1.0888819694519043,0.02,-0.07,0.06,0.09
1.0989990234375,-0.19,-0.17,-0.15,0.29
1.108771800994873,-0.22,-0.08,-0.08,0.24
1.118757724761963,0.03,0.07,0.23,0.24
1.128504753112793,0.15,0.04,0.44,0.46
1.1388859748840332,0.08,-0.1,0.44,0.45
1.1513218879699707,-0.06,-0.11,0.27,0.29
1.1755657196044922,-0.13,-0.05,0.04,0.14
1.1771628856658936,-0.14,0.0,-0.3,0.33
1.178792953491211,0.02,0.09,-0.37,0.38
1.1880459785461426,0.21,0.1,-0.23,0.32
1.1982088088989258,0.28,0.03,0.14,0.31
1.2079389095306396,0.19,-0.11,0.38,0.43
1.2179558277130127,0.1,-0.18,0.28,0.34
1.227569818496704,0.05,-0.15,0.08,0.17
1.237699031829834,0.01,-0.03,-0.03,0.04
1.2481837272644043,-0.04,0.06,0.02,0.07
1.284409999847412,-0.07,0.09,0.18,0.21
1.2860107421875,-0.06,0.03,0.18,0.19
1.2873148918151855,-0.12,0.03,0.2,0.23
1.3009719848632812,-0.23,0.03,0.01,0.23
1.302217960357666,-0.33,0.04,-0.24,0.41
1.3166790008544922,-0.38,0.11,-0.28,0.48
1.3181447982788086,-0.34,0.16,-0.26,0.45
1.333345890045166,-0.26,0.13,-0.15,0.32
1.3368067741394043,-0.2,0.04,-0.06,0.21
1.3521578311920166,-0.15,0.02,-0.08,0.17
1.3814139366149902,-0.23,0.04,-0.05,0.23
1.3832728862762451,-0.34,0.05,-0.07,0.35
1.3846259117126465,-0.32,0.11,-0.07,0.34
1.401176929473877,-0.17,0.1,-0.08,0.21
1.402634859085083,-0.1,0.04,-0.07,0.12
1.4062979221343994,-0.2,0.09,0.15,0.26
1.4166889190673828,-0.38,0.08,0.21,0.44
1.4261269569396973,-0.47,0.05,-0.04,0.47
1.4363517761230469,-0.4,0.11,-0.24,0.47
1.446558952331543,-0.26,0.07,-0.4,0.48
1.4804959297180176,-0.22,0.12,-0.55,0.6
1.4820928573608398,-0.28,0.21,-0.42,0.54
1.4834799766540527,-0.37,0.11,-0.11,0.4
1.5013468265533447,-0.3,0.15,0.21,0.39
1.5028419494628906,-0.07,0.13,0.12,0.19
1.5170588493347168,0.07,0.06,-0.2,0.22
1.5185236930847168,0.05,0.1,-0.36,0.37
1.5339808464050293,-0.16,0.17,-0.15,0.27
1.5354390144348145,-0.48,0.2,0.02,0.52
1.5530056953430176,-0.52,0.1,-0.2,0.56
1.5746870040893555,-0.24,0.0,-0.56,0.6
1.5764789581298828,0.12,-0.04,-0.49,0.5
1.577906847000122,0.36,0.04,-0.09,0.37
1.5851669311523438,0.24,0.05,0.17,0.29
1.6007747650146484,-0.11,-0.03,0.07,0.13
1.6048738956451416,-0.05,0.06,0.08,0.11
1.6172218322753906,0.11,0.11,0.21,0.26
1.6246209144592285,0.17,0.02,0.12,0.2
1.6345648765563965,0.23,-0.06,-0.01,0.23
1.647101879119873,0.32,-0.06,-0.09,0.33
1.65693998336792,0.32,-0.04,-0.13,0.34
1.6801679134368896,0.24,-0.08,-0.18,0.31
1.682013988494873,0.16,-0.14,0.01,0.21
1.6840410232543945,0.27,-0.19,0.4,0.51
1.7012789249420166,0.45,-0.24,0.38,0.63
1.7040777206420898,0.39,-0.15,-0.01,0.41
1.7170476913452148,0.08,0.15,-0.31,0.35
1.724106788635254,-0.31,0.43,-0.27,0.59
1.7342257499694824,-0.43,0.38,-0.24,0.62
1.7467880249023438,-0.16,0.13,-0.14,0.24
1.7560877799987793,0.03,0.0,-0.08,0.08
1.7791647911071777,-0.14,0.05,-0.22,0.26
1.7809488773345947,-0.35,0.13,-0.35,0.51
1.783571720123291,-0.32,0.23,-0.22,0.45
1.801224708557129,-0.23,0.24,-0.02,0.33
1.803271770477295,-0.16,0.16,-0.05,0.23
1.8172259330749512,-0.17,0.08,-0.39,0.43
1.8231148719787598,-0.31,0.15,-0.74,0.81
1.8340508937835693,-0.65,0.4,-0.85,1.14
1.8462519645690918,-0.93,0.69,-0.83,1.42
1.855226993560791,-0.89,0.84,-0.71,1.41
1.8800678253173828,-0.78,0.76,-0.65,1.26
1.881880760192871,-0.81,0.6,-0.65,1.19
1.8831868171691895,-0.81,0.43,-0.85,1.25
1.9031188488006592,-0.51,0.39,-1.54,1.66
1.9045987129211426,0.17,0.38,-2.63,2.66
1.9168510437011719,1.01,0.15,-3.48,3.62
1.92238187789917,1.62,0.03,-3.55,3.9
1.9332590103149414,2.21,-0.1,-3.31,3.98
1.942976951599121,3.38,-0.84,-4.2,5.45
1.9546289443969727,3.97,-1.8,-5.03,6.65
1.9797430038452148,3.89,-2.03,-4.67,6.4
1.98148775100708,3.11,-1.9,-3.08,4.77
1.9826488494873047,1.99,-2.06,-0.51,2.9
2.0012969970703125,0.48,-2.68,2.3,3.56
2.00278902053833,-0.88,-2.89,5.11,5.93
2.0173087120056152,-2.49,-2.43,7.45,8.22
2.0216927528381348,-5.82,-0.96,10.72,12.23
2.034345865249634,-8.85,1.54,13.8,16.46
2.0417089462280273,-8.28,2.92,9.5,12.93
2.0519189834594727,-4.59,1.1,1.05,4.83
2.0853378772735596,-1.39,1.28,-4.57,4.94
2.087157726287842,0.56,2.61,-7.25,7.72
2.0886218547821045,2.17,3.21,-3.79,5.42
2.1016340255737305,2.36,1.16,1.84,3.2
2.103125810623169,0.74,-1.72,3.47,3.94
2.11771297454834,-0.78,-2.13,2.21,3.16
2.1209096908569336,-1.29,-0.73,0.13,1.48
2.1320888996124268,-0.79,0.78,-1.19,1.62
2.1409659385681152,0.14,0.86,-1.37,1.62
2.1511969566345215,0.92,-0.1,-0.93,1.31
2.188767910003662,1.42,-0.54,-0.51,1.6
2.190652847290039,1.27,-0.29,-0.59,1.43
2.192119836807251,0.63,0.27,-0.78,1.03
2.197201728820801,0.15,0.51,-0.63,0.82
2.1999998092651367,-0.1,0.33,0.0,0.34
2.217434883117676,-0.43,0.12,0.45,0.63
2.2201788425445557,-0.77,0.08,0.5,0.92
2.2343459129333496,-0.65,0.23,0.03,0.69
2.2400050163269043,-0.11,0.32,-0.47,0.57
2.249976873397827,0.18,0.15,-0.72,0.75
2.2827308177948,0.43,-0.02,-0.63,0.76
2.284503936767578,0.5,-0.09,-0.63,0.8
2.2855420112609863,0.43,0.0,-0.54,0.69
2.3017539978027344,0.2,0.22,-0.27,0.4
2.3032138347625732,-0.23,0.34,-0.07,0.41
2.3163669109344482,-0.22,0.31,0.11,0.39
2.319422721862793,0.0,0.18,0.33,0.37
2.3330488204956055,-0.01,0.09,0.17,0.19
2.3392398357391357,-0.12,0.12,-0.09,0.19
2.3500428199768066,0.02,0.17,-0.19,0.25
2.385974884033203,0.2,0.06,-0.06,0.21
2.3877358436584473,0.15,-0.09,0.1,0.2
2.3890979290008545,0.1,-0.18,0.0,0.2
2.4020910263061523,0.28,-0.2,-0.15,0.37
2.4035348892211914,0.35,-0.12,-0.19,0.41
2.417390823364258,0.32,-0.12,-0.13,0.36
2.4187707901000977,0.29,-0.17,-0.08,0.34
2.4341468811035156,0.15,-0.07,-0.06,0.17
2.4385898113250732,-0.06,0.2,-0.09,0.22
2.450277805328369,-0.19,0.45,-0.18,0.52
2.461568832397461,-0.19,0.51,-0.2,0.57
2.485579013824463,-0.11,0.44,-0.08,0.46
2.4871768951416016,-0.11,0.34,0.12,0.37
2.4885430335998535,-0.21,0.31,0.31,0.48
2.502471923828125,-0.3,0.3,0.3,0.51
2.508248805999756,-0.43,0.37,0.11,0.57
2.5178208351135254,-0.5,0.5,-0.22,0.74
2.527737855911255,-0.44,0.65,-0.22,0.81
2.5380258560180664,-0.39,0.47,-0.2,0.64
2.5479438304901123,-0.46,0.24,-0.05,0.52
2.5577828884124756,-0.64,0.31,0.07,0.71
2.5855917930603027,-0.86,0.6,-0.23,1.07
2.5874557495117188,-0.78,0.95,-0.46,1.31
2.5887060165405273,-0.62,1.05,-0.5,1.31
2.601742744445801,-0.52,0.77,-0.57,1.09
2.6072518825531006,-0.7,0.65,-0.17,0.97
2.617635726928711,-0.92,0.61,-0.08,1.1
2.6270580291748047,-0.94,0.68,-0.13,1.16
2.6372427940368652,-0.9,0.9,-0.28,1.3
2.647216796875,-0.93,1.02,-0.48,1.46
2.6575307846069336,-0.94,1.07,-0.58,1.53
2.6876158714294434,-0.93,1.11,-0.56,1.55
2.6892948150634766,-0.94,1.1,-0.52,1.53
2.6902878284454346,-1.17,1.13,-0.44,1.68
2.701998710632324,-1.47,1.22,-0.48,1.96
2.7065088748931885,-1.61,1.31,-0.78,2.21
2.7173538208007812,-1.74,1.58,-0.85,2.49
2.726731777191162,-2.08,1.98,-0.79,2.97
2.7362518310546875,-2.53,2.39,-0.78,3.56
2.746504783630371,-2.97,2.81,-0.86,4.17
2.75673770904541,-3.47,3.37,-0.73,4.89
2.7848458290100098,-4.34,4.5,-0.37,6.26
2.786688804626465,-5.63,6.51,-0.25,8.61
2.78817081451416,-6.71,8.43,-2.28,11.01
2.8020598888397217,-6.8,8.73,-4.86,12.08
2.805753707885742,-6.8,9.17,-4.9,12.42
2.815513849258423,-7.38,9.75,-5.36,13.35
2.8257670402526855,-8.4,9.73,-5.75,14.08
2.835416793823242,-9.07,9.78,-5.64,14.48
2.84560489654541,-9.43,9.3,-5.47,14.32
2.855978012084961,-8.68,10.26,-3.99,14.01
2.8907508850097656,-6.39,11.98,-1.79,13.69
2.8925490379333496,-2.16,11.49,-2.42,11.93
2.8937768936157227,1.53,9.41,-4.13,10.38
2.897594928741455,1.71,6.86,-4.3,8.27
2.9050848484039307,-1.52,2.23,-4.99,5.67
2.917963981628418,-4.66,-1.37,-3.85,6.19
2.925043821334839,-1.53,2.58,1.1,3.19
2.9347519874572754,3.93,1.42,3.41,5.39
2.9448447227478027,3.48,-2.69,-1.18,4.55
2.954784870147705,-0.16,-2.87,-3.63,4.63
2.988846778869629,-3.4,-1.14,-2.14,4.17
2.990689754486084,-5.74,-0.88,-2.32,6.25
2.992182731628418,-6.86,-1.69,-2.37,7.45
3.0020298957824707,-6.22,-3.12,-1.98,7.23
3.004288911819458,-4.67,-4.78,-0.87,6.73
3.017880916595459,-3.6,-6.29,0.12,7.24
3.0243029594421387,-3.11,-7.2,0.67,7.87
3.03463077545166,-2.82,-6.98,0.35,7.53
3.044656753540039,-2.73,-5.98,-0.67,6.6
3.0563578605651855,-2.61,-5.01,-1.72,5.9
3.091007709503174,-2.41,-4.65,-2.56,5.82
3.0928969383239746,-2.2,-4.66,-3.01,5.96
3.094169855117798,-2.17,-4.82,-3.32,6.24
3.0974838733673096,-2.4,-5.05,-3.4,6.54
3.103719711303711,-2.58,-5.29,-3.14,6.67
3.1178839206695557,-2.7,-5.75,-2.85,6.96
3.1234428882598877,-3.02,-6.04,-2.3,7.13
3.1348137855529785,-3.46,-6.34,-1.65,7.4
3.143397808074951,-3.89,-6.68,-1.08,7.8
3.1532297134399414,-4.05,-6.91,-0.54,8.02
3.186466693878174,-3.92,-6.94,-0.04,7.97
3.188282012939453,-3.48,-6.8,0.15,7.64
3.189774990081787,-2.92,-6.54,0.18,7.16
3.201964855194092,-2.28,-6.08,0.17,6.49
3.2034969329833984,-1.65,-5.46,0.25,5.7
3.218235969543457,-0.88,-4.58,-0.05,4.66
3.2226479053497314,0.11,-3.88,-0.98,4.0
3.2349157333374023,1.31,-3.29,-1.6,3.88
3.242473840713501,2.7,-2.66,-1.2,3.97
3.2523858547210693,4.1,-2.1,-0.14,4.6
3.262960910797119,5.1,-1.52,0.42,5.33
3.2937469482421875,5.5,-0.57,0.6,5.56
3.2948548793792725,5.85,0.93,0.71,5.96
3.296031951904297,7.1,2.61,0.7,7.59
3.301805019378662,9.15,3.7,0.65,9.89
3.3118677139282227,11.45,4.51,1.26,12.37
3.3222339153289795,13.52,5.51,2.45,14.8
3.3319458961486816,14.97,6.55,3.67,16.74
3.3419790267944336,16.18,6.99,4.71,18.24
3.3518757820129395,16.77,5.99,5.13,18.53
3.361548900604248,15.39,5.07,5.45,17.09
3.38930082321167,12.27,6.32,4.78,14.6
3.3904669284820557,5.38,7.91,2.27,9.83
3.3916707038879395,-3.92,-0.56,-7.85,8.79
3.4023690223693848,-16.44,8.82,-15.23,24.08
3.411329746246338,-21.71,44.79,5.36,50.06
3.421092987060547,-17.29,47.35,12.89,52.02
3.4312567710876465,-8.91,11.0,-5.95,15.35
3.4411938190460205,0.69,-5.35,-0.45,5.41
3.4510107040405273,5.13,-13.42,0.81,14.38
3.4611940383911133,10.03,-14.98,1.71,18.1
3.4923529624938965,13.12,-13.47,4.0,19.22
3.4940478801727295,12.07,-7.58,5.55,15.29
3.495391845703125,6.88,-1.5,4.26,8.22
3.5004677772521973,1.5,0.21,0.5,1.59
3.518068790435791,-1.7,2.56,-2.42,3.91
3.520397901535034,-1.84,5.04,-3.14,6.21
3.5347137451171875,-0.31,4.08,-1.49,4.35
3.5404720306396484,0.88,0.54,0.89,1.36
3.549956798553467,0.62,-1.78,2.64,3.24
3.5604166984558105,-0.15,-2.63,2.81,3.85
3.5891547203063965,-0.25,-1.96,1.53,2.49
3.590338706970215,0.34,-0.44,-0.31,0.63
3.591485023498535,0.65,0.73,-1.57,1.84
3.6032588481903076,0.45,1.14,-1.87,2.23
3.609987735748291,0.2,0.72,-1.31,1.5
3.6197237968444824,0.14,0.44,-0.83,0.94
3.629664897918701,0.4,0.27,-0.68,0.83
3.6394848823547363,0.39,-0.09,-0.29,0.49
3.649542808532715,-0.47,-0.43,0.08,0.64
3.659972906112671,-0.97,-0.26,0.2,1.02
3.6961429119110107,0.03,0.08,0.43,0.43
3.697999954223633,0.91,0.06,0.39,0.99
3.6990609169006348,0.79,-0.06,0.37,0.87
3.718472957611084,0.3,-0.11,0.45,0.55
3.71993088722229,0.13,-0.13,0.36,0.4
3.7348990440368652,0.09,-0.06,0.01,0.1
3.7363667488098145,-0.16,0.14,-0.23,0.31
3.7514078617095947,-0.37,0.34,-0.35,0.61
3.752805709838867,-0.48,0.4,-0.11,0.63
3.767460823059082,-0.61,0.4,0.18,0.75
3.7926058769226074,-0.72,0.37,0.09,0.81
3.794283866882324,-0.82,0.43,-0.21,0.94
3.795301914215088,-0.88,0.49,-0.62,1.18
3.7980008125305176,-1.04,0.55,-0.76,1.4
3.8181729316711426,-1.17,0.53,-0.87,1.55
3.8196208477020264,-1.18,0.47,-1.23,1.76
3.8348517417907715,-1.06,0.54,-1.21,1.69
3.8379340171813965,-0.96,0.64,-0.87,1.44
3.8501858711242676,-0.71,0.59,-0.77,1.2
3.8578619956970215,-0.44,0.47,-0.77,1.0
3.8947110176086426,-0.35,0.45,-0.57,0.8
3.896317958831787,-0.5,0.5,-0.34,0.78
3.8975019454956055,-0.91,0.63,-0.36,1.16
3.8990209102630615,-1.2,0.86,-0.37,1.52
3.9072768688201904,-1.25,1.06,-0.39,1.68
3.91747784614563,-1.32,1.2,-0.5,1.85
3.927097797393799,-1.57,1.27,-0.44,2.06
3.937440872192383,-1.9,1.3,-0.75,2.42
3.9473190307617188,-2.44,1.65,-1.16,3.16
3.95719575881958,-2.78,2.5,-1.33,3.96
3.9895548820495605,-2.98,3.0,-1.59,4.51
3.9913697242736816,-3.03,3.41,-1.42,4.77
3.992872714996338,-3.17,3.7,-1.07,4.98
3.999837875366211,-3.62,3.97,-0.75,5.42
4.00685977935791,-4.58,4.84,-0.28,6.66
4.018172740936279,-5.96,6.79,0.03,9.03
4.02659273147583,-7.3,9.24,-0.88,11.8
4.036500930786133,-8.11,10.39,-3.4,13.61
4.046806812286377,-9.04,11.19,-4.37,15.03
4.056370735168457,-10.59,12.44,-5.14,17.12
4.068978786468506,-11.56,12.91,-6.6,18.54
4.0988829135894775,-11.32,12.26,-8.01,18.5
4.100242853164673,-10.52,10.04,-9.09,17.14
4.1012749671936035,-9.52,9.79,-6.9,15.29
4.1188929080963135,-6.4,12.54,-2.45,14.29
4.120412826538086,-0.75,14.2,-1.4,14.28
4.135097980499268,2.99,10.54,-2.18,11.17
4.1365368366241455,2.33,3.17,-3.05,4.97
4.1515278816223145,-0.56,-3.11,-5.5,6.34
4.155557870864868,-0.09,-1.39,-2.57,2.92
4.167420864105225,3.24,0.7,4.56,5.63
4.1957688331604,0.96,-3.9,0.34,4.03
4.197432041168213,-2.96,-4.65,-2.62,6.1
4.1984498500823975,-4.77,-2.74,-1.49,5.69
4.218908786773682,-6.34,-1.61,-1.31,6.67
4.220400810241699,-7.48,-1.94,-1.01,7.79
4.235416889190674,-7.12,-3.31,-0.6,7.87
4.236901760101318,-5.82,-4.98,0.71,7.69
4.251832962036133,-4.92,-6.91,1.52,8.61
4.254822731018066,-4.76,-7.96,1.68,9.42
4.267853736877441,-5.08,-7.85,1.91,9.54
4.294701814651489,-5.15,-7.45,1.54,9.18
4.296005725860596,-4.78,-6.99,0.77,8.5
4.297006845474243,-4.53,-6.84,0.24,8.2
4.30441689491272,-4.56,-7.1,-0.63,8.46
4.3146257400512695,-4.55,-7.03,-1.24,8.46
4.3244547843933105,-4.65,-6.96,-1.49,8.5
4.334529876708984,-4.74,-6.99,-1.79,8.63
4.344343900680542,-4.68,-6.98,-1.68,8.57
4.354125022888184,-4.42,-7.09,-1.39,8.46
4.364842891693115,-4.1,-7.38,-1.11,8.51
4.395672798156738,-3.74,-7.62,-1.03,8.55
4.397256851196289,-3.41,-7.86,-1.03,8.62
4.398185729980469,-3.22,-8.12,-1.04,8.79
4.419203758239746,-3.07,-8.3,-0.88,8.89
4.4206647872924805,-2.76,-8.21,-0.58,8.68
4.435279846191406,-2.14,-7.97,-0.31,8.25
4.436769008636475,-0.98,-7.66,-0.13,7.72
4.452029705047607,0.4,-7.15,-0.16,7.16
4.453552722930908,1.56,-6.05,-0.72,6.28
4.471005916595459,3.0,-4.38,-1.03,5.4
4.496187925338745,5.42,-2.75,-0.68,6.11
4.497611999511719,8.27,-1.11,0.37,8.35
4.498647928237915,10.55,0.81,1.92,10.75
4.518852710723877,11.54,3.16,2.82,12.29
4.5203468799591064,11.89,5.85,3.89,13.81
4.535327911376953,12.68,9.06,5.07,16.38
4.536826848983765,14.08,12.59,6.66,20.02
4.551403999328613,15.47,14.97,7.94,22.94
4.552907943725586,15.72,13.71,7.44,22.14
4.564816951751709,14.69,10.32,7.11,19.3
4.60049295425415,12.52,8.57,7.24,16.81
4.602163791656494,8.83,7.43,2.15,11.73
4.603155851364136,-1.61,-2.88,-7.86,8.52
4.619135856628418,-15.08,-1.33,-32.02,35.41
4.620660781860352,-26.4,29.8,-25.43,47.24
4.6327738761901855,-20.5,52.57,28.58,63.25
4.634267807006836,-8.43,23.94,9.95,27.26
4.652580738067627,0.74,-1.87,5.01,5.39
4.6541547775268555,3.73,-12.09,4.28,13.35
4.667511940002441,7.61,-15.8,1.52,17.6
4.698015928268433,11.11,-14.79,2.25,18.63
4.699510812759399,10.26,-9.1,2.47,13.93
4.7005109786987305,7.17,-2.93,3.08,8.33
4.718887805938721,3.81,-0.05,-0.9,3.91
4.720412731170654,1.17,2.44,-3.01,4.04
4.735471725463867,0.17,5.24,-2.08,5.64
4.73695182800293,-0.33,4.5,-1.27,4.68
4.751524925231934,-0.09,0.26,0.77,0.81
4.752980709075928,0.96,-1.83,1.62,2.62
4.76675271987915,1.19,-2.02,1.07,2.57
4.796789884567261,0.4,-0.75,0.52,0.99
4.798226833343506,-0.28,0.62,-0.2,0.7
4.799245834350586,-0.48,0.92,-0.62,1.2
4.818933010101318,-0.34,0.43,-0.76,0.93
4.8204569816589355,0.12,-0.04,-0.67,0.68
4.835282802581787,0.24,-0.09,-0.57,0.62
4.836740970611572,-0.3,0.21,-0.35,0.5
4.853102922439575,-0.95,0.55,-0.09,1.1
4.854642868041992,-1.06,0.66,-0.06,1.25
4.87174391746521,-0.79,0.45,-0.43,1.0
4.875335693359375,-0.51,0.15,-0.73,0.9
4.909303903579712,-0.35,0.07,-0.55,0.65
4.910542011260986,-0.46,0.15,-0.4,0.62
4.911726951599121,-0.69,0.22,-0.49,0.87
4.91492486000061,-0.81,0.41,-0.25,0.94
4.93569803237915,-0.7,0.5,0.0,0.86
4.937130928039551,-0.56,0.4,0.09,0.69
4.952054977416992,-0.56,0.29,0.06,0.63
4.953444957733154,-0.62,0.25,0.09,0.67
4.967490911483765,-0.63,0.18,0.04,0.65
4.9692559242248535,-0.6,0.11,-0.25,0.65
5.0108208656311035,-0.69,0.2,-0.53,0.89
5.01237678527832,-0.82,0.4,-0.76,1.18
5.013648986816406,-0.84,0.54,-0.68,1.2
5.015199899673462,-0.73,0.55,-0.43,1.01
5.0187668800354,-0.61,0.49,-0.09,0.78
5.028735876083374,-0.5,0.51,0.02,0.71
5.039096832275391,-0.52,0.59,0.0,0.78
5.049070835113525,-0.71,0.72,-0.04,1.01
5.059010982513428,-0.98,1.0,0.2,1.41
5.068753719329834,-1.08,1.12,0.23,1.57
5.096099853515625,-1.28,1.1,0.33,1.71
5.097232818603516,-1.49,1.39,0.71,2.15
5.098224878311157,-1.89,1.29,0.31,2.3
5.1186909675598145,-1.96,1.54,0.08,2.49
5.119773864746094,-1.78,1.65,-0.38,2.45
5.135849952697754,-1.6,1.74,-0.74,2.47
5.1380109786987305,-1.66,1.83,-0.88,2.62
5.152196884155273,-2.05,1.96,-0.88,2.96
5.158028841018677,-2.5,2.11,-1.05,3.43
5.167835712432861,-2.8,2.34,-1.17,3.83
5.197106838226318,-3.08,2.9,-1.05,4.35
5.198462009429932,-3.7,3.79,-1.03,5.39
5.199481010437012,-4.89,5.37,-0.87,7.31
5.219132900238037,-6.59,7.62,-1.04,10.12
5.220621824264526,-8.46,9.28,-3.09,12.93
5.2351438999176025,-10.06,10.42,-5.19,15.38
5.2371907234191895,-11.13,11.36,-5.89,16.95
5.248064994812012,-11.97,11.17,-6.13,17.48
5.2569899559021,-12.49,10.68,-5.31,17.27
5.267131805419922,-12.06,11.56,-2.46,16.88
5.304744720458984,-8.98,13.1,-0.99,15.91
5.306182861328125,-3.19,12.68,-3.3,13.48
5.307231903076172,2.52,11.49,-3.37,12.23
5.319384813308716,4.87,8.62,-1.1,9.96
5.320897817611694,2.86,2.7,-4.22,5.76
5.335645914077759,-1.81,-2.19,-6.75,7.32
5.33716082572937,-2.2,-0.37,-5.95,6.35
5.352416038513184,2.27,4.92,-0.58,5.44
5.356499910354614,1.92,1.59,-1.67,3.0
5.367595911026001,-1.78,0.33,-4.88,5.2
5.404040813446045,-4.15,0.41,-3.44,5.4
5.40539288520813,-6.79,0.0,-2.15,7.12
5.406414031982422,-9.56,-0.7,-1.7,9.73
5.419081926345825,-10.37,-1.82,-0.63,10.54
5.420177936553955,-8.99,-3.63,1.28,9.77
5.435988903045654,-6.65,-5.74,2.18,9.05
5.4374918937683105,-4.78,-7.37,2.41,9.1
5.452740907669067,-4.06,-7.41,1.96,8.67
5.455881834030151,-4.16,-6.52,1.06,7.8
5.467920780181885,-4.45,-5.84,-0.01,7.34
5.501846790313721,-4.55,-5.73,-1.21,7.41
5.5031468868255615,-4.67,-5.61,-1.32,7.41
5.504063844680786,-4.49,-6.2,-2.5,8.05
5.519917964935303,-3.96,-6.68,-3.29,8.43
5.521368980407715,-3.56,-7.16,-3.29,8.64
5.535690784454346,-3.37,-7.87,-2.66,8.96
5.537179946899414,-4.05,-7.4,-2.13,8.7
5.552327871322632,-4.29,-7.54,-1.95,8.89
5.55495285987854,-3.56,-8.47,-1.73,9.34
5.565703868865967,-2.88,-9.54,-1.93,10.15
5.6016387939453125,-2.61,-10.39,-1.85,10.87
5.603157043457031,-2.4,-10.84,-1.59,11.21
5.604213714599609,-2.07,-10.6,-1.17,10.86
5.619612693786621,-1.74,-9.67,-0.78,9.85
5.621081829071045,-1.4,-8.87,-0.55,8.99
5.635856866836548,-0.94,-7.84,-0.46,7.9
5.6372857093811035,-0.12,-6.37,-0.39,6.38
5.652601718902588,1.55,-4.53,0.01,4.78
5.654045820236206,4.35,-2.1,1.32,5.0
5.6680498123168945,7.85,0.5,3.21,8.49
5.674592971801758,10.91,2.43,4.5,12.04
5.716479778289795,13.08,4.0,5.11,14.6
5.717662811279297,13.86,5.89,5.17,15.92
5.7186808586120605,13.79,8.58,5.64,17.19
5.7351038455963135,13.9,11.75,5.71,19.07
5.736629962921143,14.23,14.41,4.83,20.81
5.749855041503906,13.89,17.22,1.45,22.17
5.7513909339904785,11.44,22.66,-4.61,25.79
5.76876974105835,6.88,14.73,-17.09,23.58
5.770265817642212,-5.19,17.91,-17.43,25.52
5.784811019897461,-11.12,47.27,-2.33,48.61
5.810524940490723,-10.59,23.64,-1.82,25.96
5.811928749084473,-4.36,-1.63,3.22,5.65
5.8129658699035645,1.24,-7.04,8.27,10.93
5.8151679039001465,5.83,-9.68,10.82,15.64
5.8370888233184814,8.37,-11.89,8.46,16.82
5.83860182762146,9.53,-10.07,3.13,14.21
5.8526530265808105,8.47,-4.93,1.01,9.85
5.85412073135376,5.0,0.3,0.36,5.02
5.868060827255249,1.77,2.84,-0.69,3.41
5.87253475189209,-1.1,3.16,-3.32,4.71
5.908360958099365,-2.49,3.05,-3.86,5.51
5.909555912017822,-0.98,2.43,-1.87,3.21
5.910815715789795,1.73,0.28,0.73,1.89
5.918594837188721,2.71,-1.62,1.85,3.65
5.922134876251221,1.72,-2.21,1.34,3.1
5.9346678256988525,0.4,-1.2,0.63,1.41
5.942043781280518,0.06,0.1,0.19,0.22
5.951794862747192,0.3,0.41,-0.15,0.52
5.962007999420166,0.49,0.19,0.13,0.54
5.971634864807129,0.36,0.14,0.44,0.58
6.00116491317749,0.27,0.18,0.39,0.5
6.002472877502441,0.41,0.17,0.1,0.45
6.003482818603516,0.49,0.06,-0.27,0.56
6.01947283744812,0.39,-0.02,-0.45,0.59
6.021193027496338,0.15,-0.02,-0.34,0.37
6.035836696624756,-0.09,-0.05,-0.14,0.17
6.0416388511657715,-0.25,-0.08,0.19,0.32
6.052315711975098,-0.19,-0.08,0.48,0.52
6.0614190101623535,-0.1,-0.1,0.62,0.63
6.071189880371094,-0.22,-0.05,0.42,0.47
6.1085920333862305,-0.4,0.09,-0.09,0.41
6.109862804412842,-0.42,0.32,-0.54,0.75
6.110914707183838,-0.33,0.52,-0.57,0.83
6.115916728973389,-0.34,0.49,-0.5,0.77
6.120725870132446,-0.38,0.36,-0.25,0.58
6.136317729949951,-0.41,0.23,0.0,0.47
6.140629768371582,-0.63,0.18,0.09,0.66
6.152369976043701,-0.98,0.24,-0.14,1.01
6.160576820373535,-1.23,0.45,-0.43,1.37
6.17055082321167,-1.26,0.6,-0.67,1.54
6.209110736846924,-1.11,0.67,-0.88,1.56
6.210391998291016,-1.08,0.7,-0.96,1.6
6.211378812789917,-1.27,0.7,-0.99,1.75
6.21558690071106,-1.54,0.65,-1.07,1.98
6.235902786254883,-1.8,0.64,-0.97,2.14
6.23736572265625,-1.83,0.68,-0.83,2.12
6.252504825592041,-1.51,0.66,-0.78,1.82
6.2539708614349365,-1.2,0.62,-0.7,1.52
6.268054962158203,-1.07,0.76,-0.52,1.41
6.269484996795654,-1.08,0.94,-0.44,1.49
6.316840887069702,-1.29,1.11,-0.44,1.75
6.318278789520264,-1.68,1.53,-0.17,2.27
6.319331884384155,-1.8,1.84,-0.31,2.59
6.336987018585205,-1.55,1.82,-0.62,2.46
6.338486909866333,-1.48,2.0,-1.06,2.7
6.352445840835571,-1.33,2.36,-1.37,3.03
6.353933811187744,-1.53,2.61,-1.24,3.26
6.369350910186768,-2.13,3.01,-0.83,3.77
6.370805740356445,-3.1,3.63,-0.54,4.8
6.384665012359619,-4.03,4.55,-0.37,6.08
6.413956880569458,-4.89,5.94,-0.19,7.69
6.415280818939209,-6.05,7.2,-1.13,9.47
6.416290760040283,-7.41,8.06,-2.52,11.23
6.436434745788574,-8.81,9.24,-2.91,13.09
6.437967777252197,-10.22,10.64,-3.4,15.13
6.452772855758667,-11.18,11.1,-4.76,16.45
6.454257011413574,-11.51,10.54,-5.62,16.58
6.469385862350464,-11.65,9.01,-5.78,15.82
6.470876693725586,-11.0,8.76,-4.46,14.75
6.4858717918396,-8.22,10.65,-2.17,13.62
6.488228797912598,-2.82,11.02,-3.59,11.92
6.531122922897339,2.17,10.02,-4.49,11.19
6.532291889190674,2.91,6.07,-2.71,7.25
6.5332770347595215,-0.24,1.11,-3.93,4.09
6.553505897521973,-3.79,-2.55,-4.3,6.27
6.554998874664307,-1.54,0.35,-2.47,2.93
6.569400787353516,3.34,2.24,1.72,4.37
6.570866823196411,1.81,-1.78,-1.77,3.09
6.586087703704834,-2.14,-2.33,-4.28,5.32
6.587533950805664,-4.81,-1.09,-2.45,5.5
6.601836919784546,-7.18,-1.04,-2.41,7.64
6.63067102432251,-8.41,-1.19,-1.93,8.71
6.632236957550049,-7.77,-1.69,-1.17,8.03
6.633275032043457,-6.07,-3.14,0.01,6.83
6.653687953948975,-4.82,-4.7,1.24,6.84
6.655195713043213,-4.3,-5.85,1.79,7.47
6.669233798980713,-4.09,-6.17,1.96,7.65
6.670707702636719,-3.97,-5.53,1.66,7.0
6.686223030090332,-3.62,-4.39,0.54,5.71
6.687711715698242,-3.37,-3.3,-0.66,4.76
6.702582836151123,-3.5,-3.02,-1.09,4.74
6.733433723449707,-2.96,-3.8,-1.87,5.16
6.7347259521484375,-2.61,-4.06,-1.85,5.16
6.735665798187256,-2.45,-4.85,-1.83,5.73
6.753472805023193,-2.43,-5.67,-1.66,6.38
6.7548158168792725,-2.43,-6.15,-1.41,6.76
6.7693188190460205,-2.15,-6.99,-1.29,7.42
6.770724773406982,-1.68,-7.93,-1.36,8.21
6.785877704620361,-1.35,-8.53,-1.39,8.74
6.787337779998779,-1.28,-9.11,-1.27,9.28
6.801702976226807,-1.31,-9.53,-0.95,9.66
6.829612731933594,-1.26,-9.76,-0.63,9.86
6.831002712249756,-1.06,-9.74,-0.21,9.79
6.831991910934448,-0.81,-9.4,0.37,9.44
6.853664875030518,-0.61,-8.66,0.99,8.73
6.855089902877808,-0.17,-7.43,0.98,7.49
6.869076728820801,1.36,-5.83,0.72,6.02
6.870527744293213,3.9,-3.83,1.21,5.59
6.884175777435303,6.39,-2.11,2.25,7.09
6.885586738586426,7.9,-0.67,3.12,8.52
6.90212869644165,8.67,1.45,4.44,9.84
6.9322028160095215,9.75,3.94,5.96,12.08
6.934116840362549,11.43,6.03,6.08,14.28
6.9355528354644775,13.27,7.78,5.39,16.29
6.950377941131592,14.52,10.14,4.81,18.35
6.951870918273926,15.49,12.9,4.91,20.74
6.9699296951293945,16.08,13.99,5.03,21.89
6.97144079208374,16.26,12.02,4.78,20.77
6.986155986785889,15.57,10.21,1.46,18.67
6.9876708984375,6.14,3.48,-3.62,7.93
7.002033710479736,-7.08,-1.98,-17.99,19.43
7.029974937438965,-20.99,18.34,-32.25,42.62
7.03131890296936,-21.55,58.21,9.61,62.81
7.0323169231414795,-17.4,28.4,6.56,33.94
7.053112983703613,-4.43,-0.49,3.43,5.62
7.054170846939087,3.7,-10.57,9.59,14.74
7.068840980529785,6.81,-16.59,6.71,19.14
7.070339918136597,10.99,-15.54,4.94,19.66
7.086410045623779,10.25,-10.12,3.65,14.85
7.087859869003296,6.23,-3.41,1.07,7.18
7.102101802825928,3.98,0.41,-1.21,4.18
7.131715774536133,2.46,3.36,-4.69,6.27
7.13312292098999,1.42,4.97,-4.36,6.76
7.13405704498291,0.19,3.93,-0.32,3.94
7.153259754180908,-0.72,0.73,1.81,2.08
7.154738903045654,-0.25,-1.53,2.71,3.12
7.169817924499512,0.73,-2.15,1.48,2.71
7.171247959136963,0.91,-1.12,0.24,1.46
7.186334848403931,0.39,0.21,-0.13,0.46
7.187763690948486,0.28,0.52,-0.38,0.7
7.202147960662842,0.75,0.09,-0.47,0.88
7.230648040771484,1.07,-0.21,-0.35,1.14
7.232030868530273,0.8,-0.17,-0.42,0.91
7.233030796051025,0.37,0.0,-0.46,0.59
7.253370761871338,0.0,0.18,-0.12,0.21
7.25444483757019,-0.37,0.32,0.3,0.57
7.269853830337524,-0.67,0.31,0.38,0.83
7.2713048458099365,-0.78,0.3,0.39,0.92
7.285826921463013,-0.63,0.34,0.22,0.74
7.287508010864258,-0.21,0.21,-0.5,0.58
7.302213907241821,0.14,0.06,-0.96,0.97
7.303691864013672,0.19,0.07,-0.72,0.74
7.347990036010742,-0.11,0.1,-0.46,0.48
7.34917688369751,-0.56,0.2,-0.2,0.62
7.35017991065979,-0.79,0.39,0.04,0.88
7.370152950286865,-0.64,0.47,0.11,0.8
7.371171951293945,-0.45,0.44,0.27,0.68
7.3864288330078125,-0.45,0.46,0.46,0.79
7.3878350257873535,-0.62,0.41,0.31,0.8
7.402138710021973,-0.76,0.37,0.15,0.85
7.403627872467041,-0.73,0.31,-0.13,0.8
7.418529033660889,-0.59,0.22,-0.49,0.79
7.447300910949707,-0.5,0.29,-0.54,0.79
7.448637008666992,-0.67,0.48,-0.57,1.0
7.4496660232543945,-0.97,0.76,-0.58,1.36
7.470125913619995,-1.17,0.98,-0.62,1.64
7.471400737762451,-1.41,1.15,-0.51,1.88
7.4867308139801025,-1.63,1.13,-0.5,2.04
7.488188743591309,-1.92,1.07,-0.47,2.24
7.503373861312866,-2.27,1.2,-0.39,2.59
7.504827976226807,-2.32,1.42,-0.47,2.76
7.5187108516693115,-2.06,1.75,-0.85,2.83
7.546592712402344,-1.73,2.13,-1.28,3.02
7.54797887802124,-1.7,2.57,-1.3,3.34
7.548954010009766,-1.92,2.88,-1.16,3.65
7.551239967346191,-2.34,3.0,-0.88,3.9
7.55265998840332,-2.84,3.05,-0.86,4.25
7.554149866104126,-3.23,3.15,-0.79,4.58
7.555497884750366,-3.5,3.26,-0.79,4.84
7.559440851211548,-3.93,3.38,-0.96,5.27
7.569736957550049,-4.61,3.87,-1.03,6.1
7.579352855682373,-5.5,4.69,-1.19,7.32
7.607282876968384,-6.52,5.57,-1.53,8.71
7.608494758605957,-7.92,6.61,-1.88,10.48
7.6096320152282715,-9.7,8.44,-2.17,13.03
7.619186878204346,-11.1,10.03,-3.73,15.41
7.629245758056641,-12.11,10.38,-5.34,16.81
7.639045715332031,-13.01,10.66,-6.31,17.96
7.64913272857666,-12.42,12.78,-5.0,18.5
7.659276962280273,-8.77,15.83,-4.01,18.53
7.668942928314209,-2.92,15.86,-5.76,17.12
7.678947925567627,2.14,14.05,-4.63,14.94
7.711695909500122,3.28,9.18,-2.96,10.18
7.712865829467773,-0.18,2.58,-6.28,6.79
7.714004039764404,-4.73,-1.72,-6.6,8.3
7.718307018280029,-3.43,0.79,-4.43,5.65
7.728532791137695,2.74,4.82,1.04,5.64
7.738327980041504,3.4,-0.34,-1.72,3.82
7.748408794403076,0.16,-2.81,-5.44,6.12
7.758160829544067,-2.57,-3.04,-3.68,5.42
7.768544912338257,-5.12,-2.33,-2.08,5.99
7.778207778930664,-6.98,-1.69,-1.75,7.39
7.8140788078308105,-7.39,-1.52,-1.59,7.71
7.815398693084717,-6.49,-2.39,-1.07,6.99
7.816442012786865,-5.53,-3.46,0.37,6.53
7.837244987487793,-5.43,-4.54,1.63,7.26
7.838321924209595,-5.79,-5.62,2.72,8.51
7.85346794128418,-5.91,-6.74,3.14,9.49
7.85493278503418,-5.54,-7.28,2.56,9.49
7.8704609870910645,-5.27,-6.88,0.9,8.71
7.871967792510986,-5.19,-6.07,-0.71,8.01
7.885561943054199,-5.22,-5.42,-1.0,7.59
7.913926839828491,-5.02,-5.44,-1.8,7.61
7.915191888809204,-4.16,-5.83,-2.29,7.51
7.916187763214111,-3.51,-6.06,-2.32,7.37
7.937130928039551,-3.26,-6.51,-2.1,7.57
7.938143730163574,-3.26,-7.07,-1.82,7.99
7.953450918197632,-3.17,-7.87,-1.75,8.66
7.954901695251465,-3.02,-8.39,-1.54,9.04
7.97015380859375,-2.84,-8.97,-1.27,9.49
7.97165584564209,-2.96,-9.57,-0.94,10.06
7.985694885253906,-3.21,-9.61,-0.13,10.13
8.013305902481079,-3.2,-8.69,1.18,9.33
8.014720916748047,-2.43,-7.49,2.01,8.12
8.015703916549683,-0.59,-6.35,1.43,6.53
8.017212867736816,1.71,-4.77,1.15,5.19
8.025907039642334,4.08,-2.8,1.93,5.31
8.036030769348145,6.35,-0.47,3.34,7.19
8.046018838882446,8.49,1.8,4.51,9.78
8.056435823440552,9.97,3.92,5.21,11.91
8.066329002380371,10.71,6.28,4.94,13.36
8.076035022735596,11.62,8.64,4.02,15.02
8.08603286743164,12.93,10.68,3.01,17.03
8.11785888671875,14.72,12.87,2.29,19.68
8.119072914123535,16.82,14.21,1.49,22.06
8.12014102935791,18.86,13.83,1.11,23.41
8.134634971618652,20.29,12.34,1.71,23.8
8.13572883605957,18.27,13.29,2.56,22.73
8.151878833770752,9.99,8.57,-0.93,13.19
8.155303955078125,-3.35,-4.82,-9.21,10.92
8.169229984283447,-19.74,-1.05,-23.3,30.55
8.175210952758789,-25.59,23.75,-7.48,35.7
8.185513019561768,-13.52,41.88,23.24,49.76
8.216902732849121,-6.79,12.93,3.51,15.02
8.218231916427612,3.78,0.21,3.61,5.23
8.219257831573486,9.4,-4.73,6.24,12.23
8.237452030181885,10.8,-9.5,-0.03,14.38
8.23854684829712,11.65,-9.6,-1.31,15.15
8.253360748291016,10.22,-5.55,0.31,11.63
8.254385948181152,5.66,-1.79,0.06,5.93
8.270432949066162,1.13,-0.42,-0.54,1.32
8.274363994598389,-1.33,1.76,-0.54,2.27
8.285559892654419,-1.73,3.13,-0.31,3.58
8.315016746520996,-0.41,1.95,0.1,1.99
8.316324710845947,1.38,-0.04,-0.25,1.4
8.317341804504395,2.12,-0.87,-0.16,2.29
8.337203979492188,1.52,-1.09,0.43,1.91
8.338199853897095,0.81,-0.8,0.69,1.33
8.353351831436157,0.53,-0.45,0.63,0.93
8.354377746582031,0.53,-0.27,0.57,0.82
8.370378017425537,0.55,-0.13,0.53,0.77
8.373669862747192,0.46,-0.07,0.34,0.57
8.384213924407959,0.27,0.01,0.05,0.27
8.41454291343689,0.13,0.19,0.08,0.24
8.415977001190186,0.17,0.16,0.09,0.25
8.416997909545898,0.15,-0.05,0.19,0.24
8.437161922454834,-0.04,-0.13,0.33,0.35
8.438140869140625,-0.29,-0.06,0.02,0.29
8.453229904174805,-0.37,0.15,-0.29,0.49
8.454290866851807,-0.19,0.25,-0.42,0.52
8.4704270362854,0.02,0.12,-0.59,0.6
8.472859859466553,0.16,-0.03,-0.52,0.54
8.485780715942383,-0.01,-0.09,-0.17,0.19
8.519688844680786,-0.51,0.15,0.17,0.55
8.520956039428711,-0.81,0.43,0.38,0.99
8.521990776062012,-0.67,0.5,0.22,0.86
8.537578821182251,-0.39,0.37,-0.16,0.56
8.538615703582764,-0.31,0.27,-0.25,0.48
8.553218841552734,-0.46,0.24,-0.27,0.58
8.55424976348877,-0.71,0.28,-0.33,0.83
8.570367813110352,-0.8,0.38,-0.26,0.92
8.571996927261353,-0.61,0.45,-0.32,0.82
8.585747718811035,-0.4,0.49,-0.21,0.66
8.619398832321167,-0.38,0.57,-0.27,0.73
8.620874881744385,-0.52,0.64,-0.47,0.94
8.62187671661377,-0.84,0.8,-0.54,1.27
8.637434005737305,-1.16,1.0,-0.53,1.62
8.638471841812134,-1.41,1.13,-0.48,1.86
8.653692722320557,-1.65,1.29,-0.42,2.13
8.655171871185303,-1.58,1.49,-0.44,2.21
8.670399904251099,-1.55,1.56,-0.7,2.3
8.671875,-1.65,1.73,-0.9,2.55
8.685908794403076,-2.05,2.2,-1.16,3.22
8.719616889953613,-2.52,2.75,-1.5,4.02
8.720918893814087,-2.7,3.1,-1.62,4.41
8.721911907196045,-2.74,3.16,-1.6,4.47
8.737491846084595,-2.82,3.13,-1.61,4.51
8.738512992858887,-2.91,3.15,-1.63,4.58
8.753575801849365,-3.17,3.23,-1.59,4.79
8.755030870437622,-3.57,3.36,-1.56,5.14
8.770371913909912,-4.12,3.73,-1.05,5.65
8.771821975708008,-4.99,4.74,-0.38,6.89
8.78685474395752,-6.34,6.07,-0.02,8.77
8.819581031799316,-7.96,7.61,-0.4,11.01
8.820956707000732,-9.07,8.32,-2.11,12.48
8.821982860565186,-9.7,8.28,-2.78,13.05
8.83753490447998,-10.59,8.57,-3.61,14.09
8.838607788085938,-11.2,8.28,-5.68,15.04
8.853744983673096,-11.5,8.18,-6.61,15.58
8.855250835418701,-10.35,10.83,-4.25,15.57
8.870569705963135,-6.62,13.8,-2.93,15.58
8.87208080291748,-1.09,14.12,-4.95,15.0
8.884522914886475,2.25,12.1,-4.3,13.03
8.889644861221313,1.6,6.7,-4.12,8.02
8.93276596069336,-2.59,1.31,-5.05,5.82
8.933887004852295,-5.72,-2.45,-5.06,8.02
8.934873819351196,-2.09,0.26,-3.96,4.48
8.954693794250488,4.6,3.54,1.22,5.93
8.956195831298828,4.32,-0.92,-1.29,4.6
8.970298767089844,-0.12,-2.92,-5.45,6.18
8.971791744232178,-3.78,-1.93,-3.68,5.61
8.98745083808899,-6.13,-0.79,-2.86,6.81
8.988917827606201,-7.11,-0.68,-3.03,7.75
9.002801895141602,-6.18,-1.03,-2.76,6.84
9.03270673751831,-4.24,-2.06,-1.85,5.06
9.03404688835144,-2.95,-3.53,-0.61,4.64
9.035083770751953,-2.62,-4.8,0.19,5.47
9.054155826568604,-2.82,-5.39,0.9,6.14
9.055208921432495,-3.14,-5.67,1.63,6.68
9.070535898208618,-3.18,-5.71,1.67,6.74
9.072045803070068,-2.99,-5.59,0.71,6.37
9.087447881698608,-2.93,-5.0,-0.54,5.82
9.088928699493408,-3.28,-4.19,-1.65,5.57
9.102718830108643,-3.92,-3.71,-2.44,5.92
9.132007837295532,-4.4,-3.91,-2.31,6.32
9.133441925048828,-4.78,-4.5,-1.82,6.81
9.13444995880127,-4.69,-5.67,-1.28,7.46
9.154059886932373,-4.5,-6.39,-0.66,7.84
9.15507984161377,-4.69,-7.14,-0.29,8.54
9.170498847961426,-4.82,-8.06,0.01,9.39
9.171937942504883,-4.57,-8.63,-0.14,9.76
9.187435865402222,-4.13,-8.95,-0.55,9.87
9.188893795013428,-3.45,-9.16,-0.83,9.82
9.202810764312744,-2.17,-9.32,-1.03,9.62
9.230990886688232,-0.41,-9.26,-1.31,9.36
9.232353925704956,1.17,-9.08,-1.63,9.29
9.233351707458496,2.56,-8.37,-1.36,8.85
9.254254817962646,4.02,-7.2,-1.53,8.38
9.255273818969727,6.09,-5.86,-2.24,8.74
9.270716905593872,8.72,-4.51,-2.04,10.02
9.27219295501709,11.08,-2.45,-0.15,11.34
9.28738284111023,12.49,0.3,2.68,12.77
9.288861751556396,12.88,2.72,4.77,14.0
9.30317497253418,12.37,4.82,7.03,15.02
9.332384824752808,12.7,7.16,10.41,17.91
9.333772897720337,13.72,9.14,13.02,21.0
9.334788799285889,13.59,9.32,12.57,20.72
9.35414981842041,12.37,8.7,10.42,18.36
9.355260848999023,11.1,9.56,9.46,17.43
9.370362758636475,11.25,10.55,6.54,16.75
9.371410846710205,7.31,9.18,-2.51,12.0
9.387388706207275,-6.39,-1.6,-19.23,20.32
9.388936996459961,-21.17,16.95,-36.67,45.6
9.403075695037842,-19.64,62.32,7.39,65.75
9.429704904556274,-13.05,35.91,8.59,39.16
9.431198835372925,-0.47,3.83,0.49,3.88
9.432209968566895,5.36,-9.39,8.27,13.61
9.43452501296997,7.24,-15.85,5.48,18.26
9.435918807983398,10.09,-15.74,1.68,18.77
9.445450782775879,11.71,-11.82,2.18,16.78
9.455350875854492,9.15,-5.39,3.61,11.21
9.465351819992065,3.66,-1.31,2.0,4.37
9.475125789642334,-0.22,1.49,-0.65,1.64
9.485414028167725,-1.64,4.56,-3.28,5.85
9.520198822021484,-0.89,5.82,-3.26,6.72
9.521381855010986,0.36,2.98,-1.16,3.21
9.522390842437744,1.35,-0.83,0.98,1.86
9.537930011749268,1.31,-2.39,2.13,3.45
9.538955926895142,0.43,-2.19,1.62,2.75
9.55296802520752,0.01,-0.5,0.18,0.53
9.554451942443848,0.09,0.88,-0.72,1.14
9.569581985473633,0.16,0.98,-0.57,1.14
9.5746328830719,0.16,0.23,0.0,0.28
9.584214925765991,0.32,-0.36,0.08,0.48
9.621202945709229,0.39,-0.42,-0.17,0.59
9.62260103225708,0.11,0.0,-0.26,0.28
9.623567819595337,-0.43,0.45,-0.16,0.64
9.637449741363525,-0.87,0.63,0.13,1.08
9.638479709625244,-0.84,0.47,0.01,0.96
9.654368877410889,-0.26,0.1,-0.55,0.61
9.655866861343384,0.28,-0.1,-1.15,1.18
9.670866966247559,0.3,0.09,-1.28,1.31
9.673818826675415,-0.36,0.47,-0.78,0.97
9.686381816864014,-1.15,0.83,-0.19,1.43
9.693990707397461,-1.23,0.85,0.34,1.53
9.730507850646973,-0.84,0.52,0.3,1.03
9.731614828109741,-0.52,0.27,0.13,0.6
9.73285984992981,-0.69,0.17,-0.21,0.74
9.734306812286377,-0.94,0.22,-0.52,1.09
9.742938995361328,-0.88,0.26,-0.81,1.22
9.753268718719482,-0.66,0.26,-0.94,1.17
9.763350009918213,-0.45,0.39,-1.02,1.18
9.773472785949707,-0.43,0.54,-1.06,1.26
9.783129692077637,-0.59,0.68,-1.03,1.36
9.793266773223877,-0.54,0.79,-0.82,1.26
9.824361801147461,-0.49,0.9,-0.29,1.06
9.825695991516113,-0.58,0.96,-0.12,1.12
9.826716899871826,-0.86,1.01,-0.07,1.32
9.837870836257935,-1.36,1.15,0.01,1.78
9.842213869094849,-1.36,1.44,0.24,1.99
9.853694915771484,-1.5,1.63,-0.03,2.21
9.8627188205719,-1.49,2.0,0.02,2.49
9.872392892837524,-1.78,1.99,-0.14,2.67
9.882510900497437,-2.1,2.07,-0.15,2.95
9.892350912094116,-2.32,2.05,-0.45,3.12
9.92379379272461,-2.35,2.06,-0.65,3.19
9.925111770629883,-2.28,2.05,-0.92,3.2
9.926110744476318,-2.32,2.06,-1.07,3.28
9.938033819198608,-2.64,2.19,-1.07,3.59
9.941593885421753,-3.28,2.71,-0.81,4.33
9.95356798171997,-4.35,3.7,-0.42,5.72
9.96175479888916,-5.81,5.46,-0.08,7.97
9.97162675857544,-7.05,7.07,-1.71,10.12
9.981482982635498,-7.57,7.32,-3.97,11.25
9.991536855697632,-8.16,8.21,-4.2,12.31
10.02210783958435,-8.42,8.74,-5.58,13.35
10.023521900177002,-8.61,8.12,-6.48,13.49
10.024549007415771,-9.29,7.52,-6.02,13.38
10.038328886032104,-9.43,8.61,-4.46,13.52
10.04076886177063,-7.95,10.87,-2.87,13.76
10.05424189567566,-4.29,11.69,-4.07,13.1
10.061065912246704,0.35,10.97,-5.62,12.33
10.071125984191895,2.98,9.26,-2.65,10.08
10.08082890510559,1.62,4.16,-2.5,5.11
10.090622901916504,-2.37,-0.23,-3.68,4.38
10.127734899520874,-3.9,-2.95,-5.0,6.99
10.129011869430542,0.48,1.16,-4.78,4.94
10.130062818527222,5.04,3.99,-0.32,6.43
10.133978843688965,2.11,0.94,-3.24,3.97
10.140049934387207,-2.92,0.36,-5.62,6.34
10.15405797958374,-6.33,1.52,-3.62,7.44
10.159857749938965,-9.41,1.45,-3.36,10.09
10.170191764831543,-10.9,0.92,-2.16,11.14
10.18009090423584,-9.66,-0.38,-0.23,9.67
10.189943790435791,-7.33,-2.44,1.48,7.86
10.226292848587036,-5.84,-4.53,2.55,7.81
10.227678775787354,-5.49,-6.03,3.01,8.69
10.228747844696045,-5.34,-6.51,2.89,8.9
10.238143920898438,-5.02,-6.1,2.11,8.17
10.23920488357544,-4.59,-5.18,0.46,6.93
10.25429081916809,-4.25,-4.38,-1.05,6.19
10.259513854980469,-4.41,-3.73,-2.22,6.18
10.27162504196167,-4.44,-4.0,-2.87,6.62
10.279493808746338,-4.35,-4.42,-3.14,6.95
10.289460897445679,-3.99,-5.12,-3.41,7.33
10.326335906982422,-3.68,-5.62,-3.26,7.46
10.327677726745605,-3.49,-6.13,-2.9,7.62
10.328763008117676,-3.23,-6.9,-2.59,8.04
10.33562684059143,-3.05,-7.64,-2.22,8.52
10.338483810424805,-3.05,-8.07,-1.77,8.8
10.354024887084961,-3.18,-8.46,-1.42,9.14
10.358376026153564,-3.42,-8.77,-1.14,9.48
10.370839834213257,-3.51,-9.03,-0.73,9.71
10.378800868988037,-3.22,-8.95,-0.02,9.51
10.388362884521484,-2.42,-8.46,0.75,8.83
10.425153732299805,-1.32,-7.76,1.07,7.94
10.426459789276123,-0.11,-6.62,0.7,6.65
10.427480697631836,1.52,-5.01,0.62,5.27
10.438525915145874,4.03,-2.9,1.58,5.21
10.439594745635986,7.05,-0.57,3.2,7.76
10.454288959503174,9.77,1.82,5.1,11.17
10.457507848739624,11.38,4.22,6.72,13.87
10.469682693481445,12.36,6.66,8.17,16.24
10.47794771194458,13.54,8.36,8.11,17.86
10.487604856491089,14.32,9.72,7.7,18.94
10.49778699874878,14.85,11.83,7.72,20.49
10.528920888900757,13.1,16.39,3.41,21.25
10.530123710632324,11.27,20.25,-7.06,24.22
10.531384944915771,6.45,15.63,-20.27,26.39
10.537174701690674,-4.03,37.0,-12.75,39.34
10.55241084098816,-6.68,48.53,-6.37,49.4
10.556879997253418,-2.86,9.5,-6.45,11.83
10.571393013000488,2.32,-4.37,4.01,6.36
10.577030897140503,3.35,-7.8,10.51,13.51
10.587007999420166,4.72,-9.83,9.92,14.74
10.596913814544678,7.09,-9.71,6.02,13.44
10.62764286994934,6.79,-6.5,1.5,9.51
10.628825902938843,5.46,-0.26,0.07,5.46
10.630122900009155,3.11,2.84,-0.29,4.22
10.636327743530273,0.7,2.8,-0.93,3.03
10.64640188217163,-0.92,1.02,-1.77,2.24
10.65633773803711,-0.96,0.3,-1.19,1.55
10.666635036468506,0.2,0.39,-0.28,0.52
10.676455020904541,1.3,-0.06,0.4,1.36
10.686421871185303,1.49,-0.78,0.62,1.79
10.696226835250854,1.08,-1.08,0.07,1.52
10.72810173034668,0.82,-0.69,-0.25,1.1
10.729512691497803,0.75,-0.2,0.07,0.77
10.730543851852417,0.65,-0.15,0.29,0.72
10.735483884811401,0.41,-0.2,0.65,0.79
10.745591878890991,0.19,0.02,1.05,1.06
10.75547170639038,0.15,0.22,1.07,1.1
10.765545845031738,0.36,0.1,0.9,0.97
10.775539875030518,0.66,-0.21,0.55,0.88
10.78576374053955,0.77,-0.31,0.27,0.87
10.795399904251099,0.52,-0.15,-0.29,0.61
10.827155828475952,0.23,0.07,-0.54,0.59
10.828478813171387,0.16,0.28,-0.19,0.37
10.829524993896484,0.2,0.22,0.02,0.29
10.836323738098145,0.18,-0.04,-0.09,0.2
10.84485673904419,0.08,-0.1,-0.35,0.37
10.854640007019043,-0.09,0.09,-0.44,0.45
10.864881992340088,-0.4,0.33,-0.2,0.55
10.874743938446045,-0.59,0.52,0.05,0.78
10.884986877441406,-0.43,0.38,-0.04,0.57
10.894743919372559,-0.22,0.24,-0.11,0.34
10.930507898330688,-0.19,0.15,0.03,0.24
10.931896924972534,-0.43,0.13,0.16,0.47
10.932863712310791,-0.7,0.12,-0.12,0.72
10.93512773513794,-0.79,0.23,-0.61,1.02
10.944102764129639,-0.64,0.45,-0.82,1.13
10.95394492149353,-0.66,0.62,-0.9,1.27
10.964215755462646,-0.98,0.71,-1.08,1.62
10.974149703979492,-1.43,0.86,-1.06,1.97
10.984182834625244,-1.76,1.05,-1.06,2.3
10.993976831436157,-1.82,1.19,-1.08,2.42
11.031288862228394,-1.79,1.28,-1.07,2.44
11.032686710357666,-1.87,1.41,-1.0,2.54
11.033653736114502,-2.02,1.66,-0.83,2.74
11.035862922668457,-2.08,2.0,-0.86,3.01
11.043105840682983,-1.98,2.28,-1.09,3.21
11.053442001342773,-2.11,2.69,-1.1,3.59
11.06352686882019,-2.42,3.61,-0.82,4.42
11.073511838912964,-2.94,3.93,-0.9,4.98
11.08358097076416,-3.57,4.17,-0.63,5.52
11.093026876449585,-4.19,4.35,-0.97,6.11
11.128602981567383,-4.46,4.81,-1.42,6.71
11.129994869232178,-4.74,5.63,-1.63,7.53
11.13100290298462,-5.7,7.05,-1.6,9.2
11.134625911712646,-7.24,8.95,-1.81,11.65
11.154919862747192,-9.32,9.97,-3.96,14.21
11.15635871887207,-11.04,10.46,-5.49,16.16
11.170500755310059,-11.73,10.88,-5.45,16.9
11.172350883483887,-11.64,10.44,-6.59,16.96
11.187140941619873,-11.68,9.36,-8.08,17.0
11.192543029785156,-11.45,9.91,-7.73,17.0
11.231900691986084,-8.81,13.17,-4.4,16.44
11.233059883117676,-3.49,14.48,-4.23,15.48
11.234070777893066,1.49,12.58,-5.48,13.8
11.255352020263672,2.56,7.25,-4.37,8.84
11.256797790527344,-0.05,2.25,-4.44,4.97
11.272035837173462,-2.85,-1.5,-4.82,5.79
11.27345895767212,0.58,1.76,-3.37,3.84
11.288496971130371,5.93,4.04,1.72,7.37
11.28996992111206,3.17,-1.22,-1.99,3.93
11.30732774734497,-2.36,-2.67,-4.92,6.07
11.310741901397705,-5.75,-1.71,-2.39,6.45
11.346550941467285,-8.42,-1.39,-1.57,8.67
11.347721815109253,-10.2,-1.73,-1.46,10.44
11.349033832550049,-9.65,-2.67,-0.54,10.02
11.351478815078735,-7.62,-4.28,1.0,8.79
11.371888875961304,-5.91,-6.27,2.37,8.93
11.373364925384521,-5.15,-7.81,2.77,9.75
11.388433933258057,-5.12,-8.29,2.6,10.08
11.389899730682373,-5.25,-7.78,1.75,9.54
11.403925895690918,-5.19,-6.71,0.53,8.49
11.405448913574219,-4.88,-6.36,-0.76,8.05
11.446352005004883,-4.72,-6.18,-1.39,7.89
11.447550773620605,-4.78,-6.19,-2.16,8.11
11.448754787445068,-4.31,-6.66,-3.27,8.58
11.451022863388062,-3.85,-6.82,-3.63,8.63
11.471689701080322,-3.47,-7.12,-3.47,8.64
11.473163843154907,-3.1,-7.51,-3.13,8.7
11.488282918930054,-2.47,-8.3,-2.84,9.11
11.489752769470215,-1.81,-9.13,-2.85,9.73
11.503822803497314,-1.35,-9.82,-2.98,10.35
11.505324840545654,-1.14,-10.13,-2.68,10.54
11.550364971160889,-0.94,-10.08,-1.99,10.31
11.551795959472656,-0.71,-9.67,-0.96,9.74
11.552796840667725,-0.22,-8.74,-0.25,8.74
11.57236385345459,1.08,-7.58,-0.57,7.67
11.573826789855957,2.84,-6.31,-0.63,6.94
11.588235855102539,4.51,-4.41,0.93,6.37
11.589711904525757,6.22,-2.27,3.21,7.35
11.605167865753174,7.98,-0.35,5.0,9.42
11.606680870056152,9.32,1.59,6.22,11.31
11.621054887771606,10.28,4.08,7.06,13.12
11.650530815124512,11.34,6.21,7.02,14.71
11.651840925216675,12.66,7.47,6.34,16.0
11.652854919433594,13.65,9.28,6.15,17.61
11.6701979637146,14.66,11.71,6.29,19.78
11.671275854110718,15.93,14.09,6.55,22.25
11.685358047485352,14.78,17.05,3.32,22.8
11.686851024627686,9.84,16.78,-6.99,20.67
11.704417705535889,-4.0,9.6,-19.85,22.4
11.705894947052002,-15.02,46.53,-10.68,50.04
11.720476865768433,-16.61,45.58,0.53,48.51
11.748416900634766,-8.07,7.37,0.37,10.93
11.749815940856934,2.09,-4.24,3.9,6.12
11.750802040100098,4.52,-11.98,7.49,14.83
11.7531418800354,6.36,-15.03,6.17,17.44
11.75454592704773,9.8,-12.68,4.79,16.72
11.75784969329834,10.47,-8.58,3.2,13.9
11.767941951751709,6.56,-3.01,1.72,7.41
11.777976036071777,1.94,1.3,1.63,2.84
11.787943840026855,-1.16,3.95,-2.05,4.59
11.797875881195068,-1.98,4.75,-5.14,7.27
11.834714889526367,-0.36,3.74,-3.29,4.99
11.836045742034912,1.47,1.27,0.93,2.15
11.837061882019043,1.87,-1.24,3.36,4.04
11.85529088973999,1.46,-2.84,2.77,4.22
11.856355905532837,0.71,-2.45,1.42,2.91
11.871346950531006,0.7,-0.59,0.29,0.96
11.872411727905273,0.86,0.38,-0.73,1.19
11.888288021087646,0.72,0.54,-0.57,1.06
11.889768838882446,0.41,0.34,0.03,0.53
11.904068946838379,0.38,0.16,0.28,0.49
11.932590007781982,0.65,0.03,-0.24,0.69
11.933904886245728,0.86,-0.09,-0.81,1.18
11.934914827346802,0.71,-0.11,-0.96,1.19
11.955567836761475,0.02,-0.02,-0.45,0.45
11.956621885299683,-0.8,0.12,0.6,1.0
11.971601009368896,-1.22,0.25,1.26,1.77
11.972972869873047,-0.84,0.23,0.47,0.98
11.98868703842163,0.11,0.32,-0.6,0.68
11.990052700042725,0.44,0.4,-0.97,1.13
12.00377893447876,0.06,0.45,-0.76,0.88
12.03325080871582,-0.4,0.43,-0.59,0.83
12.03465986251831,-0.5,0.44,-0.35,0.75
12.03571081161499,-0.47,0.42,-0.28,0.68
12.055574893951416,-0.68,0.45,-0.29,0.86
12.056595802307129,-1.13,0.57,-0.33,1.3
12.071528911590576,-1.46,0.7,-0.26,1.63
12.072993755340576,-1.54,0.67,-0.08,1.68
12.088482856750488,-1.4,0.67,-0.11,1.55
12.089824914932251,-1.05,0.7,-0.62,1.4
12.10400676727295,-0.73,0.69,-0.91,1.35
12.105498790740967,-0.53,0.64,-0.97,1.27
12.149190902709961,-0.68,0.66,-0.77,1.22
12.150362014770508,-1.37,0.82,-0.51,1.67
12.151341915130615,-2.09,1.15,-0.37,2.41
12.153578758239746,-2.5,1.52,-0.71,3.01
12.155109882354736,-2.38,1.8,-0.98,3.14
12.164824962615967,-2.12,2.11,-1.18,3.21
12.175014019012451,-1.76,2.39,-1.01,3.13
12.18512773513794,-1.76,2.42,-0.92,3.13
12.195169925689697,-2.14,2.59,-0.94,3.48
12.204864025115967,-2.63,2.92,-1.07,4.07
12.234027862548828,-2.97,3.24,-0.9,4.48
12.23521375656128,-3.23,3.39,-0.91,4.77
12.23621392250061,-3.48,3.37,-0.98,4.94
12.253805875778198,-3.97,3.42,-0.94,5.32
12.254878997802734,-4.81,3.76,-0.93,6.17
12.271888732910156,-5.73,4.84,-0.79,7.54
12.2741858959198,-7.09,6.34,-1.5,9.62
12.28855586051941,-8.73,8.26,-2.51,12.27
12.29432487487793,-10.02,9.81,-4.04,14.59
12.304150819778442,-10.72,10.47,-5.46,15.94
12.335094928741455,-11.37,10.19,-6.49,16.59
12.33635687828064,-12.4,9.66,-7.17,17.27
12.33738899230957,-12.64,12.49,-5.51,18.6
12.355659008026123,-9.66,16.06,-3.82,19.12
12.356719970703125,-3.74,14.76,-7.24,16.86
12.372225761413574,1.39,12.86,-7.49,14.94
12.373666763305664,2.47,8.72,-4.42,10.08
12.388617038726807,-1.04,2.6,-4.57,5.35
12.393380880355835,-4.41,-1.68,-4.56,6.56
12.404436826705933,-1.63,-1.0,-5.17,5.51
12.433819770812988,5.67,4.75,0.02,7.39
12.435259819030762,6.56,1.02,1.14,6.73
12.436283826828003,0.55,-2.39,-4.66,5.26
12.45534896850586,-4.65,-3.22,-3.51,6.65
12.456374883651733,-7.81,-2.84,-1.9,8.52
12.472152709960938,-10.12,-3.14,-1.91,10.76
12.473634719848633,-10.94,-3.57,-1.17,11.56
12.488793849945068,-8.94,-4.29,0.56,9.93
12.492648839950562,-6.1,-5.84,1.98,8.67
12.504148960113525,-4.35,-7.32,2.51,8.87
12.539840698242188,-4.02,-7.81,2.32,9.08
12.541155815124512,-4.95,-6.81,2.1,8.67
12.542157888412476,-5.78,-5.73,1.37,8.25
12.555881977081299,-6.08,-4.95,0.36,7.84
12.556938886642456,-5.56,-4.63,-1.03,7.3
12.572101831436157,-4.58,-4.32,-2.23,6.67
12.573562860488892,-3.46,-4.16,-3.03,6.2
12.588766813278198,-2.51,-4.66,-3.41,6.29
12.591807842254639,-2.24,-5.39,-3.19,6.65
12.604275703430176,-2.38,-6.07,-2.68,7.04
12.638584852218628,-2.46,-6.64,-2.4,7.47
12.640482902526855,-2.28,-7.23,-2.41,7.95
12.641462802886963,-1.96,-7.77,-2.41,8.36
12.653975009918213,-1.61,-8.25,-1.97,8.63
12.654983043670654,-1.24,-8.58,-1.16,8.74
12.671996831893921,-0.77,-8.71,-0.22,8.74
12.673306941986084,0.03,-8.52,0.6,8.54
12.6888108253479,1.28,-7.91,0.38,8.02
12.691096782684326,2.85,-6.82,-0.16,7.39
12.704218864440918,4.59,-5.3,0.28,7.01
12.73829984664917,6.11,-3.62,1.65,7.29
12.739559888839722,7.17,-1.9,2.89,7.96
12.740558862686157,7.72,-0.31,3.54,8.49
12.755727767944336,8.41,1.82,4.24,9.59
12.756788730621338,10.05,4.1,4.88,11.9
12.772336959838867,12.3,5.71,5.47,14.62
12.773835897445679,14.74,7.28,6.11,17.53
12.78892469406128,16.65,8.99,6.5,20.0
12.790382862091064,17.64,10.04,6.87,21.42
12.804680824279785,17.27,10.44,6.26,21.12
12.839262962341309,15.79,10.84,5.76,20.0
12.840542793273926,12.67,12.82,2.48,18.19
12.841574907302856,3.44,3.86,-7.52,9.12
12.856079816818237,-12.25,-2.8,-24.72,27.73
12.857400894165039,-25.04,36.92,-20.8,49.22
12.86927604675293,-21.52,60.51,16.25,66.24
12.870805740356445,-11.88,18.23,4.12,22.14
12.889142990112305,1.66,-0.29,4.38,4.69
12.890621900558472,8.46,-8.39,8.61,14.7
12.90455675125122,10.25,-13.66,5.2,17.85
12.909427881240845,11.38,-13.62,0.02,17.74
12.951488971710205,11.63,-9.52,0.26,15.03
12.952678918838501,9.26,-4.46,2.54,10.58
12.953673839569092,4.08,-1.48,1.98,4.77
12.972991943359375,-0.34,0.8,-0.16,0.88
12.974498748779297,-1.63,3.08,-1.57,3.82
12.988951921463013,-0.93,4.16,-1.16,4.41
12.990431785583496,0.2,2.55,-0.57,2.62
13.00577974319458,1.13,0.0,0.93,1.46
13.007251739501953,1.28,-1.4,1.33,2.31
13.021195888519287,0.72,-1.71,0.74,1.99
13.050824880599976,0.03,-0.82,0.3,0.87
13.052165985107422,-0.08,0.21,-0.38,0.44
13.053188800811768,0.37,0.55,-0.86,1.08
13.072560787200928,0.7,0.3,-0.78,1.09
13.073545932769775,0.71,0.06,-0.46,0.84
13.088919878005981,0.71,-0.22,-0.33,0.81
13.090307712554932,0.72,-0.56,0.02,0.91
13.105638027191162,0.5,-0.8,0.52,1.07
13.107136726379395,0.04,-0.82,0.5,0.96
13.1211678981781,-0.28,-0.29,0.41,0.57
13.150930881500244,-0.22,0.4,0.45,0.64
13.152787923812866,-0.17,0.68,-0.02,0.7
13.153796911239624,-0.2,0.63,-0.8,1.03
13.173004865646362,-0.29,0.52,-1.04,1.19
13.174493789672852,-0.46,0.48,-0.49,0.82
13.189097881317139,-0.6,0.5,0.16,0.79
13.190506935119629,-0.56,0.43,0.26,0.75
13.205978870391846,-0.43,0.39,0.17,0.6
13.207389831542969,-0.37,0.44,0.14,0.59
13.221337795257568,-0.38,0.48,0.19,0.64
13.249849796295166,-0.43,0.43,0.39,0.72
13.251097917556763,-0.5,0.32,0.47,0.75
13.252033710479736,-0.55,0.24,0.27,0.65
13.273237705230713,-0.68,0.33,-0.09,0.76
13.27430772781372,-1.02,0.64,-0.55,1.32
13.289177894592285,-1.27,1.08,-0.92,1.9
13.290657043457031,-1.54,1.41,-1.27,2.44
13.305948734283447,-1.81,1.7,-1.34,2.82
13.307415962219238,-2.17,1.99,-1.27,3.2
13.320862770080566,-2.6,1.97,-1.43,3.56
13.348430871963501,-2.51,2.15,-1.25,3.53
13.349758863449097,-2.38,2.14,-1.51,3.53
13.350627899169922,-2.12,2.29,-1.7,3.55
13.352591037750244,-2.12,2.62,-1.5,3.68
13.355751991271973,-2.58,3.03,-1.34,4.19
13.365620851516724,-3.14,3.28,-1.21,4.69
13.375909805297852,-3.57,3.37,-0.73,4.96
13.385921955108643,-4.06,3.35,-0.5,5.28
13.395895957946777,-4.59,3.37,-0.79,5.74
13.40585994720459,-5.0,3.67,-1.12,6.3
13.441251754760742,-5.44,4.24,-1.69,7.1
13.44242000579834,-6.41,5.1,-2.41,8.53
13.44341492652893,-7.83,6.8,-2.02,10.56
13.456130027770996,-9.49,9.45,-1.84,13.51
13.457190036773682,-11.17,11.5,-4.69,16.7
13.47204303741455,-12.38,11.69,-7.39,18.56
13.474922895431519,-12.98,12.16,-7.97,19.49
13.486400842666626,-11.89,15.27,-6.02,20.26
13.495086908340454,-8.06,17.31,-4.87,19.7
13.504976749420166,-1.9,16.44,-7.06,17.99
13.54007887840271,2.17,13.08,-6.42,14.73
13.541414737701416,1.89,6.66,-5.38,8.76
13.54243278503418,-2.53,1.56,-5.61,6.34
13.556269884109497,-5.13,-2.07,-5.36,7.7
13.557357788085938,-0.27,1.15,-4.63,4.77
13.570744037628174,6.26,3.88,1.23,7.46
13.574152946472168,4.41,-1.34,-1.09,4.73
13.58923888206482,-1.74,-3.57,-4.86,6.27
13.594241857528687,-5.97,-3.35,-2.53,7.29
13.604888916015625,-8.65,-2.42,-1.83,9.16
13.640394926071167,-10.44,-1.98,-2.13,10.83
13.641810894012451,-10.0,-1.76,-1.44,10.25
13.642863750457764,-7.79,-2.67,-0.49,8.24
13.656327724456787,-5.9,-4.17,0.92,7.28
13.657383918762207,-4.97,-5.95,1.96,7.99
13.671775817871094,-4.86,-7.11,2.23,8.89
13.673251867294312,-5.08,-7.39,1.85,9.15
13.689476013183594,-5.37,-6.48,1.06,8.48
13.69336485862732,-5.18,-5.8,-0.15,7.77
13.705965042114258,-4.93,-5.31,-1.17,7.33
13.713502883911133,-4.93,-4.91,-1.94,7.22
13.748719692230225,-4.11,-5.09,-3.53,7.43
13.749851703643799,-2.96,-4.89,-4.12,7.04
13.751044750213623,-2.31,-5.12,-4.02,6.9
13.752650737762451,-2.16,-5.75,-3.3,6.97
13.762849807739258,-2.04,-6.44,-2.6,7.23
13.77284288406372,-1.61,-7.27,-2.31,7.79
13.782763004302979,-0.98,-8.07,-2.4,8.47
13.792943954467773,-0.31,-8.9,-2.42,9.22
13.802896976470947,0.2,-9.41,-2.06,9.63
13.81269383430481,0.76,-9.77,-1.55,9.92
13.842175960540771,1.22,-9.51,-0.68,9.61
13.843496799468994,1.85,-8.45,0.35,8.65
13.844522953033447,2.87,-7.1,0.52,7.67
13.856448888778687,4.2,-5.55,0.51,6.97
13.862167835235596,5.71,-3.72,1.27,6.93
13.872290849685669,7.25,-1.37,3.03,7.97
13.882304906845093,8.93,1.27,5.15,10.38
13.891947746276855,10.71,3.71,6.63,13.13
13.902215957641602,12.19,5.7,7.43,15.37
13.911914825439453,12.8,7.04,7.21,16.29
13.942656993865967,12.95,8.82,7.18,17.23
13.944031715393066,13.23,11.51,6.98,18.87
13.945006847381592,14.08,13.35,7.14,20.67
13.956702709197998,15.25,14.41,7.2,22.18
13.961326837539673,14.89,16.01,1.21,21.89
13.971020698547363,8.1,5.31,-11.74,15.21
13.981282711029053,-9.1,3.62,-28.04,29.7
13.991089820861816,-16.66,50.54,-9.34,54.02
14.001302719116211,-16.28,48.56,5.65,51.52
14.010926723480225,-5.37,9.13,1.24,10.66
14.042735815048218,5.47,-3.53,6.73,9.36
14.04403281211853,6.78,-13.6,7.48,16.93
14.045056819915771,8.88,-16.88,2.03,19.18
14.056505918502808,11.89,-13.5,3.41,18.3
14.060492992401123,10.78,-6.2,5.55,13.61
14.072317838668823,5.41,-1.95,3.04,6.5
14.080804824829102,0.98,0.27,-0.14,1.02
14.09048581123352,-1.68,2.93,-3.09,4.57
14.100620746612549,-1.95,4.85,-2.86,5.95
14.11018681526184,-0.34,3.82,-0.23,3.84
14.148316860198975,1.25,0.23,1.12,1.69
14.149629831314087,1.77,-1.7,1.65,2.95
14.150603771209717,1.24,-2.07,1.16,2.67
14.152904987335205,0.71,-1.14,0.21,1.35
14.1597318649292,0.65,-0.03,-0.16,0.67
14.169827938079834,0.75,0.18,-0.42,0.87
14.179787874221802,0.73,0.06,-0.48,0.87
14.189894914627075,0.31,0.1,-0.33,0.46
14.199604034423828,0.08,0.31,-0.26,0.41
14.209707736968994,0.38,0.25,-0.29,0.53
14.246181964874268,0.75,-0.12,-0.26,0.8
14.247519969940186,0.72,-0.4,-0.04,0.82
14.24856686592102,0.23,-0.54,-0.2,0.62
14.252306938171387,-0.01,-0.19,0.12,0.22
14.25928783416748,0.24,0.09,0.76,0.8
14.27260971069336,0.55,-0.04,0.88,1.03
14.279022693634033,0.59,-0.18,0.66,0.9
14.28907585144043,0.7,-0.29,-0.3,0.81
14.299176692962646,0.72,0.19,0.62,0.96
14.308884859085083,0.5,0.33,0.27,0.65
14.343401908874512,-0.1,0.09,0.39,0.41
14.344775915145874,-0.07,0.63,-2.24,2.32
14.345792770385742,-1.01,0.3,-0.05,1.05
14.356797695159912,-0.63,1.09,-0.79,1.48
14.358146905899048,-1.34,0.58,-1.06,1.8
14.372588872909546,-1.45,0.26,0.11,1.47
14.378012895584106,-1.99,0.56,-0.36,2.09
14.389009952545166,-2.19,0.74,-1.09,2.55
14.39842700958252,-2.02,1.04,-1.6,2.77
14.40795087814331,-1.74,1.2,-2.08,2.96
14.444509029388428,-1.57,1.15,-1.95,2.75
14.445932865142822,-1.37,1.07,-1.29,2.16
14.446950912475586,-1.28,0.98,-0.7,1.75
14.456614017486572,-1.4,1.04,-0.38,1.78
14.457665920257568,-1.71,1.31,-0.2,2.16
14.472628831863403,-2.04,1.64,-0.15,2.62
14.477643013000488,-2.27,1.79,0.03,2.89
14.489707946777344,-2.42,2.16,0.22,3.25
14.497323989868164,-2.69,2.45,-0.34,3.65
14.507205963134766,-2.39,2.62,-0.64,3.6
14.517216920852661,-2.23,2.69,-0.92,3.61
14.547902822494507,-2.27,2.75,-1.13,3.74
14.549095869064331,-2.8,2.87,-1.16,4.17
14.550362825393677,-3.51,3.4,-0.72,4.93
14.556790828704834,-4.21,4.13,-0.64,5.93
14.573211908340454,-5.19,5.22,-0.78,7.4
14.576828002929688,-6.56,6.96,-1.07,9.62
14.58738088607788,-7.79,8.37,-2.76,11.76
14.597007751464844,-8.82,8.99,-4.95,13.53
14.606520891189575,-9.99,9.28,-5.96,14.88
14.61644983291626,-11.03,9.53,-6.18,15.83
14.64741587638855,-11.69,9.63,-6.52,16.48
14.648663997650146,-12.11,9.82,-6.03,16.71
14.649899959564209,-11.17,12.13,-3.97,16.96
14.655901908874512,-7.06,13.47,-3.66,15.64
14.669658899307251,-1.13,12.35,-6.42,13.96
14.675987720489502,2.66,10.75,-4.98,12.14
14.69113302230835,1.67,5.28,-3.77,6.69
14.695953845977783,-3.09,0.22,-4.27,5.27
14.705729961395264,-5.88,-3.14,-4.43,8.0
14.716006755828857,-1.73,-0.71,-4.09,4.49
14.748309850692749,4.79,2.4,0.97,5.44
14.749526023864746,2.99,-1.91,-0.89,3.65
14.750755786895752,-2.54,-3.97,-3.96,6.15
14.755270004272461,-6.43,-4.2,-2.02,7.94
14.765174865722656,-9.02,-3.95,-1.28,9.92
14.775403022766113,-10.79,-4.37,-1.59,11.74
14.785038948059082,-10.78,-4.92,-1.08,11.89
14.795243740081787,-8.81,-5.63,0.38,10.46
14.805160999298096,-6.79,-6.93,1.44,9.8
14.81513500213623,-5.81,-7.98,1.71,10.01
14.844478845596313,-5.72,-8.05,1.68,10.01
14.845534801483154,-5.99,-6.65,1.47,9.06
14.846729755401611,-5.91,-4.94,0.64,7.72
14.856843948364258,-5.53,-3.94,-0.66,6.82
14.864329814910889,-5.1,-3.42,-1.62,6.35
14.87416696548462,-4.5,-3.29,-2.13,5.96
14.88451886177063,-3.81,-3.28,-2.41,5.57
14.894426822662354,-3.21,-3.55,-2.56,5.42
14.90449571609497,-2.83,-4.1,-2.51,5.57
14.914435863494873,-2.58,-4.92,-2.58,6.12
14.952241897583008,-2.37,-5.63,-2.51,6.6
14.95365571975708,-2.24,-5.96,-2.14,6.71
14.954677820205688,-2.22,-5.64,-1.3,6.19
14.973509788513184,-1.93,-5.19,-0.64,5.57
14.974982738494873,-0.51,-5.05,-0.52,5.1
14.989928722381592,1.76,-4.64,-0.17,4.96
14.991411924362183,4.13,-4.0,0.5,5.77
15.006700038909912,6.08,-3.29,1.38,7.04
15.008181810379028,7.38,-1.82,2.66,8.05
15.022655010223389,8.08,-0.03,3.59,8.84
15.05394172668457,8.43,1.62,3.64,9.32
15.055227756500244,8.96,3.42,3.17,10.1
15.056246757507324,10.17,5.48,2.93,11.91
15.073578834533691,12.73,7.6,3.5,15.23
15.074652910232544,15.95,8.93,4.22,18.76
15.090051889419556,18.53,8.73,4.74,21.02
15.0914888381958,19.55,8.09,5.07,21.75
15.106826782226562,18.79,7.74,5.56,21.06
15.108316898345947,14.21,11.54,4.99,18.97
15.121951818466187,9.46,12.33,0.45,15.54
15.153503894805908,1.53,2.19,-10.93,11.25
15.15478801727295,-10.87,14.36,-16.28,24.27
15.155899047851562,-15.5,49.92,-1.65,52.29
15.173959732055664,-13.54,26.15,-1.67,29.49
15.175036907196045,-1.8,2.05,-2.19,3.49
15.18788480758667,5.81,-6.18,4.51,9.6
15.189359903335571,7.24,-13.35,7.34,16.86
15.206764698028564,9.69,-13.7,4.49,17.37
15.208215713500977,12.07,-10.07,3.8,16.17
15.22197675704956,9.08,-4.05,3.36,10.49
15.252107858657837,3.73,-0.12,2.64,4.57
15.253558874130249,-0.13,2.04,1.13,2.33
15.254562854766846,-2.36,2.85,-1.59,4.02
15.273612022399902,-1.9,2.56,-2.28,3.91
15.274682998657227,0.08,1.43,-0.53,1.52
15.290043830871582,1.47,0.36,1.45,2.09
15.291487693786621,1.74,-1.16,1.18,2.4
15.307109832763672,1.44,-1.87,-0.02,2.36
15.30856990814209,1.23,-1.15,-0.67,1.81
15.321987867355347,0.92,-0.26,-0.75,1.21
15.32342791557312,0.48,0.08,-0.35,0.59
15.37215781211853,0.27,0.08,-0.04,0.28
15.373229026794434,0.53,0.13,0.03,0.54
15.374197959899902,0.89,0.23,-0.15,0.93
15.390713691711426,0.87,0.3,0.01,0.92
15.391758918762207,0.41,0.11,0.61,0.74
15.406774044036865,0.07,-0.11,1.04,1.04
15.408222913742065,0.1,-0.25,0.93,0.96
15.423264980316162,0.2,-0.25,0.42,0.52
15.424651861190796,0.44,-0.13,-0.43,0.62
15.438902854919434,0.73,-0.02,-0.79,1.07
15.470551013946533,0.79,-0.07,-0.55,0.96
15.47181487083435,0.48,-0.22,-0.07,0.53
15.472823858261108,-0.05,-0.15,0.12,0.19
15.490278720855713,-0.42,0.14,-0.04,0.44
15.491334915161133,-0.46,0.43,0.08,0.63
15.506976842880249,-0.34,0.47,0.3,0.65
15.5084068775177,-0.27,0.32,0.33,0.53
15.523295879364014,-0.25,0.3,0.15,0.41
15.52481484413147,-0.27,0.4,-0.17,0.51
15.539079904556274,-0.43,0.52,-0.43,0.8
15.567401885986328,-0.63,0.61,-0.48,0.99
15.568866729736328,-0.83,0.6,-0.5,1.13
15.569854736328125,-1.03,0.57,-0.63,1.33
15.590325832366943,-1.02,0.63,-0.66,1.36
15.591380834579468,-0.87,0.7,-0.82,1.38
15.606896877288818,-0.77,0.83,-0.94,1.47
15.60833191871643,-0.88,0.94,-0.97,1.61
15.623351812362671,-1.18,1.03,-0.9,1.8
15.624788761138916,-1.72,1.17,-0.49,2.13
15.639149904251099,-2.33,1.48,-0.06,2.76
15.667356014251709,-2.48,1.53,-0.1,2.91
15.668721914291382,-2.46,1.48,-0.28,2.88
15.669699907302856,-2.41,1.77,-0.62,3.05
15.691118717193604,-2.18,1.99,-1.05,3.13
15.692180871963501,-2.08,2.25,-1.18,3.28
15.706708908081055,-2.11,2.46,-1.5,3.57
15.707740783691406,-2.19,2.65,-1.84,3.89
15.722198963165283,-2.36,2.95,-1.76,4.16
15.72362995147705,-2.7,3.28,-1.79,4.61
15.73950481414795,-3.12,3.67,-1.74,5.12
15.768312931060791,-3.88,4.38,-1.62,6.07
15.769771814346313,-5.12,5.81,-1.11,7.82
15.770761966705322,-6.74,7.94,-0.9,10.45
15.790363788604736,-8.04,8.96,-3.24,12.46
15.791421890258789,-8.72,9.09,-4.65,13.42
15.807132720947266,-9.58,9.73,-5.09,14.57
15.808614730834961,-10.18,9.76,-6.46,15.51
15.823545932769775,-10.5,9.28,-7.13,15.72
15.825002908706665,-10.86,9.26,-7.3,16.03
15.839269876480103,-10.3,11.63,-5.65,16.53
15.868549823760986,-7.5,14.0,-4.33,16.46
15.869984865188599,-2.04,13.6,-6.41,15.17
15.871007919311523,1.86,11.31,-5.74,12.81
15.890182971954346,0.96,5.35,-4.81,7.25
15.891244888305664,-3.0,0.21,-4.42,5.34
15.906613826751709,-5.23,-3.04,-4.01,7.25
15.907660007476807,-0.99,0.64,-2.01,2.33
15.923556804656982,4.4,2.44,2.65,5.68
15.925002813339233,1.88,-1.99,-1.68,3.21
15.939260005950928,-2.96,-3.15,-4.46,6.21
15.966684818267822,-6.25,-2.13,-2.75,7.15
15.96809196472168,-8.8,-1.67,-2.86,9.4
15.969083786010742,-10.02,-1.61,-3.15,10.62
15.971214771270752,-8.65,-1.9,-2.41,9.17
15.972665786743164,-6.0,-3.1,-0.82,6.8
15.975971698760986,-3.98,-4.6,0.6,6.11
15.986199855804443,-3.0,-5.95,1.16,6.76
15.996057987213135,-2.73,-6.69,1.14,7.31
16.006197929382324,-2.85,-6.54,0.51,7.15
16.015755891799927,-2.77,-5.68,-0.75,6.36
16.05079984664917,-2.85,-4.2,-2.11,5.49
16.052095890045166,-2.95,-3.48,-3.57,5.79
16.05309772491455,-2.86,-3.17,-4.52,6.21
16.073967933654785,-2.69,-3.46,-4.67,6.4
16.074967861175537,-2.35,-4.67,-4.36,6.8
16.08991289138794,-1.96,-6.04,-3.74,7.36
16.090954780578613,-1.87,-6.94,-3.02,7.79
16.10719084739685,-2.1,-7.69,-2.45,8.33
16.10866689682007,-2.41,-8.29,-1.87,8.83
16.122390747070312,-2.78,-8.76,-1.25,9.27
16.125144004821777,-3.22,-9.21,-0.6,9.77
16.166018962860107,-3.64,-9.61,0.18,10.27
16.16718101501465,-3.86,-9.75,1.24,10.55
16.168385982513428,-3.39,-9.56,2.27,10.39
16.170788764953613,-1.91,-9.05,2.81,9.66
16.174482822418213,-0.2,-8.23,2.87,8.71
16.184573888778687,1.32,-6.93,2.48,7.47
16.19441795349121,3.12,-4.89,1.82,6.07
16.204434871673584,5.43,-2.06,1.89,6.1
16.214361906051636,8.35,0.99,2.54,8.78
16.22451090812683,11.32,4.02,3.55,12.52
16.255929946899414,14.18,7.0,5.46,16.72
16.257102966308594,16.08,9.89,6.83,20.07
16.25811004638672,16.82,12.69,7.8,22.46
16.274343967437744,16.6,15.17,8.57,24.06
16.275388717651367,15.84,17.41,6.33,24.37
16.28726291656494,13.22,21.09,-0.96,24.9
16.293506860733032,11.77,17.06,-16.06,26.22
16.304237842559814,-1.45,25.14,-19.27,31.7
16.313613891601562,-11.07,49.79,-9.52,51.88
16.32358694076538,-9.0,27.55,-1.41,29.01
16.354866981506348,-0.42,2.12,2.48,3.28
16.356284856796265,0.32,-9.93,7.86,12.66
16.357321739196777,-1.61,-17.27,6.51,18.52
16.37407684326172,4.81,-16.21,4.89,17.6
16.375136852264404,11.87,-10.95,7.21,17.68
16.39010000228882,10.96,-5.13,4.32,12.84
16.392732858657837,5.36,0.26,1.9,5.69
16.40708875656128,0.49,3.3,0.12,3.33
16.413179874420166,-2.01,3.89,-3.17,5.4
16.422898769378662,-1.97,3.08,-2.43,4.39
16.454805850982666,-0.02,1.55,0.75,1.72
16.4561448097229,1.82,0.15,2.27,2.91
16.457157850265503,2.51,-1.1,1.24,3.0
16.474424839019775,2.2,-1.49,-0.24,2.66
16.475512981414795,1.5,-1.07,-0.61,1.94
16.488520860671997,1.05,-0.67,-0.18,1.25
16.491984844207764,1.04,-0.6,0.02,1.2
16.507505893707275,1.31,-0.39,-0.21,1.38
16.512305736541748,1.28,0.05,-0.31,1.31
16.522525787353516,0.94,0.41,-0.07,1.02
16.56065082550049,0.53,0.31,0.7,0.93
16.562012910842896,0.15,0.02,1.17,1.17
16.563020706176758,0.06,-0.16,1.32,1.33
16.573192834854126,0.35,-0.39,1.1,1.21
16.57423186302185,0.77,-0.53,0.47,1.04
16.590606927871704,1.04,-0.62,-0.65,1.37
16.592065811157227,1.09,-0.39,-1.26,1.71
16.60716199874878,0.92,0.0,-0.94,1.31
16.611548900604248,0.66,0.11,-0.62,0.91
16.62240695953369,0.31,0.04,-0.33,0.45
16.659924030303955,-0.06,0.08,0.07,0.12
16.66118574142456,-0.44,0.19,0.39,0.61
16.66219186782837,-0.69,0.35,0.53,0.93
16.674922943115234,-0.74,0.47,0.37,0.95
16.675959825515747,-0.68,0.5,-0.01,0.84
16.69036102294922,-0.73,0.54,-0.3,0.95
16.691357851028442,-0.88,0.63,-0.34,1.13
16.70777177810669,-1.0,0.64,-0.51,1.29
16.710678815841675,-1.14,0.64,-0.55,1.41
16.722559928894043,-1.22,0.75,-0.51,1.52
16.7587788105011,-1.07,0.75,-0.66,1.46
16.760108947753906,-0.88,0.75,-0.7,1.35
16.761059761047363,-0.97,0.9,-0.62,1.46
16.774417877197266,-1.23,1.04,-0.84,1.81
16.775455951690674,-1.38,1.46,-0.72,2.13
16.790165901184082,-1.45,1.66,-0.77,2.33
16.791513919830322,-1.52,1.69,-0.72,2.38
16.80765986442566,-1.79,1.72,-0.59,2.55
16.809850692749023,-2.12,1.89,-0.27,2.85
16.822749853134155,-2.41,2.04,-0.39,3.18
16.857929706573486,-2.49,2.31,-0.55,3.44
16.859278917312622,-2.34,2.58,-0.7,3.55
16.86030101776123,-2.24,2.69,-1.04,3.65
16.874241828918457,-2.44,2.85,-1.17,3.93
16.87523078918457,-2.93,3.1,-1.17,4.42
16.89075803756714,-3.4,3.31,-1.33,4.92
16.892207860946655,-3.9,3.56,-1.6,5.51
16.907546997070312,-4.69,4.18,-1.5,6.45
16.909053802490234,-5.88,5.53,-1.27,8.17
16.92263889312744,-7.37,7.84,-1.29,10.83
16.929070949554443,-8.76,9.96,-3.87,13.81
16.96799373626709,-9.68,10.37,-6.94,15.79
16.969156742095947,-10.24,10.55,-7.01,16.28
16.970135927200317,-10.86,10.61,-7.25,16.82
16.99132490158081,-11.51,11.0,-7.46,17.58
16.992411851882935,-10.56,13.76,-5.5,18.19
17.004514694213867,-6.73,15.01,-5.38,17.3
17.00606083869934,-1.11,13.27,-7.57,15.31
17.024247884750366,2.57,11.39,-5.05,12.72
17.025664806365967,1.26,5.91,-3.59,7.02
17.040244817733765,-3.2,0.85,-3.51,4.82
17.069130897521973,-4.5,-2.4,-4.31,6.67
17.070501804351807,1.03,1.81,-2.97,3.62
17.071471691131592,6.17,2.87,1.96,7.08
17.090806007385254,2.51,-1.66,-2.13,3.68
17.092196941375732,-3.15,-2.63,-3.83,5.61
17.10766291618347,-6.85,-1.93,-1.94,7.37
17.109086990356445,-9.38,-1.56,-1.85,9.68
17.124140739440918,-10.5,-1.77,-1.98,10.83
17.125627994537354,-9.02,-2.32,-0.93,9.35
17.13953399658203,-6.52,-3.57,0.63,7.46
17.168997764587402,-4.87,-5.44,1.74,7.5
17.170337915420532,-4.38,-7.02,2.02,8.51
17.171368837356567,-4.71,-7.41,1.74,8.95
17.19090175628662,-5.43,-6.8,1.45,8.82
17.191916942596436,-5.31,-6.32,0.45,8.26
17.207454919815063,-4.68,-6.02,-0.4,7.63
17.208918809890747,-4.06,-6.06,-1.61,7.46
17.224124908447266,-3.37,-6.07,-2.62,7.42
17.22562599182129,-3.02,-6.06,-3.19,7.48
17.239621877670288,-3.02,-6.45,-3.27,7.83
17.266636848449707,-3.02,-6.94,-2.78,8.06
17.26794981956482,-2.9,-7.49,-2.26,8.34
17.2689368724823,-2.75,-8.08,-1.98,8.76
17.270413875579834,-2.59,-8.52,-1.63,9.05
17.276113033294678,-2.58,-8.93,-1.31,9.38
17.28637981414795,-2.7,-9.14,-0.7,9.55
17.29616403579712,-2.83,-9.02,0.25,9.45
17.306097984313965,-2.83,-8.55,1.19,9.08
17.31634783744812,-2.34,-7.77,2.02,8.36
17.326063871383667,-0.83,-6.79,1.63,7.03
17.363730907440186,1.12,-5.47,0.83,5.64
17.36505889892578,3.03,-3.39,1.46,4.77
17.366166830062866,5.37,-0.53,2.89,6.12
17.370672702789307,8.34,2.32,4.06,9.56
17.390771865844727,10.87,4.63,4.84,12.76
17.391812801361084,12.42,7.02,5.73,15.37
17.406145811080933,13.26,9.21,5.8,17.15
17.407190799713135,14.45,10.73,5.55,18.83
17.42307186126709,15.33,11.96,4.62,19.98
17.42535400390625,16.86,13.78,5.06,22.35
17.46772575378418,17.43,15.21,3.27,23.36
17.468888759613037,15.25,19.01,0.01,24.37
17.469887733459473,11.18,11.17,-8.96,18.16
17.47210383415222,-3.88,-0.65,-20.36,20.73
17.47459077835083,-16.06,25.7,-15.52,34.04
17.485140800476074,-15.67,46.27,6.84,49.32
17.494309902191162,-10.19,13.09,3.48,16.94
17.504724979400635,-2.04,-4.45,4.05,6.35
17.514540910720825,3.5,-10.3,7.06,12.96
17.524306774139404,8.78,-10.27,5.03,14.41
17.56097173690796,12.47,-8.34,4.42,15.63
17.562143802642822,12.79,-7.1,1.23,14.68
17.563138961791992,9.49,-2.36,0.46,9.78
17.574238777160645,3.92,1.91,1.95,4.77
17.575310707092285,-0.07,2.73,-0.2,2.73
17.590706825256348,-1.96,2.19,-2.26,3.7
17.5936598777771,-1.53,2.0,-1.74,3.06
17.607391834259033,0.33,1.33,0.18,1.38
17.613492012023926,1.5,-0.45,1.87,2.43
17.623687744140625,1.66,-1.97,2.48,3.57
17.66181182861328,1.16,-2.17,1.18,2.72
17.66316270828247,0.77,-0.88,0.01,1.16
17.66417384147644,0.66,0.26,-0.68,0.98
17.675018787384033,0.71,0.49,-0.82,1.19
17.676074981689453,0.66,0.23,-0.21,0.72
17.690868854522705,0.6,0.1,0.29,0.67
17.69297695159912,0.4,0.22,0.31,0.55
17.707037925720215,0.37,0.29,0.15,0.49
17.713043928146362,0.55,0.04,-0.31,0.63
17.723374843597412,0.61,-0.23,-0.77,1.0
17.733028888702393,0.38,-0.3,-0.77,0.9
17.767688751220703,0.07,-0.23,-0.04,0.24
17.76868772506714,0.04,-0.12,0.7,0.71
17.769484043121338,0.26,-0.07,0.91,0.94
17.77216386795044,0.38,-0.01,0.51,0.63
17.782413959503174,0.19,0.11,-0.12,0.25
17.792479991912842,-0.2,0.27,-0.36,0.49
17.802263736724854,-0.43,0.45,-0.24,0.66
17.812440872192383,-0.56,0.51,-0.06,0.75
17.822157859802246,-0.6,0.51,0.08,0.79
17.83233404159546,-0.48,0.38,-0.08,0.61
17.86354970932007,-0.36,0.32,-0.07,0.48
17.864702701568604,-0.46,0.3,-0.08,0.55
17.86554193496704,-0.68,0.3,-0.26,0.78
17.871737003326416,-0.89,0.28,-0.53,1.07
17.881685733795166,-0.99,0.33,-0.77,1.29
17.891571044921875,-0.98,0.46,-0.91,1.41
17.90132474899292,-1.09,0.67,-1.04,1.64
17.91133403778076,-1.16,0.86,-1.26,1.91
17.9215407371521,-1.24,0.93,-1.28,2.01
17.93169403076172,-1.22,1.0,-1.04,1.88
17.96425986289978,-1.14,1.03,-0.71,1.69
17.965577840805054,-1.22,1.11,-0.54,1.73
17.96664571762085,-1.58,1.34,-0.54,2.14
17.972116947174072,-1.98,1.72,-0.72,2.71
17.99080801010132,-2.07,2.05,-0.5,2.95
17.991885900497437,-1.89,2.14,-0.13,2.85
18.007629871368408,-2.13,2.51,-0.39,3.31
18.010700702667236,-2.24,2.97,-0.72,3.78
18.022964000701904,-2.6,3.33,-0.76,4.29
18.03088092803955,-3.17,3.61,-0.88,4.88
18.06780982017517,-3.82,3.88,-1.15,5.56
18.0689697265625,-4.2,4.43,-1.27,6.23
18.06993293762207,-4.61,5.12,-1.61,7.07
18.07226276397705,-5.33,6.57,-1.57,8.6
18.079930782318115,-6.51,7.98,-2.46,10.58
18.09035301208496,-7.8,8.76,-3.92,12.36
18.100031852722168,-9.15,9.39,-4.73,13.93
18.110155820846558,-10.34,9.83,-5.13,15.16
18.120211839675903,-10.91,9.53,-6.05,15.69
18.130558013916016,-11.18,8.43,-7.05,15.67
18.168393850326538,-11.29,8.2,-7.11,15.66
18.169745922088623,-10.08,11.2,-4.47,15.71
18.17075777053833,-5.98,13.13,-3.87,14.93
18.191893815994263,-0.39,12.32,-6.02,13.71
18.19294285774231,2.54,9.67,-4.49,10.95
18.207139015197754,0.73,3.74,-4.36,5.79
18.208220958709717,-3.66,-0.44,-4.03,5.46
18.22460389137268,-4.58,-3.12,-4.93,7.41
18.226070880889893,1.61,1.81,-3.16,3.98
18.240495920181274,6.38,2.47,1.08,6.92
18.2709698677063,2.11,-1.47,-3.05,3.98
18.272278785705566,-3.69,-2.27,-3.84,5.78
18.27329969406128,-7.59,-1.83,-1.6,7.96
18.291409015655518,-10.13,-1.59,-1.14,10.31
18.292475700378418,-11.29,-1.92,-0.64,11.46
18.307995796203613,-9.96,-2.88,0.5,10.38
18.309035778045654,-7.43,-4.47,1.83,8.86
18.324299812316895,-5.68,-6.15,2.8,8.82
18.325796842575073,-5.1,-7.24,3.12,9.38
18.340328693389893,-5.25,-7.05,2.92,9.26
18.369499921798706,-5.13,-5.97,1.75,8.06
18.37087392807007,-4.56,-5.05,0.3,6.81
18.371870040893555,-4.25,-4.41,-0.72,6.16
18.391273021697998,-4.24,-4.38,-1.16,6.2
18.392340898513794,-3.83,-4.9,-2.03,6.54
18.407898902893066,-3.58,-5.0,-2.46,6.62
18.408955812454224,-3.52,-5.36,-2.44,6.86
18.424674034118652,-3.4,-5.99,-2.06,7.18
18.426161766052246,-3.1,-6.63,-1.64,7.5
18.440276861190796,-2.66,-7.39,-1.26,7.95
18.46928596496582,-2.29,-8.08,-0.78,8.43
18.47073483467102,-2.23,-8.77,-0.26,9.05
18.471749782562256,-2.35,-9.31,0.28,9.6
18.49159002304077,-2.51,-9.32,0.97,9.7
18.492634773254395,-2.4,-8.68,1.61,9.14
18.50774574279785,-1.73,-7.64,2.07,8.1
18.508792877197266,-0.59,-6.17,1.99,6.5
18.524759769439697,0.74,-4.39,1.44,4.67
18.526248931884766,2.4,-2.4,1.51,3.71
18.54025173187256,4.71,0.11,2.1,5.15
18.541740894317627,7.67,2.95,2.98,8.74
18.587929725646973,9.99,5.45,3.85,12.01
18.58907175064087,10.99,7.76,4.8,14.28
18.590057849884033,11.33,10.04,5.65,16.15
18.60570788383484,12.45,12.22,7.09,18.83
18.606746912002563,14.24,13.82,7.11,21.07
18.622875928878784,16.04,14.01,6.17,22.17
18.62426471710205,16.44,14.24,3.03,21.95
18.640102863311768,15.27,18.35,0.04,23.87
18.641599893569946,16.05,12.3,-8.41,21.9
18.655305862426758,5.54,-1.57,-19.32,20.15
18.68585777282715,-9.27,11.9,-17.4,23.02
18.687306880950928,-13.85,42.78,0.89,44.97
18.68835186958313,-12.17,22.36,3.86,25.74
18.70909285545349,-2.64,1.38,5.01,5.82
18.710132837295532,6.43,-2.82,9.36,11.7
18.72493076324463,7.92,-9.08,7.38,14.12
18.726319789886475,7.95,-11.12,2.12,13.83
18.742056846618652,8.03,-7.45,1.94,11.12
18.743533849716187,5.78,-2.42,1.12,6.36
18.757962703704834,2.85,-0.09,-0.86,2.97
18.789249897003174,0.57,1.52,-1.54,2.23
18.79059600830078,-0.41,2.11,-2.02,2.94
18.79157590866089,0.32,1.01,-1.19,1.59
18.80901789665222,1.36,-0.05,0.15,1.36
18.810060024261475,1.33,0.17,0.87,1.59
18.824979782104492,0.75,0.22,1.19,1.42
18.825968742370605,0.63,-0.24,0.71,0.97
18.842363834381104,0.8,-0.5,0.51,1.07
18.8437819480896,0.59,-0.49,0.83,1.13
18.85773491859436,0.24,-0.39,0.72,0.85
18.886913776397705,0.29,-0.14,0.05,0.32
18.888218879699707,0.44,0.12,-0.56,0.72
18.889238834381104,0.34,0.37,-0.69,0.85
18.90862274169922,0.2,0.44,-0.58,0.75
18.90965485572815,0.3,0.22,-0.38,0.53
18.924545764923096,0.46,-0.08,-0.09,0.47
18.925878047943115,0.24,-0.16,0.31,0.42
18.94184684753418,-0.28,-0.01,0.75,0.8
18.943344831466675,-0.63,0.15,0.82,1.04
18.957573890686035,-0.36,0.2,0.53,0.67
18.989060878753662,0.12,0.09,-0.07,0.16
18.99040389060974,0.35,0.02,-0.51,0.61
18.99137783050537,0.11,0.06,-0.61,0.62
19.008848905563354,-0.19,0.22,-0.27,0.39
19.009888887405396,-0.28,0.29,0.07,0.4
19.024433851242065,-0.18,0.22,0.06,0.29
19.025754928588867,-0.15,0.2,0.15,0.29
19.041842937469482,-0.26,0.28,0.16,0.41
19.04331398010254,-0.41,0.37,0.05,0.55
19.057150840759277,-0.5,0.39,-0.12,0.64
19.08665704727173,-0.51,0.4,-0.19,0.67
19.088029861450195,-0.5,0.44,-0.21,0.69
19.089040756225586,-0.39,0.43,-0.41,0.71
19.10868191719055,-0.32,0.46,-0.53,0.77
19.10977792739868,-0.43,0.65,-0.55,0.95
19.12454080581665,-0.58,0.84,-0.73,1.25
19.126040935516357,-0.82,1.11,-1.04,1.72
19.14200782775879,-1.29,1.56,-0.91,2.21
19.143476963043213,-1.89,1.81,-0.53,2.67
19.157272815704346,-2.25,1.86,-0.08,2.92
19.18758988380432,-2.12,1.61,-0.33,2.68
19.188915729522705,-1.79,1.57,-0.34,2.4
19.189932823181152,-1.63,1.62,-0.26,2.31
19.20854377746582,-1.75,1.66,-0.49,2.46
19.209585905075073,-2.03,1.73,-0.81,2.78
19.22489285469055,-2.31,1.89,-1.35,3.27
19.226316928863525,-2.35,2.15,-1.97,3.74
19.242027759552002,-2.36,2.44,-2.37,4.14
19.243507862091064,-2.73,2.74,-2.75,4.74
19.25725269317627,-3.57,3.19,-2.84,5.56
19.287662982940674,-4.48,4.07,-2.46,6.53
19.289299964904785,-5.38,5.28,-1.92,7.77
19.290355920791626,-6.57,7.09,-1.62,9.8
19.308774948120117,-7.78,8.59,-3.38,12.07
19.309852838516235,-8.79,8.91,-5.97,13.86
19.32443380355835,-9.6,9.07,-6.19,14.58
19.32588291168213,-10.23,9.13,-5.93,14.93
19.34204387664795,-10.53,8.74,-6.52,15.15
19.34351396560669,-10.42,9.45,-6.7,15.58
19.356077909469604,-8.58,12.57,-4.65,15.91
19.357565879821777,-4.48,14.28,-4.51,15.63
19.404342889785767,0.66,13.61,-5.69,14.76
19.40550684928894,2.81,9.17,-5.11,10.86
19.406513690948486,0.11,3.51,-5.97,6.92
19.425765991210938,-4.3,0.07,-4.33,6.1
19.4272518157959,-4.53,-1.9,-3.32,5.92
19.44181489944458,2.44,4.37,0.45,5.02
19.443267822265625,5.84,2.13,2.42,6.67
19.458748817443848,0.99,-2.06,-3.23,3.95
19.460201740264893,-3.81,-1.84,-2.71,5.02
19.473968982696533,-7.08,-0.72,-0.88,7.17
19.505897045135498,-9.4,-0.04,-0.71,9.42
19.507190704345703,-9.83,0.14,-0.41,9.83
19.5082049369812,-8.14,-0.86,0.25,8.18
19.52541971206665,-6.12,-2.46,1.62,6.79
19.52646493911743,-5.2,-4.09,2.6,7.1
19.54201889038086,-5.14,-5.41,2.99,8.03
19.543500900268555,-5.2,-6.2,2.99,8.62
19.558281898498535,-4.94,-6.33,1.78,8.22
19.559720039367676,-4.62,-5.78,0.49,7.41
19.573869705200195,-4.66,-5.01,-0.4,6.85
19.60209083557129,-4.67,-4.77,-1.21,6.78
19.6034517288208,-4.55,-4.98,-1.63,6.93
19.604458808898926,-4.19,-5.63,-1.94,7.28
19.6067898273468,-3.96,-6.35,-1.92,7.72
19.60827875137329,-3.85,-7.09,-1.43,8.19
19.60965585708618,-3.73,-7.75,-0.82,8.63
19.61110782623291,-3.65,-8.35,-0.43,9.12
19.6182599067688,-3.8,-9.1,-0.37,9.86
19.628592014312744,-3.99,-9.67,-0.14,10.46
19.63858389854431,-3.99,-10.08,0.32,10.84
19.66449499130249,-3.63,-10.1,0.95,10.77
19.665465831756592,-2.81,-9.88,1.63,10.4
19.66782283782959,-1.71,-9.35,2.32,9.78
19.678123950958252,-0.61,-8.39,2.74,8.84
19.688151836395264,0.88,-6.6,2.34,7.05
19.698139905929565,3.38,-4.16,2.55,5.93
19.708037853240967,6.81,-1.68,3.47,7.82
19.71797275543213,9.98,0.35,4.06,10.77
19.727664947509766,11.47,2.15,4.06,12.35
19.73804473876953,10.98,4.88,4.47,12.82
19.77376890182495,10.68,7.86,4.94,14.15
19.774938821792603,11.66,10.02,4.19,15.93
19.776038885116577,13.73,12.04,3.02,18.5
19.79071569442749,15.96,13.71,1.98,21.13
19.791797876358032,17.22,14.02,1.11,22.23
19.80534076690674,15.27,17.64,1.14,23.35
19.80679988861084,10.65,14.39,-5.62,18.76
19.824800968170166,-2.15,3.5,-16.08,16.59
19.827127933502197,-12.02,28.87,-16.98,35.58
19.840726852416992,-10.61,47.56,-3.55,48.85
19.87244486808777,-0.48,18.7,-3.45,19.02
19.87377381324768,5.01,-3.89,-1.72,6.57
19.874780893325806,5.39,-12.56,7.25,15.47
19.89237070083618,5.39,-13.84,8.49,17.1
19.89332675933838,7.31,-11.63,8.34,16.07
19.90812087059021,6.9,-8.58,4.83,12.02
19.909152030944824,3.64,-3.28,1.53,5.13
19.92539691925049,1.72,1.69,0.77,2.53
19.926913738250732,-0.1,4.5,-2.84,5.32
19.941035747528076,-0.38,4.16,-5.33,6.77
19.974236011505127,0.45,2.21,-2.33,3.24
19.97559881210327,0.72,0.35,0.81,1.13
19.976624011993408,0.83,-1.09,1.71,2.19
19.992401838302612,1.04,-1.39,0.59,1.83
19.99344301223755,1.49,-0.49,-0.72,1.72
20.008859872817993,1.43,0.14,-0.84,1.66
20.010345935821533,1.01,-0.04,-0.23,1.03
20.02535581588745,0.84,-0.37,0.36,0.98
20.026855945587158,0.73,-0.45,0.53,1.0
20.041231870651245,0.42,0.0,0.55,0.69
20.07327389717102,0.25,0.38,0.32,0.55
20.074652910232544,0.23,0.38,0.14,0.46
20.07562780380249,0.17,0.29,0.06,0.34
20.09293484687805,0.14,0.3,0.05,0.33
20.0939838886261,0.19,0.21,-0.13,0.31
20.108520984649658,0.13,0.16,-0.14,0.24
20.109972953796387,-0.05,0.25,0.04,0.25
20.125464916229248,-0.24,0.2,-0.49,0.58
20.1269109249115,-0.1,0.18,-0.8,0.82
20.14137291908264,0.05,0.16,-0.74,0.75
20.14458703994751,0.05,0.09,-0.46,0.47
20.18673086166382,-0.15,0.09,-0.09,0.19
20.187882900238037,-0.35,0.29,0.32,0.55
20.188877820968628,-0.47,0.38,0.31,0.67
20.209548950195312,-0.48,0.41,0.16,0.65
20.211042881011963,-0.36,0.38,-0.13,0.53
20.22521686553955,-0.28,0.36,-0.31,0.55
20.226706981658936,-0.26,0.46,-0.38,0.65
20.242353916168213,-0.32,0.54,-0.23,0.66
20.24378776550293,-0.5,0.56,-0.17,0.76
20.257750034332275,-0.68,0.57,-0.16,0.9
20.286986827850342,-0.88,0.58,-0.69,1.25
20.28838300704956,-1.0,0.98,-0.99,1.71
20.289386749267578,-0.99,1.46,-1.18,2.12
20.309147834777832,-1.18,1.58,-1.28,2.35
20.31022882461548,-1.34,1.68,-0.94,2.34
20.325549840927124,-1.56,1.57,-0.57,2.28
20.327034950256348,-1.77,1.59,-0.34,2.4
20.342456817626953,-1.98,1.64,-0.57,2.63
20.343958854675293,-2.12,1.77,-0.98,2.93
20.357801914215088,-2.3,1.79,-1.44,3.25
20.38591480255127,-2.44,1.99,-1.48,3.47
20.38721990585327,-2.56,2.12,-1.78,3.77
20.38822078704834,-2.63,2.39,-2.14,4.14
20.40926694869995,-2.79,2.79,-2.1,4.46
20.410290718078613,-3.28,3.31,-1.87,5.02
20.42437171936035,-4.13,4.01,-1.39,5.92
20.425856828689575,-5.15,4.79,-1.02,7.1
20.442603826522827,-6.41,5.99,-0.53,8.78
20.444111824035645,-7.82,8.03,-0.75,11.23
20.458003997802734,-8.84,9.27,-4.01,13.42
20.486703872680664,-9.25,9.52,-6.96,14.98
20.488072872161865,-9.19,9.31,-7.84,15.25
20.489081859588623,-9.26,8.79,-8.09,15.11
20.509113788604736,-9.53,8.72,-8.27,15.33
20.510183811187744,-8.81,11.11,-5.87,15.34
20.52303171157837,-5.78,14.7,-3.51,16.18
20.524524927139282,-0.94,14.29,-5.23,15.24
20.542279720306396,2.48,10.1,-6.85,12.45
20.543749809265137,0.99,5.18,-6.77,8.58
20.55805778503418,-3.4,1.61,-5.33,6.52
20.587121963500977,-5.66,-2.18,-3.61,7.05
20.588514804840088,-0.5,2.1,-0.04,2.15
20.589492797851562,5.62,3.18,3.94,7.56
20.610230922698975,3.33,-2.2,-0.5,4.02
20.61168384552002,-1.9,-3.22,-2.8,4.67
20.62570095062256,-5.78,-2.18,-0.97,6.25
20.627155780792236,-8.57,-1.46,-0.52,8.7
20.642515897750854,-10.18,-1.21,-0.62,10.27
20.644001960754395,-9.41,-1.83,-0.3,9.59
20.65795588493347,-7.02,-3.03,0.86,7.69
20.68733286857605,-5.23,-4.47,2.34,7.26
20.68874502182007,-4.54,-6.12,3.06,8.21
20.689767837524414,-4.49,-7.13,3.15,8.99
20.709232807159424,-4.67,-7.18,2.67,8.97
20.710304737091064,-4.56,-6.86,1.66,8.4
20.72558879852295,-4.22,-6.23,0.77,7.56
20.727066040039062,-4.45,-5.63,0.23,7.17
20.742520809173584,-4.68,-5.59,-1.0,7.35
20.744009971618652,-4.33,-5.54,-2.03,7.31
20.75792384147644,-4.27,-5.08,-2.24,7.0
20.785502910614014,-4.24,-5.23,-2.09,7.04
20.786956787109375,-3.98,-5.59,-1.51,7.02
20.787985801696777,-3.43,-6.05,-0.75,6.99
20.789816856384277,-2.85,-6.54,-0.25,7.13
20.791342735290527,-2.56,-7.21,-0.24,7.65
20.799604892730713,-2.61,-7.8,-0.44,8.23
20.80954384803772,-2.85,-7.75,-0.45,8.26
20.819341897964478,-3.09,-7.01,-0.01,7.66
20.82981586456299,-3.19,-6.13,0.52,6.92
20.83970284461975,-2.72,-5.27,0.92,6.0
20.873830795288086,-1.27,-4.56,1.05,4.84
20.875004768371582,0.79,-3.79,1.53,4.16
20.8760027885437,3.05,-2.09,2.75,4.6
20.89301586151123,5.7,-0.1,4.11,7.02
20.894067764282227,8.3,1.66,4.67,9.66
20.908620834350586,9.94,3.27,4.52,11.39
20.909657955169678,10.45,5.09,4.35,12.41
20.925676822662354,10.82,7.25,4.37,13.73
20.92885684967041,11.99,9.41,4.63,15.92
20.941579818725586,14.43,11.7,5.83,19.47
20.94953680038452,17.17,13.36,6.99,22.85
20.983144760131836,18.71,13.24,8.02,24.28
20.9843807220459,16.99,10.32,7.44,21.22
20.985642910003662,14.41,10.35,6.92,19.04
20.989715814590454,11.77,7.02,-0.23,13.7
21.00903081893921,-1.13,-5.53,-13.72,14.83
21.01009702682495,-16.09,3.1,-30.2,34.35
21.025869846343994,-18.69,45.13,-1.6,48.87
21.028005838394165,-12.84,41.47,10.01,44.55
21.041141033172607,-2.18,5.68,-1.22,6.2
21.04786491394043,6.23,-6.6,4.52,10.13
21.082847833633423,8.28,-14.47,4.99,17.4
21.08402991294861,10.58,-15.14,2.7,18.66
21.085317850112915,11.65,-9.55,6.01,16.21
21.08914589881897,7.5,-3.96,3.75,9.27
21.097486972808838,2.99,-0.84,-0.09,3.1
21.109155893325806,0.47,2.48,-2.37,3.46
21.117023944854736,-0.55,4.93,-3.53,6.08
21.127145767211914,-0.47,4.7,-2.39,5.29
21.137357711791992,0.06,1.32,-0.63,1.46
21.147268772125244,0.67,-1.31,1.0,1.77
21.17910099029541,0.9,-2.07,1.8,2.88
21.180418014526367,0.78,-1.43,1.18,2.01
21.181423902511597,0.7,-0.18,0.1,0.72
21.192404747009277,0.8,0.33,-0.63,1.07
21.196507930755615,1.01,-0.01,-0.68,1.21
21.206694841384888,1.11,-0.42,-0.09,1.19
21.216413021087646,0.81,-0.43,0.42,1.0
21.22668695449829,0.32,-0.2,0.55,0.66
21.236413955688477,0.06,0.07,0.35,0.36
21.246399879455566,0.02,0.23,0.18,0.29
21.276773929595947,-0.07,0.27,0.11,0.29
21.278087854385376,-0.25,0.3,0.03,0.39
21.2791428565979,-0.34,0.25,-0.17,0.45
21.293766975402832,-0.12,0.15,-0.52,0.55
21.295684814453125,0.16,0.05,-0.73,0.74
21.30915594100952,0.21,0.06,-0.79,0.81
21.31575584411621,0.1,0.14,-0.66,0.68
21.325934886932373,-0.07,0.22,-0.32,0.39
21.335575819015503,-0.08,0.25,0.21,0.33
21.345863819122314,-0.02,0.2,0.7,0.72
21.381964921951294,-0.07,-0.03,0.4,0.4
21.383317947387695,-0.19,-0.06,0.04,0.2
21.384400844573975,-0.29,0.11,0.12,0.33
21.390187740325928,-0.33,0.15,0.0,0.36
21.395025730133057,-0.3,0.12,-0.36,0.48
21.40927290916443,-0.16,0.14,-0.63,0.66
21.415149927139282,-0.02,0.2,-0.81,0.83
21.42570400238037,-0.32,0.28,-0.72,0.83
21.435088872909546,-0.88,0.46,-0.53,1.12
21.444814920425415,-1.3,0.66,-0.37,1.5
21.481031894683838,-1.62,0.78,-0.49,1.86
21.482362747192383,-1.7,0.89,-0.9,2.11
21.483458042144775,-1.74,0.91,-1.16,2.28
21.49189782142639,-1.93,1.02,-1.25,2.51
21.494240760803223,-1.85,1.09,-1.36,2.54
21.509122848510742,-1.62,1.06,-1.42,2.4
21.5140438079834,-1.34,1.08,-1.51,2.28
21.52592897415161,-1.1,1.17,-1.67,2.31
21.534259796142578,-0.81,1.41,-1.84,2.45
21.54427194595337,-0.58,1.73,-1.67,2.47
21.581137895584106,-0.69,2.21,-1.19,2.6
21.582568883895874,-1.27,2.54,-1.1,3.04
21.583626747131348,-1.93,2.95,-1.03,3.67
21.5931339263916,-2.55,3.74,-0.53,4.55
21.59417200088501,-3.4,4.24,-0.64,5.47
21.609402894973755,-4.06,5.2,-0.53,6.61
21.613350868225098,-4.61,6.41,-0.92,7.94
21.623751878738403,-5.19,7.33,-1.62,9.12
21.63353991508484,-5.88,7.85,-2.55,10.13
21.643287897109985,-6.88,8.46,-3.22,11.36
21.68056869506836,-8.1,9.38,-3.38,12.84
21.68200182914734,-9.6,9.93,-4.54,14.53
21.68301486968994,-10.23,9.9,-6.07,15.47
21.69289493560791,-9.88,9.07,-7.55,15.39
21.693955898284912,-9.3,7.57,-8.74,14.83
21.709446907043457,-8.78,7.23,-8.2,14.02
21.71255874633789,-6.96,10.49,-4.43,13.34
21.726047039031982,-3.15,13.05,-1.91,13.55
21.732807874679565,1.35,10.5,-4.35,11.44
21.742640018463135,2.25,4.67,-6.38,8.22
21.75250482559204,-0.77,0.74,-5.43,5.53
21.786062717437744,-4.23,-2.33,-3.7,6.08
21.78721785545349,-1.81,0.27,0.1,1.83
21.788399696350098,3.56,1.38,4.66,6.02
21.792001724243164,1.38,-3.78,-0.31,4.03
21.802117824554443,-2.74,-4.6,-3.29,6.28
21.81237483024597,-5.54,-2.72,-1.68,6.39
21.822351932525635,-7.72,-1.89,-1.25,8.04
21.832223892211914,-8.38,-1.83,-1.02,8.63
21.842038869857788,-6.87,-2.63,-0.56,7.37
21.85195779800415,-4.6,-3.9,0.58,6.05
21.8822238445282,-3.37,-5.07,1.44,6.25
21.88337278366089,-3.16,-5.67,1.7,6.71
21.88459086418152,-3.33,-5.73,1.63,6.82
21.89113473892212,-3.4,-5.59,1.05,6.62
21.901474952697754,-3.27,-5.12,-0.04,6.07
21.911468982696533,-2.99,-4.58,-0.93,5.54
21.921514987945557,-3.23,-3.98,-1.68,5.39
21.931180000305176,-3.15,-4.07,-2.56,5.74
21.941308975219727,-3.17,-4.02,-2.67,5.77
21.951098918914795,-2.93,-4.77,-2.72,6.22
21.98314380645752,-2.61,-5.43,-2.4,6.48
21.98452591896057,-2.67,-6.03,-1.74,6.82
21.985524892807007,-2.99,-6.7,-1.15,7.42
21.990397930145264,-3.3,-7.19,-0.75,7.94
22.000601768493652,-3.43,-7.59,-0.53,8.34
22.01063871383667,-3.37,-7.95,-0.42,8.64
22.020586013793945,-3.42,-8.2,-0.32,8.89
22.030447959899902,-3.46,-8.28,-0.01,8.97
22.040679931640625,-3.38,-7.92,0.51,8.62
22.050381898880005,-3.05,-7.22,1.07,7.91
22.08234691619873,-2.0,-6.46,1.1,6.85
22.083791732788086,-0.26,-5.72,0.71,5.76
22.08489489555359,1.84,-4.66,0.75,5.06
22.090301990509033,4.06,-3.16,1.39,5.32
22.10975980758667,5.93,-1.36,2.24,6.48
22.11124587059021,7.05,0.27,2.9,7.62
22.12643003463745,7.72,2.21,3.77,8.87
22.129840850830078,8.74,4.39,4.78,10.88
22.14187479019165,10.33,6.53,5.69,13.48
22.149625778198242,11.94,8.83,6.89,16.37
22.186879873275757,13.47,11.06,7.94,19.15
22.188037872314453,14.34,12.97,8.16,20.98
22.1891188621521,14.84,14.13,8.5,22.18
22.20661973953247,14.19,13.41,7.64,20.96
22.207746028900146,12.66,14.37,4.23,19.61
22.22628879547119,10.4,8.6,-4.95,14.37
22.22781801223755,-2.94,-6.01,-18.97,20.11
22.243395805358887,-19.1,5.54,-29.49,35.56
22.244946002960205,-20.31,44.72,6.62,49.56
22.256484985351562,-12.44,34.7,13.87,39.38
22.28584885597229,-2.72,3.82,2.45,5.29
22.287254810333252,5.08,-5.51,5.82,9.48
22.288290977478027,9.5,-8.49,3.87,13.31
22.290431022644043,10.65,-11.05,-0.39,15.35
22.298192024230957,10.64,-8.31,0.03,13.5
22.30843687057495,7.62,-3.13,0.97,8.29
22.318424701690674,3.84,-0.69,0.19,3.9
22.32839870452881,1.37,1.49,-0.29,2.04
22.33819890022278,0.1,2.84,-1.24,3.1
22.348134994506836,0.0,2.49,-1.17,2.75
22.38558292388916,0.61,1.11,-0.52,1.36
22.386806964874268,1.26,-0.19,0.71,1.45
22.387739896774292,1.06,-1.12,1.86,2.41
22.390126705169678,0.31,-1.36,1.89,2.34
22.39737892150879,-0.06,-0.79,1.13,1.38
22.407676696777344,0.2,-0.04,0.33,0.38
22.41781187057495,0.66,0.17,-0.31,0.74
22.427711963653564,0.76,0.0,-0.45,0.88
22.437530994415283,0.67,-0.03,-0.16,0.68
22.447487831115723,0.64,0.0,0.17,0.66
22.487278938293457,0.6,-0.09,0.07,0.61
22.48873996734619,0.48,-0.08,-0.21,0.53
22.489734888076782,0.18,0.01,-0.19,0.26
22.51065492630005,-0.16,0.06,0.06,0.18
22.51213788986206,-0.31,0.12,0.33,0.46
22.52625274658203,-0.28,0.16,0.34,0.46
22.527573823928833,-0.24,0.1,-0.34,0.42
22.543428897857666,-0.32,0.18,-0.85,0.92
22.54487371444702,-0.46,0.42,-0.68,0.92
22.559568881988525,-0.53,0.42,-0.53,0.85
22.561118841171265,-0.4,0.35,-0.41,0.67
22.61095094680786,-0.25,0.28,-0.29,0.47
22.61212396621704,-0.31,0.23,-0.08,0.39
22.61312770843506,-0.55,0.22,0.03,0.59
22.627161979675293,-0.73,0.28,0.12,0.79
22.6282377243042,-0.68,0.29,0.01,0.73
22.643378734588623,-0.4,0.26,-0.34,0.58
22.644917964935303,-0.19,0.22,-0.43,0.51
22.660154819488525,-0.24,0.23,-0.36,0.49
22.661653995513916,-0.45,0.32,-0.41,0.68
22.67554998397827,-0.75,0.44,-0.54,1.02
22.70507574081421,-1.2,0.66,-0.7,1.53
22.706394910812378,-1.53,0.91,-1.05,2.06
22.707445859909058,-1.69,1.01,-1.37,2.39
22.726724863052368,-1.62,1.09,-1.17,2.27
22.727749824523926,-1.42,1.12,-0.71,1.94
22.743526935577393,-1.4,1.18,-0.61,1.92
22.745008945465088,-1.37,1.58,-0.51,2.15
22.760098934173584,-1.49,2.24,-0.37,2.71
22.761586904525757,-1.71,2.6,-0.84,3.22
22.77546787261963,-2.26,3.14,-1.09,4.01
22.803669929504395,-2.8,3.94,-1.1,4.95
22.80510187149048,-3.26,4.25,-1.53,5.57
22.806132793426514,-3.33,4.51,-1.63,5.83
22.826889991760254,-3.42,4.74,-1.79,6.11
22.82792091369629,-3.87,5.17,-1.8,6.7
22.84365701675415,-4.83,6.02,-1.63,7.88
22.84514284133911,-6.17,7.42,-1.83,9.82
22.860159873962402,-8.05,9.13,-2.76,12.48
22.86181402206421,-10.21,10.79,-4.11,15.41
22.874295711517334,-11.8,11.96,-5.09,17.55
22.902158737182617,-12.26,12.33,-5.88,18.35
22.903507709503174,-12.06,10.58,-7.79,17.83
22.904549837112427,-11.81,8.8,-9.09,17.3
22.907172918319702,-11.0,9.83,-6.6,16.16
22.90851593017578,-7.43,13.63,-2.47,15.71
22.913477897644043,-1.27,13.93,-3.55,14.43
22.923490047454834,2.65,9.16,-6.01,11.27
22.933485984802246,0.91,2.34,-6.8,7.24
22.943368911743164,-3.56,-1.65,-5.23,6.53
22.953507900238037,-4.67,-2.91,-3.31,6.42
22.988049030303955,1.61,2.27,1.82,3.32
22.989351749420166,5.58,-0.2,4.0,6.86
22.990362882614136,1.72,-4.72,-2.47,5.59
23.010282039642334,-3.12,-4.83,-3.67,6.82
23.01126790046692,-6.48,-3.29,-1.87,7.5
23.02628803253174,-8.54,-2.31,-1.76,9.02
23.027293920516968,-9.61,-1.87,-1.8,9.95
23.039680004119873,-8.23,-2.14,-0.94,8.55
23.04269504547119,-5.69,-3.29,-0.06,6.57
23.056035041809082,-4.11,-4.42,0.96,6.11
23.088083744049072,-3.65,-5.48,1.54,6.76
23.089494705200195,-3.89,-5.86,1.53,7.19
23.090526819229126,-4.02,-5.78,1.0,7.11
23.11034870147705,-3.72,-5.42,0.13,6.57
23.111411809921265,-3.72,-4.87,-0.21,6.13
23.126474857330322,-3.55,-4.99,-1.31,6.26
23.12749481201172,-2.9,-5.26,-2.28,6.42
23.14354181289673,-2.76,-4.98,-2.53,6.23
23.14495086669922,-2.81,-5.35,-2.7,6.61
23.15895175933838,-2.93,-5.87,-2.45,7.0
23.1876859664917,-3.1,-6.4,-1.98,7.38
23.189106941223145,-3.09,-7.12,-1.45,7.89
23.190088748931885,-2.85,-7.65,-0.88,8.21
23.210813999176025,-2.65,-8.37,-0.47,8.79
23.2118558883667,-2.68,-9.04,-0.14,9.42
23.226819038391113,-2.86,-9.52,0.33,9.94
23.228299856185913,-2.72,-9.66,1.1,10.09
23.243656873703003,-1.85,-9.04,1.86,9.41
23.245128870010376,-0.38,-8.19,2.25,8.5
23.2590548992157,1.03,-6.87,1.87,7.19
23.289448738098145,2.53,-4.95,1.49,5.75
23.290836811065674,4.71,-2.61,2.15,5.79
23.291854858398438,7.76,0.11,3.1,8.35
23.310693740844727,11.07,2.89,3.84,12.06
23.31221890449524,13.61,5.37,4.75,15.38
23.32696294784546,14.94,7.43,5.16,17.46
23.328426837921143,14.98,9.5,4.69,18.34
23.343628883361816,15.03,11.45,4.28,19.37
23.345163822174072,15.77,12.87,3.63,20.67
23.358561992645264,16.99,13.64,2.37,21.91
23.3603777885437,15.88,13.95,1.32,21.17
23.410528898239136,11.87,17.26,-0.36,20.95
23.411756992340088,3.95,6.3,-9.04,11.7
23.41274881362915,-10.74,-1.06,-17.88,20.88
23.428016901016235,-20.54,29.95,-10.71,37.86
23.429494857788086,-15.63,41.06,7.76,44.61
23.44370698928833,-6.31,10.54,4.71,13.15
23.445183753967285,1.69,-4.75,3.6,6.19
23.4602108001709,7.31,-8.06,6.79,12.82
23.46172285079956,11.15,-7.0,4.62,13.95
23.475872039794922,11.34,-6.86,2.24,13.44
23.505438804626465,9.67,-5.04,-1.19,10.96
23.506839752197266,6.29,-1.03,-1.51,6.55
23.50784969329834,3.08,2.34,-0.16,3.87
23.526723861694336,0.54,3.2,-1.19,3.45
23.52777099609375,-0.63,1.46,-2.16,2.68
23.544646739959717,-0.4,0.86,-1.45,1.73
23.54611873626709,0.5,0.68,-0.36,0.91
23.560708045959473,1.29,-0.32,1.11,1.73
23.562182903289795,1.57,-1.34,2.11,2.95
23.575954914093018,1.11,-1.57,1.83,2.65
23.604264736175537,0.31,-0.94,1.27,1.61
23.60565185546875,0.22,-0.22,0.65,0.72
23.60664391517639,0.6,-0.04,0.13,0.61
23.626994848251343,0.79,-0.12,-0.01,0.79
23.62805700302124,0.75,-0.08,0.08,0.75
23.64423179626465,0.55,0.15,0.2,0.6
23.645680904388428,0.56,0.19,0.07,0.59
23.660408973693848,0.57,0.02,-0.15,0.58
23.661818027496338,0.3,-0.03,-0.04,0.3
23.676431894302368,0.05,-0.02,0.07,0.08
23.70430088043213,-0.08,-0.04,0.02,0.09
23.705583810806274,-0.19,0.0,0.17,0.25
23.70663070678711,-0.55,0.1,0.2,0.59
23.727521896362305,-0.86,0.22,-0.17,0.9
23.728604793548584,-0.46,0.38,-0.72,0.93
23.74383783340454,0.15,0.38,-0.96,1.04
23.745218753814697,-0.02,0.24,-0.62,0.66
23.76041603088379,-0.69,0.25,-0.07,0.73
23.761850833892822,-1.11,0.35,0.14,1.17
23.77649188041687,-1.12,0.51,0.17,1.24
23.804566860198975,-0.9,0.57,0.04,1.06
23.806060791015625,-0.64,0.53,0.0,0.83
23.807101726531982,-0.54,0.38,-0.09,0.66
23.827419757843018,-0.65,0.21,-0.64,0.93
23.828467845916748,-0.77,0.38,-0.88,1.22
23.844254970550537,-0.74,0.67,-1.0,1.41
23.845699787139893,-0.51,0.78,-1.0,1.36
23.86037588119507,-0.5,0.83,-0.79,1.25
23.861809730529785,-0.87,0.87,-0.53,1.33
23.87630796432495,-1.34,0.97,-0.29,1.67
23.904000759124756,-1.88,1.17,-0.05,2.21
23.905399799346924,-2.3,1.62,0.11,2.81
23.906378746032715,-2.22,1.84,-0.32,2.9
23.927371978759766,-1.79,2.14,-0.78,2.89
23.928465843200684,-1.72,2.48,-1.82,3.52
23.942909717559814,-1.85,2.97,-1.54,3.82
23.94440269470215,-2.11,3.18,-0.98,3.94
23.96061372756958,-2.56,2.96,-0.85,4.0
23.96207284927368,-2.9,2.88,-0.97,4.2
23.976313829421997,-3.16,3.2,-0.82,4.57
24.004944801330566,-3.66,3.95,-0.94,5.46
24.006326913833618,-4.53,4.86,-1.41,6.79
24.007336854934692,-5.86,6.21,-1.49,8.66
24.027408838272095,-7.4,8.09,-1.62,11.08
24.02844786643982,-8.94,9.68,-2.97,13.5
24.041441917419434,-10.5,10.54,-4.6,15.57
24.042959928512573,-11.67,10.94,-4.71,16.67
24.060977935791016,-12.28,10.67,-4.7,16.93
24.06246590614319,-12.82,10.21,-4.82,17.08
24.075079917907715,-11.98,12.3,-2.8,17.39
24.10274600982666,-7.86,14.31,-2.33,16.49
24.104097843170166,-1.6,13.27,-5.94,14.62
24.105113983154297,2.73,11.93,-5.28,13.32
24.10759973526001,1.45,6.05,-4.44,7.64
24.1090087890625,-3.39,0.96,-5.27,6.33
24.114550828933716,-5.99,-2.02,-5.32,8.26
24.12466788291931,-1.09,1.17,-4.85,5.1
24.13461685180664,5.4,4.26,0.13,6.87
24.14464282989502,3.22,-0.84,-1.22,3.54
24.154399871826172,-2.53,-2.96,-3.43,5.18
24.164546012878418,-6.88,-3.4,-1.33,7.78
24.194589853286743,-10.03,-3.72,-1.05,10.74
24.196040868759155,-12.18,-4.47,-1.59,13.07
24.197073936462402,-12.3,-5.02,-0.93,13.31
24.211565017700195,-10.14,-5.45,0.94,11.55
24.213702917099,-7.94,-6.61,2.29,10.58
24.227169036865234,-6.74,-7.94,2.62,10.73
24.233572959899902,-6.59,-8.57,2.35,11.06
24.244110822677612,-7.07,-7.9,2.04,10.79
24.25374984741211,-7.32,-6.62,1.2,9.94
24.263813972473145,-7.11,-5.85,0.0,9.2
24.294425010681152,-6.72,-5.47,-1.01,8.72
24.29574203491211,-6.13,-5.34,-1.65,8.29
24.29671287536621,-5.47,-5.38,-2.07,7.94
24.308328866958618,-4.82,-5.51,-2.38,7.69
24.312939882278442,-4.14,-5.78,-2.39,7.5
24.327144861221313,-3.45,-6.22,-2.47,7.52
24.332987785339355,-2.92,-6.64,-2.56,7.69
24.343480825424194,-2.76,-6.63,-2.36,7.55
24.353144884109497,-2.66,-5.92,-1.74,6.71
24.36294984817505,-2.17,-4.8,-0.93,5.34
24.39474081993103,-0.45,-3.68,-0.82,3.79
24.396418809890747,1.84,-2.79,-1.1,3.51
24.397433757781982,4.04,-1.47,-0.68,4.35
24.411569833755493,6.23,1.05,0.68,6.35
24.412592887878418,8.38,4.22,2.07,9.6
24.42697787284851,10.49,7.32,3.07,13.15
24.43250274658203,12.29,10.4,3.31,16.43
24.44415283203125,13.91,13.37,3.05,19.53
24.45222783088684,15.6,15.06,2.61,21.83
24.46281385421753,17.47,14.59,2.16,22.86
24.49532389640808,18.67,12.99,2.1,22.84
24.496767044067383,19.18,11.17,3.3,22.43
24.49781894683838,18.98,8.95,3.86,21.33
24.51127791404724,16.24,11.15,4.35,20.17
24.512346744537354,12.71,11.56,3.65,17.56
24.528485774993896,4.75,-1.36,-3.11,5.83
24.53160572052002,-7.9,-3.98,-11.32,14.36
24.544421911239624,-16.03,14.15,-14.1,25.61
24.551395893096924,-10.14,43.67,9.76,45.88
24.56124496459961,-6.02,20.06,4.49,21.41
24.59873104095459,-0.37,-4.96,-1.06,5.08
24.600085735321045,4.53,-11.11,4.53,12.82
24.601061820983887,8.86,-9.9,5.14,14.24
24.607661724090576,11.81,-5.47,6.42,14.51
24.610606908798218,9.23,-5.34,0.77,10.69
24.627933979034424,4.32,-1.05,-2.13,4.92
24.63072395324707,0.57,2.64,-1.99,3.35
24.64435887336731,-0.56,3.33,-3.41,4.79
24.650932788848877,0.66,0.95,-2.44,2.7
24.660594940185547,2.23,-0.91,0.85,2.55
24.69798183441162,2.29,-0.72,2.02,3.13
24.69937801361084,0.89,-0.09,1.2,1.49
24.700387954711914,-0.21,0.31,0.38,0.53
24.71132469177246,0.14,0.33,0.3,0.46
24.71238374710083,0.81,-0.31,1.01,1.33
24.726508855819702,0.84,-0.6,1.2,1.58
24.729866981506348,0.47,-0.38,0.69,0.91
24.74430274963379,0.11,0.01,-0.14,0.17
24.750025749206543,0.15,0.39,-0.6,0.73
24.75987982749939,0.44,0.4,-0.5,0.77
24.797611713409424,0.58,0.14,-0.2,0.62
24.798929691314697,0.46,-0.23,-0.42,0.66
24.799909830093384,0.16,-0.03,-0.03,0.16
24.81135392189026,-0.06,0.29,0.26,0.39
24.812424898147583,-0.07,0.23,-0.11,0.26
24.82722282409668,0.07,0.15,-0.26,0.3
24.82896375656128,0.15,0.07,-0.65,0.67
24.844388961791992,0.06,0.06,-0.92,0.92
24.849129915237427,-0.18,0.13,-0.9,0.92
24.859652042388916,-0.37,0.23,-0.52,0.67
24.895519733428955,-0.48,0.33,-0.01,0.58
24.896785736083984,-0.4,0.33,0.19,0.55
24.89782190322876,-0.2,0.27,-0.02,0.33
24.9115948677063,-0.23,0.31,-0.14,0.41
24.912640810012817,-0.38,0.39,-0.28,0.61
24.92709183692932,-0.44,0.44,-0.28,0.68
24.928099870681763,-0.38,0.41,-0.17,0.58
24.94463086128235,-0.29,0.35,-0.15,0.47
24.94834280014038,-0.15,0.32,-0.31,0.47
24.95832586288452,-0.02,0.37,-0.45,0.58
24.968236923217773,-0.05,0.52,-0.42,0.67
25.000850915908813,-0.19,0.72,-0.37,0.83
25.002052783966064,-0.46,0.78,-0.41,0.99
25.0032057762146,-0.89,0.89,-0.41,1.32
25.007627964019775,-1.54,1.08,-0.55,1.95
25.017889976501465,-2.16,1.66,-0.3,2.74
25.027554035186768,-2.5,1.92,-0.18,3.15
25.037688732147217,-2.66,1.93,-0.86,3.39
25.047887802124023,-2.56,2.15,-0.96,3.47
25.057923793792725,-2.17,2.59,-1.17,3.57
25.067630767822266,-2.09,2.63,-1.79,3.8
25.098663806915283,-2.51,2.9,-2.06,4.35
25.100021839141846,-3.09,3.5,-1.93,5.05
25.10099697113037,-3.54,4.02,-1.76,5.63
25.111860752105713,-4.1,4.31,-1.86,6.23
25.117202758789062,-4.73,4.63,-2.01,6.91
25.126905918121338,-5.4,5.07,-2.1,7.69
25.137045860290527,-6.23,6.05,-1.85,8.87
25.147186756134033,-7.74,7.54,-2.59,11.11
25.157083988189697,-9.38,9.13,-4.29,13.77
25.166822910308838,-10.47,10.62,-5.69,15.96
25.197124004364014,-11.23,11.22,-7.21,17.43
25.198575973510742,-11.47,10.67,-8.89,18.01
25.199546813964844,-12.01,10.67,-9.9,18.87
25.211784839630127,-11.86,14.92,-7.2,20.37
25.2161808013916,-9.31,19.15,-4.78,21.82
25.227425813674927,-5.72,15.05,-9.35,18.61
25.236098766326904,-4.62,6.3,-11.87,14.21
25.24620294570923,-5.48,0.45,-10.25,11.63
25.256325721740723,-4.74,-0.85,-6.12,7.78
25.26588487625122,1.99,4.97,2.0,5.71
25.298830032348633,7.71,4.92,7.13,11.59
25.300261974334717,6.56,-2.84,2.25,7.49
25.301281929016113,1.61,-6.45,-3.63,7.57
25.311640739440918,-3.03,-5.37,-2.07,6.5
25.315454959869385,-6.29,-4.55,-1.41,7.89
25.32734990119934,-8.17,-3.78,-1.13,9.07
25.33592700958252,-8.22,-3.07,-0.66,8.79
25.34542179107666,-6.15,-3.77,-0.84,7.26
25.35548973083496,-3.73,-4.5,-0.39,5.85
25.365301847457886,-2.76,-5.31,0.72,6.02
25.402843952178955,-2.86,-6.15,1.66,6.98
25.404645919799805,-3.21,-6.65,2.1,7.67
25.405622005462646,-3.48,-6.66,1.81,7.72
25.407958984375,-3.41,-6.44,1.15,7.37
25.414655923843384,-3.39,-6.24,0.23,7.1
25.42524003982544,-3.71,-5.96,-0.55,7.04
25.434931755065918,-3.96,-5.66,-1.13,6.99
25.44486904144287,-3.8,-5.43,-1.48,6.79
25.454803943634033,-3.38,-5.53,-1.56,6.66
25.46456003189087,-2.98,-5.92,-1.46,6.78
25.503719806671143,-2.82,-6.52,-1.36,7.23
25.505255699157715,-2.78,-7.09,-1.06,7.68
25.50622582435608,-2.66,-7.42,-0.69,7.91
25.50899887084961,-2.43,-7.78,-0.31,8.15
25.513980865478516,-2.26,-8.08,0.03,8.39
25.524096965789795,-2.13,-7.88,0.67,8.19
25.534329891204834,-1.69,-7.03,1.53,7.39
25.544163703918457,-0.7,-5.87,1.57,6.11
25.554054737091064,1.18,-4.29,1.29,4.63
25.563971042633057,3.67,-2.38,1.89,4.76
25.602288722991943,6.29,-0.3,2.98,6.96
25.60368299484253,8.2,1.74,3.93,9.25
25.604660987854004,9.0,3.77,4.58,10.77
25.607301712036133,9.36,6.45,5.32,12.55
25.627821922302246,10.53,9.18,5.34,14.95
25.629339694976807,12.54,11.29,4.81,17.54
25.642940998077393,14.64,13.6,4.5,20.48
25.644464015960693,16.51,15.1,4.52,22.82
25.658370971679688,17.98,14.23,4.08,23.28
25.663014888763428,18.54,11.94,4.04,22.41
25.706092834472656,17.62,9.42,4.96,20.58
25.70733070373535,15.83,7.84,4.21,18.15
25.708340883255005,12.7,5.02,-1.41,13.72
25.727811813354492,1.46,-5.85,-7.94,9.96
25.728866815567017,-12.93,-9.38,-20.31,25.83
25.743066787719727,-27.5,6.9,-23.38,36.74
25.744590759277344,-19.37,43.25,18.36,50.82
25.761565923690796,-6.62,34.91,16.03,38.98
25.763083934783936,-0.42,1.48,0.78,1.72
25.776865005493164,4.06,-9.2,2.71,10.41
25.77836585044861,8.78,-9.85,2.09,13.35
25.822829723358154,11.0,-8.74,0.3,14.05
25.8240327835083,10.6,-6.26,0.54,12.32
25.825053691864014,7.43,-2.01,0.65,7.72
25.84514093399048,3.22,0.32,0.02,3.23
25.846214771270752,0.66,2.26,-0.56,2.42
25.861454010009766,-0.01,2.8,-1.8,3.32
25.862932920455933,0.69,1.55,-1.73,2.42
25.877999782562256,1.56,0.4,-0.27,1.63
25.879467010498047,1.51,-0.26,0.86,1.75
25.89350700378418,0.77,-0.9,1.46,1.88
25.923743724822998,0.16,-0.85,1.51,1.74
25.92557191848755,-0.01,-0.38,1.45,1.49
25.926621913909912,0.02,-0.2,1.06,1.07
25.945355892181396,0.45,-0.32,0.21,0.59
25.946391820907593,0.97,-0.26,-0.2,1.02
25.961362838745117,1.07,-0.07,-0.13,1.08
25.96282196044922,0.77,0.03,0.01,0.77
25.977949857711792,0.52,0.13,0.04,0.53
25.97947883605957,0.38,0.09,-0.2,0.43
25.99358892440796,0.17,0.04,-0.22,0.28
26.02420687675476,-0.05,0.15,0.06,0.16
26.025519847869873,-0.37,0.16,0.2,0.45
26.026546955108643,-0.45,0.14,-0.06,0.47
26.045316696166992,-0.23,0.13,-0.45,0.52
26.046315908432007,-0.05,0.16,-0.4,0.43
26.060449838638306,-0.02,0.07,-0.3,0.3
26.06191873550415,-0.01,0.02,-0.28,0.28
26.07827091217041,-0.04,0.1,-0.31,0.32
26.079757928848267,-0.15,0.21,-0.36,0.44
26.093875885009766,-0.28,0.29,-0.14,0.42
26.122224807739258,-0.33,0.3,0.09,0.45
26.123569011688232,-0.25,0.28,0.13,0.39
26.12453603744507,-0.18,0.25,0.06,0.31
26.145320892333984,-0.14,0.2,-0.29,0.37
26.146312713623047,-0.1,0.2,-0.67,0.7
26.161505699157715,-0.16,0.31,-0.52,0.62
26.162986755371094,-0.42,0.44,-0.22,0.64
26.17818593978882,-0.52,0.53,-0.15,0.75
26.179572820663452,-0.52,0.53,-0.19,0.76
26.193774700164795,-0.55,0.62,-0.17,0.84
26.222059726715088,-0.64,0.66,-0.41,1.0
26.223331928253174,-0.87,0.67,-0.68,1.29
26.224344730377197,-1.12,0.84,-0.8,1.61
26.24532699584961,-1.24,1.0,-0.67,1.72
26.246399879455566,-1.46,1.09,-0.45,1.87
26.261303901672363,-1.75,1.22,-0.23,2.14
26.262650966644287,-1.74,1.24,-0.39,2.17
26.278433799743652,-1.72,1.17,-0.85,2.24
26.279901027679443,-1.77,1.43,-1.27,2.6
26.293872833251953,-1.65,2.01,-1.4,2.95
26.32356882095337,-1.55,2.48,-1.22,3.16
26.324898719787598,-1.77,2.7,-1.29,3.47
26.32593083381653,-2.2,2.81,-1.45,3.85
26.34546184539795,-2.69,3.07,-1.33,4.29
26.346489906311035,-3.07,3.65,-1.11,4.89
26.36158585548401,-3.41,4.41,-1.03,5.66
26.363065719604492,-4.27,5.29,-0.88,6.85
26.378336906433105,-5.86,6.78,-0.66,8.98
26.379793882369995,-7.55,8.47,-1.62,11.46
26.39392590522766,-8.77,9.37,-3.44,13.28
26.422945976257324,-9.99,10.16,-4.37,14.9
26.424309730529785,-10.87,10.83,-5.32,16.24
26.425317764282227,-11.11,10.46,-5.95,16.37
26.44523572921753,-11.49,9.18,-6.27,15.98
26.44632887840271,-11.69,9.74,-4.99,16.01
26.461318969726562,-9.76,13.5,-2.1,16.79
26.46235704421997,-4.26,14.06,-4.13,15.26
26.47837781906128,1.88,11.89,-7.14,13.99
26.479816913604736,3.25,7.32,-4.91,9.39
26.494809865951538,-0.68,1.47,-6.08,6.29
26.52236270904541,-5.08,-2.01,-5.08,7.46
26.523701906204224,-3.26,-1.06,-3.83,5.14
26.524690866470337,4.16,4.26,0.58,5.98
26.545547008514404,5.89,0.49,1.02,5.99
26.5465407371521,1.39,-3.15,-4.24,5.46
26.561805725097656,-3.48,-3.72,-3.64,6.26
26.56279182434082,-6.81,-3.13,-1.98,7.75
26.578661918640137,-9.0,-3.25,-2.27,9.83
26.580150842666626,-9.31,-3.72,-1.99,10.22
26.593946933746338,-7.74,-4.34,-0.71,8.9
26.595407009124756,-5.99,-5.68,0.79,8.29
26.640268802642822,-4.98,-7.32,1.65,9.0
26.641466856002808,-4.83,-8.48,1.91,9.94
26.642467975616455,-5.06,-8.56,1.58,10.06
26.66276979446411,-5.02,-7.67,0.69,9.19
26.66428279876709,-4.63,-6.28,-0.26,7.8
26.676512718200684,-4.51,-5.12,-1.05,6.9
26.677982807159424,-4.45,-4.58,-1.94,6.67
26.69520592689514,-3.63,-4.79,-2.93,6.68
26.69668197631836,-3.01,-4.62,-3.08,6.31
26.710508823394775,-2.87,-4.83,-2.77,6.26
26.740391731262207,-2.96,-5.31,-2.24,6.47
26.74178171157837,-2.94,-5.73,-1.78,6.68
26.742809772491455,-2.82,-5.95,-1.54,6.76
26.762104034423828,-2.63,-6.17,-1.48,6.86
26.763176918029785,-2.51,-6.19,-1.26,6.79
26.778565883636475,-2.61,-6.09,-0.84,6.67
26.780040740966797,-2.6,-6.07,-0.47,6.62
26.79512882232666,-1.93,-5.96,0.01,6.26
26.796658992767334,-0.65,-5.64,0.67,5.71
26.810778856277466,0.45,-5.39,1.05,5.5
26.841392993927002,1.5,-4.69,1.17,5.06
26.842735767364502,2.85,-3.57,1.03,4.68
26.84381675720215,4.44,-1.94,1.26,5.0
26.86214590072632,6.24,0.03,1.99,6.54
26.863176822662354,8.03,2.05,2.85,8.76
26.878602981567383,9.68,4.04,3.84,11.17
26.880141735076904,11.13,5.95,5.05,13.59
26.893249034881592,12.75,7.66,6.52,16.24
26.89474081993103,14.27,8.85,7.15,18.25
26.908679008483887,15.75,10.32,8.25,20.55
26.937296867370605,16.35,11.26,7.51,21.22
26.938654899597168,15.82,11.51,6.21,20.52
26.93967580795288,14.0,12.95,2.94,19.29
26.94193387031555,11.2,12.93,-2.75,17.32
26.943408966064453,1.75,-0.58,-13.36,13.48
26.94485902786255,-15.6,3.32,-25.63,30.18
26.946293830871582,-20.19,45.41,-5.48,49.99
26.95294690132141,-13.85,37.94,12.26,42.2
26.96310591697693,-5.75,2.13,4.83,7.8
26.972925901412964,2.15,-8.98,8.22,12.36
27.00506591796875,8.61,-10.02,7.05,14.97
27.00601100921631,12.04,-9.69,4.04,15.97
27.006786823272705,12.32,-8.33,1.31,14.92
27.012446880340576,9.53,-3.52,-0.05,10.15
27.022546768188477,4.37,0.46,-0.2,4.39
27.032639026641846,0.29,2.24,-1.25,2.58
27.04272174835205,-1.57,3.25,-3.49,5.02
27.05241298675537,-0.35,2.46,-2.97,3.87
27.062285900115967,2.37,0.26,0.27,2.39
27.072227001190186,3.03,-1.26,2.56,4.16
27.108073711395264,1.4,-1.74,2.54,3.38
27.10947275161743,0.06,-1.09,1.1,1.54
27.11047387123108,0.33,0.1,0.44,0.55
27.1288058757782,1.16,0.23,-0.01,1.18
27.129856824874878,1.1,-0.39,0.66,1.34
27.14489984512329,0.52,-0.51,1.01,1.24
27.145923852920532,0.55,-0.19,0.47,0.74
27.16220998764038,0.9,0.03,-0.09,0.9
27.163620948791504,1.09,0.11,-0.17,1.1
27.177613735198975,0.84,-0.01,-0.02,0.84
27.208101749420166,0.44,-0.2,-0.22,0.53
27.209362030029297,0.17,-0.14,-0.29,0.36
27.21036982536316,0.04,0.0,0.04,0.05
27.22897481918335,0.0,0.03,0.47,0.47
27.23004984855652,-0.06,-0.11,0.53,0.54
27.244961738586426,-0.19,-0.08,0.13,0.24
27.245932817459106,-0.19,0.15,-0.63,0.67
27.262022972106934,-0.09,0.37,-1.1,1.16
27.26349186897278,-0.13,0.47,-0.82,0.95
27.277472019195557,-0.28,0.35,-0.15,0.47
27.30730104446411,-0.42,0.2,0.14,0.48
27.30867576599121,-0.51,0.22,0.02,0.55
27.309736728668213,-0.59,0.38,-0.22,0.73
27.328853845596313,-0.71,0.5,-0.56,1.03
27.32989192008972,-0.82,0.57,-0.67,1.2
27.345048904418945,-0.75,0.45,-0.85,1.21
27.34608292579651,-0.59,0.31,-0.88,1.1
27.362168788909912,-0.6,0.34,-0.57,0.89
27.363656997680664,-0.78,0.55,-0.43,1.04
27.377355813980103,-0.86,0.8,-0.47,1.26
27.37990689277649,-0.86,0.98,-0.45,1.37
27.422646045684814,-0.97,1.0,-0.6,1.51
27.423792839050293,-1.19,0.95,-0.83,1.73
27.42478585243225,-1.37,0.92,-0.63,1.76
27.446192741394043,-1.43,1.05,-0.31,1.8
27.44719386100769,-1.32,1.26,-0.31,1.85
27.46196699142456,-1.3,1.31,-0.83,2.02
27.463418006896973,-1.39,1.69,-1.09,2.44
27.47999382019043,-1.48,2.41,-1.21,3.07
27.481477737426758,-1.83,2.79,-1.34,3.59
27.494672775268555,-2.17,3.1,-1.02,3.91
27.52375078201294,-2.56,3.2,-1.18,4.26
27.525024890899658,-2.7,3.36,-1.34,4.51
27.52602791786194,-2.95,3.73,-1.44,4.96
27.54565691947937,-3.63,4.57,-1.4,6.0
27.54671883583069,-4.66,5.89,-1.39,7.63
27.562184810638428,-6.1,7.47,-2.23,9.89
27.563694953918457,-7.71,8.79,-3.86,12.31
27.578871726989746,-9.13,9.95,-4.89,14.36
27.580514907836914,-9.99,10.8,-5.28,15.63
27.59446096420288,-10.21,10.74,-6.28,16.09
27.624314785003662,-9.99,9.39,-7.9,15.82
27.62563681602478,-9.92,7.83,-9.0,15.51
27.626651763916016,-9.69,8.41,-7.67,14.94
27.645817756652832,-7.13,12.5,-3.49,14.8
27.646896839141846,-2.21,14.03,-2.59,14.43
27.661900997161865,2.45,10.87,-5.15,12.27
27.662946701049805,3.29,4.96,-6.09,8.51
27.678822994232178,-0.07,-0.05,-5.61,5.61
27.680275917053223,-3.41,-3.38,-4.43,6.53
27.694550037384033,-0.21,-0.41,-1.69,1.75
27.72193193435669,5.01,1.76,3.88,6.57
27.72328472137451,1.99,-3.21,-0.17,3.78
27.724268913269043,-3.63,-5.01,-3.55,7.13
27.72640895843506,-7.04,-3.74,-1.71,8.15
27.727838039398193,-9.64,-2.56,-0.88,10.01
27.73713779449463,-11.29,-1.98,-0.31,11.46
27.747228860855103,-10.19,-2.3,0.77,10.47
27.757330894470215,-6.93,-4.06,1.82,8.23
27.76715898513794,-4.55,-5.84,2.61,7.84
27.77687978744507,-4.05,-6.72,2.66,8.28
27.810277938842773,-4.35,-6.24,2.53,8.01
27.811455726623535,-4.29,-5.61,1.44,7.2
27.812456846237183,-4.16,-4.74,0.67,6.34
27.82930088043213,-3.99,-4.67,-0.58,6.16
27.830368995666504,-3.26,-4.89,-1.56,6.08
27.84530782699585,-2.87,-4.79,-2.23,6.01
27.84636402130127,-2.66,-5.05,-2.76,6.34
27.862106800079346,-2.51,-5.33,-2.72,6.48
27.865983963012695,-2.48,-5.87,-2.15,6.72
27.877070903778076,-2.44,-6.42,-1.4,7.0
27.914894819259644,-2.3,-7.08,-0.75,7.48
27.916183948516846,-2.03,-7.9,-0.44,8.16
27.91718292236328,-1.88,-8.72,-0.31,8.92
27.929335832595825,-2.03,-9.39,-0.13,9.6
27.93037986755371,-2.29,-9.64,0.25,9.91
27.945530891418457,-2.3,-8.91,1.08,9.26
27.946590900421143,-1.64,-7.82,1.57,8.14
27.962527751922607,0.12,-6.94,1.07,7.02
27.965532779693604,1.97,-5.92,0.79,6.28
27.97658681869507,3.36,-4.5,1.38,5.78
28.014871835708618,4.79,-2.62,2.31,5.92
28.01617193222046,6.52,-0.69,3.1,7.25
28.017027854919434,8.41,1.41,3.94,9.39
28.029250860214233,9.7,3.67,4.69,11.38
28.03029775619507,10.05,5.52,5.29,12.62
28.04542589187622,10.33,7.64,5.91,14.14
28.046466827392578,11.5,9.88,6.71,16.57
28.06217885017395,13.04,11.97,7.43,19.19
28.064597845077515,13.9,13.41,7.34,20.66
28.075888872146606,14.01,13.66,6.27,20.54
28.11165475845337,13.25,12.87,4.62,19.04
28.112826824188232,12.61,13.68,0.49,18.61
28.113654851913452,5.29,3.86,-8.15,10.45
28.12921690940857,-10.44,-6.92,-21.27,24.68
28.13028883934021,-24.93,14.29,-26.63,39.17
28.144218921661377,-19.92,46.08,13.52,51.99
28.1452579498291,-9.2,24.96,13.35,29.76
28.162327766418457,-0.53,-0.67,3.61,3.7
28.163678884506226,7.58,-4.66,6.6,11.07
28.177982807159424,11.0,-7.15,4.13,13.75
28.18389892578125,10.5,-9.17,-0.69,13.95
28.221574783325195,8.54,-6.77,-1.32,10.97
28.22273588180542,5.39,-3.2,-0.2,6.27
28.223859786987305,2.51,-1.11,-0.67,2.82
28.22535800933838,0.9,1.22,-1.49,2.12
28.233378887176514,0.59,2.89,-2.06,3.59
28.24337673187256,0.78,2.38,-1.8,3.08
28.253410816192627,0.98,0.88,-0.5,1.4
28.263352870941162,0.79,-0.1,2.09,2.23
28.273138999938965,0.14,-0.84,3.77,3.86
28.282795906066895,-0.34,-1.32,2.55,2.89
28.3140230178833,0.08,-0.95,0.58,1.11
28.315138816833496,0.91,-0.09,-0.59,1.08
28.3159658908844,1.29,0.15,-0.83,1.54
28.329508781433105,1.05,0.02,-0.34,1.1
28.33262300491333,0.73,-0.05,-0.07,0.73
28.342971801757812,0.61,0.0,-0.35,0.7
28.35265588760376,0.6,0.03,-0.76,0.96
28.362262725830078,0.53,0.11,-0.85,1.0
28.372305870056152,0.06,0.14,-0.33,0.36
28.382332801818848,-0.51,0.18,0.42,0.68
28.413784980773926,-0.68,0.19,1.39,1.55
28.4148907661438,-0.45,0.03,1.2,1.28
28.415705919265747,0.11,-0.07,-0.12,0.17
28.42933702468872,0.57,0.04,-1.07,1.21
28.4318368434906,0.43,0.12,-1.2,1.28
28.445501804351807,-0.11,0.18,-0.68,0.71
28.451915740966797,-0.46,0.28,-0.03,0.53
28.463346004486084,-0.41,0.31,0.32,0.6
28.47187089920044,-0.15,0.21,0.31,0.4
28.481910705566406,-0.02,0.15,0.17,0.22
28.51542901992798,-0.12,0.2,0.12,0.26
28.51678490638733,-0.44,0.3,-0.02,0.53
28.517756938934326,-0.73,0.38,-0.41,0.91
28.529911994934082,-0.74,0.47,-0.58,1.05
28.530961990356445,-0.52,0.44,-0.51,0.85
28.545581817626953,-0.24,0.31,-0.54,0.66
28.55110502243042,-0.13,0.26,-0.56,0.63
28.562184810638428,-0.36,0.32,-0.85,0.97
28.57133674621582,-0.83,0.56,-0.98,1.4
28.580801010131836,-1.26,0.88,-1.04,1.85
28.620635986328125,-1.34,1.17,-0.92,2.0
28.62192678451538,-1.35,1.36,-0.75,2.05
28.6227388381958,-1.52,1.49,-0.53,2.19
28.625339031219482,-1.82,1.59,-0.48,2.46
28.64574670791626,-2.13,1.9,-0.43,2.88
28.646728038787842,-2.23,2.44,-0.38,3.32
28.66232681274414,-2.41,2.71,-0.78,3.7
28.66337299346924,-2.5,3.0,-1.01,4.03
28.6784188747406,-2.76,3.25,-1.44,4.5
28.680113792419434,-2.8,3.54,-1.71,4.82
28.72381281852722,-2.86,3.77,-1.68,5.02
28.72498369216919,-3.33,4.21,-1.5,5.57
28.72598695755005,-4.19,4.81,-1.44,6.53
28.74650287628174,-5.24,5.85,-1.65,8.02
28.7475528717041,-6.33,7.04,-2.33,9.74
28.762335777282715,-7.84,8.28,-3.41,11.9
28.76337194442749,-9.53,9.64,-4.65,14.33
28.7794668674469,-10.41,10.67,-5.72,15.96
28.78092384338379,-10.55,10.62,-7.03,16.53
28.795092821121216,-10.41,9.02,-8.65,16.26
28.826004028320312,-10.35,8.23,-8.85,15.91
28.827342987060547,-9.36,11.11,-5.51,15.53
28.828345775604248,-5.88,14.84,-2.47,16.15
28.84670090675354,-0.66,14.32,-4.04,14.89
28.84780502319336,2.25,9.51,-6.29,11.62
28.86228370666504,0.68,3.29,-6.7,7.49
28.863341808319092,-3.66,-0.67,-4.98,6.21
28.879377841949463,-4.88,-2.77,-3.67,6.7
28.880849838256836,1.38,2.53,0.51,2.92
28.895166873931885,5.59,1.35,4.0,7.0
28.92555570602417,1.85,-3.6,-1.56,4.33
28.92682385444641,-3.33,-4.55,-2.99,6.38
28.92781686782837,-6.88,-3.56,-1.05,7.81
28.946486949920654,-9.22,-2.8,-0.44,9.64
28.94754385948181,-10.33,-2.63,-0.02,10.65
28.962464809417725,-9.05,-3.34,0.51,9.66
28.963507890701294,-6.44,-4.69,1.35,8.08
28.979456901550293,-4.72,-6.11,2.34,8.06
28.980880737304688,-4.45,-6.95,2.67,8.67
28.99488401412964,-4.88,-7.34,2.31,9.11
28.996397018432617,-5.46,-6.6,1.59,8.71
29.041882038116455,-5.37,-6.03,0.87,8.12
29.043031692504883,-5.01,-5.81,0.47,7.68
29.044068813323975,-4.19,-6.03,-0.67,7.37
29.06350088119507,-3.63,-5.71,-1.33,6.89
29.06449794769287,-3.46,-5.71,-1.71,6.89
29.07870388031006,-3.44,-6.12,-1.8,7.24
29.079710006713867,-3.46,-6.62,-1.72,7.66
29.096112728118896,-3.44,-7.21,-1.58,8.14
29.09756898880005,-3.39,-7.67,-1.29,8.48
29.11192274093628,-3.32,-7.91,-0.89,8.62
29.143118858337402,-3.36,-8.1,-0.31,8.77
29.144420862197876,-3.54,-8.06,0.41,8.81
29.145466804504395,-3.49,-7.77,1.0,8.57
29.163105010986328,-3.15,-7.16,1.72,8.0
29.164166927337646,-2.22,-6.13,1.92,6.79
29.17914390563965,-0.54,-4.88,1.5,5.13
29.18018674850464,1.32,-3.21,1.67,3.85
29.196112871170044,3.15,-1.04,2.54,4.17
29.197574853897095,5.16,1.26,3.15,6.17
29.211979866027832,7.03,3.45,3.19,8.45
29.242355823516846,8.44,6.05,3.0,10.8
29.243618965148926,9.93,8.79,2.6,13.51
29.244711875915527,11.84,11.18,2.19,16.43
29.25995182991028,13.82,13.58,1.56,19.43
29.261003017425537,15.6,14.96,0.86,21.63
29.277379035949707,17.18,14.19,0.65,22.29
29.278475761413574,18.48,12.13,1.01,22.12
29.29608988761902,18.95,10.54,3.01,21.89
29.297164916992188,16.49,14.35,4.82,22.38
29.311940908432007,9.94,6.54,0.79,11.92
29.34195899963379,-2.5,-4.29,-7.28,8.81
29.34313678741455,-17.3,0.71,-15.4,23.17
29.344048976898193,-21.16,30.16,-1.11,36.85
29.3631010055542,-12.49,33.7,9.79,37.24
29.364192008972168,-2.78,5.38,1.7,6.28
29.37911081314087,4.93,-6.17,2.8,8.37
29.380159854888916,10.56,-6.91,6.03,13.98
29.39584970474243,11.71,-7.54,3.89,14.46
29.396877765655518,10.09,-6.68,-0.21,12.1
29.411898851394653,6.8,-2.85,-1.08,7.45
29.440025806427002,3.01,0.42,-1.29,3.3
29.441207885742188,0.98,2.77,-2.8,4.05
29.441977977752686,0.32,2.5,-3.5,4.31
29.463895797729492,0.79,0.62,-0.9,1.34
29.464923858642578,1.32,-0.45,2.12,2.53
29.47953987121582,0.96,-0.72,3.63,3.82
29.48054790496826,0.1,-0.76,2.46,2.57
29.495876789093018,-0.14,-0.37,0.74,0.83
29.496858835220337,0.37,0.14,0.07,0.4
29.51125192642212,0.93,0.01,-0.12,0.93
29.5413658618927,0.98,-0.3,0.01,1.02
29.542686939239502,0.68,-0.35,-0.11,0.77
29.54350996017456,0.4,-0.15,-0.52,0.67
29.563267707824707,0.28,0.15,-0.94,0.99
29.564340829849243,0.35,0.4,-0.99,1.12
