time,ax,ay,az,atotal
0.0007958412170410156,1.67,-0.14,0.9,1.9
0.01110386848449707,-0.1,0.03,0.5,0.51
0.046057939529418945,-0.28,0.11,0.21,0.36
0.04633283615112305,0.53,0.6,0.19,0.82
0.04660177230834961,0.25,0.04,-0.88,0.91
0.05004405975341797,-0.97,-0.33,-1.16,1.54
0.06011199951171875,-1.37,0.13,-0.46,1.45
0.07011795043945312,-0.83,-0.1,0.15,0.84
0.08086085319519043,0.03,-0.17,0.47,0.5
0.0902259349822998,0.47,-0.05,0.38,0.6
0.1002507209777832,0.41,-0.01,0.02,0.41
0.1110539436340332,0.04,-0.07,-0.12,0.14
0.14668893814086914,-0.1,-0.02,0.0,0.1
0.14694499969482422,-0.07,-0.02,0.1,0.12
0.1472158432006836,-0.02,-0.05,0.09,0.1
0.15004491806030273,0.01,-0.01,0.03,0.03
0.16003990173339844,0.06,0.02,-0.02,0.06
0.1700599193572998,0.17,0.01,0.04,0.17
0.18067693710327148,0.09,0.0,0.09,0.12
0.19004583358764648,-0.08,-0.02,0.16,0.18
0.2004537582397461,-0.13,-0.08,0.17,0.22
0.21090173721313477,-0.03,-0.04,0.2,0.2
0.24625396728515625,0.04,-0.02,0.19,0.19
0.24653887748718262,0.01,-0.03,0.11,0.11
0.24681377410888672,-0.06,0.02,-0.02,0.06
0.2500438690185547,-0.15,0.06,-0.19,0.24
0.25983285903930664,-0.1,0.05,-0.2,0.22
0.26990699768066406,0.07,-0.02,-0.08,0.1
0.2805600166320801,0.13,-0.03,0.0,0.13
0.2899937629699707,-0.09,0.0,0.03,0.09
0.300264835357666,-0.32,-0.03,0.02,0.32
0.3107457160949707,-0.37,-0.02,0.06,0.37
0.3462958335876465,-0.29,-0.06,0.08,0.3
0.3465728759765625,-0.14,-0.04,0.16,0.21
0.34684276580810547,-0.01,-0.08,0.22,0.23
0.3501429557800293,-0.08,-0.1,0.23,0.26
0.3597397804260254,-0.21,-0.04,0.24,0.32
0.36983680725097656,-0.22,-0.04,0.19,0.29
0.3804309368133545,-0.07,-0.01,0.06,0.09
0.3897738456726074,0.12,0.05,-0.07,0.14
0.3997478485107422,0.23,0.04,-0.14,0.27
0.410614013671875,0.23,0.03,-0.03,0.23
0.4464099407196045,0.19,-0.04,0.16,0.25
0.4466838836669922,0.1,-0.08,0.23,0.26
0.44693899154663086,0.03,-0.08,0.24,0.25
0.449617862701416,0.08,-0.08,0.17,0.2
0.45963382720947266,0.15,0.0,0.13,0.19
0.4696488380432129,0.12,-0.06,0.12,0.18
0.4802558422088623,0.09,-0.09,0.24,0.27
0.4896209239959717,0.05,-0.08,0.36,0.37
0.49957275390625,-0.07,-0.06,0.3,0.31
0.5104098320007324,-0.13,-0.12,0.23,0.29
0.5463957786560059,0.05,0.01,-0.18,0.18
0.5466668605804443,0.19,0.05,-0.03,0.19
0.54693603515625,0.32,-0.06,-0.07,0.33
0.5495357513427734,0.16,-0.02,0.23,0.28
0.5594658851623535,-0.18,-0.06,0.22,0.29
0.5695090293884277,-0.48,-0.09,0.13,0.5
0.5800459384918213,-0.4,-0.08,0.08,0.41
0.5894589424133301,-0.02,-0.02,0.08,0.08
0.5994257926940918,0.15,-0.07,0.31,0.35
0.6102328300476074,0.26,-0.09,0.2,0.34
0.6462459564208984,0.16,0.05,-0.02,0.16
0.646522045135498,-0.03,0.08,-0.09,0.12
0.6467747688293457,-0.12,0.08,-0.1,0.17
0.6494259834289551,-0.05,-0.06,0.21,0.22
0.6592929363250732,0.32,-0.09,0.09,0.34
0.6692838668823242,0.49,0.04,0.09,0.49
0.6799497604370117,0.4,0.0,0.17,0.43
0.6894059181213379,0.28,-0.06,0.25,0.38
0.6992888450622559,0.13,-0.14,0.49,0.52
0.7100448608398438,0.07,-0.14,0.27,0.31
0.7470908164978027,0.04,0.01,0.03,0.05
0.7473468780517578,0.04,-0.01,0.1,0.1
0.7476189136505127,0.18,-0.03,0.24,0.3
0.7491428852081299,0.3,-0.08,0.25,0.39
0.7592089176177979,0.12,-0.06,0.27,0.3
0.7691278457641602,-0.16,-0.05,0.27,0.31
0.7797579765319824,-0.37,-0.05,0.23,0.43
0.789207935333252,-0.37,-0.11,0.17,0.42
0.7992067337036133,-0.14,-0.13,0.2,0.27
0.8100290298461914,0.18,-0.08,0.15,0.24
0.8475489616394043,0.24,0.0,0.0,0.24
0.847822904586792,0.0,0.09,-0.17,0.19
0.8480918407440186,-0.32,0.1,-0.4,0.52
0.8490128517150879,-0.49,0.06,-0.42,0.64
0.8590049743652344,-0.34,0.0,-0.13,0.36
0.8690779209136963,-0.05,-0.07,0.2,0.21
0.8796730041503906,-0.01,-0.08,0.27,0.28
0.8890900611877441,-0.23,-0.04,0.08,0.24
0.8990769386291504,-0.44,0.0,-0.26,0.51
0.9099149703979492,-0.51,0.11,-0.43,0.67
0.9472517967224121,-0.4,0.1,-0.25,0.48
0.9475469589233398,-0.14,-0.05,0.08,0.16
0.9478378295898438,0.13,-0.09,0.23,0.27
0.9488530158996582,0.15,-0.09,0.22,0.28
0.9589028358459473,0.17,-0.13,0.13,0.25
0.9688849449157715,0.15,-0.01,0.04,0.15
0.9795558452606201,0.09,0.05,-0.09,0.13
0.9890589714050293,0.17,0.0,-0.02,0.17
0.9988870620727539,0.27,-0.06,-0.03,0.27
1.0097579956054688,0.32,-0.04,-0.18,0.36
1.0470619201660156,0.36,0.08,-0.25,0.44
1.0473337173461914,0.35,0.05,-0.24,0.42
1.0476019382476807,0.22,0.09,-0.1,0.25
1.0487549304962158,0.16,0.07,-0.04,0.17
1.0587189197540283,0.14,-0.03,-0.12,0.18
1.0687637329101562,0.11,0.0,-0.17,0.2
1.0793609619140625,0.09,0.09,-0.13,0.18
1.08872389793396,0.11,0.06,-0.07,0.14
1.0987389087677002,0.12,-0.01,0.01,0.12
1.1095337867736816,0.14,-0.02,0.12,0.18
1.1468498706817627,0.18,-0.04,0.19,0.26
1.1471257209777832,0.2,-0.02,0.03,0.2
1.1473948955535889,0.06,0.04,-0.22,0.23
1.148634910583496,-0.14,0.11,-0.42,0.45
1.15861177444458,-0.29,0.22,-0.49,0.61
1.1685469150543213,-0.37,0.31,-0.54,0.72
1.1792149543762207,-0.26,0.33,-0.89,0.98
1.1885478496551514,-0.25,0.58,-0.98,1.16
1.1985769271850586,-0.54,1.08,-0.79,1.44
1.2094178199768066,0.01,0.67,-1.2,1.37
1.2474298477172852,0.18,-0.4,-0.54,0.69
1.2477140426635742,0.1,-0.61,0.73,0.95
1.248154878616333,0.4,-0.41,0.87,1.04
1.248426914215088,0.6,-0.28,0.43,0.78
1.2584939002990723,0.41,-0.18,0.12,0.46
1.2684619426727295,-0.09,0.05,-0.08,0.13
1.2790958881378174,-0.88,0.14,-0.33,0.95
1.288512945175171,-1.53,0.05,-0.48,1.6
1.2986228466033936,-1.49,-0.04,-0.36,1.53
1.3093457221984863,-0.8,-0.16,-0.01,0.81
1.3474397659301758,0.21,-0.09,0.4,0.46
1.3477320671081543,1.05,-0.11,0.65,1.23
1.3481688499450684,1.51,-0.11,0.54,1.6
1.3484339714050293,1.0,0.28,0.31,1.08
1.3583159446716309,0.37,-0.13,-0.07,0.39
1.368222951889038,0.17,-0.44,-0.12,0.48
1.3788478374481201,0.02,0.0,0.1,0.1
1.388340950012207,0.12,0.05,-0.14,0.19
1.3982958793640137,0.5,0.06,-0.39,0.63
1.4092278480529785,0.73,0.34,-0.28,0.85
1.4482479095458984,0.75,0.35,-0.15,0.84
1.4485218524932861,0.6,0.24,-0.16,0.66
1.4487979412078857,0.56,0.31,-0.25,0.68
1.4490680694580078,0.78,0.43,-0.48,1.01
1.4581859111785889,1.11,0.6,-0.6,1.39
1.4680638313293457,1.75,0.6,-0.79,2.01
1.4786577224731445,2.34,0.58,-0.36,2.43
1.4882068634033203,3.03,0.41,0.42,3.08
1.498157024383545,3.83,0.01,1.28,4.03
1.5090289115905762,4.9,-0.18,1.74,5.2
1.5476937294006348,5.87,0.02,1.04,5.96
1.5479717254638672,5.84,0.59,0.56,5.89
1.548245906829834,4.47,1.28,-0.16,4.65
1.5485138893127441,1.22,1.05,-1.2,2.0
1.5580129623413086,-3.83,-0.63,-1.54,4.17
1.568206787109375,-6.0,-3.39,-3.12,7.56
1.578563928604126,-5.16,-5.01,-5.16,8.85
1.5880439281463623,-4.11,-3.22,-3.25,6.15
1.598045825958252,-1.87,-1.38,-0.42,2.36
1.6088159084320068,0.13,-2.36,0.3,2.38
1.647799015045166,-0.3,-2.72,1.12,2.95
1.6480679512023926,-1.09,-2.22,2.39,3.43
1.6483349800109863,1.13,-2.37,2.99,3.97
1.6485967636108398,5.24,-0.82,1.73,5.57
1.6579179763793945,0.9,7.64,6.35,9.97
1.6681838035583496,-6.73,7.76,9.75,14.16
1.6784887313842773,-10.93,-2.14,1.57,11.24
1.687837839126587,-8.97,-7.02,-5.16,12.5
1.6978929042816162,-3.84,-4.03,-3.03,6.33
1.708730936050415,1.73,0.78,0.54,1.97
1.74708890914917,5.68,3.97,1.97,7.2
1.7477660179138184,7.58,3.75,0.29,8.46
1.7480340003967285,4.9,1.22,-2.4,5.59
1.748297929763794,-0.65,0.47,-1.52,1.71
1.7577779293060303,-4.09,0.55,0.3,4.13
1.7681059837341309,-5.07,0.21,1.91,5.42
1.778324842453003,-3.72,-0.24,2.39,4.42
1.7877087593078613,-0.66,-0.04,1.61,1.74
1.7977428436279297,1.04,0.45,0.6,1.28
1.8085880279541016,1.53,0.32,-0.8,1.75
1.848024845123291,0.56,0.59,-1.32,1.55
1.8487019538879395,-0.58,0.55,-1.07,1.33
1.848978042602539,-0.22,0.05,-1.52,1.53
1.8492460250854492,0.69,0.15,-1.26,1.44
1.8576579093933105,0.97,0.65,-0.12,1.17
1.8675718307495117,0.84,0.35,0.94,1.3
1.8781800270080566,0.81,-0.26,0.72,1.11
1.8875648975372314,0.75,-0.16,0.57,0.95
1.8975868225097656,0.87,0.15,0.12,0.89
1.9084608554840088,0.62,0.29,-0.37,0.77
1.9176850318908691,0.55,0.42,-0.07,0.69
1.9483728408813477,0.85,0.53,0.51,1.12
1.9486479759216309,0.71,0.52,0.39,0.96
1.9489188194274902,0.38,0.58,-0.28,0.74
1.9574289321899414,0.06,0.65,-0.76,1.0
1.9675369262695312,0.64,0.62,-0.62,1.08
1.978017807006836,1.82,0.77,0.49,2.03
1.9874238967895508,2.84,1.04,0.41,3.05
1.9974827766418457,3.04,1.78,0.36,3.54
2.0083539485931396,2.02,1.93,0.72,2.88
2.0174479484558105,0.1,1.6,1.03,1.9
2.048719882965088,-1.3,2.42,2.37,3.62
2.0489959716796875,-0.76,2.26,2.76,3.64
2.0492677688598633,0.11,0.68,1.62,1.76
2.0572779178619385,0.31,0.64,0.97,1.2
2.0672597885131836,0.41,1.13,0.75,1.41
2.077932834625244,1.03,1.58,0.7,2.01
2.087296962738037,2.49,2.25,0.77,3.44
2.0973329544067383,4.52,2.83,0.88,5.4
2.108062744140625,6.43,4.08,1.96,7.86
2.1175029277801514,8.53,5.21,3.58,10.61
2.1482999324798584,10.41,6.66,5.87,13.68
2.1485679149627686,11.85,8.26,8.56,16.79
2.1488358974456787,13.03,9.14,10.83,19.25
2.1572299003601074,14.69,9.59,11.52,20.98
2.16725492477417,16.44,11.06,11.79,23.05
2.177940845489502,16.92,14.41,10.71,24.67
2.187769889831543,15.81,16.79,3.77,23.36
2.19770884513855,10.26,18.69,-6.54,22.3
2.2079219818115234,1.12,21.33,-16.08,26.73
2.217796802520752,1.07,14.9,-23.67,27.98
2.2476119995117188,3.05,11.8,-10.65,16.18
2.247889995574951,-3.31,11.59,-0.86,12.08
2.2481517791748047,-5.15,4.45,0.18,6.8
2.2569007873535156,1.24,-0.99,1.68,2.31
2.267068862915039,7.73,-4.51,3.77,9.71
2.2776899337768555,10.54,-8.21,5.35,14.39
2.2870829105377197,10.72,-11.54,4.93,16.5
2.2969818115234375,9.35,-14.09,4.5,17.49
2.30774188041687,5.69,-17.77,5.18,19.36
2.3170809745788574,1.8,-21.35,6.39,22.35
2.348179817199707,-0.77,-21.96,2.45,22.1
2.348451852798462,-3.6,-21.86,-2.01,22.24
2.348712921142578,-6.93,-21.71,-0.69,22.79
2.3569698333740234,-7.83,-18.95,-0.56,20.51
2.366826057434082,-4.64,-12.89,-6.52,15.17
2.377466917037964,-3.08,-8.02,-12.83,15.44
2.386910915374756,-10.7,-8.06,-16.15,20.98
2.396904945373535,-28.13,-10.73,-13.33,32.92
2.4076080322265625,-45.17,-9.27,-0.26,46.11
2.4170918464660645,-38.39,-2.7,-0.08,38.48
2.445101737976074,-20.09,-2.77,-5.8,21.09
2.4453749656677246,-12.26,-5.09,-3.92,13.84
2.446729898452759,-11.09,-6.12,-4.81,13.54
2.456763744354248,-8.69,-4.67,-5.07,11.09
2.46671199798584,-2.26,4.15,4.71,6.67
2.4775338172912598,8.79,19.08,34.27,40.19
2.4873600006103516,18.46,32.31,38.26,53.37
2.4974448680877686,14.88,25.59,16.96,34.11
2.507680892944336,18.08,8.65,-46.8,50.91
2.5167739391326904,9.92,4.37,-73.63,74.42
2.5458617210388184,3.12,6.15,-23.15,24.15
2.5462937355041504,0.62,0.9,-3.53,3.69
2.546567916870117,-4.08,-2.44,0.4,4.77
2.556607723236084,-6.85,-3.02,5.45,9.25
2.5665860176086426,-7.38,-4.52,9.15,12.59
2.577225923538208,-6.98,-6.08,10.39,13.91
2.5865509510040283,-5.7,-6.45,9.48,12.8
2.5965027809143066,-3.64,-5.25,6.15,8.86
2.6073670387268066,-1.99,-2.2,2.28,3.74
2.6167099475860596,-1.24,0.8,-1.8,2.32
2.6477227210998535,-0.88,3.02,-6.44,7.16
2.6480140686035156,-0.93,4.47,-9.11,10.19
2.6483030319213867,-1.78,4.86,-7.83,9.38
2.6564278602600098,-1.61,1.74,-3.52,4.24
2.6664278507232666,-0.6,-0.86,0.05,1.04
2.677245855331421,0.47,-1.77,1.13,2.15
2.686405897140503,1.4,-1.54,0.84,2.24
2.6965417861938477,1.48,-0.09,-0.11,1.48
2.707329750061035,0.46,0.88,-1.18,1.54
2.7164859771728516,-0.48,0.74,-1.22,1.5
2.748870849609375,-0.4,0.01,-0.03,0.4
2.749159812927246,0.35,-0.46,1.27,1.39
2.7494468688964844,0.79,-0.61,1.74,2.0
2.756321907043457,0.83,-0.61,0.82,1.31
2.7663097381591797,0.76,-0.15,-0.45,0.89
2.777045726776123,0.97,0.24,-1.07,1.46
2.786252975463867,1.28,0.22,-0.97,1.62
2.7963688373565674,1.18,-0.21,-0.63,1.35
2.8072669506073,0.97,-0.15,-0.02,0.98
2.816382884979248,1.05,0.25,0.36,1.13
2.847761869430542,1.05,0.29,0.49,1.19
2.8480489253997803,1.1,0.05,0.69,1.29
2.8483338356018066,1.18,-0.07,1.09,1.6
2.8563098907470703,1.25,-0.07,1.6,2.03
2.866163730621338,1.78,-0.04,1.82,2.54
2.8768930435180664,2.52,0.46,1.3,2.87
2.8861169815063477,2.81,0.57,-0.15,2.87
2.8962149620056152,2.81,0.36,-0.64,2.9
2.9072327613830566,2.71,0.16,0.56,2.77
2.916257858276367,1.55,0.06,1.61,2.23
2.948148727416992,-0.84,0.72,1.77,2.08
2.9484379291534424,-2.58,0.95,0.68,2.83
2.9487247467041016,-2.74,0.94,-0.38,2.92
2.9560537338256836,-1.29,1.06,-0.21,1.68
2.966012954711914,0.72,1.01,0.46,1.32
2.9768409729003906,2.17,1.25,0.79,2.62
2.9863059520721436,1.76,1.88,1.77,3.12
2.99613094329834,0.22,1.21,1.71,2.1
3.0070419311523438,-0.74,1.06,1.25,1.79
3.016084909439087,-0.83,1.86,1.78,2.7
3.0492429733276367,0.34,4.2,3.54,5.5
3.0495479106903076,2.69,6.7,4.1,8.3
3.0498509407043457,5.26,6.64,1.18,8.55
3.055957794189453,6.96,7.28,-0.62,10.09
3.065847873687744,8.46,6.98,0.28,10.97
3.0767807960510254,9.37,4.51,1.88,10.56
3.0862159729003906,9.48,2.58,3.26,10.35
3.096059799194336,9.16,2.19,4.53,10.45
3.1068787574768066,8.76,2.66,4.63,10.25
3.115963935852051,7.7,4.76,3.66,9.76
3.1488089561462402,6.74,6.99,1.94,9.9
3.149096965789795,5.62,8.12,-0.99,9.92
3.149380922317505,3.36,8.81,-4.45,10.42
3.155850887298584,-0.51,10.75,-6.09,12.36
3.16576886177063,-3.68,12.23,-7.01,14.56
3.1766767501831055,-4.07,12.54,-5.19,14.16
3.1861348152160645,1.25,9.22,-1.3,9.39
3.1958370208740234,1.94,8.59,2.02,9.03
3.2067999839782715,-1.03,8.09,-1.57,8.3
3.215831756591797,2.88,9.28,-1.9,9.9
3.249145030975342,8.38,8.08,-0.8,11.66
3.2494568824768066,11.15,6.1,0.59,12.72
3.249763011932373,11.71,4.04,1.77,12.51
3.2555899620056152,10.51,2.19,2.77,11.08
3.2656168937683105,8.12,0.95,3.72,8.98
3.2764739990234375,5.84,-0.13,3.9,7.02
3.2856059074401855,3.99,-0.99,3.68,5.51
3.2956409454345703,2.56,-1.48,3.56,4.62
3.306534767150879,1.54,-1.6,3.09,3.8
3.3157010078430176,0.77,-1.56,2.32,2.89
3.3500027656555176,0.43,-1.7,1.64,2.4
3.350311756134033,0.47,-1.99,1.52,2.54
3.350618839263916,0.75,-2.76,1.69,3.32
3.355466842651367,1.45,-3.88,1.67,4.46
3.3654847145080566,2.23,-4.89,1.54,5.59
3.37624192237854,2.65,-5.7,1.54,6.47
3.3854990005493164,2.64,-6.38,1.82,7.14
3.3956449031829834,2.38,-7.03,2.1,7.71
3.406338930130005,2.02,-7.81,2.24,8.37
3.4154319763183594,1.51,-8.55,2.24,8.96
3.4488189220428467,0.77,-9.12,2.19,9.41
3.449110984802246,-0.19,-9.43,2.07,9.65
3.449396848678589,-1.44,-9.33,1.8,9.61
3.455232858657837,-2.92,-8.69,1.27,9.25
3.4652068614959717,-4.22,-7.44,0.33,8.55
3.476073741912842,-5.44,-5.81,-1.22,8.05
3.485304832458496,-6.85,-4.42,-3.85,9.01
3.495410919189453,-8.52,-2.65,-6.38,10.96
3.5062129497528076,-10.26,-0.11,-7.44,12.67
3.5154478549957275,-12.0,2.11,-7.91,14.52
3.54907488822937,-13.69,2.6,-8.78,16.47
3.5493669509887695,-15.34,2.11,-9.53,18.18
3.549654006958008,-16.5,2.04,-9.16,18.98
3.5551488399505615,-17.16,1.56,-8.04,19.01
3.565110921859741,-16.0,0.56,-6.32,17.21
3.5759057998657227,-12.17,0.3,-4.99,13.15
3.5852370262145996,-9.56,-0.14,-5.83,11.19
3.595247745513916,-8.62,-0.57,-7.06,11.15
3.606034755706787,-8.19,0.63,-6.27,10.33
3.615257740020752,-8.72,10.0,1.74,13.38
3.6488308906555176,-1.66,9.58,5.34,11.09
3.64912486076355,14.23,10.56,12.6,21.74
3.6494140625,21.52,14.41,14.52,29.69
3.6550369262695312,18.83,7.49,2.41,20.4
3.664933919906616,10.01,-2.53,-15.11,18.3
3.675710916519165,-0.75,0.13,-17.66,17.67
3.6849749088287354,-4.86,5.51,-5.18,8.98
3.6949849128723145,-6.99,4.52,2.1,8.58
3.7058520317077637,-10.41,1.04,1.15,10.52
3.7150368690490723,-10.43,-5.21,-5.65,12.95
3.749958038330078,-9.11,-2.93,-5.25,10.91
3.750246047973633,-6.31,1.7,-1.36,6.67
3.7505319118499756,-2.41,1.95,-2.05,3.71
3.754865884780884,0.49,1.11,-2.95,3.18
3.7648730278015137,1.97,1.39,-2.62,3.56
3.7756810188293457,1.88,2.31,-1.35,3.27
3.784904956817627,-0.21,1.38,-0.29,1.42
3.7949657440185547,-2.39,-0.17,0.48,2.44
3.805745840072632,-3.27,-0.68,1.71,3.75
3.8149847984313965,-3.17,-0.89,2.42,4.08
3.850242853164673,-1.89,-1.04,2.11,3.01
3.85054087638855,0.05,-0.69,1.0,1.21
3.850827932357788,1.15,0.02,0.09,1.15
3.8547568321228027,1.59,0.38,-0.79,1.81
3.8647308349609375,1.72,0.51,-1.74,2.49
3.8754658699035645,1.48,0.67,-2.04,2.6
3.8847780227661133,0.83,0.49,-1.42,1.71
3.894824981689453,0.2,0.08,-0.53,0.57
3.905470848083496,-0.17,-0.13,0.16,0.26
3.9147720336914062,-0.33,-0.14,0.41,0.54
3.950634002685547,-0.3,-0.13,0.54,0.63
3.95090389251709,-0.12,-0.2,0.54,0.58
3.9511878490448,0.09,-0.16,0.47,0.5
3.95458984375,0.09,-0.01,0.46,0.46
3.96457576751709,-0.08,0.06,0.27,0.28
3.9752938747406006,-0.05,-0.02,-0.11,0.12
3.9846508502960205,0.52,-0.08,-0.05,0.52
3.9946508407592773,1.6,-0.21,0.54,1.7
4.005387783050537,2.62,-0.49,1.07,2.87
4.014715909957886,3.21,-0.72,1.64,3.67
4.050996780395508,3.48,-0.76,2.08,4.12
4.05126690864563,3.34,-0.48,2.08,3.96
4.05155086517334,2.73,-0.18,1.15,2.96
4.054401874542236,1.78,0.07,-0.15,1.78
4.0644097328186035,0.71,0.36,-0.74,1.08
4.075187921524048,0.01,0.33,-0.73,0.8
4.084418773651123,0.21,0.0,0.0,0.21
4.094475746154785,1.07,-0.33,1.1,1.56
4.105198860168457,1.78,-0.5,1.81,2.58
4.114524841308594,2.06,-0.52,2.03,2.93
4.149551868438721,2.02,-0.28,1.82,2.73
4.149832725524902,1.42,0.43,1.22,1.92
4.150102853775024,0.07,1.81,-0.22,1.82
4.154240846633911,-0.52,2.01,-1.86,2.78
4.16425895690918,0.15,1.55,-1.63,2.25
4.174975872039795,1.48,1.79,0.38,2.35
4.184309005737305,3.33,3.37,1.34,4.92
4.194370746612549,4.3,5.17,2.59,7.2
4.205107927322388,4.5,6.96,3.83,9.13
4.2142839431762695,5.92,7.21,3.92,10.11
4.2505879402160645,7.18,6.96,4.27,10.87
4.250874042510986,7.72,7.8,5.41,12.23
4.251156806945801,8.41,8.44,5.49,13.11
4.2541069984436035,9.24,8.41,4.29,13.21
4.264153003692627,9.6,9.29,3.15,13.72
4.274916887283325,10.02,11.02,3.46,15.29
4.284203052520752,10.74,10.59,3.92,15.58
4.294204950332642,10.84,7.97,2.73,13.72
4.305164813995361,10.26,6.37,-0.38,12.08
4.314233779907227,6.92,6.96,-4.88,10.96
4.350860834121704,0.09,10.51,-7.43,12.87
4.3511528968811035,-6.29,12.99,-8.08,16.54
4.351438999176025,-9.35,12.92,-5.78,16.96
4.354168891906738,-4.47,8.34,-1.12,9.52
4.364049911499023,-1.61,5.16,2.94,6.15
4.374809741973877,-5.15,1.03,1.86,5.57
4.384008884429932,-2.7,1.51,2.45,3.94
4.394073963165283,4.11,3.32,3.78,6.49
4.4320597648620605,8.81,2.71,3.46,9.84
4.432326793670654,10.75,1.14,2.52,11.1
4.432590961456299,10.8,-0.56,2.35,11.06
4.4339070320129395,9.2,-1.35,3.4,9.9
4.443902015686035,6.61,-1.48,4.83,8.31
4.454158782958984,4.5,-1.73,4.98,6.93
4.4639058113098145,2.79,-1.85,4.97,5.99
4.4746458530426025,1.48,-1.92,4.93,5.49
4.48398494720459,0.5,-1.99,4.56,5.0
4.493994951248169,-0.18,-2.12,3.86,4.4
4.5336480140686035,-0.59,-2.27,3.12,3.9
4.5339179039001465,-0.76,-2.57,2.5,3.66
4.53418493270874,-0.4,-3.0,2.33,3.81
4.53445291519165,0.45,-3.68,2.45,4.44
4.543781757354736,1.51,-4.51,2.49,5.36
4.553743839263916,2.26,-5.15,2.5,6.15
4.563676834106445,2.11,-5.55,2.38,6.39
4.57443904876709,0.65,-5.7,1.95,6.05
4.583679914474487,-1.14,-5.99,1.0,6.17
4.593914985656738,-2.1,-6.32,0.3,6.66
4.634389877319336,-2.57,-6.36,0.57,6.88
4.634662866592407,-2.76,-6.39,1.13,7.05
4.634932041168213,-3.17,-6.29,0.84,7.09
4.635199069976807,-4.14,-5.55,-0.6,6.94
4.643687725067139,-5.27,-4.3,-2.84,7.37
4.653636932373047,-6.43,-2.93,-5.07,8.69
4.663635730743408,-7.8,-1.45,-6.51,10.26
4.674437046051025,-9.0,-0.55,-7.75,11.88
4.683610916137695,-9.99,0.1,-8.42,13.06
4.693662881851196,-10.96,0.66,-8.44,13.84
4.734065055847168,-11.55,0.49,-8.4,14.28
4.73433780670166,-11.61,-0.63,-8.6,14.46
4.734607934951782,-12.36,-1.24,-8.49,15.04
4.734874725341797,-13.27,-1.25,-8.53,15.82
4.743518829345703,-13.58,-1.36,-8.76,16.21
4.753462791442871,-13.46,-1.9,-8.85,16.22
4.76349401473999,-11.0,4.36,-4.88,12.79
4.7741618156433105,-7.34,9.55,-1.97,12.2
4.783488750457764,-1.83,5.46,2.49,6.27
4.793858051300049,13.67,14.95,19.09,27.83
4.833668947219849,19.12,16.06,17.61,30.55
4.833943843841553,13.38,3.57,-2.13,14.01
4.834215879440308,3.06,-4.68,-21.6,22.31
4.834485054016113,-6.51,1.39,-17.32,18.55
4.843284845352173,-9.19,5.2,-2.99,10.97
4.853311061859131,-10.84,3.34,1.25,11.41
4.863311767578125,-9.74,-2.95,-4.24,11.02
4.87400484085083,-7.84,-2.59,-5.25,9.78
4.883331775665283,-5.31,1.2,-3.04,6.23
4.893387794494629,-1.39,1.43,-4.12,4.57
4.933826923370361,1.37,0.91,-4.5,4.79
4.934471845626831,3.14,1.3,-3.63,4.97
4.9347357749938965,3.17,2.22,-1.72,4.23
4.934992790222168,0.74,1.39,-0.19,1.58
4.943155765533447,-2.08,-0.32,0.49,2.16
4.953091859817505,-3.85,-0.63,1.65,4.23
4.9631218910217285,-4.5,-0.48,2.33,5.09
4.973907947540283,-3.83,-0.66,2.15,4.44
4.983184814453125,-1.78,-0.87,1.27,2.35
4.9932029247283936,0.17,-0.4,0.43,0.61
5.004021883010864,1.36,0.02,-0.56,1.47
5.033936023712158,1.76,0.26,-1.75,2.49
5.034204006195068,1.42,0.57,-2.0,2.51
5.034463882446289,0.63,0.55,-1.62,1.82
5.043011903762817,-0.05,0.17,-0.75,0.77
5.053030014038086,-0.19,-0.17,0.16,0.3
5.063020944595337,0.09,-0.26,0.82,0.86
5.073795795440674,0.56,-0.27,1.15,1.3
5.0830628871917725,0.98,-0.28,1.11,1.5
5.0930259227752686,1.13,-0.21,0.65,1.32
5.103799819946289,0.75,-0.05,0.3,0.8
5.134500980377197,0.32,-0.01,0.21,0.38
5.134768962860107,0.2,-0.09,0.19,0.29
5.1350297927856445,0.31,-0.1,0.32,0.45
5.142816066741943,0.44,-0.1,0.32,0.55
5.152937889099121,0.44,-0.09,0.15,0.47
5.1628968715667725,0.51,-0.05,-0.1,0.52
5.173550844192505,0.97,0.03,-0.08,0.97
5.182920932769775,1.71,-0.05,0.44,1.76
5.192911863327026,2.36,-0.31,1.14,2.63
5.203735828399658,2.91,-0.46,1.81,3.45
5.234622955322266,3.21,-0.46,2.12,3.87
5.234886884689331,3.08,-0.4,2.01,3.69
5.23514986038208,2.6,-0.09,1.37,2.94
5.24272894859314,1.35,1.01,0.28,1.7
5.252854824066162,0.66,1.08,-1.11,1.68
5.262762069702148,1.1,0.38,-0.97,1.51
5.2732157707214355,1.72,-0.03,0.75,1.87
5.282826900482178,1.67,0.57,1.7,2.45
5.292812824249268,0.86,2.34,0.86,2.63
5.303550720214844,0.4,3.35,-1.01,3.52
5.334909915924072,0.88,3.64,-1.52,4.04
5.335173845291138,1.64,4.68,1.08,5.07
5.335430860519409,2.07,4.14,4.02,6.13
5.3425538539886475,3.21,5.4,5.52,8.36
5.352565765380859,4.92,6.97,5.24,10.01
5.36259388923645,6.53,7.31,3.86,10.53
5.373129844665527,7.41,8.21,3.44,11.58
5.3827290534973145,8.02,9.51,3.94,13.04
5.39262580871582,8.7,10.33,4.57,14.25
5.403439998626709,9.75,9.54,4.88,14.48
5.435939788818359,10.17,10.3,3.66,14.93
5.436203956604004,10.53,11.46,2.94,15.83
5.436462879180908,11.23,9.6,1.35,14.83
5.442410945892334,9.95,7.28,-3.8,12.9
5.452415943145752,2.54,7.75,-10.78,13.51
5.4624738693237305,-7.25,10.39,-13.5,18.51
5.47291374206543,-10.42,14.87,-8.52,20.05
5.4824419021606445,-5.55,12.67,-2.88,14.12
5.492461919784546,-0.52,6.82,0.86,6.89
5.503332853317261,-2.91,1.96,0.72,3.58
5.535965919494629,-2.5,0.3,1.26,2.81
5.5362279415130615,3.66,1.54,2.33,4.6
5.5364837646484375,8.61,1.93,2.29,9.11
5.542237758636475,11.27,1.02,1.14,11.37
5.552403926849365,12.34,-0.27,0.97,12.38
5.562273979187012,11.81,-1.24,2.1,12.05
5.5729289054870605,9.74,-1.84,3.7,10.58
5.582315921783447,7.31,-2.56,4.1,8.76
5.5923638343811035,4.92,-3.07,3.62,6.83
5.603147983551025,2.8,-3.26,3.24,5.38
5.635924816131592,1.21,-3.09,3.19,4.6
5.636192798614502,0.3,-2.67,3.14,4.13
5.636453866958618,0.11,-2.33,2.77,3.62
5.642133951187134,0.44,-2.21,2.14,3.1
5.652134895324707,0.88,-2.48,1.42,2.99
5.6621668338775635,1.06,-2.83,0.97,3.17
5.672909736633301,0.9,-2.94,0.89,3.2
5.682106018066406,0.5,-3.02,0.95,3.2
5.692168951034546,0.02,-3.55,0.88,3.65
5.702960968017578,-0.2,-4.27,0.84,4.35
5.736684799194336,-0.17,-4.68,1.05,4.79
5.736945867538452,0.14,-4.84,1.54,5.08
5.7372050285339355,0.6,-4.97,2.43,5.56
5.742094993591309,0.77,-4.78,3.02,5.7
5.752133846282959,0.14,-4.07,2.25,4.65
5.7621009349823,-2.38,-3.0,-0.07,3.83
5.773053884506226,-5.45,-2.39,-2.46,6.43
5.781996726989746,-7.53,-1.74,-3.67,8.55
5.791996002197266,-9.1,-0.73,-3.61,9.81
5.8027589321136475,-10.29,-0.11,-3.09,10.74
5.837028980255127,-11.18,-0.23,-3.31,11.66
5.837292909622192,-11.97,-0.79,-4.15,12.69
5.837553977966309,-12.32,-1.05,-4.29,13.08
5.841801881790161,-10.99,-1.53,-3.24,11.55
5.852049827575684,-8.54,-2.23,-2.01,9.05
5.861851930618286,-7.25,-2.67,-1.96,7.97
5.8728837966918945,-7.27,-2.7,-2.46,8.13
5.8818678855896,-8.32,-2.96,-3.59,9.53
5.891857862472534,-9.22,-3.09,-4.54,10.73
5.902673721313477,-9.21,-3.13,-4.61,10.76
5.936601877212524,-9.24,-3.57,-4.47,10.86
5.936864852905273,-9.45,0.23,-2.16,9.69
5.937123775482178,-9.28,4.59,-0.7,10.37
5.941748857498169,-6.77,-2.35,-5.42,8.98
5.951755046844482,8.26,16.96,10.85,21.76
5.962231874465942,15.21,26.59,13.46,33.45
5.972663879394531,5.38,11.94,-10.35,16.69
5.981859922409058,-6.36,1.3,-28.31,29.04
5.991745948791504,-10.87,4.07,-15.4,19.28
6.0025129318237305,-8.49,-0.51,-3.42,9.16
6.037494897842407,-6.8,-1.94,2.58,7.52
6.037759780883789,-6.07,-2.45,6.3,9.08
6.038022041320801,-6.3,-3.74,5.2,8.98
6.041565895080566,-6.01,-3.1,2.47,7.19
6.051552772521973,-3.91,-0.85,0.75,4.07
6.061605930328369,-0.95,0.51,-1.03,1.49
6.072488784790039,0.89,2.8,-2.75,4.02
6.081599950790405,1.96,3.25,-3.81,5.37
6.0916547775268555,2.14,0.96,-3.73,4.4
6.102277755737305,0.99,0.01,-2.12,2.33
6.1372199058532715,-1.14,0.09,0.05,1.14
6.137483835220337,-2.53,-0.54,0.71,2.68
6.137748718261719,-2.63,-0.92,0.49,2.82
6.1414549350738525,-1.63,-0.54,0.18,1.72
6.151515960693359,-0.34,0.01,0.05,0.34
6.1614089012146,0.43,0.35,0.02,0.55
6.172021865844727,0.54,0.14,-0.29,0.62
6.181426048278809,0.2,-0.02,-0.69,0.71
6.191380977630615,-0.12,0.04,-0.54,0.55
6.2021870613098145,-0.08,0.02,-0.1,0.12
6.238420009613037,0.34,-0.09,0.11,0.36
6.238694906234741,0.59,0.02,0.28,0.65
6.2392659187316895,0.56,0.14,0.45,0.73
6.241271018981934,0.55,0.04,0.27,0.61
6.25124192237854,0.8,0.02,0.12,0.8
6.26127290725708,1.11,0.15,0.23,1.14
6.271963834762573,1.34,0.19,0.16,1.36
6.2812700271606445,1.33,0.28,0.23,1.37
6.291285991668701,0.96,0.29,0.51,1.12
6.302036762237549,0.62,0.13,0.33,0.71
6.33774995803833,0.41,-0.12,0.56,0.7
6.338011741638184,0.63,-0.46,1.27,1.49
6.338268756866455,0.91,0.01,1.23,1.53
6.341125965118408,1.19,0.23,0.51,1.31
6.351081848144531,1.66,-0.27,0.25,1.7
6.361210823059082,1.74,-0.22,0.85,1.94
6.37183690071106,1.73,0.1,0.4,1.77
6.3811328411102295,1.49,0.38,0.38,1.58
6.391206741333008,1.33,0.51,0.35,1.46
6.401869773864746,1.56,0.23,0.6,1.68
6.438983917236328,1.67,0.34,1.86,2.52
6.439558982849121,1.56,0.86,1.83,2.55
6.439818859100342,1.42,1.78,0.57,2.34
6.441043853759766,2.0,3.06,-0.59,3.7
6.450986862182617,2.72,3.28,-0.24,4.26
6.460923910140991,2.88,3.33,1.91,4.79
6.471624851226807,3.69,3.63,3.21,6.09
6.481046915054321,4.47,4.58,3.32,7.2
6.491062879562378,5.31,5.76,3.06,8.41
6.501739978790283,6.66,7.43,3.22,10.48
6.538553714752197,8.21,8.61,3.3,12.34
6.538814067840576,9.24,9.5,3.54,13.71
6.539088726043701,9.74,10.27,4.11,14.73
6.54084587097168,9.42,10.61,5.27,15.13
6.550782918930054,9.95,9.82,7.11,15.68
6.560867786407471,10.87,10.27,5.76,16.02
6.571513891220093,11.69,9.8,4.47,15.89
6.580885887145996,11.26,7.6,0.11,13.58
6.590864896774292,6.56,7.35,-8.87,13.25
6.60156774520874,-2.48,11.68,-14.26,18.59
6.639397859573364,-8.96,17.19,-12.71,23.18
6.639665842056274,-8.69,17.94,-7.13,21.17
6.639925003051758,-1.65,10.34,-1.75,10.61
6.6406660079956055,0.02,5.35,1.11,5.46
6.650780916213989,-4.55,0.47,0.34,4.58
6.660776853561401,-3.19,0.47,2.29,3.95
6.671466827392578,3.34,2.4,3.75,5.56
6.680744886398315,8.47,1.98,3.1,9.23
6.690680980682373,11.02,0.81,2.02,11.23
6.7014570236206055,11.73,-0.71,1.85,11.89
6.740332841873169,10.97,-2.05,2.54,11.44
6.740598917007446,8.73,-3.02,3.75,9.96
6.740859031677246,6.14,-3.95,4.24,8.44
6.741119861602783,3.86,-4.31,4.27,7.19
6.750532865524292,1.99,-3.86,4.72,6.41
6.7605438232421875,0.61,-3.01,4.78,5.68
6.771167755126953,-0.32,-2.19,3.81,4.4
6.780526876449585,-0.68,-1.9,2.18,2.97
6.7905988693237305,-0.29,-1.95,1.11,2.26
6.8012309074401855,0.58,-2.21,0.96,2.47
6.84029483795166,1.29,-2.95,0.95,3.35
6.840554714202881,1.48,-3.8,0.87,4.16
6.840812921524048,1.23,-4.44,0.97,4.7
6.841070890426636,0.86,-4.97,1.34,5.21
6.850491046905518,0.73,-5.55,1.76,5.86
6.8605780601501465,1.0,-5.89,2.21,6.36
6.871028900146484,1.5,-5.95,2.75,6.72
6.880568027496338,1.44,-5.84,3.01,6.72
6.890316963195801,0.33,-5.23,2.32,5.73
6.9011640548706055,-2.21,-3.92,0.69,4.55
6.941259860992432,-5.6,-2.98,-1.25,6.46
6.941524028778076,-8.01,-2.53,-2.99,8.91
6.94178581237793,-9.22,-1.76,-4.06,10.22
6.9420459270477295,-9.42,-0.79,-4.47,10.45
6.950267791748047,-9.22,-0.19,-5.03,10.5
6.960289001464844,-9.18,-0.07,-5.84,10.88
6.970948934555054,-9.43,-0.55,-6.36,11.38
6.980254888534546,-10.1,-1.03,-6.26,11.92
6.990273952484131,-11.21,-1.16,-6.43,12.97
7.001011848449707,-12.74,-1.25,-7.42,14.79
7.040536880493164,-14.49,-0.86,-7.86,16.5
7.040802955627441,-15.67,-0.42,-7.2,17.25
7.041064739227295,-15.45,-1.26,-6.13,16.66
7.041322946548462,-13.64,-1.63,-4.84,14.56
7.050094842910767,-10.08,5.35,-0.94,11.45
7.060205936431885,-7.13,0.33,-6.82,9.87
7.0708558559417725,0.74,11.23,7.1,13.3
7.080134868621826,15.9,22.95,19.03,33.78
7.090306758880615,16.14,14.65,10.54,24.21
7.10094690322876,5.55,-0.73,-11.85,13.1
7.142350912094116,-4.14,-2.58,-22.08,22.61
7.142615795135498,-8.44,5.05,-9.31,13.54
7.142897844314575,-10.02,2.24,-2.78,10.63
7.1431779861450195,-11.65,-1.1,-0.65,11.71
7.149961948394775,-10.32,-1.22,3.03,10.82
7.159966945648193,-8.33,-1.94,2.85,9.01
7.170660972595215,-6.17,-1.83,0.3,6.44
7.179991722106934,-3.02,-0.37,-1.74,3.5
7.190249919891357,-0.55,2.04,-3.56,4.13
7.2007670402526855,1.45,3.24,-4.31,5.58
7.241768836975098,2.99,1.71,-3.15,4.66
7.242033958435059,3.02,0.26,-0.95,3.17
7.242293834686279,0.85,-0.02,0.61,1.04
7.242555856704712,-1.83,-0.24,0.15,1.85
7.2498228549957275,-3.25,-0.58,-0.34,3.31
7.259866714477539,-3.02,-0.71,-0.09,3.1
7.270460844039917,-1.66,-0.44,-0.02,1.71
7.279846906661987,-0.23,-0.07,-0.17,0.29
7.289878845214844,0.58,0.19,-0.6,0.85
7.300598859786987,0.64,0.24,-0.95,1.17
7.342223882675171,0.14,0.15,-0.8,0.82
7.342487812042236,-0.32,0.0,-0.27,0.41
7.342747926712036,-0.34,-0.12,0.14,0.38
7.34300684928894,-0.06,-0.17,0.25,0.3
7.349620819091797,0.19,-0.02,0.2,0.27
7.359768867492676,0.38,0.14,0.14,0.42
7.370481967926025,0.52,0.15,0.26,0.6
7.3797197341918945,0.68,0.09,0.47,0.83
7.389647006988525,0.79,0.05,0.55,0.96
7.400347948074341,0.87,0.1,0.54,1.02
7.442993879318237,0.85,0.09,0.48,0.98
7.4432549476623535,0.76,0.02,0.38,0.84
7.443513870239258,0.65,0.0,0.31,0.72
7.4437737464904785,0.5,0.11,0.41,0.65
7.449495792388916,0.47,0.08,0.66,0.81
7.459604740142822,0.55,-0.06,0.86,1.02
7.470177888870239,0.73,-0.17,0.94,1.2
7.479404926300049,1.03,-0.19,0.89,1.37
7.489555835723877,1.39,-0.15,0.62,1.52
7.500332832336426,1.72,0.05,0.58,1.81
7.542934894561768,2.29,0.07,0.0,2.29
7.543202877044678,4.0,-1.75,-0.34,4.37
7.543465852737427,4.58,-1.81,3.76,6.19
7.543721914291382,3.53,0.4,3.81,5.2
7.549400806427002,1.99,2.0,0.36,2.84
7.559347867965698,0.66,2.18,-2.39,3.3
7.5699498653411865,0.48,1.8,-2.47,3.09
7.579390048980713,0.68,2.5,-0.62,2.66
7.589541912078857,2.26,2.9,-0.05,3.67
7.6001598834991455,3.97,3.7,1.38,5.59
7.64307975769043,3.99,4.33,3.05,6.63
7.6433398723602295,3.88,5.04,3.57,7.29
7.643596887588501,4.22,6.67,3.68,8.7
7.643852949142456,5.89,7.44,3.22,10.02
7.6493659019470215,7.49,7.64,3.03,11.11
7.659246921539307,8.08,8.74,4.11,12.59
7.670011043548584,8.99,10.19,4.83,14.42
7.679275035858154,10.05,11.52,4.46,15.92
7.689274787902832,10.17,12.77,4.22,16.86
7.700112819671631,10.94,11.66,5.28,16.83
7.743666887283325,11.92,9.36,1.5,15.22
7.743929862976074,12.06,9.54,-0.91,15.4
7.744189739227295,8.78,8.72,-4.15,13.05
7.744447946548462,-0.96,8.61,-13.38,15.93
7.749402046203613,-9.57,12.6,-16.16,22.61
7.759062767028809,-10.95,17.46,-9.26,22.59
7.769697904586792,-4.67,11.12,-1.71,12.18
7.779132843017578,-3.73,4.73,1.03,6.11
7.789247035980225,-4.23,1.34,2.36,5.02
7.7998878955841064,1.87,1.91,3.91,4.73
7.843113899230957,8.03,2.25,4.3,9.38
7.843376874923706,11.37,1.24,2.79,11.77
7.843637943267822,12.44,-0.28,1.27,12.5
7.84389591217041,11.91,-1.44,1.14,12.05
7.848918914794922,9.57,-1.76,2.6,10.07
7.858978748321533,6.8,-2.32,2.82,7.71
7.869661808013916,4.27,-2.53,2.55,5.57
7.878890037536621,2.03,-2.42,2.82,4.23
7.8889548778533936,0.24,-2.49,3.27,4.11
7.8997979164123535,-0.74,-2.81,3.74,4.73
7.943700790405273,-0.17,-3.49,4.04,5.34
7.943964004516602,1.77,-4.21,4.01,6.07
7.9442219734191895,3.41,-4.38,3.75,6.69
7.944482803344727,3.71,-3.88,3.45,6.38
7.948911905288696,3.02,-3.32,2.75,5.26
7.958796977996826,2.31,-3.3,1.65,4.35
7.969456911087036,1.98,-3.43,1.26,4.15
7.9788148403167725,2.1,-4.04,1.67,4.84
7.988802909851074,2.63,-4.87,2.16,5.94
7.999608993530273,3.13,-4.85,2.66,6.35
8.044043064117432,2.92,-4.27,3.01,5.98
8.044307947158813,1.66,-3.76,2.67,4.9
8.044568061828613,-0.05,-3.43,0.79,3.52
8.044829845428467,-2.57,-3.13,-2.21,4.61
8.048823833465576,-5.34,-2.55,-4.76,7.59
8.05863094329834,-7.5,-1.24,-5.74,9.52
8.069293022155762,-9.27,-0.46,-5.91,11.0
8.078670024871826,-11.1,-0.66,-5.92,12.59
8.088696002960205,-12.19,-1.25,-5.77,13.54
8.099469900131226,-11.43,-1.05,-5.06,12.54
8.144299030303955,-10.63,-0.92,-5.67,12.08
8.144566059112549,-11.2,-0.52,-6.7,13.06
8.144824981689453,-12.37,0.13,-7.16,14.29
8.145086765289307,-14.21,0.16,-8.2,16.4
8.148551940917969,-16.99,-0.09,-8.95,19.2
8.158406734466553,-19.15,-0.54,-8.69,21.03
8.169195890426636,-19.74,-1.9,-7.82,21.31
8.17858600616455,-17.89,-3.73,-6.71,19.46
8.188655853271484,-14.13,0.76,-2.56,14.38
8.199296951293945,-10.71,2.11,-1.03,10.96
8.24412202835083,-0.64,3.89,3.56,5.31
8.244393825531006,17.05,18.06,16.02,29.55
8.244667053222656,23.58,19.11,13.87,33.37
8.244925022125244,17.84,7.12,-2.71,19.39
8.248335838317871,6.58,-1.34,-20.36,21.43
8.258420944213867,-3.96,2.32,-20.11,20.62
8.269021987915039,-8.02,0.82,-10.73,13.42
8.278409004211426,-11.45,0.3,-1.87,11.6
8.28835391998291,-13.01,-0.64,3.68,13.53
8.299232959747314,-12.78,-1.94,6.39,14.41
8.344054937362671,-11.57,-2.91,5.4,13.09
8.344323873519897,-8.37,-2.7,2.27,9.08
8.344583988189697,-3.56,0.18,-1.24,3.77
8.344840049743652,0.27,2.8,-3.6,4.56
8.348289966583252,3.64,2.44,-4.46,6.25
8.358345985412598,5.79,1.13,-3.78,7.0
8.368920803070068,5.04,0.83,-2.79,5.82
8.378196716308594,1.68,0.67,-1.95,2.65
8.388382911682129,-1.72,0.02,-0.92,1.95
8.399008750915527,-3.3,-1.02,0.5,3.49
8.444124937057495,-3.61,-1.07,2.01,4.26
8.44438886642456,-2.68,-0.98,2.03,3.5
8.444646835327148,-1.01,-0.55,0.29,1.18
8.444906949996948,0.36,0.34,-1.62,1.69
8.448055744171143,1.14,0.63,-1.87,2.27
8.458396911621094,1.19,0.33,-0.41,1.3
8.468857765197754,0.34,0.0,1.08,1.13
8.478103876113892,-0.57,-0.13,1.35,1.47
8.48810887336731,-0.74,-0.09,0.78,1.07
8.498909950256348,-0.12,-0.06,-0.07,0.15
8.544843912124634,0.69,0.19,-0.32,0.78
8.545109748840332,1.16,0.27,-0.06,1.19
8.545371055603027,1.12,0.16,0.66,1.3
8.545628070831299,1.0,-0.01,1.27,1.61
8.547930717468262,0.92,-0.08,1.4,1.67
8.55837893486023,0.99,0.01,1.09,1.47
8.568641901016235,1.1,0.02,0.59,1.24
8.577976942062378,1.14,-0.03,0.52,1.25
8.587908744812012,1.11,-0.03,0.83,1.38
8.598690032958984,1.09,-0.17,0.79,1.35
8.607943058013916,1.13,-0.05,0.61,1.28
8.645174026489258,1.29,0.34,0.46,1.41
8.6454598903656,1.61,0.52,0.49,1.76
8.64576005935669,1.86,0.43,0.52,1.97
8.64779281616211,1.86,0.5,0.81,2.08
8.657786846160889,1.62,0.5,0.89,1.91
8.6685209274292,1.4,0.65,0.25,1.56
8.677790880203247,2.88,-1.3,-2.04,3.76
8.687859058380127,5.53,-3.96,2.66,7.3
8.698585033416748,3.52,0.67,6.49,7.41
8.707759857177734,0.75,6.07,1.17,6.22
8.74427604675293,0.16,6.69,-2.96,7.31
8.744550943374634,-0.22,3.93,-4.1,5.68
8.744808912277222,1.38,2.74,-0.18,3.07
8.747842788696289,3.18,4.03,4.54,6.85
8.757876873016357,4.55,5.95,5.73,9.43
8.768321990966797,5.94,6.67,4.36,9.93
8.77764081954956,6.89,6.69,2.65,9.96
8.787668943405151,7.36,7.63,3.09,11.04
8.798491954803467,7.81,9.14,4.78,12.93
8.807826042175293,8.45,10.44,7.23,15.25
8.844274997711182,10.15,9.41,8.11,16.04
8.844538927078247,11.45,9.03,4.78,15.34
8.844799041748047,11.76,8.88,3.51,15.14
8.847441911697388,11.02,7.35,0.11,13.24
8.857508897781372,5.78,6.76,-7.92,11.9
8.868207931518555,-4.42,9.71,-12.55,16.47
8.877545833587646,-12.52,14.1,-10.31,21.49
8.88767671585083,-12.08,16.9,-4.36,21.22
8.898338794708252,-3.81,11.52,0.73,12.15
8.907550811767578,-0.64,5.94,2.24,6.38
8.944629907608032,-3.94,2.2,0.02,4.51
8.94489574432373,-0.78,4.14,0.31,4.22
8.94515585899353,5.98,5.39,0.01,8.05
8.947314739227295,10.51,4.55,-0.99,11.49
8.957223892211914,13.32,3.29,-1.05,13.76
8.968074798583984,14.44,1.75,0.3,14.54
8.977478981018066,13.32,0.19,2.41,13.53
8.987278938293457,10.46,-1.14,3.98,11.24
8.998225927352905,7.03,-2.29,4.57,8.69
9.00743579864502,3.96,-3.29,4.24,6.66
9.045387744903564,1.45,-3.66,4.36,5.87
9.045650005340576,-0.11,-3.52,4.87,6.0
9.04590892791748,-0.78,-3.34,4.64,5.77
9.047355890274048,-0.42,-3.02,3.59,4.71
9.057211875915527,0.75,-2.65,2.29,3.58
9.067907810211182,1.75,-2.52,1.5,3.41
9.077292919158936,2.02,-2.8,1.39,3.72
9.08726978302002,2.04,-3.42,1.73,4.34
9.097949981689453,1.93,-4.13,2.43,5.16
9.10722303390503,1.88,-4.85,3.01,6.0
9.145126819610596,1.81,-5.35,3.46,6.62
9.145390033721924,1.7,-5.66,3.65,6.94
9.145649909973145,1.49,-5.72,3.63,6.93
9.147254943847656,1.09,-5.18,3.72,6.46
9.15720796585083,0.15,-4.3,3.04,5.26
9.167823791503906,-1.69,-3.61,0.68,4.04
9.177168846130371,-3.61,-2.62,-1.78,4.8
9.18701696395874,-4.85,-1.11,-2.77,5.69
9.197865009307861,-5.53,-0.14,-3.31,6.44
9.207068920135498,-6.35,0.14,-4.06,7.53
9.245616912841797,-7.49,0.45,-5.1,9.07
9.24587893486023,-9.0,1.2,-6.82,11.35
9.246137857437134,-10.66,2.17,-8.5,13.8
9.246978759765625,-11.72,2.67,-9.71,15.45
9.257061958312988,-12.22,1.79,-11.13,16.62
9.267663955688477,-13.37,0.1,-12.27,18.14
9.276949882507324,-15.72,-1.26,-12.59,20.17
9.28693675994873,-17.97,-2.58,-12.03,21.77
9.297719955444336,-18.66,-3.65,-10.97,21.95
9.306976795196533,-15.01,2.65,-5.78,16.3
9.346678733825684,-9.75,1.26,-8.0,12.67
9.346948862075806,-5.4,3.07,-2.77,6.8
9.347210884094238,4.53,16.86,14.06,22.41
9.347473859786987,13.59,13.99,12.01,22.9
9.356721878051758,10.04,5.25,-3.26,11.78
9.367418766021729,-0.91,1.92,-16.43,16.56
9.376718044281006,-9.23,1.7,-14.93,17.63
9.386812925338745,-8.53,-0.43,-6.81,10.92
9.397504806518555,-6.98,-1.25,-1.16,7.18
9.406911849975586,-7.34,-1.76,1.88,7.77
9.4459547996521,-7.42,-1.16,2.55,7.93
9.44640588760376,-6.25,-0.24,1.24,6.37
9.446670055389404,-3.49,0.17,-1.34,3.74
9.446930885314941,-0.42,0.89,-2.68,2.85
9.456734895706177,1.87,1.36,-2.16,3.16
9.467282772064209,2.63,1.34,-1.29,3.22
9.476584911346436,1.48,0.88,-0.85,1.92
9.486660957336426,-0.55,0.48,-1.05,1.27
9.497337818145752,-1.68,0.06,-1.16,2.04
9.506820917129517,-1.86,-0.24,-0.69,1.99
9.54574990272522,-1.61,-0.38,-0.23,1.67
9.546216011047363,-1.23,-0.4,-0.28,1.32
9.546481847763062,-0.76,-0.16,-0.62,0.99
9.54674482345581,-0.24,0.06,-0.98,1.01
9.556853771209717,0.18,0.11,-0.83,0.85
9.567269802093506,0.18,0.09,-0.22,0.29
9.576502799987793,-0.07,-0.03,0.32,0.32
9.586538791656494,-0.27,-0.06,0.5,0.57
9.59719181060791,-0.37,-0.01,0.35,0.5
9.606534957885742,-0.27,0.03,0.07,0.28
9.646533966064453,-0.02,0.04,-0.06,0.07
9.646796941757202,0.22,0.03,0.0,0.22
9.647065877914429,0.46,-0.01,-0.14,0.48
9.648119926452637,0.63,0.08,-0.39,0.74
9.656340837478638,0.64,0.18,-0.52,0.84
9.666930913925171,0.52,0.2,-0.3,0.63
9.676656723022461,0.33,0.24,0.25,0.47
9.686370849609375,0.13,0.13,0.89,0.9
9.697021961212158,-0.01,-0.01,1.33,1.33
9.70666790008545,-0.01,-0.12,1.48,1.48
9.74677586555481,0.24,-0.27,1.45,1.49
9.747037887573242,0.78,-0.31,1.25,1.5
9.747296810150146,1.32,-0.23,0.96,1.64
9.747553825378418,1.73,-0.05,0.76,1.89
9.756251811981201,2.07,0.06,0.59,2.15
9.766855716705322,2.4,0.33,0.73,2.53
9.776522874832153,2.66,0.49,0.92,2.85
9.786201000213623,2.91,0.31,0.92,3.06
9.796957015991211,2.89,0.41,1.21,3.15
9.806405067443848,2.6,0.68,1.53,3.09
9.846460819244385,2.23,0.92,1.3,2.74
9.846721887588501,1.71,1.06,0.5,2.07
9.846981048583984,2.76,-0.99,-1.95,3.52
9.84723687171936,6.06,-5.09,2.1,8.18
9.856066942214966,4.23,-0.5,6.63,7.88
9.866776943206787,0.41,6.55,1.12,6.65
9.87642788887024,-0.99,8.46,-2.94,9.01
9.88611388206482,-0.85,4.35,-4.72,6.47
9.896752834320068,1.26,3.59,0.55,3.84
9.906272888183594,3.96,6.05,5.85,9.3
9.946833848953247,6.25,7.2,6.73,11.67
9.947098731994629,7.75,7.23,5.4,11.89
9.9473557472229,8.18,7.85,3.97,12.01
9.947612762451172,8.43,9.48,4.42,13.43
9.955877780914307,8.97,11.35,6.42,15.82
9.966716766357422,9.66,11.92,8.69,17.63
9.976093769073486,10.67,9.13,6.62,15.52
9.985969066619873,10.96,7.56,2.43,13.53
9.996634006500244,10.78,7.17,0.44,12.95
10.00611400604248,6.63,6.79,-8.13,12.49
10.046823978424072,-4.26,9.58,-14.6,17.97
10.047086715698242,-12.46,15.35,-10.99,22.61
10.047347068786621,-12.34,17.89,-4.69,22.23
10.047605991363525,-5.58,11.35,0.46,12.65
10.055935859680176,-2.39,5.39,1.98,6.21
10.066462993621826,-4.57,0.74,-0.66,4.67
10.075824737548828,-1.2,2.33,1.23,2.89
10.085776805877686,5.71,3.59,1.63,6.93
10.096452951431274,10.3,2.82,0.59,10.69
10.105885028839111,13.02,1.21,-0.33,13.08
10.147280931472778,14.15,-0.31,0.33,14.15
10.147543907165527,13.78,-1.49,2.19,14.03
10.147807836532593,11.98,-2.71,3.99,12.91
10.14806604385376,9.18,-3.75,5.05,11.12
10.155590057373047,5.99,-4.39,5.24,9.08
10.16630506515503,3.24,-4.56,4.89,7.42
10.175720930099487,1.34,-3.99,4.77,6.36
10.185678958892822,0.38,-3.14,4.04,5.13
10.196325778961182,0.25,-2.7,2.97,4.02
10.205659866333008,0.79,-2.73,2.02,3.48
10.246671915054321,1.87,-2.82,1.84,3.85
10.24693489074707,2.45,-3.47,1.83,4.62
10.247192859649658,2.89,-4.11,1.14,5.15
10.24744987487793,2.88,-4.27,2.23,5.61
10.255527973175049,2.58,-4.64,2.06,5.69
10.266209840774536,1.93,-4.96,1.99,5.68
10.275506973266602,1.35,-4.89,2.26,5.55
10.285536766052246,0.47,-4.8,2.71,5.53
10.296287059783936,-0.67,-4.59,2.62,5.32
10.305534839630127,-1.86,-3.93,1.31,4.54
10.346827030181885,-3.39,-3.08,-1.02,4.69
10.347102880477905,-5.36,-1.96,-3.03,6.46
10.347362041473389,-7.48,-0.49,-4.28,8.63
10.347623825073242,-9.31,1.05,-4.92,10.58
10.355392932891846,-10.34,2.33,-5.14,11.77
10.366017818450928,-10.96,2.8,-6.04,12.82
10.375383853912354,-11.83,2.64,-8.02,14.53
10.385348796844482,-12.83,2.42,-9.27,16.01
10.396074771881104,-13.94,1.57,-9.35,16.85
10.40536093711853,-15.67,0.19,-9.6,18.37
10.446996927261353,-17.09,-0.91,-9.42,19.53
10.447269916534424,-17.28,-1.56,-8.12,19.15
10.447532892227173,-14.33,4.33,-3.71,15.42
10.447792053222656,-14.46,-0.36,-7.23,16.17
10.455134868621826,-15.22,-7.59,-10.22,19.84
10.465775966644287,-1.78,6.8,7.94,10.6
10.475587844848633,14.85,15.9,13.67,25.69
10.485215902328491,18.4,14.22,3.69,23.54
10.495896816253662,9.71,4.48,-13.26,17.03
10.505201816558838,-4.54,3.18,-17.62,18.47
10.547229766845703,-10.66,-0.69,-14.04,17.64
10.547492980957031,-11.48,-2.43,-8.43,14.44
10.547755718231201,-10.65,0.08,0.09,10.65
10.548017024993896,-8.68,0.48,5.13,10.09
10.555026054382324,-6.66,-1.25,4.83,8.32
10.565755844116211,-4.34,-2.29,1.42,5.1
10.575095891952515,-1.54,-0.54,-0.9,1.86
10.585088729858398,0.67,1.26,-2.32,2.72
10.595766067504883,2.0,2.35,-3.67,4.79
10.605113983154297,2.49,1.78,-3.43,4.59
10.647987842559814,1.49,0.64,-1.88,2.48
10.648254871368408,-0.17,-0.03,-0.18,0.24
10.648513793945312,-1.33,-0.58,0.31,1.48
10.648770809173584,-1.96,-0.65,0.48,2.12
10.654859066009521,-1.73,-0.47,0.28,1.81
10.66558289527893,-0.74,-0.18,-0.27,0.8
10.67492389678955,0.16,0.07,-0.57,0.59
10.684947967529297,0.52,0.09,-0.41,0.66
10.695575714111328,0.38,0.04,-0.07,0.38
10.704896926879883,-0.02,-0.02,0.04,0.04
10.748236894607544,-0.3,0.03,0.16,0.34
10.748499870300293,-0.35,0.07,0.27,0.44
10.748759746551514,-0.28,0.02,0.19,0.33
10.749016761779785,-0.12,0.08,0.12,0.18
10.754798889160156,0.14,0.09,0.08,0.18
10.765554904937744,0.46,0.06,-0.03,0.46
10.774715900421143,0.66,0.06,0.04,0.66
10.78480577468872,0.68,0.03,0.23,0.71
10.795347929000854,0.6,0.02,0.32,0.68
10.80479383468628,0.47,0.07,0.29,0.55
10.84788990020752,0.4,0.12,0.54,0.68
10.848151922225952,0.46,0.1,0.95,1.06
10.848410844802856,0.64,-0.07,1.27,1.42
10.848673820495605,0.92,-0.19,1.36,1.65
10.854668855667114,1.39,-0.3,1.4,1.99
10.865378856658936,2.12,-0.38,1.35,2.54
10.874650955200195,2.75,-0.08,1.21,3.0
10.88466191291809,3.08,0.17,0.79,3.18
10.895278930664062,2.9,0.57,0.41,2.98
10.904695987701416,2.49,0.84,0.33,2.64
10.948056936264038,1.89,0.92,0.41,2.14
10.948317050933838,1.54,0.77,0.44,1.77
10.948572874069214,1.5,0.64,0.53,1.71
10.948812007904053,1.52,0.64,0.79,1.82
10.954432964324951,1.54,0.88,1.05,2.06
10.96514081954956,1.62,1.24,1.08,2.3
10.974458932876587,1.8,1.72,0.71,2.58
10.984508037567139,1.95,2.98,0.64,3.61
10.995237827301025,2.59,3.77,0.63,4.61
11.004530906677246,3.27,4.1,1.4,5.42
11.047975063323975,3.95,5.96,3.34,7.89
11.048234939575195,5.38,6.77,4.62,9.8
11.048492908477783,7.48,6.54,4.77,11.02
11.048749923706055,8.92,7.37,5.66,12.88
11.054298877716064,10.26,8.08,6.22,14.46
11.065059900283813,11.07,9.41,7.5,16.35
11.074371814727783,10.97,11.29,7.81,17.57
11.084365844726562,11.13,11.69,3.81,16.58
11.130414962768555,11.87,9.2,0.38,15.02
11.130677938461304,11.25,6.53,-0.98,13.04
11.130940914154053,8.61,5.87,-4.9,11.51
11.131196975708008,1.57,7.95,-9.99,12.86
11.134172916412354,-7.81,11.76,-11.63,18.29
11.14434003829956,-13.91,15.71,-8.42,22.6
11.154289722442627,-10.78,13.35,-2.52,17.34
11.164943933486938,-3.54,6.84,2.89,8.22
11.174186944961548,-3.98,1.47,1.02,4.36
11.18421983718872,-3.22,0.75,1.13,3.49
11.231910943984985,3.12,2.94,2.31,4.86
11.232173919677734,8.11,2.77,1.6,8.71
11.232435941696167,10.94,1.55,0.43,11.05
11.232698917388916,12.15,-0.07,0.12,12.15
11.234110832214355,11.66,-1.46,1.07,11.79
11.2443208694458,9.52,-2.43,2.76,10.2
11.254111766815186,6.55,-3.25,3.85,8.26
11.264713764190674,3.94,-3.96,3.92,6.82
11.274093866348267,1.86,-4.06,4.29,6.19
11.284164905548096,0.5,-3.78,4.96,6.25
11.331847906112671,0.01,-3.68,4.96,6.17
11.33211374282837,0.58,-3.76,3.99,5.51
11.332376956939697,1.84,-3.74,3.16,5.23
11.332632064819336,2.84,-3.7,2.98,5.53
11.333940029144287,3.44,-3.88,2.86,5.92
11.34391188621521,3.78,-3.99,2.81,6.17
11.353968858718872,4.05,-4.05,2.83,6.38
11.364614009857178,4.07,-4.21,2.79,6.48
11.373961925506592,3.33,-4.44,2.57,6.11
11.38394284248352,1.9,-4.94,1.98,5.65
11.431398868560791,0.52,-5.24,1.67,5.52
11.431665897369385,-0.17,-4.98,2.33,5.5
11.431910991668701,-0.17,-4.99,2.86,5.75
11.432167053222656,-0.25,-5.03,2.09,5.45
11.433809757232666,-1.66,-4.09,-0.05,4.41
11.443864822387695,-4.08,-2.9,-3.28,5.98
11.453887939453125,-6.53,-1.34,-5.52,8.65
11.464519023895264,-8.69,1.64,-6.67,11.07
11.473902940750122,-10.02,4.14,-7.56,13.21
11.483868837356567,-10.05,3.53,-8.63,13.7
11.53136682510376,-9.62,2.58,-9.12,13.5
11.531633853912354,-9.91,2.88,-8.53,13.38
11.531898021697998,-11.11,2.7,-8.56,14.28
11.532156944274902,-12.54,2.55,-8.59,15.41
11.533645868301392,-14.65,2.24,-9.47,17.58
11.543549060821533,-17.7,0.79,-11.46,21.1
11.553630828857422,-17.74,4.09,-9.51,20.53
11.564341068267822,-13.73,2.52,-8.24,16.2
11.573704719543457,-13.28,-5.68,-10.51,17.86
11.5836820602417,-2.72,5.66,5.27,8.19
11.630551815032959,13.39,16.06,17.67,27.37
11.631695747375488,17.34,12.71,17.5,27.72
11.631962776184082,9.85,1.89,3.81,10.72
11.632226943969727,-0.92,-4.66,-9.8,10.89
11.633496761322021,-10.09,-1.99,-10.46,14.66
11.643535852432251,-11.51,2.74,-2.04,12.0
11.653503894805908,-11.11,3.56,1.49,11.76
11.664212942123413,-10.24,-1.61,-3.89,11.07
11.673545837402344,-5.89,-0.72,-6.37,8.7
11.683575868606567,-2.33,1.58,-4.51,5.31
11.694225788116455,-0.03,2.27,-4.73,5.24
11.731319904327393,0.77,1.87,-5.26,5.63
11.73158884048462,1.12,1.34,-4.19,4.53
11.731849908828735,1.01,0.93,-1.97,2.4
11.733359813690186,-0.08,0.31,0.46,0.56
11.743326902389526,-1.63,-0.41,2.34,2.88
11.753391742706299,-3.03,-0.8,3.05,4.37
11.764127731323242,-3.87,-0.48,2.64,4.7
11.77338981628418,-3.29,-0.02,0.69,3.36
11.783427715301514,-1.47,-0.01,-1.09,1.83
11.794158935546875,-0.08,0.27,-1.32,1.34
11.831450939178467,0.55,0.44,-1.04,1.25
11.831713914871216,0.61,0.19,-0.96,1.15
11.831975936889648,0.24,-0.01,-1.35,1.37
11.83317494392395,-0.33,0.06,-1.67,1.7
11.843158721923828,-0.57,0.1,-1.32,1.44
11.853190898895264,-0.51,0.02,-0.43,0.66
11.863932847976685,-0.39,-0.08,0.29,0.49
11.873243808746338,-0.37,-0.06,0.59,0.69
11.883264064788818,-0.5,-0.05,0.63,0.8
11.893947839736938,-0.47,-0.04,0.52,0.7
11.932273864746094,-0.31,0.02,0.41,0.51
11.932544946670532,0.0,0.02,0.19,0.19
11.932978868484497,0.24,0.08,-0.01,0.25
11.933238983154297,0.37,0.16,-0.07,0.4
11.943094730377197,0.48,0.19,0.21,0.55
11.953104972839355,0.65,0.08,0.76,1.0
11.963744878768921,0.85,-0.27,1.19,1.48
11.973107814788818,1.22,-0.5,1.63,2.09
11.983152866363525,1.98,-0.53,2.14,2.96
11.993796825408936,2.95,-0.45,2.18,3.69
12.033109903335571,3.52,-0.15,1.53,3.84
12.033371925354004,3.39,0.39,0.72,3.48
12.033632755279541,2.72,0.82,0.01,2.84
12.033890724182129,1.71,0.73,-0.63,1.96
12.042940855026245,0.96,0.52,-0.64,1.26
12.052958011627197,0.78,0.24,0.14,0.82
12.063497066497803,0.89,0.38,1.34,1.65
12.072951793670654,1.15,0.53,1.91,2.29
12.082942008972168,1.35,0.7,1.51,2.14
12.093654870986938,1.24,0.78,0.6,1.58
12.133416891098022,1.19,0.9,-0.37,1.53
12.133687973022461,1.12,1.23,-1.21,2.05
12.13395094871521,1.33,1.94,-1.24,2.65
12.134214878082275,2.23,3.03,-0.59,3.8
12.14284086227417,3.25,3.88,0.82,5.12
12.152795791625977,3.75,5.53,3.15,7.38
12.163280963897705,4.59,6.38,5.13,9.38
12.172783851623535,6.04,5.65,5.42,9.88
12.182812929153442,7.25,6.08,5.61,11.0
12.193553924560547,8.5,6.93,6.18,12.58
12.233317852020264,10.01,8.07,5.44,13.96
12.233582973480225,11.54,8.76,5.19,15.38
12.23384690284729,10.95,10.43,7.35,16.81
12.234104871749878,8.92,12.69,6.51,16.82
12.24272894859314,8.72,9.76,2.79,13.38
12.252647876739502,9.05,6.62,-0.39,11.21
12.263125896453857,7.17,6.7,-5.13,11.07
12.27265191078186,0.89,9.88,-9.79,13.93
12.282643795013428,-7.31,13.69,-10.15,18.54
12.293351888656616,-11.08,16.35,-6.25,20.71
12.33383584022522,-6.1,12.88,-1.52,14.33
12.334102869033813,-0.58,7.52,1.91,7.78
12.334367752075195,-3.18,2.74,-0.87,4.28
12.334624767303467,-3.76,2.51,-1.4,4.73
12.342687845230103,2.68,4.87,-0.48,5.57
12.352547883987427,8.63,4.01,-0.8,9.54
12.363231897354126,12.37,2.47,-0.79,12.63
12.372642040252686,14.24,0.88,0.12,14.26
12.38256287574768,14.25,-0.6,1.61,14.35
12.393229961395264,12.44,-1.79,3.18,12.96
12.434141874313354,9.1,-2.44,4.54,10.45
12.434406757354736,6.03,-3.14,4.59,8.2
12.434674739837646,3.61,-3.23,4.69,6.74
12.434931755065918,1.85,-2.92,5.04,6.11
12.442317008972168,0.76,-2.83,4.7,5.53
12.452335834503174,0.35,-2.84,3.67,4.65
12.463273048400879,0.69,-2.86,2.34,3.75
12.472516059875488,1.5,-3.0,1.47,3.66
12.482370853424072,2.09,-3.26,1.26,4.07
12.49312686920166,2.38,-3.86,1.5,4.77
12.534689903259277,2.56,-4.7,1.89,5.67
12.53495192527771,2.5,-5.43,2.15,6.35
12.535216808319092,1.96,-6.02,2.16,6.68
12.535472869873047,1.09,-6.54,1.8,6.87
12.542322874069214,0.15,-6.9,1.18,7.0
12.552127838134766,-0.78,-6.9,0.91,7.0
12.563096046447754,-1.66,-6.6,0.97,6.87
12.572123050689697,-2.45,-6.18,0.4,6.65
12.582273006439209,-3.32,-5.62,-1.33,6.66
12.593026876449585,-4.51,-4.59,-3.47,7.31
12.635227918624878,-6.13,-3.18,-4.92,8.47
12.635495901107788,-8.1,-1.48,-6.13,10.26
12.635756015777588,-10.48,0.86,-7.54,12.93
12.63601303100586,-12.52,3.8,-9.14,15.96
12.642070770263672,-12.73,4.41,-9.81,16.66
12.652092933654785,-12.48,2.73,-9.83,16.11
12.663064002990723,-13.67,2.49,-9.86,17.03
12.672064781188965,-15.9,3.01,-10.42,19.24
12.682040929794312,-18.04,2.35,-10.96,21.23
12.692783832550049,-18.37,2.79,-10.12,21.15
12.735568046569824,-13.68,6.45,-6.65,16.52
12.73583698272705,-11.74,-4.06,-11.43,16.88
12.736096858978271,-1.93,6.39,5.36,8.56
12.736355781555176,14.64,18.16,20.09,30.78
12.742043018341064,17.61,13.91,17.52,28.47
12.751935958862305,9.32,0.98,-0.12,9.37
12.762853860855103,-1.73,-4.12,-15.34,15.97
12.77194881439209,-10.03,0.97,-12.75,16.25
12.781956911087036,-13.34,1.71,-4.92,14.32
12.792726993560791,-15.31,0.56,-1.78,15.42
12.835327863693237,-13.73,-0.01,0.51,13.73
12.835590839385986,-9.16,-0.1,-0.13,9.16
12.835850715637207,-4.89,0.78,-2.27,5.44
12.836107730865479,-1.51,0.76,-3.42,3.81
12.84177303314209,1.52,0.74,-4.08,4.41
12.851686954498291,3.6,1.42,-3.96,5.53
12.8628089427948,3.96,1.65,-2.7,5.06
12.871778964996338,1.72,0.93,-1.1,2.24
12.881846904754639,-1.28,0.16,-0.13,1.29
12.892584800720215,-3.14,-0.52,0.7,3.25
12.93671703338623,-3.58,-0.92,1.1,3.85
12.936978816986084,-2.9,-0.82,1.24,3.25
12.937237739562988,-1.37,-0.32,0.75,1.59
12.937509059906006,0.05,0.17,-0.19,0.25
12.941590785980225,0.87,0.37,-1.06,1.42
12.951602935791016,1.33,0.35,-1.22,1.83
12.962256908416748,1.41,0.16,-1.13,1.81
12.971643924713135,1.16,-0.05,-1.32,1.75
12.981619834899902,0.57,0.02,-1.01,1.15
12.992440938949585,-0.06,0.13,0.04,0.14
13.036359786987305,-0.62,0.07,1.33,1.46
13.036623001098633,-0.88,-0.12,2.05,2.23
13.036882877349854,-0.78,-0.16,1.81,1.97
13.037140846252441,-0.17,-0.05,0.87,0.88
13.041560888290405,0.91,0.07,0.08,0.91
13.051575899124146,1.95,0.23,0.06,1.96
13.062114715576172,2.63,0.24,0.6,2.7
13.07148790359497,2.66,0.21,1.36,2.99
13.081515789031982,2.3,0.03,1.81,2.92
13.092221736907959,1.72,-0.01,1.77,2.46
13.137269973754883,0.96,-0.01,1.28,1.6
13.137529850006104,0.5,0.06,0.81,0.95
13.137788772583008,0.53,0.44,0.44,0.81
13.138044834136963,0.8,0.9,0.15,1.21
13.14136791229248,1.31,0.7,-0.18,1.49
13.151341915130615,1.67,0.41,0.27,1.74
13.161908864974976,1.83,0.61,1.39,2.37
13.171365737915039,1.91,1.13,1.89,2.91
13.181333065032959,2.08,2.07,1.58,3.33
13.192080974578857,2.48,2.22,1.01,3.47
13.236763954162598,2.8,2.35,0.98,3.78
13.237027883529663,3.41,2.84,1.52,4.69
13.237283945083618,3.91,2.93,2.13,5.33
13.237541913986206,4.43,3.21,2.2,5.89
13.241106986999512,4.43,4.13,2.88,6.7
13.251227855682373,4.83,5.16,3.64,7.95
13.26190185546875,6.25,6.94,4.35,10.3
13.271131992340088,8.23,8.5,5.44,13.02
13.281140804290771,10.21,9.39,6.44,15.29
13.292012929916382,11.93,10.39,8.0,17.72
13.337506771087646,11.92,12.68,10.05,20.09
13.337770938873291,11.08,14.92,7.72,20.12
13.338031768798828,12.03,11.43,1.81,16.69
13.3382887840271,10.92,7.15,-5.04,13.99
13.341062068939209,5.1,7.85,-12.16,15.34
13.351166725158691,-4.89,13.12,-14.07,19.84
13.361584901809692,-12.3,18.59,-9.61,24.27
13.371149063110352,-12.41,18.03,-3.76,22.2
13.381107807159424,-5.73,9.44,0.86,11.07
13.391912937164307,-4.15,3.76,0.43,5.61
13.437634944915771,-5.25,-0.35,-0.8,5.32
13.437898874282837,-0.28,1.83,2.82,3.37
13.43815803527832,6.56,2.7,3.99,8.13
13.438416004180908,10.67,1.74,3.67,11.41
13.440898895263672,12.67,0.14,2.76,12.96
13.450852870941162,13.18,-1.44,2.14,13.43
13.461411952972412,12.48,-2.53,2.56,12.98
13.47080683708191,10.63,-3.0,4.11,11.78
13.480818748474121,8.05,-2.79,5.35,10.06
13.491519927978516,5.85,-2.45,5.03,8.09
13.538233757019043,3.94,-1.91,4.28,6.12
13.538495063781738,2.33,-1.6,3.63,4.6
13.538753032684326,1.16,-1.71,2.88,3.54
13.539008855819702,0.45,-2.05,2.42,3.2
13.540653944015503,0.32,-2.38,2.43,3.41
13.550644874572754,0.31,-2.63,2.57,3.69
13.561203002929688,0.24,-3.02,2.59,3.98
13.570604801177979,0.29,-3.44,2.54,4.28
13.580590724945068,0.8,-4.12,2.17,4.72
13.591458797454834,1.97,-4.52,1.88,5.27
13.63920783996582,2.56,-4.28,1.88,5.32
13.639467716217041,1.01,-4.16,1.81,4.64
13.63973093032837,-1.69,-4.3,0.83,4.69
13.63998794555664,-3.76,-3.93,-0.94,5.51
13.640629768371582,-5.35,-3.29,-2.89,6.91
13.650688886642456,-7.16,-2.55,-4.5,8.83
13.661273002624512,-9.25,-1.68,-5.36,10.82
13.670619010925293,-10.85,-0.71,-5.39,12.13
13.680595874786377,-11.69,0.13,-5.8,13.05
13.69142484664917,-12.08,0.65,-7.71,14.34
13.740324974060059,-12.26,1.6,-9.67,15.69
13.740587949752808,-12.21,2.44,-9.98,15.95
13.740849018096924,-11.78,0.93,-9.62,15.23
13.741100788116455,-11.98,-0.86,-9.37,15.23
13.741363048553467,-13.15,-1.72,-10.17,16.71
13.750582933425903,-14.78,-2.35,-11.4,18.81
13.761111736297607,-16.76,-3.45,-12.02,20.91
13.770555019378662,-16.56,-1.7,-8.92,18.88
13.78079891204834,-13.03,5.52,-2.95,14.45
13.791316032409668,-8.65,0.63,-3.77,9.45
13.83981990814209,5.77,12.74,12.04,18.45
13.840249061584473,18.11,17.03,20.59,32.27
13.840511798858643,15.94,8.94,11.59,21.64
13.840774059295654,6.68,-3.74,-8.56,11.48
13.841030836105347,-2.06,-5.67,-19.83,20.72
13.850295066833496,-6.86,3.64,-11.05,13.5
13.860893726348877,-9.75,4.76,-5.53,12.17
13.870312929153442,-13.13,2.55,-5.4,14.42
13.880707740783691,-12.2,2.0,-1.56,12.46
13.891165733337402,-8.51,-0.24,-0.36,8.52
13.940262794494629,-5.06,-1.16,-1.07,5.3
13.94052791595459,-2.47,-0.64,-1.58,3.0
13.94078779220581,-0.13,0.06,-2.59,2.59
13.94105577468872,1.45,1.36,-3.0,3.59
13.94131088256836,1.72,2.94,-2.8,4.4
13.950253009796143,0.8,1.65,-2.24,2.89
13.960896015167236,-0.66,-0.26,-0.84,1.09
13.970217943191528,-1.96,-0.64,0.62,2.15
13.980669021606445,-2.66,-0.5,1.47,3.08
13.991031885147095,-2.48,-0.37,1.86,3.12
14.041111946105957,-1.72,-0.66,1.29,2.24
14.04137372970581,-0.71,-0.47,0.05,0.85
14.04163384437561,0.3,0.17,-0.84,0.9
14.041890859603882,1.1,0.45,-1.12,1.63
14.042150020599365,1.38,0.32,-0.96,1.71
14.050008773803711,1.13,0.08,-0.76,1.36
14.060792922973633,0.79,0.04,-0.72,1.06
14.070104837417603,0.47,0.16,-0.64,0.81
14.080041885375977,0.22,0.13,-0.35,0.43
14.090787887573242,0.11,0.03,0.17,0.2
14.142324924468994,0.13,-0.05,0.72,0.73
14.142584800720215,0.36,-0.1,1.03,1.09
14.14284896850586,0.69,0.0,1.1,1.29
14.143103837966919,0.91,0.09,0.82,1.22
14.143357753753662,1.02,0.12,0.39,1.09
14.149845838546753,0.99,0.21,0.28,1.05
14.160631895065308,0.84,0.2,0.47,0.98
14.169930934906006,0.58,0.1,0.73,0.93
14.179908752441406,0.38,-0.05,0.98,1.05
14.190725803375244,0.3,-0.25,0.98,1.05
14.241451740264893,0.32,-0.15,0.79,0.86
14.241716861724854,0.34,0.18,0.52,0.64
14.241972923278809,0.44,0.36,0.07,0.57
14.242230892181396,0.66,0.37,-0.14,0.76
14.242485046386719,0.91,0.39,0.33,1.04
14.249789714813232,1.23,0.45,1.27,1.82
14.26043701171875,1.61,0.16,1.92,2.51
14.269791841506958,1.87,0.54,2.84,3.44
14.279760837554932,1.96,0.93,2.76,3.51
14.29042387008667,2.02,1.18,1.62,2.84
14.342285871505737,2.26,1.62,0.12,2.78
14.34254789352417,3.66,1.32,-1.32,4.1
14.342806816101074,6.55,-1.29,1.3,6.8
14.34306287765503,6.1,1.94,5.18,8.23
14.343317985534668,3.14,7.02,2.33,8.03
14.349616050720215,1.59,6.84,-0.71,7.05
14.360353946685791,1.42,4.52,-0.8,4.8
14.36962080001831,3.47,5.97,3.13,7.58
14.37969183921814,5.98,7.49,5.63,11.11
14.390321731567383,7.86,8.4,6.11,13.02
14.442402839660645,9.1,9.75,6.2,14.7
14.442666053771973,10.16,10.82,7.82,16.77
14.442925930023193,11.61,10.85,7.83,17.71
14.443184852600098,12.69,11.04,6.41,18.0
14.44344687461853,12.74,8.55,6.22,16.55
14.44942593574524,10.19,6.29,0.39,11.98
14.460103988647461,1.99,6.59,-10.6,12.63
14.469403743743896,-9.4,11.63,-14.43,20.78
14.4794340133667,-13.16,18.89,-7.28,24.14
14.490143775939941,-9.87,17.72,-1.1,20.31
14.542908906936646,-1.85,9.66,3.25,10.35
14.543169975280762,-0.29,4.74,2.14,5.2
14.54342794418335,-4.5,-0.2,-2.58,5.19
14.543684959411621,-3.25,2.15,-0.3,3.9
14.543941020965576,2.61,5.48,1.55,6.26
14.549434900283813,7.84,4.62,0.49,9.11
14.559972763061523,11.44,2.74,0.46,11.77
14.569249868392944,13.2,0.79,1.08,13.26
14.579314947128296,13.13,-0.79,2.16,13.32
14.590075969696045,11.6,-2.18,3.01,12.18
14.644052982330322,8.79,-3.02,3.52,9.93
14.644314765930176,5.61,-3.26,3.57,7.4
14.64457893371582,3.41,-3.11,3.64,5.87
14.644836902618408,1.78,-2.74,4.27,5.37
14.64509892463684,0.5,-2.85,4.39,5.25
14.649189949035645,-0.04,-3.36,3.84,5.1
14.659788846969604,0.22,-3.72,2.97,4.76
14.669130802154541,0.93,-3.79,2.05,4.4
14.679127931594849,1.75,-3.73,1.41,4.35
14.68994688987732,2.48,-3.93,0.96,4.74
14.744061946868896,3.01,-4.52,0.91,5.5
14.74432373046875,3.11,-5.09,1.49,6.14
14.744580745697021,2.49,-5.6,2.19,6.5
14.744837760925293,1.4,-6.02,2.31,6.59
14.74509572982788,0.0,-5.99,2.13,6.35
14.748993873596191,-1.28,-5.43,1.75,5.84
14.75967788696289,-2.3,-4.78,0.86,5.37
14.769021987915039,-3.27,-4.18,-0.62,5.34
14.779009819030762,-4.69,-3.34,-2.58,6.3
14.789768934249878,-6.74,-2.21,-4.89,8.61
14.844679832458496,-9.28,-0.46,-7.02,11.64
14.84494686126709,-12.19,2.4,-8.98,15.32
14.845207929611206,-14.23,5.18,-10.22,18.26
14.84546685218811,-13.74,3.18,-10.08,17.33
14.845722913742065,-13.15,0.64,-9.03,15.96
14.8488450050354,-13.65,0.63,-8.01,15.83
14.8595609664917,-15.2,1.38,-8.91,17.67
14.868870735168457,-16.53,0.58,-10.59,19.63
14.878905773162842,-16.22,-0.46,-10.65,19.4
14.889556884765625,-12.02,7.33,-4.35,14.73
14.944864749908447,-11.13,0.38,-8.32,13.9
14.945133924484253,-10.91,-4.99,-8.95,14.96
14.945397853851318,2.19,9.34,11.06,14.64
14.945661067962646,15.61,14.22,18.11,27.81
14.945920944213867,16.29,9.09,8.29,20.41
14.948689937591553,9.6,-0.68,-11.29,14.83
14.959324836730957,-0.45,0.64,-18.64,18.65
14.96873688697815,-7.55,4.55,-12.89,15.61
14.978705883026123,-11.19,0.64,-10.81,15.57
14.989497900009155,-12.5,1.48,-6.18,14.02
15.044819831848145,-11.61,2.28,0.57,11.84
15.045085906982422,-10.28,-0.01,1.23,10.35
15.045346736907959,-7.3,-1.52,0.5,7.47
15.04560375213623,-3.09,-1.12,-0.45,3.31
15.045859813690186,0.12,0.27,-1.43,1.46
15.04846477508545,1.88,1.4,-2.13,3.16
15.0591459274292,2.15,2.09,-2.19,3.71
15.068544864654541,0.69,1.1,-1.25,1.8
15.078750848770142,-1.08,0.01,0.13,1.08
15.08934497833252,-1.97,-0.46,1.05,2.27
15.14497995376587,-2.23,-0.6,0.8,2.44
15.145246028900146,-1.55,-0.44,0.23,1.62
15.14551591873169,-0.37,-0.17,-0.26,0.48
15.145776748657227,0.48,0.0,-0.63,0.79
15.146045923233032,1.02,-0.02,-0.98,1.41
15.148651838302612,1.34,-0.01,-1.06,1.7
15.15903377532959,1.53,0.05,-0.74,1.7
15.168707847595215,1.41,0.02,-0.04,1.41
15.178447723388672,0.95,-0.14,0.38,1.03
15.189091920852661,0.41,-0.17,0.41,0.6
15.24510383605957,-0.14,0.06,0.36,0.39
15.24536395072937,-0.3,0.19,0.07,0.36
15.245620727539062,0.03,0.16,0.05,0.17
15.245875835418701,0.52,0.09,0.28,0.59
15.246133804321289,0.9,0.05,0.66,1.11
15.248583793640137,1.21,0.06,0.86,1.48
15.258859872817993,1.3,0.05,0.82,1.53
15.268308877944946,1.21,0.01,0.7,1.39
15.27845287322998,1.15,0.03,0.83,1.41
15.288942813873291,1.06,0.03,0.91,1.39
15.344835758209229,0.79,-0.03,0.78,1.11
15.345098972320557,0.38,0.1,0.5,0.63
15.345359802246094,0.11,0.18,0.09,0.22
15.345616817474365,0.2,0.22,-0.23,0.37
15.345877885818481,0.71,0.34,-0.27,0.83
15.348109722137451,1.34,0.53,-0.02,1.44
15.358880043029785,2.05,0.36,0.23,2.09
15.36816692352295,2.37,0.32,0.94,2.56
15.378357887268066,2.42,0.65,1.83,3.1
15.388805866241455,2.11,1.09,1.93,3.06
15.398162841796875,2.2,0.55,0.3,2.28
15.444740772247314,3.83,-2.54,0.84,4.67
15.445005893707275,3.91,-1.1,4.35,5.95
15.445263862609863,1.48,4.64,2.86,5.64
15.445521831512451,0.12,6.71,-0.48,6.72
15.447999000549316,0.18,4.29,-2.14,4.79
15.458652973175049,1.57,2.74,0.4,3.18
15.468262910842896,3.6,2.66,4.18,6.12
15.478003978729248,4.71,4.29,5.56,8.45
15.488714933395386,5.59,6.12,4.77,9.56
15.498031854629517,6.62,7.11,2.98,10.16
15.545437812805176,7.7,8.31,2.79,11.66
15.545703887939453,8.92,10.52,5.1,14.7
15.545968055725098,10.19,11.52,7.67,17.18
15.546230792999268,11.85,9.52,7.08,16.76
15.54783582687378,13.1,9.6,4.24,16.78
15.5585618019104,13.51,8.77,3.63,16.51
15.567970752716064,11.55,6.77,-2.12,13.55
15.577833890914917,4.68,6.66,-12.1,14.58
15.588716983795166,-6.24,12.31,-14.9,20.3
15.598054885864258,-11.92,19.05,-9.25,24.3
15.645482063293457,-11.24,18.6,-4.41,22.17
15.645748853683472,-4.13,10.17,0.03,10.97
15.646016836166382,-0.96,5.37,1.53,5.66
15.646275043487549,-4.87,-0.04,-2.1,5.3
15.647751808166504,-5.25,-0.27,0.82,5.32
15.65835690498352,0.33,2.88,3.53,4.56
15.667777061462402,6.24,2.3,2.57,7.12
15.67772388458252,9.83,0.56,1.57,9.97
15.688488960266113,11.58,-1.1,1.21,11.69
15.697712898254395,11.99,-2.45,1.28,12.3
15.745783805847168,11.17,-3.75,1.47,11.87
15.746047973632812,9.43,-4.65,2.27,10.75
15.746304988861084,6.85,-4.51,3.91,9.08
15.746561050415039,4.78,-4.03,4.74,7.84
15.747574806213379,3.02,-3.45,4.92,6.72
15.758217811584473,1.77,-3.28,4.25,5.65
15.767634868621826,1.25,-3.42,3.12,4.79
15.777620792388916,1.19,-3.67,2.72,4.72
15.788346767425537,1.77,-3.61,2.43,4.69
15.797669887542725,1.92,-3.71,2.57,4.9
15.846483945846558,2.31,-4.38,0.39,4.96
15.846771717071533,2.64,-4.35,1.02,5.18
15.847198963165283,2.76,-4.9,1.64,5.85
15.847463846206665,2.53,-5.64,1.85,6.45
15.84771990776062,1.92,-5.9,2.07,6.54
15.858037948608398,0.96,-5.56,2.12,6.02
15.867492914199829,-0.19,-5.02,2.28,5.51
15.877425909042358,-0.97,-4.52,2.19,5.11
15.88814401626587,-1.59,-3.95,0.94,4.36
15.897449016571045,-2.9,-3.06,-1.53,4.48
15.946372032165527,-5.29,-1.44,-3.69,6.6
15.946663856506348,-8.21,1.04,-5.13,9.73
15.947113990783691,-10.78,3.68,-6.5,13.11
15.947376728057861,-13.14,6.82,-8.37,17.0
15.947638034820557,-14.21,6.93,-9.78,18.59
15.957911968231201,-13.58,3.91,-9.48,17.01
15.967325925827026,-13.08,2.7,-7.74,15.43
15.977282047271729,-13.34,1.87,-7.39,15.36
15.988000869750977,-14.31,0.77,-8.85,16.84
15.997282981872559,-15.62,-0.78,-10.81,19.01
16.047311782836914,-15.89,-1.29,-10.19,18.92
16.047579765319824,-13.64,3.58,-4.99,14.95
16.047842979431152,-13.71,-4.15,-9.29,17.07
16.048099040985107,-8.92,-3.13,-3.74,10.16
16.04835605621338,6.02,10.57,12.38,17.35
16.057718753814697,17.21,13.24,18.27,28.37
16.067165851593018,16.63,7.54,11.57,21.61
16.07724380493164,8.56,0.27,-2.99,9.07
16.08777379989624,-3.04,-1.53,-18.73,19.03
16.097146034240723,-11.74,-4.46,-26.63,29.44
16.14860987663269,-11.2,7.57,-9.06,16.27
16.148880004882812,-10.21,10.9,1.68,15.02
16.14946985244751,-10.17,1.19,2.76,10.6
16.149731874465942,-7.19,-4.87,0.77,8.71
16.149993896484375,-4.41,-4.8,0.12,6.51
16.157550811767578,-1.35,-1.45,1.23,2.33
16.166916847229004,0.9,1.19,0.36,1.53
16.176965951919556,1.82,1.97,-1.48,3.06
16.18768072128296,1.66,1.61,-2.4,3.33
16.19701385498047,0.36,1.59,-2.41,2.9
16.248097896575928,-0.88,0.95,-1.79,2.2
16.248358726501465,-1.39,-0.46,-1.1,1.83
16.24862003326416,-1.71,-0.68,-0.23,1.85
16.24887990951538,-1.82,-0.23,0.39,1.87
16.249484062194824,-1.43,-0.16,0.29,1.46
16.25748586654663,-0.8,-0.07,-0.37,0.88
16.26679491996765,-0.17,0.13,-1.02,1.04
16.276870727539062,0.4,0.18,-1.51,1.57
16.287474870681763,0.75,0.19,-1.33,1.53
16.297006845474243,0.72,0.12,-0.32,0.79
16.34852695465088,0.19,-0.02,0.67,0.69
16.348788738250732,-0.42,-0.13,1.01,1.1
16.34905195236206,-0.65,-0.19,0.81,1.05
16.349632740020752,-0.46,-0.13,0.44,0.64
16.349891901016235,0.01,0.08,0.25,0.26
16.357348918914795,0.41,0.15,0.21,0.48
16.3666729927063,0.67,0.04,0.05,0.67
16.37671995162964,0.81,0.09,-0.08,0.81
16.38736391067505,0.87,0.09,-0.11,0.88
16.396771907806396,0.88,0.06,0.15,0.89
16.448651790618896,0.8,0.09,0.78,1.12
16.448915004730225,0.59,-0.03,1.34,1.46
16.449179887771606,0.37,-0.2,1.54,1.59
16.449784755706787,0.53,-0.28,1.18,1.32
16.450046062469482,0.85,-0.17,0.63,1.07
16.457175731658936,1.16,0.05,0.36,1.21
16.466715812683105,1.61,0.28,0.26,1.65
16.476553916931152,2.1,0.35,0.46,2.17
16.487157821655273,2.53,0.28,0.7,2.63
16.496524810791016,3.29,-0.84,1.08,3.56
16.548996925354004,3.48,-0.92,2.98,4.67
16.549266815185547,3.07,-0.01,2.45,3.92
16.549867868423462,2.79,0.41,1.3,3.1
16.55012583732605,1.8,1.27,0.73,2.32
16.55038285255432,0.54,2.75,-0.42,2.83
16.55703091621399,0.61,3.36,-0.36,3.43
16.566651821136475,1.11,3.21,-0.14,3.39
16.57641887664795,1.91,3.31,1.13,3.98
16.587042808532715,2.77,3.46,1.73,4.75
16.596515893936157,3.6,3.55,2.21,5.51
16.649466037750244,4.2,3.78,2.67,6.24
16.650052070617676,4.72,5.45,3.84,8.16
16.650311946868896,5.57,7.49,4.86,10.52
16.650571823120117,6.6,8.54,5.0,11.89
16.65084195137024,7.59,9.54,5.71,13.46
16.65689706802368,8.81,11.23,7.56,16.15
16.666700839996338,10.62,11.34,9.67,18.29
16.67625904083252,12.45,9.55,6.78,17.09
16.68691086769104,13.7,8.8,5.17,17.08
16.696269035339355,13.28,7.3,3.19,15.48
16.750106811523438,8.21,5.35,-6.97,12.02
16.750370025634766,-3.25,7.67,-15.91,17.95
16.750635862350464,-11.88,15.4,-12.26,22.99
16.75092601776123,-12.26,20.01,-5.1,24.01
16.751183032989502,-6.0,13.8,0.08,15.04
16.756834983825684,0.5,6.67,2.86,7.27
16.76622772216797,-1.72,1.35,-1.04,2.42
16.776110887527466,-4.73,-1.56,-1.81,5.29
16.786736011505127,-1.16,1.78,2.45,3.24
16.79613184928894,4.68,3.04,2.86,6.27
16.851001739501953,9.44,1.58,1.75,9.72
16.85126781463623,12.13,-0.03,1.53,12.22
16.85152578353882,13.05,-1.49,2.05,13.29
16.851783752441406,12.58,-2.67,2.98,13.2
16.85204291343689,10.93,-3.48,3.86,12.1
16.85653305053711,8.21,-3.44,4.62,10.02
16.866013050079346,5.85,-3.01,4.37,7.89
16.875974893569946,3.85,-2.5,3.84,5.98
16.88665199279785,2.02,-2.39,3.49,4.68
16.89604091644287,0.64,-2.56,3.27,4.2
16.95159101486206,-0.19,-2.84,3.27,4.33
16.951865911483765,-0.34,-3.25,2.98,4.42
16.952126026153564,0.02,-3.46,2.38,4.19
16.952385902404785,0.79,-3.53,1.76,4.02
16.952646732330322,1.73,-3.77,1.32,4.35
16.95642900466919,2.76,-3.95,1.14,4.95
16.96580696105957,3.47,-3.85,1.27,5.33
16.975928783416748,2.93,-3.59,1.49,4.86
16.986423015594482,0.75,-3.36,1.5,3.75
16.995855808258057,-1.26,-3.09,0.33,3.35
17.05193591117859,-2.69,-2.38,-1.72,3.98
17.052202939987183,-4.53,-1.59,-4.2,6.37
17.0524640083313,-7.22,-0.79,-6.26,9.58
17.052724838256836,-9.85,0.31,-7.14,12.16
17.052985906600952,-11.41,1.73,-6.68,13.33
17.056269884109497,-11.73,2.17,-6.91,13.78
17.065598964691162,-11.43,1.56,-8.71,14.45
17.07565689086914,-11.25,1.63,-9.54,14.84
17.086257934570312,-11.69,1.3,-9.92,15.38
17.095694065093994,-13.29,0.21,-11.12,17.32
17.153162002563477,-15.99,-1.05,-12.54,20.34
17.153425931930542,-18.29,-2.49,-12.6,22.34
17.15368390083313,-18.46,-2.37,-9.38,20.84
17.153945922851562,-15.49,3.24,-3.56,16.22
17.15421199798584,-13.83,-3.52,-8.4,16.55
17.15608787536621,-8.12,-0.9,-1.83,8.37
17.16559386253357,5.11,14.52,16.47,22.54
17.175501823425293,15.16,14.03,18.73,27.88
17.186176776885986,12.27,4.99,7.01,14.98
17.195685863494873,2.16,-1.41,-11.07,11.36
17.253041744232178,-8.61,-1.08,-20.28,22.05
17.253307819366455,-12.07,0.15,-15.24,19.44
17.2535719871521,-9.77,5.37,-4.31,11.95
17.25383472442627,-8.33,3.5,1.5,9.15
17.254092931747437,-6.14,-1.34,1.37,6.43
17.256053924560547,-4.09,-2.64,-0.06,4.86
17.265370845794678,-2.64,-0.29,-1.57,3.08
17.275383949279785,-0.48,1.38,-3.05,3.38
17.286037921905518,1.24,0.97,-2.57,3.01
17.29539203643799,1.94,0.91,-0.83,2.29
17.354498863220215,1.56,0.82,0.29,1.78
17.35477876663208,0.16,0.47,-0.54,0.73
17.355220794677734,-0.99,0.19,-1.54,1.84
17.355478763580322,-1.47,-0.01,-1.43,2.05
17.355734825134277,-1.59,-0.24,-0.51,1.68
17.356505870819092,-1.56,-0.27,0.45,1.64
17.365071773529053,-1.26,-0.36,0.91,1.59
17.375196933746338,-0.87,-0.2,0.75,1.16
17.385963916778564,-0.39,0.01,0.03,0.39
17.395294904708862,-0.02,0.07,-0.89,0.89
17.455158948898315,0.41,0.12,-1.1,1.18
17.45542001724243,0.75,0.18,-0.43,0.88
17.45565891265869,0.75,0.16,0.44,0.88
17.455924034118652,0.46,0.06,0.84,0.95
17.456166744232178,0.09,0.06,0.75,0.75
17.456926822662354,-0.14,0.06,0.3,0.33
17.4652738571167,-0.06,0.02,0.13,0.14
17.475154876708984,0.23,0.12,0.35,0.43
17.485756874084473,0.65,0.22,0.56,0.88
17.495056867599487,0.95,0.2,0.51,1.09
17.55506181716919,1.18,0.22,0.42,1.27
17.555325031280518,1.2,0.19,0.45,1.29
17.55558490753174,0.92,0.15,0.72,1.17
17.555840015411377,0.54,0.1,0.98,1.12
17.556105852127075,0.27,-0.12,0.84,0.89
17.556884765625,0.18,-0.13,0.32,0.38
17.564973831176758,0.34,0.0,-0.28,0.44
17.5749409198761,0.61,0.28,-0.5,0.83
17.585495948791504,0.89,0.59,-0.17,1.08
17.594928741455078,1.09,0.65,0.38,1.32
17.654905796051025,1.29,0.42,0.85,1.6
17.655165910720825,1.44,0.5,1.55,2.17
17.65542984008789,1.63,0.84,1.41,2.31
17.65568494796753,2.82,-0.6,0.59,2.94
17.655946731567383,3.99,-1.41,3.71,5.62
17.656720876693726,2.38,1.89,3.35,4.52
17.664801836013794,0.72,3.96,-0.04,4.02
17.674795866012573,0.1,3.23,-1.72,3.66
17.685271739959717,0.58,2.22,-1.29,2.63
17.694934844970703,2.37,1.78,1.28,3.22
17.755149841308594,3.71,1.75,2.76,4.94
17.755411863327026,3.99,2.06,2.52,5.14
17.75567102432251,3.93,2.99,2.24,5.42
17.75592589378357,4.33,5.04,3.13,7.34
17.75619077682495,5.41,7.09,3.97,9.76
17.75693988800049,6.58,7.87,4.0,11.01
17.76462697982788,7.48,8.89,5.21,12.73
17.774699926376343,8.58,9.84,7.85,15.23
17.78527593612671,10.03,9.0,8.16,15.75
17.794654846191406,10.81,9.43,6.25,15.64
17.856049060821533,10.6,8.26,5.74,14.61
17.856313943862915,8.54,6.05,0.81,10.49
17.85657286643982,2.19,5.88,-9.28,11.2
17.85684299468994,-7.93,10.81,-13.5,19.02
17.857104778289795,-14.01,17.51,-8.58,24.01
17.85789203643799,-12.92,18.38,-3.26,22.7
17.86461091041565,-4.66,11.34,0.82,12.28
17.874570846557617,0.37,5.35,0.72,5.41
17.885375022888184,-2.54,0.72,-3.33,4.24
17.89455485343933,-3.62,1.0,-1.61,4.08
17.957018852233887,1.5,4.89,1.7,5.39
17.957282066345215,6.82,4.56,0.88,8.25
17.95754384994507,10.53,2.79,-0.06,10.89
17.95780372619629,12.44,1.07,0.13,12.48
17.95807385444641,12.64,-0.62,1.38,12.73
17.958849906921387,10.99,-1.92,3.07,11.57
17.96433401107788,8.1,-2.87,4.24,9.58
17.974387884140015,5.35,-3.68,4.43,7.86
18.03982973098755,3.18,-4.0,4.72,6.95
18.04009199142456,1.7,-3.85,5.39,6.83
18.040352821350098,0.84,-3.68,5.58,6.73
18.04060983657837,0.72,-3.83,4.69,6.09
18.040865898132324,1.45,-3.74,3.31,5.2
18.04112482070923,2.48,-3.45,2.34,4.85
18.044233798980713,3.18,-3.46,1.68,4.99
18.054906845092773,3.51,-3.7,1.42,5.29
18.06443190574646,3.62,-4.16,1.44,5.69
18.074289798736572,3.38,-4.45,1.69,5.83
18.140928745269775,2.59,-4.87,1.72,5.77
18.14123296737671,1.56,-5.33,1.42,5.73
18.14153790473938,0.78,-5.19,1.53,5.46
18.14183783531189,0.12,-5.02,1.73,5.31
18.14212393760681,-0.63,-5.1,1.17,5.27
18.142417907714844,-1.15,-4.76,-0.57,4.93
18.144173860549927,-1.62,-3.58,-2.78,4.81
18.15471601486206,-2.97,-1.93,-4.26,5.54
18.164113998413086,-4.97,-0.28,-5.43,7.36
18.17408800125122,-7.34,1.54,-6.91,10.19
18.241714000701904,-9.36,3.11,-8.24,12.85
18.241976737976074,-9.94,2.98,-9.11,13.8
18.242238998413086,-8.15,1.22,-8.61,11.91
18.242498874664307,-6.67,0.6,-6.16,9.09
18.242759943008423,-8.97,0.42,-6.96,11.36
18.243016719818115,-11.9,0.01,-10.0,15.54
18.244006872177124,-14.19,0.33,-11.32,18.15
18.254491806030273,-15.96,-0.28,-10.82,19.28
18.263938903808594,-15.95,-2.38,-9.57,18.75
18.273850917816162,-12.45,0.49,-5.21,13.5
18.34187388420105,-6.94,4.92,-2.78,8.94
18.342137813568115,-5.61,-1.82,-8.14,10.05
18.342397928237915,0.0,8.06,6.2,10.16
18.34265685081482,9.18,15.11,18.52,25.6
18.342915058135986,9.71,7.93,15.49,19.92
18.343201875686646,1.62,-1.96,-0.32,2.56
18.343876838684082,-6.91,-4.36,-12.86,15.23
18.354514837265015,-11.29,2.43,-11.93,16.6
18.363898754119873,-10.78,3.96,-8.42,14.24
18.373860836029053,-7.76,4.52,-4.45,10.02
18.384531021118164,-4.05,0.74,-2.88,5.02
18.44202184677124,-1.18,-1.51,-3.64,4.11
18.44228982925415,-0.72,-0.3,-4.06,4.13
18.44255304336548,-1.2,1.59,-4.44,4.86
18.442811965942383,-0.94,1.4,-3.65,4.02
18.44308090209961,-0.31,0.52,-1.42,1.54
18.443583965301514,0.21,0.38,0.7,0.82
18.454243898391724,0.14,0.15,2.03,2.04
18.463668823242188,-1.34,0.04,1.59,2.07
18.473673820495605,-2.74,0.3,-0.19,2.76
18.48440194129944,-2.47,0.26,-0.87,2.63
18.542691946029663,-1.58,-0.15,0.06,1.58
18.542975902557373,-0.91,-0.35,0.79,1.25
18.54341173171997,-0.56,-0.2,0.6,0.84
18.543673992156982,-0.18,-0.11,-0.31,0.37
18.543930053710938,0.21,0.06,-1.39,1.4
18.544188976287842,0.65,0.27,-1.64,1.78
18.5542209148407,0.93,0.25,-0.89,1.31
18.563511848449707,0.74,0.1,0.17,0.76
18.573566913604736,0.26,0.01,1.11,1.14
18.584251880645752,-0.25,-0.07,1.4,1.42
18.64356279373169,-0.47,-0.09,0.87,0.99
18.6438250541687,-0.27,0.01,0.0,0.27
18.644096851348877,0.11,0.11,-0.35,0.38
18.644352912902832,0.68,0.2,-0.18,0.73
18.64461088180542,1.22,0.18,0.22,1.25
18.64486598968506,1.6,0.16,0.62,1.72
18.653964042663574,1.59,0.13,0.77,1.77
18.663392066955566,1.15,0.14,0.73,1.36
18.67344379425049,0.71,0.07,0.66,0.97
18.6840078830719,0.59,0.04,0.56,0.81
18.743634939193726,0.68,-0.09,0.34,0.76
18.743897914886475,0.8,-0.01,0.3,0.85
18.744155883789062,0.87,0.28,0.38,0.98
18.74441385269165,0.95,0.53,0.28,1.12
18.74467182159424,1.06,0.64,0.29,1.27
18.744931936264038,1.21,0.57,0.41,1.39
18.753844738006592,1.22,0.5,0.77,1.52
18.76325488090515,1.04,0.6,1.02,1.57
18.773261070251465,0.98,0.67,1.11,1.62
18.783907890319824,1.13,0.97,1.39,2.03
18.843132972717285,1.72,1.78,1.74,3.02
18.84339189529419,2.41,1.85,1.84,3.55
18.84364891052246,2.76,1.83,1.68,3.71
18.8439040184021,3.14,2.23,1.16,4.02
18.84415888786316,3.21,2.38,0.88,4.09
18.844411849975586,3.03,2.73,1.36,4.29
18.85357689857483,3.04,3.76,2.46,5.42
18.86308479309082,4.18,5.56,3.09,7.61
18.87308406829834,6.49,6.56,2.91,9.67
18.88381290435791,8.52,6.58,3.17,11.22
18.944267749786377,9.52,7.11,4.38,12.66
18.944527864456177,9.61,7.6,5.7,13.51
18.94478487968445,8.95,8.22,6.33,13.7
18.945042848587036,8.2,10.68,6.25,14.84
18.945299863815308,8.85,11.1,4.62,14.92
18.94555377960205,9.77,8.38,0.96,12.9
18.953430891036987,8.25,6.59,-3.76,11.2
18.963045835494995,2.07,7.31,-10.79,13.19
18.973025798797607,-6.88,11.49,-12.47,18.29
18.983665943145752,-10.81,16.33,-7.38,20.92
19.044792890548706,-7.98,14.45,-2.31,16.66
19.04505491256714,-1.67,7.33,1.9,7.75
19.04531478881836,-1.91,2.93,1.55,3.82
19.04557180404663,-5.24,-0.15,0.12,5.24
19.045828819274902,-1.27,3.04,2.12,3.91
19.04608392715454,5.2,3.95,1.27,6.65
19.05316400527954,9.45,2.43,-0.53,9.77
19.062721729278564,12.04,1.04,-0.97,12.12
19.07268190383911,13.07,-0.26,-0.29,13.07
19.08334183692932,12.61,-1.61,0.97,12.74
19.145712852478027,10.73,-2.47,2.79,11.35
19.145976066589355,8.09,-3.05,4.26,9.63
19.146254062652588,5.73,-3.85,4.39,8.18
19.146509885787964,3.57,-4.24,4.51,7.14
19.146770000457764,1.96,-4.22,4.64,6.57
19.14702796936035,1.07,-3.84,4.31,5.87
19.153164863586426,1.05,-3.21,3.09,4.57
19.162642002105713,1.27,-2.6,1.59,3.3
19.17301082611084,1.25,-2.44,0.28,2.75
19.183356761932373,0.95,-2.42,-0.44,2.63
19.246068000793457,0.48,-2.6,-0.31,2.66
19.246338844299316,0.9,-4.28,0.64,4.42
19.246598720550537,1.95,-5.4,2.18,6.14
19.246860027313232,2.37,-5.37,3.48,6.82
19.24712586402893,1.39,-5.21,3.31,6.32
19.247384071350098,-0.59,-4.88,1.69,5.19
19.253326892852783,-1.88,-4.08,-0.14,4.49
19.262616872787476,-1.92,-3.05,-1.3,3.83
19.2724769115448,-2.04,-2.15,-1.82,3.47
19.283129930496216,-3.5,-1.53,-2.0,4.31
19.34640073776245,-5.33,-1.4,-2.44,6.02
19.34666395187378,-6.87,-0.86,-3.03,7.55
19.346922874450684,-8.22,0.29,-4.08,9.18
19.347181797027588,-9.48,1.69,-5.06,10.87
19.347440719604492,-10.39,1.93,-5.96,12.13
19.347702980041504,-10.76,1.42,-6.64,12.72
19.353294849395752,-11.01,1.28,-5.84,12.52
19.362583875656128,-12.14,1.01,-5.8,13.49
19.372299909591675,-13.94,0.84,-6.48,15.39
19.38298797607422,-15.31,0.68,-6.19,16.52
19.446918964385986,-14.81,-0.61,-6.14,16.04
19.447189807891846,-12.75,-1.19,-5.83,14.07
19.44744873046875,-10.42,2.92,-4.28,11.63
19.447725772857666,-9.14,-1.45,-9.49,13.25
19.447986841201782,-10.35,-3.48,-7.73,13.37
19.448243856430054,-2.97,10.0,7.42,12.8
19.45313787460327,11.46,16.4,14.66,24.8
19.46220088005066,15.56,10.94,9.02,21.05
19.47227692604065,7.92,2.84,-4.94,9.75
19.482898950576782,-3.69,1.65,-14.34,14.89
19.547679901123047,-10.48,5.14,-12.63,17.19
19.54794192314148,-9.58,0.19,-4.03,10.39
19.548205852508545,-7.18,-3.04,2.98,8.34
19.548462867736816,-6.31,-4.13,5.62,9.4
19.548719882965088,-6.26,-2.8,3.71,7.79
19.548975944519043,-6.37,1.99,-0.91,6.73
19.552958011627197,-4.79,2.52,-4.48,7.02
19.56204390525818,-1.33,0.42,-4.12,4.34
19.57214093208313,1.83,0.31,-2.11,2.81
19.582715034484863,3.5,0.74,-0.61,3.62
19.64823579788208,2.88,0.61,0.05,2.94
19.64849591255188,0.4,0.36,0.08,0.54
19.648757934570312,-1.89,0.08,-0.53,1.96
19.649017810821533,-2.88,-0.33,-0.6,2.96
19.64927387237549,-2.72,-0.6,0.13,2.78
19.649532794952393,-1.9,-0.51,0.54,2.04
19.652960777282715,-0.95,-0.19,0.42,1.05
19.661951065063477,-0.29,0.08,-0.17,0.34
19.671928882598877,0.14,0.12,-0.85,0.86
19.682612895965576,0.47,0.14,-1.21,1.3
19.748859882354736,0.5,0.15,-1.13,1.24
19.74912405014038,0.39,0.16,-0.58,0.71
19.749381065368652,0.2,0.06,-0.1,0.23
19.74964690208435,-0.01,-0.05,0.08,0.09
19.749913930892944,-0.07,-0.01,0.11,0.13
19.75016975402832,0.05,0.05,0.1,0.12
19.752492904663086,0.19,0.06,0.2,0.28
19.761756896972656,0.33,0.03,0.27,0.42
19.771824836730957,0.47,0.04,0.24,0.52
19.78243088722229,0.54,0.08,0.23,0.59
19.84818983078003,0.43,0.08,0.18,0.47
19.848455905914307,0.27,0.01,0.26,0.37
19.848721027374268,0.21,-0.04,0.42,0.47
19.848979949951172,0.35,-0.05,0.59,0.68
19.84922194480896,0.65,-0.05,0.56,0.85
19.849475860595703,0.91,-0.07,0.61,1.09
19.852344036102295,1.21,-0.05,0.52,1.31
19.861718893051147,1.56,0.02,-0.04,1.56
19.871697902679443,1.56,0.24,-0.19,1.58
19.882261753082275,1.61,-0.1,-0.09,1.61
19.949070930480957,2.09,-1.22,0.92,2.58
19.94933271408081,1.85,-0.71,2.61,3.27
19.94959783554077,1.24,0.36,1.72,2.15
19.94985795021057,1.11,0.08,0.58,1.25
19.95011591911316,1.06,-0.06,0.53,1.18
19.95037078857422,0.78,0.86,1.15,1.63
19.95205307006836,0.7,1.21,0.83,1.62
19.961469888687134,0.94,0.96,0.57,1.45
19.971495866775513,0.85,1.46,0.43,1.74
19.982075929641724,1.27,1.87,0.17,2.26
20.049186944961548,1.65,1.9,0.18,2.52
20.049450874328613,1.77,2.38,0.19,2.97
20.049713850021362,2.04,2.78,0.67,3.51
20.049968719482422,2.1,3.23,1.49,4.13
20.05024003982544,2.53,4.25,2.79,5.67
20.0504949092865,3.69,5.58,3.67,7.63
20.05185079574585,5.11,5.98,3.57,8.63
20.06143593788147,6.13,6.36,3.53,9.51
20.07142972946167,7.0,7.21,4.1,10.85
20.081968784332275,7.78,8.22,4.7,12.25
20.149996757507324,8.34,9.41,5.36,13.66
20.150259971618652,9.42,10.47,8.09,16.24
20.15053391456604,11.25,8.34,7.51,15.89
20.150795936584473,11.68,6.88,3.45,13.98
20.15122389793396,10.94,6.2,1.63,12.67
20.15148687362671,7.48,5.58,-4.67,10.43
20.152245044708252,-1.16,6.9,-12.27,14.12
20.1612548828125,-10.24,12.48,-10.83,19.43
20.171238899230957,-14.16,16.29,-5.82,22.35
20.181832790374756,-10.21,13.37,-0.73,16.83
20.251109838485718,-1.88,7.14,3.4,8.12
20.25137186050415,-1.39,2.23,0.77,2.73
20.251633882522583,-3.41,-0.21,-1.44,3.7
20.25189185142517,0.41,3.49,1.28,3.73
20.25215792655945,5.59,4.29,0.56,7.06
20.252413749694824,9.25,2.72,-1.42,9.74
20.253535747528076,11.72,1.53,-1.48,11.91
20.261146068572998,12.85,0.43,-0.04,12.85
20.271053791046143,12.26,-0.84,1.91,12.43
20.2817120552063,10.07,-2.0,3.46,10.83
20.351940870285034,6.88,-2.73,4.25,8.53
20.3522047996521,4.07,-3.24,4.14,6.64
20.352462768554688,2.04,-3.12,4.21,5.62
20.352717876434326,0.86,-2.81,4.2,5.12
20.35297393798828,0.61,-2.8,3.31,4.37
20.353582859039307,1.27,-2.89,2.17,3.83
20.354400873184204,2.39,-3.08,1.48,4.17
20.360888957977295,3.25,-3.43,1.13,4.85
20.3708598613739,3.57,-3.76,1.22,5.32
20.38157892227173,3.48,-4.21,1.69,5.71
20.452550888061523,3.17,-4.69,2.24,6.08
20.45282292366028,2.48,-5.19,2.66,6.33
20.453081846237183,1.65,-5.76,2.56,6.51
20.453702926635742,1.16,-5.88,2.66,6.55
20.453962802886963,1.11,-5.6,2.99,6.44
20.454225063323975,1.18,-5.17,3.07,6.12
20.45502281188965,0.87,-4.54,2.26,5.14
20.460835933685303,-0.54,-3.68,0.05,3.71
20.47079086303711,-2.98,-2.81,-2.82,4.97
20.481428861618042,-5.5,-1.23,-4.28,7.07
20.553192853927612,-7.49,0.7,-4.55,8.79
20.553823947906494,-8.63,0.59,-4.5,9.75
20.554086923599243,-9.64,0.21,-5.16,10.93
20.55434799194336,-10.4,1.04,-5.81,11.95
20.55461597442627,-10.43,1.76,-6.56,12.44
20.55487298965454,-10.74,1.65,-8.19,13.6
20.555611848831177,-12.35,1.54,-9.5,15.65
20.560730934143066,-14.72,1.5,-9.79,17.74
20.57070302963257,-16.6,0.83,-9.29,19.04
20.58113694190979,-16.75,-0.83,-8.29,18.7
20.653650760650635,-14.33,-2.24,-6.63,15.94
20.653920888900757,-11.02,2.07,-3.29,11.68
20.65418004989624,-8.47,1.9,-6.31,10.73
20.65443992614746,-8.56,-3.43,-9.69,13.37
20.654722929000854,-0.33,10.29,7.51,12.74
20.654979944229126,13.29,16.17,15.62,26.11
20.65575885772705,16.25,9.7,9.02,20.96
20.660584926605225,9.34,0.57,-5.41,10.8
20.67074203491211,-0.76,-0.98,-13.6,13.65
20.681134939193726,-8.18,2.56,-10.29,13.39
20.75414276123047,-11.17,0.68,-4.59,12.09
20.75440788269043,-12.02,-0.53,-1.9,12.18
20.75469183921814,-9.76,-0.05,2.02,9.96
20.754966735839844,-5.46,-0.75,1.72,5.77
20.755223751068115,-2.53,-0.25,-0.55,2.6
20.75549292564392,-0.63,0.49,-2.32,2.45
20.756306886672974,0.98,0.61,-3.33,3.52
20.760273933410645,1.91,1.27,-2.85,3.65
20.77027988433838,1.28,1.93,-1.0,2.52
20.780906915664673,-0.63,0.99,0.25,1.19
20.854631900787354,-2.02,-0.43,0.63,2.15
20.854893922805786,-2.5,-0.97,0.81,2.8
20.855156898498535,-2.39,-0.61,0.64,2.54
20.855414867401123,-1.66,-0.27,0.19,1.69
20.85567283630371,-0.68,-0.07,-0.46,0.82
20.855929851531982,0.06,0.22,-0.85,0.88
20.85671377182007,0.4,0.3,-0.85,0.98
20.86012291908264,0.55,0.15,-0.74,0.93
20.870139837265015,0.53,0.07,-0.5,0.73
20.88083291053772,0.41,0.05,-0.27,0.49
20.95507287979126,0.25,0.06,-0.1,0.27
20.95533800125122,0.21,0.03,0.08,0.22
20.955580949783325,0.24,0.03,0.32,0.4
20.955835819244385,0.32,0.02,0.51,0.6
20.956092834472656,0.5,-0.02,0.59,0.77
20.956353902816772,0.73,-0.03,0.49,0.87
20.957136869430542,0.95,0.03,0.47,1.06
20.960033893585205,1.07,0.11,0.45,1.16
20.969954013824463,1.07,0.11,0.3,1.11
20.980586051940918,0.95,0.11,0.15,0.96
21.05468487739563,0.83,0.05,0.02,0.83
21.054945945739746,0.81,0.0,0.17,0.82
21.05520987510681,0.85,-0.04,0.66,1.07
21.0554678440094,0.99,-0.12,1.11,1.49
21.05573272705078,1.14,-0.16,1.27,1.71
21.055988788604736,1.2,-0.14,0.98,1.55
21.056766986846924,1.15,0.02,0.42,1.22
21.05981993675232,0.99,0.29,-0.09,1.03
21.069811820983887,0.88,0.45,-0.29,1.03
21.080487728118896,0.84,0.37,0.0,0.91
21.155348777770996,0.92,0.24,0.35,1.01
21.155611038208008,1.09,0.18,0.93,1.44
21.155871868133545,1.19,0.35,1.61,2.03
21.156128883361816,1.24,0.61,1.58,2.09
21.156386852264404,1.25,0.95,0.87,1.79
21.156651973724365,1.46,0.99,-0.37,1.8
21.15744400024414,2.84,-0.25,-0.54,2.9
21.159907817840576,6.42,-3.56,2.49,7.75
21.169815063476562,4.23,3.11,6.13,8.07
21.180335998535156,0.94,8.78,1.66,8.98
21.25543975830078,0.43,7.64,-1.54,7.8
21.255701065063477,1.9,5.85,-1.19,6.26
21.255960941314697,5.36,6.62,3.03,9.04
21.25622272491455,7.8,7.71,5.49,12.26
21.25647783279419,9.17,8.39,5.56,13.61
21.256733894348145,9.81,8.91,4.73,14.07
21.25751495361328,9.96,10.14,5.16,15.12
21.259593963623047,10.46,10.82,7.59,16.85
21.269574880599976,11.6,8.35,6.62,15.75
21.280212879180908,11.57,7.46,2.28,13.95
21.35597276687622,10.7,6.72,0.33,12.63
21.356241941452026,7.39,5.65,-5.8,10.96
21.356502056121826,0.2,7.04,-11.94,13.86
21.35676884651184,-7.5,11.53,-12.12,18.33
21.357028007507324,-11.39,16.43,-7.56,21.37
21.357285022735596,-8.41,12.19,-2.26,14.98
21.358059883117676,-2.73,5.37,2.41,6.48
21.359467029571533,-3.35,0.82,1.26,3.67
21.369438886642456,-3.55,-1.01,1.05,3.83
21.380112886428833,1.78,1.13,2.26,3.09
21.45639705657959,7.43,1.59,1.4,7.72
21.456660747528076,10.97,0.97,0.13,11.01
21.456923007965088,13.13,-0.21,-0.7,13.15
21.457180976867676,13.76,-1.28,-0.12,13.81
21.457441806793213,12.84,-2.14,1.45,13.09
21.457698822021484,10.2,-2.64,3.13,10.99
21.45849084854126,7.19,-3.27,3.33,8.57
21.459298849105835,4.6,-3.67,3.0,6.6
21.469278812408447,2.56,-3.54,3.26,5.45
21.479869842529297,1.19,-3.34,3.54,5.01
21.556131839752197,0.53,-3.36,2.98,4.52
21.556397914886475,0.46,-3.39,1.98,3.95
21.556655883789062,0.66,-3.37,1.0,3.57
21.556911945343018,1.03,-3.55,0.38,3.71
21.557169914245605,1.58,-3.84,0.39,4.17
21.55742597579956,2.37,-4.07,0.96,4.8
21.558215856552124,2.92,-4.32,1.54,5.43
21.559005737304688,2.41,-4.48,1.99,5.46
21.56907892227173,0.84,-4.56,2.4,5.22
21.579630851745605,-0.67,-4.32,2.52,5.04
21.655881881713867,-1.51,-3.78,1.53,4.34
21.65615701675415,-2.1,-2.87,-0.49,3.58
21.65641498565674,-3.31,-1.72,-2.52,4.5
21.656671047210693,-5.45,-0.32,-3.57,6.52
21.656929969787598,-7.42,1.17,-3.62,8.33
21.657186031341553,-8.5,0.8,-2.97,9.03
21.657960891723633,-9.34,-0.12,-3.29,9.9
21.65889883041382,-10.34,0.64,-4.28,11.2
21.668910026550293,-11.03,1.64,-5.48,12.42
21.679501056671143,-11.14,1.39,-5.99,12.72
21.756829738616943,-11.27,0.4,-6.13,12.83
21.757091999053955,-12.4,-0.34,-7.13,14.3
21.757352828979492,-14.28,-0.48,-8.46,16.6
21.757611751556396,-15.78,-0.78,-8.49,17.93
21.757871866226196,-16.35,-2.48,-7.62,18.2
21.758128881454468,-16.31,-1.12,-5.15,17.14
21.759089946746826,-14.99,1.66,-3.17,15.41
21.759355068206787,-14.55,-7.76,-9.29,18.92
21.768699884414673,-4.48,4.5,4.51,7.78
21.77941393852234,13.39,16.95,16.38,27.1
21.85730290412903,20.4,13.85,10.4,26.76
21.857565879821777,14.23,4.0,-6.75,16.24
21.85783576965332,2.0,1.05,-18.48,18.61
21.858129024505615,-7.04,4.9,-15.64,17.83
21.858556747436523,-8.81,-1.03,-10.42,13.68
21.858811855316162,-9.92,-2.27,-3.81,10.86
21.859561920166016,-10.4,-1.65,2.45,10.81
21.859822750091553,-10.47,-0.05,5.26,11.71
21.868746757507324,-8.36,-0.19,4.54,9.51
21.87938690185547,-4.29,-1.15,1.41,4.65
21.9583477973938,-0.58,0.3,-0.94,1.14
21.958632946014404,2.34,1.45,-1.93,3.36
21.95889377593994,4.15,1.25,-2.05,4.79
21.959156036376953,4.07,0.5,-2.0,4.56
21.95941686630249,1.76,0.47,-1.69,2.48
21.95967674255371,-1.14,0.49,-1.03,1.61
21.960447788238525,-2.65,-0.5,-0.71,2.78
21.960705757141113,-2.91,-0.97,-0.09,3.06
21.96857786178589,-2.04,-0.65,0.71,2.25
21.97922706604004,-0.69,-0.2,0.27,0.76
22.057902812957764,0.14,0.16,-1.02,1.04
22.058353900909424,0.28,0.25,-1.43,1.47
22.05861473083496,0.06,0.29,-0.11,0.31
22.058872938156128,-0.25,0.0,1.31,1.33
22.059131860733032,-0.44,-0.15,1.64,1.7
22.059391975402832,-0.48,-0.13,1.02,1.13
22.060168743133545,-0.16,0.04,0.02,0.16
22.060425758361816,0.3,0.19,-0.68,0.76
22.068424940109253,0.58,0.28,-0.66,0.92
22.07903790473938,0.64,0.25,-0.17,0.7
22.1572527885437,0.62,0.21,0.44,0.78
22.157517910003662,0.61,0.13,1.07,1.23
22.157809734344482,0.73,0.04,1.29,1.48
22.158257961273193,1.0,0.01,1.08,1.47
22.158511877059937,1.19,0.02,0.83,1.45
22.15877389907837,1.28,-0.13,0.51,1.38
22.159580945968628,1.43,-0.15,0.26,1.46
22.159836769104004,1.53,0.08,0.09,1.53
22.168288946151733,1.57,0.42,0.18,1.63
22.178897857666016,1.6,0.79,0.36,1.82
22.25591278076172,1.7,0.77,0.46,1.92
22.257288932800293,1.95,0.67,1.22,2.39
22.257596015930176,2.09,0.65,2.26,3.14
22.258046865463257,1.93,0.84,2.36,3.16
22.258309841156006,1.78,1.0,1.27,2.4
22.258564949035645,2.04,1.71,0.09,2.66
22.25936484336853,2.63,2.24,-0.03,3.45
22.259624004364014,2.95,2.1,0.69,3.68
22.268191814422607,3.59,2.4,1.24,4.49
22.278825759887695,4.01,2.81,1.37,5.08
22.2882080078125,3.96,3.19,1.57,5.32
22.361608028411865,3.8,3.52,2.0,5.55
22.36187505722046,4.13,4.8,2.78,6.91
22.362133026123047,5.75,6.93,3.58,9.69
22.36239004135132,8.22,7.16,3.82,11.55
22.362650871276855,9.67,6.66,4.32,12.51
22.363473892211914,9.97,7.28,5.9,13.68
22.363730907440186,9.16,9.59,7.46,15.21
22.368030071258545,8.59,12.08,7.76,16.73
22.378546714782715,9.23,10.33,4.84,14.67
22.38798189163208,10.22,6.85,2.42,12.53
22.461272716522217,9.9,6.82,-1.19,12.08
22.46154284477234,4.59,8.53,-9.37,13.47
22.461813926696777,-4.69,12.39,-14.44,19.59
22.462074756622314,-9.78,18.67,-11.24,23.88
22.462332725524902,-7.94,18.22,-5.7,20.67
22.463116884231567,-0.04,9.1,-0.34,9.1
22.463374853134155,0.66,4.68,0.22,4.73
22.467917919158936,-4.37,0.64,-1.23,4.58
22.47832202911377,-1.8,2.87,1.26,3.61
22.487857818603516,4.02,4.82,2.27,6.67
22.56523084640503,7.81,3.29,0.89,8.52
22.565491914749146,9.23,1.36,0.76,9.36
22.56575298309326,8.82,-0.62,1.72,9.0
22.566009044647217,7.12,-2.2,2.89,7.99
22.56626796722412,5.47,-3.71,3.41,7.43
22.56706190109253,4.61,-4.69,3.87,7.63
22.567484855651855,4.28,-4.8,4.79,8.01
22.567749977111816,4.07,-4.11,5.75,8.15
22.57820177078247,3.74,-3.42,5.68,7.61
22.58767795562744,3.2,-3.27,3.88,5.99
22.66608476638794,2.75,-3.22,2.07,4.71
22.666353940963745,2.68,-2.84,1.79,4.29
22.666619777679443,3.06,-2.63,2.28,4.63
22.66690683364868,3.57,-2.9,2.58,5.27
22.667194843292236,3.87,-3.61,2.43,5.82
22.668161869049072,3.63,-4.28,2.1,5.99
22.668420791625977,2.9,-4.57,1.89,5.73
22.668680906295776,2.07,-4.8,1.62,5.47
22.678119897842407,1.59,-5.04,1.82,5.58
22.687501907348633,1.33,-5.27,2.53,5.99
22.766360759735107,0.76,-5.14,2.7,5.85
22.766631841659546,-0.43,-4.86,1.4,5.07
22.76694107055664,-2.13,-4.55,-1.31,5.19
22.767358779907227,-4.13,-3.84,-3.88,6.84
22.767619848251343,-6.71,-2.62,-4.91,8.71
22.76842498779297,-9.28,-0.92,-5.03,10.59
22.768685817718506,-11.07,0.58,-4.95,12.14
22.768949031829834,-11.98,1.39,-6.47,13.68
22.77800703048706,-12.78,2.6,-9.05,15.87
22.787359714508057,-13.6,3.63,-10.91,17.8
22.866416931152344,-14.69,3.06,-11.21,18.73
22.866703987121582,-16.33,2.08,-10.14,19.33
22.86713194847107,-17.78,1.74,-8.71,19.87
22.867393970489502,-18.82,2.51,-7.77,20.51
22.867653846740723,-15.86,8.23,-5.87,18.8
22.868465900421143,-14.46,-1.63,-13.4,19.78
22.868727922439575,-15.63,-6.6,-13.05,21.4
22.868992805480957,-2.71,7.18,8.11,11.16
22.87785792350769,15.15,16.53,17.67,28.54
22.88724374771118,18.98,11.77,12.54,25.61
22.96731472015381,12.68,2.11,-2.57,13.1
22.96757984161377,1.97,-1.96,-12.34,12.64
22.96783971786499,-6.93,0.72,-7.05,9.91
22.968098878860474,-10.07,2.33,-0.41,10.34
22.968363761901855,-13.2,-1.94,-1.46,13.42
22.96917200088501,-14.16,-2.54,-2.72,14.64
22.96943688392639,-10.71,1.39,-0.61,10.81
22.96969699859619,-6.29,3.06,-2.38,7.38
22.97767186164856,-2.28,1.17,-4.48,5.16
22.987151861190796,0.93,0.16,-4.42,4.51
23.06754779815674,3.29,1.22,-3.23,4.76
23.067819833755493,4.13,1.7,-1.82,4.82
23.06808590888977,2.62,0.79,-1.05,2.93
23.068345069885254,0.07,-0.18,-0.64,0.66
23.068603038787842,-1.81,-0.44,0.23,1.87
23.06939172744751,-2.83,-0.29,1.31,3.13
23.069649934768677,-2.68,-0.41,2.0,3.36
23.06990885734558,-1.61,-0.53,1.77,2.45
23.077493906021118,-0.14,-0.4,0.48,0.64
23.0868878364563,0.83,-0.04,-1.25,1.5
23.167491912841797,1.07,0.33,-2.18,2.45
23.16776394844055,0.82,0.42,-1.61,1.85
23.1680269241333,0.31,0.1,-0.52,0.61
23.16829490661621,-0.14,-0.18,0.0,0.22
23.168555736541748,-0.44,-0.04,0.02,0.44
23.169373989105225,-0.46,0.08,-0.16,0.49
23.169633865356445,-0.28,0.09,0.04,0.29
23.16991376876831,-0.31,0.1,0.63,0.7
23.177331924438477,-0.44,-0.01,0.94,1.03
23.186831951141357,-0.68,-0.03,1.17,1.35
23.26792883872986,-0.65,-0.3,3.85,3.91
23.268199920654297,0.24,-0.89,-2.0,2.2
23.268468856811523,1.76,0.16,-2.06,2.71
23.268736839294434,3.15,0.28,1.54,3.51
23.26900577545166,3.94,-0.37,2.51,4.68
23.26982283592224,3.97,-0.47,2.71,4.82
23.270084857940674,3.14,0.06,1.59,3.52
23.270339012145996,1.78,0.59,0.08,1.87
23.277246952056885,0.64,0.8,-0.9,1.36
23.286684036254883,0.27,0.51,-0.99,1.14
23.367788791656494,0.58,0.25,-0.03,0.63
23.368069887161255,1.23,-0.09,1.08,1.63
23.368337869644165,1.69,0.08,2.08,2.68
23.36859893798828,1.74,0.46,2.72,3.26
23.36885976791382,1.56,0.67,2.36,2.9
23.369682788848877,1.31,0.75,1.0,1.81
23.36994981765747,1.02,0.84,-0.32,1.35
23.370216846466064,0.92,0.9,-0.91,1.57
23.377092838287354,1.08,1.16,-0.58,1.68
23.386626720428467,1.39,1.92,0.56,2.43
23.46793794631958,2.26,2.71,0.98,3.66
23.468186855316162,3.02,2.71,1.23,4.23
23.468443870544434,3.46,3.1,1.87,5.0
23.46870994567871,3.28,4.69,3.25,6.58
23.468968868255615,3.77,5.69,3.79,7.8
23.469780921936035,5.58,5.22,3.15,8.26
23.470037937164307,6.99,6.0,4.12,10.09
23.470298767089844,8.32,7.31,5.42,12.33
23.47689199447632,10.0,8.67,6.01,14.53
23.486313819885254,11.09,10.02,7.68,16.8
23.56769585609436,10.4,12.26,7.72,17.83
23.567965030670166,10.3,11.77,4.79,16.35
23.568228721618652,10.98,7.47,1.06,13.32
23.56849193572998,10.24,5.74,-1.71,11.86
23.568753719329834,5.88,6.2,-8.35,11.94
23.569546937942505,-2.91,9.64,-12.52,16.06
23.56980800628662,-10.34,14.04,-10.41,20.3
23.570065021514893,-11.94,16.16,-5.15,20.74
23.576694011688232,-6.04,10.03,0.03,11.7
23.586153984069824,-2.38,4.59,2.27,5.64
23.668362855911255,-5.02,-0.25,-0.18,5.02
23.668642044067383,-3.08,0.65,2.06,3.76
23.668904781341553,3.21,2.86,3.36,5.45
23.669161796569824,8.01,1.87,1.64,8.38
23.669428825378418,10.82,0.59,-0.01,10.83
23.670258045196533,12.36,-0.47,-0.19,12.37
23.670517921447754,12.51,-1.36,0.56,12.59
23.670776844024658,11.21,-2.2,1.57,11.53
23.67659902572632,8.6,-2.65,2.62,9.37
23.68607783317566,6.05,-2.97,2.94,7.35
23.769646883010864,3.97,-3.14,3.32,6.05
23.769917011260986,2.22,-3.18,3.9,5.5
23.770184993743896,1.02,-3.48,3.88,5.31
23.770469903945923,0.73,-3.76,3.19,4.98
23.770730018615723,1.22,-3.84,2.73,4.86
23.771512985229492,2.39,-3.48,2.35,4.83
23.771770000457764,2.91,-3.31,2.19,4.92
23.772024869918823,2.98,-3.67,0.03,4.72
23.77649688720703,2.36,-3.39,0.74,4.19
23.785912036895752,1.37,-3.89,1.15,4.28
23.869750022888184,0.43,-4.97,1.61,5.24
23.870028972625732,0.14,-5.49,2.55,6.05
23.870288848876953,0.19,-5.31,3.52,6.37
23.870547771453857,0.5,-5.16,3.31,6.15
23.870807886123657,0.3,-4.24,2.11,4.74
23.871599912643433,-1.26,-2.87,-0.17,3.13
23.87186884880066,-3.67,-1.68,-2.58,4.79
23.872129917144775,-6.08,0.43,-3.94,7.25
23.876298904418945,-7.65,1.81,-4.12,8.87
23.886044025421143,-8.31,1.8,-3.88,9.34
23.970494747161865,-8.75,1.88,-4.24,9.9
23.97076177597046,-9.88,2.79,-6.08,11.93
23.97102689743042,-11.24,3.52,-7.87,14.16
23.971287727355957,-12.35,3.13,-8.45,15.28
23.971555948257446,-14.66,2.05,-9.37,17.51
23.97236204147339,-18.07,0.86,-10.28,20.8
23.972622871398926,-19.89,-0.02,-9.49,22.03
23.97288179397583,-19.2,-1.97,-7.67,20.76
23.976107835769653,-15.91,-3.67,-5.95,17.37
23.985626935958862,-12.36,-2.62,-4.96,13.57
24.06953001022339,-11.24,2.76,-3.08,11.97
24.069801807403564,-9.62,-3.12,-6.73,12.14
24.07006287574768,1.61,4.8,2.08,5.47
24.07032084465027,15.24,11.82,12.25,22.84
24.07058095932007,20.15,10.74,9.42,24.7
24.071398735046387,16.28,6.2,-1.61,17.49
24.07165789604187,3.79,3.35,-11.57,12.62
24.071917057037354,-7.65,1.96,-15.19,17.12
24.07604193687439,-13.48,-0.81,-13.06,18.78
24.085511922836304,-14.24,0.86,-4.62,14.99
24.170135974884033,-11.99,-0.62,3.84,12.6
24.170403957366943,-8.91,-2.23,6.02,10.98
24.17066788673401,-4.81,-1.76,4.62,6.89
24.170925855636597,-2.27,0.03,0.64,2.35
24.171189785003662,-0.35,1.13,-3.47,3.66
24.171979904174805,1.75,1.7,-5.22,5.76
24.172240734100342,3.0,1.89,-4.34,5.6
24.172497749328613,2.43,1.16,-1.72,3.19
24.175946950912476,0.15,0.06,0.03,0.16
24.18536686897278,-1.95,-0.44,0.16,2.0
24.27049493789673,-2.98,-0.43,0.06,3.01
24.27076292037964,-2.77,-0.33,0.08,2.79
24.271020889282227,-1.42,-0.18,0.23,1.44
24.271283864974976,-0.19,0.1,0.28,0.35
24.27154302597046,0.23,0.2,-0.01,0.3
24.272332906723022,0.08,0.26,-0.13,0.3
24.27259397506714,0.11,-0.02,-0.04,0.11
24.272851943969727,0.43,-0.29,0.07,0.52
24.275629997253418,0.89,-0.31,0.01,0.94
24.285184860229492,1.23,-0.09,-0.06,1.23
24.369914054870605,1.31,0.11,-0.15,1.32
24.370179891586304,1.2,0.17,-0.3,1.24
24.370445728302002,1.21,0.04,-0.26,1.23
24.370707035064697,1.41,-0.16,-0.02,1.41
24.370975017547607,1.73,-0.24,0.3,1.77
24.371789932250977,2.03,-0.23,0.66,2.14
24.37205171585083,2.26,-0.21,1.12,2.53
24.372309923171997,2.32,-0.28,1.67,2.87
24.375457763671875,2.22,-0.52,1.9,2.96
24.38505506515503,2.14,-0.87,1.79,2.92
24.470566749572754,1.75,-0.81,1.38,2.37
24.47085475921631,0.55,0.44,0.1,0.71
24.471148014068604,-0.08,1.0,-1.44,1.75
24.471430778503418,-0.2,0.62,-0.96,1.16
24.471728801727295,-0.07,0.18,0.28,0.34
24.47251272201538,0.4,-0.16,1.32,1.38
24.472769737243652,0.95,-0.39,1.78,2.05
24.473028898239136,1.36,-0.16,1.48,2.01
24.475345849990845,1.35,0.38,0.81,1.61
24.484976768493652,1.05,0.95,0.49,1.49
24.56984281539917,0.98,1.18,0.46,1.6
24.570104837417603,1.37,0.99,0.35,1.72
24.570368766784668,1.59,1.01,0.61,1.97
24.57062578201294,1.94,1.32,0.67,2.44
24.570881843566895,2.27,1.74,0.39,2.88
24.57167387008667,2.34,3.08,0.62,3.91
24.571932792663574,3.23,4.54,1.09,5.67
24.572186946868896,3.52,5.33,2.53,6.87
24.57535696029663,4.42,6.41,3.92,8.71
24.58473491668701,6.38,6.16,4.26,9.83
24.66924285888672,7.83,6.29,4.68,11.08
24.669538021087646,9.1,6.98,5.2,12.59
24.669801950454712,10.19,7.48,5.15,13.64
24.670065879821777,11.02,8.25,5.44,14.8
24.670323848724365,10.9,10.91,7.61,17.19
24.671135902404785,10.01,12.68,8.01,18.03
24.671395778656006,10.66,9.18,2.61,14.3
24.671655893325806,10.43,5.53,-1.28,11.87
24.675370931625366,7.88,5.1,-5.67,10.96
24.684683799743652,1.08,7.25,-11.29,13.46
24.768681049346924,-7.42,11.03,-12.38,18.16
24.768946886062622,-12.75,16.22,-8.08,22.15
24.769213914871216,-10.55,14.19,-1.99,17.79
24.76947593688965,-4.17,6.56,3.15,8.38
24.769739866256714,-4.34,1.75,1.88,5.04
24.77054500579834,-3.91,0.21,1.11,4.06
24.770806789398193,2.31,2.43,1.53,3.68
24.771063804626465,8.04,2.62,0.33,8.46
24.852294921875,11.87,1.67,-1.17,12.04
24.852563858032227,14.44,0.38,-1.62,14.53
24.852832794189453,15.14,-0.6,-0.12,15.15
24.85309600830078,13.82,-1.83,1.97,14.07
24.853359937667847,10.59,-2.9,3.88,11.64
24.853614807128906,6.92,-3.9,4.45,9.1
24.853911876678467,3.96,-4.65,4.23,7.42
24.854878902435303,1.89,-4.76,4.55,6.85
24.85514783859253,0.72,-4.51,4.88,6.68
24.86439275741577,0.25,-4.42,4.12,6.04
24.9527268409729,0.46,-4.4,2.56,5.11
24.953008890151978,1.43,-4.04,1.67,4.59
24.95327591896057,2.43,-3.97,1.56,4.9
24.953569889068604,3.14,-4.51,1.65,5.73
24.953857898712158,3.45,-5.01,1.95,6.38
24.954288005828857,3.06,-5.27,2.05,6.42
24.954556941986084,1.81,-5.44,1.76,5.99
24.955333948135376,0.39,-5.41,1.61,5.65
24.955595016479492,-0.63,-5.13,2.08,5.57
24.96424388885498,-1.21,-4.92,2.34,5.58
25.052645921707153,-1.62,-4.59,1.78,5.18
25.052916049957275,-2.37,-3.71,0.03,4.4
25.053180932998657,-4.23,-2.6,-2.45,5.53
25.053462028503418,-7.4,-0.54,-4.88,8.88
25.05391502380371,-11.23,3.69,-7.34,13.91
25.05418086051941,-12.74,5.22,-7.95,15.89
25.054442882537842,-12.61,4.11,-8.22,15.6
25.0552020072937,-12.17,2.58,-7.9,14.73
25.055463790893555,-11.68,1.84,-7.22,13.85
25.064119815826416,-12.18,1.53,-7.12,14.19
25.15279984474182,-13.63,1.0,-7.34,15.51
25.154008865356445,-15.15,-0.16,-8.83,17.53
25.154276847839355,-15.93,0.71,-10.03,18.83
25.15453577041626,-15.8,3.73,-8.77,18.45
25.154793739318848,-18.65,-6.93,-15.85,25.43
25.15505290031433,-11.77,-2.99,-5.66,13.39
25.15531086921692,7.12,14.66,12.46,20.51
25.15608286857605,20.22,17.4,17.73,32.03
25.156340837478638,17.93,9.68,6.47,21.37
25.163877964019775,5.77,-0.54,-11.17,12.58
25.174569845199585,-6.78,-1.1,-15.8,17.22
25.25459575653076,-11.43,1.86,-6.89,13.47
25.254863739013672,-12.91,-0.56,-2.72,13.2
25.25512385368347,-13.32,-1.16,-1.09,13.41
25.255385875701904,-10.77,-0.26,2.76,11.12
25.25564479827881,-6.36,-0.06,2.87,6.97
25.25590991973877,-2.68,-0.3,0.19,2.7
25.2566819190979,-0.07,0.26,-1.99,2.0
25.256940841674805,1.73,1.65,-3.24,4.02
25.263898849487305,2.23,2.62,-3.43,4.85
25.27436590194702,1.7,1.37,-2.7,3.47
25.35430097579956,0.17,0.15,-1.25,1.27
25.354565858840942,-1.54,-0.3,-0.24,1.58
25.354835033416748,-2.36,-0.71,-0.09,2.46
25.355093955993652,-2.2,-0.77,0.06,2.33
25.355353832244873,-1.32,-0.36,0.51,1.46
25.355615854263306,-0.39,-0.09,0.45,0.6
25.356395721435547,0.04,-0.08,-0.12,0.14
25.356657028198242,0.0,0.01,-0.44,0.44
25.36363697052002,-0.11,0.05,-0.19,0.22
25.374152898788452,-0.08,0.03,0.24,0.25
25.453598976135254,-0.05,0.02,0.43,0.43
25.453868865966797,-0.06,0.05,0.4,0.4
25.45413088798523,0.0,0.09,0.14,0.16
25.454391956329346,0.05,0.16,-0.17,0.23
25.45465087890625,0.21,0.21,-0.33,0.44
25.454906940460205,0.38,0.19,-0.14,0.44
25.455713748931885,0.41,0.08,0.31,0.52
25.455973863601685,0.29,-0.08,0.78,0.83
25.463470935821533,0.15,-0.1,0.94,0.95
25.474106788635254,0.11,-0.09,0.78,0.79
25.552762031555176,0.39,-0.17,0.72,0.83
25.553196907043457,1.05,-0.39,1.12,1.58
25.55345892906189,2.17,-0.7,2.0,3.03
25.553724765777588,3.44,-0.58,2.49,4.28
25.553982734680176,4.2,-0.01,1.89,4.6
25.554240942001343,4.26,0.71,0.83,4.39
25.55506992340088,3.65,1.42,-0.14,3.91
25.555328845977783,2.47,1.36,-0.72,2.91
25.563376903533936,1.4,0.76,-0.26,1.61
25.57389497756958,0.92,0.34,0.94,1.35
25.65270686149597,0.84,0.17,1.9,2.08
25.653156757354736,0.85,0.31,2.05,2.24
25.65340280532837,0.85,0.91,1.5,1.94
25.653658866882324,0.84,1.42,0.64,1.76
25.65391993522644,1.35,1.98,-0.22,2.4
25.654175758361816,1.99,2.67,-0.31,3.34
25.65499186515808,2.79,3.2,0.3,4.25
25.655251026153564,3.54,3.39,1.35,5.08
25.663190841674805,3.58,4.14,3.1,6.29
25.673781871795654,3.58,5.26,4.7,7.91
25.753864765167236,5.04,6.9,5.49,10.15
25.754127979278564,7.63,7.76,6.0,12.42
25.754390716552734,10.18,7.92,6.57,14.47
25.75465202331543,11.98,8.57,6.84,16.24
25.754920959472656,12.42,11.0,8.86,18.8
25.755185842514038,12.01,14.19,7.7,20.12
25.756013870239258,13.32,12.45,3.51,18.56
25.756274938583374,13.24,7.76,-0.31,15.34
25.76307773590088,10.12,5.83,-5.28,12.81
25.773725032806396,2.34,7.22,-11.75,13.98
25.854125022888184,-8.08,11.64,-12.32,18.77
25.854397773742676,-14.93,17.1,-6.96,23.74
25.85466480255127,-13.92,15.56,-1.36,20.92
25.85492992401123,-5.65,7.98,4.49,10.75
25.8552029132843,-4.86,2.67,2.49,6.07
25.855464935302734,-5.63,-0.73,-0.74,5.72
25.856263875961304,-0.2,2.78,1.41,3.12
25.856525897979736,6.2,3.76,1.34,7.37
25.86287498474121,10.12,2.6,0.39,10.45
25.873501777648926,12.52,0.97,-0.19,12.55
25.952908039093018,13.53,-0.52,0.29,13.54
25.953178882598877,13.27,-1.6,1.62,13.46
25.953444957733154,11.71,-2.4,3.28,12.39
25.953706741333008,8.63,-2.43,4.85,10.19
25.953962802886963,5.67,-2.51,4.91,7.9
25.954246044158936,3.21,-2.41,4.34,5.91
25.955052852630615,1.48,-2.07,3.5,4.32
25.955317974090576,0.43,-2.1,2.73,3.47
25.962767839431763,0.07,-2.17,2.24,3.11
25.973312854766846,0.69,-2.48,1.44,2.94
26.054012775421143,1.22,-3.01,1.41,3.54
26.054288864135742,1.85,-3.81,-0.86,4.32
26.05458092689514,1.71,-3.78,0.04,4.14
26.054841995239258,1.52,-4.9,0.52,5.15
26.05510687828064,1.32,-6.28,0.96,6.48
26.055372714996338,1.02,-7.33,1.64,7.58
26.05615472793579,0.81,-7.87,2.15,8.19
26.056413888931274,0.55,-7.89,2.11,8.18
26.06258201599121,-0.6,-7.56,1.18,7.67
26.073243856430054,-2.35,-7.06,-0.25,7.44
26.154067039489746,-3.97,-6.16,-1.72,7.52
26.154338836669922,-5.81,-5.01,-3.35,8.37
26.15460777282715,-8.29,-3.18,-5.7,10.55
26.154871940612793,-11.04,-0.41,-7.62,13.42
26.155139923095703,-12.45,1.04,-7.85,14.75
26.155401945114136,-12.99,0.05,-7.86,15.18
26.15621280670166,-11.86,-2.2,-6.9,13.89
26.15647602081299,-10.44,-1.72,-5.08,11.73
26.162534952163696,-10.94,-0.56,-5.37,12.19
26.173073768615723,-13.14,0.16,-7.76,15.26
26.255863904953003,-15.83,1.17,-10.17,18.85
26.25613784790039,-17.8,1.62,-11.32,21.15
26.256399869918823,-17.87,6.92,-8.79,21.08
26.25666093826294,-14.96,2.98,-7.85,17.15
26.25692081451416,-10.71,-2.2,-5.61,12.28
26.25717782974243,7.08,15.4,15.25,22.8
26.257991790771484,19.39,17.52,19.85,32.81
26.258251905441284,15.71,6.7,3.83,17.5
26.262311935424805,7.22,-3.42,-17.12,18.89
26.272957801818848,-2.26,2.57,-16.8,17.14
26.354739904403687,-8.85,5.52,-6.97,12.54
26.355005741119385,-14.1,2.52,-4.4,14.98
26.355270862579346,-14.51,-0.47,-0.36,14.52
26.355530738830566,-12.07,-2.61,3.73,12.89
26.355793952941895,-9.2,-2.03,3.65,10.1
26.3560528755188,-5.16,-0.86,1.54,5.45
26.356853008270264,-1.47,0.25,-2.15,2.61
26.357112884521484,1.4,1.79,-4.66,5.18
26.36220693588257,3.43,2.52,-5.13,6.66
26.372853755950928,3.71,1.86,-3.69,5.55
26.45574188232422,1.63,0.54,-1.08,2.02
26.45600986480713,-0.91,-0.7,0.15,1.15
26.456268787384033,-2.75,-0.98,0.66,2.99
26.45653200149536,-3.57,-0.55,1.22,3.81
26.456788063049316,-2.63,-0.57,1.02,2.87
26.457056999206543,-0.65,-0.4,0.43,0.87
26.457852840423584,0.63,0.07,-0.14,0.64
26.4581139087677,1.06,0.22,-0.61,1.24
26.462052822113037,0.9,0.15,-0.69,1.14
26.472630977630615,0.63,0.02,-0.48,0.79
26.555892944335938,0.46,0.01,-0.37,0.59
26.556151866912842,0.37,0.13,-0.45,0.59
26.556412935256958,0.28,0.27,-0.53,0.65
26.556671857833862,0.16,0.34,-0.38,0.53
26.55693292617798,0.07,0.3,0.03,0.3
26.557199001312256,0.09,0.16,0.51,0.54
26.55799889564514,0.28,-0.03,0.71,0.76
26.558268070220947,0.68,-0.3,0.83,1.11
26.561877727508545,1.47,-0.5,1.28,2.01
26.572507858276367,2.51,-0.69,1.88,3.21
26.654660940170288,3.49,-0.79,2.16,4.17
26.654924869537354,3.79,-0.45,2.1,4.35
26.655189990997314,2.99,0.28,1.44,3.33
26.655449867248535,1.77,0.68,0.46,1.95
26.65571093559265,0.79,0.62,-0.43,1.09
26.655975818634033,0.48,0.42,-0.74,0.97
26.65675187110901,0.63,0.35,-0.28,0.77
26.657009840011597,1.0,0.17,0.51,1.13
26.661722898483276,1.12,0.0,1.12,1.58
26.672279834747314,1.12,0.04,1.48,1.85
26.75465202331543,1.05,0.17,1.53,1.86
26.754915714263916,0.93,0.47,1.14,1.54
26.755181789398193,0.83,0.66,0.27,1.09
26.755440950393677,0.57,0.87,-0.38,1.1
26.755681037902832,0.35,0.99,-0.38,1.11
26.755945920944214,0.41,1.1,0.17,1.18
26.75677490234375,0.85,1.39,1.22,2.03
26.75703477859497,1.25,1.59,1.52,2.53
26.761620044708252,1.61,2.41,1.56,3.29
26.772267818450928,2.2,2.83,1.68,3.95
26.85517978668213,2.76,4.38,2.81,5.89
26.85544490814209,4.0,5.35,3.2,7.4
26.855703830718994,5.75,4.91,2.79,8.05
26.85595989227295,6.93,5.69,3.63,9.67
26.8562228679657,8.09,7.2,5.47,12.13
26.85648202896118,9.61,7.91,6.23,13.91
26.857260942459106,10.38,8.18,6.77,14.84
26.857521057128906,9.58,10.0,8.19,16.08
26.86149787902832,9.25,11.97,7.36,16.82
26.87204074859619,10.51,9.3,3.74,14.52
26.956114768981934,10.16,6.19,0.32,11.9
26.95636796951294,7.14,6.19,-4.6,10.5
26.956628799438477,-0.13,8.97,-9.84,13.31
26.956889867782593,-8.85,13.51,-9.43,18.7
26.95715093612671,-15.08,18.16,-7.09,24.64
26.95741081237793,-12.18,14.83,-2.11,19.3
26.958199977874756,-4.5,7.53,1.85,8.96
26.958459854125977,-4.98,3.41,-0.25,6.04
26.96141290664673,-4.56,3.81,-0.4,5.95
26.971913814544678,1.71,6.24,0.09,6.47
27.05517578125,7.04,5.22,-1.27,8.85
27.055466890335083,10.5,3.92,-1.36,11.29
27.055754899978638,12.77,2.14,-0.4,12.95
27.056045055389404,13.47,0.61,1.01,13.52
27.05632781982422,12.74,-0.81,2.32,12.97
27.05664086341858,10.65,-2.08,3.24,11.32
27.05752182006836,7.49,-2.56,4.25,8.98
27.05779194831848,4.45,-2.8,4.46,6.89
27.06110191345215,2.47,-3.19,3.91,5.61
27.071735858917236,1.45,-3.43,3.43,5.06
27.154664039611816,1.78,-3.8,2.69,4.98
27.154932975769043,3.23,-4.18,1.96,5.63
27.15519905090332,4.38,-4.29,1.71,6.36
27.155459880828857,4.68,-4.35,1.41,6.54
27.155720949172974,4.57,-4.72,0.93,6.63
27.155981063842773,4.11,-5.21,0.71,6.67
27.156781911849976,3.34,-5.78,0.96,6.74
27.157046794891357,2.49,-6.54,1.29,7.11
27.160915851593018,1.85,-7.31,1.76,7.74
27.171570777893066,1.58,-7.92,2.38,8.41
27.25499200820923,1.53,-8.09,2.67,8.65
27.255252838134766,1.22,-7.47,2.6,8.0
27.25551176071167,0.43,-6.81,1.74,7.04
27.25577187538147,-0.71,-6.19,0.62,6.26
27.256037950515747,-1.9,-5.23,-0.81,5.62
27.25629472732544,-3.57,-3.79,-3.19,6.1
27.25709295272827,-6.3,-1.59,-6.41,9.12
27.257351875305176,-9.83,1.18,-8.73,13.19
27.26078486442566,-13.13,3.5,-9.88,16.8
27.27143383026123,-14.9,2.33,-10.33,18.27
27.355485916137695,-15.28,0.45,-9.71,18.1
27.35576105117798,-15.19,0.01,-8.42,17.36
27.35602593421936,-14.94,-0.74,-7.71,16.82
27.35628604888916,-14.65,-1.27,-7.61,16.55
27.356547832489014,-14.7,-1.39,-8.02,16.8
27.3568058013916,-14.78,-0.89,-8.88,17.26
27.357621908187866,-12.23,9.0,-5.07,16.0
27.35788893699646,-7.34,3.04,-7.55,10.95
27.36062002182007,-3.23,3.33,-1.43,4.85
27.371320724487305,11.05,18.79,17.62,28.02
27.4564528465271,17.93,15.25,13.89,27.33
27.456724882125854,10.78,2.44,-7.19,13.18
27.45698881149292,-0.66,-2.72,-21.53,21.71
27.457247734069824,-8.23,3.14,-11.86,14.77
27.457507848739624,-9.59,4.31,-0.79,10.54
27.457772731781006,-12.97,-2.66,-2.35,13.44
27.45856785774231,-14.51,-2.22,-2.0,14.81
27.458826065063477,-10.8,0.88,2.99,11.24
27.460715770721436,-6.42,0.32,2.4,6.86
27.471176862716675,-2.21,-0.48,-0.46,2.3
27.55675983428955,1.16,0.48,-2.41,2.71
27.557020902633667,3.36,1.48,-3.42,5.01
27.55728006362915,4.07,1.55,-3.64,5.67
27.557536840438843,3.19,0.92,-3.01,4.48
27.557792901992798,1.1,0.56,-1.43,1.88
27.55804991722107,-1.06,-0.01,-0.51,1.17
27.55882978439331,-2.47,-0.63,-0.36,2.57
27.5590877532959,-2.89,-0.71,0.08,2.97
27.56063175201416,-2.22,-0.45,0.57,2.33
27.570989847183228,-0.86,-0.13,0.64,1.07
27.655094861984253,0.18,0.13,0.19,0.29
27.655349731445312,0.53,0.13,-0.46,0.71
27.655613899230957,0.47,0.06,-0.62,0.78
27.6558780670166,0.24,0.0,-0.36,0.43
27.65614080429077,0.07,-0.06,-0.09,0.12
27.656401872634888,0.01,-0.13,0.1,0.16
27.65719985961914,0.01,-0.11,0.21,0.23
27.657464027404785,0.07,0.04,0.2,0.21
27.66015887260437,0.17,0.19,0.24,0.35
27.67072105407715,0.3,0.18,0.34,0.48
27.75610089302063,0.31,0.14,0.53,0.62
27.75636887550354,0.21,0.13,0.74,0.78
27.756613731384277,0.18,0.13,0.84,0.86
27.756875038146973,0.19,0.11,0.69,0.72
27.75712776184082,0.3,0.11,0.54,0.62
27.75739097595215,0.51,0.02,0.66,0.83
27.75820302963257,0.77,-0.05,0.96,1.23
27.758460998535156,1.09,-0.17,1.02,1.5
27.760118007659912,1.35,-0.14,0.65,1.5
27.7706298828125,1.48,-0.03,0.06,1.48
27.856473922729492,1.56,0.3,-0.22,1.6
27.856740951538086,1.64,0.64,0.02,1.76
27.85700273513794,1.76,0.59,0.34,1.88
27.85726499557495,1.83,0.42,0.59,1.96
27.85752296447754,1.74,0.57,1.2,2.18
27.85778284072876,1.51,0.72,1.64,2.34
27.858566761016846,1.29,1.03,1.51,2.23
27.8588228225708,1.24,1.38,1.14,2.17
27.859923839569092,1.58,2.26,1.05,2.95
27.87050771713257,2.61,2.79,1.46,4.08
27.954463958740234,3.21,2.35,1.76,4.35
27.954740047454834,4.07,2.71,1.87,5.23
27.95500683784485,4.39,3.44,2.24,6.01
27.955277919769287,4.63,3.95,2.61,6.62
27.95555877685547,5.02,5.53,3.6,8.29
27.95581889152527,6.55,7.65,4.39,10.98
27.956620931625366,9.12,8.57,4.79,13.4
27.956883907318115,11.14,8.92,5.56,15.31
27.959869861602783,12.26,10.19,7.0,17.41
27.9704327583313,12.3,13.2,9.05,20.18
28.05544900894165,12.29,14.85,9.67,21.56
28.055722951889038,13.31,10.1,3.78,17.13
28.055986881256104,11.99,5.88,-2.1,13.51
28.056243896484375,7.29,5.71,-9.76,13.45
28.056505918502808,-2.1,9.05,-15.52,18.08
28.056763887405396,-12.03,17.61,-14.02,25.52
28.05756688117981,-15.57,21.47,-7.67,27.6
28.057824850082397,-7.92,9.11,-0.05,12.07
28.059724807739258,-3.39,3.86,2.01,5.51
28.070315837860107,-5.44,0.31,0.37,5.46
28.15604877471924,-3.12,1.22,1.94,3.87
28.156311988830566,3.28,3.41,2.87,5.53
28.156571865081787,7.93,2.37,1.41,8.39
28.156831741333008,10.36,0.59,0.1,10.37
28.15709400177002,11.37,-1.01,-0.03,11.41
28.157363891601562,11.23,-2.22,0.93,11.48
28.158155918121338,10.17,-3.29,2.24,10.92
28.15841293334961,8.56,-4.13,3.12,10.0
28.15962505340576,6.7,-4.49,3.86,8.94
28.17003893852234,4.88,-4.15,4.61,7.89
28.256622791290283,3.39,-3.67,4.33,6.61
28.256892919540405,2.3,-3.54,2.99,5.17
28.25715184211731,1.89,-3.76,1.59,4.49
28.257411003112793,1.91,-3.54,1.41,4.26
28.25767183303833,2.34,-3.15,1.11,4.07
28.257927894592285,2.22,-3.04,1.13,3.93
28.258763790130615,2.28,-3.98,0.19,4.59
28.259049892425537,3.0,-4.69,-0.74,5.61
28.25947594642639,3.19,-4.85,0.92,5.87
28.269922733306885,2.61,-5.34,1.06,6.03
28.35617184638977,1.5,-5.95,0.9,6.2
28.356432914733887,0.79,-6.36,1.1,6.5
28.35669493675232,0.57,-6.44,1.89,6.73
28.356953859329224,0.6,-6.34,2.13,6.71
28.35720992088318,0.39,-5.94,1.24,6.08
28.357478857040405,-0.79,-5.21,-0.51,5.29
28.358275890350342,-3.01,-4.45,-2.71,6.01
28.358542919158936,-5.83,-3.14,-5.02,8.3
28.3592529296875,-9.08,-0.63,-6.6,11.24
28.369783878326416,-11.41,0.93,-7.17,13.5
28.457023859024048,-12.22,1.1,-7.65,14.45
28.457287788391113,-12.34,0.77,-8.38,14.93
28.457555770874023,-12.22,0.95,-8.39,14.85
28.45781683921814,-12.41,1.19,-8.58,15.13
28.458077907562256,-14.06,0.96,-10.38,17.5
28.458335876464844,-16.57,0.46,-11.61,20.23
28.459329843521118,-17.47,-0.96,-11.09,20.71
28.459589958190918,-14.36,2.61,-7.0,16.18
28.45984983444214,-7.21,6.74,-3.62,10.51
28.469727993011475,-4.78,-2.25,-9.9,11.22
28.556763887405396,-0.4,9.49,5.33,10.89
28.557031869888306,9.67,17.67,15.18,25.22
28.55729103088379,10.94,10.9,4.58,16.1
28.557548999786377,1.06,1.59,-13.08,13.21
28.55780792236328,-6.41,-0.45,-13.05,14.54
28.558063983917236,-9.37,2.14,-0.92,9.65
28.55898904800415,-9.99,-2.27,3.98,10.99
28.55924701690674,-11.05,-4.56,2.09,12.13
28.559502840042114,-9.98,-0.62,0.95,10.04
28.56953477859497,-7.06,3.06,0.24,7.69
28.657875061035156,-4.64,1.56,-2.46,5.47
28.658179759979248,-1.49,-0.16,-3.52,3.82
28.65847396850586,1.91,0.25,-3.33,3.84
28.65891194343567,4.29,1.32,-2.36,5.07
28.65917992591858,4.72,1.04,-1.92,5.2
28.659442901611328,2.89,0.61,-1.94,3.53
28.660236835479736,-0.09,0.68,-1.57,1.71
28.660500049591064,-1.92,-0.04,-1.13,2.22
28.66078281402588,-2.37,-0.8,-0.27,2.51
28.669447898864746,-2.0,-0.77,0.45,2.18
28.76033878326416,-1.11,-0.21,0.98,1.49
28.760632038116455,-0.31,-0.05,0.41,0.51
28.760901927947998,0.05,0.06,-0.86,0.86
28.76117181777954,0.32,0.22,-1.52,1.56
28.761836051940918,0.54,0.23,-0.81,1.0
28.76210880279541,0.6,0.08,0.18,0.63
28.762962818145752,0.4,-0.08,0.38,0.55
28.76321291923523,0.03,0.0,0.38,0.38
28.763478755950928,-0.16,0.12,0.57,0.6
28.769157886505127,-0.01,0.02,0.62,0.62
28.857910871505737,0.35,-0.03,0.45,0.57
28.858393907546997,0.69,0.09,0.47,0.83
28.858684062957764,1.03,0.14,0.62,1.21
28.85897397994995,1.26,0.13,0.67,1.43
28.85925793647766,1.37,0.14,0.54,1.47
28.859539031982422,1.25,0.22,0.59,1.39
28.860424995422363,1.06,0.13,0.83,1.35
28.86070489883423,0.81,-0.13,1.01,1.3
28.860962867736816,0.64,-0.19,0.95,1.16
28.869146823883057,0.58,0.09,0.49,0.76
28.955437898635864,0.72,0.36,-0.12,0.81
28.95570993423462,0.97,0.64,-0.29,1.19
28.95598292350769,1.2,0.81,0.12,1.45
28.95624303817749,1.4,0.71,0.62,1.68
28.95650005340576,1.5,0.35,0.96,1.81
28.95675802230835,1.47,0.59,1.75,2.36
28.95756983757019,1.43,1.36,1.84,2.69
28.9578537940979,1.8,2.06,0.99,2.9
28.958399772644043,2.17,1.88,0.49,2.91
28.96900701522827,2.54,1.86,0.92,3.27
29.05527091026306,2.99,2.17,1.31,3.91
29.055532932281494,3.12,2.58,1.69,4.38
29.05579376220703,3.04,2.77,2.16,4.64
29.05604887008667,3.11,3.36,3.01,5.47
29.056306838989258,4.04,4.71,3.53,7.13
29.056562900543213,5.78,6.78,4.13,9.82
29.057358741760254,8.1,7.06,3.94,11.44
29.05764889717102,9.47,6.41,3.97,12.1
29.058214902877808,9.8,6.64,5.23,12.94
29.068903923034668,9.31,8.67,6.39,14.23
29.15585684776306,8.83,11.34,7.48,16.2
29.156965732574463,9.62,10.33,5.34,15.09
29.15723180770874,10.44,7.13,1.53,12.73
29.1575288772583,9.38,6.69,-2.26,11.74
29.157797813415527,4.07,7.71,-10.31,13.5
29.158217906951904,-5.15,12.05,-14.23,19.34
29.159008026123047,-11.12,19.18,-10.17,24.39
29.159270763397217,-10.97,18.22,-4.35,21.7
29.1595299243927,-3.46,8.1,0.97,8.86
29.168766975402832,-1.02,4.45,1.67,4.86
29.178252935409546,-4.66,1.07,-0.81,4.84
29.256836891174316,-2.29,3.43,0.33,4.13
29.25710391998291,3.72,5.86,0.63,6.96
29.25740098953247,8.34,4.52,-1.45,9.59
29.257856845855713,10.88,2.86,-2.28,11.47
29.258115768432617,11.42,0.93,-1.2,11.52
29.25888991355896,9.99,-0.76,0.94,10.06
29.259151935577393,7.39,-2.36,2.79,8.24
29.25940990447998,5.07,-3.98,3.45,7.31
29.268537044525146,3.22,-5.03,3.96,7.16
29.27790594100952,2.14,-5.39,4.95,7.62
29.355968952178955,1.65,-5.3,5.73,7.97
29.35624599456787,1.36,-5.09,5.23,7.42
29.356534004211426,1.37,-4.77,3.37,5.99
29.356799840927124,1.9,-4.24,1.4,4.85
29.35705804824829,2.58,-3.6,0.86,4.51
29.35807704925537,3.18,-3.39,0.72,4.7
29.358337879180908,3.52,-3.66,0.66,5.12
29.358592987060547,3.68,-4.54,1.01,5.93
29.368367910385132,3.52,-5.34,1.78,6.63
29.377826929092407,3.09,-5.87,2.23,6.99
29.45753288269043,2.53,-6.11,2.13,6.94
29.45780086517334,2.04,-6.29,1.74,6.83
29.458061933517456,1.9,-6.61,1.48,7.03
29.458318948745728,2.15,-7.01,1.43,7.47
29.458577871322632,2.69,-7.05,1.75,7.74
29.459352016448975,2.92,-6.73,1.86,7.56
29.459609031677246,2.08,-6.12,1.32,6.59
29.459864854812622,0.3,-5.32,0.09,5.32
29.468286991119385,-1.93,-4.3,-1.72,5.01
29.47780704498291,-4.68,-2.6,-4.13,6.76
29.55665397644043,-7.63,0.07,-6.37,9.93
29.556922912597656,-10.14,3.1,-8.04,13.3
29.557350873947144,-11.39,4.14,-10.26,15.87
29.557621002197266,-10.94,3.34,-11.23,16.02
29.55788803100586,-10.51,3.38,-10.27,15.07
29.558734893798828,-11.63,3.49,-10.12,15.8
29.558997869491577,-14.32,3.06,-10.95,18.28
29.559257984161377,-16.48,6.8,-10.26,20.56
29.56808090209961,-12.8,9.44,-8.52,18.04
29.577510833740234,-12.28,-3.58,-16.28,20.7
29.65884780883789,-10.15,-0.86,-5.68,11.66
29.659117937088013,2.38,10.77,12.18,16.43
29.659384727478027,12.94,13.43,13.77,23.18
29.65964698791504,8.91,8.02,3.47,12.47
29.659905910491943,-4.64,3.29,-9.78,11.31
29.660719871520996,-14.85,-0.88,-12.54,19.45
29.660980939865112,-15.74,-0.01,-5.64,16.71
29.6612389087677,-12.35,1.83,2.13,12.66
29.667916774749756,-7.71,-1.11,5.72,9.66
29.677480936050415,-4.08,-1.98,3.23,5.56
29.75774884223938,-2.89,-0.63,-0.2,2.96
29.758028984069824,-2.22,1.03,-3.46,4.23
29.758293867111206,-0.66,2.51,-5.26,5.86
29.75855302810669,2.2,1.92,-4.59,5.44
29.758814811706543,4.67,0.5,-2.55,5.34
29.759646892547607,4.73,-0.04,-1.1,4.85
29.75991201400757,2.21,0.11,-0.92,2.39
29.760169982910156,-0.79,0.27,-1.34,1.57
29.76777982711792,-2.52,-0.3,-1.22,2.81
29.777246952056885,-2.81,-0.88,-0.14,2.94
29.859014987945557,-2.13,-0.7,1.17,2.52
29.85928201675415,-1.0,-0.33,1.21,1.6
29.85954475402832,-0.13,0.02,0.03,0.13
29.85980796813965,0.19,0.37,-0.49,0.64
29.86006784439087,0.26,0.28,-0.14,0.4
29.860864877700806,0.3,-0.07,0.15,0.34
29.861125946044922,0.37,-0.2,0.13,0.44
29.86138677597046,0.42,-0.04,0.03,0.42
29.867536067962646,0.5,0.08,0.06,0.5
29.87712788581848,0.6,0.14,0.31,0.68
29.959290981292725,0.72,0.16,0.67,0.99
29.959553718566895,0.75,0.12,0.81,1.11
29.95981788635254,0.84,0.13,0.66,1.07
29.960075855255127,0.96,0.15,0.32,1.02
29.96032190322876,1.11,0.15,0.26,1.14
29.961084842681885,1.19,0.14,0.49,1.29
29.961339950561523,1.14,0.03,0.74,1.35
29.96161389350891,0.91,-0.01,0.86,1.25
