time,ax,ay,az,atotal
0.002997875213623047,0.32,-0.67,-0.96,1.21
0.004703998565673828,0.12,-0.7,-0.64,0.95
0.006124019622802734,-0.62,0.71,0.75,1.2
0.025140762329101562,-0.73,1.33,-0.36,1.55
0.026610851287841797,-0.2,-0.13,-0.4,0.46
0.03530406951904297,0.43,-0.25,0.12,0.51
0.043528079986572266,0.36,-0.01,-0.04,0.36
0.05340099334716797,-0.13,0.15,-0.14,0.24
0.06377387046813965,-0.42,0.09,0.07,0.43
0.0758519172668457,-0.18,-0.03,0.27,0.32
0.09876489639282227,0.14,-0.13,0.23,0.29
0.10070085525512695,0.14,-0.11,0.16,0.23
0.10308289527893066,0.09,-0.01,0.09,0.12
0.11968803405761719,0.06,0.01,0.04,0.07
0.12292289733886719,-0.01,0.0,0.07,0.07
0.1361560821533203,0.13,-0.04,0.08,0.15
0.14297795295715332,0.24,-0.06,0.04,0.25
0.15397095680236816,0.1,-0.01,-0.01,0.1
0.16319799423217773,-0.06,-0.02,-0.02,0.06
0.17511487007141113,-0.1,-0.01,0.01,0.1
0.2005019187927246,-0.08,-0.01,0.06,0.1
0.20219898223876953,-0.06,0.01,0.09,0.1
0.20350289344787598,-0.03,0.05,0.03,0.06
0.21985387802124023,-0.02,0.03,0.04,0.05
0.22220492362976074,-0.04,0.0,0.14,0.14
0.23498773574829102,-0.07,-0.04,0.25,0.26
0.24209094047546387,-0.04,-0.09,0.23,0.25
0.25198793411254883,0.01,-0.08,0.15,0.17
0.2625138759613037,-0.01,0.03,0.1,0.1
0.2742278575897217,0.0,-0.01,0.09,0.09
0.3037548065185547,0.13,-0.06,0.08,0.16
0.30549097061157227,0.07,-0.02,0.0,0.07
0.30692291259765625,-0.05,0.06,-0.05,0.09
0.3207719326019287,0.0,0.02,0.0,0.02
0.32225799560546875,0.05,-0.05,0.11,0.13
0.335953950881958,0.06,-0.08,0.23,0.25
0.34133195877075195,0.08,-0.1,0.24,0.27
0.3518218994140625,0.08,-0.15,0.22,0.27
0.36189699172973633,0.16,-0.23,0.14,0.31
0.37456703186035156,0.22,-0.14,0.06,0.26
0.4023559093475342,0.2,-0.06,0.0,0.2
0.40407276153564453,0.2,-0.14,-0.13,0.27
0.40540409088134766,0.2,-0.17,0.02,0.26
0.4202909469604492,0.11,0.01,0.18,0.21
0.4217839241027832,-0.13,0.0,0.27,0.29
0.43596887588500977,-0.13,-0.14,0.56,0.59
0.44057273864746094,0.11,-0.32,0.61,0.69
0.4515259265899658,0.09,-0.32,0.61,0.69
0.4611499309539795,-0.1,-0.19,0.78,0.8
0.47330188751220703,-0.03,-0.09,0.45,0.45
0.5025577545166016,0.04,-0.16,0.21,0.26
0.5043599605560303,0.01,-0.04,0.18,0.18
0.5058097839355469,0.0,0.07,0.05,0.08
0.5206680297851562,0.07,-0.15,-0.1,0.19
0.5221700668334961,-0.16,0.07,0.1,0.2
0.5364670753479004,-0.19,0.14,0.07,0.24
0.5398950576782227,-0.13,-0.08,0.0,0.15
0.5517148971557617,-0.09,-0.05,-0.01,0.1
0.5598897933959961,-0.14,0.03,0.01,0.14
0.5701789855957031,-0.19,0.05,-0.03,0.19
0.6042108535766602,-0.24,0.0,0.0,0.24
0.6059689521789551,-0.24,0.02,0.23,0.33
0.6072728633880615,-0.24,-0.06,0.32,0.4
0.6208958625793457,-0.31,-0.13,0.26,0.42
0.6223907470703125,-0.38,-0.09,0.24,0.45
0.6364398002624512,-0.29,-0.06,0.17,0.34
0.6391079425811768,-0.13,-0.05,0.15,0.2
0.6519858837127686,-0.06,-0.03,0.29,0.29
0.6591057777404785,-0.06,-0.06,0.37,0.37
0.6717319488525391,-0.02,-0.05,0.23,0.23
0.6792728900909424,0.02,-0.04,0.04,0.06
0.7057399749755859,-0.03,0.0,-0.09,0.09
0.7073068618774414,-0.12,0.07,-0.03,0.14
0.7089347839355469,-0.13,0.07,0.01,0.14
0.7214007377624512,-0.09,-0.01,-0.09,0.12
0.7285518646240234,-0.12,-0.07,-0.1,0.17
0.7384448051452637,-0.15,-0.03,-0.07,0.16
0.7487108707427979,-0.13,0.0,-0.06,0.14
0.7579879760742188,-0.14,0.0,-0.06,0.15
0.7688617706298828,-0.21,0.06,-0.07,0.22
0.7819468975067139,-0.17,0.07,-0.04,0.18
0.8057518005371094,-0.09,0.08,0.03,0.12
0.8073878288269043,-0.06,0.04,0.06,0.09
0.8089337348937988,-0.12,0.02,0.11,0.16
0.8207759857177734,-0.23,0.02,0.15,0.27
0.8279778957366943,-0.25,0.05,0.14,0.29
0.8376140594482422,-0.17,0.06,0.09,0.2
0.8476569652557373,-0.06,0.03,0.04,0.07
0.8574609756469727,0.02,-0.01,-0.05,0.05
0.8676910400390625,0.05,-0.03,-0.08,0.09
0.8778929710388184,0.06,0.0,-0.03,0.06
0.903831958770752,0.09,-0.04,0.0,0.09
0.9055957794189453,0.03,-0.05,0.08,0.09
0.907139778137207,-0.08,-0.05,0.09,0.13
0.9207589626312256,-0.16,-0.03,0.05,0.17
0.9271440505981445,-0.19,0.04,0.05,0.2
0.936729907989502,-0.19,0.03,0.01,0.19
0.946995735168457,-0.06,0.02,-0.03,0.06
0.9567599296569824,0.09,0.03,0.0,0.09
0.9699697494506836,0.15,0.01,-0.02,0.15
0.9768619537353516,0.11,-0.01,-0.03,0.11
1.0021820068359375,-0.01,0.0,0.01,0.01
1.0039279460906982,-0.01,-0.01,0.05,0.05
1.0062179565429688,0.09,0.01,0.07,0.11
1.020953893661499,0.17,0.01,0.1,0.19
1.026202917098999,0.08,0.0,0.01,0.08
1.036637783050537,-0.12,0.02,0.0,0.12
1.0461969375610352,-0.18,0.12,0.11,0.24
1.0558099746704102,-0.12,0.13,0.09,0.19
1.068389892578125,0.01,0.1,0.08,0.12
1.0762319564819336,0.08,0.13,0.11,0.18
1.1087617874145508,0.01,0.13,0.04,0.13
1.1104660034179688,-0.16,0.06,-0.03,0.17
1.1119248867034912,-0.28,-0.02,-0.03,0.28
1.1173100471496582,-0.19,0.02,0.1,0.21
1.1255788803100586,0.05,0.03,0.14,0.15
1.137253761291504,0.22,0.04,0.17,0.28
1.1457328796386719,0.17,0.02,0.12,0.2
1.155059814453125,-0.07,-0.01,0.03,0.07
1.1653468608856201,-0.33,-0.1,-0.08,0.35
1.1756629943847656,-0.43,-0.11,-0.12,0.45
1.2087419033050537,-0.26,-0.02,-0.02,0.26
1.21052885055542,-0.03,-0.04,-0.05,0.07
1.2120099067687988,0.12,-0.12,-0.03,0.17
1.217482089996338,0.19,-0.03,0.13,0.23
1.2250127792358398,0.25,0.05,0.17,0.3
1.2367677688598633,0.26,0.06,0.11,0.28
1.244736909866333,0.2,0.01,0.05,0.2
1.2544660568237305,0.11,0.02,0.02,0.11
1.2646350860595703,0.01,0.04,0.06,0.07
1.2746849060058594,-0.09,0.0,0.02,0.09
1.3066229820251465,-0.13,0.0,0.03,0.13
1.3083419799804688,-0.16,-0.09,-0.05,0.19
1.3097448348999023,-0.23,-0.21,-0.21,0.37
1.3209378719329834,-0.23,-0.24,-0.22,0.39
1.3240549564361572,-0.09,-0.07,-0.23,0.25
1.3365387916564941,0.11,0.2,-0.11,0.25
1.343754768371582,0.11,0.22,-0.14,0.28
1.3535408973693848,-0.03,0.19,-0.17,0.25
1.363703966140747,-0.15,0.08,-0.21,0.27
1.3767647743225098,-0.26,-0.01,-0.1,0.27
1.4037199020385742,-0.32,-0.01,-0.02,0.32
1.4055018424987793,-0.27,0.06,0.12,0.3
1.4069609642028809,-0.3,0.05,0.14,0.33
1.4210748672485352,-0.35,-0.04,0.03,0.35
1.423135757446289,-0.38,-0.19,-0.17,0.45
1.4363689422607422,-0.25,-0.18,-0.21,0.37
1.4432120323181152,-0.01,-0.06,-0.16,0.17
1.4528250694274902,0.22,0.09,-0.08,0.25
1.4634270668029785,0.39,0.32,0.04,0.5
1.4755377769470215,0.26,0.28,-0.09,0.39
1.482666015625,0.0,0.11,-0.16,0.19
1.5070219039916992,-0.13,-0.01,-0.21,0.24
1.5086498260498047,-0.03,-0.02,-0.19,0.19
1.5121939182281494,0.12,0.0,-0.09,0.15
1.522603988647461,0.18,-0.1,-0.19,0.28
1.5325360298156738,0.22,-0.07,-0.04,0.23
1.5422399044036865,0.2,-0.01,0.14,0.24
1.5522968769073486,0.15,0.03,0.22,0.26
1.5621857643127441,0.16,0.04,0.21,0.26
1.5748939514160156,0.21,0.13,0.28,0.37
1.5826077461242676,0.14,0.12,0.25,0.31
1.6096129417419434,-0.07,0.0,0.17,0.18
1.6111540794372559,-0.06,0.01,0.12,0.13
1.6128909587860107,0.12,0.03,0.08,0.14
1.6216578483581543,0.19,0.03,0.06,0.2
1.6317157745361328,0.16,0.01,-0.03,0.16
1.6415948867797852,0.1,-0.01,-0.06,0.11
1.6516199111938477,0.04,0.02,-0.09,0.1
1.6614990234375,0.08,0.09,-0.14,0.18
1.673964023590088,0.11,0.14,-0.17,0.24
1.6840109825134277,0.01,0.09,-0.14,0.16
1.7083477973937988,-0.11,0.06,-0.01,0.12
1.7099628448486328,-0.11,0.04,0.02,0.11
1.7115528583526611,-0.05,0.02,0.0,0.05
1.72102689743042,0.02,0.03,-0.04,0.05
1.730936050415039,0.01,0.01,-0.11,0.11
1.7410368919372559,-0.07,0.02,-0.1,0.12
1.750946044921875,-0.03,0.07,-0.01,0.07
1.7608139514923096,0.04,0.05,0.03,0.07
1.7711219787597656,-0.01,0.0,0.09,0.09
1.7835640907287598,-0.12,-0.02,0.07,0.14
1.8051629066467285,-0.16,-0.04,0.0,0.16
1.8067779541015625,0.03,0.01,-0.05,0.05
1.810154914855957,0.19,0.03,-0.03,0.19
1.82076096534729,0.1,0.0,0.01,0.1
1.830143928527832,-0.11,0.01,0.06,0.12
1.8401589393615723,-0.2,0.03,0.07,0.21
1.8500170707702637,0.04,0.02,0.04,0.06
1.860050916671753,0.29,-0.03,0.05,0.29
1.8700919151306152,0.22,-0.08,0.05,0.23
1.883680820465088,0.02,-0.02,0.1,0.1
1.913754940032959,-0.15,0.0,0.06,0.16
1.9153270721435547,-0.19,0.04,0.0,0.19
1.9166569709777832,-0.05,0.07,-0.09,0.12
1.9191250801086426,0.11,0.02,-0.06,0.12
1.9295520782470703,0.23,-0.02,0.03,0.23
1.9395537376403809,0.21,-0.07,0.04,0.22
1.949294090270996,0.06,-0.03,-0.02,0.06
1.9592580795288086,-0.07,0.04,-0.08,0.11
1.968876838684082,-0.04,0.07,-0.02,0.08
1.9790749549865723,-0.01,0.01,0.07,0.07
2.0113320350646973,-0.03,0.0,0.14,0.14
2.013021945953369,0.01,-0.07,0.09,0.11
2.014708995819092,0.07,-0.04,0.05,0.09
2.018688917160034,0.08,0.03,0.06,0.1
2.0369338989257812,0.01,0.03,-0.02,0.03
2.038388967514038,-0.02,0.03,-0.02,0.04
2.0522608757019043,-0.05,0.04,-0.02,0.06
2.0583057403564453,-0.09,0.0,-0.07,0.11
2.0685458183288574,-0.07,0.0,-0.01,0.07
2.082047939300537,-0.02,-0.02,0.03,0.04
2.110379934310913,-0.06,-0.03,0.04,0.07
2.111999988555908,-0.08,0.01,0.01,0.08
2.1137337684631348,0.0,0.02,0.01,0.02
2.1182289123535156,0.0,0.04,-0.05,0.06
2.137502908706665,-0.07,0.05,-0.09,0.12
2.138964891433716,-0.08,0.06,-0.02,0.1
2.152435779571533,-0.11,0.07,0.04,0.13
2.157787799835205,-0.15,0.04,0.03,0.15
2.171902894973755,-0.16,0.02,0.03,0.16
2.1775717735290527,-0.1,0.03,0.08,0.13
2.2084360122680664,-0.06,0.01,0.05,0.07
2.210129737854004,0.03,0.02,-0.08,0.08
2.2117958068847656,0.07,0.06,-0.17,0.19
2.2188000679016113,0.0,0.03,-0.11,0.11
2.2273008823394775,-0.07,-0.02,-0.08,0.1
2.2373480796813965,0.03,-0.02,0.01,0.03
2.2470498085021973,0.15,-0.03,0.11,0.18
2.256870746612549,0.17,-0.05,0.22,0.28
2.266982078552246,0.13,-0.08,0.21,0.25
2.279390811920166,0.03,-0.04,0.13,0.13
2.2887277603149414,0.03,0.0,0.06,0.06
2.3111400604248047,0.07,-0.03,0.03,0.08
2.312842845916748,0.07,-0.02,0.05,0.08
2.3164658546447754,0.04,0.0,0.03,0.05
2.3266000747680664,-0.08,0.02,-0.06,0.1
2.33652400970459,-0.12,0.05,-0.11,0.17
2.3463568687438965,0.01,0.06,-0.04,0.07
2.356091022491455,0.08,0.01,0.03,0.08
2.3662679195404053,-0.05,-0.01,0.04,0.06
2.3764657974243164,-0.12,0.01,-0.08,0.14
2.3886568546295166,-0.04,0.05,-0.1,0.11
2.4124350547790527,-0.02,0.04,0.06,0.07
2.4140689373016357,0.0,-0.07,0.11,0.13
2.4156298637390137,0.0,-0.07,0.1,0.12
2.425524950027466,-0.06,0.0,0.07,0.09
2.4358508586883545,0.02,0.03,0.08,0.08
2.4455647468566895,0.14,-0.01,0.07,0.15
2.4554758071899414,0.02,-0.01,0.03,0.03
2.4654159545898438,-0.12,0.06,-0.02,0.13
2.4752678871154785,-0.09,0.06,-0.08,0.13
2.485764980316162,-0.05,0.02,-0.04,0.06
2.5099499225616455,0.0,0.0,0.06,0.06
2.511345863342285,0.09,-0.05,0.06,0.11
2.5148158073425293,0.09,-0.02,0.06,0.11
2.5248427391052246,0.02,0.02,0.03,0.04
2.5349888801574707,-0.1,0.07,0.02,0.12
2.5447988510131836,-0.14,0.08,-0.02,0.16
2.554642915725708,-0.14,0.06,-0.06,0.16
2.5649819374084473,-0.22,0.06,-0.02,0.22
2.57722806930542,-0.17,0.08,-0.09,0.2
2.5869297981262207,-0.02,0.11,-0.21,0.23
2.6116409301757812,-0.04,0.14,-0.18,0.23
2.6133179664611816,-0.2,0.14,-0.1,0.26
2.6147260665893555,-0.23,0.13,-0.16,0.3
2.6243348121643066,-0.19,0.15,-0.28,0.37
2.6370058059692383,-0.41,0.15,-0.21,0.48
2.6441707611083984,-0.54,0.16,-0.13,0.57
2.6538889408111572,-0.19,0.1,-0.23,0.31
2.663753032684326,0.19,0.05,-0.07,0.2
2.6739919185638428,0.2,0.0,0.16,0.25
2.6865079402923584,0.01,-0.05,0.2,0.2
2.7175259590148926,-0.18,0.01,0.15,0.23
2.719174861907959,-0.16,0.09,0.07,0.19
2.720608949661255,0.02,0.05,0.01,0.05
2.737812042236328,0.09,-0.05,0.05,0.11
2.7392818927764893,0.14,-0.12,0.08,0.2
2.7539310455322266,0.18,-0.11,0.03,0.21
2.7553868293762207,0.09,-0.07,-0.04,0.12
2.7694430351257324,-0.06,-0.05,-0.1,0.12
2.773745059967041,-0.15,0.0,0.09,0.17
2.788829803466797,-0.13,-0.03,0.26,0.29
2.8128700256347656,-0.12,-0.17,0.27,0.34
2.814734935760498,-0.07,-0.16,0.24,0.29
2.816135883331299,-0.1,-0.02,0.16,0.18
2.82283878326416,-0.23,0.19,0.1,0.31
2.8327648639678955,-0.33,0.26,0.01,0.42
2.8426339626312256,-0.4,0.18,-0.14,0.46
2.852552890777588,-0.4,0.07,-0.17,0.44
2.8624298572540283,-0.33,0.01,-0.08,0.33
2.872893810272217,-0.33,0.03,0.21,0.39
2.88486385345459,-0.43,0.04,0.37,0.56
2.9114699363708496,-0.49,0.01,0.19,0.52
2.9131109714508057,-0.35,-0.01,-0.08,0.35
2.9145939350128174,-0.09,0.05,-0.28,0.29
2.9218828678131104,-0.04,0.09,-0.34,0.35
2.937643051147461,0.01,0.11,-0.26,0.28
2.941840887069702,0.17,0.07,-0.17,0.25
2.9528417587280273,0.11,-0.04,-0.12,0.16
2.9616198539733887,-0.07,-0.05,-0.09,0.12
2.9719457626342773,-0.23,-0.05,-0.07,0.24
2.9844179153442383,-0.64,-0.07,0.08,0.64
3.0110788345336914,-0.74,0.04,0.2,0.76
3.012704849243164,-0.29,0.05,0.28,0.4
3.0146329402923584,-0.12,-0.05,0.28,0.3
3.0210869312286377,-0.01,-0.1,-0.09,0.13
3.03745698928833,0.12,-0.06,-0.28,0.31
3.040864944458008,0.06,0.0,-0.13,0.14
3.053161859512329,0.0,0.03,0.09,0.09
3.0609209537506104,-0.05,0.02,0.17,0.17
3.0711469650268555,-0.15,0.04,0.06,0.16
3.084460735321045,-0.56,0.0,-0.24,0.6
3.093024969100952,-0.74,0.04,-0.35,0.81
3.1167960166931152,-0.78,0.03,-0.27,0.82
3.1185197830200195,-0.26,0.06,-0.19,0.32
3.1200170516967773,0.64,-0.08,0.16,0.66
3.138350009918213,0.94,-0.29,0.53,1.11
3.1400318145751953,0.58,-0.1,1.17,1.3
3.154176950454712,0.02,0.26,1.56,1.58
3.1602020263671875,0.08,0.43,1.3,1.37
3.169879913330078,0.68,0.01,0.64,0.93
3.1804537773132324,1.26,-0.4,0.61,1.45
3.192168951034546,1.47,-0.43,0.61,1.64
3.2151989936828613,1.49,-0.47,0.13,1.56
3.2173967361450195,1.46,-0.32,-0.11,1.49
3.2195019721984863,1.36,-0.24,-0.3,1.41
3.238539934158325,1.04,-0.3,-0.32,1.12
3.240041971206665,0.65,-0.18,0.18,0.69
3.254364013671875,0.21,0.0,0.32,0.38
3.2593507766723633,-0.12,0.1,0.04,0.16
3.26954984664917,-0.22,0.22,-0.28,0.41
3.282585859298706,-0.1,0.21,-0.5,0.55
3.2895498275756836,0.26,0.19,-0.47,0.56
3.3172669410705566,0.49,0.04,-0.28,0.56
3.3189730644226074,0.24,-0.18,-0.3,0.42
3.320330858230591,-0.1,-0.2,-0.45,0.5
3.3376708030700684,-0.18,-0.13,-0.53,0.57
3.33915376663208,-0.1,0.01,-0.19,0.21
3.354703903198242,-0.06,0.08,0.17,0.19
3.35851788520813,-0.22,0.05,0.08,0.23
3.370896816253662,-0.37,0.04,-0.49,0.61
3.3783769607543945,-0.24,0.08,-0.6,0.65
3.390833854675293,-0.06,0.11,-0.31,0.33
3.414829969406128,0.15,0.04,0.08,0.17
3.417052745819092,0.08,-0.12,0.34,0.36
3.4180638790130615,-0.39,-0.17,0.04,0.42
3.428175926208496,-0.75,0.01,-0.61,0.96
3.438048839569092,-0.5,0.26,-0.63,0.84
3.448086738586426,-0.14,0.32,-0.45,0.56
3.458026885986328,-0.06,0.29,-0.43,0.52
3.46799373626709,-0.52,0.43,-0.35,0.76
3.4778859615325928,-0.97,0.64,-0.22,1.18
3.488154888153076,-0.98,0.65,-0.26,1.2
3.5274100303649902,-0.71,0.59,-0.11,0.92
3.5290448665618896,-0.42,0.47,0.12,0.64
3.530500888824463,-0.31,0.3,0.18,0.46
3.535306930541992,-0.36,0.22,0.03,0.42
3.537142753601074,-0.47,0.25,-0.03,0.53
3.5545568466186523,-0.49,0.22,-0.24,0.58
3.556993007659912,-0.5,0.18,-0.43,0.68
3.568821907043457,-0.48,0.24,-0.43,0.68
3.577572822570801,-0.41,0.3,-0.59,0.77
3.5893959999084473,-0.24,0.31,-0.76,0.85
3.6187238693237305,-0.17,0.4,-0.58,0.72
3.6204748153686523,-0.32,0.49,-0.33,0.67
3.621654987335205,-0.68,0.52,-0.19,0.87
3.6380720138549805,-1.09,0.6,-0.32,1.28
3.639554977416992,-1.35,0.8,-0.88,1.79
3.6545138359069824,-1.32,1.18,-1.25,2.16
3.6562209129333496,-1.21,1.69,-1.28,2.44
3.669610023498535,-1.53,2.26,-1.43,3.08
3.6760189533233643,-2.03,2.71,-1.78,3.82
3.6866540908813477,-2.53,3.08,-2.24,4.57
3.721935749053955,-3.29,3.93,-2.66,5.77
3.7237167358398438,-3.69,5.24,-3.03,7.08
3.725209951400757,-3.93,6.42,-3.97,8.51
3.7384700775146484,-4.9,7.86,-4.54,10.31
3.7399449348449707,-6.82,9.42,-4.87,12.6
3.7546639442443848,-8.22,10.6,-5.2,14.38
3.7562408447265625,-9.0,10.9,-5.23,15.07
3.769592761993408,-8.98,10.52,-4.88,14.66
3.7752878665924072,-8.52,9.26,-5.15,13.59
3.786983013153076,-7.17,7.46,-5.6,11.76
3.821682929992676,-4.83,6.02,-4.62,8.99
3.82344388961792,-2.24,4.8,-3.57,6.38
3.824892997741699,0.61,3.03,-3.25,4.48
3.83842396736145,3.07,2.72,-1.37,4.32
3.839902877807617,2.16,0.27,-1.16,2.46
3.8540267944335938,-1.29,-3.69,-2.68,4.73
3.8555078506469727,-4.49,-6.5,-4.01,8.85
3.8698439598083496,-3.79,-4.45,-0.95,5.92
3.8745648860931396,-1.84,-4.92,0.19,5.25
3.8897838592529297,-4.35,-7.66,-3.0,9.3
3.8970327377319336,-6.98,-8.4,-4.36,11.75
3.925107955932617,-8.64,-7.54,-4.16,12.19
3.9267630577087402,-9.76,-6.36,-3.8,12.25
3.92850399017334,-9.56,-5.86,-2.87,11.57
3.9392828941345215,-7.62,-6.18,-1.56,9.93
3.944215774536133,-5.76,-6.76,-0.18,8.88
3.954150915145874,-5.08,-7.51,0.92,9.11
3.9642438888549805,-5.05,-7.92,1.34,9.48
3.974091053009033,-5.14,-7.73,1.25,9.36
3.9840779304504395,-5.1,-7.23,0.71,8.87
3.9943127632141113,-4.94,-6.62,0.37,8.26
4.02249002456665,-4.56,-5.97,0.16,7.51
4.024260997772217,-4.05,-5.58,0.19,6.89
4.025269031524658,-3.24,-5.02,0.92,6.04
4.038500785827637,-1.88,-4.14,1.55,4.8
4.043360948562622,0.21,-3.21,0.92,3.34
4.054579734802246,3.04,-1.89,0.33,3.59
4.063322067260742,6.07,-0.15,-0.08,6.07
4.073406934738159,8.28,1.35,-0.44,8.4
4.083522796630859,10.55,2.34,1.03,10.85
4.093620777130127,12.06,2.27,1.97,12.42
4.122428894042969,12.14,1.88,3.51,12.77
4.124314785003662,11.83,2.48,4.62,12.94
4.125784873962402,12.43,3.99,5.79,14.28
4.138519763946533,13.06,5.17,6.66,15.54
4.1426520347595215,13.91,6.01,8.36,17.3
4.154524803161621,12.63,6.13,6.93,15.65
4.162715911865234,10.7,9.79,2.12,14.65
4.1724138259887695,8.7,9.1,-8.81,15.36
4.182497024536133,-1.67,21.62,-12.5,25.02
4.192211866378784,-6.77,50.74,-5.57,51.49
4.2150559425354,-4.15,19.78,-8.89,22.07
4.216949939727783,-3.74,-5.22,-4.02,7.57
4.222171783447266,-4.53,-12.24,2.1,13.21
4.2319440841674805,-0.67,-15.34,5.12,16.18
4.242233753204346,5.42,-13.11,10.88,17.87
4.2520599365234375,7.98,-8.09,10.52,15.48
4.261899948120117,5.65,-2.57,5.75,8.46
4.271698951721191,3.14,0.48,1.43,3.48
4.2847747802734375,1.09,2.59,-3.23,4.28
4.293974876403809,-0.24,4.28,-4.56,6.25
4.324667930603027,-0.83,4.14,-2.14,4.73
4.326467990875244,-0.53,1.26,0.27,1.39
4.327901840209961,0.66,-0.87,2.61,2.82
4.338706016540527,1.65,-2.18,3.12,4.14
4.341275930404663,1.94,-2.38,1.47,3.4
4.353592872619629,1.81,-1.36,-0.16,2.26
4.360994815826416,1.3,-0.2,-0.56,1.42
4.370820999145508,0.6,0.22,-0.39,0.74
4.380931854248047,0.23,0.0,0.05,0.23
4.391195774078369,0.19,-0.19,0.39,0.47
4.426352024078369,0.38,-0.02,0.25,0.45
4.4281158447265625,0.62,0.21,0.07,0.65
4.429599761962891,0.66,0.17,0.04,0.68
4.431710958480835,0.29,0.05,0.23,0.37
4.440566062927246,-0.05,0.05,0.42,0.42
4.454722881317139,-0.03,0.06,0.56,0.56
4.460453987121582,0.08,-0.04,0.37,0.38
4.470253944396973,0.25,-0.2,-0.05,0.32
4.4803478717803955,0.39,-0.3,-0.49,0.69
4.4926958084106445,0.37,-0.18,-0.54,0.67
4.523446083068848,0.23,0.01,-0.39,0.45
4.525245904922485,0.01,0.17,-0.3,0.34
4.526593923568726,-0.26,0.34,-0.37,0.56
4.5391058921813965,-0.54,0.47,-0.57,0.91
4.54056191444397,-0.65,0.53,-0.4,0.92
4.555085897445679,-0.69,0.55,-0.07,0.88
4.559505939483643,-0.64,0.42,-0.23,0.79
4.570209980010986,-0.48,0.27,-0.78,0.95
4.579549789428711,-0.43,0.35,-1.02,1.16
4.589640855789185,-0.82,0.63,-0.86,1.34
4.624712944030762,-1.27,0.84,-0.78,1.71
4.626553058624268,-1.29,0.94,-0.77,1.77
4.628029823303223,-1.19,0.92,-0.72,1.66
4.639060020446777,-1.22,0.87,-0.84,1.71
4.640537738800049,-1.33,0.9,-1.13,1.96
4.654910087585449,-1.31,1.04,-1.3,2.11
4.658915996551514,-1.13,1.14,-1.34,2.09
4.670015811920166,-1.17,1.16,-1.0,1.92
4.678639888763428,-1.42,1.1,-0.93,2.02
4.688855886459351,-1.61,1.14,-1.03,2.22
4.701327800750732,-1.74,1.46,-1.07,2.51
4.727283000946045,-1.72,1.97,-1.23,2.89
4.728909969329834,-1.55,2.27,-1.42,3.09
4.730627059936523,-1.77,2.71,-1.29,3.48
4.738435745239258,-2.27,3.32,-1.09,4.16
4.7482008934021,-2.28,3.64,-0.94,4.39
4.75809907913208,-2.56,3.66,-1.1,4.59
4.768126964569092,-2.99,3.63,-0.99,4.8
4.778012752532959,-3.35,3.65,-1.04,5.06
4.7878899574279785,-3.73,3.8,-1.19,5.45
4.801352024078369,-4.37,4.42,-1.08,6.3
4.821702003479004,-5.15,5.18,-1.43,7.44
4.82336688041687,-5.94,6.09,-2.06,8.75
4.827358961105347,-7.0,7.38,-2.83,10.55
4.839583873748779,-8.3,8.65,-4.26,12.72
4.847569942474365,-9.23,9.39,-5.59,14.3
4.857440948486328,-10.0,9.97,-6.6,15.58
4.86735987663269,-10.53,9.87,-8.68,16.84
4.87724494934082,-10.56,10.75,-9.28,17.69
4.887549877166748,-8.91,13.89,-6.96,17.9
4.900820970535278,-5.01,15.11,-6.26,17.1
4.922895908355713,-0.05,14.23,-6.71,15.73
4.924577951431274,2.91,11.25,-5.17,12.71
4.9266579151153564,1.91,5.28,-5.42,7.8
4.939751863479614,-2.75,0.89,-5.46,6.17
4.946826934814453,-4.52,-1.59,-4.27,6.41
4.956536769866943,1.1,3.7,-0.07,3.86
4.966547966003418,6.85,4.83,4.86,9.68
4.976592063903809,4.17,-0.36,0.56,4.22
4.986470937728882,-1.38,-1.55,-2.26,3.06
4.996898889541626,-4.35,-1.21,-1.16,4.66
5.02243185043335,-6.31,-0.79,-1.24,6.47
5.024049758911133,-7.73,-0.71,-1.68,7.94
5.025819778442383,-7.49,-1.47,-1.69,7.81
5.039614915847778,-5.76,-2.89,-0.98,6.51
5.04598593711853,-4.34,-4.44,0.21,6.21
5.055730819702148,-4.09,-5.96,0.95,7.29
5.065615892410278,-4.39,-7.31,1.15,8.6
5.075618743896484,-4.68,-8.33,0.99,9.6
5.08623194694519,-4.81,-8.56,0.5,9.83
5.099353790283203,-5.1,-8.19,-0.61,9.66
5.12898588180542,-5.55,-7.84,-1.68,9.75
5.13067102432251,-5.96,-7.21,-2.34,9.64
5.1320648193359375,-6.45,-7.03,-2.79,9.94
5.134768962860107,-6.63,-7.35,-2.96,10.33
5.155529975891113,-6.65,-7.52,-2.86,10.43
5.1569647789001465,-6.37,-7.86,-2.5,10.42
5.17061185836792,-6.02,-8.05,-1.88,10.22
5.1750969886779785,-5.78,-8.52,-1.56,10.41
5.186727046966553,-5.67,-8.88,-1.46,10.63
5.195324897766113,-5.56,-8.95,-1.45,10.63
5.228902816772461,-5.39,-8.82,-1.33,10.42
5.2305989265441895,-5.14,-8.55,-1.15,10.04
5.232285976409912,-4.87,-8.23,-1.12,9.62
5.235290050506592,-4.58,-7.48,-0.89,8.81
5.255434036254883,-4.09,-6.2,-0.43,7.43
5.256858825683594,-2.81,-4.44,-0.45,5.27
5.270652770996094,-0.37,-2.45,-0.87,2.62
5.274040937423706,3.04,-0.01,-0.27,3.05
5.286922931671143,6.52,3.22,0.97,7.33
5.294661045074463,9.11,7.51,2.42,12.05
5.326485872268677,10.78,12.26,3.31,16.65
5.327445983886719,12.09,16.04,3.02,20.31
5.328395843505859,13.62,17.71,2.05,22.43
5.335117816925049,15.13,16.98,0.95,22.76
5.343368053436279,16.43,16.41,1.29,23.25
5.353726863861084,18.34,15.37,3.56,24.19
5.364418983459473,19.7,12.23,5.72,23.88
5.37326192855835,18.75,9.62,7.58,22.39
5.387115001678467,15.03,7.07,8.61,18.7
5.393308877944946,9.96,5.79,7.28,13.62
5.424316883087158,3.36,3.75,4.47,6.73
5.426201820373535,-2.6,-1.85,-1.76,3.64
5.427725791931152,-8.58,-5.76,-13.29,16.83
5.438530921936035,-19.6,15.65,-24.86,35.31
5.442780017852783,-17.83,45.16,3.5,48.67
5.455337047576904,-10.41,15.74,8.23,20.58
5.462593078613281,-1.11,-3.59,1.35,3.99
5.4725117683410645,6.31,-10.79,7.07,14.36
5.482486963272095,9.31,-12.99,8.37,18.04
5.492449760437012,10.79,-9.69,4.46,15.17
5.504848957061768,10.0,-5.49,2.47,11.67
5.527456760406494,5.74,-2.17,1.6,6.34
5.529104948043823,1.59,0.95,-0.56,1.93
5.532032012939453,-0.09,4.45,-2.61,5.15
5.5423197746276855,-0.47,3.63,-2.38,4.36
5.552102088928223,0.36,0.61,1.64,1.78
5.562173843383789,0.89,-1.03,3.21,3.48
5.572423934936523,0.92,-1.84,1.28,2.42
5.581830024719238,1.19,-1.22,0.0,1.7
5.591896057128906,1.47,-0.19,-0.39,1.53
5.604140758514404,1.29,0.07,-0.2,1.3
5.627809047698975,0.85,-0.18,0.21,0.89
5.629448890686035,0.79,-0.42,0.15,0.9
5.63148307800293,0.9,-0.41,0.0,0.98
5.641334056854248,0.84,-0.25,-0.01,0.87
5.6515607833862305,0.61,-0.11,0.14,0.63
5.661320924758911,0.32,-0.09,0.18,0.37
5.6712260246276855,0.13,-0.05,0.21,0.25
5.681143760681152,0.11,0.0,0.19,0.21
5.69120192527771,0.17,-0.03,0.18,0.24
5.701099872589111,0.23,-0.11,0.09,0.27
5.7274229526519775,0.2,-0.15,0.04,0.25
5.728996753692627,0.12,-0.15,-0.18,0.26
5.730517864227295,0.09,-0.03,-0.24,0.25
5.740560054779053,0.02,0.1,0.03,0.1
5.750755786895752,-0.1,0.11,0.19,0.24
5.760300874710083,-0.25,0.11,0.27,0.38
5.770616054534912,-0.33,0.14,0.24,0.43
5.780456066131592,-0.35,0.2,0.24,0.46
5.790383815765381,-0.52,0.29,0.33,0.68
5.800806999206543,-0.87,0.36,0.15,0.95
5.828016757965088,-1.09,0.45,-0.2,1.19
5.829700946807861,-1.13,0.5,-0.76,1.45
5.831471920013428,-1.04,0.6,-1.16,1.66
5.839829921722412,-1.14,0.76,-1.33,1.9
5.850056886672974,-1.51,0.98,-1.52,2.35
5.859924793243408,-1.71,1.18,-1.72,2.69
5.869877815246582,-1.67,1.26,-1.67,2.67
5.879551887512207,-1.5,1.26,-1.36,2.38
5.88960075378418,-1.41,1.14,-1.15,2.14
5.8998448848724365,-1.36,1.07,-0.93,1.96
5.933693885803223,-1.32,1.04,-1.05,1.98
5.935446739196777,-1.3,1.08,-1.25,2.1
5.936903953552246,-1.27,1.26,-1.21,2.15
5.956079959869385,-1.32,1.37,-1.33,2.32
5.95762300491333,-1.5,1.68,-1.25,2.57
5.972005844116211,-1.53,2.2,-1.03,2.87
5.973418951034546,-1.28,2.34,-1.54,3.07
5.9875428676605225,-1.31,2.72,-1.93,3.58
5.988986968994141,-1.21,3.18,-1.45,3.69
6.007455825805664,-1.74,3.18,-1.1,3.78
6.0291948318481445,-2.58,3.35,-0.54,4.26
6.031076908111572,-3.35,3.96,-0.3,5.19
6.032465934753418,-4.1,4.86,-0.47,6.37
6.038047790527344,-5.16,6.4,-0.45,8.23
6.056769847869873,-6.56,7.83,-2.08,10.42
6.058279037475586,-7.91,8.72,-3.58,12.3
6.069771766662598,-8.7,10.46,-4.34,14.28
6.078207015991211,-8.94,10.88,-7.71,16.05
6.0879669189453125,-8.86,10.06,-9.54,16.45
6.098031044006348,-8.9,9.07,-8.75,15.42
6.133002758026123,-9.0,8.3,-7.89,14.56
6.134389877319336,-8.66,9.36,-6.28,14.21
6.135408878326416,-6.24,11.78,-4.13,13.95
6.156766891479492,-1.65,12.07,-4.29,12.91
6.158269882202148,1.78,10.0,-4.5,11.1
6.172091007232666,0.99,4.51,-5.61,7.26
6.173583984375,-2.51,-0.4,-6.01,6.52
6.187938928604126,-5.13,-3.94,-5.58,8.54
6.189426898956299,-2.81,-3.07,-4.51,6.13
6.208579063415527,2.64,-0.62,1.5,3.09
6.233674049377441,1.2,-4.07,-1.8,4.6
6.235022068023682,-3.39,-5.37,-5.04,8.1
6.2360148429870605,-6.2,-4.72,-4.18,8.84
6.256083965301514,-8.11,-3.52,-3.65,9.56
6.257581949234009,-9.56,-2.96,-3.66,10.65
6.272043943405151,-9.75,-2.85,-3.02,10.59
6.273451805114746,-8.54,-3.32,-1.68,9.31
6.287785053253174,-7.08,-4.37,-0.08,8.32
6.289273738861084,-6.3,-5.61,0.97,8.49
6.304441928863525,-6.01,-6.56,1.06,8.95
6.30679178237915,-5.74,-6.62,0.53,8.77
6.344131946563721,-5.32,-5.71,-0.39,7.81
6.345615863800049,-4.78,-4.58,-1.64,6.82
6.346776008605957,-3.88,-3.44,-2.93,5.95
6.356662750244141,-3.03,-2.34,-4.07,5.58
6.358133792877197,-2.62,-1.27,-4.5,5.35
6.3722639083862305,-2.62,-0.38,-4.26,5.01
6.375797748565674,-2.23,-0.15,-4.35,4.89
6.385771751403809,-0.85,-0.91,-4.17,4.35
6.395791053771973,0.7,-1.93,-3.27,3.86
6.40545392036438,1.08,-2.85,-2.04,3.66
6.433752059936523,0.36,-3.51,-0.82,3.62
6.435549736022949,-0.42,-3.33,0.16,3.36
6.436588764190674,-0.88,-2.86,0.73,3.08
6.456276893615723,-1.34,-2.06,1.27,2.76
6.457773923873901,-1.49,-0.97,2.22,2.84
6.472486972808838,-0.58,0.2,3.8,3.84
6.474967956542969,1.58,1.24,5.7,6.04
6.4878928661346436,4.12,2.18,6.9,8.32
6.494961738586426,6.03,2.62,6.69,9.37
6.505244970321655,7.38,3.46,6.29,10.29
6.533755779266357,8.98,4.92,6.1,11.91
6.535245895385742,10.54,4.97,4.83,12.61
6.5362279415130615,11.47,4.97,3.74,13.04
6.556480884552002,12.29,5.68,3.5,13.98
6.557931900024414,13.15,5.59,3.05,14.61
6.57248592376709,14.59,6.24,3.39,16.22
6.574105739593506,15.4,6.81,3.4,17.17
6.5880560874938965,15.46,6.87,3.39,17.25
6.594295978546143,14.69,6.68,4.0,16.62
6.607615947723389,12.66,6.68,4.76,15.08
6.635704040527344,9.28,8.85,5.04,13.77
6.637426853179932,5.95,6.23,3.3,9.22
6.638438940048218,-0.2,-1.32,-3.09,3.36
6.6562159061431885,-10.43,-2.18,-10.52,14.97
6.657711982727051,-17.86,13.91,-7.36,23.8
6.672453880310059,-13.7,34.27,6.64,37.49
6.674005031585693,-4.54,16.98,1.84,17.67
6.687994956970215,2.56,-3.69,-0.74,4.55
6.6934709548950195,6.3,-9.74,2.71,11.91
6.703856945037842,9.44,-6.05,4.66,12.14
6.740356922149658,11.93,-1.39,5.57,13.23
6.741663932800293,8.47,-1.03,1.08,8.6
6.742738962173462,3.96,0.27,-0.49,3.99
6.756968975067139,1.72,0.28,1.6,2.36
6.758413791656494,1.02,-0.85,2.0,2.4
6.77249002456665,1.33,-0.93,1.8,2.42
6.773995876312256,1.2,-0.1,0.78,1.43
6.788157939910889,0.78,0.34,-0.04,0.85
6.792464971542358,0.78,0.14,-0.04,0.79
6.803708076477051,1.17,-0.45,0.93,1.56
6.842345952987671,1.29,-1.08,1.59,2.31
6.8437888622283936,1.21,-1.2,0.94,1.94
6.844799041748047,1.12,-0.62,0.49,1.37
6.856996059417725,0.97,-0.04,0.24,1.0
6.858435869216919,0.75,0.1,0.15,0.77
6.87238073348999,0.63,-0.02,0.2,0.66
6.873840808868408,0.53,-0.06,0.31,0.61
6.887872934341431,0.44,-0.06,0.4,0.59
6.891979932785034,0.41,-0.15,0.36,0.56
6.903879880905151,0.35,-0.26,0.04,0.43
6.937082767486572,0.29,-0.21,-0.38,0.52
6.938528060913086,0.15,0.04,-0.61,0.62
6.939539909362793,0.04,0.2,-0.4,0.44
6.956623077392578,0.01,0.17,-0.15,0.22
6.958093881607056,-0.2,0.11,-0.16,0.27
6.972304821014404,-0.46,0.22,-0.18,0.54
6.97383189201355,-0.52,0.31,-0.3,0.67
6.987981796264648,-0.42,0.35,-0.26,0.6
6.9910078048706055,-0.32,0.36,-0.2,0.52
7.001213073730469,-0.4,0.35,-0.07,0.53
7.037099838256836,-0.56,0.39,-0.07,0.68
7.038676738739014,-0.75,0.48,-0.21,0.91
7.039968967437744,-0.98,0.57,-0.21,1.15
7.057621002197266,-1.19,0.56,-0.39,1.37
7.059083938598633,-1.21,0.47,-0.73,1.48
7.0719218254089355,-1.34,0.47,-1.09,1.79
7.07335901260376,-1.42,0.7,-1.4,2.11
7.088160991668701,-1.31,0.94,-1.62,2.28
7.0902979373931885,-1.15,1.07,-1.75,2.35
7.1049699783325195,-1.14,0.99,-1.69,2.26
7.112917900085449,-1.36,0.91,-1.36,2.12
7.1500630378723145,-1.49,0.84,-1.08,2.02
7.151540756225586,-1.29,0.81,-0.85,1.74
7.1525068283081055,-1.04,0.81,-0.74,1.51
7.1729817390441895,-0.99,0.86,-0.85,1.56
7.174431800842285,-1.04,1.07,-1.09,1.84
7.189161777496338,-1.04,1.4,-1.31,2.18
7.1905198097229,-1.2,1.8,-1.53,2.64
7.2047278881073,-1.49,2.37,-0.97,2.96
7.206146955490112,-1.78,2.82,-0.98,3.47
7.221841812133789,-2.12,3.56,-0.85,4.22
7.24838399887085,-2.77,3.94,-0.8,4.88
7.2497239112854,-3.5,4.27,-0.67,5.56
7.250752925872803,-4.02,4.7,-0.94,6.25
7.253256797790527,-4.35,5.51,-0.95,7.08
7.259013891220093,-4.95,6.46,-1.67,8.3
7.269211769104004,-5.84,7.32,-2.48,9.68
7.27924108505249,-6.71,8.08,-2.81,10.87
7.288883924484253,-7.68,8.75,-3.0,12.02
7.299020767211914,-9.11,9.66,-4.28,13.95
7.308842897415161,-10.31,10.14,-6.89,16.01
7.337039947509766,-10.36,9.96,-8.71,16.8
7.338401794433594,-9.74,8.73,-11.05,17.12
7.339422941207886,-8.84,8.24,-10.67,16.12
7.35694694519043,-7.05,11.68,-6.06,14.92
7.358493804931641,-3.05,14.35,-2.97,14.96
7.3727030754089355,1.2,12.51,-3.72,13.1
7.378530025482178,1.73,6.38,-5.59,8.65
7.388359069824219,-1.61,1.47,-6.65,6.99
7.398306846618652,-5.01,-1.32,-5.77,7.75
7.4078528881073,-3.79,-3.07,-5.77,7.55
7.440542936325073,3.06,1.36,-0.25,3.35
7.441962957382202,6.65,-0.96,2.82,7.28
7.442988872528076,2.33,-4.71,-2.98,6.04
7.456904888153076,-3.03,-5.53,-4.43,7.7
7.458380937576294,-6.49,-5.21,-2.7,8.74
7.471901893615723,-8.82,-4.49,-2.45,10.19
7.477496862411499,-10.04,-4.2,-2.51,11.16
7.4872870445251465,-9.62,-4.54,-1.97,10.81
7.497469902038574,-7.35,-5.29,-0.77,9.08
7.5074028968811035,-5.11,-6.36,-0.38,8.16
7.548213958740234,-4.23,-7.27,-0.58,8.43
7.549499988555908,-4.52,-7.23,-0.93,8.57
7.5504679679870605,-5.13,-6.49,-1.47,8.4
7.552718877792358,-5.13,-6.16,-2.23,8.32
7.556897878646851,-4.5,-6.12,-2.72,8.06
7.56666374206543,-3.83,-6.31,-3.02,7.97
7.5770368576049805,-3.4,-6.37,-3.19,7.89
7.586741924285889,-3.25,-6.43,-3.2,7.88
7.596728801727295,-3.17,-6.71,-3.35,8.14
7.606692790985107,-3.01,-7.01,-3.44,8.36
7.6428749561309814,-2.66,-7.24,-3.59,8.5
7.644057750701904,-2.19,-7.3,-3.8,8.51
7.6451029777526855,-1.88,-7.05,-3.83,8.24
7.656452894210815,-2.1,-6.44,-3.32,7.54
7.657516956329346,-2.65,-5.38,-2.87,6.64
7.672911882400513,-2.28,-4.29,-2.61,5.51
7.676022052764893,-0.16,-3.29,-1.64,3.67
7.688476085662842,2.41,-2.33,-0.06,3.35
7.695929050445557,3.93,-1.31,1.29,4.33
7.705652952194214,3.58,0.18,2.08,4.14
7.740070819854736,2.96,2.79,3.01,5.06
7.74146294593811,3.92,6.27,4.05,8.43
7.7424750328063965,6.46,9.89,4.56,12.66
7.757497787475586,9.43,12.85,4.43,16.54
7.758969783782959,11.71,14.19,4.66,18.97
7.772047996520996,12.46,12.45,4.9,18.28
7.77527379989624,11.15,11.42,5.4,16.84
7.787502765655518,8.98,11.87,5.3,15.79
7.795675754547119,8.93,12.85,5.67,16.64
7.804977893829346,10.89,12.41,6.04,17.58
7.83981990814209,12.76,9.53,6.71,17.28
7.841190814971924,13.41,8.1,8.26,17.71
7.842211961746216,11.59,8.36,7.9,16.32
7.856648921966553,4.18,2.19,5.83,7.5
7.857681751251221,-3.98,-2.13,-1.95,4.91
7.873257875442505,-10.85,-5.4,-12.88,17.68
7.874753952026367,-17.58,4.82,-16.88,24.84
7.88876485824585,-11.98,31.29,-2.06,33.56
7.894459962844849,-2.22,23.95,0.39,24.05
7.904818058013916,2.65,1.36,2.8,4.08
7.91419792175293,4.59,-7.74,7.55,11.74
7.94691276550293,9.29,-6.0,6.84,13.0
7.948176860809326,10.22,-1.88,5.63,11.81
7.949429035186768,4.64,-0.09,0.17,4.64
7.953619003295898,0.87,0.25,-1.34,1.61
7.9732348918914795,0.32,0.18,-1.52,1.56
7.9747068881988525,1.8,-0.69,-1.31,2.33
7.988580942153931,3.13,-1.15,-0.15,3.33
7.993571758270264,2.79,-0.94,0.44,2.97
8.004678964614868,1.6,-0.78,0.71,1.91
8.013526916503906,0.64,-0.53,1.7,1.89
8.050325870513916,-0.01,-0.11,2.89,2.89
8.051483869552612,-0.26,0.09,1.98,1.99
8.052475929260254,0.25,0.12,0.53,0.59
8.073838949203491,0.81,-0.03,-0.21,0.83
8.075257778167725,0.98,-0.34,-0.47,1.13
8.089638948440552,1.09,-0.48,-0.38,1.25
8.091116905212402,1.18,-0.45,-0.33,1.3
8.105103015899658,1.03,-0.25,-0.3,1.1
8.106555938720703,0.6,0.01,-0.18,0.62
8.1215078830719,0.05,0.09,-0.08,0.13
8.151093006134033,-0.34,0.02,0.16,0.37
8.152982950210571,-0.5,-0.13,0.42,0.66
8.154469013214111,-0.31,-0.17,0.41,0.54
8.173686981201172,-0.03,0.08,0.09,0.12
8.1751708984375,0.14,0.28,-0.58,0.65
8.18999695777893,0.24,0.25,-1.0,1.05
8.191451072692871,0.27,0.12,-0.65,0.71
8.205137968063354,0.1,-0.06,-0.07,0.13
8.206608772277832,-0.28,-0.08,0.13,0.31
8.221956968307495,-0.63,0.21,0.02,0.66
8.251471996307373,-0.63,0.55,-0.23,0.86
8.252739906311035,-0.5,0.59,-0.42,0.88
8.253711938858032,-0.45,0.5,-0.45,0.8
8.273370742797852,-0.59,0.44,-0.42,0.84
8.274811744689941,-0.79,0.42,-0.42,0.98
8.289820909500122,-0.85,0.4,-0.52,1.07
8.29124402999878,-0.79,0.38,-0.72,1.13
8.304993867874146,-0.68,0.45,-0.82,1.15
8.30641508102417,-0.61,0.56,-0.74,1.11
8.321544885635376,-0.56,0.63,-0.61,1.04
8.350574016571045,-0.58,0.68,-0.53,1.03
8.351912021636963,-0.66,0.78,-0.44,1.11
8.35291576385498,-0.73,0.93,-0.23,1.2
8.373157978057861,-0.99,1.06,-0.36,1.49
8.374655961990356,-1.11,1.23,-0.25,1.67
8.389636993408203,-1.26,1.4,-0.3,1.9
8.391088008880615,-1.63,1.85,-0.04,2.46
8.405202865600586,-2.28,2.23,-0.16,3.19
8.406665802001953,-2.73,2.74,-0.2,3.87
8.421695947647095,-2.85,3.17,-0.51,4.29
8.45014476776123,-2.71,3.3,-1.19,4.43
8.451602935791016,-2.59,3.29,-1.7,4.51
8.452595949172974,-2.75,3.34,-2.03,4.77
8.47334098815918,-3.14,3.57,-2.26,5.26
8.474722862243652,-3.74,4.21,-2.46,6.14
8.490211963653564,-4.37,5.09,-2.85,7.28
8.491635799407959,-5.01,6.01,-3.19,8.44
8.505474090576172,-5.85,7.28,-3.13,9.84
8.506948947906494,-7.2,8.48,-4.21,11.89
8.521833896636963,-8.52,9.47,-5.86,14.02
8.55076289176941,-8.98,9.93,-7.14,15.17
8.55214786529541,-9.06,9.38,-8.26,15.43
8.55314588546753,-9.07,8.49,-9.46,15.61
8.573492050170898,-9.07,9.15,-8.93,15.67
8.574941873550415,-7.69,13.35,-4.75,16.12
8.58989691734314,-3.8,16.35,-2.28,16.93
8.59139108657837,0.25,14.42,-4.52,15.11
8.605512857437134,1.82,8.44,-7.07,11.15
8.606935977935791,0.1,2.57,-7.99,8.39
8.621811866760254,-3.53,-1.56,-6.21,7.31
8.650871753692627,-3.89,-4.19,-5.81,8.15
8.652310848236084,2.07,-0.34,-1.13,2.38
8.65330696105957,5.27,-1.16,4.57,7.07
8.673916816711426,0.4,-4.61,-0.8,4.69
8.67540979385376,-5.14,-5.64,-2.89,8.15
8.690109968185425,-8.67,-5.02,-1.78,10.17
8.69156789779663,-11.29,-3.67,-1.52,11.96
8.70571494102478,-13.03,-2.52,-1.37,13.34
8.70718789100647,-12.42,-1.9,-0.74,12.58
8.722514867782593,-9.23,-3.01,-0.07,9.7
8.724825859069824,-6.2,-4.79,0.67,7.86
8.772905826568604,-5.16,-6.06,0.95,8.01
8.774099826812744,-5.57,-6.33,0.86,8.47
8.77510404586792,-5.95,-6.01,0.55,8.47
8.791254043579102,-5.75,-5.57,-0.21,8.0
8.79272985458374,-5.17,-5.25,-0.97,7.43
8.806640863418579,-4.56,-5.01,-1.68,6.97
8.808088779449463,-4.12,-4.91,-2.33,6.81
8.822845935821533,-3.9,-4.92,-2.78,6.86
8.824289798736572,-3.85,-4.98,-3.03,6.98
8.838145971298218,-3.55,-5.14,-3.16,7.0
8.866816997528076,-2.9,-5.32,-3.14,6.82
8.868242740631104,-2.14,-5.35,-2.87,6.43
8.869219779968262,-1.59,-4.95,-2.55,5.79
8.870824813842773,-0.85,-4.5,-2.51,5.22
8.872245788574219,0.49,-4.27,-2.29,4.87
8.876568794250488,1.77,-3.88,-1.71,4.59
8.88666296005249,1.98,-3.28,-0.96,3.94
8.896596908569336,1.41,-2.12,0.34,2.56
8.906458854675293,1.26,-0.45,1.52,2.02
8.916619777679443,2.08,1.32,2.54,3.53
8.944337844848633,3.6,3.62,3.6,6.24
8.945453882217407,5.29,6.45,4.42,9.44
8.946707963943481,7.14,9.37,5.03,12.8
8.95795202255249,9.07,11.58,5.45,15.68
8.965934753417969,11.06,12.55,5.37,17.56
8.97630500793457,12.55,12.21,4.86,18.17
8.98671579360962,13.79,12.02,5.2,19.01
8.995630741119385,14.45,11.57,5.35,19.26
9.006072998046875,14.9,10.61,5.84,19.2
9.015679836273193,15.64,9.5,6.64,19.46
9.045022010803223,16.25,8.05,8.3,19.94
9.046182870864868,13.43,8.91,9.68,18.8
9.047369956970215,5.07,7.33,8.0,11.97
9.055824756622314,-2.84,0.18,-1.16,3.07
9.065391063690186,-12.74,-5.14,-11.78,18.09
9.075100898742676,-22.83,10.79,-17.72,30.84
9.085453033447266,-15.28,33.92,1.66,37.23
9.095327854156494,-2.12,20.71,6.56,21.82
9.105186939239502,4.24,-1.47,3.28,5.55
9.115230083465576,7.07,-9.92,3.58,12.69
9.150246858596802,9.07,-8.51,4.51,13.22
9.151710033416748,10.86,-1.29,3.7,11.54
9.152690887451172,8.73,0.41,0.27,8.74
9.155142784118652,5.22,0.31,-3.98,6.57
9.164671897888184,4.11,0.26,-1.42,4.35
9.174627780914307,3.51,-1.17,0.43,3.72
9.184351921081543,2.58,-1.63,1.36,3.34
9.19458293914795,0.97,-1.02,1.71,2.21
9.204510927200317,-0.54,0.03,2.53,2.58
9.21440601348877,-0.82,0.39,3.3,3.42
9.250807762145996,0.05,-0.23,2.19,2.2
9.252182960510254,0.95,-0.66,0.38,1.21
9.253247737884521,1.28,-0.47,0.04,1.36
9.273741960525513,1.07,-0.43,0.19,1.16
9.27473497390747,0.69,-0.51,0.19,0.87
9.290143966674805,0.5,-0.3,0.02,0.58
9.291181087493896,0.68,0.04,-0.54,0.86
9.305305004119873,0.86,0.19,-0.99,1.32
9.306884765625,0.64,0.33,-1.01,1.24
9.32191801071167,0.27,0.33,-0.7,0.81
9.3489990234375,-0.09,0.14,-0.23,0.28
9.350416898727417,-0.44,-0.02,0.29,0.52
9.351463794708252,-0.66,-0.07,0.68,0.95
9.353981971740723,-0.69,0.05,0.51,0.85
9.363143920898438,-0.44,0.25,-0.16,0.53
9.373013019561768,0.09,0.28,-0.87,0.91
9.383065938949585,0.43,0.14,-1.02,1.11
9.393025875091553,0.13,0.09,-0.69,0.7
9.403114795684814,-0.54,0.27,-0.35,0.69
9.41283893585205,-0.91,0.49,-0.18,1.04
9.450648784637451,-0.61,0.61,-0.08,0.86
9.451987743377686,-0.43,0.53,-0.21,0.71
9.453001976013184,-0.56,0.54,-0.19,0.8
9.473765850067139,-0.75,0.53,-0.19,0.93
9.474764823913574,-0.87,0.45,-0.46,1.08
9.490391969680786,-0.84,0.41,-0.63,1.12
9.491836071014404,-0.74,0.5,-0.68,1.12
9.505481958389282,-0.68,0.62,-0.77,1.19
9.506932735443115,-0.63,0.8,-0.93,1.37
9.522194862365723,-0.68,0.95,-1.03,1.55
9.523663997650146,-0.75,1.09,-0.85,1.57
9.57333493232727,-0.96,1.15,-0.44,1.56
9.57450795173645,-1.47,1.25,-0.16,1.93
9.575454950332642,-2.15,1.45,-0.28,2.6
9.591158866882324,-2.57,1.75,-0.32,3.12
9.592241764068604,-2.9,2.36,-0.89,3.84
9.606294870376587,-2.86,2.82,-1.67,4.34
9.607775926589966,-2.64,3.32,-1.9,4.64
9.622397899627686,-2.49,3.7,-1.99,4.88
9.62379503250122,-2.75,3.97,-2.06,5.25
9.638751983642578,-3.3,4.36,-1.91,5.79
9.66590404510498,-4.0,4.66,-2.04,6.47
9.667304039001465,-4.73,5.0,-2.19,7.22
9.668347835540771,-5.48,5.75,-2.38,8.29
9.670762062072754,-6.49,7.1,-2.56,9.95
9.6721830368042,-7.68,8.98,-3.22,12.24
9.68068790435791,-8.47,10.28,-5.37,14.36
9.690582752227783,-9.51,10.77,-7.38,16.15
9.701466083526611,-10.29,10.75,-8.28,17.02
9.71072006225586,-10.91,9.69,-9.35,17.33
9.72077989578247,-11.34,9.72,-9.25,17.56
9.748924970626831,-9.81,13.55,-5.64,17.65
9.750091075897217,-5.14,15.48,-4.91,17.03
9.751486778259277,-0.02,13.48,-6.47,14.95
9.75995683670044,2.03,9.58,-5.9,11.43
9.770047903060913,-0.48,3.46,-6.57,7.44
9.780075073242188,-4.03,-1.26,-6.59,7.82
9.789748907089233,-3.64,-4.24,-6.98,8.94
9.800007820129395,2.61,-0.5,-3.42,4.33
9.809938907623291,6.47,-1.01,2.95,7.18
9.820027828216553,1.51,-4.81,-1.74,5.33
9.854581832885742,-4.7,-5.99,-3.8,8.5
9.855747938156128,-8.79,-6.77,-2.5,11.37
9.856742858886719,-12.17,-6.44,-2.0,13.91
9.87423586845398,-14.44,-5.61,-0.94,15.51
9.875287055969238,-14.46,-5.06,0.9,15.34
9.890152931213379,-11.5,-5.7,2.2,13.02
9.891185760498047,-7.82,-6.78,2.49,10.64
9.9060697555542,-6.17,-6.65,1.6,9.21
9.909070014953613,-6.44,-5.0,0.92,8.2
9.922225952148438,-6.48,-3.42,0.13,7.32
9.958576917648315,-5.25,-3.07,-0.75,6.12
9.959939002990723,-3.92,-3.25,-1.33,5.26
9.961002826690674,-3.23,-3.29,-1.81,4.95
9.974393844604492,-3.19,-3.33,-2.49,5.24
9.97544002532959,-3.39,-3.29,-2.83,5.5
9.991199016571045,-3.25,-3.49,-2.8,5.53
9.992222785949707,-2.44,-4.21,-2.56,5.49
10.005899906158447,-1.31,-5.05,-2.03,5.59
10.008080005645752,-0.33,-5.73,-1.11,5.84
10.022397994995117,0.37,-6.0,-0.12,6.01
10.057210922241211,0.9,-6.05,0.77,6.16
10.058539867401123,1.51,-5.44,0.81,5.7
10.059556007385254,2.48,-4.24,0.48,4.93
10.060579776763916,4.04,-2.74,0.71,4.93
10.067513942718506,5.92,-1.06,1.43,6.18
10.077916860580444,7.02,0.61,2.42,7.45
10.087652921676636,7.69,2.58,3.56,8.85
10.097593784332275,8.19,4.54,4.34,10.32
10.107534885406494,9.61,6.61,6.1,13.16
10.11741304397583,12.08,8.24,7.46,16.41
10.156529903411865,13.81,8.67,6.98,17.73
10.157835006713867,14.85,8.93,6.55,18.52
10.15867805480957,16.0,9.33,6.94,19.77
10.17420482635498,17.41,9.22,6.78,20.83
10.175289869308472,18.61,8.43,7.13,21.63
10.19018292427063,18.81,7.08,7.36,21.4
10.191199779510498,17.12,5.24,6.97,19.21
10.205636024475098,12.39,4.51,5.36,14.23
10.206670761108398,5.95,4.35,1.61,7.54
10.222269058227539,-1.79,-3.53,-6.0,7.18
10.255074977874756,-13.24,-5.43,-20.91,25.33
10.256216049194336,-26.43,29.62,-27.43,48.25
10.257067918777466,-21.34,45.42,6.11,50.55
10.274374961853027,-7.83,12.78,5.96,16.12
10.275439739227295,3.24,-4.39,1.42,5.63
10.290133953094482,8.67,-11.72,8.81,17.03
10.291181087493896,10.5,-13.93,7.82,19.11
10.305754899978638,11.28,-10.21,2.11,15.36
10.306802749633789,10.2,-4.8,3.33,11.75
10.32248306274414,5.64,-2.08,1.42,6.17
10.325984954833984,1.24,1.02,0.25,1.62
10.3692307472229,-1.51,4.15,-0.66,4.46
10.370466947555542,-1.67,2.84,-1.37,3.56
10.371469974517822,0.4,0.03,0.74,0.84
10.390875816345215,1.71,-0.63,1.48,2.34
10.391881942749023,1.6,-0.77,1.09,2.08
10.406986951828003,0.96,-0.72,0.4,1.26
10.408025741577148,0.9,-0.47,-0.05,1.01
10.422652959823608,1.0,-0.4,0.11,1.08
10.423616886138916,0.73,-0.39,0.48,0.95
10.439253807067871,0.43,-0.22,0.61,0.77
10.468775749206543,0.38,-0.02,0.04,0.38
10.469964981079102,0.45,0.12,-0.39,0.6
10.47077488899231,0.47,0.18,-0.36,0.61
10.490975856781006,0.14,0.15,-0.09,0.22
10.49201488494873,-0.29,0.13,-0.01,0.31
10.507037878036499,-0.42,0.14,-0.47,0.64
10.508062839508057,-0.22,0.28,-0.83,0.9
10.522538900375366,-0.06,0.41,-0.72,0.83
10.523555755615234,-0.06,0.32,-0.52,0.61
10.538853883743286,-0.19,0.16,-0.34,0.42
10.567276000976562,-0.43,0.2,-0.15,0.49
10.568435907363892,-0.59,0.33,-0.27,0.72
10.569216966629028,-0.66,0.47,-0.47,0.93
10.571629047393799,-0.61,0.71,-0.4,1.01
10.573880910873413,-0.66,0.77,-0.25,1.04
10.583754062652588,-0.69,0.68,-0.05,0.97
10.593977928161621,-0.61,0.5,0.06,0.79
10.603675842285156,-0.72,0.35,-0.08,0.8
10.613672971725464,-0.79,0.37,-0.25,0.9
10.623592853546143,-0.59,0.38,-0.09,0.7
10.654193878173828,-0.37,0.33,0.14,0.51
10.655159950256348,-0.44,0.34,0.02,0.55
10.655977964401245,-0.84,0.67,-0.01,1.07
10.674252033233643,-1.59,1.06,-0.27,1.92
10.675312995910645,-2.49,1.52,-0.37,2.94
10.690691947937012,-2.86,1.87,-0.44,3.44
10.69304084777832,-2.83,1.93,-0.6,3.47
10.705858945846558,-2.23,2.08,-0.71,3.13
10.712707042694092,-1.73,2.14,-1.05,2.94
10.722846031188965,-1.73,2.3,-1.54,3.26
10.762876033782959,-1.8,2.63,-1.96,3.74
10.764225959777832,-1.74,3.03,-1.97,4.01
10.765213966369629,-1.89,3.3,-1.96,4.27
10.77186393737793,-2.23,3.41,-2.16,4.61
10.772915840148926,-2.5,3.4,-2.22,4.76
10.790716886520386,-2.73,3.31,-2.23,4.83
10.79212474822998,-3.26,3.33,-2.2,5.15
10.805970907211304,-4.22,3.88,-1.91,6.04
10.812051773071289,-5.18,4.68,-2.2,7.31
10.822849750518799,-6.06,5.55,-3.17,8.8
10.860870838165283,-7.35,6.54,-4.47,10.8
10.8622407913208,-8.66,7.89,-4.62,12.59
10.863173961639404,-9.69,9.19,-5.15,14.31
10.87466287612915,-10.87,9.51,-6.98,16.04
10.875657081604004,-12.63,10.36,-8.44,18.38
10.89083480834961,-12.94,14.15,-7.54,20.6
10.891937971115112,-9.9,18.5,-5.33,21.64
10.904214859008789,-4.01,18.37,-6.9,20.02
10.911314010620117,1.19,14.14,-8.46,16.52
10.9214768409729,2.05,8.76,-8.47,12.35
10.957413911819458,-0.99,2.48,-9.9,10.25
10.958452939987183,-4.74,-1.32,-8.47,9.79
10.959275960922241,-4.2,-3.47,-7.84,9.54
10.975851058959961,3.35,2.89,-1.92,4.82
10.97691297531128,8.57,3.05,6.29,11.05
10.991050958633423,4.76,-3.06,1.98,5.99
10.992094993591309,-2.13,-5.49,-2.19,6.28
11.005982875823975,-6.97,-6.77,-1.22,9.79
11.01048994064331,-11.36,-7.2,-1.71,13.55
11.02270793914795,-14.77,-6.64,-1.64,16.27
11.059001922607422,-16.25,-5.85,-0.85,17.29
11.060815811157227,-13.67,-5.41,1.16,14.74
11.061837911605835,-8.26,-6.62,2.12,10.79
11.07469391822815,-4.44,-8.3,1.39,9.51
11.075730800628662,-3.64,-9.15,0.21,9.84
11.090755939483643,-4.96,-8.52,-0.47,9.86
11.091789960861206,-5.82,-7.56,-0.94,9.58
11.106131076812744,-5.46,-7.2,-1.71,9.19
11.109694004058838,-5.0,-6.99,-2.39,8.92
11.122808933258057,-4.79,-6.67,-2.85,8.69
11.129976749420166,-4.54,-6.14,-3.09,8.23
11.1685049533844,-4.09,-5.76,-3.12,7.72
11.169664859771729,-3.59,-5.7,-2.96,7.35
11.170674800872803,-3.2,-5.68,-2.49,6.97
11.191645860671997,-2.83,-5.61,-1.95,6.57
11.1926748752594,-2.37,-5.51,-1.7,6.23
11.207490921020508,-1.71,-5.15,-1.68,5.68
11.20848274230957,-0.92,-4.46,-1.27,4.72
11.22338581085205,-0.15,-3.06,-0.8,3.16
11.224854946136475,0.91,-1.24,-1.21,1.95
11.239372968673706,2.62,0.76,-1.12,2.94
11.270439863204956,5.53,3.85,0.31,6.74
11.271635055541992,9.07,7.59,2.18,12.02
11.272480964660645,11.81,10.79,3.45,16.36
11.28804874420166,13.63,13.93,4.75,20.05
11.289162874221802,14.99,16.44,6.18,23.09
11.304609775543213,15.88,14.58,7.15,22.71
11.30565094947815,15.83,12.67,8.15,21.85
11.320937871932983,14.88,12.21,8.88,21.19
11.321989059448242,12.97,15.94,7.51,21.87
11.337291955947876,13.97,14.93,6.67,21.5
11.365333080291748,15.66,10.4,2.67,18.98
11.366490840911865,12.33,-0.97,-2.94,12.71
11.367379903793335,-0.08,-6.55,-10.54,12.4
11.37133502960205,-8.89,11.65,-10.32,17.92
11.390997886657715,-9.74,30.16,0.62,31.69
11.392039775848389,-7.33,11.45,4.72,14.39
11.406290054321289,1.86,0.67,5.43,5.77
11.407355785369873,8.41,-5.1,4.08,10.64
11.423069953918457,10.73,-7.77,3.35,13.66
11.427814960479736,9.71,-4.29,2.1,10.82
11.467951774597168,5.99,-1.6,2.2,6.57
11.468894004821777,2.87,-1.07,1.44,3.38
11.469941854476929,0.64,-0.38,0.41,0.84
11.47239089012146,-0.44,0.13,0.99,1.09
11.476876735687256,-0.45,0.15,1.68,1.74
11.487137794494629,0.38,-0.05,1.18,1.24
11.497077941894531,1.27,-0.07,0.41,1.33
11.506988048553467,1.52,-0.23,-0.26,1.55
11.516746997833252,1.34,-0.44,-0.38,1.46
11.526717901229858,0.9,-0.42,-0.09,0.99
11.564376831054688,0.48,-0.22,0.11,0.53
11.566102981567383,0.3,-0.06,0.13,0.33
11.566886901855469,0.3,0.05,-0.07,0.31
11.571070909500122,0.45,0.06,-0.42,0.61
11.590981006622314,0.5,0.09,-0.38,0.63
11.59200382232666,0.37,0.11,0.04,0.38
11.60627794265747,0.2,-0.05,0.27,0.33
11.607320785522461,-0.01,-0.11,0.39,0.4
11.623147010803223,-0.3,-0.02,0.35,0.46
11.625988960266113,-0.44,0.13,0.02,0.45
11.668495893478394,-0.31,0.32,-0.21,0.49
11.669610977172852,-0.14,0.26,-0.48,0.56
11.670609951019287,-0.2,0.19,-0.66,0.71
11.691877841949463,-0.39,0.24,-0.61,0.76
11.692921876907349,-0.62,0.32,-0.68,0.97
11.707424879074097,-0.75,0.45,-0.83,1.2
11.70849084854126,-0.69,0.59,-0.52,1.04
11.723491907119751,-0.63,0.58,-0.23,0.88
11.72496485710144,-0.67,0.48,-0.08,0.82
11.739669799804688,-0.69,0.43,0.05,0.81
11.767905950546265,-0.69,0.36,-0.04,0.77
11.769146919250488,-0.68,0.31,-0.04,0.74
11.769972801208496,-0.51,0.2,-0.04,0.54
11.77185583114624,-0.21,0.11,-0.11,0.26
11.774706840515137,0.11,0.04,-0.23,0.25
11.784739971160889,0.24,0.12,-0.28,0.38
11.794825077056885,0.08,0.24,-0.39,0.46
11.804835796356201,-0.36,0.51,-0.41,0.74
11.814645767211914,-0.81,0.83,-0.51,1.26
11.824513912200928,-1.23,1.04,-0.76,1.78
11.861342906951904,-1.65,1.35,-0.6,2.21
11.862510919570923,-2.06,1.48,-0.49,2.58
11.863374948501587,-2.26,1.52,-0.38,2.74
11.874917030334473,-2.16,1.64,-0.69,2.79
11.87598180770874,-2.14,2.25,-1.71,3.54
11.890964984893799,-1.81,3.18,-2.34,4.34
11.893716812133789,-1.55,3.94,-2.11,4.73
11.906198024749756,-1.69,4.24,-1.6,4.83
11.913524866104126,-2.41,4.1,-1.42,4.96
11.923975944519043,-3.17,3.96,-1.37,5.25
11.9337899684906,-3.49,4.06,-1.39,5.53
11.964314937591553,-3.76,4.27,-2.08,6.05
11.96549391746521,-4.2,4.96,-2.55,6.98
11.96659803390503,-4.91,5.75,-3.26,8.23
11.972958087921143,-5.79,6.6,-4.02,9.65
11.983404874801636,-6.9,7.89,-4.74,11.5
11.992990970611572,-8.04,8.95,-6.04,13.46
12.003223896026611,-8.88,9.36,-6.7,14.53
12.012927055358887,-9.67,8.9,-7.56,15.16
12.023055076599121,-10.46,8.26,-8.25,15.67
12.03310489654541,-10.21,11.4,-6.11,16.47
12.063710927963257,-7.75,15.63,-3.77,17.84
12.064898014068604,-2.51,15.05,-6.26,16.49
12.065753936767578,1.9,11.69,-7.38,13.95
12.075182914733887,2.28,6.88,-6.53,9.75
12.082474946975708,-1.52,1.69,-6.79,7.16
12.092195987701416,-4.94,-2.3,-5.81,7.96
12.102417945861816,-3.01,-3.41,-6.64,8.04
12.11230182647705,4.34,2.24,-1.55,5.12
12.122259855270386,6.18,0.2,0.87,6.24
12.132418870925903,0.35,-2.86,-3.85,4.8
12.164302825927734,-4.53,-3.52,-3.47,6.7
12.165417909622192,-7.94,-3.1,-2.82,8.97
12.166285037994385,-11.2,-2.52,-3.37,11.96
12.171511888504028,-13.55,-2.34,-3.25,14.12
12.181732892990112,-13.74,-2.87,-1.91,14.16
12.191691875457764,-10.84,-3.93,0.36,11.53
12.201911926269531,-7.38,-5.71,1.6,9.46
12.211520910263062,-5.58,-7.38,1.63,9.39
12.221879959106445,-5.67,-7.56,1.04,9.5
12.23169493675232,-6.65,-6.08,0.24,9.01
12.26383090019226,-7.08,-5.19,-1.13,8.85
12.265097856521606,-6.73,-4.94,-2.53,8.72
12.266109943389893,-6.1,-4.91,-3.14,8.43
12.272017002105713,-5.59,-5.18,-3.42,8.35
12.281154870986938,-5.01,-5.37,-3.51,8.13
12.291447877883911,-4.24,-5.54,-3.49,7.8
12.300940036773682,-3.43,-5.85,-3.48,7.62
12.310914039611816,-2.73,-6.33,-3.43,7.69
12.320892810821533,-2.23,-6.84,-3.61,8.04
12.330795764923096,-1.98,-7.0,-3.72,8.17
12.369770050048828,-1.92,-6.58,-3.61,7.74
12.371165752410889,-1.83,-5.41,-3.26,6.57
12.372175931930542,-1.6,-3.93,-2.99,5.19
12.391822814941406,-0.54,-2.39,-2.94,3.82
12.392874956130981,1.59,-0.82,-2.48,3.05
12.408003807067871,4.05,1.15,-1.29,4.4
12.409116744995117,5.97,3.99,0.4,7.19
12.423848867416382,7.84,7.88,2.16,11.32
12.425349950790405,9.52,12.18,3.35,15.81
12.438982963562012,10.97,16.49,3.53,20.11
12.468804836273193,12.47,18.26,3.93,22.45
12.470218896865845,14.58,17.02,5.24,23.01
12.47107195854187,16.62,14.52,5.2,22.67
12.488646984100342,18.23,13.05,5.45,23.07
12.489688873291016,18.81,12.46,4.97,23.1
12.5052809715271,18.54,15.43,3.86,24.42
12.506340980529785,18.15,11.67,4.43,22.02
12.523842811584473,12.93,9.92,6.11,17.4
12.524890899658203,3.86,1.62,5.19,6.66
12.539962768554688,-6.09,-2.57,-2.11,6.93
12.570716857910156,-13.59,5.6,-6.67,16.14
12.571993827819824,-14.44,17.13,-1.65,22.46
12.573041915893555,-8.2,14.23,2.51,16.61
12.592150926589966,-0.67,2.78,1.63,3.29
12.5931978225708,4.64,-2.28,3.93,6.49
12.60798978805542,9.47,-0.51,3.29,10.03
12.609028816223145,11.79,-0.77,-0.91,11.85
12.623528003692627,10.32,-0.88,-4.26,11.19
12.624579906463623,7.09,-0.66,-2.58,7.57
12.639940738677979,3.98,-0.64,-1.41,4.27
12.669651985168457,1.55,-0.59,-1.44,2.19
12.67085599899292,0.39,-0.07,0.18,0.43
12.671702861785889,0.02,-0.35,2.79,2.81
12.692279815673828,-0.27,-1.38,3.8,4.05
12.693315029144287,-0.57,-1.53,3.81,4.14
12.707850933074951,-0.85,-0.74,2.44,2.68
12.708889961242676,-0.18,-0.13,0.5,0.54
12.723861932754517,0.94,-0.01,-0.09,0.94
12.724935054779053,1.88,-0.2,0.17,1.89
12.739948749542236,1.86,-0.6,0.62,2.05
12.741437911987305,1.08,-0.64,0.79,1.48
12.78738784790039,0.52,-0.44,0.17,0.7
12.788549900054932,0.6,-0.14,-0.46,0.76
12.789559841156006,0.76,0.09,-0.88,1.16
12.808552742004395,0.58,0.09,-0.76,0.96
12.809534072875977,0.17,0.09,-0.11,0.22
12.82480788230896,-0.19,-0.07,0.57,0.6
12.825876951217651,-0.29,-0.23,0.91,0.98
12.840053081512451,-0.1,-0.19,0.57,0.6
12.84174394607544,0.3,-0.08,-0.22,0.38
12.856591939926147,0.57,0.14,-0.73,0.93
12.887755870819092,0.42,0.27,-0.65,0.81
12.889046907424927,-0.19,0.33,-0.24,0.45
12.890023946762085,-0.76,0.39,0.03,0.85
12.908504962921143,-1.05,0.48,0.0,1.15
12.909518957138062,-1.2,0.56,-0.27,1.35
12.924736976623535,-1.32,0.67,-0.52,1.56
12.925724029541016,-1.35,0.7,-0.5,1.6
12.941669940948486,-1.33,0.59,-0.53,1.54
12.943106889724731,-1.29,0.55,-0.73,1.58
12.957629919052124,-1.2,0.6,-1.11,1.74
12.987931966781616,-1.04,0.79,-1.36,1.88
12.989308834075928,-0.7,0.98,-1.34,1.8
12.990269899368286,-0.53,0.99,-1.17,1.62
13.007301807403564,-0.58,0.78,-0.86,1.29
13.008311748504639,-0.92,0.69,-0.54,1.27
13.02293086051941,-1.47,0.83,-0.32,1.71
13.023907899856567,-1.78,1.12,-0.4,2.14
13.040921926498413,-1.76,1.57,-0.29,2.37
13.04240894317627,-1.55,2.03,-0.26,2.56
13.056807041168213,-1.19,2.07,-1.06,2.61
13.08589506149292,-0.78,2.26,-1.68,2.92
13.087137937545776,-0.75,2.33,-1.84,3.06
13.087953090667725,-1.07,2.5,-1.76,3.23
13.108957767486572,-1.59,2.63,-1.79,3.55
13.110013008117676,-1.97,2.83,-1.57,3.78
13.125058889389038,-2.41,3.09,-1.44,4.17
13.126077890396118,-2.96,3.7,-1.32,4.91
13.140284061431885,-3.56,4.45,-1.48,5.88
13.141311883926392,-4.28,5.34,-2.01,7.13
13.156996965408325,-5.2,6.12,-2.66,8.45
13.185983896255493,-6.75,7.03,-3.57,10.37
13.187274932861328,-8.15,8.31,-4.56,12.5
13.188080787658691,-9.02,9.26,-5.9,14.2
13.209043025970459,-9.33,9.69,-7.31,15.3
13.210088968276978,-9.27,9.28,-8.53,15.64
13.224170923233032,-9.39,8.65,-9.48,15.9
13.22538685798645,-8.71,10.73,-7.68,15.81
13.240602016448975,-6.01,14.51,-4.7,16.39
13.241651058197021,-1.32,14.3,-5.57,15.4
13.257029056549072,2.3,11.29,-6.13,13.05
13.285794734954834,1.78,6.12,-5.9,8.68
13.286963939666748,-2.74,1.59,-6.4,7.14
13.287764072418213,-6.06,-1.83,-4.81,7.95
13.308879852294922,-3.44,-0.77,-3.85,5.22
13.309936046600342,3.86,4.59,1.46,6.17
13.325074911117554,3.83,-0.01,0.25,3.83
13.326154947280884,-1.6,-2.74,-3.63,4.82
13.34055495262146,-6.08,-2.67,-2.7,7.16
13.341614961624146,-9.48,-2.1,-2.35,9.99
13.357176780700684,-11.94,-1.89,-2.54,12.35
13.386271953582764,-12.89,-2.45,-2.01,13.27
13.387633800506592,-11.05,-3.44,-0.06,11.57
13.388457775115967,-8.04,-4.97,1.39,9.55
13.409051895141602,-6.4,-6.67,1.92,9.44
13.410075902938843,-6.3,-7.8,1.96,10.21
13.42517900466919,-7.22,-7.07,1.68,10.24
13.426198959350586,-7.64,-6.4,0.59,9.98
13.44048285484314,-7.41,-5.94,-0.6,9.51
13.44151782989502,-6.76,-5.65,-1.39,8.91
13.457397937774658,-6.1,-5.64,-1.86,8.51
13.486889839172363,-5.51,-5.78,-2.16,8.27
13.488219738006592,-4.89,-6.05,-2.38,8.13
13.489230871200562,-4.25,-6.36,-2.53,8.05
13.508708953857422,-3.62,-6.8,-2.66,8.14
13.509744882583618,-3.04,-7.16,-2.62,8.2
13.525321006774902,-2.59,-7.57,-2.55,8.39
13.526360034942627,-2.5,-7.74,-2.39,8.47
13.540507793426514,-2.77,-7.24,-1.8,7.95
13.541553974151611,-3.1,-6.11,-0.97,6.91
13.557340860366821,-2.92,-4.38,-0.19,5.26
13.55875301361084,-1.49,-2.53,-0.21,2.94
13.6038818359375,1.1,-0.83,0.32,1.41
13.605020999908447,4.15,1.36,1.8,4.72
13.606029987335205,6.9,4.41,3.81,9.03
13.62625503540039,9.22,8.09,5.44,13.41
13.627343893051147,11.3,11.71,6.17,17.4
13.638865947723389,12.89,14.78,6.38,20.62
13.639976024627686,14.54,16.64,5.8,22.84
13.655587911605835,16.22,16.66,4.52,23.68
13.657045841217041,17.92,15.92,4.36,24.36
13.671767950057983,19.04,13.64,5.1,23.97
13.702178001403809,19.21,11.55,6.56,23.35
13.703584909439087,17.7,14.17,7.28,23.81
13.704572916030884,14.77,7.81,5.49,17.58
13.707124948501587,4.01,-4.9,-2.81,6.92
13.708554744720459,-8.9,-7.41,-13.78,18.0
13.710054874420166,-20.15,8.89,-15.68,27.03
13.711290836334229,-17.99,33.65,4.84,38.46
13.720509052276611,-6.63,20.96,7.48,23.22
13.730227947235107,1.28,-2.32,3.19,4.14
13.740087032318115,6.65,-7.81,6.15,11.95
13.76813292503357,11.83,-3.32,6.75,14.01
13.769096851348877,12.89,-1.38,2.85,13.27
13.770112991333008,9.95,-0.59,-2.51,10.27
13.779708862304688,5.79,-0.07,-1.77,6.05
13.78961181640625,3.5,-0.73,-2.12,4.15
13.799484968185425,2.87,-0.85,-2.38,3.82
13.809342861175537,2.44,-0.3,0.79,2.58
13.819159984588623,0.88,-0.65,3.07,3.25
13.829361915588379,-0.75,-0.91,4.3,4.45
13.839282989501953,-1.51,-0.58,2.81,3.24
13.868952751159668,-0.56,0.1,0.21,0.6
13.869884967803955,0.6,0.52,-0.95,1.23
13.870696067810059,1.03,0.29,-0.54,1.19
13.892687797546387,1.09,-0.26,0.06,1.12
13.893685817718506,0.95,-0.59,0.64,1.28
13.908620834350586,0.83,-0.64,0.39,1.11
13.90963888168335,0.94,-0.48,-0.47,1.15
13.925273895263672,0.9,-0.17,-1.13,1.45
13.928485870361328,0.49,0.16,-1.08,1.19
13.941490888595581,-0.15,0.32,-0.28,0.45
13.975456953048706,-0.77,0.3,0.8,1.15
13.976526737213135,-1.12,0.21,1.14,1.61
13.977400779724121,-0.95,0.19,0.59,1.13
13.992893934249878,-0.33,0.22,-0.81,0.9
13.99396800994873,0.27,0.25,-1.94,1.97
14.008466958999634,0.34,0.34,-1.65,1.71
14.009504795074463,-0.2,0.31,-0.92,0.99
14.024273872375488,-0.91,0.33,-0.54,1.1
14.027662754058838,-1.36,0.64,-0.3,1.53
14.040194988250732,-1.36,0.88,-0.14,1.62
14.077044010162354,-1.15,0.79,0.04,1.39
14.078428745269775,-0.94,0.53,0.21,1.09
14.079404830932617,-0.78,0.26,0.0,0.82
14.09281873703003,-0.63,0.25,-0.3,0.74
14.093864917755127,-0.36,0.37,-0.5,0.71
14.108388900756836,-0.06,0.45,-0.55,0.71
14.109312057495117,-0.07,0.5,-0.29,0.58
14.124263763427734,-0.37,0.56,-0.16,0.69
14.126873016357422,-0.85,0.73,-0.19,1.13
14.140497922897339,-1.29,0.98,-0.38,1.66
14.17570185661316,-1.63,1.25,-0.46,2.1
14.177107810974121,-1.97,1.41,-0.38,2.45
14.178130865097046,-1.97,1.38,-0.3,2.42
14.193043947219849,-1.86,1.27,-0.95,2.44
14.194078922271729,-1.6,1.43,-1.57,2.65
14.208451747894287,-1.19,2.04,-1.68,2.89
14.209481954574585,-1.18,2.63,-1.75,3.37
14.224287033081055,-1.57,3.0,-1.89,3.87
14.226126909255981,-2.1,3.25,-1.7,4.22
14.240770816802979,-2.64,3.41,-1.32,4.51
14.275518894195557,-3.01,3.57,-1.12,4.8
14.276822090148926,-3.41,3.93,-1.34,5.37
14.277829885482788,-4.09,4.66,-2.0,6.51
14.292943000793457,-4.83,5.98,-2.64,8.12
14.294012069702148,-5.7,7.46,-3.88,10.15
14.308674812316895,-6.87,8.91,-5.1,12.35
14.309720039367676,-7.97,10.2,-5.99,14.26
14.324692964553833,-8.99,10.87,-6.53,15.54
14.326221942901611,-9.97,10.72,-8.12,16.74
14.340736865997314,-11.1,10.08,-9.68,17.84
14.345654010772705,-10.93,12.32,-8.03,18.32
14.38872480392456,-7.44,15.47,-5.67,18.07
14.389888763427734,-1.67,14.05,-6.59,15.6
14.39090895652771,3.45,11.97,-4.22,13.15
14.40963888168335,3.46,7.37,-2.3,8.46
14.410696029663086,-1.28,1.62,-4.41,4.86
14.42547082901001,-3.11,-2.11,-5.82,6.92
14.42650294303894,1.12,0.47,-5.85,5.97
14.44146203994751,6.67,5.01,0.28,8.34
14.442930936813354,4.34,0.16,-1.8,4.7
14.457833766937256,-1.76,-1.96,-5.06,5.7
14.488623857498169,-6.31,-2.31,-3.62,7.63
14.489957809448242,-9.38,-2.17,-3.35,10.19
14.490975856781006,-11.53,-2.48,-3.38,12.26
14.509573936462402,-11.68,-3.38,-2.03,12.32
14.510628938674927,-9.51,-4.65,0.03,10.58
14.525606870651245,-7.34,-6.75,1.22,10.04
14.52662706375122,-6.58,-8.42,1.45,10.78
14.54104995727539,-6.74,-8.68,0.81,11.01
14.54232406616211,-6.84,-8.04,-0.11,10.55
14.557685852050781,-6.72,-7.0,-1.36,9.79
14.587081909179688,-6.46,-6.61,-2.85,9.67
14.588464736938477,-6.24,-6.4,-3.62,9.64
14.589279890060425,-6.01,-6.5,-4.07,9.74
14.609442949295044,-5.49,-6.83,-4.56,9.87
14.610488891601562,-4.77,-7.03,-4.74,9.72
14.625550746917725,-4.03,-7.41,-4.66,9.63
14.626573085784912,-3.37,-7.73,-4.5,9.55
14.641019821166992,-2.86,-7.9,-4.39,9.47
14.642045021057129,-2.47,-8.13,-4.47,9.6
14.657901763916016,-2.29,-8.25,-4.52,9.68
14.686982870101929,-2.21,-8.37,-4.74,9.86
14.688284873962402,-2.22,-7.94,-4.37,9.33
14.689182758331299,-2.4,-6.99,-3.36,8.11
14.709726810455322,-2.67,-5.97,-2.4,6.96
14.710792064666748,-2.29,-4.93,-2.05,5.8
14.726030826568604,-0.3,-3.86,-2.32,4.51
14.727062940597534,2.28,-1.93,-1.22,3.22
14.741108894348145,4.77,1.21,0.91,5.0
14.742133855819702,6.91,5.39,2.87,9.22
14.757758855819702,8.58,9.89,4.2,13.75
14.786911010742188,10.44,15.02,5.4,19.07
14.788064002990723,12.81,20.73,6.15,25.13
14.788882970809937,15.33,22.92,7.79,28.65
14.806189060211182,17.39,20.59,10.82,29.04
14.807245969772339,17.93,17.83,12.86,28.36
14.823142051696777,16.5,19.8,11.04,28.03
14.824214935302734,15.89,19.39,7.5,26.16
14.84126591682434,15.77,8.28,-4.96,18.48
14.842304944992065,6.44,-5.77,-11.81,14.63
14.857912063598633,-9.33,4.75,-14.04,17.51
14.886509895324707,-18.6,35.29,-5.28,40.23
14.88776683807373,-18.52,23.97,5.79,30.83
14.888575077056885,-6.47,1.63,10.04,12.05
14.911530017852783,4.98,-4.66,9.14,11.4
14.912590026855469,8.11,-10.27,6.57,14.64
14.924540996551514,9.57,-11.84,1.97,15.35
14.925555944442749,10.7,-6.76,1.07,12.7
14.941165924072266,8.48,-0.32,0.08,8.48
14.942224979400635,4.11,1.27,-2.95,5.21
14.957952976226807,0.99,0.22,-2.7,2.88
14.98746109008789,-0.28,-0.36,0.71,0.84
14.98853588104248,0.05,-0.35,3.89,3.9
14.98935079574585,0.42,-0.11,2.37,2.4
15.009399890899658,0.64,0.31,0.73,1.01
15.010429859161377,0.71,0.53,0.74,1.15
15.025874853134155,0.69,-0.1,0.92,1.15
15.026803970336914,0.47,-0.8,0.86,1.26
15.041056871414185,0.39,-0.82,0.58,1.07
15.042096853256226,0.55,-0.39,0.16,0.69
15.057918071746826,0.81,0.0,-0.36,0.88
15.086796760559082,1.04,0.19,-0.88,1.37
15.087947845458984,0.94,0.38,-0.75,1.26
15.08878493309021,0.59,0.5,-0.24,0.8
15.109989881515503,0.46,0.02,-0.13,0.47
15.111047744750977,0.61,-0.78,0.22,1.01
15.12611198425293,0.65,-1.5,0.57,1.73
15.127163887023926,0.18,-1.48,1.13,1.87
15.141171932220459,0.05,-0.52,1.01,1.13
15.142196893692017,0.21,0.7,0.28,0.78
15.158161878585815,0.01,0.98,-0.05,0.98
15.159673929214478,-0.07,0.4,-0.34,0.52
15.204453945159912,0.56,0.14,-0.23,0.62
15.205649852752686,-0.56,0.3,0.86,1.06
15.206660747528076,-0.89,-0.44,-1.19,1.54
15.226792812347412,0.17,0.5,-0.77,0.93
15.227864742279053,-0.26,0.95,1.01,1.41
15.242207050323486,-0.67,0.0,0.27,0.72
15.243250846862793,-0.47,0.21,-0.14,0.53
15.258668899536133,-0.48,0.63,-0.21,0.81
15.260156869888306,-0.39,0.56,-0.28,0.73
15.274337768554688,-0.37,0.55,-0.17,0.68
15.304252862930298,-0.44,0.54,-0.16,0.71
15.305668830871582,-0.69,0.48,-0.46,0.95
15.30669093132019,-1.13,0.61,-1.05,1.65
15.326550960540771,-1.66,1.01,-1.5,2.45
15.327588081359863,-1.97,1.53,-1.58,2.95
15.342634916305542,-1.84,1.71,-1.78,3.07
15.3436598777771,-1.48,1.6,-1.87,2.87
15.358633995056152,-1.39,1.59,-1.9,2.84
15.360055923461914,-1.57,2.02,-2.01,3.25
15.374533891677856,-1.76,2.81,-1.93,3.83
15.403743743896484,-2.07,3.38,-1.72,4.32
15.405130863189697,-2.45,3.84,-1.33,4.74
15.405994892120361,-2.89,4.07,-1.13,5.11
15.426836967468262,-3.36,4.37,-1.37,5.68
15.427878856658936,-3.79,4.76,-1.84,6.35
15.442567825317383,-4.3,5.27,-2.2,7.14
15.443603992462158,-4.96,5.69,-2.79,8.04
15.458266735076904,-5.85,6.16,-3.09,9.03
15.459285736083984,-6.82,7.19,-3.14,10.39
15.474446773529053,-7.71,8.35,-3.93,12.02
15.502785921096802,-8.6,9.1,-6.03,13.89
15.503973960876465,-9.47,9.22,-8.29,15.6
15.504745960235596,-9.75,9.14,-8.7,15.94
15.50708794593811,-10.0,8.9,-9.21,16.24
15.508371829986572,-10.21,9.43,-9.51,16.84
15.509553909301758,-9.12,13.32,-6.83,17.52
15.516318798065186,-5.47,16.39,-5.16,18.03
15.527212858200073,-0.39,14.6,-6.45,15.96
15.536565780639648,1.55,9.06,-7.26,11.71
15.546364784240723,-0.21,3.65,-7.64,8.46
15.579992771148682,-4.05,-0.24,-5.59,6.9
15.581076860427856,-4.46,-2.43,-3.92,6.41
15.58190393447876,2.0,2.21,0.97,3.13
15.593411922454834,5.47,0.12,3.08,6.27
15.59577488899231,1.15,-3.6,-2.73,4.66
15.608832836151123,-3.77,-4.11,-4.06,6.89
15.615895748138428,-6.92,-3.36,-2.81,8.18
15.625444889068604,-9.04,-2.79,-2.93,9.9
15.635761737823486,-9.78,-2.99,-2.61,10.55
15.64560604095459,-8.52,-3.91,-1.15,9.44
15.681519985198975,-6.18,-5.26,0.42,8.12
15.682606935501099,-4.98,-6.79,0.83,8.46
15.683461904525757,-4.97,-7.7,0.76,9.19
15.691525936126709,-5.52,-7.64,0.5,9.43
15.695031881332397,-5.87,-6.96,-0.04,9.1
15.70853590965271,-5.73,-6.14,-0.97,8.45
15.715178966522217,-5.52,-5.41,-1.98,7.97
15.724967956542969,-5.33,-4.89,-2.51,7.65
15.73501992225647,-4.97,-4.67,-2.8,7.37
15.744839906692505,-4.49,-4.73,-2.92,7.14
15.7828950881958,-4.06,-5.06,-2.83,7.07
15.784267902374268,-3.59,-5.46,-2.57,7.02
15.785336017608643,-3.06,-5.89,-2.26,7.01
15.790045738220215,-2.46,-6.38,-2.16,7.17
15.809608936309814,-1.88,-6.9,-2.24,7.49
15.810675859451294,-1.62,-6.95,-1.58,7.3
15.825150966644287,-1.53,-6.24,-0.36,6.43
15.826156854629517,-0.98,-5.18,0.86,5.34
15.841705799102783,0.31,-3.92,1.39,4.17
15.844152927398682,2.26,-2.48,1.29,3.59
15.888324737548828,4.49,-0.96,1.54,4.84
15.88947582244873,6.62,1.27,2.97,7.36
15.89044189453125,8.82,4.2,4.51,10.75
15.911149024963379,11.48,6.54,5.09,14.15
15.91214895248413,14.76,7.51,5.09,17.32
15.926183938980103,17.31,7.37,4.35,19.3
15.927237033843994,18.83,7.48,4.71,20.8
15.94173288345337,19.96,7.43,5.65,22.03
15.943329811096191,20.84,6.73,5.52,22.58
15.956995010375977,21.35,6.12,5.57,22.89
15.958468914031982,20.02,5.12,4.62,21.17
16.008326053619385,13.77,8.3,4.87,16.79
16.00948190689087,6.58,11.6,3.58,13.8
16.010447025299072,-0.05,0.98,-6.82,6.89
16.026782989501953,-10.74,10.18,-15.32,21.29
16.027801036834717,-16.43,40.4,-9.23,44.57
16.04086995124817,-15.6,23.57,-1.35,28.29
16.04229187965393,-5.44,-1.23,-1.38,5.74
16.058780908584595,3.55,-5.87,1.09,6.94
16.06025791168213,8.66,-10.4,5.75,14.7
16.074917793273926,11.22,-11.0,6.78,17.11
16.107740879058838,11.36,-6.23,4.17,13.61
16.109050750732422,7.27,-0.89,2.49,7.73
16.110065937042236,2.13,2.41,1.68,3.62
16.127208948135376,-1.61,1.86,0.48,2.5
16.12827205657959,-2.05,0.16,0.16,2.06
16.142791748046875,-0.05,-0.03,1.46,1.46
16.143800735473633,1.31,0.36,1.54,2.05
16.15888500213623,1.23,0.23,0.96,1.57
16.16033697128296,0.74,-0.25,0.51,0.93
16.174741744995117,0.87,-0.34,-0.11,0.94
16.206228971481323,1.17,-0.33,-0.37,1.27
16.207571029663086,1.36,-0.5,-0.73,1.62
16.20861291885376,1.44,-0.54,-0.68,1.68
16.227077960968018,1.17,-0.31,-0.51,1.31
16.22806692123413,0.54,0.14,0.01,0.55
16.242796897888184,0.08,0.49,0.49,0.69
16.24383306503296,0.2,0.19,0.72,0.77
16.258834838867188,0.61,-0.43,0.94,1.2
16.25994896888733,0.82,-0.88,0.61,1.34
16.274898052215576,0.74,-0.83,-0.12,1.11
16.30313777923584,0.68,-0.18,-0.31,0.76
16.304308891296387,0.64,0.0,-0.21,0.67
16.30509090423584,0.47,-0.02,-0.07,0.47
16.307743072509766,0.16,0.07,0.28,0.33
16.309064865112305,-0.21,0.13,0.41,0.47
16.310309886932373,-0.36,0.15,0.38,0.54
16.320323944091797,-0.26,0.25,0.25,0.43
16.33052086830139,-0.11,0.25,0.02,0.27
16.340370893478394,0.01,0.19,-0.29,0.34
16.35033082962036,-0.03,0.12,-0.36,0.38
16.384297847747803,-0.28,0.12,-0.03,0.3
16.385448932647705,-0.59,0.14,0.24,0.65
16.386253833770752,-0.75,0.1,-0.07,0.75
16.389980792999268,-0.69,0.2,-0.64,0.96
16.409413814544678,-0.64,0.51,-1.12,1.38
16.410249948501587,-0.7,0.76,-1.41,1.74
16.425375938415527,-0.9,0.96,-1.31,1.85
16.429467916488647,-1.23,1.05,-1.2,2.01
16.44120979309082,-1.58,1.12,-1.11,2.23
16.44969606399536,-1.68,1.2,-1.29,2.43
16.48363208770752,-1.76,1.33,-1.18,2.5
16.484585762023926,-1.6,1.56,-0.81,2.37
16.48570680618286,-1.34,1.5,-0.77,2.15
16.491360902786255,-1.22,1.45,-0.91,2.1
16.49908208847046,-1.53,1.76,-0.88,2.49
16.509604930877686,-1.87,2.29,-0.75,3.05
16.519020080566406,-1.84,2.47,-1.04,3.25
16.528971910476685,-1.73,2.81,-1.46,3.6
16.53893494606018,-1.41,3.07,-1.57,3.72
16.548789978027344,-1.55,3.14,-1.43,3.78
16.58586883544922,-2.07,3.09,-1.35,3.95
16.5870099067688,-2.68,3.24,-1.32,4.4
16.58778691291809,-3.07,3.72,-1.35,5.0
16.590014934539795,-3.57,4.32,-1.72,5.86
16.59809684753418,-4.32,5.0,-2.01,6.9
16.608425855636597,-5.42,5.82,-1.86,8.16
16.61817693710327,-6.62,6.99,-2.12,9.85
16.628180027008057,-7.46,7.76,-3.57,11.34
16.63819193840027,-8.4,8.03,-5.13,12.7
16.648079872131348,-9.1,8.48,-5.79,13.72
16.68758773803711,-9.58,8.47,-7.02,14.58
16.68898582458496,-10.28,8.2,-7.8,15.28
16.68999695777893,-10.31,10.46,-6.41,16.02
16.710664749145508,-7.83,13.76,-4.19,16.37
16.71171283721924,-2.83,12.68,-5.87,14.25
16.726577758789062,2.48,11.08,-5.64,12.67
16.72760581970215,3.69,7.95,-3.54,9.45
16.742408752441406,0.2,2.38,-4.36,4.97
16.74390196800232,-4.21,-0.83,-4.42,6.16
16.758671760559082,-4.57,-4.49,-7.55,9.9
16.76013493537903,1.58,-1.32,-7.29,7.57
16.805693864822388,6.24,1.92,-1.39,6.67
16.806896924972534,1.55,-1.91,-3.01,3.88
16.80790376663208,-4.54,-3.11,-4.07,6.84
16.827125072479248,-8.32,-3.64,-2.62,9.45
16.828117847442627,-11.7,-3.07,-2.51,12.35
16.843405961990356,-14.2,-2.52,-2.2,14.58
16.844392776489258,-14.55,-2.49,-0.67,14.77
16.85947608947754,-12.07,-2.94,2.04,12.58
16.861062049865723,-8.67,-4.39,3.77,10.42
16.877251863479614,-6.44,-5.92,3.49,9.41
16.90764594078064,-5.85,-6.26,1.99,8.79
16.90899395942688,-5.75,-5.02,0.55,7.65
16.909955978393555,-5.31,-3.93,-1.04,6.68
16.928026914596558,-4.31,-3.68,-2.57,6.22
16.92902898788452,-3.1,-3.56,-3.79,6.05
16.94347095489502,-2.1,-3.41,-4.66,6.14
16.944453954696655,-1.45,-3.53,-5.02,6.3
16.95858097076416,-1.12,-3.92,-4.69,6.21
16.95998191833496,-1.08,-4.44,-4.06,6.11
16.975934982299805,-1.17,-4.93,-3.46,6.13
17.005011081695557,-1.11,-5.15,-3.18,6.15
17.00644302368164,-0.38,-5.18,-3.08,6.03
17.007452964782715,0.87,-4.93,-2.58,5.63
17.02814793586731,1.32,-4.61,-1.15,4.93
17.02915096282959,0.82,-4.44,0.41,4.53
17.04342293739319,0.27,-3.75,1.7,4.12
17.0444118976593,-0.07,-2.51,2.88,3.82
17.05971908569336,0.23,-0.85,4.06,4.15
17.061157941818237,1.92,1.11,5.33,5.77
17.075582027435303,4.45,2.94,6.27,8.23
17.105262756347656,6.53,4.34,6.33,10.07
17.106599807739258,8.04,5.84,6.15,11.68
17.10757303237915,9.52,7.47,5.81,13.42
17.12803292274475,12.01,8.76,5.94,16.0
17.12903881072998,14.94,8.7,6.33,18.41
17.143658876419067,17.55,7.72,7.7,20.66
17.144680976867676,18.46,6.28,8.64,21.32
17.15943479537964,17.03,5.55,8.87,19.98
17.160880088806152,14.14,6.44,8.07,17.5
17.1756649017334,12.47,11.7,5.27,17.89
17.206078052520752,12.99,9.0,-1.55,15.87
17.207494735717773,4.9,-2.51,-14.39,15.4
17.208464860916138,-8.34,15.26,-17.1,24.38
17.227745056152344,-12.99,45.88,-3.93,47.84
17.228757858276367,-11.34,20.42,1.87,23.43
17.243356943130493,-2.97,-4.28,2.42,5.74
17.244351863861084,2.58,-11.36,5.76,12.99
17.259058952331543,4.33,-14.94,6.18,16.73
17.260490894317627,7.92,-7.81,5.43,12.37
17.275381088256836,10.23,-1.9,6.7,12.37
17.30424690246582,7.46,2.89,-0.39,8.0
17.30553889274597,3.12,4.45,-2.5,5.98
17.306325912475586,0.51,-0.25,-0.02,0.56
17.327993869781494,0.22,-2.35,0.45,2.4
17.328980922698975,1.15,-0.53,0.47,1.35
17.34338092803955,0.97,1.22,0.27,1.58
17.344351768493652,0.04,0.9,0.87,1.25
17.35913896560669,-0.08,0.03,1.63,1.63
17.360126972198486,0.69,-0.82,0.9,1.39
17.375464916229248,1.45,-1.09,-0.09,1.81
17.40455198287964,1.62,-0.75,-0.36,1.82
17.40575408935547,1.2,-0.5,-0.16,1.3
17.406522750854492,0.74,-0.29,0.09,0.79
17.42782974243164,0.41,-0.05,0.25,0.48
17.42881679534912,0.4,0.3,-0.12,0.51
17.443623065948486,0.59,0.46,-0.22,0.77
17.44464087486267,0.53,0.34,0.24,0.67
17.459521770477295,0.43,-0.03,0.76,0.87
17.460500955581665,0.45,-0.53,0.64,0.94
17.47580885887146,0.46,-0.78,0.27,0.94
17.50560188293457,0.26,-0.54,0.17,0.62
17.50673484802246,-0.06,-0.03,-0.13,0.14
17.507508754730225,-0.25,0.48,-0.12,0.55
17.52772283554077,-0.17,0.6,0.09,0.63
17.528708934783936,0.09,0.25,-0.3,0.4
17.543306827545166,0.18,-0.05,-0.56,0.59
17.54432487487793,-0.1,0.1,-0.09,0.16
17.559499740600586,-0.69,0.36,0.13,0.78
17.5609188079834,-1.05,0.5,-0.04,1.16
17.57569193840027,-0.95,0.56,-0.33,1.15
17.577109813690186,-0.59,0.48,-0.57,0.95
17.622482776641846,-0.34,0.29,-0.46,0.64
17.623626947402954,-0.29,0.16,-0.31,0.45
17.624568939208984,-0.31,0.04,-0.42,0.52
17.644364833831787,-0.38,0.21,-0.6,0.74
17.64537477493286,-0.28,0.49,-0.86,1.02
17.658851861953735,-0.29,0.64,-0.96,1.18
17.65984296798706,-0.49,0.75,-0.86,1.24
17.676126956939697,-0.75,0.89,-0.69,1.35
17.67753291130066,-0.99,1.04,-0.58,1.54
17.692461013793945,-1.24,1.14,-0.66,1.8
17.722246885299683,-1.48,1.21,-0.93,2.12
17.723602771759033,-1.68,1.35,-1.01,2.38
17.72459602355957,-1.78,1.63,-1.12,2.66
17.744441986083984,-1.52,1.88,-1.7,2.95
17.745436906814575,-1.2,1.99,-2.26,3.24
17.76053786277771,-1.41,2.64,-2.43,3.85
17.761501789093018,-1.75,3.5,-2.33,4.55
17.776217937469482,-2.26,3.81,-1.85,4.8
17.777673959732056,-2.76,3.82,-1.19,4.86
17.792422771453857,-3.14,3.59,-1.05,4.88
17.821887016296387,-3.28,3.47,-1.13,4.9
17.823205947875977,-3.55,3.63,-1.47,5.28
17.824124813079834,-3.97,4.13,-1.73,5.98
17.84424877166748,-4.45,4.87,-2.14,6.93
17.84525203704834,-5.01,5.46,-2.8,7.92
17.860466957092285,-5.84,6.4,-2.99,9.16
17.861461877822876,-7.15,7.66,-3.89,11.17
17.876113891601562,-8.61,9.02,-5.68,13.7
17.87710690498352,-9.35,10.11,-7.06,15.47
17.892562866210938,-9.82,10.16,-8.24,16.35
17.921499967575073,-10.11,9.61,-10.35,17.36
17.922935009002686,-9.92,10.86,-9.89,17.72
17.92391300201416,-7.72,15.3,-6.59,18.36
17.9444899559021,-3.31,16.64,-5.74,17.91
17.945493936538696,0.98,13.63,-6.22,15.01
17.95956587791443,1.96,7.92,-6.17,10.22
17.960577964782715,-1.46,2.98,-6.76,7.53
17.976671934127808,-5.69,-0.21,-5.14,7.67
17.978121757507324,-4.65,-0.75,-3.32,5.76
17.992982864379883,2.73,5.3,2.55,6.48
18.021989822387695,5.74,1.0,3.23,6.66
18.023358821868896,2.13,-3.39,-2.32,4.62
18.02415704727173,-2.46,-3.44,-2.67,5.0
18.044960021972656,-5.96,-2.7,-1.79,6.78
18.045982837677002,-7.97,-2.47,-2.1,8.6
18.0607590675354,-8.53,-3.18,-2.37,9.4
18.061752796173096,-7.1,-4.37,-1.56,8.48
18.075955867767334,-5.16,-5.62,-0.5,7.64
18.077215909957886,-4.37,-6.8,-0.04,8.08
18.092633962631226,-4.61,-7.66,0.2,8.94
18.120655059814453,-5.11,-8.03,0.33,9.52
18.122050762176514,-5.42,-7.89,0.25,9.57
18.123026847839355,-5.69,-7.34,-0.38,9.29
18.12550187110901,-5.98,-6.69,-1.23,9.05
18.127168893814087,-5.93,-6.12,-1.88,8.72
18.128665924072266,-5.71,-5.59,-2.37,8.33
18.13005495071411,-5.38,-5.41,-2.64,8.07
18.13652491569519,-4.96,-5.72,-2.51,7.97
18.146846771240234,-4.51,-6.15,-2.21,7.94
18.15681505203247,-4.08,-6.59,-1.92,7.98
18.18873882293701,-3.73,-6.97,-1.84,8.11
18.18967580795288,-3.42,-7.26,-2.04,8.28
18.190440893173218,-3.22,-7.39,-2.32,8.38
18.21102476119995,-3.41,-7.19,-2.36,8.3
18.21193504333496,-4.04,-6.26,-1.92,7.69
18.227130889892578,-4.42,-4.88,-1.65,6.78
18.22811985015869,-3.37,-3.95,-1.33,5.35
18.24278497695923,-0.79,-3.58,-0.33,3.68
18.24582004547119,1.53,-2.97,1.28,3.57
18.25921106338501,2.93,-1.0,3.24,4.48
18.292335033416748,3.87,1.69,4.7,6.31
18.29413604736328,5.11,4.84,5.2,8.75
18.295094966888428,7.06,8.2,5.28,12.04
18.311686992645264,9.2,11.19,5.08,15.35
18.312697887420654,11.8,14.43,4.41,19.15
18.327486991882324,15.0,16.1,3.86,22.34
18.32850408554077,18.32,15.07,4.33,24.11
18.34048295021057,20.5,13.67,5.05,25.15
18.345242023468018,21.6,12.56,6.43,25.8
18.357311964035034,20.74,12.32,6.52,24.98
18.365203857421875,18.28,14.82,4.85,24.02
18.40425205230713,12.25,3.79,-1.31,12.88
18.405388832092285,-0.73,-6.25,-9.9,11.73
18.406466960906982,-15.31,7.11,-16.22,23.41
18.407941818237305,-22.2,34.8,-5.32,41.61
18.4149489402771,-17.45,24.19,7.25,30.69
18.424738883972168,-4.08,1.03,8.27,9.27
18.434823989868164,3.77,-8.02,6.24,10.83
18.44472885131836,6.65,-11.49,5.72,14.45
18.454490900039673,9.14,-6.22,3.8,11.69
18.464454889297485,11.14,1.2,1.95,11.37
18.496197938919067,8.48,1.41,-3.4,9.24
18.497318744659424,5.5,0.67,-4.59,7.19
18.49811291694641,3.25,-0.62,-1.18,3.51
18.51162886619568,2.07,-1.37,0.39,2.51
18.513681888580322,1.5,-0.56,0.83,1.8
18.527455806732178,0.49,0.61,1.08,1.33
18.53380298614502,-0.48,0.89,1.52,1.82
18.54348587989807,-0.75,0.04,1.98,2.11
18.553674936294556,-0.19,-0.85,1.9,2.09
18.563607931137085,0.39,-1.12,1.04,1.57
18.594796895980835,0.61,-0.83,0.39,1.1
18.595924854278564,0.82,-0.37,0.14,0.91
18.596709966659546,0.89,-0.14,0.04,0.9
18.61160898208618,0.83,-0.08,-0.08,0.83
18.61303186416626,0.77,0.04,-0.47,0.9
18.627639770507812,0.81,0.18,-0.69,1.07
18.632994890213013,0.77,0.15,-0.62,0.99
18.642945766448975,0.45,-0.07,-0.24,0.51
18.653389930725098,-0.1,-0.17,0.3,0.35
18.6631178855896,-0.43,-0.04,0.53,0.68
18.695751905441284,-0.38,0.05,0.49,0.62
18.697110891342163,-0.15,0.1,0.42,0.45
18.698072910308838,-0.01,0.07,0.35,0.35
18.711709022521973,-0.05,0.02,0.17,0.17
18.712711811065674,-0.06,0.04,-0.36,0.36
18.72772979736328,0.0,0.11,-0.75,0.75
18.73223304748535,-0.03,0.28,-0.68,0.73
18.742032051086426,-0.23,0.36,-0.36,0.55
18.752590894699097,-0.49,0.32,0.01,0.58
18.762064933776855,-0.56,0.28,0.12,0.63
18.800464868545532,-0.47,0.24,-0.08,0.53
18.80237102508545,-0.4,0.31,-0.14,0.52
18.803349018096924,-0.42,0.36,-0.23,0.59
18.807753086090088,-0.37,0.28,-0.38,0.59
18.827884912490845,-0.34,0.24,-0.41,0.58
18.828845024108887,-0.28,0.31,-0.39,0.57
18.84314203262329,-0.28,0.35,-0.43,0.62
18.844069004058838,-0.56,0.55,-0.61,0.99
18.860104084014893,-0.94,0.85,-1.02,1.62
18.86154294013977,-1.39,1.13,-1.18,2.14
18.906980991363525,-1.97,1.36,-1.25,2.7
18.908126831054688,-2.37,1.56,-1.22,3.08
18.90909695625305,-2.5,1.7,-0.88,3.14
18.9284029006958,-2.45,1.85,-0.57,3.12
18.929404735565186,-1.89,1.99,-0.69,2.82
18.94392681121826,-1.43,1.9,-1.31,2.71
18.944918870925903,-1.27,2.38,-1.62,3.14
18.960197925567627,-1.5,2.8,-2.24,3.88
18.961607933044434,-1.55,3.34,-2.11,4.24
18.976253032684326,-1.94,3.61,-2.12,4.61
19.006371021270752,-2.41,3.83,-2.04,4.96
19.007691860198975,-2.8,4.25,-1.93,5.44
19.00866174697876,-3.27,4.69,-1.86,6.01
19.028353929519653,-4.22,5.64,-1.84,7.28
19.02935290336609,-5.91,7.25,-2.49,9.67
19.044142961502075,-7.77,9.29,-4.12,12.79
19.04517889022827,-9.17,10.57,-5.81,15.15
19.060637950897217,-10.22,11.19,-5.82,16.23
19.06207799911499,-10.74,10.83,-6.41,16.54
19.07631778717041,-11.13,9.02,-8.12,16.46
19.10478401184082,-11.86,8.79,-7.78,16.68
19.10623598098755,-10.73,13.04,-4.48,17.47
19.107264041900635,-6.01,15.18,-4.06,16.82
19.110372066497803,0.32,12.01,-7.76,14.3
19.111895084381104,4.02,8.97,-6.15,11.59
19.119159936904907,2.18,3.1,-5.4,6.59
19.12944793701172,-3.48,-1.39,-5.35,6.53
19.139172077178955,-5.9,-4.44,-5.17,9.01
19.14921998977661,-1.06,-2.5,-4.47,5.23
19.159374952316284,5.94,1.64,1.57,6.35
19.16938090324402,4.1,-2.44,0.31,4.78
19.202139854431152,-2.21,-4.41,-3.22,5.89
19.203585863113403,-6.65,-5.11,-2.13,8.65
19.204582929611206,-10.22,-4.62,-2.17,11.42
19.208648920059204,-13.03,-3.74,-2.81,13.84
19.22796392440796,-14.4,-3.55,-2.76,15.08
19.22893190383911,-12.87,-3.55,-0.82,13.37
19.2430579662323,-9.33,-4.27,1.11,10.32
19.248465061187744,-6.43,-5.62,1.61,8.69
19.259532928466797,-5.28,-6.41,1.02,8.36
19.26848793029785,-5.5,-5.71,0.19,7.93
19.3017258644104,-5.85,-4.41,-0.83,7.37
19.30288791656494,-5.6,-4.01,-2.0,7.17
19.30399799346924,-5.01,-4.01,-2.93,7.05
19.308363914489746,-4.5,-4.07,-3.45,6.97
19.317997932434082,-4.21,-4.15,-3.75,7.0
19.32785701751709,-3.89,-4.33,-3.69,6.89
19.33787488937378,-3.38,-4.73,-3.33,6.69
19.347853899002075,-2.63,-5.43,-2.89,6.68
19.35788583755493,-1.97,-6.14,-2.62,6.96
19.36799383163452,-1.68,-6.6,-2.46,7.24
19.39944076538086,-1.75,-6.31,-1.84,6.8
19.4009108543396,-1.46,-5.45,-1.06,5.74
19.401869773864746,-0.2,-4.74,-0.83,4.81
19.411812782287598,1.43,-4.25,-1.01,4.59
19.417065858840942,2.82,-3.36,-0.56,4.42
19.427661895751953,4.0,-1.42,0.74,4.3
19.43709087371826,5.38,1.39,2.28,6.0
19.446809768676758,7.19,4.46,3.58,9.18
19.457153797149658,9.6,7.51,5.0,13.17
19.467105865478516,11.48,10.26,5.76,16.43
19.500107765197754,12.61,12.59,6.03,18.81
19.501396894454956,13.74,13.48,5.39,19.98
19.502254962921143,15.91,12.8,6.04,21.29
19.509617805480957,18.11,11.41,6.83,22.46
19.51703977584839,18.54,13.75,7.59,24.29
19.526498794555664,18.67,16.03,7.07,25.6
19.53602385520935,18.41,12.59,-0.39,22.3
19.545970916748047,11.1,2.53,-7.72,13.75
19.555940866470337,-3.21,10.26,-11.66,15.85
19.566493034362793,-10.56,30.7,-6.03,33.02
19.603376865386963,-11.2,17.84,-0.73,21.07
19.60474395751953,-3.3,-1.37,3.0,4.66
19.605730056762695,5.22,-3.25,5.05,7.95
19.608047008514404,8.15,-8.9,6.97,13.93
19.615420818328857,9.17,-8.97,3.39,13.26
19.625400066375732,8.51,-2.34,2.27,9.11
19.635590076446533,5.13,0.67,2.18,5.61
19.6454439163208,1.88,-0.23,0.5,1.95
19.655234813690186,-0.1,-0.71,0.3,0.77
19.665486812591553,-0.7,-0.11,1.25,1.43
19.702438831329346,-0.25,0.32,1.64,1.68
19.703759908676147,0.64,0.11,1.34,1.48
19.7047700881958,1.38,-0.06,0.24,1.4
19.70773696899414,1.71,-0.17,-0.53,1.79
19.724633932113647,1.45,-0.31,-0.49,1.56
19.725642919540405,1.07,-0.51,-0.34,1.23
19.74315881729126,0.99,-0.62,0.04,1.16
19.74455976486206,1.07,-0.69,0.26,1.29
19.760512828826904,1.03,-0.53,0.01,1.15
19.76443099975586,0.76,-0.1,0.02,0.76
19.803854942321777,0.4,0.24,0.1,0.47
19.804811000823975,0.13,0.25,0.12,0.3
19.80622100830078,0.05,0.09,0.27,0.28
19.80838680267334,0.07,0.01,0.34,0.34
19.81389808654785,0.05,-0.02,0.37,0.37
19.824004888534546,0.04,0.0,0.1,0.1
19.834030866622925,0.04,0.05,-0.32,0.32
19.843928813934326,0.05,0.2,-0.62,0.65
19.853875875473022,0.05,0.24,-0.59,0.63
19.864147901535034,-0.07,0.14,-0.33,0.36
19.90057396888733,-0.38,0.17,-0.04,0.41
19.90175199508667,-0.65,0.27,0.03,0.7
19.90252995491028,-0.61,0.38,0.04,0.71
19.91180992126465,-0.33,0.4,-0.1,0.52
19.91306781768799,-0.23,0.36,-0.24,0.49
19.927137851715088,-0.39,0.43,-0.17,0.6
19.933064937591553,-0.68,0.54,-0.19,0.88
19.942950963974,-0.97,0.55,-0.31,1.15
19.95315980911255,-1.06,0.51,-0.58,1.31
19.963278770446777,-0.75,0.48,-0.67,1.11
19.973232746124268,-0.43,0.46,-0.79,1.01
20.00353193283081,-0.3,0.54,-0.96,1.14
20.004703998565674,-0.46,0.77,-0.99,1.33
20.00598382949829,-0.91,1.07,-0.82,1.62
20.012399911880493,-1.56,1.35,-0.73,2.18
20.028920888900757,-1.97,1.79,-0.57,2.72
20.032182931900024,-2.0,1.91,-1.01,2.94
20.04390287399292,-2.13,2.29,-1.25,3.36
20.0524320602417,-2.15,2.99,-1.42,3.94
20.062153816223145,-2.4,3.21,-1.65,4.33
20.072351932525635,-2.73,3.43,-1.57,4.65
20.103496074676514,-2.94,3.53,-1.84,4.94
20.104660034179688,-3.05,3.76,-2.01,5.24
20.105814933776855,-3.26,4.12,-2.16,5.68
20.11161494255066,-3.67,4.61,-2.28,6.31
20.128646850585938,-4.46,5.33,-2.46,7.37
20.131460905075073,-5.51,6.15,-2.68,8.68
20.14153480529785,-6.86,7.79,-2.56,10.69
20.15166473388672,-8.06,10.01,-3.63,13.35
20.16155695915222,-8.98,10.93,-7.07,15.81
20.17249298095703,-9.27,10.56,-7.93,16.13
20.202780961990356,-9.38,10.01,-8.01,15.88
20.20394492149353,-10.05,8.14,-9.63,16.12
20.205073833465576,-10.21,9.88,-7.88,16.24
20.210972785949707,-7.92,14.43,-4.33,17.02
20.225759029388428,-2.85,14.28,-5.82,15.68
20.230881929397583,2.03,11.78,-6.61,13.65
20.241074085235596,2.86,7.59,-5.94,10.05
20.250585079193115,-1.05,2.46,-6.76,7.26
20.261055946350098,-4.33,-1.83,-6.59,8.09
20.270734786987305,-2.24,-3.43,-7.83,8.83
20.30197286605835,4.7,2.45,-2.96,6.07
20.30315399169922,5.74,-0.32,-0.3,5.75
20.304351806640625,-0.57,-3.58,-4.41,5.7
20.31010890007019,-5.71,-4.76,-3.7,8.3
20.32022786140442,-9.58,-4.52,-2.43,10.86
20.330060958862305,-12.67,-2.83,-2.3,13.18
20.34027886390686,-14.74,-1.59,-1.31,14.88
20.34996795654297,-13.77,-0.62,1.22,13.83
20.360379934310913,-10.11,-2.09,2.29,10.57
20.370178937911987,-6.98,-4.45,2.67,8.69
20.40737295150757,-5.74,-6.6,2.53,9.1
20.40872287750244,-5.58,-7.57,1.77,9.56
20.409605979919434,-5.31,-6.84,0.91,8.7
20.428974866867065,-4.95,-5.68,-0.24,7.53
20.430023908615112,-4.48,-5.1,-1.64,6.98
20.444591999053955,-3.93,-4.92,-2.94,6.94
20.4456148147583,-3.41,-4.84,-3.96,7.12
20.46027708053589,-3.04,-4.85,-4.42,7.23
20.461490869522095,-2.89,-5.14,-4.19,7.23
20.476667881011963,-2.74,-5.84,-3.34,7.26
20.506735801696777,-2.33,-6.72,-2.38,7.5
20.508059978485107,-1.99,-7.45,-1.38,7.83
20.50908899307251,-1.89,-8.01,-0.51,8.24
20.529249906539917,-1.95,-8.39,0.12,8.61
20.530276775360107,-1.89,-8.5,0.49,8.72
20.54413390159607,-1.56,-8.18,0.84,8.36
20.545135021209717,-0.94,-6.65,1.51,6.88
20.561030864715576,0.12,-4.05,1.74,4.4
20.56251096725464,1.98,-1.58,2.14,3.31
20.5768039226532,4.18,1.07,3.21,5.37
20.605190753936768,6.53,4.27,4.72,9.11
20.60660195350647,9.24,8.04,6.44,13.83
20.60744285583496,12.6,11.88,7.49,18.86
20.609763860702515,15.51,15.04,7.71,22.93
20.618475914001465,17.38,16.89,7.3,25.31
20.627883911132812,18.21,15.74,6.22,24.86
20.638540744781494,17.37,15.14,5.59,23.71
20.648329734802246,15.69,19.13,4.55,25.15
20.657766819000244,17.28,16.29,-0.31,23.74
20.66747808456421,16.76,5.88,-10.78,20.77
20.704797744750977,4.81,0.44,-12.42,13.32
20.70601177215576,-7.97,19.84,-9.87,23.54
20.70679998397827,-12.09,29.86,-4.2,32.48
20.709091901779175,-8.87,8.79,2.19,12.67
20.717092037200928,2.44,0.7,7.32,7.74
20.727290868759155,7.23,-6.01,8.32,12.55
20.737034797668457,7.63,-11.42,5.37,14.74
20.74701189994812,8.77,-8.36,1.77,12.24
20.757071018218994,8.74,-1.59,2.73,9.29
20.76693892478943,6.0,-0.29,1.72,6.24
20.777033805847168,2.51,-0.58,1.45,2.95
20.80878186225891,-0.3,-0.12,1.88,1.9
20.80994176864624,-1.69,0.75,1.95,2.68
20.810752868652344,-1.72,1.32,0.79,2.3
20.830054759979248,-0.75,0.9,-0.61,1.32
20.831055879592896,1.11,-0.11,-0.78,1.36
20.845244884490967,2.76,-0.93,-0.61,2.97
20.846272945404053,2.6,-0.92,-0.91,2.9
20.859827041625977,1.53,-0.42,-0.64,1.71
20.866299867630005,0.87,-0.15,-0.02,0.88
20.876893997192383,1.13,-0.41,0.28,1.23
20.909101009368896,1.33,-0.68,0.57,1.59
20.91045594215393,0.94,-0.46,0.68,1.24
20.911437034606934,0.46,-0.11,0.64,0.79
20.92989492416382,0.24,0.05,0.7,0.74
20.93089985847473,0.11,-0.02,0.76,0.76
20.945181846618652,0.11,-0.01,0.68,0.68
20.9461829662323,0.28,-0.06,0.15,0.32
20.960981845855713,0.42,-0.03,-0.33,0.53
20.9655978679657,0.46,-0.04,-0.72,0.85
20.97699785232544,0.41,-0.08,-0.94,1.02
21.00829291343689,0.26,-0.02,-0.83,0.87
21.009628772735596,0.04,0.03,-0.7,0.7
21.010633945465088,-0.32,0.1,-0.46,0.56
21.029311895370483,-0.81,0.35,0.05,0.88
21.030380964279175,-1.18,0.58,0.54,1.42
21.045214891433716,-1.08,0.48,0.22,1.2
21.046271800994873,-0.63,0.36,-0.24,0.76
21.061301946640015,-0.42,0.42,-0.35,0.68
21.064735889434814,-0.54,0.4,-0.58,0.88
21.076993942260742,-0.7,0.43,-0.77,1.12
21.108190059661865,-0.73,0.48,-0.7,1.11
21.109519004821777,-0.89,0.51,-0.68,1.23
21.11048698425293,-1.11,0.65,-0.59,1.41
21.129312992095947,-1.12,0.84,-0.55,1.5
21.130347967147827,-1.01,0.8,-0.38,1.34
21.145161867141724,-0.9,0.79,-0.04,1.19
21.146198749542236,-0.82,0.81,0.11,1.15
21.160983085632324,-0.91,0.89,-0.01,1.27
21.163979053497314,-1.23,1.18,-0.38,1.74
21.177260875701904,-1.58,1.65,-0.76,2.4
21.211643934249878,-1.58,2.1,-0.99,2.8
21.212843894958496,-1.19,2.19,-1.15,2.74
21.21391987800598,-0.96,2.11,-1.73,2.89
21.22976779937744,-0.92,2.24,-1.94,3.1
21.230824947357178,-1.2,2.39,-1.55,3.09
21.2448468208313,-1.8,2.53,-1.18,3.32
21.245887756347656,-2.33,2.64,-1.36,3.77
21.261318922042847,-2.52,3.02,-1.37,4.16
21.26314878463745,-2.6,3.47,-1.52,4.59
21.277199745178223,-2.99,3.78,-1.98,5.21
21.31192684173584,-3.82,4.05,-2.26,6.0
21.313262939453125,-4.83,4.54,-2.12,6.95
21.314284801483154,-5.68,5.14,-2.55,8.07
21.329447746276855,-6.05,5.56,-3.03,8.75
21.33047103881836,-6.8,6.57,-2.83,9.86
21.34520673751831,-8.07,9.15,-3.5,12.69
21.34623098373413,-8.77,10.62,-7.73,15.79
21.36131000518799,-8.62,9.82,-10.12,16.52
21.36278986930847,-8.71,8.89,-9.99,15.95
21.377123832702637,-8.34,10.81,-7.45,15.55
21.411169052124023,-6.43,14.56,-4.39,16.51
21.412474870681763,-2.31,14.78,-5.79,16.04
21.413493871688843,2.06,13.1,-6.54,14.78
21.429842948913574,2.44,9.06,-5.48,10.86
21.43092393875122,-1.65,3.76,-6.72,7.87
21.445446014404297,-5.75,-0.37,-5.71,8.11
21.446444988250732,-4.57,-2.97,-5.94,8.06
21.461366891860962,2.8,2.43,-2.08,4.25
21.46284294128418,5.86,0.53,1.57,6.08
21.47728395462036,0.75,-3.22,-2.4,4.08
21.51197099685669,-4.51,-3.66,-2.53,6.33
21.51326608657837,-8.04,-3.1,-2.1,8.86
21.514310836791992,-10.61,-2.22,-3.11,11.27
21.529587745666504,-12.0,-1.99,-3.68,12.7
21.530666828155518,-11.3,-2.35,-2.86,11.89
21.545237064361572,-9.0,-3.16,-0.96,9.58
21.546277046203613,-7.17,-4.53,0.67,8.5
21.561532020568848,-6.51,-5.87,1.45,8.88
21.563016891479492,-7.01,-6.54,1.56,9.71
21.577420949935913,-7.59,-6.42,1.15,10.0
21.580874919891357,-7.79,-5.83,0.13,9.73
21.624335765838623,-7.5,-5.2,-0.98,9.17
21.625535011291504,-6.68,-4.82,-1.63,8.39
21.62654685974121,-5.84,-4.69,-2.13,7.78
21.646033763885498,-5.2,-4.73,-2.48,7.45
21.647077083587646,-4.52,-4.74,-2.68,7.07
21.66212296485901,-3.66,-4.72,-2.81,6.6
21.663148880004883,-2.85,-5.02,-2.87,6.44
21.677687883377075,-2.25,-5.51,-3.07,6.69
21.679117918014526,-1.88,-6.08,-3.07,7.06
21.69406795501709,-1.77,-6.27,-2.52,6.98
21.723838806152344,-1.61,-5.64,-1.27,6.0
21.725137948989868,-0.55,-4.73,-0.5,4.78
21.72615098953247,1.54,-3.85,-0.59,4.18
21.745707988739014,3.69,-2.32,0.51,4.38
21.7467360496521,5.63,-0.62,2.24,6.09
21.762171745300293,7.43,1.71,4.45,8.82
21.76319694519043,9.35,4.7,6.29,12.2
21.77778196334839,11.93,7.41,7.93,16.12
21.77929401397705,14.64,9.98,8.89,19.82
21.79446792602539,16.85,11.77,8.87,22.38
21.824734926223755,18.45,11.62,7.42,23.03
21.82618808746338,19.47,11.42,6.27,23.42
21.82718801498413,18.29,14.15,5.6,23.79
21.84627890586853,18.66,16.15,2.11,24.76
21.84732985496521,17.51,8.42,-10.04,21.87
21.862457752227783,4.56,10.08,-16.1,19.53
21.863560914993286,-5.85,33.34,-11.58,35.77
21.877562046051025,-7.48,28.88,-4.98,30.24
21.878655910491943,1.98,7.71,3.02,8.51
21.894324779510498,6.87,-5.45,6.23,10.75
21.924170970916748,6.14,-12.47,9.32,16.73
21.925546884536743,4.57,-11.53,6.62,14.05
21.926576852798462,5.49,-6.19,5.31,9.83
21.945936918258667,5.28,-0.77,1.91,5.66
21.94698691368103,3.34,1.95,-2.1,4.4
21.96220874786377,0.64,0.74,-2.25,2.45
21.963266849517822,-1.37,-0.15,-0.3,1.41
21.977742910385132,-0.98,0.11,1.41,1.72
21.97922992706299,0.46,0.15,1.58,1.65
21.99423599243164,1.44,0.34,0.55,1.57
22.025733947753906,1.58,0.12,-0.61,1.69
22.027020931243896,1.26,-0.03,-0.88,1.53
22.02782678604126,1.04,-0.17,-0.15,1.06
22.046119928359985,1.07,-0.62,0.74,1.44
22.047138929367065,1.13,-1.05,0.87,1.77
22.062428951263428,1.07,-0.89,0.42,1.45
22.06340789794922,0.81,-0.29,-0.02,0.86
22.077573776245117,0.49,0.26,-0.29,0.62
22.078614950180054,0.31,0.4,-0.01,0.5
22.09452199935913,0.17,0.32,0.66,0.75
22.124274969100952,0.16,-0.05,0.65,0.67
22.12562394142151,0.11,-0.11,0.29,0.32
22.12663698196411,-0.03,0.18,-0.15,0.23
22.146272897720337,-0.12,0.42,-0.53,0.68
22.147316932678223,-0.05,0.34,-0.78,0.85
22.162359952926636,0.12,0.12,-0.77,0.78
22.163405895233154,0.15,-0.09,-0.43,0.46
22.178001880645752,-0.02,-0.15,-0.2,0.25
22.179452896118164,-0.19,0.06,-0.01,0.19
22.194374084472656,-0.33,0.36,0.05,0.49
22.22565507888794,-0.52,0.6,0.23,0.82
22.226988792419434,-0.67,0.69,0.36,1.02
22.227982997894287,-0.73,0.63,0.35,1.02
22.246521949768066,-0.61,0.6,0.09,0.86
22.247570991516113,-0.53,0.56,-0.28,0.82
22.26315188407898,-0.62,0.65,-0.4,0.98
22.264677047729492,-0.91,0.88,-0.3,1.3
22.277864933013916,-1.11,1.04,-0.23,1.53
22.27933979034424,-1.12,1.0,-0.63,1.62
22.294550895690918,-1.19,1.23,-0.95,1.95
22.324914932250977,-1.3,1.89,-1.15,2.56
22.326258897781372,-1.69,2.31,-1.41,3.19
22.327260971069336,-2.1,2.42,-1.25,3.43
22.346277952194214,-2.45,2.34,-0.88,3.5
22.347306966781616,-2.64,2.22,-0.79,3.53
22.36161494255066,-2.58,2.28,-1.1,3.61
22.362637042999268,-2.4,2.48,-1.8,3.89
22.378103971481323,-2.24,2.77,-2.27,4.22
22.379576921463013,-2.39,3.12,-2.49,4.65
22.394409894943237,-2.9,3.51,-2.78,5.33
22.395861864089966,-3.68,4.1,-2.88,6.21
22.44252300262451,-4.28,4.7,-3.24,7.13
22.44365692138672,-4.86,5.36,-3.28,7.94
22.444671869277954,-5.83,6.61,-2.89,9.27
22.463242053985596,-6.9,8.16,-3.72,11.31
22.464271068572998,-7.84,9.5,-5.92,13.66
22.479340076446533,-8.58,10.16,-8.14,15.59
22.48083186149597,-9.29,9.97,-8.66,16.14
22.49507188796997,-10.11,9.76,-8.99,16.68
22.49670696258545,-10.55,10.3,-8.44,16.98
22.511048793792725,-8.89,14.0,-5.34,17.42
22.54228687286377,-4.45,15.61,-4.67,16.89
22.54368305206299,0.75,12.85,-6.1,14.24
22.544722080230713,2.41,8.38,-5.94,10.55
22.563265800476074,-0.38,3.61,-6.18,7.16
22.564288854599,-4.67,-0.14,-4.44,6.44
22.579277992248535,-4.37,-3.24,-4.58,7.11
22.58032488822937,2.57,2.27,-0.32,3.44
22.59450387954712,6.3,1.02,2.88,7.0
22.595980882644653,1.24,-2.84,-2.62,4.05
22.61100482940674,-4.18,-3.1,-3.25,6.13
22.64055585861206,-7.89,-2.37,-2.35,8.56
22.641921043395996,-10.44,-1.71,-2.7,10.91
22.64290690422058,-11.64,-2.01,-2.63,12.1
22.66337776184082,-10.53,-3.13,-1.3,11.06
22.664448738098145,-7.5,-4.55,0.41,8.78
22.679426908493042,-5.43,-6.24,0.87,8.31
22.680459022521973,-5.01,-7.46,0.69,9.01
22.695178985595703,-5.38,-7.59,0.46,9.31
22.69664692878723,-5.6,-6.68,-0.05,8.71
22.71123695373535,-5.4,-5.79,-0.95,7.97
22.74138593673706,-5.0,-5.4,-1.81,7.57
22.742796897888184,-4.7,-5.27,-2.35,7.44
22.743857860565186,-4.55,-5.42,-2.76,7.59
22.76315689086914,-4.48,-5.49,-2.87,7.64
22.764221906661987,-4.39,-5.66,-2.94,7.74
22.780518054962158,-4.13,-5.93,-2.83,7.76
22.78199291229248,-3.74,-6.24,-2.53,7.7
22.79591703414917,-3.36,-6.66,-2.28,7.8
22.797401905059814,-3.06,-7.15,-2.26,8.09
22.811227798461914,-2.98,-7.38,-2.12,8.23
22.841640949249268,-3.05,-6.97,-1.73,7.8
22.843084812164307,-2.6,-5.97,-1.06,6.59
22.844088077545166,-1.27,-4.83,-0.86,5.06
22.863056898117065,0.59,-3.88,-0.6,3.97
22.864098072052002,2.56,-2.76,0.26,3.77
22.879401922225952,4.59,-0.84,1.74,4.98
22.880452871322632,6.36,1.92,3.45,7.48
22.89523696899414,8.01,5.41,4.75,10.76
22.896748065948486,9.8,8.68,5.7,14.27
22.90902805328369,11.83,11.5,5.89,17.51
22.938262939453125,13.8,13.79,5.79,20.35
22.939568042755127,15.32,14.13,6.09,21.71
22.94042682647705,16.82,13.11,7.33,22.55
22.94282102584839,17.76,12.16,8.11,23.0
22.9442720413208,16.31,15.62,8.21,24.02
22.945613861083984,15.48,16.52,6.77,23.62
22.950032949447632,14.5,7.84,-2.95,16.74
22.960402011871338,2.85,-1.32,-10.81,11.25
22.97029399871826,-9.18,15.39,-11.73,21.41
22.98016881942749,-12.32,31.42,-2.91,33.87
23.01422882080078,-8.64,12.32,4.12,15.6
23.015185832977295,3.23,1.12,5.48,6.45
23.01599407196045,11.09,-3.44,6.89,13.5
23.03014898300171,11.91,-7.46,5.64,15.14
23.031023025512695,8.98,-6.05,1.97,11.0
23.04610300064087,4.13,-2.54,1.11,4.97
23.04957389831543,1.59,-0.35,-0.25,1.64
23.061359882354736,0.88,0.46,-1.94,2.17
23.069657802581787,1.02,0.25,-1.56,1.88
23.079108953475952,1.29,-0.24,0.55,1.42
23.1173038482666,1.14,-0.68,2.22,2.58
23.11853289604187,0.52,-0.46,2.02,2.13
23.11935806274414,0.07,0.09,0.65,0.65
23.13043975830078,0.11,0.22,-0.41,0.47
23.131378889083862,0.34,0.07,-0.45,0.56
23.146179914474487,0.68,-0.13,0.28,0.74
23.148814916610718,0.81,-0.4,0.62,1.09
23.161410808563232,0.66,-0.38,0.21,0.79
23.168551921844482,0.59,-0.13,-0.43,0.74
23.178524017333984,0.62,0.03,-0.62,0.87
23.18900990486145,0.65,0.0,-0.32,0.72
23.220195770263672,0.56,-0.14,-0.01,0.57
23.221153736114502,0.31,-0.25,0.0,0.39
23.223058938980103,-0.01,-0.09,-0.05,0.1
23.227994918823242,-0.15,0.14,-0.04,0.2
23.246599912643433,-0.06,0.29,0.08,0.3
23.247882843017578,0.01,0.22,-0.02,0.22
23.2618408203125,0.08,0.05,-0.43,0.44
23.26783585548401,0.14,-0.02,-0.78,0.79
23.27791404724121,-0.03,0.14,-0.72,0.73
23.28797674179077,-0.4,0.39,-0.6,0.81
23.31880474090576,-0.68,0.58,-0.57,1.06
23.319769859313965,-0.67,0.68,-0.32,1.0
23.32078790664673,-0.53,0.59,-0.12,0.8
23.32734489440918,-0.46,0.34,-0.1,0.58
23.33759593963623,-0.51,0.13,-0.02,0.52
23.347211837768555,-0.52,0.03,0.07,0.52
23.3575599193573,-0.58,0.03,-0.2,0.61
23.367228984832764,-0.65,0.16,-0.51,0.84
23.377304077148438,-0.67,0.37,-0.88,1.16
23.3870849609375,-0.67,0.67,-1.0,1.37
23.41929578781128,-0.72,0.92,-1.05,1.57
23.42038583755493,-0.78,1.1,-1.03,1.69
23.4212589263916,-0.86,1.2,-0.85,1.7
23.427108764648438,-1.11,1.24,-0.76,1.82
23.436843872070312,-1.44,1.25,-0.98,2.14
23.446733951568604,-1.79,1.58,-0.69,2.48
23.456702947616577,-1.94,1.91,-1.03,2.91
23.466551780700684,-1.84,2.27,-1.69,3.37
23.476633071899414,-1.68,3.11,-1.7,3.92
23.486660957336426,-1.94,3.5,-1.76,4.37
23.519107818603516,-2.43,3.78,-1.58,4.76
23.52036690711975,-2.79,3.91,-1.78,5.12
23.521504878997803,-2.88,3.96,-2.03,5.3
23.52972984313965,-3.04,4.38,-2.26,5.79
23.535983085632324,-3.39,4.95,-2.93,6.67
23.545790910720825,-4.02,5.81,-3.6,7.92
23.5560359954834,-5.12,6.98,-4.33,9.67
23.565561771392822,-6.62,8.38,-4.65,11.64
23.57603096961975,-8.11,9.76,-5.2,13.71
23.5859317779541,-8.96,10.32,-6.75,15.24
23.624323844909668,-9.02,9.64,-8.44,15.66
23.625732898712158,-8.66,8.38,-9.77,15.51
23.626676082611084,-8.63,7.74,-10.74,15.8
23.647007942199707,-8.17,10.71,-7.78,15.55
23.648063898086548,-5.04,16.01,-3.57,17.16
23.663352012634277,-0.4,15.5,-4.55,16.15
23.664365768432617,2.66,9.46,-8.04,12.69
23.678832054138184,1.1,3.58,-8.46,9.25
23.680312871932983,-3.84,-0.13,-6.09,7.2
23.69515085220337,-5.4,-3.26,-4.41,7.69
23.722333908081055,-0.02,0.56,-0.16,0.58
23.723675966262817,4.68,-0.08,4.09,6.21
23.724533081054688,1.01,-4.85,-0.5,4.97
23.727012872695923,-4.04,-5.71,-2.5,7.42
23.73455286026001,-7.79,-5.45,-1.67,9.65
23.744505882263184,-10.64,-4.68,-1.86,11.77
23.754414081573486,-12.52,-4.13,-2.25,13.37
23.764432907104492,-12.01,-4.0,-1.34,12.72
23.774352073669434,-8.52,-4.58,0.18,9.67
23.784082889556885,-5.27,-5.84,1.01,7.93
23.820663928985596,-4.2,-6.99,1.0,8.21
23.822035789489746,-4.78,-7.34,0.66,8.78
23.822847843170166,-5.64,-6.91,0.42,8.92
23.826483964920044,-5.81,-6.44,-0.22,8.67
23.846513748168945,-5.33,-6.09,-1.11,8.16
23.84754705429077,-4.72,-5.52,-1.71,7.46
23.861958980560303,-4.23,-4.94,-2.25,6.88
23.863205909729004,-3.7,-4.6,-2.5,6.41
23.878410816192627,-3.19,-4.78,-2.51,6.27
23.883655071258545,-2.79,-5.3,-2.1,6.34
23.923672914505005,-2.48,-5.72,-1.65,6.44
23.92480993270874,-2.27,-6.0,-1.55,6.59
23.92582607269287,-2.24,-5.77,-1.49,6.36
23.947285890579224,-2.3,-5.14,-1.14,5.74
23.94834589958191,-2.2,-4.49,-0.92,5.08
23.96363401412964,-1.79,-3.58,-0.58,4.04
23.96514391899109,-1.15,-2.52,0.05,2.77
23.978930950164795,0.01,-1.56,0.76,1.73
23.980408906936646,1.39,-0.27,1.82,2.3
23.99524688720703,2.42,1.88,3.32,4.51
23.9967098236084,3.32,4.54,4.64,7.29
24.042068004608154,4.43,7.11,5.31,9.91
24.043274879455566,5.92,9.47,4.89,12.19
24.044344902038574,7.68,11.2,4.29,14.24
24.06134796142578,9.77,12.79,4.19,16.63
24.062373876571655,12.08,14.52,4.89,19.51
24.080132007598877,14.16,15.38,5.51,21.61
24.081623077392578,15.73,14.49,6.52,22.35
24.095731735229492,16.33,12.05,7.29,21.56
24.097221851348877,16.57,9.15,7.95,20.53
24.1114718914032,17.02,7.43,9.4,20.81
24.141529083251953,16.09,6.42,10.48,20.24
24.142895936965942,11.23,6.71,6.53,14.62
24.143911838531494,3.87,1.74,-1.42,4.47
24.163897037506104,-3.85,-6.36,-10.93,13.21
24.164971828460693,-14.81,-4.76,-24.54,29.05
24.17999792098999,-23.41,18.18,-18.13,34.74
24.18105387687683,-16.41,26.29,7.88,31.97
24.19574785232544,-5.52,11.71,8.82,15.66
24.197227954864502,2.03,-1.46,3.83,4.57
24.211854934692383,7.59,-2.99,4.02,9.09
24.241498947143555,12.27,-2.1,1.87,12.58
24.2428879737854,12.49,-2.53,0.52,12.75
24.243906021118164,9.57,-2.58,-0.61,9.93
24.263807773590088,5.16,-2.4,0.76,5.74
24.264869928359985,2.55,-1.96,0.88,3.33
24.279976844787598,1.49,-0.79,0.28,1.7
24.28102993965149,1.47,0.52,1.25,1.99
24.296009063720703,1.22,0.28,1.8,2.19
24.297517776489258,0.59,-0.41,1.32,1.5
24.311811923980713,0.2,-0.25,0.65,0.72
24.341006755828857,0.33,0.06,0.02,0.33
24.342456817626953,0.72,-0.01,-0.5,0.87
24.343469858169556,0.71,-0.05,-0.27,0.76
24.36415195465088,0.33,-0.09,0.59,0.68
24.365199089050293,0.15,-0.31,0.89,0.95
24.3798770904541,0.31,-0.46,0.31,0.63
24.38087797164917,0.68,-0.3,-0.37,0.83
24.396008014678955,0.76,-0.05,-0.5,0.91
24.39748787879944,0.41,0.13,-0.16,0.45
24.41206192970276,-0.1,0.09,0.15,0.2
24.440876960754395,-0.44,0.06,0.18,0.47
24.4427969455719,-0.47,0.19,-0.1,0.51
24.44381594657898,-0.28,0.36,-0.47,0.65
24.463908910751343,-0.23,0.38,-0.56,0.71
24.4649658203125,-0.37,0.31,-0.77,0.9
24.479856967926025,-0.39,0.23,-0.97,1.07
24.480854988098145,-0.33,0.23,-0.93,1.01
24.495954990386963,-0.39,0.26,-0.78,0.91
24.497411966323853,-0.7,0.37,-0.45,0.91
24.51184606552124,-1.0,0.42,-0.08,1.08
24.541339874267578,-0.95,0.35,0.21,1.03
24.542603969573975,-0.73,0.26,0.32,0.83
24.543603897094727,-0.57,0.17,0.0,0.59
24.564697742462158,-0.34,0.14,-0.48,0.6
24.565773010253906,-0.13,0.13,-0.46,0.49
24.57950186729431,-0.07,0.12,-0.25,0.28
24.58054494857788,-0.15,0.05,-0.34,0.37
24.596577882766724,-0.28,0.15,-0.47,0.56
24.59807586669922,-0.35,0.44,-0.59,0.81
24.612348079681396,-0.55,0.65,-0.76,1.14
24.639090061187744,-0.68,0.85,-0.61,1.24
24.640524864196777,-0.84,0.9,-0.36,1.28
24.641489028930664,-1.3,0.94,-0.34,1.63
24.643898963928223,-1.78,1.11,-0.43,2.14
24.64508581161499,-2.08,1.24,-0.59,2.49
24.64720892906189,-2.03,1.46,-0.77,2.61
24.65742778778076,-1.82,1.92,-1.02,2.83
24.667616844177246,-1.4,2.3,-1.63,3.14
24.677501916885376,-1.28,2.62,-2.59,3.9
24.687229871749878,-1.46,3.51,-2.76,4.69
24.720180988311768,-1.96,4.05,-2.5,5.14
24.721314907073975,-2.59,4.32,-2.01,5.42
24.72212290763855,-3.21,4.44,-1.75,5.75
24.727755069732666,-3.69,4.91,-1.67,6.36
24.737063884735107,-4.4,5.44,-2.27,7.35
24.747565746307373,-5.27,6.49,-2.42,8.7
24.7568519115448,-6.48,7.97,-2.78,10.64
24.76656985282898,-8.05,9.28,-3.64,12.81
24.776872873306274,-9.92,10.77,-5.09,15.5
24.786871910095215,-11.22,11.77,-7.06,17.72
24.797478914260864,-11.61,11.44,-8.19,18.24
24.828271865844727,-11.87,10.23,-9.34,18.24
24.82928991317749,-12.03,10.23,-9.68,18.52
24.830286026000977,-9.99,14.71,-5.8,18.7
24.84769105911255,-4.74,16.53,-5.09,17.93
24.84876585006714,1.22,13.51,-6.42,15.0
24.863566875457764,2.69,8.36,-6.01,10.64
24.865830898284912,-1.53,2.6,-7.72,8.28
24.878912925720215,-6.29,-1.37,-6.22,8.95
24.885873794555664,-4.18,-0.95,-3.23,5.36
24.895875930786133,4.4,4.59,3.57,7.29
24.927846908569336,6.72,-0.6,3.34,7.52
24.929187774658203,1.56,-4.82,-3.33,6.06
24.93024492263794,-4.03,-5.12,-3.54,7.41
24.94752597808838,-7.57,-4.41,-2.5,9.11
24.948566913604736,-9.76,-4.04,-2.84,10.93
24.963647842407227,-10.5,-4.28,-2.89,11.7
24.964969873428345,-8.61,-5.14,-1.8,10.18
24.979135036468506,-5.98,-6.21,-0.39,8.62
24.98548173904419,-4.68,-7.47,0.36,8.82
24.995617866516113,-4.73,-8.52,0.49,9.75
25.02866792678833,-5.51,-8.62,0.31,10.23
25.030075073242188,-6.0,-8.16,-0.42,10.13
25.031078815460205,-5.91,-7.87,-1.44,9.94
25.047555923461914,-6.0,-7.12,-2.16,9.55
25.04861307144165,-5.89,-6.94,-2.77,9.51
25.063532829284668,-5.58,-6.89,-3.02,9.36
25.06451392173767,-5.3,-7.05,-3.15,9.36
25.0784809589386,-5.06,-7.47,-3.02,9.51
25.084378957748413,-4.86,-7.68,-2.65,9.46
25.095841884613037,-4.67,-7.74,-2.35,9.34
25.12703275680542,-4.39,-7.68,-2.18,9.11
25.12840986251831,-4.06,-7.52,-2.17,8.81
25.129385948181152,-3.94,-7.26,-2.17,8.54
25.147549867630005,-3.96,-6.69,-2.14,8.06
25.14855694770813,-3.75,-5.41,-1.54,6.76
25.16378402709961,-3.19,-3.52,-0.58,4.78
25.164808750152588,-1.75,-1.56,-0.47,2.39
25.17943787574768,0.73,0.65,-0.38,1.04
25.18370485305786,3.77,3.77,0.31,5.34
25.19577407836914,6.48,7.62,1.25,10.08
25.23275375366211,8.76,12.83,1.61,15.61
25.234030961990356,11.1,18.33,1.07,21.45
25.235055923461914,13.58,20.47,1.44,24.6
25.24784278869629,16.21,18.7,3.86,25.04
25.248959064483643,18.56,15.52,6.01,24.92
25.262629985809326,19.78,12.52,7.56,24.59
25.26368284225464,18.54,10.37,7.9,22.66
25.277044773101807,14.35,14.92,6.72,21.76
25.283130884170532,12.94,11.3,5.66,18.08
25.295894861221313,11.14,7.17,3.0,13.58
25.330317974090576,5.01,-4.39,-0.85,6.71
25.331751823425293,-5.5,-5.42,-7.46,10.73
25.332751750946045,-13.42,8.27,-9.14,18.22
25.347688913345337,-13.81,18.46,2.82,23.22
25.348708868026733,-7.85,6.26,7.13,12.31
25.36405086517334,1.95,2.03,4.27,5.11
25.365073919296265,11.08,7.22,3.02,13.56
25.37929892539978,14.49,4.92,-1.14,15.34
25.38191294670105,14.21,3.78,-5.64,15.74
25.39572286605835,9.98,1.28,-0.71,10.08
25.42960786819458,3.88,-3.71,1.38,5.54
25.430953979492188,0.83,-6.23,0.82,6.33
25.43193793296814,-0.74,-3.42,-1.27,3.72
25.447943925857544,-0.93,0.83,0.56,1.36
25.448987007141113,0.03,1.18,3.01,3.23
25.463995933532715,0.86,-1.13,3.77,4.02
25.46496891975403,0.86,-2.35,2.44,3.49
25.47942590713501,0.74,-1.04,0.15,1.28
25.48138999938965,0.96,0.56,-0.18,1.12
25.49575686454773,0.98,0.67,-0.1,1.19
25.53022289276123,1.0,0.06,0.06,1.0
25.531611919403076,0.91,-0.3,0.51,1.08
25.5326189994812,0.81,-0.42,0.8,1.21
25.548059940338135,0.86,-0.35,0.58,1.09
25.549118041992188,0.89,-0.24,-0.15,0.93
25.565480947494507,0.66,0.01,-0.66,0.93
25.56643581390381,0.32,0.2,-0.51,0.63
25.578921794891357,0.07,0.11,-0.14,0.19
25.580612897872925,-0.02,-0.21,0.13,0.24
25.593889951705933,0.14,-0.32,0.13,0.37
25.60058879852295,0.46,-0.3,-0.13,0.56
25.64122486114502,0.65,-0.27,-0.25,0.74
25.64239501953125,0.5,-0.12,-0.17,0.54
25.643372058868408,0.04,0.06,-0.11,0.13
25.66495704650879,-0.33,0.34,-0.21,0.51
25.665987968444824,-0.46,0.54,-0.35,0.79
25.68090295791626,-0.42,0.63,-0.6,0.96
25.68235683441162,-0.35,0.54,-0.8,1.02
25.69650888442993,-0.41,0.52,-0.39,0.76
25.697975873947144,-0.57,0.44,-0.11,0.72
25.712435960769653,-0.71,0.38,-0.1,0.81
25.742197036743164,-0.68,0.44,-0.3,0.86
25.743579864501953,-0.57,0.6,-0.53,0.98
25.744547843933105,-0.6,0.72,-0.68,1.15
25.76467800140381,-0.6,0.79,-0.77,1.25
25.765636920928955,-0.51,0.7,-0.85,1.21
25.780849933624268,-0.49,0.67,-0.96,1.26
25.782317876815796,-0.57,0.83,-0.82,1.29
25.796730041503906,-0.7,0.96,-0.89,1.48
25.79825496673584,-0.99,0.91,-1.06,1.71
25.81268286705017,-2.04,1.66,-0.89,2.77
25.842320919036865,-2.46,2.58,-0.72,3.63
25.843628883361816,-2.45,2.78,-0.8,3.79
25.84465193748474,-2.32,2.92,-1.04,3.87
25.865166902542114,-2.21,3.13,-1.43,4.08
25.86620593070984,-2.35,3.33,-1.83,4.46
25.880568981170654,-2.71,3.54,-2.29,5.01
25.881584882736206,-3.1,3.89,-2.51,5.57
25.89660406112671,-3.6,4.41,-2.69,6.29
25.898096084594727,-4.15,5.15,-2.84,7.19
25.91291379928589,-4.86,5.97,-3.09,8.29
25.94243288040161,-5.86,7.38,-2.95,9.87
25.943904876708984,-6.85,9.05,-3.64,11.91
25.944922924041748,-7.93,10.14,-6.18,14.27
25.964802742004395,-8.69,10.63,-8.04,15.91
25.96583890914917,-8.98,10.45,-9.09,16.5
25.980876922607422,-9.06,9.47,-10.25,16.63
25.982374906539917,-9.22,9.93,-10.01,16.84
25.996328830718994,-7.71,15.09,-5.59,17.84
25.99779176712036,-3.73,18.0,-3.65,18.74
26.01259994506836,1.28,14.16,-7.68,16.15
26.04077386856079,2.6,8.08,-8.69,12.14
26.042160034179688,-1.05,3.01,-8.01,8.62
26.043118000030518,-5.33,-0.98,-5.53,7.74
26.045350074768066,-3.56,-2.06,-3.33,5.29
26.046880960464478,4.36,2.84,2.63,5.83
26.056912899017334,5.67,-1.72,3.31,6.78
26.067049026489258,-0.67,-5.0,-2.4,5.58
26.077014923095703,-5.97,-5.31,-2.39,8.33
26.086862087249756,-9.07,-4.68,-1.66,10.34
26.09699583053589,-11.34,-4.03,-2.2,12.23
26.132400035858154,-12.12,-3.5,-2.07,12.78
26.13356304168701,-10.1,-3.94,-0.67,10.86
26.134589910507202,-6.82,-5.31,0.57,8.66
26.147998809814453,-5.05,-6.84,1.08,8.57
26.14905595779419,-5.21,-8.02,1.01,9.61
26.16426706314087,-6.35,-7.93,0.83,10.19
26.165896892547607,-7.05,-7.25,0.12,10.11
26.179831981658936,-6.86,-6.62,-0.91,9.57
26.186012744903564,-6.23,-5.95,-1.73,8.78
26.19615077972412,-5.56,-5.6,-2.16,8.18
26.232831954956055,-5.02,-5.54,-2.4,7.85
26.2340989112854,-4.63,-5.69,-2.45,7.73
26.235118865966797,-4.23,-6.04,-2.49,7.78
26.248267889022827,-3.82,-6.26,-2.35,7.7
26.249329090118408,-3.24,-6.39,-2.19,7.49
26.26432991027832,-2.6,-6.46,-2.21,7.3
26.2653489112854,-2.24,-6.69,-2.4,7.45
26.279056072235107,-2.44,-6.54,-2.29,7.34
26.285515785217285,-3.05,-5.53,-1.71,6.54
26.296220779418945,-3.45,-3.98,-1.2,5.4
26.333837032318115,-2.44,-2.46,-1.32,3.7
26.335166931152344,0.15,-1.24,-1.14,1.69
26.336171865463257,2.7,0.08,-0.37,2.72
26.348320960998535,4.5,2.46,1.14,5.25
26.349376916885376,5.84,5.57,2.16,8.35
26.36435294151306,7.56,9.59,2.71,12.5
26.365378856658936,10.06,13.38,2.3,16.89
26.3800687789917,13.14,14.81,2.49,19.95
26.385600090026855,15.99,13.73,3.77,21.41
26.395120859146118,17.62,11.91,4.84,21.81
26.40456795692444,18.4,11.44,6.26,22.55
26.438992023468018,18.56,10.34,7.02,22.37
26.440249919891357,17.63,9.54,7.2,21.29
26.44143295288086,14.97,13.37,7.29,21.35
26.445226907730103,12.8,14.05,8.58,20.85
26.464783906936646,8.67,4.13,3.74,10.3
26.465774059295654,-1.06,-5.33,-3.71,6.58
26.479290008544922,-12.54,1.42,-10.8,16.61
26.483819007873535,-18.22,25.03,-4.16,31.23
26.49525499343872,-14.53,25.0,5.55,29.44
26.503607749938965,-3.23,5.39,4.75,7.87
26.54294490814209,4.71,-5.8,2.75,7.96
26.544147968292236,8.25,-7.81,3.15,11.78
26.545151948928833,11.28,-2.5,3.25,12.0
26.564873933792114,10.37,-1.06,0.8,10.45
26.56596803665161,5.6,-1.28,-2.82,6.39
26.580893993377686,2.82,-0.04,-0.9,2.96
26.58191680908203,1.78,-0.47,-0.15,1.84
26.596693992614746,2.23,-0.53,0.68,2.39
26.598206996917725,1.84,-0.45,1.22,2.25
26.612592935562134,0.75,-0.04,1.34,1.53
26.642477989196777,-0.28,0.36,1.42,1.49
26.64389705657959,-0.7,0.23,1.62,1.77
26.644888877868652,-0.41,-0.31,1.36,1.45
26.664926052093506,0.2,-0.67,0.67,0.96
26.665971755981445,0.71,-0.51,-0.05,0.87
26.68087387084961,0.95,-0.26,-0.57,1.13
26.681891918182373,0.89,0.02,-0.81,1.2
26.697006940841675,0.75,0.13,-0.75,1.06
26.698447942733765,0.77,0.08,-0.4,0.87
26.713613033294678,0.79,-0.1,-0.18,0.81
26.74261474609375,0.73,-0.39,-0.27,0.87
26.74389386177063,0.43,-0.39,-0.1,0.58
26.744850873947144,-0.19,-0.11,0.37,0.43
26.764726877212524,-0.65,0.07,0.68,0.94
26.765751838684082,-0.49,0.24,0.89,1.04
26.781017780303955,-0.13,0.27,0.5,0.58
26.782021045684814,0.33,0.14,-0.54,0.64
26.7960147857666,0.63,0.01,-1.09,1.25
26.79743194580078,0.36,0.13,-0.84,0.92
26.81144094467163,-0.31,0.32,-0.57,0.72
26.83879804611206,-0.82,0.53,-0.51,1.1
26.84013295173645,-0.91,0.66,-0.46,1.21
26.84119486808777,-0.65,0.63,-0.24,0.93
26.844619750976562,-0.46,0.46,-0.04,0.65
26.86452293395996,-0.54,0.31,0.11,0.63
26.86550998687744,-0.65,0.19,-0.16,0.69
26.879817008972168,-0.65,0.16,-0.49,0.82
26.880812883377075,-0.66,0.28,-0.74,1.03
26.896596908569336,-0.67,0.46,-0.91,1.22
26.900750875473022,-0.57,0.65,-0.86,1.21
26.93986177444458,-0.54,0.83,-0.62,1.16
26.94105291366577,-0.71,0.85,-0.53,1.22
26.942301750183105,-0.84,0.83,-0.43,1.25
26.94457483291626,-0.95,0.76,-0.44,1.29
26.96470880508423,-0.91,0.89,-0.64,1.42
26.965703010559082,-0.91,1.12,-0.86,1.67
26.979888916015625,-0.94,1.36,-0.72,1.8
26.980918884277344,-1.19,1.62,-0.84,2.17
26.996598958969116,-1.38,2.3,-0.95,2.84
27.000033855438232,-1.57,2.78,-1.08,3.37
27.038203954696655,-1.88,3.18,-1.2,3.88
27.039405822753906,-2.26,3.37,-1.43,4.3
27.040629863739014,-2.61,3.64,-1.43,4.7
27.042006015777588,-2.9,4.0,-1.65,5.2
27.04957890510559,-3.18,4.22,-2.13,5.69
27.064389944076538,-3.72,4.72,-2.09,6.36
27.069201946258545,-4.66,5.71,-1.94,7.62
27.079072952270508,-6.05,7.18,-2.25,9.65
27.08939790725708,-7.35,8.7,-3.53,11.92
27.09918189048767,-8.33,9.74,-5.59,13.98
27.135077953338623,-9.25,10.36,-7.3,15.69
27.13639783859253,-9.68,10.42,-8.38,16.5
27.137419939041138,-9.91,9.57,-9.23,16.58
27.148932933807373,-10.05,9.39,-9.24,16.56
27.149943828582764,-8.61,12.65,-6.34,16.56
27.16472101211548,-4.59,14.86,-5.16,16.38
27.168509006500244,0.75,13.7,-6.38,15.13
27.179993867874146,3.22,10.43,-5.01,12.01
27.188243865966797,0.46,4.76,-6.65,8.19
27.198365926742554,-4.49,0.52,-6.48,7.9
27.208620071411133,-4.61,-1.11,-5.3,7.11
27.239722967147827,2.25,4.74,-0.97,5.33
27.240948915481567,5.28,2.31,2.03,6.11
27.24220895767212,0.66,-2.36,-2.76,3.69
27.24793291091919,-4.41,-3.14,-3.46,6.42
27.264967918395996,-8.05,-2.83,-2.72,8.95
27.267676830291748,-10.59,-2.71,-3.23,11.39
27.27997088432312,-11.8,-3.45,-3.31,12.73
27.28749179840088,-10.85,-4.61,-2.03,11.96
27.297729015350342,-8.49,-5.88,-0.26,10.33
27.307946920394897,-7.02,-7.62,0.61,10.37
27.339895963668823,-6.82,-8.73,1.0,11.12
27.341091871261597,-7.08,-8.72,0.59,11.24
27.34235191345215,-7.35,-7.95,-0.16,10.82
27.34702205657959,-7.36,-7.54,-1.08,10.59
27.36495876312256,-6.86,-7.46,-1.91,10.31
27.366990089416504,-6.25,-7.41,-2.41,9.98
27.37948179244995,-5.85,-7.43,-2.6,9.8
27.386991024017334,-5.34,-7.31,-2.77,9.46
27.396913051605225,-4.71,-7.1,-2.84,8.98
27.407022953033447,-4.19,-7.02,-3.01,8.71
27.437511920928955,-3.86,-7.02,-3.14,8.6
27.438638925552368,-3.54,-6.85,-3.15,8.32
27.43987798690796,-3.27,-6.48,-2.91,7.81
27.446671962738037,-3.33,-5.9,-2.4,7.18
27.456442832946777,-3.63,-5.05,-1.57,6.41
27.466392993927002,-3.95,-3.71,-0.61,5.45
27.47627878189087,-3.51,-1.99,-0.01,4.03
27.486329078674316,-1.73,-0.23,0.63,1.85
27.496545791625977,0.8,1.75,1.76,2.6
27.506345748901367,3.15,4.06,2.68,5.79
27.536711931228638,4.83,6.83,2.6,8.76
27.53845977783203,6.43,10.53,1.66,12.44
27.539560794830322,9.29,15.97,1.17,18.51
27.548951864242554,13.39,21.18,0.51,25.06
27.556160926818848,17.73,21.42,0.4,27.8
27.565495014190674,22.14,17.98,2.42,28.62
27.575291872024536,25.81,14.12,6.15,30.05
27.585344791412354,27.97,10.75,9.67,31.48
27.595462799072266,26.33,11.32,9.7,30.25
27.60553288459778,22.17,9.4,8.05,25.39
27.64275884628296,13.47,-0.23,2.31,13.66
27.644245862960815,0.74,-6.83,-4.4,8.15
27.645229816436768,-12.75,-0.71,-13.68,18.71
27.665586948394775,-23.37,25.92,-11.98,36.89
27.66665506362915,-22.32,28.3,3.6,36.22
27.681511878967285,-8.27,7.33,9.17,14.36
27.68255090713501,4.42,-1.96,8.27,9.57
27.698798894882202,9.96,-7.06,6.21,13.69
27.700281858444214,11.47,-9.61,2.83,15.22
27.714344024658203,11.85,-6.44,-0.93,13.51
27.744345903396606,9.97,-0.83,-0.43,10.01
27.74571180343628,4.68,-0.27,-0.92,4.77
27.74675488471985,0.8,-0.59,-1.15,1.52
27.765342950820923,-0.84,0.13,0.69,1.09
27.76639485359192,-0.38,0.31,3.62,3.65
27.78139090538025,0.5,-0.42,3.53,3.58
27.78240203857422,0.63,-0.54,1.53,1.74
27.79749584197998,0.67,-0.11,0.16,0.69
27.798895835876465,0.67,0.09,-0.14,0.69
27.813310861587524,0.65,-0.03,-0.07,0.65
27.84234094619751,0.62,-0.25,-0.22,0.7
27.84369707107544,0.55,-0.16,-0.16,0.59
27.84469485282898,0.56,0.0,-0.49,0.74
27.865676879882812,0.82,0.02,-1.08,1.35
27.866736888885498,1.07,-0.01,-1.17,1.58
27.88148593902588,0.92,-0.02,-0.6,1.09
27.88251495361328,0.41,-0.07,0.18,0.45
27.897411823272705,-0.01,-0.18,0.42,0.45
27.898725986480713,-0.27,-0.25,0.25,0.44
27.91354990005493,-0.45,0.05,0.17,0.48
27.943126916885376,-0.47,0.35,0.07,0.59
27.944469928741455,-0.36,0.45,0.09,0.58
27.94544506072998,-0.06,0.33,-0.31,0.45
27.96557903289795,0.19,0.15,-0.92,0.95
27.96661376953125,0.09,0.21,-0.83,0.86
27.981459856033325,-0.33,0.35,-0.36,0.6
27.982470989227295,-0.74,0.46,-0.02,0.87
27.997389793395996,-0.81,0.48,-0.1,0.94
27.998801946640015,-0.6,0.54,-0.26,0.84
28.01343297958374,-0.46,0.6,-0.15,0.77
28.014877796173096,-0.5,0.53,-0.3,0.78
28.060321807861328,-0.65,0.5,-0.41,0.91
28.061478853225708,-0.82,0.53,-0.36,1.04
28.062480926513672,-0.97,0.62,-0.41,1.22
28.082167863845825,-0.93,0.69,-0.74,1.37
28.083209991455078,-0.86,0.81,-0.87,1.46
28.098552942276,-0.94,1.1,-0.75,1.62
28.100071907043457,-1.32,1.36,-0.81,2.06
28.113769054412842,-1.5,1.48,-0.71,2.22
28.115254878997803,-1.67,1.41,-0.81,2.33
28.130295753479004,-1.78,1.66,-0.9,2.59
28.16137385368347,-1.59,2.21,-0.96,2.88
28.162742853164673,-1.54,2.43,-1.15,3.09
28.163704872131348,-1.54,2.73,-1.2,3.35
28.18196678161621,-1.93,3.06,-1.64,3.97
28.18299388885498,-2.47,3.64,-2.09,4.87
28.19878387451172,-2.96,4.17,-2.2,5.56
28.20022487640381,-3.68,4.54,-2.27,6.26
28.214059829711914,-4.32,5.0,-2.43,7.04
28.215552806854248,-4.73,5.46,-2.85,7.76
28.230483055114746,-5.37,6.27,-3.23,8.86
28.26096796989441,-6.22,7.38,-3.84,10.38
28.262276887893677,-7.19,8.51,-4.96,12.19
28.263291835784912,-8.47,9.87,-6.22,14.41
28.28232479095459,-9.21,10.86,-7.74,16.2
28.283371925354004,-9.61,10.88,-9.7,17.45
28.2979519367218,-10.11,10.45,-11.49,18.53
28.299417972564697,-9.82,12.56,-10.59,19.13
28.311863899230957,-7.04,16.95,-6.75,19.55
28.313371896743774,-1.88,17.13,-5.36,18.04
28.330437898635864,2.47,14.29,-5.24,15.41
28.359174966812134,2.16,9.37,-6.62,11.67
28.36028790473938,-2.77,3.55,-8.48,9.6
28.36108088493347,-6.03,-0.59,-5.62,8.26
28.378592014312744,-0.84,5.29,1.76,5.63
28.37955904006958,4.94,2.7,5.98,8.21
28.399002075195312,3.16,-4.35,-0.86,5.44
28.400081872940063,-1.72,-5.44,-4.03,6.98
28.414644956588745,-5.51,-4.53,-2.71,7.63
28.4161319732666,-7.7,-3.94,-2.7,9.06
28.4306640625,-8.9,-3.71,-3.2,10.15
28.458783864974976,-8.34,-4.57,-3.03,9.98
28.460198879241943,-6.82,-5.79,-1.88,9.14
28.46117877960205,-5.89,-6.88,-0.79,9.09
28.463440895080566,-6.02,-7.92,-0.06,9.94
28.46486186981201,-6.79,-8.34,0.31,10.75
28.46858787536621,-7.48,-8.5,0.36,11.32
28.478986740112305,-7.51,-8.39,-0.05,11.26
28.48881196975708,-7.48,-7.78,-0.47,10.8
28.498565912246704,-7.65,-7.32,-0.75,10.61
28.508368968963623,-7.2,-7.47,-1.89,10.54
28.543543815612793,-6.77,-6.98,-2.31,9.99
28.544963836669922,-6.5,-6.67,-2.43,9.62
28.545988082885742,-6.03,-6.73,-2.17,9.29
28.566012859344482,-5.24,-6.79,-1.81,8.76
28.567062854766846,-4.35,-6.88,-1.55,8.28
28.58161497116089,-3.74,-7.3,-1.65,8.36
28.582597970962524,-3.74,-7.96,-2.37,9.1
28.59775996208191,-4.33,-8.38,-3.14,9.94
28.59924292564392,-5.06,-7.67,-3.15,9.71
28.61344575881958,-5.61,-5.91,-2.55,8.53
28.645812034606934,-5.65,-4.11,-1.87,7.23
28.647247791290283,-4.54,-2.36,-0.76,5.17
28.648262977600098,-2.25,-0.85,-0.14,2.4
28.66593074798584,0.9,1.46,1.06,2.01
28.66699194908142,5.2,5.44,3.05,8.12
28.683199882507324,9.46,10.29,4.96,14.83
28.684257984161377,12.73,14.71,5.57,20.23
28.697010040283203,15.03,18.96,4.85,24.67
28.698474884033203,16.77,20.38,4.82,26.82
28.71224594116211,18.17,18.87,4.58,26.59
28.746362924575806,19.19,17.34,5.0,26.34
28.747724056243896,19.07,17.2,3.85,25.96
28.74875783920288,19.39,18.56,2.85,26.99
28.766125917434692,20.21,11.58,-0.6,23.3
28.76718282699585,15.16,-0.62,-5.52,16.14
28.781900882720947,-0.22,-5.22,-7.33,9.0
28.78289794921875,-12.75,17.75,-6.13,22.69
28.798024892807007,-14.37,31.3,1.45,34.47
28.799468994140625,-8.34,10.5,3.87,13.95
28.814018964767456,0.41,-4.14,4.26,5.95
28.816312789916992,6.24,-4.49,5.74,9.59
28.862290859222412,10.58,-3.93,5.53,12.56
28.863502025604248,11.25,-4.84,0.44,12.25
28.864541053771973,9.48,-1.91,-1.68,9.81
28.88282299041748,5.87,0.07,0.57,5.89
28.883872985839844,2.33,-1.22,-0.15,2.63
28.898595809936523,0.06,-1.24,-0.23,1.26
28.899631023406982,-0.65,-0.04,2.3,2.39
28.914376735687256,-0.17,0.24,3.93,3.94
28.91578197479248,0.86,-0.37,2.0,2.2
28.930808067321777,1.51,-0.4,0.04,1.56
28.960813999176025,1.5,-0.15,-0.31,1.53
28.96208906173706,1.24,-0.35,0.19,1.3
28.96312189102173,0.99,-0.69,0.72,1.4
28.982528924942017,0.82,-0.74,0.77,1.34
28.98356580734253,0.82,-0.31,0.23,0.9
28.998616933822632,0.82,0.16,-0.11,0.84
28.999583959579468,0.67,0.3,-0.08,0.73
29.014168739318848,0.35,0.15,0.01,0.38
29.01561689376831,0.13,-0.02,0.07,0.14
29.030603885650635,0.09,-0.15,-0.3,0.34
29.059906005859375,0.1,-0.08,-0.42,0.43
29.061264038085938,0.02,0.06,-0.22,0.22
29.06227684020996,-0.1,0.14,-0.23,0.28
29.08284592628479,-0.16,0.26,-0.44,0.53
29.083833932876587,-0.14,0.29,-0.71,0.77
29.098790884017944,-0.31,0.35,-0.62,0.77
29.099709033966064,-0.59,0.31,-0.44,0.79
29.114624977111816,-0.77,0.34,-0.2,0.86
29.11609697341919,-0.71,0.44,-0.22,0.86
29.130905866622925,-0.6,0.5,-0.45,0.9
29.160013914108276,-0.51,0.49,-0.52,0.87
29.161475896835327,-0.43,0.36,-0.09,0.56
29.16251802444458,-0.35,0.22,0.33,0.52
29.182767868041992,-0.41,0.13,0.29,0.51
29.18380093574524,-0.52,0.22,0.06,0.56
29.198824882507324,-0.47,0.38,-0.15,0.62
29.199871063232422,-0.27,0.48,-0.48,0.73
29.21447992324829,-0.1,0.42,-0.86,0.96
29.215959072113037,-0.25,0.64,-0.94,1.16
29.230973958969116,-0.61,1.11,-1.14,1.7
29.25908589363098,-1.33,1.53,-1.25,2.38
29.26051688194275,-1.99,2.09,-0.74,2.97
29.261466026306152,-2.32,2.19,-0.86,3.3
29.263985872268677,-2.3,2.6,-0.56,3.51
29.2651948928833,-2.25,2.79,-0.86,3.68
29.27246594429016,-2.38,3.13,-1.04,4.06
29.282657861709595,-2.57,3.54,-1.24,4.54
29.292548894882202,-2.73,3.77,-1.57,4.91
29.302453994750977,-2.88,3.95,-1.92,5.25
29.312351942062378,-3.16,4.14,-2.2,5.65
29.34892702102661,-3.64,4.6,-1.98,6.19
29.350095748901367,-4.38,5.38,-1.9,7.19
29.350908756256104,-5.27,6.09,-2.3,8.37
29.36630392074585,-6.36,6.99,-2.84,9.86
29.367356777191162,-7.75,8.04,-4.16,11.91
29.382219791412354,-8.94,8.89,-5.17,13.62
29.383251905441284,-9.66,9.37,-5.7,14.61
29.397961854934692,-10.13,8.94,-6.86,15.15
29.401498794555664,-10.96,8.52,-8.62,16.34
29.413671016693115,-12.17,10.94,-8.93,18.64
29.448729991912842,-10.35,16.44,-5.68,20.24
29.449883937835693,-4.57,18.18,-5.74,19.6
29.450753927230835,1.44,14.82,-7.84,16.82
29.46680498123169,2.94,8.33,-7.02,11.28
29.46783995628357,-0.45,1.99,-7.45,7.72
29.481961965560913,-4.55,-1.31,-6.64,8.15
29.482972860336304,-3.8,-3.86,-7.75,9.45
29.49767303466797,3.67,3.8,-3.27,6.21
29.500771045684814,8.55,3.79,2.56,9.69
29.514055967330933,4.43,-3.02,0.47,5.38
29.54851484298706,-2.4,-4.22,-1.98,5.24
29.54990577697754,-7.39,-4.92,-1.68,9.03
29.550922870635986,-11.75,-4.93,-2.78,13.04
