time,ax,ay,az,atotal
0.002276897430419922,0.11,0.28,-0.3,0.42
0.012323856353759766,0.21,-0.02,-0.11,0.23
0.02299213409423828,0.24,-0.01,-0.02,0.24
0.03227806091308594,0.13,0.05,-0.14,0.19
0.07370710372924805,-0.05,0.03,-0.06,0.08
0.07397794723510742,0.01,-0.04,0.03,0.05
0.07423782348632812,-0.05,-0.09,0.06,0.11
0.07450199127197266,-0.11,-0.11,0.04,0.16
0.08220815658569336,-0.11,-0.06,0.06,0.13
0.0927438735961914,-0.11,-0.02,0.1,0.15
0.10216617584228516,-0.08,-0.01,0.11,0.13
0.1121211051940918,0.05,-0.03,0.13,0.14
0.12280988693237305,0.11,-0.03,0.11,0.15
0.13216209411621094,0.12,-0.01,0.03,0.12
0.17299985885620117,0.09,0.03,0.01,0.09
0.17325305938720703,0.11,0.01,0.01,0.11
0.17351484298706055,0.12,0.0,-0.04,0.12
0.17375516891479492,0.09,0.0,-0.11,0.14
0.18197011947631836,0.08,0.0,-0.03,0.08
0.19266414642333984,0.07,0.01,0.04,0.08
0.2019200325012207,0.02,0.01,0.08,0.08
0.21196508407592773,0.02,-0.02,0.13,0.13
0.2227001190185547,0.03,-0.03,0.12,0.12
0.23197317123413086,0.03,0.0,0.08,0.08
0.2722890377044678,0.02,0.04,0.08,0.09
0.2725510597229004,0.01,0.03,0.07,0.07
0.2728109359741211,0.02,0.0,0.05,0.05
0.273068904876709,0.06,-0.04,-0.03,0.07
0.281829833984375,0.02,-0.03,-0.02,0.04
0.29247403144836426,-0.04,0.01,-0.04,0.05
0.3018369674682617,-0.09,0.01,-0.02,0.09
0.3118619918823242,-0.05,-0.02,0.02,0.05
0.32254505157470703,0.04,-0.04,0.03,0.06
0.3319830894470215,0.01,-0.04,0.01,0.04
0.3719179630279541,-0.09,-0.04,0.01,0.09
0.3721799850463867,-0.15,-0.03,0.02,0.15
0.3724241256713867,-0.08,-0.03,0.05,0.09
0.3726789951324463,0.05,-0.02,0.08,0.09
0.38167285919189453,0.24,0.02,0.08,0.25
0.39231014251708984,0.37,0.04,0.2,0.42
0.4016289710998535,0.33,0.06,0.26,0.42
0.41170692443847656,0.29,0.05,0.24,0.37
0.42245006561279297,0.23,0.0,0.34,0.41
0.43171095848083496,0.28,-0.04,0.4,0.48
0.47199106216430664,0.37,-0.01,0.2,0.42
0.47225284576416016,0.35,0.0,0.15,0.38
0.47250986099243164,0.32,0.03,0.34,0.46
0.4727668762207031,0.14,-0.07,-0.08,0.17
0.4815189838409424,-0.34,-0.12,-0.16,0.39
0.49205493927001953,-0.37,-0.06,-0.08,0.38
0.5014119148254395,-0.07,0.03,-0.07,0.1
0.5115640163421631,-0.09,-0.06,0.07,0.12
0.5223588943481445,-0.47,-0.2,0.3,0.59
0.5315189361572266,-0.77,-0.28,0.41,0.91
0.5718388557434082,-0.84,-0.28,0.55,1.04
0.5721030235290527,-0.96,-0.17,0.5,1.09
0.5723628997802734,-0.92,-0.08,0.24,0.95
0.5726218223571777,-0.59,-0.06,0.07,0.59
0.5813961029052734,-0.23,0.02,-0.38,0.44
0.5920770168304443,0.04,0.09,-0.78,0.78
0.6013979911804199,0.45,0.22,-1.08,1.19
0.6116938591003418,0.43,0.26,-1.29,1.38
0.6220109462738037,0.37,0.14,-1.27,1.33
0.6315469741821289,0.65,0.19,-0.85,1.08
0.6725380420684814,0.52,0.1,-0.9,1.04
0.6728029251098633,0.12,0.11,-0.53,0.55
0.6730608940124512,0.14,0.1,-0.17,0.24
0.6733169555664062,0.03,0.01,0.06,0.06
0.6812849044799805,-0.22,-0.06,0.15,0.27
0.6917910575866699,-0.33,0.01,0.16,0.36
0.7012491226196289,-0.31,-0.04,0.2,0.37
0.7113919258117676,-0.19,-0.05,0.07,0.2
0.721959114074707,-0.06,-0.1,-0.03,0.12
0.73136305809021,-0.04,-0.08,0.04,0.09
0.7721929550170898,-0.06,-0.05,0.13,0.15
0.7724640369415283,-0.12,-0.1,0.12,0.19
0.7727229595184326,-0.24,-0.17,0.32,0.43
0.7729830741882324,-0.26,-0.16,0.45,0.54
0.7811288833618164,-0.24,-0.04,0.41,0.47
0.7916631698608398,-0.26,0.02,0.47,0.53
0.8011598587036133,-0.27,-0.01,0.46,0.53
0.8111538887023926,-0.25,0.02,0.26,0.36
0.8218100070953369,-0.22,0.11,0.08,0.25
0.8310918807983398,0.01,0.16,-0.22,0.27
0.8720731735229492,0.32,0.13,-0.58,0.67
0.8723340034484863,0.46,0.09,-0.69,0.83
0.8725929260253906,0.35,0.0,-0.61,0.7
0.8728499412536621,0.16,-0.03,-0.52,0.54
0.880903959274292,0.1,-0.01,-0.38,0.39
0.8915400505065918,0.08,0.1,-0.35,0.37
0.9012570381164551,0.19,0.11,-0.26,0.34
0.9110450744628906,0.39,0.07,-0.14,0.42
0.9216740131378174,0.47,0.05,-0.17,0.5
0.930901050567627,0.27,0.05,-0.28,0.39
0.9722990989685059,0.04,0.11,-0.42,0.43
0.972559928894043,-0.02,0.07,-0.4,0.4
0.972804069519043,-0.02,-0.1,-0.34,0.35
0.9730610847473145,-0.07,-0.11,-0.32,0.34
0.9809000492095947,-0.18,-0.03,-0.4,0.43
0.9914131164550781,-0.48,-0.06,-0.35,0.59
1.0010261535644531,-0.71,-0.08,-0.12,0.72
1.0107810497283936,-0.74,-0.03,0.04,0.74
1.0215599536895752,-0.59,0.09,-0.1,0.6
1.0308709144592285,-0.57,0.29,-0.36,0.73
1.0721068382263184,-0.47,0.87,-0.43,1.07
1.0723700523376465,-0.12,0.67,-0.2,0.7
1.0726289749145508,0.14,-0.36,-0.06,0.39
1.0728869438171387,0.54,-0.59,0.03,0.8
1.0807850360870361,0.85,-0.41,0.3,0.99
1.0912818908691406,0.97,-0.02,0.23,0.99
1.1009869575500488,1.08,0.1,0.05,1.08
1.110651969909668,1.02,0.04,0.0,1.02
1.1213459968566895,0.87,-0.05,-0.02,0.87
1.130713939666748,0.72,-0.12,0.07,0.73
1.1722488403320312,0.72,-0.07,0.19,0.74
1.1725130081176758,0.73,-0.11,0.36,0.82
1.1727728843688965,0.63,-0.05,0.38,0.73
1.1730308532714844,0.48,0.01,0.51,0.7
1.1805419921875,0.16,-0.09,0.56,0.58
1.1911530494689941,-0.02,-0.14,0.63,0.64
1.2005391120910645,-0.04,-0.18,0.65,0.67
1.2105770111083984,0.01,-0.21,0.4,0.45
1.2212350368499756,0.1,-0.13,0.18,0.24
1.230666160583496,0.09,-0.01,0.3,0.31
1.2716360092163086,-0.07,-0.09,0.42,0.43
1.2719039916992188,-0.2,-0.15,0.38,0.45
1.272162914276123,-0.06,-0.02,0.28,0.28
1.272420883178711,0.17,0.05,0.27,0.32
1.2803421020507812,0.33,0.06,0.32,0.46
1.2909789085388184,0.28,-0.04,0.28,0.39
1.300340175628662,0.24,-0.08,0.12,0.27
1.310347080230713,0.27,-0.11,0.06,0.29
1.3210480213165283,0.2,-0.08,0.14,0.25
1.330397129058838,0.03,0.0,0.19,0.19
1.3714890480041504,-0.06,-0.05,0.23,0.24
1.3717520236968994,-0.03,-0.14,0.25,0.28
1.3720169067382812,0.01,-0.09,0.34,0.35
1.372283935546875,0.08,-0.06,0.47,0.48
1.3801770210266113,0.11,-0.11,0.68,0.69
1.3907818794250488,0.17,-0.12,0.82,0.84
1.400209903717041,0.45,-0.29,0.9,1.04
1.4102301597595215,0.39,-0.31,0.68,0.84
1.420954942703247,0.08,-0.14,0.36,0.39
1.4302558898925781,0.03,-0.12,0.17,0.21
1.4717600345611572,0.0,-0.19,0.17,0.25
1.4720220565795898,-0.44,-0.28,0.0,0.52
1.4722809791564941,-0.74,-0.17,-0.1,0.76
1.4725370407104492,-0.77,0.1,-0.14,0.78
1.4801959991455078,-0.42,0.23,0.24,0.53
1.4907000064849854,-0.19,0.0,0.7,0.72
1.5001490116119385,0.05,-0.17,0.77,0.79
1.5102181434631348,0.24,-0.23,0.51,0.6
1.520792007446289,0.19,-0.22,0.27,0.39
1.5301861763000488,-0.1,-0.17,0.05,0.2
1.5712790489196777,-0.37,-0.21,-0.09,0.43
1.5715420246124268,-0.39,-0.14,-0.26,0.48
1.5718021392822266,-0.23,-0.03,-0.31,0.38
1.572044849395752,-0.1,0.08,-0.31,0.33
1.5799529552459717,0.01,0.1,-0.23,0.25
1.5905179977416992,0.32,0.11,0.03,0.33
1.6000959873199463,0.57,0.0,0.33,0.65
1.609877109527588,0.54,-0.15,0.38,0.67
1.6205799579620361,0.35,-0.25,-0.02,0.43
1.6299400329589844,0.06,-0.17,-0.3,0.35
1.671252965927124,-0.35,-0.02,-0.33,0.48
1.671515941619873,-0.72,-0.08,-0.31,0.78
1.6717770099639893,-0.87,0.07,-0.48,0.99
1.672029972076416,-0.74,0.31,-0.58,0.99
1.679837942123413,-0.99,0.28,-0.56,1.17
1.6903629302978516,-1.06,0.85,-0.97,1.66
1.6998560428619385,-0.26,0.89,-0.53,1.06
1.7099599838256836,-0.15,-0.29,0.35,0.47
1.7204718589782715,-0.24,-0.66,0.17,0.72
1.7298660278320312,0.09,-0.52,-0.27,0.59
1.771198034286499,0.1,-0.28,-0.63,0.69
1.7714600563049316,0.0,0.02,-0.47,0.47
1.7717180252075195,-0.27,-0.04,-0.25,0.37
1.771975040435791,-0.93,-0.2,-0.26,0.98
1.7795579433441162,-1.16,-0.17,-0.35,1.22
1.790255069732666,-1.07,0.06,-0.52,1.19
1.799504041671753,-1.03,0.24,-0.41,1.13
1.809575080871582,-0.66,0.19,0.05,0.68
1.8202128410339355,-0.28,0.02,0.29,0.4
1.829585075378418,-0.31,0.0,0.17,0.35
1.871312141418457,-0.48,0.08,-0.43,0.64
1.871574878692627,-0.46,0.14,-0.68,0.83
1.8718371391296387,-0.3,0.32,-0.62,0.75
1.872096061706543,0.07,0.38,-0.57,0.68
1.8794970512390137,0.34,0.28,-0.54,0.69
1.8900141716003418,0.44,0.24,-0.48,0.69
1.8993430137634277,0.31,0.08,-0.3,0.43
1.909386157989502,0.3,-0.11,0.15,0.35
1.9200458526611328,0.44,-0.19,0.65,0.8
1.9300360679626465,0.77,-0.28,0.86,1.18
1.9715290069580078,1.17,-0.24,0.9,1.49
1.9717910289764404,1.31,-0.13,0.8,1.54
1.9720489978790283,0.96,-0.01,0.47,1.06
1.9723129272460938,0.53,0.13,0.24,0.59
1.979367971420288,0.35,0.14,0.19,0.42
1.989901065826416,0.61,0.1,0.18,0.64
1.9993181228637695,0.86,-0.04,0.32,0.91
2.0093870162963867,1.12,-0.11,0.43,1.2
2.0199480056762695,1.17,-0.12,0.63,1.33
2.029345989227295,1.11,-0.06,0.69,1.3
2.072050094604492,1.22,-0.03,0.83,1.47
2.072361946105957,1.26,0.01,0.91,1.55
2.0726749897003174,1.15,-0.1,0.55,1.27
2.0729598999023438,0.9,-0.11,0.49,1.03
2.079190969467163,0.54,-0.01,0.45,0.7
2.089664936065674,0.31,-0.05,0.51,0.59
2.0989949703216553,0.4,-0.04,0.59,0.71
2.1090641021728516,0.85,-0.04,0.69,1.09
2.119739055633545,1.17,0.02,0.85,1.44
2.1291749477386475,1.31,0.09,1.04,1.67
2.171031951904297,1.23,0.01,0.76,1.44
2.1712751388549805,0.99,0.03,0.76,1.24
2.1715309619903564,1.31,0.11,1.51,2.0
2.1717891693115234,1.7,0.12,1.16,2.06
2.179020881652832,1.88,0.24,0.97,2.12
2.1896660327911377,1.47,0.35,0.48,1.58
2.199007987976074,0.91,0.38,0.45,1.08
2.2090229988098145,0.79,0.48,0.62,1.11
2.2195911407470703,0.66,0.7,0.63,1.14
2.2290148735046387,0.46,1.0,0.74,1.32
2.271151065826416,0.21,1.26,0.53,1.38
2.271411895751953,0.22,1.95,0.45,2.01
2.271669864654541,0.58,2.41,0.44,2.51
2.2719249725341797,0.32,2.38,0.32,2.42
2.2788591384887695,0.68,2.84,0.49,2.96
2.2894840240478516,0.98,3.08,1.25,3.46
2.298841953277588,1.11,2.8,1.64,3.42
2.3089518547058105,1.37,2.68,2.28,3.77
2.3197109699249268,1.75,3.46,2.53,4.62
2.328956127166748,3.1,6.02,2.12,7.09
2.3706531524658203,5.69,7.14,3.31,9.71
2.3709211349487305,5.55,5.85,5.24,9.61
2.3711791038513184,5.65,6.58,4.92,9.97
2.371438980102539,6.09,8.13,5.66,11.62
2.3786988258361816,5.07,8.55,5.96,11.59
2.3892979621887207,3.93,9.14,5.13,11.19
2.39884090423584,3.45,9.62,5.41,11.56
2.4088058471679688,4.87,9.67,4.33,11.66
2.419642925262451,6.58,9.48,1.22,11.6
2.4288220405578613,6.61,9.44,-0.25,11.52
2.4708149433135986,4.49,9.63,-0.61,10.64
2.471078872680664,-0.13,10.62,-1.57,10.73
2.471338987350464,-2.47,10.75,-1.28,11.1
2.4715981483459473,0.11,6.73,0.82,6.78
2.4786159992218018,2.08,3.68,3.12,5.25
2.4891891479492188,-2.75,3.63,-2.23,5.07
2.4985451698303223,-4.63,7.0,-7.05,10.96
2.5086350440979004,0.26,7.88,-1.32,7.99
2.5523018836975098,4.14,5.72,1.67,7.25
2.5525660514831543,5.5,3.88,1.96,7.01
2.5528221130371094,4.48,2.13,1.51,5.18
2.553076982498169,3.86,0.46,0.89,3.98
2.5584640502929688,3.57,-0.68,0.89,3.74
2.568817138671875,2.99,-1.08,0.88,3.29
2.578482151031494,2.36,-1.08,0.91,2.75
2.589172840118408,1.84,-1.07,1.11,2.4
2.598517894744873,1.32,-1.49,1.43,2.45
2.608612060546875,1.07,-2.08,1.64,2.85
2.6542439460754395,1.17,-2.5,1.47,3.12
2.6545119285583496,1.5,-2.7,1.54,3.45
2.654772996902466,1.85,-2.94,1.69,3.86
2.655035972595215,2.13,-3.34,1.67,4.29
2.658252000808716,2.12,-3.88,1.67,4.72
2.668332099914551,1.88,-4.37,1.6,5.01
2.6783599853515625,1.63,-4.94,1.58,5.43
2.688962936401367,1.35,-5.63,1.62,6.01
2.6983489990234375,1.03,-6.51,1.63,6.78
2.7083799839019775,0.74,-7.42,1.78,7.66
2.7538528442382812,0.64,-8.12,2.21,8.43
2.7541260719299316,0.82,-8.58,2.46,8.96
2.754384994506836,0.94,-8.8,2.7,9.25
2.7546420097351074,0.61,-8.6,2.76,9.05
2.7581889629364014,-0.2,-8.09,2.24,8.39
2.7681961059570312,-1.52,-7.36,0.8,7.55
2.778223991394043,-3.28,-6.7,-1.24,7.56
2.7888588905334473,-4.94,-5.89,-3.83,8.58
2.798290967941284,-5.79,-5.13,-5.99,9.78
2.808284044265747,-6.14,-4.47,-6.4,9.93
2.853549003601074,-6.32,-3.52,-6.53,9.74
2.853811025619507,-6.38,-2.54,-7.03,9.82
2.854074001312256,-6.92,-1.62,-7.86,10.59
2.8543310165405273,-7.87,-0.63,-8.88,11.88
2.8581249713897705,-8.44,0.24,-9.7,12.86
2.8681259155273438,-8.52,0.62,-9.61,12.85
2.8780908584594727,-8.32,0.13,-8.99,12.24
2.888650894165039,-7.75,-0.77,-8.9,11.82
2.8980250358581543,-7.34,-1.6,-8.96,11.69
2.9082350730895996,-7.67,-2.26,-8.65,11.77
2.953494071960449,-7.96,-2.37,-7.89,11.45
2.953770160675049,-8.51,0.03,-7.0,11.01
2.9540300369262695,-4.81,6.87,-4.85,9.68
2.954287052154541,15.4,6.24,8.77,18.78
2.9583120346069336,37.6,20.05,31.17,52.79
2.967927932739258,16.8,23.44,2.38,28.93
2.9779770374298096,-1.81,13.24,-15.24,20.26
2.9884791374206543,-8.09,-4.41,-0.52,9.22
2.9978649616241455,-14.37,-9.33,5.17,17.89
3.007927894592285,-15.89,-3.33,-0.95,16.26
3.0185928344726562,-13.66,-2.22,-7.16,15.58
3.0511789321899414,-7.1,0.29,-6.91,9.91
3.0514421463012695,-2.33,3.11,-5.02,6.34
3.0517020225524902,1.22,2.91,-3.63,4.8
3.057745933532715,3.04,1.01,-4.69,5.67
3.067847967147827,2.81,0.3,-4.1,4.97
3.0777459144592285,-0.37,0.1,-2.72,2.74
3.088386058807373,-2.64,0.22,-2.62,3.72
3.0977559089660645,-2.44,0.54,-2.1,3.26
3.107785940170288,-2.02,0.4,-1.01,2.29
3.118597984313965,-1.96,0.11,-0.05,1.96
3.1514511108398438,-1.39,0.04,0.18,1.4
3.151716947555542,-0.1,-0.02,0.04,0.1
3.151977062225342,0.84,-0.11,0.25,0.88
3.157593011856079,0.74,-0.23,0.74,1.07
3.1676290035247803,0.15,-0.18,0.85,0.88
3.177649974822998,-0.15,-0.07,0.56,0.58
3.1882739067077637,-0.13,0.0,0.33,0.35
3.197579860687256,0.1,0.01,0.23,0.25
3.207548141479492,0.48,-0.08,0.23,0.53
3.218472957611084,0.95,-0.05,0.32,1.0
3.252140998840332,1.42,-0.02,0.55,1.52
3.252596855163574,1.76,-0.11,0.94,1.99
3.252859115600586,1.92,-0.25,1.23,2.29
3.2574920654296875,1.95,-0.26,1.51,2.47
3.2675418853759766,1.91,-0.19,1.86,2.67
3.277556896209717,2.07,-0.14,1.88,2.79
3.2881100177764893,2.28,-0.21,1.73,2.86
3.297461986541748,2.16,-0.28,1.37,2.57
3.307453155517578,1.57,-0.27,0.86,1.81
3.3182969093322754,1.0,-0.24,0.75,1.27
3.352151870727539,0.78,-0.11,0.8,1.12
3.352604866027832,0.91,0.04,1.0,1.35
3.3528661727905273,1.41,0.09,1.44,2.01
3.357473850250244,2.06,0.0,1.57,2.59
3.367370128631592,2.5,-0.23,1.64,2.99
3.377295970916748,2.68,-0.36,1.58,3.13
3.387929916381836,2.58,-0.29,1.34,2.92
3.399790048599243,1.99,0.03,0.83,2.15
3.4073150157928467,0.88,0.42,0.56,1.12
3.418147087097168,-0.07,0.67,0.61,0.9
3.4512829780578613,-0.32,0.85,0.86,1.25
3.451550006866455,-0.01,1.03,1.05,1.47
3.451812982559204,0.33,1.29,0.89,1.6
3.457162857055664,0.67,1.88,0.91,2.19
3.46718692779541,0.94,2.52,1.13,2.91
3.477156162261963,0.92,3.09,1.8,3.69
3.4877469539642334,1.12,2.99,2.23,3.89
3.4971859455108643,1.29,3.25,2.65,4.38
3.5072131156921387,1.46,5.33,2.1,5.91
3.518031120300293,3.45,7.96,2.14,8.93
3.5519561767578125,5.32,8.1,4.32,10.61
3.5522208213806152,5.42,8.15,5.16,11.06
3.5524778366088867,6.14,8.89,6.09,12.4
3.557004928588867,6.64,9.57,7.4,13.79
3.567070960998535,6.22,9.97,7.43,13.9
3.5770039558410645,5.76,9.86,6.61,13.19
3.587474822998047,4.72,8.82,4.69,11.04
3.5970380306243896,3.96,6.96,0.91,8.05
3.607058048248291,3.4,5.99,-3.77,7.85
3.6177899837493896,1.01,8.48,-6.65,10.82
3.6518988609313965,-3.89,11.79,-3.39,12.86
3.6521620750427246,-4.76,11.02,-1.09,12.05
3.652423858642578,-0.21,7.58,-2.08,7.86
3.6568570137023926,2.12,3.64,-0.16,4.21
3.666898012161255,0.78,1.63,1.51,2.35
3.676839828491211,-3.27,1.96,-3.94,5.48
3.6874799728393555,-0.19,4.79,-3.34,5.84
3.696830987930298,4.62,4.45,1.85,6.67
3.7068958282470703,7.46,1.78,3.55,8.45
3.717771053314209,7.25,-0.36,3.44,8.03
3.7523889541625977,4.83,-1.42,3.03,5.87
3.752650022506714,2.86,-1.51,2.57,4.13
3.753213882446289,1.41,-1.51,2.08,2.93
3.758270025253296,0.22,-1.6,1.66,2.31
3.766752004623413,-0.34,-1.74,1.41,2.26
3.7767090797424316,-0.33,-1.87,1.5,2.41
3.7874488830566406,-0.15,-1.72,1.36,2.19
3.7968530654907227,0.23,-1.74,1.22,2.13
3.806736946105957,0.56,-2.1,1.23,2.49
3.817567825317383,1.01,-2.61,1.32,3.09
3.851369857788086,1.51,-3.17,1.4,3.78
3.8516321182250977,1.69,-3.74,1.47,4.35
3.851893901824951,1.55,-4.5,1.68,5.04
3.8565468788146973,1.39,-5.41,2.02,5.93
3.866562843322754,1.24,-6.35,2.13,6.81
3.8765869140625,1.03,-7.23,2.06,7.58
3.88739013671875,0.89,-7.95,2.22,8.3
3.896583080291748,0.72,-8.4,2.43,8.77
3.906543016433716,0.29,-8.53,2.24,8.82
3.917423963546753,-0.17,-8.41,1.71,8.58
3.952096939086914,-0.57,-8.21,1.36,8.34
3.9523701667785645,-1.29,-7.63,0.52,7.75
3.9526290893554688,-2.85,-6.89,-1.1,7.53
3.9564290046691895,-4.67,-5.98,-3.25,8.25
3.966485023498535,-5.84,-4.91,-5.22,9.24
3.976485013961792,-6.55,-3.9,-6.26,9.86
3.987380027770996,-6.97,-2.65,-6.42,9.83
3.9964208602905273,-7.37,-1.5,-6.69,10.06
4.006440162658691,-8.07,-0.72,-7.06,10.74
4.017068862915039,-8.75,-0.22,-7.29,11.39
4.052324056625366,-8.51,-0.13,-7.16,11.12
4.052593946456909,-7.82,-0.62,-7.07,10.56
4.052855014801025,-7.76,-0.68,-7.43,10.76
4.056282043457031,-8.05,-0.62,-7.5,11.01
4.066313028335571,-8.19,-1.09,-7.42,11.1
4.076251983642578,-8.4,-0.63,-7.61,11.35
4.087256908416748,-8.39,5.97,-7.79,12.91
4.096307992935181,0.99,1.42,-5.21,5.49
4.106302976608276,20.85,13.63,11.49,27.43
4.117234945297241,31.61,26.66,21.9,46.79
4.149983882904053,7.86,20.24,-9.89,23.85
4.1502461433410645,-2.63,1.42,-6.41,7.07
4.150506019592285,-10.43,-7.46,2.15,13.0
4.156126976013184,-15.14,-6.61,-3.44,16.87
4.166191101074219,-12.85,-3.52,-3.25,13.71
4.176110029220581,-10.67,-1.28,-5.1,11.89
4.187099933624268,-7.12,0.81,-5.28,8.9
4.196095943450928,-4.0,1.67,-2.43,4.96
4.206140995025635,-1.33,0.61,-1.94,2.42
4.216935157775879,1.65,0.47,-2.0,2.63
4.251237869262695,2.87,0.85,-1.38,3.29
4.251501083374023,0.92,0.64,-1.3,1.71
4.251760005950928,-1.26,0.26,-2.46,2.77
4.255964994430542,-1.8,0.2,-3.16,3.64
4.266201019287109,-1.69,0.35,-2.27,2.85
4.27621603012085,-1.37,0.17,-0.71,1.55
4.286932945251465,-0.73,-0.04,-0.31,0.79
4.295976161956787,-0.3,-0.21,-0.67,0.76
4.306082010269165,-0.24,-0.25,-0.64,0.72
4.316738128662109,-0.14,-0.1,-0.48,0.5
4.350656986236572,0.0,0.06,-0.38,0.38
4.350919961929321,-0.06,0.13,-0.2,0.24
4.351180076599121,-0.03,0.09,-0.18,0.2
4.355884075164795,0.11,0.01,-0.07,0.13
4.365901947021484,0.21,0.05,0.35,0.41
4.375939846038818,0.54,0.13,0.42,0.69
4.386444091796875,0.93,0.15,0.45,1.04
4.395910024642944,1.18,0.23,0.55,1.32
4.4058239459991455,1.3,0.24,0.58,1.44
4.416645050048828,1.34,0.24,0.87,1.61
4.45137882232666,1.14,0.11,1.42,1.82
4.451642990112305,0.88,-0.09,1.73,1.94
4.451901912689209,0.9,-0.04,1.77,1.98
4.455700874328613,1.21,0.13,1.62,2.02
4.4656901359558105,1.44,0.15,1.53,2.1
4.475788116455078,1.61,-0.06,1.61,2.27
4.4862730503082275,1.98,-0.4,1.73,2.65
4.495744943618774,2.43,-0.58,1.69,3.01
4.505681991577148,2.48,-0.19,1.21,2.76
4.516556978225708,1.93,0.48,0.68,2.1
4.550475120544434,1.14,0.91,-0.05,1.45
4.5507378578186035,0.46,1.01,-0.09,1.11
4.550997972488403,0.17,1.0,0.45,1.1
4.5555739402771,0.26,0.74,0.89,1.18
4.565617084503174,0.35,0.84,1.38,1.65
4.575538158416748,0.83,1.29,1.46,2.11
4.58610200881958,1.29,1.98,1.56,2.83
4.595577001571655,0.71,2.3,1.95,3.09
4.60553503036499,1.07,2.27,2.02,3.22
4.616372108459473,1.45,2.26,2.12,3.42
4.650647163391113,1.51,2.05,2.27,3.41
4.650905132293701,1.84,2.1,2.45,3.71
4.651162147521973,2.46,2.27,2.59,4.23
4.655383110046387,2.97,2.59,2.62,4.73
4.665389060974121,3.23,3.28,2.69,5.33
4.675436019897461,3.53,5.0,2.7,6.68
4.685943126678467,4.63,7.41,2.87,9.19
4.695418834686279,6.22,8.24,4.78,11.37
4.705512046813965,6.43,8.29,6.53,12.35
4.716179847717285,6.73,8.83,7.74,13.53
4.750579833984375,7.05,9.16,7.88,13.98
4.75084114074707,6.68,8.79,7.65,13.43
4.751100063323975,5.83,8.58,5.37,11.68
4.755226135253906,5.81,8.7,0.89,10.49
4.765275001525879,3.84,9.53,-4.44,11.19
4.775299072265625,-1.28,13.19,-7.67,15.31
4.785856008529663,-4.98,14.26,-4.68,15.81
4.79531192779541,-2.44,10.94,0.19,11.21
4.805291175842285,3.33,6.14,2.18,7.31
4.816125869750977,4.48,3.26,4.1,6.89
4.850350856781006,-2.29,2.4,-0.76,3.4
4.850614070892334,-3.58,5.58,-5.73,8.76
4.850872993469238,1.73,7.41,0.59,7.63
4.8550989627838135,5.2,6.03,3.35,8.63
4.865354061126709,6.43,4.49,3.85,8.73
4.8750319480896,5.14,2.39,3.64,6.73
4.885735034942627,3.78,0.43,2.3,4.44
4.895118951797485,3.05,-0.91,1.72,3.61
4.905115127563477,2.02,-1.5,1.81,3.09
4.915995121002197,1.0,-1.29,2.05,2.62
4.950353145599365,0.13,-1.2,2.36,2.65
4.950618028640747,-0.43,-1.66,2.22,2.8
4.950876951217651,-0.39,-2.29,2.38,3.32
4.9549150466918945,0.51,-2.78,2.97,4.09
4.965039968490601,1.39,-3.05,3.15,4.59
4.974968910217285,1.82,-3.2,2.89,4.68
4.985496997833252,1.89,-3.54,2.66,4.81
4.9949541091918945,1.59,-4.07,2.44,5.0
5.004886150360107,1.23,-4.64,2.26,5.3
5.015773057937622,0.94,-5.32,2.09,5.79
5.050447940826416,0.73,-6.07,2.0,6.43
5.050709009170532,0.29,-6.68,1.73,6.9
5.050969123840332,-0.21,-7.34,1.59,7.51
5.054765939712524,-0.89,-8.02,1.72,8.25
5.064823150634766,-1.78,-8.4,1.23,8.67
5.074778079986572,-2.74,-8.45,0.33,8.88
5.085358142852783,-3.82,-8.25,-1.09,9.15
5.09483003616333,-5.47,-7.71,-3.01,9.92
5.1047868728637695,-7.07,-6.37,-5.79,11.13
5.115685939788818,-7.86,-4.69,-7.48,11.82
5.1507039070129395,-8.02,-3.54,-7.44,11.49
5.150966167449951,-7.55,-2.53,-7.02,10.61
5.151227951049805,-7.7,-1.28,-7.77,11.01
5.154580116271973,-8.39,-0.52,-9.22,12.47
5.164654016494751,-8.68,-0.79,-9.88,13.17
5.174839973449707,-8.54,-1.35,-9.54,12.87
5.185204029083252,-8.38,-1.3,-9.62,12.82
5.194738864898682,-8.22,-1.19,-10.1,13.07
5.204674005508423,-8.51,1.78,-10.27,13.45
5.215548038482666,-3.69,4.49,-7.85,9.76
5.250617027282715,-0.81,-0.75,-10.39,10.44
5.250885009765625,11.84,22.18,13.09,28.34
5.251144886016846,19.82,30.91,13.67,39.18
5.254492998123169,3.33,12.75,-16.67,21.24
5.264575004577637,-3.65,-7.74,1.05,8.62
5.274458885192871,-12.82,-12.93,4.0,18.64
5.285091876983643,-15.36,-6.69,-1.96,16.86
5.2945239543914795,-13.24,-2.51,-8.68,16.02
5.3047099113464355,-8.79,1.46,-6.5,11.02
5.315362930297852,-6.67,3.41,-2.22,7.81
5.351334095001221,-1.98,1.87,-2.61,3.77
5.351602077484131,1.15,0.69,-2.97,3.25
5.35186505317688,2.52,0.26,-2.06,3.26
5.354517936706543,1.06,0.43,-2.32,2.58
5.364438056945801,-0.79,0.67,-3.72,3.86
5.374377965927124,-0.94,0.51,-3.61,3.76
5.384955883026123,-0.67,0.36,-2.06,2.19
5.394381999969482,-0.9,0.27,-1.7,1.94
5.404723167419434,-1.26,0.18,-1.83,2.22
5.415114879608154,-1.29,-0.07,-1.59,2.04
5.450839996337891,-1.14,-0.16,-0.73,1.36
5.451102018356323,-1.0,-0.15,-0.08,1.01
5.4513609409332275,-0.94,-0.12,0.13,0.95
5.454380989074707,-0.81,-0.09,0.18,0.83
5.464447975158691,-0.53,-0.01,0.08,0.53
5.474218845367432,-0.05,0.02,-0.02,0.05
5.48482608795166,0.39,0.04,-0.13,0.41
5.494193077087402,0.81,0.03,-0.01,0.81
5.504495143890381,1.31,0.04,0.38,1.36
5.515040874481201,1.77,0.09,0.71,1.9
5.551480054855347,2.18,0.17,1.02,2.41
5.55174994468689,2.3,0.26,1.09,2.55
5.552012920379639,1.87,0.23,1.11,2.18
5.554502964019775,1.04,0.02,1.21,1.59
5.5642170906066895,0.37,-0.11,1.33,1.38
5.57403302192688,0.19,-0.11,1.43,1.44
5.584583044052124,0.53,-0.1,1.62,1.7
5.594067096710205,1.04,-0.03,1.6,1.9
5.604054927825928,1.51,-0.01,1.5,2.12
5.614883899688721,2.01,-0.08,1.36,2.42
5.651844024658203,2.29,-0.09,1.19,2.58
5.652117013931274,2.28,0.12,1.27,2.61
5.652384042739868,2.36,0.45,1.39,2.77
5.653864860534668,2.68,0.52,1.66,3.19
5.66404390335083,2.9,0.43,2.09,3.6
5.673884868621826,2.67,0.49,1.86,3.29
5.684435844421387,2.3,0.8,1.36,2.78
5.693933963775635,1.67,0.98,1.0,2.17
5.704031944274902,1.1,1.26,0.97,1.93
5.714787006378174,1.55,1.97,1.2,2.77
5.750673055648804,2.47,2.81,1.55,4.04
5.7509379386901855,2.39,3.57,2.16,4.8
5.751194000244141,2.17,3.9,2.76,5.24
5.753737926483154,2.02,4.07,3.65,5.82
5.763841152191162,1.87,4.09,4.29,6.21
5.773754119873047,1.58,5.42,4.4,7.15
5.784430027008057,2.46,8.77,4.1,9.98
5.7938618659973145,5.96,10.34,6.34,13.51
5.80380916595459,6.85,9.99,7.81,14.41
5.814574956893921,7.11,11.23,7.22,15.12
5.85154914855957,7.53,12.44,8.38,16.78
5.851824045181274,6.81,12.28,8.93,16.64
5.85208797454834,5.97,10.96,7.1,14.35
5.853600978851318,6.33,8.81,1.55,10.95
5.863773822784424,7.49,7.82,-5.0,11.92
5.873656988143921,4.99,11.06,-9.08,15.15
5.884227991104126,-1.37,15.16,-6.57,16.57
5.893702030181885,-4.57,13.99,-2.57,14.94
5.903635025024414,-0.81,7.64,-2.81,8.18
5.914484977722168,2.95,2.25,-0.47,3.73
5.951282978057861,-1.58,0.45,-1.44,2.18
5.951549053192139,-4.2,1.37,-7.12,8.37
5.951812028884888,0.66,4.38,-2.81,5.24
5.953476905822754,5.46,3.97,1.31,6.87
5.9636359214782715,8.55,1.56,2.54,9.05
5.9734978675842285,7.83,-0.44,2.85,8.34
5.98408317565918,5.76,-1.52,1.76,6.21
5.993558883666992,4.4,-1.97,0.35,4.83
6.00349497795105,3.35,-2.49,0.31,4.18
6.014246940612793,2.48,-3.3,1.09,4.26
6.051958084106445,1.34,-4.12,1.67,4.64
6.052227973937988,0.0,-4.49,1.45,4.71
6.052490949630737,-0.56,-4.37,1.04,4.52
6.053133964538574,-0.06,-4.21,0.9,4.3
6.063215970993042,1.07,-4.26,1.07,4.52
6.073210000991821,2.06,-4.33,1.29,4.96
6.083826065063477,2.53,-4.33,1.11,5.13
6.093242168426514,2.57,-4.43,0.91,5.2
6.103274822235107,2.08,-4.9,0.85,5.39
6.114139080047607,1.27,-5.68,0.53,5.84
6.151556015014648,0.59,-6.65,0.37,6.68
6.151823043823242,0.15,-7.45,0.21,7.45
6.152084827423096,-0.26,-8.2,0.09,8.2
6.153105974197388,-0.69,-8.9,-0.1,8.92
6.163322925567627,-1.23,-9.56,-0.03,9.63
6.173195838928223,-1.34,-9.88,-0.04,9.97
6.1838109493255615,-1.78,-9.7,-0.4,9.87
6.193186044692993,-2.42,-9.3,-1.02,9.66
6.203070163726807,-2.99,-8.51,-1.95,9.22
6.213984966278076,-3.85,-7.37,-3.28,8.93
6.251868963241577,-4.67,-6.13,-4.97,9.16
6.252132892608643,-5.35,-4.9,-6.19,9.53
6.2524189949035645,-6.65,-3.92,-6.68,10.2
6.252980947494507,-8.18,-3.16,-7.14,11.3
6.263184070587158,-9.51,-2.61,-7.99,12.69
6.27298903465271,-10.61,-2.13,-8.71,13.89
6.283639907836914,-11.16,-1.51,-8.97,14.39
6.293181896209717,-11.13,-0.75,-8.79,14.2
6.303200960159302,-10.48,-0.49,-8.43,13.45
6.313828945159912,-9.67,-0.57,-7.9,12.49
6.351981163024902,-9.56,2.67,-7.95,12.71
6.352269172668457,-4.26,5.87,-6.6,9.8
6.3527069091796875,10.84,9.26,2.91,14.55
6.353365898132324,39.71,34.05,34.7,62.77
6.3629231452941895,16.37,33.01,-6.58,37.42
6.372872829437256,1.17,2.83,-12.4,12.77
6.383494853973389,-8.56,-13.44,4.15,16.46
6.392931938171387,-20.28,-10.68,1.57,22.97
6.403040885925293,-20.54,-6.29,-4.3,21.9
6.413578033447266,-14.02,-2.12,-8.46,16.51
6.45068883895874,-8.3,1.92,-5.14,9.94
6.45095682144165,-3.46,2.34,-1.35,4.38
6.451225996017456,-0.01,0.35,-2.07,2.09
6.452718019485474,3.41,0.35,-3.14,4.64
6.462713956832886,4.47,0.64,-2.62,5.22
6.472668170928955,0.93,0.76,-2.54,2.8
6.483344078063965,-2.16,0.74,-2.5,3.38
6.492828845977783,-2.66,0.45,-1.99,3.35
6.502839088439941,-2.39,0.06,-1.74,2.95
6.513554096221924,-2.47,-0.11,-0.89,2.62
6.551206111907959,-2.51,-0.42,-0.45,2.58
6.551487922668457,-1.78,-0.4,-0.27,1.84
6.551761150360107,-0.68,-0.07,-0.33,0.75
6.552592992782593,-0.33,0.09,-0.58,0.67
6.562685966491699,-0.28,0.09,-0.61,0.67
6.572434902191162,-0.25,-0.01,-0.34,0.42
6.583240032196045,-0.09,-0.11,-0.16,0.21
6.592569828033447,0.14,-0.13,-0.16,0.24
6.602586030960083,0.41,-0.02,-0.11,0.42
6.613271951675415,0.8,0.21,0.09,0.83
6.650918960571289,1.08,0.39,0.47,1.24
6.65117883682251,1.16,0.41,0.7,1.41
6.65143895149231,1.12,0.33,0.85,1.44
6.652403831481934,0.9,0.24,0.99,1.35
6.662581920623779,0.66,0.12,1.16,1.34
6.672316074371338,0.38,0.04,1.33,1.38
6.682988166809082,0.33,0.08,1.33,1.37
6.692431926727295,0.69,0.12,1.49,1.64
6.702430009841919,1.54,0.06,1.68,2.27
6.713343143463135,2.35,-0.1,1.79,2.95
6.751613140106201,2.94,-0.14,1.49,3.29
6.752063989639282,3.18,0.04,1.15,3.38
6.752331018447876,2.88,0.5,0.81,3.03
6.752593994140625,1.9,0.8,0.5,2.12
6.762556076049805,0.77,0.75,0.77,1.32
6.772475004196167,0.62,0.76,1.11,1.48
6.782953977584839,0.82,0.81,1.68,2.03
6.792325973510742,1.25,1.13,1.72,2.4
6.802333831787109,1.4,1.48,1.83,2.73
6.813245058059692,1.57,1.77,1.77,2.95
6.852069854736328,1.46,2.2,1.87,3.23
6.8523290157318115,1.57,2.18,1.8,3.23
6.852593898773193,1.69,2.24,2.08,3.49
6.85285496711731,1.94,2.33,2.35,3.83
6.862214088439941,2.32,2.57,2.69,4.38
6.8724730014801025,2.75,2.68,3.13,4.95
6.882748126983643,3.2,2.92,3.73,5.71
6.892151832580566,3.53,3.61,4.55,6.79
6.902191162109375,3.47,6.19,4.26,8.27
6.9130449295043945,5.24,9.86,4.03,11.87
6.951879024505615,7.09,10.48,6.85,14.38
6.952148914337158,6.81,10.67,7.28,14.6
6.952402114868164,7.05,11.61,7.28,15.41
6.952661991119385,6.35,12.0,7.75,15.63
6.962182998657227,5.06,11.3,6.7,14.07
6.972411155700684,4.09,10.22,1.06,11.05
6.982635974884033,3.53,9.35,-4.99,11.17
6.992084980010986,1.27,12.22,-8.24,14.79
7.0021350383758545,-3.23,15.34,-3.27,16.01
7.012912034988403,-4.69,13.21,0.76,14.03
7.051036834716797,-0.09,8.0,-1.37,8.11
7.051814079284668,2.05,3.02,-0.81,3.73
7.052082061767578,-2.46,0.88,-1.16,2.85
7.0523459911346436,-5.01,1.63,-6.2,8.13
7.061962127685547,0.3,4.8,-1.79,5.13
7.07187294960022,5.79,4.08,3.07,7.71
7.082479953765869,8.8,1.59,4.42,9.97
7.091884136199951,7.83,0.18,4.52,9.04
7.101905822753906,5.81,-0.59,4.2,7.19
7.11276388168335,4.6,-1.22,3.45,5.87
7.151100158691406,3.39,-1.51,2.56,4.5
7.151790142059326,2.47,-1.89,2.01,3.7
7.1520538330078125,1.64,-2.27,2.12,3.51
7.152315139770508,0.5,-2.48,2.05,3.25
7.161792993545532,-0.5,-2.52,1.72,3.09
7.17169713973999,-1.16,-2.53,1.27,3.05
7.182307004928589,-1.14,-2.5,0.79,2.85
7.191686153411865,-0.61,-2.56,0.61,2.7
7.20185399055481,0.0,-2.69,0.32,2.7
7.212411880493164,0.47,-2.77,-0.09,2.81
7.221805095672607,0.7,-3.11,-0.31,3.2
7.251368999481201,0.36,-3.83,-0.32,3.86
7.2516398429870605,-0.41,-4.75,-0.16,4.77
7.251909971237183,-0.83,-5.7,0.08,5.76
7.261641979217529,-0.75,-6.73,0.66,6.8
7.271692991256714,-0.35,-7.52,1.18,7.62
7.282164096832275,-0.02,-8.0,1.73,8.18
7.291579008102417,0.0,-8.29,2.1,8.55
7.301625967025757,-0.28,-7.87,1.67,8.05
7.312368869781494,-1.66,-7.06,0.41,7.26
7.321620941162109,-4.07,-6.32,-1.33,7.63
7.3517210483551025,-6.04,-5.5,-3.43,8.85
7.351995944976807,-7.07,-4.72,-4.92,9.82
7.352259159088135,-7.7,-4.13,-5.91,10.54
7.3614678382873535,-8.49,-3.53,-6.47,11.24
7.371396064758301,-10.07,-3.21,-7.47,12.94
7.382050037384033,-11.62,-3.09,-8.67,14.82
7.391435146331787,-11.98,-3.14,-9.01,15.31
7.401528835296631,-12.08,-3.1,-8.9,15.32
7.4123148918151855,-12.15,-2.35,-9.2,15.42
7.421413898468018,-11.07,-1.35,-9.12,14.4
7.45201301574707,-9.33,-0.79,-8.89,12.91
7.452282905578613,-8.57,-1.21,-8.2,11.92
7.452546119689941,-8.49,-1.76,-6.96,11.11
7.461321830749512,-9.6,2.91,-6.75,12.09
7.47128701210022,-2.91,5.79,-4.1,7.66
7.481871128082275,21.0,6.58,7.99,23.41
7.491806983947754,43.08,24.29,29.12,57.39
7.501317977905273,18.94,25.51,1.83,31.82
7.512181997299194,-0.42,10.94,-14.37,18.06
7.521406173706055,-9.28,-1.7,-11.41,14.8
7.552045822143555,-18.04,-7.92,-2.13,19.81
7.5523271560668945,-20.36,-5.26,7.81,22.43
7.552592039108276,-16.42,-5.14,-1.67,17.28
7.561277866363525,-11.45,-3.5,-6.29,13.52
7.571192026138306,-6.26,-0.63,-3.42,7.16
7.581776142120361,-3.28,0.6,-1.81,3.79
7.591175079345703,-0.36,1.01,-2.28,2.51
7.601205825805664,3.36,1.46,-3.15,4.83
7.611930847167969,5.41,1.56,-3.09,6.42
7.621073007583618,3.18,1.26,-2.48,4.22
7.652199983596802,0.02,0.88,-2.98,3.1
7.6524670124053955,-0.95,0.32,-3.53,3.66
7.6527299880981445,-1.6,-0.06,-2.82,3.24
7.661041021347046,-2.14,-0.25,-1.21,2.47
7.670987129211426,-1.64,-0.26,0.11,1.66
7.6816020011901855,-0.46,-0.1,-0.02,0.47
7.691009044647217,0.16,0.01,-0.75,0.76
7.700984954833984,0.04,0.11,-0.81,0.81
7.712321043014526,-0.16,0.18,-0.1,0.26
7.720983982086182,-0.15,0.11,0.54,0.57
7.7522101402282715,-0.01,0.01,0.58,0.58
7.752480983734131,0.1,-0.06,0.1,0.15
7.75274395942688,0.11,-0.04,-0.26,0.28
7.760897159576416,0.15,0.06,-0.27,0.31
7.7707719802856445,0.4,0.08,0.06,0.41
7.781469821929932,0.84,0.13,0.65,1.07
7.790899038314819,1.43,0.24,1.12,1.83
7.800907135009766,1.83,0.33,1.32,2.28
7.811613082885742,1.82,0.28,1.43,2.33
7.8208770751953125,1.37,0.16,1.42,1.97
7.852563858032227,0.8,0.08,1.32,1.54
7.852829933166504,0.62,0.04,1.39,1.52
7.853094100952148,0.86,-0.03,1.5,1.72
7.860743999481201,1.24,-0.23,1.69,2.1
7.870645046234131,1.8,-0.45,1.97,2.7
7.881309986114502,3.01,-0.33,2.08,3.67
7.890588045120239,3.81,0.06,1.51,4.09
7.900710105895996,3.29,0.48,0.79,3.41
7.9115118980407715,2.2,0.62,0.57,2.35
7.920722007751465,1.02,0.5,0.45,1.22
7.952234983444214,0.43,0.46,0.93,1.12
7.952505111694336,0.83,0.61,0.92,1.38
7.952765941619873,1.09,0.79,0.79,1.56
7.960608005523682,1.24,0.99,0.74,1.75
7.970500946044922,1.32,1.85,0.7,2.37
7.981176853179932,1.38,2.43,1.1,3.0
7.9904561042785645,0.88,2.69,1.52,3.21
8.00059199333191,1.33,2.87,2.0,3.74
8.011221885681152,1.95,2.99,2.2,4.19
8.020673990249634,2.45,2.96,2.3,4.47
8.052639961242676,2.86,3.27,2.42,4.97
8.052908897399902,3.05,4.45,2.52,5.95
8.053175926208496,3.95,7.07,2.37,8.43
8.060512065887451,5.68,8.93,3.5,11.14
8.070502042770386,6.06,8.95,5.83,12.28
8.081056118011475,5.75,9.11,7.0,12.84
8.090372085571289,6.39,9.59,7.7,13.85
8.100450992584229,7.22,10.01,6.98,14.17
8.111196994781494,7.66,10.23,6.02,14.12
8.120389938354492,7.01,9.31,4.31,12.42
8.152320861816406,6.45,8.61,-0.01,10.75
8.15260100364685,4.97,9.84,-4.66,11.96
8.152864933013916,-0.11,12.39,-6.47,13.97
8.16038203239441,-4.51,13.42,-3.53,14.59
8.170270919799805,-2.54,9.48,0.11,9.81
8.180899143218994,1.58,5.3,0.1,5.53
8.190243005752563,1.52,2.61,0.65,3.08
8.200264930725098,-2.01,2.35,-3.81,4.9
8.210989952087402,1.24,5.58,-3.99,6.97
8.220233917236328,6.91,5.46,0.36,8.81
8.253021955490112,9.89,3.24,2.62,10.73
8.253291130065918,9.38,1.81,3.91,10.32
8.253556966781616,7.42,0.93,3.39,8.21
8.260117053985596,6.27,0.47,1.99,6.59
8.269994020462036,5.04,0.1,1.0,5.13
8.280596017837524,3.51,-0.42,0.75,3.61
8.290199995040894,2.28,-1.14,1.17,2.8
8.300214052200317,1.39,-1.79,1.58,2.76
8.311028957366943,0.49,-2.3,1.52,2.8
8.320358991622925,-0.26,-2.79,1.46,3.15
8.354115962982178,-0.68,-3.14,1.32,3.47
8.354392051696777,-0.83,-3.28,1.0,3.52
8.354660987854004,-0.85,-3.37,0.35,3.49
8.360026836395264,-1.16,-3.61,-0.57,3.83
8.369967937469482,-1.42,-4.18,-1.18,4.56
8.380549907684326,-1.2,-4.93,-1.13,5.19
8.390222072601318,-1.0,-5.85,-0.52,5.95
8.399982929229736,-0.86,-6.77,0.34,6.83
8.41078805923462,-1.08,-7.45,0.33,7.53
8.42003583908081,-1.32,-8.06,0.29,8.17
8.453505039215088,-1.58,-8.48,0.37,8.63
8.453771114349365,-2.15,-8.28,0.01,8.55
8.45403504371643,-2.95,-7.81,-0.48,8.36
8.459826946258545,-4.35,-7.2,-2.21,8.69
8.469828128814697,-6.41,-6.44,-5.05,10.39
8.480399131774902,-8.11,-5.43,-7.58,12.35
8.490141868591309,-8.53,-4.25,-8.07,12.48
8.499812126159668,-8.01,-3.45,-7.33,11.39
8.510570049285889,-8.0,-2.71,-7.5,11.29
8.519786834716797,-8.79,-1.89,-8.82,12.59
8.553581953048706,-8.89,-1.58,-9.5,13.1
8.553853034973145,-8.25,-1.89,-8.79,12.2
8.554119110107422,-8.1,-1.93,-8.5,11.89
8.559721946716309,-8.43,-1.39,-8.95,12.37
8.569720983505249,-8.25,-1.01,-8.94,12.2
8.58020305633545,-7.54,-0.96,-9.04,11.81
8.58971905708313,-7.15,-1.2,-8.62,11.26
8.59959888458252,-7.43,0.36,-7.97,10.9
8.61040997505188,-4.12,6.15,-6.48,9.83
8.61962103843689,8.08,5.93,2.2,10.26
8.653395175933838,24.58,16.63,30.5,42.55
8.653666973114014,22.86,18.38,13.45,32.26
8.653931140899658,2.08,9.84,-14.96,18.02
8.659617900848389,-7.45,0.13,-1.76,7.65
8.669725894927979,-13.94,-2.48,0.77,14.17
8.680119037628174,-15.8,-1.7,-2.66,16.11
8.689539909362793,-12.81,-0.99,-1.22,12.9
8.699542999267578,-8.2,-1.94,-5.28,9.94
8.710261821746826,-3.2,-0.52,-7.17,7.86
8.719517946243286,-0.72,1.03,-6.05,6.17
8.753305912017822,0.09,0.59,-4.65,4.68
8.753570079803467,1.65,0.52,-4.03,4.38
8.753828048706055,1.51,1.06,-3.8,4.22
8.759428977966309,-0.77,1.14,-2.06,2.47
8.769325971603394,-2.33,0.5,-0.24,2.39
8.78004503250122,-2.32,0.2,0.19,2.33
8.789331912994385,-1.66,0.07,0.17,1.67
8.799373149871826,-1.14,-0.16,0.41,1.22
8.810100078582764,-0.3,-0.17,0.21,0.4
8.81942892074585,1.09,0.0,-0.27,1.12
8.85445785522461,1.88,0.11,-0.54,1.95
8.85472583770752,1.75,0.12,-0.57,1.84
8.854989051818848,1.18,-0.03,-0.68,1.36
8.859293937683105,0.5,-0.2,-0.89,1.04
8.86913800239563,-0.12,-0.28,-0.65,0.71
8.879846096038818,-0.42,-0.14,0.12,0.45
8.889124870300293,-0.36,0.07,0.85,0.92
8.899363994598389,0.1,0.19,1.28,1.29
8.910070896148682,0.9,0.22,1.4,1.67
8.919249057769775,1.57,0.24,1.14,1.95
8.95379900932312,1.86,0.2,1.01,2.12
8.954062938690186,1.76,0.13,0.91,1.98
8.954323053359985,1.4,0.05,1.05,1.75
8.959364891052246,1.03,-0.04,1.47,1.79
8.969022989273071,0.74,-0.12,1.78,1.93
8.979640007019043,0.84,-0.15,1.81,2.0
8.989006996154785,1.14,-0.14,1.38,1.79
8.999085903167725,1.35,-0.08,0.85,1.59
9.009829998016357,1.24,0.11,0.46,1.32
9.019143104553223,0.96,0.42,0.06,1.04
9.053683042526245,0.67,0.62,0.17,0.92
9.053943157196045,0.69,0.73,0.54,1.14
9.054198980331421,0.95,0.8,0.98,1.58
9.058902978897095,1.16,0.8,1.67,2.18
9.068989992141724,1.14,0.89,1.7,2.23
9.079472064971924,1.02,1.05,1.75,2.28
9.08887505531311,1.07,1.49,1.94,2.66
9.09897494316101,1.4,2.09,2.14,3.3
9.109702110290527,1.86,2.33,2.01,3.59
9.119065999984741,2.15,2.47,2.03,3.85
9.153671026229858,2.19,2.25,2.35,3.92
9.153932094573975,2.39,2.23,2.5,4.11
9.154190063476562,2.62,2.4,2.68,4.45
9.158752918243408,2.9,2.74,3.05,5.02
9.16887903213501,3.17,3.33,3.49,5.77
9.179329872131348,3.26,4.44,3.92,6.76
9.188754081726074,3.28,6.88,4.04,8.62
9.198759078979492,4.88,9.55,5.57,12.08
9.209594964981079,6.45,10.49,7.96,14.66
9.218843936920166,6.79,11.1,8.09,15.32
9.254280090332031,6.71,11.74,8.32,15.87
9.254541873931885,6.09,11.63,9.08,15.96
9.254798889160156,5.11,10.6,6.21,13.3
9.258519172668457,5.02,9.27,-1.22,10.61
9.268594980239868,4.31,10.32,-7.6,13.52
9.279157161712646,0.44,14.74,-7.07,16.35
9.288723945617676,-2.82,15.75,0.43,16.0
9.298737049102783,-1.83,11.26,1.42,11.49
9.30929708480835,1.65,5.32,-0.85,5.63
9.31862998008728,0.33,2.25,0.28,2.29
9.354262828826904,-5.66,0.7,-3.88,6.89
9.35453200340271,-5.81,3.0,-6.81,9.44
9.354797840118408,0.13,5.31,-0.68,5.35
9.358289003372192,5.42,3.37,2.52,6.86
9.368417024612427,8.4,0.41,3.86,9.25
9.379025936126709,7.24,-1.69,4.23,8.55
9.38849687576294,5.15,-2.64,3.35,6.68
9.39850401878357,3.83,-2.95,2.8,5.58
9.40913701057434,2.79,-2.95,2.64,4.84
9.4184730052948,1.8,-2.74,2.45,4.09
9.453754901885986,0.91,-2.69,2.49,3.77
9.454018115997314,0.61,-2.91,2.54,3.91
9.454279899597168,0.72,-3.33,2.46,4.2
9.458210945129395,0.85,-3.79,2.06,4.39
9.468277931213379,1.05,-4.11,1.68,4.56
9.478899955749512,1.35,-4.29,1.41,4.71
9.488297939300537,1.48,-4.51,1.36,4.93
9.498341083526611,1.41,-4.74,1.33,5.12
9.508923053741455,1.01,-4.99,1.27,5.24
9.518419027328491,0.45,-5.36,1.1,5.49
9.553768157958984,-0.18,-5.92,0.75,5.97
9.554030895233154,-0.66,-6.74,0.76,6.81
9.554290056228638,-1.22,-7.32,0.57,7.44
9.55807113647461,-1.83,-7.5,0.17,7.72
9.568315982818604,-3.02,-7.54,-0.9,8.17
9.578735828399658,-4.54,-7.32,-2.39,8.93
9.588170051574707,-5.87,-6.88,-4.15,9.95
9.598186016082764,-7.23,-6.14,-5.38,10.9
9.608960151672363,-8.26,-5.35,-5.81,11.42
9.618201971054077,-8.37,-4.43,-6.03,11.22
9.653671026229858,-8.42,-3.24,-6.68,11.22
9.65393590927124,-8.79,-2.32,-7.61,11.85
9.654199123382568,-9.28,-1.78,-8.35,12.6
9.658015012741089,-9.81,-1.25,-8.83,13.25
9.6680588722229,-9.76,-1.08,-8.93,13.27
9.678544998168945,-9.32,-0.86,-9.0,12.98
9.68799901008606,-9.25,-0.62,-9.37,13.18
9.697988986968994,-9.08,-0.77,-9.52,13.17
9.708904027938843,-8.43,4.29,-8.79,12.91
9.718142986297607,-5.16,3.39,-5.62,8.34
9.754112958908081,4.04,5.19,-4.03,7.71
9.754385948181152,23.9,21.06,22.75,39.14
9.754657983779907,19.31,20.48,3.95,28.42
9.758060932159424,4.0,9.21,-12.44,15.98
9.767952919006348,-5.22,-3.32,1.15,6.29
9.778440952301025,-14.18,-6.26,1.18,15.54
9.787917137145996,-14.14,-6.64,-1.15,15.66
9.797875881195068,-8.36,-3.68,-5.95,10.9
9.836482048034668,-6.59,0.23,-7.8,10.21
9.836747169494629,-4.97,2.1,-4.2,6.83
9.837033033370972,-2.13,1.52,-1.87,3.21
9.837769031524658,0.95,0.78,-2.26,2.57
9.847690105438232,3.0,0.65,-2.29,3.82
9.858090877532959,2.5,0.65,-1.49,2.98
9.867731094360352,0.17,0.58,-1.83,1.92
9.878430843353271,-0.84,0.38,-2.64,2.79
9.88772702217102,-1.23,0.19,-2.52,2.81
9.89778995513916,-1.81,0.17,-1.23,2.19
9.93845510482788,-2.03,-0.03,-0.23,2.04
9.938719034194946,-1.48,-0.2,-0.25,1.51
9.938979148864746,-0.86,-0.22,-0.74,1.15
9.939241886138916,-0.62,-0.15,-0.88,1.08
9.947613954544067,-0.53,-0.02,-0.48,0.71
9.957902908325195,-0.48,0.04,-0.05,0.48
9.967636108398438,-0.5,0.02,0.16,0.52
9.97826600074768,-0.53,-0.04,0.16,0.55
9.987585067749023,-0.35,-0.02,0.01,0.35
9.997635841369629,0.07,0.06,-0.08,0.12
10.038295030593872,0.63,0.11,-0.02,0.63
10.038557052612305,1.25,0.16,0.29,1.29
10.038824081420898,1.69,0.11,0.76,1.85
10.039080142974854,1.89,0.17,1.11,2.19
10.047429084777832,1.76,0.22,1.16,2.11
10.057919979095459,1.16,0.2,1.04,1.57
10.067515850067139,0.43,0.13,0.81,0.92
10.078071117401123,0.05,0.04,0.75,0.75
10.08834195137024,0.24,0.07,1.15,1.17
10.097497940063477,0.88,0.06,1.54,1.77
10.138270854949951,1.71,0.04,1.74,2.43
10.138535022735596,2.36,-0.11,1.4,2.74
10.138803958892822,2.2,-0.2,1.13,2.48
10.13906192779541,1.95,0.0,0.89,2.14
10.14728307723999,1.86,0.36,0.86,2.08
10.15744400024414,1.45,0.63,0.59,1.68
10.167365074157715,0.83,0.74,0.46,1.2
10.177986145019531,0.4,0.85,0.71,1.17
10.187305927276611,0.33,0.79,1.13,1.41
10.19733190536499,0.51,0.63,1.5,1.7
10.2391939163208,1.02,0.66,1.69,2.08
10.23946499824524,1.51,1.27,1.72,2.61
10.239726066589355,1.68,1.81,1.47,2.87
10.239986896514893,1.36,2.46,1.53,3.2
10.247136116027832,1.27,2.48,1.78,3.3
10.257214069366455,1.56,2.41,2.08,3.54
10.267148971557617,2.08,2.2,2.23,3.76
10.277757167816162,2.64,2.26,2.22,4.12
10.287142992019653,3.0,2.39,2.48,4.56
10.297162055969238,3.12,2.62,3.02,5.07
10.337860107421875,3.05,3.76,3.33,5.87
10.338312149047852,3.39,6.53,3.11,7.98
10.33857011795044,5.07,8.92,4.44,11.17
10.33882999420166,6.16,9.6,7.34,13.56
10.347014904022217,6.25,10.34,8.38,14.7
10.357010841369629,5.94,11.18,8.62,15.31
10.367021083831787,4.89,10.69,9.24,14.95
10.377701997756958,3.75,9.06,7.52,12.35
10.387140035629272,3.87,7.06,1.81,8.25
10.39706802368164,5.61,6.98,-4.18,9.88
10.437628030776978,4.1,11.47,-6.87,13.98
10.438256978988647,-1.1,14.68,-3.52,15.13
10.438520908355713,-2.32,13.23,-0.61,13.44
10.438781976699829,-0.4,9.36,-1.32,9.46
10.44688606262207,2.74,4.66,-0.16,5.4
10.456914901733398,0.79,1.81,1.81,2.67
10.466851949691772,-4.72,0.88,-3.07,5.69
10.477466106414795,-3.68,4.31,-4.83,7.44
10.486861944198608,1.24,5.72,0.24,5.85
10.496872901916504,5.66,3.46,3.15,7.34
10.507680892944336,7.76,1.04,4.34,8.95
10.538354873657227,6.67,-0.51,3.5,7.54
10.538625001907349,5.21,-1.07,2.51,5.88
10.538886070251465,3.8,-1.33,2.38,4.67
10.546640872955322,2.48,-1.5,2.75,3.99
10.556782007217407,1.09,-1.43,2.97,3.47
10.566709041595459,-0.47,-1.65,2.91,3.37
10.577361106872559,-1.65,-2.14,2.79,3.88
10.586731910705566,-2.31,-2.68,2.72,4.46
10.596828937530518,-2.3,-3.09,2.52,4.6
10.607570171356201,-1.73,-3.34,2.23,4.37
10.638682842254639,-0.98,-3.59,1.93,4.19
10.63894510269165,-0.39,-3.9,1.43,4.17
10.639204025268555,-0.02,-4.36,1.09,4.49
10.646501064300537,0.07,-5.15,1.05,5.25
10.656576156616211,-0.11,-6.13,1.19,6.24
10.666568040847778,0.07,-6.9,1.52,7.06
10.6771559715271,0.46,-7.49,1.8,7.71
10.686564922332764,0.52,-7.84,1.57,8.01
10.696693897247314,0.07,-8.02,0.75,8.05
10.707375049591064,-0.51,-8.04,-0.26,8.06
10.739598035812378,-0.88,-7.79,-0.66,7.86
10.73986005783081,-1.4,-7.01,-0.99,7.21
10.740118026733398,-2.42,-5.8,-1.98,6.58
10.746392011642456,-4.08,-4.67,-3.36,7.05
10.756428003311157,-5.35,-3.67,-5.01,8.19
10.766422986984253,-5.78,-2.58,-6.44,9.02
10.777041912078857,-6.51,-1.45,-7.88,10.32
10.786375045776367,-7.68,-0.79,-8.89,11.77
10.796411037445068,-9.12,-0.57,-9.53,13.2
10.807225942611694,-10.37,-0.63,-10.56,14.81
10.839805126190186,-11.14,-0.78,-11.22,15.83
10.840075969696045,-10.58,-1.0,-11.32,15.52
10.840338945388794,-8.66,-1.35,-10.87,13.96
10.846325874328613,-7.53,-1.77,-9.79,12.47
10.856318950653076,-7.86,3.9,-8.49,12.2
10.866719961166382,-2.13,1.2,-5.57,6.08
10.876765012741089,4.01,6.56,1.11,7.76
10.886879920959473,20.61,24.05,27.71,42.08
10.896437168121338,14.12,25.85,-3.13,29.62
10.90717601776123,2.64,8.14,-10.51,13.55
10.940678119659424,-8.75,-8.39,4.26,12.84
10.940943956375122,-14.66,-12.88,-1.22,19.55
10.941205024719238,-11.96,-7.25,-6.67,15.49
10.946095943450928,-10.81,-2.2,-8.39,13.85
10.956228017807007,-7.71,2.1,-6.04,10.01
10.966078042984009,-3.89,2.49,-2.12,5.08
10.976632118225098,-0.09,0.62,-1.03,1.2
10.986042022705078,1.98,0.49,-2.67,3.35
10.996186017990112,2.54,0.52,-2.7,3.74
11.006986141204834,1.16,0.47,-2.34,2.65
11.040735006332397,-0.76,0.61,-2.43,2.61
11.04099988937378,-1.15,0.56,-2.16,2.51
11.041262149810791,-0.89,0.18,-1.44,1.7
11.045898914337158,-1.13,-0.1,-0.6,1.28
11.055968046188354,-1.24,-0.25,-0.54,1.37
11.065957069396973,-0.94,-0.26,-0.89,1.32
11.076395034790039,-0.53,-0.1,-1.04,1.17
11.086150169372559,-0.28,0.08,-0.87,0.91
11.096036911010742,-0.26,0.16,-0.54,0.62
11.106837034225464,-0.43,0.11,-0.09,0.45
11.140942096710205,-0.6,-0.01,0.17,0.62
11.141202926635742,-0.68,-0.11,0.2,0.71
11.141464948654175,-0.51,-0.1,0.35,0.62
11.145764827728271,-0.13,-0.03,0.31,0.33
11.155847072601318,0.38,0.08,0.11,0.4
11.165809154510498,0.78,0.13,-0.02,0.79
11.176448822021484,1.19,0.16,0.05,1.2
11.185811042785645,1.48,0.18,0.15,1.49
11.19584608078003,1.17,0.2,0.16,1.19
11.206722021102905,0.4,0.19,0.37,0.57
11.241590023040771,-0.23,0.1,0.54,0.59
11.242185115814209,-0.61,0.04,0.72,0.94
11.242445945739746,-0.77,0.03,1.0,1.26
11.245847940444946,-0.45,0.08,0.98,1.08
11.255689144134521,0.12,0.19,0.95,0.97
11.265850067138672,0.79,0.26,0.96,1.27
11.276483058929443,1.55,0.25,1.09,1.91
11.285676956176758,2.36,0.18,1.15,2.63
11.29568600654602,3.11,0.27,1.47,3.45
11.306573867797852,3.38,0.39,1.57,3.74
11.34213399887085,3.11,0.41,1.89,3.66
11.34239387512207,2.8,0.39,1.82,3.36
11.34265398979187,2.58,0.43,1.6,3.06
11.345702171325684,1.96,0.7,1.64,2.64
11.355584144592285,1.31,1.18,1.12,2.08
11.365468978881836,1.13,1.62,0.69,2.09
11.376448154449463,1.17,2.35,1.15,2.86
11.385537147521973,1.91,3.08,1.72,4.01
11.395583152770996,1.8,3.11,2.53,4.39
11.406415939331055,1.94,3.14,2.61,4.52
11.44199800491333,2.25,3.24,2.86,4.87
11.442256927490234,2.42,3.04,3.05,4.93
11.44251298904419,2.82,3.43,3.28,5.52
11.445420980453491,3.23,5.27,3.27,6.99
11.455427169799805,5.41,8.17,3.27,10.33
11.465282917022705,8.02,8.38,5.5,12.83
11.476336002349854,7.31,7.75,6.15,12.3
11.48539686203003,6.45,8.1,6.33,12.13
11.495414018630981,5.62,8.98,6.83,12.6
11.506327152252197,5.41,9.69,7.51,13.4
11.542662143707275,5.46,9.78,6.26,12.83
11.542924880981445,6.47,9.36,2.88,11.73
11.5431809425354,7.6,9.12,-0.4,11.87
11.545199871063232,6.02,9.91,-3.56,12.12
11.555245876312256,0.6,12.46,-3.23,12.88
11.565232038497925,-3.12,12.79,-0.45,13.17
11.576222896575928,-1.69,9.77,-0.37,9.92
11.585250854492188,1.01,5.32,-0.44,5.43
11.595271110534668,0.48,2.05,1.29,2.46
11.605962991714478,-4.54,0.94,-2.94,5.48
11.64270305633545,-2.62,4.02,-4.03,6.26
11.642966985702515,2.5,5.18,1.11,5.85
11.643229961395264,5.73,2.85,3.57,7.32
11.645048141479492,6.64,0.32,4.86,8.23
11.655116081237793,5.23,-1.06,4.44,6.94
11.665074825286865,4.07,-1.52,3.06,5.31
11.675962924957275,3.42,-1.65,2.16,4.36
11.685094833374023,2.81,-1.88,1.92,3.88
11.695049047470093,2.33,-2.16,2.29,3.91
11.70595097541809,1.92,-2.25,2.87,4.12
11.742999076843262,1.41,-2.25,3.03,4.02
11.74326205253601,0.82,-2.32,2.52,3.52
11.743523120880127,0.2,-2.45,1.86,3.08
11.74497103691101,-0.2,-2.61,1.19,2.87
11.75494384765625,-0.07,-2.56,0.69,2.65
11.764944076538086,0.14,-2.68,0.31,2.7
11.775908946990967,0.49,-3.0,0.06,3.04
11.784916877746582,0.63,-3.61,0.45,3.69
11.794975996017456,0.42,-4.34,0.53,4.39
11.805676937103271,-0.22,-4.92,0.41,4.94
11.843677997589111,-1.25,-5.54,0.33,5.68
11.843944072723389,-1.89,-6.32,0.05,6.59
11.844243049621582,-2.07,-6.64,-0.1,6.95
11.844861030578613,-2.29,-6.6,-0.67,7.01
11.854827880859375,-2.91,-6.39,-1.6,7.2
11.864809036254883,-4.36,-5.98,-1.98,7.66
11.875830173492432,-5.52,-5.64,-2.24,8.2
11.884797096252441,-5.47,-5.05,-2.9,7.98
11.894850015640259,-5.4,-4.06,-3.9,7.8
11.905524015426636,-5.51,-3.2,-4.85,8.0
11.94406509399414,-5.64,-3.01,-5.46,8.4
11.944509029388428,-6.45,-2.91,-6.5,9.6
11.944779872894287,-8.12,-2.27,-8.21,11.76
11.945043087005615,-10.04,-1.76,-9.41,13.87
11.954692840576172,-11.07,-1.52,-10.28,15.18
11.964631080627441,-10.84,-1.43,-11.02,15.52
11.975266933441162,-10.17,-1.59,-11.53,15.45
11.984629154205322,-9.25,-2.02,-10.59,14.2
11.994688987731934,-9.37,1.73,-10.35,14.06
12.005331993103027,-3.66,0.85,-9.53,10.24
12.044725894927979,0.48,0.39,-7.27,7.29
12.044994831085205,16.91,18.69,20.98,32.79
12.0452561378479,27.06,24.73,18.72,41.16
12.045516014099121,6.96,18.97,-15.26,25.32
12.054496049880981,-5.78,-0.3,-5.53,8.0
12.06472110748291,-14.31,-11.54,1.85,18.47
12.075098037719727,-13.89,-8.21,1.52,16.2
12.084465980529785,-13.19,-5.05,-4.84,14.92
12.094472885131836,-11.56,-2.3,-7.57,14.0
12.10520601272583,-6.93,0.98,-4.97,8.58
12.144068002700806,-2.05,1.5,-1.41,2.9
12.144335985183716,1.4,0.81,-1.32,2.08
12.1445951461792,3.5,0.54,-1.34,3.78
12.14485216140747,3.87,0.55,-1.28,4.11
12.154429912567139,1.13,0.55,-3.05,3.29
12.16435694694519,-1.42,0.55,-3.8,4.09
12.174962043762207,-1.91,0.79,-2.88,3.54
12.184365034103394,-1.54,0.62,-1.83,2.47
12.194364070892334,-1.67,0.32,-1.26,2.11
12.205069065093994,-1.71,0.02,-1.08,2.02
12.244638919830322,-1.12,-0.07,-1.03,1.52
12.244904041290283,-0.77,-0.02,-0.83,1.13
12.245162963867188,-0.81,0.02,-0.32,0.87
12.245419025421143,-0.76,0.13,0.08,0.77
12.25423002243042,-0.53,0.23,0.21,0.61
12.264219045639038,-0.16,0.27,0.39,0.5
12.274837017059326,0.39,0.2,0.43,0.61
12.284209966659546,0.92,0.14,0.25,0.96
12.294242858886719,1.04,0.05,0.3,1.08
12.306403160095215,0.81,-0.04,0.35,0.88
12.34492301940918,0.55,-0.01,0.57,0.79
12.345186948776245,0.35,0.1,0.56,0.66
12.345447063446045,0.44,0.18,0.86,0.98
12.345703125,0.68,0.24,1.17,1.37
12.354085922241211,0.67,0.25,1.13,1.33
12.364092826843262,0.49,0.21,1.14,1.25
12.37466287612915,0.46,0.21,1.06,1.17
12.384021997451782,0.49,0.24,0.95,1.09
12.393930912017822,0.81,0.13,0.87,1.19
12.404775142669678,1.34,0.04,0.59,1.46
12.445723056793213,1.59,0.22,0.46,1.66
12.445986032485962,1.55,0.64,0.13,1.68
12.4462308883667,1.55,1.04,-0.05,1.86
12.44649600982666,1.41,1.21,0.63,1.96
12.45398497581482,1.3,1.16,1.26,2.15
12.464328050613403,1.22,1.67,1.79,2.73
12.474440097808838,1.26,1.64,2.07,2.92
12.483904838562012,1.13,1.53,2.31,2.99
12.493800163269043,1.45,1.5,2.31,3.11
12.504654884338379,2.06,1.78,2.28,3.55
12.545915126800537,2.69,1.98,2.27,4.03
12.54617691040039,3.2,1.95,2.42,4.46
12.546435832977295,3.69,1.82,2.7,4.92
12.546694040298462,4.08,1.69,3.06,5.37
12.553783893585205,4.23,1.75,3.27,5.62
12.563746929168701,4.3,2.24,3.36,5.89
12.574319839477539,3.93,3.56,3.37,6.28
12.583746910095215,3.22,6.33,3.31,7.83
12.593721866607666,4.59,9.5,4.18,11.34
12.604575157165527,6.92,10.02,7.26,14.17
12.64562702178955,7.64,9.9,7.78,14.72
12.645889043807983,7.39,10.3,6.85,14.4
12.646149158477783,5.95,10.63,6.8,13.95
12.646408081054688,4.59,10.72,4.28,12.42
12.65360403060913,4.18,10.74,-1.02,11.56
12.663583993911743,3.09,11.53,-5.01,12.94
12.674206972122192,0.31,13.63,-4.63,14.39
12.683629989624023,-1.29,13.75,-1.55,13.89
12.693533897399902,0.68,10.16,-0.61,10.2
12.70439600944519,2.17,5.93,-0.57,6.34
12.745880126953125,0.95,3.0,1.1,3.33
12.746142864227295,-4.67,2.08,-3.24,6.05
12.746405124664307,-3.99,4.88,-5.64,8.45
12.746663093566895,1.98,5.83,0.44,6.17
12.753517150878906,5.76,3.19,3.01,7.23
12.763505935668945,6.14,1.44,3.22,7.08
12.77405595779419,4.08,0.46,2.92,5.03
12.783484935760498,2.72,-0.38,2.13,3.47
12.793468952178955,2.18,-1.01,1.75,2.97
12.804212093353271,1.73,-1.35,1.75,2.8
12.846482038497925,1.19,-1.53,2.34,3.03
12.84674882888794,0.78,-1.76,2.83,3.42
12.847007036209106,0.16,-2.17,2.63,3.41
12.847267150878906,-0.56,-2.69,2.4,3.64
12.853416919708252,-0.94,-3.24,2.57,4.24
12.863333940505981,-1.01,-3.42,2.46,4.33
12.873959064483643,-0.75,-3.11,2.06,3.8
12.883285999298096,-0.46,-2.82,1.64,3.29
12.893520832061768,-0.08,-3.0,1.41,3.31
12.904122829437256,0.15,-3.52,1.44,3.8
12.947016954421997,0.07,-4.08,1.38,4.3
12.947281837463379,-0.27,-4.78,1.06,4.9
12.947553157806396,-0.37,-5.47,1.42,5.66
12.947813034057617,-0.35,-6.06,1.71,6.3
12.953223943710327,-0.35,-6.59,1.72,6.81
12.963124990463257,-0.4,-6.73,1.3,6.86
12.973603963851929,-1.19,-6.71,0.22,6.81
12.98320198059082,-2.59,-6.74,-0.75,7.25
12.993386030197144,-4.27,-6.72,-1.34,8.07
13.003913879394531,-5.83,-6.6,-2.38,9.12
13.0469069480896,-6.57,-6.25,-3.78,9.82
13.047170162200928,-6.42,-5.53,-4.99,9.83
13.047430992126465,-6.27,-4.65,-6.01,9.85
13.047688961029053,-6.83,-3.86,-6.87,10.42
13.053121089935303,-7.75,-3.22,-7.83,11.47
13.063017845153809,-8.63,-2.88,-8.73,12.6
13.073559999465942,-9.18,-2.59,-9.29,13.31
13.083031177520752,-8.84,-2.22,-9.43,13.11
13.09329605102539,-7.7,-1.49,-9.27,12.14
13.103837013244629,-6.73,-0.56,-9.2,11.41
13.147475957870483,-6.01,-0.29,-8.72,10.59
13.147739887237549,-6.06,3.59,-8.78,11.25
13.148003101348877,-1.08,4.64,-4.97,6.88
13.148262023925781,4.12,0.36,-6.97,8.1
13.153087139129639,16.59,20.13,17.17,31.22
13.16284704208374,18.88,24.52,13.87,33.91
13.173465967178345,-3.26,10.32,-14.31,17.94
13.182935953140259,-11.22,-3.39,3.36,12.19
13.19286584854126,-17.32,-4.81,3.22,18.26
13.203645944595337,-16.54,-4.11,-3.24,17.34
13.247631072998047,-10.37,-2.82,-5.08,11.88
13.24789810180664,-7.6,-1.34,-6.92,10.36
13.248162031173706,-2.86,1.11,-5.51,6.3
13.24842095375061,1.84,1.6,-2.87,3.76
13.252778053283691,4.56,0.82,-2.3,5.17
13.262665033340454,4.96,0.64,-3.2,5.93
13.27326488494873,2.81,0.78,-3.76,4.75
13.28268814086914,-0.55,0.64,-2.99,3.1
13.292718887329102,-2.33,0.41,-2.33,3.32
13.30347490310669,-2.64,0.39,-1.64,3.13
13.348371982574463,-2.75,0.1,-1.08,2.95
13.348634958267212,-2.64,-0.34,-0.31,2.67
13.348896026611328,-1.78,-0.45,0.06,1.83
13.3491530418396,-0.66,-0.37,0.46,0.88
13.352617979049683,-0.21,-0.24,0.73,0.79
13.362627029418945,0.06,0.08,0.32,0.33
13.373108863830566,0.27,0.35,-0.36,0.57
13.382529973983765,0.5,0.28,-0.63,0.85
13.392649173736572,0.99,0.2,-0.78,1.27
13.403342008590698,1.38,0.0,-0.71,1.55
13.44860315322876,1.28,-0.19,-0.05,1.29
13.448860168457031,1.05,-0.15,0.75,1.29
13.449120044708252,0.81,0.16,0.93,1.24
13.449379920959473,0.54,0.29,0.6,0.85
13.45247507095337,0.56,0.17,0.39,0.7
13.462411880493164,0.74,0.03,0.41,0.84
13.472877025604248,0.63,0.03,0.26,0.68
13.48236083984375,0.23,0.15,0.18,0.32
13.492426872253418,0.0,0.3,0.39,0.49
13.503283977508545,-0.06,0.42,0.55,0.69
13.549882888793945,-0.07,0.42,0.67,0.79
13.550166130065918,0.0,0.24,0.78,0.81
13.550454139709473,0.02,-0.01,0.74,0.74
13.550713062286377,-0.1,-0.12,0.53,0.55
13.552324056625366,0.08,-0.02,0.18,0.19
13.56228494644165,0.55,0.29,-0.1,0.62
13.572865009307861,1.16,0.57,0.08,1.29
13.582385063171387,1.69,0.71,0.59,1.92
13.592427015304565,2.14,0.77,1.24,2.59
13.60312795639038,2.3,0.88,1.96,3.14
13.649171829223633,1.94,0.88,2.5,3.28
13.649431943893433,1.61,1.48,2.28,3.15
13.6496901512146,1.29,1.38,2.48,3.11
13.649951934814453,1.06,1.2,2.64,3.08
13.652163982391357,1.44,1.33,2.71,3.34
13.662121057510376,1.94,1.6,2.38,3.46
13.67267894744873,2.16,1.95,2.35,3.74
13.682159900665283,2.25,2.26,2.37,3.97
13.69227409362793,2.28,2.48,2.4,4.13
13.702885150909424,2.28,2.62,2.57,4.32
13.749146938323975,2.43,2.96,3.01,4.87
13.749410152435303,2.78,4.04,3.54,6.04
13.749665975570679,3.35,6.78,3.3,8.25
13.749933004379272,5.65,9.34,4.3,11.73
13.7520010471344,6.68,9.27,7.06,13.43
13.761975049972534,5.61,8.72,8.16,13.19
13.772562026977539,4.75,9.38,9.96,14.48
13.782006978988647,3.5,9.83,11.03,15.18
13.791953086853027,2.77,9.08,8.7,12.87
13.802817821502686,4.03,7.78,2.44,9.09
13.849653959274292,6.33,9.34,-4.12,12.01
13.84992790222168,4.04,14.13,-7.03,16.29
13.85019588470459,-0.8,15.83,-3.05,16.14
13.850456953048706,-2.79,13.37,1.4,13.72
13.851884841918945,-0.98,8.57,1.61,8.77
13.861836910247803,2.2,4.28,1.28,4.97
13.872421026229858,-0.97,2.32,1.04,2.72
13.881850004196167,-5.67,2.77,-4.94,8.01
13.89182710647583,-1.74,6.25,-3.5,7.37
13.902677059173584,3.7,6.7,1.94,7.89
13.950340986251831,6.9,4.15,3.01,8.59
13.950602054595947,8.24,1.75,3.28,9.03
13.950860977172852,7.24,-0.19,3.07,7.86
13.951143026351929,5.94,-1.79,2.58,6.71
13.951602935791016,4.8,-2.46,2.36,5.88
13.961644172668457,3.28,-2.36,2.09,4.54
13.972239971160889,1.85,-2.01,2.3,3.57
13.98177194595337,0.45,-1.97,2.58,3.27
13.991726875305176,-0.6,-2.21,2.2,3.17
14.002439022064209,-0.81,-2.48,1.74,3.13
14.050359010696411,-0.12,-2.72,1.46,3.08
14.05062484741211,0.93,-2.8,1.17,3.17
14.05088496208191,1.57,-2.7,0.84,3.23
14.051158905029297,1.68,-2.85,0.71,3.38
14.051584959030151,1.31,-3.3,0.78,3.63
14.06138801574707,0.74,-3.95,0.71,4.08
14.072176933288574,-0.03,-4.72,0.48,4.74
14.0816011428833,-0.61,-5.61,0.62,5.67
14.091639995574951,-0.84,-6.31,0.82,6.41
14.102275848388672,-1.09,-6.62,0.91,6.77
14.150682926177979,-1.59,-6.73,0.59,6.94
14.151149034500122,-1.98,-6.92,0.05,7.19
14.151410102844238,-2.33,-6.82,-0.94,7.26
14.151672840118408,-2.87,-6.3,-1.99,7.2
14.151928901672363,-3.64,-5.96,-2.7,7.48
14.161324977874756,-5.2,-5.38,-3.49,8.25
14.171947956085205,-6.13,-4.39,-4.65,8.85
14.181341171264648,-6.13,-3.32,-5.89,9.12
14.191382884979248,-6.7,-2.35,-7.5,10.32
14.202330112457275,-8.53,-1.55,-8.65,12.24
14.250715970993042,-10.01,-1.01,-9.53,13.85
14.251174926757812,-10.16,-0.9,-9.88,14.2
14.251439094543457,-10.07,-0.78,-10.11,14.29
14.251701831817627,-9.93,-0.49,-10.42,14.4
14.251958847045898,-8.99,-1.2,-9.91,13.43
14.261166095733643,-7.86,-2.59,-8.89,12.14
14.27189588546753,-7.4,-2.77,-7.89,11.16
14.28127384185791,-8.41,5.13,-6.54,11.82
14.291396141052246,-2.59,-1.22,-5.57,6.26
14.301996946334839,8.02,5.95,2.17,10.21
14.351397037506104,27.39,20.31,29.84,45.31
14.35166883468628,12.26,19.13,-1.51,22.77
14.351930141448975,-2.97,10.38,-10.88,15.32
14.352191925048828,-10.85,-2.17,1.68,11.19
14.352452039718628,-17.78,-6.08,-2.04,18.9
14.361268997192383,-13.33,-3.58,-5.21,14.75
14.371757984161377,-9.59,-0.58,-5.86,11.25
14.381080150604248,-6.43,-0.48,-6.21,8.95
14.391203880310059,-2.85,1.56,-5.23,6.15
14.401795864105225,-0.17,1.16,-4.92,5.05
14.451061010360718,1.77,0.33,-5.09,5.39
14.451328039169312,2.99,0.4,-3.95,4.97
14.45159101486206,2.24,0.8,-2.43,3.4
14.451851844787598,-0.03,0.78,-1.62,1.79
14.452127933502197,-1.56,0.15,-1.21,1.97
14.46130895614624,-1.7,0.1,-0.65,1.82
14.47146987915039,-1.28,0.25,-0.18,1.31
14.480853080749512,-1.01,0.15,0.04,1.02
14.490916967391968,-0.67,-0.07,-0.35,0.75
14.5017991065979,-0.36,-0.29,-0.4,0.61
14.551210880279541,-0.18,-0.31,-0.2,0.41
14.551539897918701,-0.15,-0.21,-0.21,0.33
14.551833152770996,-0.26,-0.1,-0.27,0.38
14.552078008651733,-0.41,-0.1,-0.28,0.5
14.55237102508545,-0.46,-0.14,-0.11,0.49
14.561056137084961,-0.25,-0.06,0.21,0.33
14.571408033370972,0.17,0.06,0.5,0.53
14.58079195022583,0.7,0.11,0.72,1.01
14.590795040130615,1.21,0.16,0.75,1.43
14.601500988006592,1.61,0.24,0.88,1.85
14.610776901245117,1.67,0.18,1.0,1.95
14.65188217163086,1.41,0.09,0.95,1.7
14.65214204788208,1.08,0.01,0.99,1.46
14.652400970458984,0.74,-0.04,1.04,1.27
14.652659893035889,0.58,0.04,1.15,1.28
14.660572052001953,0.68,0.06,0.98,1.19
14.671221017837524,0.91,-0.02,0.71,1.15
14.680624961853027,1.02,-0.08,0.58,1.17
14.690648078918457,0.94,-0.02,0.29,0.98
14.701411962509155,0.74,0.16,0.05,0.75
14.710657119750977,0.59,0.39,0.13,0.71
14.750920057296753,0.7,0.46,0.34,0.9
14.75118112564087,1.17,0.32,0.75,1.42
14.751440048217773,1.63,0.35,1.24,2.07
14.751695156097412,1.82,0.53,1.46,2.39
14.760508060455322,1.36,0.61,1.69,2.25
14.771184921264648,0.78,0.58,1.82,2.06
14.780483961105347,0.73,0.82,1.57,1.91
14.790513038635254,1.24,1.36,1.28,2.24
14.80129599571228,2.0,2.07,1.35,3.17
14.810508012771606,2.22,2.32,2.01,3.78
14.85191798210144,2.3,2.2,2.15,3.84
14.852184057235718,2.45,2.38,1.98,3.94
14.852438926696777,2.27,2.36,2.2,3.94
14.852697849273682,2.34,2.61,2.41,4.25
14.860321044921875,2.49,3.01,2.83,4.82
14.871013164520264,2.59,3.49,3.42,5.53
14.880226135253906,2.58,5.15,3.63,6.8
14.89037299156189,3.79,7.91,3.69,9.51
14.901111125946045,5.54,8.84,5.81,11.94
14.910387992858887,4.81,8.74,7.09,12.23
14.952486991882324,4.77,9.73,8.13,13.54
14.952749013900757,5.51,10.82,9.69,15.53
14.953009128570557,4.76,10.64,9.46,15.01
14.953266143798828,3.66,9.39,7.57,12.6
14.960242986679077,4.71,7.89,2.19,9.44
14.97086501121521,7.63,8.04,-3.6,11.65
14.98013687133789,5.93,12.61,-5.61,15.02
14.990195035934448,-0.62,15.33,-1.63,15.42
15.000911951065063,-1.48,12.1,0.28,12.19
15.010261058807373,0.99,7.37,-0.52,7.45
15.05242109298706,1.52,4.06,0.62,4.37
15.052690029144287,-3.24,2.06,-0.76,3.91
15.052950859069824,-6.6,2.56,-6.04,9.3
15.053208827972412,-1.92,5.73,-3.25,6.86
15.060120105743408,3.65,5.41,1.18,6.63
15.070672035217285,7.56,2.86,2.64,8.5
15.080042839050293,8.26,0.92,2.9,8.8
15.090077877044678,6.56,-0.24,1.87,6.82
15.100761890411377,5.35,-1.05,1.14,5.56
15.11006498336792,4.47,-1.67,1.45,4.98
15.152915954589844,3.3,-2.06,1.75,4.26
15.153177976608276,1.97,-2.33,1.94,3.61
15.153434991836548,0.72,-2.68,1.89,3.35
15.15369200706482,-0.18,-3.05,1.54,3.42
15.159930944442749,-0.29,-3.27,1.46,3.59
15.170559883117676,0.48,-3.54,1.63,3.92
15.179914951324463,1.25,-3.73,1.45,4.19
15.192294120788574,1.87,-3.71,1.13,4.3
15.200680017471313,2.12,-3.81,1.12,4.5
15.210011959075928,1.95,-4.08,0.93,4.61
15.2537100315094,1.45,-4.65,1.08,4.98
15.253976821899414,0.92,-5.21,1.11,5.4
15.25423812866211,0.71,-5.72,0.93,5.83
15.254503011703491,0.53,-6.34,1.19,6.47
15.259752035140991,0.02,-6.77,1.02,6.84
15.27034616470337,-0.76,-6.88,0.43,6.93
15.279806137084961,-1.73,-6.81,-0.51,7.04
15.289730072021484,-3.01,-6.76,-1.53,7.55
15.300403118133545,-4.33,-6.61,-2.97,8.44
15.309875011444092,-5.72,-5.89,-4.45,9.33
15.353876113891602,-6.87,-4.81,-5.24,9.88
15.354140043258667,-7.02,-3.69,-5.49,9.64
15.354398012161255,-6.95,-2.53,-5.95,9.49
15.354655027389526,-7.17,-1.54,-6.54,9.82
15.359612941741943,-7.55,-0.89,-7.22,10.48
15.370185852050781,-8.62,0.01,-8.15,11.86
15.379662990570068,-10.43,1.14,-9.71,14.29
15.389618873596191,-11.88,1.52,-10.42,15.87
15.400318145751953,-11.68,1.03,-9.8,15.28
15.4095778465271,-9.75,0.16,-9.34,13.5
15.454277992248535,-7.76,-0.79,-8.87,11.81
15.454540967941284,-7.57,0.71,-7.67,10.79
15.454799175262451,-6.23,4.52,-5.79,9.63
15.455055952072144,1.04,-1.62,-5.63,5.95
15.459475040435791,12.53,11.48,12.86,21.31
15.46993899345398,26.05,17.39,28.42,42.29
15.47939682006836,8.61,14.42,-6.88,18.14
15.489490032196045,-6.21,7.0,-7.71,12.12
15.5001859664917,-10.95,-4.31,3.58,12.3
15.509591102600098,-14.88,-4.82,1.16,15.68
15.55455493927002,-12.18,-4.79,-2.25,13.28
15.554826021194458,-8.38,-2.62,-5.78,10.51
15.555086135864258,-5.77,-0.23,-7.57,9.52
15.555356979370117,-3.04,1.66,-5.68,6.65
15.559314966201782,-1.46,1.54,-3.89,4.43
15.569797039031982,0.7,0.45,-4.26,4.34
15.579211950302124,2.22,0.23,-4.72,5.22
15.589261054992676,1.4,0.45,-3.76,4.03
15.60000205039978,-0.46,0.67,-2.25,2.39
15.609310150146484,-1.54,0.5,-1.05,1.92
15.655301094055176,-1.35,0.42,-0.53,1.5
15.655569076538086,-0.98,0.29,-0.43,1.1
15.655828952789307,-1.13,0.15,-0.47,1.23
15.65609097480774,-1.38,0.03,-0.85,1.62
15.659183025360107,-1.3,-0.22,-0.87,1.57
15.669711112976074,-0.88,-0.3,-0.73,1.18
15.67910099029541,-0.57,-0.16,-0.59,0.83
15.689166069030762,-0.52,0.01,-0.63,0.81
15.699891090393066,-0.55,0.0,-0.6,0.81
15.70918893814087,-0.49,-0.09,-0.29,0.57
15.755293846130371,-0.23,-0.06,0.06,0.24
15.755559921264648,0.18,0.0,0.47,0.5
15.755821943283081,0.64,0.1,0.82,1.04
15.75608205795288,1.1,0.19,1.06,1.53
15.758965015411377,1.39,0.25,0.9,1.67
15.76954984664917,1.33,0.3,0.45,1.43
15.779025077819824,0.79,0.24,0.22,0.85
15.789046049118042,0.31,0.03,0.17,0.35
15.79974889755249,0.23,-0.02,0.59,0.63
15.809026002883911,0.4,0.08,1.04,1.11
15.85527515411377,0.63,0.19,1.19,1.35
15.855535984039307,0.7,0.14,1.31,1.49
15.855797052383423,0.87,-0.06,1.4,1.64
15.856057167053223,1.63,-0.2,1.27,2.07
15.858865022659302,2.37,-0.21,1.09,2.61
15.86943006515503,2.54,-0.05,1.27,2.84
15.878890991210938,2.54,0.22,1.43,2.92
15.88887095451355,2.5,0.32,1.41,2.88
15.899811029434204,2.45,0.18,2.11,3.23
15.908902168273926,2.63,0.3,2.46,3.61
15.955781936645508,2.67,1.02,1.99,3.48
15.956045150756836,1.99,1.59,1.46,2.93
15.956300973892212,1.24,1.91,1.13,2.54
15.956555843353271,1.18,2.43,1.28,2.98
15.958693027496338,1.48,2.76,2.05,3.74
15.96932601928711,1.52,3.07,2.6,4.3
15.979061126708984,2.49,3.29,2.7,4.93
15.988716125488281,3.06,3.39,3.12,5.53
15.99946117401123,3.28,3.38,3.53,5.88
16.008695125579834,3.44,4.17,3.67,6.53
16.05606198310852,3.62,6.91,2.65,8.23
16.056321144104004,5.12,9.41,3.12,11.15
16.056581020355225,4.87,10.03,5.23,12.31
16.056840896606445,3.96,10.71,7.19,13.49
16.05854892730713,4.81,11.73,8.49,15.25
16.06918501853943,5.63,12.27,8.29,15.84
16.078857898712158,5.33,11.22,7.39,14.45
16.088522911071777,5.59,9.26,3.84,11.47
16.099298000335693,7.21,7.81,-2.26,10.86
16.108581066131592,6.73,9.63,-5.91,13.15
16.156494140625,0.02,14.14,-5.18,15.05
16.156755924224854,-4.65,13.53,-3.51,14.73
16.157017946243286,-1.15,7.45,-1.23,7.63
16.157279014587402,1.83,2.41,2.55,3.95
16.15845489501953,-2.96,1.73,-0.1,3.42
16.16896390914917,-5.28,3.39,-6.2,8.82
16.1788330078125,0.29,5.88,-1.64,6.11
16.188425064086914,5.39,4.47,2.53,7.44
16.199129104614258,8.57,2.48,2.87,9.37
16.20841407775879,7.71,1.47,2.29,8.17
16.256728172302246,5.79,0.48,1.43,5.98
16.256991863250732,5.08,-0.76,0.84,5.2
16.257253170013428,4.51,-1.54,0.78,4.82
16.25751495361328,3.78,-1.86,0.97,4.32
16.258209943771362,3.13,-2.08,1.54,4.06
16.26884412765503,2.43,-2.43,1.9,3.92
16.27821683883667,1.8,-2.91,1.81,3.87
16.288381099700928,1.38,-3.28,1.51,3.86
16.299059867858887,1.35,-3.37,1.23,3.83
16.308238983154297,1.54,-3.23,1.1,3.74
16.357967853546143,1.74,-3.13,0.77,3.66
16.358235836029053,2.07,-3.15,0.58,3.81
16.35849404335022,2.19,-3.48,0.56,4.14
16.358749866485596,2.18,-3.94,0.57,4.53
16.359006881713867,2.08,-4.65,0.71,5.14
16.368640899658203,1.85,-5.49,0.89,5.86
16.378278970718384,1.64,-6.1,0.84,6.37
16.388163089752197,1.29,-6.64,0.74,6.8
16.398844003677368,0.78,-7.15,0.61,7.21
16.408107042312622,0.31,-7.51,0.76,7.55
16.45736002922058,-0.31,-7.74,0.6,7.76
16.457778930664062,-1.26,-7.68,-0.25,7.78
16.458039045333862,-2.59,-7.55,-1.84,8.19
16.45829486846924,-4.16,-7.44,-3.07,9.06
16.458549976348877,-5.58,-6.78,-4.54,9.88
16.468531131744385,-6.04,-5.24,-5.65,9.79
16.478019952774048,-5.83,-3.59,-6.2,9.23
16.488001823425293,-6.08,-1.98,-6.89,9.39
16.498711109161377,-7.7,-0.44,-7.58,10.81
16.507938861846924,-10.11,0.73,-8.66,13.33
16.561039924621582,-12.01,1.33,-9.52,15.38
16.56133198738098,-12.98,1.39,-10.08,16.49
16.56159496307373,-12.37,1.23,-9.65,15.73
16.561898946762085,-10.47,1.16,-8.78,13.71
16.562498092651367,-8.71,0.69,-8.15,11.94
16.568444967269897,-8.31,2.31,-7.57,11.47
16.577922821044922,-4.29,4.66,-5.97,8.7
16.58787202835083,2.77,-4.37,-7.04,8.73
16.59843897819519,18.46,12.8,14.52,26.74
16.608144998550415,37.01,27.05,31.5,55.62
16.65813899040222,6.66,20.07,-9.15,23.04
16.658408164978027,-10.4,-0.1,-4.02,11.15
16.65866994857788,-17.12,-8.47,3.91,19.49
16.6589298248291,-21.69,-5.12,-2.68,22.44
16.6591899394989,-19.12,-1.35,-4.45,19.67
16.6682071685791,-12.7,-0.27,-7.04,14.52
16.677695989608765,-5.91,0.18,-6.73,8.95
16.68766689300537,-1.89,1.18,-4.77,5.26
16.698325157165527,-0.22,0.18,-4.44,4.44
16.707695960998535,2.25,-0.14,-4.91,5.4
16.758995056152344,3.88,0.6,-4.16,5.72
16.759263038635254,3.03,1.41,-2.92,4.43
16.759522914886475,0.61,1.14,-2.14,2.5
16.759779930114746,-1.41,0.31,-1.3,1.94
16.760036945343018,-2.01,-0.12,-0.37,2.04
16.768056869506836,-1.67,-0.25,0.24,1.7
16.777493953704834,-1.13,-0.25,0.33,1.2
16.787544012069702,-0.92,-0.26,0.07,0.95
16.79825210571289,-0.61,-0.25,-0.09,0.66
16.807575941085815,-0.11,-0.13,-0.17,0.24
16.86014413833618,0.11,0.06,-0.28,0.3
16.860394954681396,0.11,0.07,-0.6,0.61
16.860654830932617,0.09,0.01,-0.87,0.87
16.8609139919281,0.01,-0.01,-0.72,0.72
16.861173152923584,-0.23,-0.05,-0.34,0.41
16.867897033691406,-0.47,-0.03,0.09,0.47
16.87741994857788,-0.46,0.05,0.66,0.8
16.887413024902344,0.12,0.22,1.01,1.04
16.89804697036743,0.87,0.36,0.76,1.21
16.907413005828857,1.07,0.38,0.64,1.3
16.960082054138184,0.95,0.21,0.74,1.22
16.960345029830933,1.0,0.0,0.93,1.36
16.960607051849365,1.25,-0.13,1.28,1.79
16.960870027542114,1.5,-0.18,1.76,2.31
16.96112895011902,1.67,-0.27,1.96,2.58
16.967811107635498,1.73,-0.35,1.58,2.36
16.97734498977661,1.67,-0.34,1.28,2.13
16.987226009368896,1.5,-0.13,0.82,1.71
16.99780511856079,1.25,0.35,0.33,1.33
17.007248878479004,1.06,0.72,0.06,1.28
17.059946060180664,0.94,0.76,0.14,1.21
17.06019115447998,0.94,0.46,1.13,1.54
17.06044912338257,1.25,0.29,2.06,2.42
17.060707092285156,1.64,0.35,2.29,2.83
17.06096315383911,1.55,0.5,1.84,2.45
17.067615032196045,1.3,0.82,1.24,1.97
17.077139854431152,1.16,1.23,0.97,1.94
17.087162971496582,1.33,1.73,0.8,2.32
17.097578048706055,1.3,2.23,1.2,2.84
17.107102870941162,1.46,2.3,1.61,3.16
17.160022020339966,1.96,2.4,1.86,3.61
17.16028594970703,2.3,2.3,2.31,3.98
17.160547018051147,2.55,2.43,2.55,4.34
17.160804986953735,2.68,3.04,2.69,4.86
17.161062955856323,2.94,4.66,2.42,6.01
17.167407035827637,4.01,6.48,2.69,8.08
17.177073001861572,4.5,7.25,4.09,9.46
17.186920166015625,4.17,7.96,5.43,10.49
17.19753885269165,4.59,8.9,7.15,12.3
17.207062005996704,5.34,9.71,8.03,13.68
17.26060390472412,5.54,9.83,8.32,14.01
17.26086711883545,4.72,9.33,8.29,13.34
17.261126041412354,4.24,8.52,6.38,11.45
17.261381149291992,4.66,7.67,1.54,9.1
17.261623859405518,5.12,7.67,-3.41,9.83
17.267314910888672,2.3,11.75,-5.71,13.26
17.276906967163086,-3.6,14.66,-1.96,15.22
17.28681182861328,-3.56,11.79,0.1,12.31
17.29730796813965,0.9,7.3,-0.23,7.35
17.306807041168213,2.16,3.56,1.6,4.46
17.361019134521484,-2.58,2.27,0.07,3.43
17.361286163330078,-5.21,3.74,-6.18,8.9
17.361557006835938,-0.03,6.91,-2.96,7.51
17.361815929412842,5.19,5.71,2.18,8.01
17.36207604408264,8.94,2.59,3.72,10.02
17.367199897766113,8.63,0.91,3.25,9.26
17.37659001350403,5.89,-0.11,2.36,6.34
17.386642932891846,4.04,-0.8,2.37,4.75
17.397318840026855,2.39,-0.98,2.18,3.38
17.406687021255493,0.98,-1.07,1.72,2.25
17.461660861968994,-0.22,-1.36,1.67,2.16
17.46192216873169,-0.73,-1.57,1.57,2.33
17.462181091308594,-0.55,-1.91,1.43,2.44
17.46243906021118,0.1,-2.32,1.51,2.76
17.463011980056763,1.08,-2.65,1.54,3.24
17.466894149780273,1.86,-2.95,1.53,3.8
17.476447105407715,2.01,-3.17,1.42,4.01
17.486438989639282,1.83,-3.39,1.3,4.06
17.497385025024414,1.42,-3.91,1.27,4.34
17.506520986557007,0.91,-4.75,1.17,4.97
17.56210708618164,0.5,-5.75,1.18,5.89
17.562355041503906,0.31,-6.66,1.18,6.77
17.56261897087097,0.27,-7.43,1.31,7.54
17.56322717666626,0.36,-8.11,1.76,8.3
17.563486099243164,0.14,-8.41,1.82,8.6
17.566845893859863,-0.39,-8.35,1.43,8.48
17.576347827911377,-0.82,-8.29,0.77,8.36
17.586381912231445,-1.38,-7.8,0.1,7.92
17.644876956939697,-2.37,-7.08,-1.27,7.57
17.64514398574829,-3.8,-6.08,-3.23,7.86
17.64540195465088,-5.44,-4.96,-5.45,9.15
17.645681858062744,-6.89,-3.88,-7.07,10.6
17.6461181640625,-7.67,-2.93,-7.33,11.0
17.646739959716797,-8.4,-2.1,-7.36,11.36
17.6561861038208,-9.14,-1.19,-8.01,12.21
17.666826009750366,-9.62,-0.57,-9.26,13.36
17.676159858703613,-9.17,-0.88,-9.85,13.48
17.686293125152588,-8.23,-1.2,-9.27,12.45
17.74674415588379,-7.77,-1.1,-9.01,11.94
17.747009992599487,-7.76,-1.34,-9.13,12.05
17.74729299545288,-7.9,-1.72,-9.25,12.28
17.747550010681152,-8.3,0.0,-9.9,12.91
17.747809886932373,-7.37,7.07,-7.32,12.56
17.74808096885681,3.3,2.46,-2.85,5.0
17.756139993667603,26.47,17.4,27.66,42.05
17.766610145568848,23.89,23.44,14.53,36.48
17.776084899902344,1.78,12.46,-16.83,21.01
17.786069869995117,-4.93,-1.11,-1.82,5.37
17.846235990524292,-12.04,-4.77,3.96,13.54
17.846506118774414,-15.89,-2.9,-1.5,16.22
17.846765995025635,-11.76,-2.31,-5.02,12.99
17.847025871276855,-8.7,-0.54,-7.19,11.29
17.847300052642822,-5.26,0.46,-5.83,7.86
17.847558975219727,-1.98,1.34,-3.89,4.56
17.855901956558228,0.23,0.26,-3.01,3.02
17.866458892822266,2.78,-0.1,-2.82,3.96
17.87596607208252,3.49,0.62,-2.84,4.54
17.885963916778564,0.58,0.98,-2.52,2.76
17.94685411453247,-1.74,0.63,-2.43,3.05
17.94711208343506,-2.14,0.4,-2.14,3.05
17.947386980056763,-1.7,0.3,-1.12,2.05
17.947643995285034,-1.36,0.08,-0.63,1.5
17.94790005683899,-1.27,-0.07,-0.83,1.51
17.9481680393219,-1.0,-0.16,-0.97,1.4
17.955790042877197,-0.59,-0.2,-0.68,0.92
17.96636199951172,-0.43,-0.09,-0.42,0.6
17.975831985473633,-0.42,-0.02,-0.24,0.48
17.985777854919434,-0.39,0.06,-0.08,0.4
18.04652214050293,-0.11,0.07,-0.04,0.13
18.047893047332764,0.16,0.0,-0.02,0.16
18.048162937164307,0.23,0.02,0.31,0.38
18.048405170440674,0.47,0.02,0.67,0.81
18.04867196083069,0.93,0.06,0.71,1.17
18.048928022384644,1.25,0.25,0.64,1.42
18.055613040924072,1.24,0.28,0.74,1.47
18.067177057266235,1.07,0.21,0.83,1.37
18.075626850128174,1.04,0.22,0.81,1.33
18.085628986358643,0.99,0.2,0.82,1.3
18.096263885498047,0.84,0.22,1.05,1.36
18.14736294746399,0.57,0.16,1.14,1.28
18.14762592315674,0.25,-0.01,1.25,1.27
18.147889137268066,0.27,-0.27,1.39,1.44
18.14815402030945,0.68,-0.4,1.23,1.46
18.148417949676514,1.06,-0.19,0.78,1.32
18.155428886413574,1.28,0.16,0.59,1.41
18.166093826293945,1.5,0.42,0.76,1.73
18.175507068634033,1.79,0.49,0.86,2.04
18.185574054718018,2.08,0.24,1.75,2.72
18.196172952651978,2.2,0.15,2.34,3.21
18.247705936431885,2.06,0.42,1.85,2.8
18.247975826263428,1.44,0.88,1.26,2.1
18.248235940933228,0.62,1.48,1.22,2.01
18.24849510192871,0.63,1.88,1.32,2.38
18.2487530708313,1.19,2.29,1.71,3.09
18.255319118499756,1.73,2.41,1.91,3.52
18.265961170196533,2.05,2.6,1.9,3.81
18.27534008026123,2.09,2.65,2.02,3.93
18.2853741645813,2.0,2.64,2.19,3.97
18.29601502418518,1.98,2.72,2.37,4.11
18.348222017288208,2.06,3.36,2.71,4.78
18.34849786758423,2.42,5.37,2.75,6.5
18.34875798225403,4.3,7.65,3.7,9.52
18.3490149974823,5.83,8.38,5.96,11.82
18.349277019500732,6.39,9.09,7.11,13.19
18.355146884918213,6.73,10.0,7.99,14.46
18.36574101448059,5.83,10.52,8.87,14.94
18.375332832336426,4.09,9.92,9.75,14.49
18.385130882263184,2.96,8.56,7.89,12.01
18.395834922790527,3.59,6.72,1.94,7.86
18.44843292236328,5.47,6.73,-4.3,9.68
18.44870615005493,3.12,11.32,-6.39,13.36
18.44896697998047,-2.97,14.67,-2.02,15.1
18.4492290019989,-3.3,12.26,0.93,12.73
18.449493885040283,0.9,7.81,-0.69,7.89
18.455001831054688,2.32,4.4,0.18,4.97
18.4658420085907,-1.36,2.71,0.61,3.09
18.474971055984497,-5.24,2.88,-5.1,7.85
18.484946966171265,-1.51,6.19,-4.48,7.78
18.495737075805664,3.67,6.43,0.71,7.43
18.54893398284912,7.27,3.46,2.9,8.55
18.549195051193237,8.57,1.17,3.19,9.21
18.54945182800293,7.41,0.07,2.63,7.86
18.549707889556885,6.18,-0.83,2.26,6.63
18.549965858459473,4.84,-1.58,2.59,5.71
18.55487298965454,3.25,-1.91,2.26,4.39
18.565348148345947,1.76,-2.0,1.86,3.24
18.574821949005127,0.36,-2.15,1.86,2.86
18.584919929504395,-0.19,-2.21,1.8,2.85
18.59550404548645,0.06,-2.4,1.79,2.99
18.64985990524292,0.63,-2.72,1.51,3.17
18.650120973587036,1.32,-2.78,1.1,3.26
18.650378942489624,1.57,-2.9,0.88,3.41
18.650639057159424,1.54,-3.1,0.47,3.49
18.650938987731934,1.3,-3.43,0.32,3.68
18.654816150665283,0.94,-3.91,0.37,4.03
18.66515302658081,0.51,-4.67,0.48,4.72
18.674731016159058,0.08,-5.57,0.69,5.61
18.68472695350647,-0.13,-6.41,0.9,6.47
18.69542694091797,-0.08,-7.11,0.94,7.17
18.749732971191406,-0.44,-7.44,0.82,7.49
18.750004053115845,-0.9,-7.39,0.35,7.45
18.750269889831543,-1.64,-7.12,-0.46,7.32
18.75052785873413,-2.53,-6.79,-1.74,7.45
18.750790119171143,-3.35,-6.22,-2.81,7.6
18.75452184677124,-4.36,-5.47,-4.21,8.16
18.7650408744812,-5.82,-4.41,-5.71,9.26
18.774706840515137,-6.45,-3.36,-6.56,9.79
18.78479814529419,-6.42,-2.25,-7.15,9.86
18.795323848724365,-6.9,-1.1,-8.25,10.81
18.850181102752686,-7.92,-0.38,-9.51,12.38
18.850446939468384,-9.01,-0.3,-10.16,13.58
18.8507080078125,-9.73,-0.66,-10.29,14.17
18.85096502304077,-9.4,-0.91,-9.85,13.64
18.851222038269043,-8.37,-0.98,-9.57,12.75
18.854360103607178,-7.77,-1.0,-9.5,12.31
18.864973068237305,-7.62,-1.2,-9.32,12.09
18.874393939971924,-7.75,4.46,-8.54,12.36
18.88440990447998,-1.15,2.01,-5.46,5.93
18.895092964172363,5.85,4.28,1.73,7.45
18.950953006744385,21.4,18.14,33.03,43.33
18.95122504234314,16.33,16.46,6.43,24.06
18.95148992538452,-0.26,8.63,-15.06,17.35
18.951751947402954,-8.49,0.22,1.4,8.6
18.952012062072754,-15.44,-2.84,0.38,15.7
18.954229831695557,-13.43,-2.96,-1.46,13.82
18.96508502960205,-10.15,-1.97,-2.06,10.54
18.974308013916016,-7.71,-2.51,-6.69,10.51
18.98436212539673,-4.18,-0.33,-7.12,8.26
18.995028018951416,-2.86,0.69,-4.55,5.41
19.0513858795166,-1.29,0.32,-3.78,4.0
19.05165195465088,1.65,0.61,-4.21,4.56
19.051910877227783,3.2,1.25,-3.61,4.98
19.052170038223267,1.96,1.49,-2.21,3.3
19.052438020706177,-0.35,0.88,-2.08,2.28
19.054162979125977,-1.6,0.28,-2.77,3.21
19.065040111541748,-1.76,0.09,-2.0,2.66
19.074156999588013,-1.2,-0.1,-0.41,1.27
19.084195137023926,-0.69,-0.07,-0.28,0.74
19.094790935516357,-0.6,-0.04,-0.73,0.94
19.151625156402588,-0.77,-0.06,-0.72,1.05
19.151885986328125,-0.74,-0.05,-0.47,0.87
19.152145862579346,-0.56,0.0,-0.32,0.64
19.152408123016357,-0.49,-0.02,-0.14,0.51
19.152668952941895,-0.47,-0.09,-0.03,0.47
19.154024124145508,-0.3,-0.11,0.22,0.38
19.16486096382141,-0.07,-0.06,0.46,0.46
19.173969984054565,0.16,0.04,0.69,0.7
19.18402099609375,0.57,0.1,1.04,1.19
19.194772958755493,1.31,0.13,1.16,1.75
19.252070903778076,1.7,0.23,0.92,1.94
19.252334117889404,1.54,0.29,0.72,1.72
19.252574920654297,1.19,0.19,0.72,1.4
19.252830982208252,0.92,0.04,0.84,1.24
19.253093004226685,0.89,-0.02,1.4,1.65
19.253862857818604,1.17,-0.01,1.67,2.03
19.264677047729492,1.29,-0.03,1.79,2.2
19.273828983306885,1.1,-0.07,1.7,2.02
19.28379487991333,1.04,-0.1,1.46,1.79
19.294497966766357,1.21,-0.01,1.11,1.64
19.351827144622803,1.54,0.09,0.66,1.67
19.352087020874023,1.67,0.15,0.52,1.75
19.35234308242798,1.53,0.16,0.65,1.67
19.352601051330566,1.44,0.28,0.83,1.68
19.35285711288452,1.35,0.46,0.95,1.71
19.353744983673096,1.14,0.64,1.02,1.65
19.364524841308594,0.95,0.94,1.48,1.99
19.373852968215942,1.0,1.39,1.57,2.32
19.38375997543335,1.22,1.98,1.43,2.73
19.394397020339966,0.91,2.56,1.82,3.27
19.452173948287964,1.15,2.82,2.05,3.67
19.452436923980713,1.63,2.99,1.95,3.92
19.452701091766357,2.0,2.95,2.07,4.12
19.45295810699463,2.36,3.14,2.14,4.47
19.453253030776978,2.53,3.36,2.45,4.86
19.453959941864014,2.58,3.92,2.84,5.48
19.46440887451172,2.9,5.67,3.03,7.05
19.473562955856323,4.56,7.65,3.6,9.6
19.483530044555664,6.27,8.11,5.54,11.65
19.494241952896118,6.65,8.34,6.3,12.38
19.553231954574585,6.91,9.39,6.57,13.38
19.55350112915039,6.74,10.47,7.21,14.38
19.55375909805298,6.12,10.62,7.79,14.52
19.554013967514038,5.46,9.3,6.86,12.78
19.554272174835205,4.76,7.75,2.01,9.31
19.55452799797058,3.56,7.3,-3.98,9.04
19.56387495994568,0.39,10.71,-8.32,13.56
19.573495864868164,-4.48,14.95,-4.1,16.13
19.583518028259277,-4.26,13.39,1.59,14.14
19.594122886657715,0.66,8.33,0.35,8.36
19.653481006622314,2.39,3.71,-0.34,4.42
19.65374994277954,-0.78,0.92,0.51,1.3
19.65401005744934,-4.78,1.11,-4.11,6.4
19.654279947280884,-1.64,4.94,-3.73,6.4
19.654542922973633,3.59,6.02,1.4,7.14
19.65479803085327,7.17,3.25,4.19,8.91
19.66382598876953,8.22,0.72,5.43,9.87
19.673285961151123,6.96,-0.42,4.33,8.2
19.683274030685425,5.9,-0.86,3.03,6.68
19.693969011306763,4.65,-1.15,2.46,5.38
19.754252910614014,3.14,-1.23,2.04,3.94
19.754518032073975,2.03,-1.26,2.13,3.2
19.75477886199951,1.1,-1.53,2.54,3.16
19.75502300262451,0.27,-1.84,2.54,3.14
19.755280017852783,-0.42,-2.12,1.91,2.88
19.75553798675537,-0.49,-2.32,1.33,2.71
19.76367998123169,-0.2,-2.37,1.09,2.61
19.773097038269043,0.05,-2.25,0.51,2.3
19.78319215774536,0.25,-2.31,-0.08,2.32
19.79377794265747,0.17,-2.74,-0.18,2.75
19.854601860046387,-0.49,-3.16,-0.57,3.24
19.854863166809082,-1.07,-3.78,-0.9,4.03
19.855122089385986,-1.24,-4.64,-0.38,4.81
19.855381965637207,-1.2,-5.32,-0.06,5.45
19.855637073516846,-1.03,-5.84,-0.01,5.93
19.8558931350708,-1.17,-6.19,-0.08,6.3
19.863433837890625,-1.4,-6.27,-0.34,6.43
19.872948169708252,-1.54,-6.23,-1.31,6.54
19.883036136627197,-2.16,-6.21,-1.58,6.76
19.89357900619507,-3.02,-5.98,-1.36,6.83
19.95488214492798,-3.73,-5.33,-2.05,6.82
19.955161094665527,-4.27,-4.53,-3.3,7.04
19.955430030822754,-5.04,-4.01,-4.73,7.99
19.955689907073975,-6.27,-3.58,-6.25,9.54
19.955947875976562,-7.8,-3.23,-7.57,11.33
19.9562029838562,-9.02,-2.89,-8.92,13.01
19.963330030441284,-9.47,-2.6,-9.57,13.71
19.97284197807312,-9.69,-2.7,-9.65,13.93
19.982802867889404,-9.64,-2.76,-9.68,13.93
19.993328094482422,-8.89,-2.58,-9.16,13.02
20.05587387084961,-7.91,-2.37,-8.48,11.83
20.056146144866943,-7.25,-2.18,-8.05,11.05
20.05640411376953,-7.18,-2.36,-7.6,10.71
20.05666208267212,-8.16,0.73,-7.55,11.14
20.056918144226074,-4.25,4.31,-5.31,8.05
20.05717396736145,4.51,2.56,-1.22,5.32
20.063173055648804,21.42,18.84,29.08,40.73
20.072682857513428,21.87,21.35,10.28,32.24
20.08262300491333,3.75,13.01,-18.59,22.99
20.093297958374023,-2.75,-0.93,0.89,3.03
20.15623903274536,-14.49,-5.29,1.1,15.46
20.15650200843811,-15.45,-4.97,-3.25,16.55
20.156764030456543,-11.84,-2.1,-3.53,12.53
20.15703296661377,-10.69,-1.94,-7.3,13.08
20.157297134399414,-6.84,0.7,-6.05,9.15
20.157554149627686,-3.43,0.91,-3.35,4.88
20.163075923919678,0.53,-0.04,-3.54,3.57
20.17258310317993,3.49,0.61,-3.51,4.98
20.182395935058594,4.0,1.3,-2.15,4.72
20.193166971206665,1.32,1.34,-1.81,2.61
20.257225036621094,-1.72,0.65,-2.9,3.43
20.257490158081055,-2.89,0.0,-3.39,4.45
20.257750034332275,-2.62,0.02,-1.93,3.25
20.25801706314087,-1.57,-0.02,-0.21,1.58
20.258278846740723,-0.64,-0.08,0.11,0.65
20.258540153503418,0.01,-0.16,-0.49,0.51
20.262832164764404,0.21,-0.17,-1.0,1.03
20.27235698699951,0.18,-0.02,-0.78,0.8
20.282270908355713,0.01,0.06,-0.4,0.4
20.293020009994507,-0.34,0.04,-0.06,0.34
20.357398986816406,-0.68,-0.1,0.15,0.7
20.35766315460205,-0.67,-0.18,0.23,0.73
20.35793113708496,-0.31,-0.13,0.14,0.36
20.358188152313232,0.17,0.01,0.05,0.17
20.358448028564453,0.62,0.09,0.2,0.65
20.358704090118408,1.01,0.17,0.42,1.1
20.362690925598145,1.22,0.31,0.56,1.37
20.372156143188477,1.13,0.33,0.71,1.37
20.38213801383972,0.74,0.23,0.78,1.09
20.3928439617157,0.18,0.04,0.86,0.87
20.457826137542725,-0.1,-0.11,0.9,0.91
20.458073139190674,0.03,-0.06,0.9,0.9
20.45832896232605,0.5,-0.01,0.86,0.99
20.45858597755432,1.1,0.03,1.16,1.59
20.45884084701538,1.83,-0.02,1.32,2.25
20.459096908569336,2.61,-0.06,1.23,2.88
20.462527990341187,2.96,0.02,1.25,3.21
20.472010135650635,2.65,0.06,1.57,3.08
20.482091903686523,2.33,0.06,1.94,3.03
20.492655038833618,2.45,0.06,1.84,3.06
20.55757188796997,2.26,-0.01,1.46,2.69
20.5578351020813,1.51,0.01,1.47,2.1
20.55809783935547,0.9,0.23,1.29,1.58
20.55835485458374,0.67,0.58,1.07,1.38
20.558610916137695,0.78,1.06,0.87,1.57
20.558871030807495,0.97,1.32,0.89,1.86
20.56240701675415,1.33,1.72,0.97,2.38
20.57191300392151,1.7,2.29,1.37,3.16
20.58207416534424,1.93,2.71,1.6,3.69
20.59256100654602,1.52,3.01,1.87,3.85
20.65773105621338,1.58,3.16,2.07,4.09
20.657991886138916,1.63,3.08,2.47,4.27
20.65825891494751,1.89,3.28,2.82,4.72
20.658516883850098,1.94,4.26,3.32,5.73
20.65878200531006,2.22,7.14,3.01,8.06
20.65903902053833,5.11,9.53,4.12,11.57
20.662536144256592,6.67,9.66,6.55,13.44
20.67186212539673,6.37,10.04,6.78,13.68
20.682063102722168,6.52,10.8,7.25,14.55
20.692492961883545,5.82,11.01,7.98,14.79
20.758739948272705,4.62,10.37,7.83,13.79
20.759007930755615,4.06,9.04,5.16,11.17
20.75927209854126,4.72,7.65,-0.99,9.04
20.75952911376953,5.56,8.31,-6.42,11.88
20.759786128997803,1.66,12.87,-6.66,14.58
20.76004409790039,-4.13,14.43,-1.54,15.08
20.76210904121399,-2.23,10.45,-1.17,10.74
20.771638870239258,1.85,5.59,-1.41,6.05
20.781600952148438,1.21,1.86,0.79,2.35
20.79230499267578,-3.37,0.46,-1.98,3.93
20.85978412628174,-2.45,2.85,-4.94,6.2
20.860049962997437,3.06,5.16,-0.56,6.02
20.860310077667236,7.32,3.31,2.29,8.35
20.860567092895508,9.55,1.05,3.07,10.08
20.86084508895874,8.64,-0.31,3.19,9.21
20.86128807067871,6.81,-1.29,2.59,7.39
20.862064838409424,5.47,-1.92,1.99,6.12
20.871525049209595,4.06,-2.22,1.92,5.0
20.88146209716797,2.97,-2.6,2.39,4.61
20.892207145690918,2.11,-3.12,2.86,4.72
20.959590911865234,1.47,-3.56,2.76,4.73
20.95986294746399,1.09,-3.77,2.63,4.72
20.960121154785156,0.96,-3.59,2.12,4.27
20.960383892059326,0.69,-3.02,1.31,3.36
20.960659980773926,0.3,-2.3,0.22,2.32
20.96093201637268,0.07,-1.91,-0.35,1.94
20.961874961853027,0.01,-2.03,-0.26,2.04
20.971367835998535,0.26,-2.52,-0.12,2.53
20.981343030929565,0.39,-3.24,0.08,3.26
20.99195694923401,-0.25,-3.73,-0.24,3.74
21.06003499031067,-0.98,-4.39,-0.78,4.56
21.06030297279358,-1.48,-4.99,-1.17,5.33
21.060597896575928,-2.12,-5.5,-1.7,6.13
21.06103205680847,-2.74,-5.99,-2.13,6.92
21.06129217147827,-3.02,-6.26,-1.6,7.13
21.061552047729492,-3.14,-6.48,-1.05,7.27
21.06236982345581,-3.55,-6.33,-1.39,7.38
21.071200847625732,-4.27,-5.89,-1.99,7.54
21.081274032592773,-4.81,-5.1,-2.93,7.59
21.091840028762817,-5.0,-4.25,-4.08,7.72
21.160907983779907,-5.44,-3.51,-5.31,8.37
21.161221027374268,-6.53,-2.78,-6.59,9.68
21.161545038223267,-8.19,-2.08,-7.8,11.49
21.16185188293457,-10.37,-1.38,-8.89,13.72
21.162147998809814,-12.43,-0.89,-9.64,15.75
21.162417888641357,-12.96,-1.1,-9.29,15.98
21.163215160369873,-11.87,-1.6,-8.39,14.62
21.170949935913086,-10.04,-1.59,-8.21,13.06
21.180942058563232,-8.56,-1.17,-7.97,11.75
21.191746950149536,-8.23,-1.9,-7.29,11.15
21.261291980743408,-9.53,2.65,-7.26,12.26
21.261559009552002,-4.86,1.9,-5.6,7.65
21.26181697845459,9.37,1.62,2.11,9.74
21.262075901031494,32.4,18.52,31.13,48.59
21.262342929840088,21.93,24.58,4.27,33.21
21.262598991394043,1.94,12.92,-13.8,19.0
21.263391971588135,-7.27,-2.59,-1.52,7.86
21.27086114883423,-18.16,-7.21,-0.21,19.54
21.280823945999146,-19.49,-4.01,0.4,19.9
21.29146385192871,-14.02,-1.68,-4.48,14.81
21.36185598373413,-7.37,-1.23,-6.47,9.88
21.362121105194092,-2.57,0.73,-5.23,5.87
21.362382888793945,-0.64,1.08,-4.23,4.41
21.362643003463745,1.4,0.77,-4.19,4.48
21.36290407180786,3.67,0.94,-3.79,5.35
21.36317491531372,3.16,0.9,-2.53,4.14
21.36395788192749,0.36,0.82,-1.84,2.04
21.37082815170288,-1.77,0.29,-1.52,2.35
21.380701065063477,-2.56,-0.13,-1.11,2.79
21.391368865966797,-2.4,-0.13,-0.13,2.4
21.461788177490234,-2.08,-0.24,0.73,2.21
21.462049961090088,-1.26,-0.29,0.46,1.37
21.46230983734131,-0.49,-0.17,-0.21,0.55
21.462568044662476,0.05,-0.12,-0.65,0.66
21.46280813217163,0.46,-0.13,-0.65,0.8
21.463063955307007,0.74,-0.08,-0.37,0.83
21.463871002197266,0.87,-0.08,-0.23,0.9
21.47057795524597,0.76,-0.01,-0.2,0.78
21.4805588722229,0.42,0.15,0.09,0.45
21.49125909805298,0.16,0.26,0.39,0.49
21.562262058258057,0.21,0.31,0.73,0.82
21.562530994415283,0.65,0.3,0.96,1.19
21.562795162200928,1.27,0.21,1.25,1.79
21.563050031661987,1.81,0.14,1.4,2.29
21.563290119171143,2.05,0.14,1.14,2.34
21.56355094909668,2.02,0.08,1.25,2.37
21.564337015151978,1.88,-0.06,1.83,2.62
21.57042098045349,1.74,-0.36,2.04,2.7
21.58053994178772,1.79,-0.57,1.85,2.63
21.591081142425537,1.83,-0.52,1.48,2.41
21.66240882873535,1.61,-0.26,0.89,1.85
21.662670135498047,1.23,0.07,0.35,1.28
21.662925958633423,0.85,0.32,0.05,0.9
21.663182020187378,0.65,0.42,0.11,0.78
21.663434982299805,0.61,0.45,0.07,0.76
21.66368794441223,0.56,0.4,0.22,0.72
21.664466857910156,0.72,0.36,0.71,1.07
21.670248985290527,1.06,0.4,0.86,1.42
21.68034601211548,1.1,0.5,1.12,1.64
21.690943002700806,1.03,0.71,1.05,1.63
21.762875080108643,1.16,1.12,0.75,1.77
21.763139963150024,1.33,1.7,0.57,2.23
21.763399124145508,1.54,2.14,1.01,2.82
21.76365613937378,1.24,2.0,1.82,2.97
21.763915061950684,1.64,2.04,1.75,3.14
21.764170169830322,1.98,2.4,1.97,3.68
21.76498317718506,2.13,2.52,2.36,4.05
21.770182132720947,2.52,2.87,2.73,4.69
21.780156135559082,2.78,3.78,2.93,5.53
21.79073405265808,3.16,6.2,2.58,7.42
21.863188982009888,5.08,8.63,3.08,10.47
21.863452911376953,6.33,9.16,4.97,12.19
21.863713026046753,5.24,8.87,5.98,11.91
21.86397099494934,4.71,8.98,7.66,12.7
21.86423397064209,5.28,9.63,8.34,13.79
21.864498138427734,5.46,10.06,7.03,13.43
21.865283966064453,4.9,9.72,5.57,12.22
21.869953155517578,5.41,8.72,1.71,10.4
21.879939079284668,6.56,8.39,-2.96,11.05
21.890581130981445,4.38,11.01,-5.33,12.99
21.963937044143677,-2.59,13.88,-4.56,14.83
21.96420383453369,-3.67,11.67,-2.45,12.47
21.964468955993652,1.19,6.66,0.58,6.79
21.964725971221924,3.04,3.09,2.52,5.01
21.964988946914673,-2.19,2.36,-0.34,3.23
21.965245008468628,-3.9,4.12,-4.5,7.24
21.96639585494995,1.06,5.41,-0.11,5.51
21.969901084899902,5.08,3.75,2.44,6.76
21.97985005378723,7.09,2.02,2.7,7.85
21.990483045578003,6.24,0.52,2.67,6.8
22.065462112426758,5.07,-0.81,1.91,5.47
22.065768003463745,4.62,-1.69,1.5,5.14
22.06639289855957,3.97,-2.08,1.56,4.74
22.066655158996582,3.15,-2.29,1.96,4.35
22.066914081573486,2.48,-2.58,2.59,4.41
22.06717300415039,1.94,-2.85,2.86,4.47
22.068042993545532,1.44,-3.04,2.6,4.25
22.06975793838501,1.03,-3.13,2.39,4.07
22.0796959400177,0.85,-3.15,2.11,3.88
22.09038782119751,0.91,-3.0,1.65,3.54
22.164788007736206,0.99,-2.83,1.24,3.24
22.165056943893433,0.83,-2.81,0.8,3.03
22.16532301902771,0.6,-3.12,0.66,3.24
22.16558599472046,0.37,-3.72,0.65,3.79
22.165843963623047,0.11,-4.42,0.72,4.47
22.166460037231445,0.13,-4.94,0.76,4.99
22.167276859283447,-0.03,-5.32,1.04,5.42
22.169458866119385,-0.59,-5.55,1.16,5.7
22.179830074310303,-1.24,-5.71,1.0,5.92
22.190113067626953,-1.93,-5.71,0.51,6.04
22.264222145080566,-3.11,-5.39,-0.78,6.27
22.26448702812195,-4.19,-5.24,-2.09,7.02
22.26474905014038,-4.74,-5.18,-2.48,7.44
22.2650089263916,-4.94,-4.76,-2.33,7.24
22.265273094177246,-5.16,-3.99,-2.71,7.06
22.2655291557312,-5.81,-3.32,-3.96,7.77
22.266662120819092,-6.81,-3.01,-5.45,9.22
22.269434928894043,-7.75,-2.95,-6.05,10.26
22.279405117034912,-8.97,-3.17,-6.3,11.41
22.289978981018066,-9.88,-3.2,-6.63,12.32
22.299381971359253,-10.13,-2.91,-6.88,12.58
22.36439299583435,-9.82,-2.31,-7.21,12.39
22.364657878875732,-9.22,-1.42,-7.67,12.07
22.364917993545532,-8.47,-1.08,-7.35,11.26
22.365177154541016,-8.73,-0.01,-7.2,11.31
22.365439891815186,-7.54,6.17,-5.99,11.43
22.366599082946777,-0.82,-2.74,-7.75,8.26
22.369205951690674,5.43,8.81,-2.29,10.59
22.379804134368896,24.09,26.15,20.28,40.93
22.389851093292236,13.5,22.69,-5.24,26.91
22.399230003356934,1.3,1.85,-5.47,5.91
22.4614520072937,-11.35,-7.62,5.03,14.56
22.461717128753662,-19.55,-6.42,0.35,20.58
22.4619779586792,-16.21,-5.63,-5.07,17.89
22.462236881256104,-10.37,-2.4,-8.06,13.35
22.46249485015869,-7.19,1.26,-5.4,9.07
22.463279008865356,-3.32,2.19,-2.8,4.86
22.469128131866455,0.41,0.97,-2.73,2.92
22.479105949401855,3.32,0.48,-2.97,4.48
22.489802837371826,4.15,0.8,-2.13,4.73
22.499035835266113,2.07,0.89,-1.79,2.87
22.562355995178223,-0.03,0.73,-2.43,2.53
22.56261682510376,-1.34,0.2,-2.77,3.08
22.562883853912354,-2.13,-0.08,-2.11,2.99
22.563143968582153,-2.14,0.0,-0.66,2.23
22.56340503692627,-1.58,-0.05,0.38,1.62
22.564195156097412,-0.79,-0.18,0.25,0.84
22.568928956985474,-0.38,-0.28,-0.5,0.68
22.578918933868408,-0.23,-0.18,-0.98,1.02
22.58959698677063,-0.05,-0.02,-0.62,0.62
22.598852157592773,-0.04,0.01,-0.1,0.1
22.662096977233887,-0.15,-0.03,-0.07,0.16
22.66235899925232,-0.21,-0.04,-0.18,0.27
22.662616968154907,-0.27,0.05,-0.31,0.41
22.66287398338318,-0.03,0.18,-0.33,0.37
22.663130044937134,0.45,0.3,-0.14,0.55
22.66391396522522,0.85,0.37,0.18,0.94
22.668648958206177,1.04,0.42,0.49,1.22
22.678595066070557,1.24,0.41,0.81,1.53
22.68927502632141,1.21,0.3,0.86,1.51
22.698708057403564,0.73,0.23,0.81,1.11
22.762356996536255,0.3,0.11,0.72,0.78
22.76261615753174,0.22,0.0,0.81,0.83
22.762871980667114,0.77,0.01,1.32,1.52
22.763128995895386,1.74,-0.12,1.69,2.42
22.76338505744934,2.54,-0.13,1.61,3.01
22.764184951782227,2.85,0.01,1.48,3.21
22.768573999404907,2.63,0.16,1.26,2.92
22.778568029403687,2.1,0.36,1.13,2.41
22.789129972457886,1.75,0.44,1.05,2.08
22.79855489730835,1.65,0.52,1.08,2.03
22.86227512359619,1.47,0.77,1.01,1.94
22.862534046173096,1.18,0.96,1.03,1.83
22.86279010772705,0.88,0.97,1.02,1.66
22.863044023513794,0.77,1.25,1.17,1.87
22.863298892974854,1.18,1.47,1.58,2.45
22.86407494544983,1.74,1.9,1.75,3.11
22.868402004241943,1.49,2.36,2.41,3.68
22.87841510772705,1.57,2.28,2.42,3.67
22.8890061378479,1.66,2.48,2.36,3.8
22.898406982421875,1.73,2.36,2.31,3.72
22.962061882019043,2.08,2.37,2.24,3.86
22.962324142456055,2.61,2.49,2.26,4.25
22.96259307861328,2.87,2.66,2.46,4.62
22.96285605430603,2.76,3.52,2.79,5.27
22.96311616897583,3.34,5.81,2.69,7.22
22.96388006210327,5.25,7.71,3.83,10.08
22.9682879447937,6.04,8.12,5.4,11.47
22.97829294204712,5.79,8.71,6.01,12.06
22.988912105560303,6.0,9.33,7.73,13.52
22.99827814102173,6.16,9.73,8.4,14.25
23.062935829162598,5.6,9.67,7.05,13.21
23.063210010528564,5.29,9.39,3.67,11.38
23.06346893310547,5.88,9.28,-0.78,11.01
23.063730001449585,5.32,10.52,-3.89,12.41
23.063987970352173,0.99,14.27,-3.05,14.62
23.064823150634766,-1.53,14.57,-0.28,14.65
23.068187952041626,0.38,10.59,0.34,10.6
23.078325986862183,2.06,5.71,0.77,6.11
23.088841915130615,0.68,3.23,2.06,3.89
23.09830093383789,-5.13,2.13,-2.59,6.12
23.163139820098877,-5.76,4.7,-5.7,9.36
23.16340208053589,-0.51,6.42,0.38,6.45
23.16366195678711,3.69,4.13,3.17,6.38
23.163917064666748,5.76,1.87,3.69,7.09
23.164173126220703,5.38,0.45,3.67,6.52
23.164983987808228,5.18,-0.54,3.57,6.31
23.16800594329834,5.0,-1.14,3.57,6.24
23.17806386947632,4.34,-1.4,3.27,5.61
23.188705921173096,3.34,-1.58,3.06,4.79
23.19807195663452,2.47,-1.85,2.99,4.29
23.263088941574097,1.61,-2.03,2.85,3.85
23.263351917266846,0.85,-2.02,2.64,3.43
23.26361083984375,0.42,-2.11,2.55,3.33
23.26386785507202,0.4,-2.34,2.27,3.28
23.264127016067505,0.73,-2.45,1.82,3.13
23.264906883239746,1.02,-2.59,1.58,3.2
23.267848014831543,1.03,-2.87,1.5,3.39
23.277873039245605,0.89,-3.26,1.2,3.58
23.28855299949646,0.54,-3.92,0.82,4.04
23.29805612564087,0.18,-4.74,0.91,4.82
23.363247871398926,-0.11,-5.37,0.92,5.44
23.363508939743042,-0.39,-5.78,0.38,5.8
23.36376714706421,-0.68,-6.15,-0.2,6.19
23.36402416229248,-1.55,-6.55,-0.84,6.78
23.364279985427856,-2.45,-6.84,-1.55,7.42
23.36504101753235,-3.28,-6.67,-1.86,7.66
23.3676700592041,-4.24,-6.13,-2.54,7.87
23.37772297859192,-5.28,-5.17,-4.3,8.54
23.388357162475586,-6.14,-4.07,-6.06,9.53
23.397711992263794,-6.4,-3.32,-6.84,9.93
23.463518142700195,-7.0,-2.75,-7.26,10.45
23.463778972625732,-8.47,-2.26,-8.26,12.04
23.46404504776001,-10.01,-1.99,-9.37,13.85
23.464305877685547,-10.77,-1.71,-9.96,14.76
23.464579105377197,-10.51,-1.33,-10.06,14.6
23.465338945388794,-9.65,-0.81,-9.78,13.76
23.46766495704651,-8.92,-0.64,-9.43,12.99
23.477591037750244,-8.86,-1.11,-8.81,12.54
23.488280057907104,-9.92,4.61,-8.26,13.7
23.497632026672363,-3.49,-0.06,-5.42,6.44
23.56343984603882,1.52,1.08,-4.38,4.76
23.563711166381836,23.62,20.65,31.71,44.6
23.563971996307373,18.29,27.04,4.07,32.89
23.564239978790283,-2.69,16.54,-14.5,22.15
23.56449794769287,-11.53,-5.2,-3.9,13.23
23.565274000167847,-17.53,-8.55,1.69,19.57
23.567708015441895,-16.86,-5.48,0.41,17.73
23.577598094940186,-13.21,-5.56,-7.89,16.36
23.588037967681885,-8.98,-2.23,-10.01,13.63
23.597476959228516,-3.71,1.37,-6.71,7.78
23.663583040237427,1.32,1.06,-4.05,4.38
23.663844108581543,5.35,0.79,-3.78,6.59
23.66410207748413,6.56,1.75,-3.98,7.86
23.66436004638672,3.84,1.56,-2.01,4.6
23.664616107940674,-0.9,0.64,-1.29,1.69
23.665377140045166,-3.02,0.29,-1.91,3.58
23.66753387451172,-3.16,0.28,-2.19,3.85
23.677300930023193,-2.99,0.13,-1.45,3.32
23.687891960144043,-2.52,-0.08,-0.47,2.56
23.69726800918579,-1.61,-0.15,-0.08,1.61
23.7637619972229,-1.01,-0.12,-0.06,1.01
23.764028072357178,-0.99,-0.13,-0.4,1.07
23.764286041259766,-0.86,-0.07,-0.66,1.08
23.76454210281372,-0.47,-0.05,-0.44,0.64
23.764802932739258,-0.01,-0.1,0.2,0.22
23.765594005584717,0.61,-0.11,0.76,0.98
23.76717495918274,1.06,0.04,0.69,1.26
23.77719783782959,0.98,0.33,0.28,1.07
23.787739038467407,0.75,0.44,0.15,0.88
23.797093868255615,0.91,0.36,0.29,1.02
23.863312005996704,1.15,0.25,0.7,1.36
23.863574028015137,1.34,0.16,1.21,1.81
23.863831996917725,1.73,0.11,1.51,2.29
23.86409091949463,2.05,0.14,1.59,2.59
23.864346981048584,1.98,0.17,1.68,2.6
23.86510396003723,1.69,0.1,1.57,2.3
23.867268085479736,1.18,0.06,1.08,1.6
23.87695002555847,0.75,0.11,0.68,1.01
23.887531995773315,0.68,0.28,0.45,0.86
23.897178173065186,1.2,0.64,0.4,1.41
23.96285104751587,1.81,0.96,0.5,2.1
23.963119983673096,2.19,1.0,0.99,2.6
23.963376998901367,2.35,0.9,1.79,3.08
23.96363401412964,2.18,0.95,2.5,3.45
23.963886976242065,1.82,1.27,2.97,3.7
23.964678049087524,1.66,1.53,2.51,3.37
23.9669029712677,1.41,1.95,2.26,3.3
23.977023124694824,1.42,2.13,2.21,3.38
23.98744797706604,1.72,2.25,2.18,3.57
23.99702000617981,2.14,2.28,2.44,3.96
24.06240200996399,2.75,2.38,2.92,4.66
24.062663078308105,3.31,2.74,3.5,5.54
24.06291913986206,3.75,4.26,3.54,6.68
24.063174962997437,5.03,7.17,2.87,9.21
24.06343698501587,7.33,8.43,4.06,11.88
24.064234018325806,7.11,8.49,5.26,12.25
24.066731929779053,6.25,9.22,6.61,12.95
24.076709032058716,5.8,10.06,7.84,14.01
24.08730697631836,5.52,10.43,7.56,14.01
24.096747875213623,5.07,10.03,6.86,13.16
24.1627779006958,4.58,9.01,2.86,10.5
24.163172960281372,4.56,8.48,-2.91,10.05
24.163442134857178,3.48,10.37,-6.74,12.84
24.163700103759766,-1.02,13.67,-4.18,14.33
24.163960933685303,-3.14,12.83,0.54,13.21
24.16476011276245,-0.19,8.68,-0.12,8.68
24.16652011871338,1.36,4.67,0.2,4.86
24.17657494544983,-0.53,2.4,1.73,3.0
24.187182903289795,-4.75,1.97,-3.04,5.97
24.19658899307251,-2.95,5.34,-5.19,8.0
24.262964963912964,2.93,6.71,0.13,7.32
24.26322603225708,7.32,4.08,2.92,8.87
24.263482093811035,9.1,1.57,3.85,10.0
24.26373600959778,7.6,0.0,3.52,8.37
24.263988971710205,6.03,-1.3,2.72,6.74
24.264748096466064,4.9,-2.31,2.85,6.12
24.266463041305542,3.98,-2.66,2.74,5.51
24.27632188796997,3.25,-2.4,2.62,4.81
24.286885023117065,2.15,-2.09,2.69,4.02
24.29630398750305,1.14,-2.12,2.47,3.44
24.363741874694824,0.49,-2.38,2.26,3.31
24.364006996154785,0.19,-2.57,1.8,3.14
24.364264011383057,0.14,-2.64,1.25,2.92
24.36452007293701,0.3,-2.68,0.74,2.79
24.364777088165283,0.57,-2.92,0.23,2.98
24.365582942962646,0.76,-3.21,-0.1,3.3
24.366177082061768,0.9,-3.65,-0.21,3.76
24.376322984695435,0.8,-4.34,-0.39,4.43
24.386921882629395,0.54,-5.1,-0.21,5.13
24.396306037902832,0.31,-5.73,-0.25,5.74
24.463773012161255,0.22,-6.12,0.0,6.12
24.46403408050537,-0.15,-6.47,0.3,6.47
24.464303970336914,-0.61,-6.59,0.04,6.61
24.464560985565186,-0.9,-6.49,-0.4,6.56
24.46481704711914,-1.84,-6.03,-1.61,6.5
24.465594053268433,-3.74,-5.15,-4.18,7.61
24.466035842895508,-5.44,-4.23,-5.25,8.66
24.47612190246582,-6.01,-3.67,-4.72,8.47
24.4867000579834,-5.31,-2.87,-5.21,7.97
24.496091842651367,-5.04,-1.7,-6.6,8.47
24.563433170318604,-5.67,-0.56,-7.92,9.75
24.56370210647583,-6.87,-0.1,-8.79,11.15
24.563971042633057,-8.8,-0.09,-9.99,13.31
24.564234018325806,-11.0,-0.27,-11.23,15.72
24.564495086669922,-11.88,-1.43,-10.79,16.11
24.56529402732849,-10.21,-2.27,-9.36,14.03
24.56601095199585,-8.43,-2.3,-8.46,12.16
24.57595205307007,-8.05,-2.63,-7.93,11.6
24.586522102355957,-8.45,-2.76,-7.56,11.66
24.595962047576904,-7.66,2.78,-6.41,10.36
24.664496898651123,-0.61,0.24,-5.03,5.07
24.664770126342773,4.63,7.61,4.64,10.04
24.66503405570984,23.39,19.84,31.53,43.98
24.665325164794922,17.79,17.86,1.13,25.23
24.66576099395752,-1.54,9.57,-14.06,17.07
24.666551113128662,-8.47,-3.17,2.41,9.35
24.666812896728516,-15.29,-3.79,-0.32,15.75
24.67587184906006,-15.24,-3.51,-2.29,15.8
24.686357975006104,-11.8,-2.69,-3.58,12.62
24.695827960968018,-8.67,-1.54,-6.89,11.18
24.763060092926025,-4.66,0.84,-5.15,6.99
24.76332712173462,-1.88,1.21,-3.57,4.21
24.76358413696289,0.95,0.67,-3.77,3.94
24.763841152191162,3.02,0.76,-3.92,5.0
24.764096975326538,2.53,0.73,-3.09,4.05
24.764896869659424,0.3,0.48,-1.75,1.83
24.765735149383545,-1.48,0.48,-1.22,1.97
24.77571392059326,-1.69,0.29,-1.29,2.14
24.78618097305298,-1.31,0.11,-0.54,1.42
24.795686960220337,-1.02,-0.06,0.0,1.02
24.86388111114502,-0.84,-0.06,-0.53,0.99
24.86414384841919,-0.72,-0.15,-0.83,1.1
24.864407062530518,-0.49,-0.23,-0.48,0.72
24.86466884613037,0.03,-0.08,-0.35,0.36
24.86495804786682,0.4,0.09,-0.43,0.59
24.865890979766846,0.19,0.1,-0.55,0.59
24.866152048110962,-0.1,0.03,-0.56,0.56
24.875550031661987,-0.03,-0.08,-0.26,0.27
24.885991096496582,0.24,-0.12,0.42,0.49
24.89552593231201,0.6,-0.03,0.95,1.12
24.963474988937378,1.1,0.07,1.09,1.55
24.963738918304443,1.5,0.26,0.97,1.8
24.96399688720703,1.65,0.32,0.7,1.82
24.964253902435303,1.56,0.28,0.66,1.71
24.964509963989258,1.55,0.19,1.07,1.89
24.96550703048706,1.7,0.21,1.36,2.18
24.965746879577637,1.64,0.19,1.36,2.13
24.975365161895752,1.36,0.13,1.65,2.14
24.985965967178345,1.05,-0.06,1.92,2.18
24.9953830242157,0.76,-0.36,1.87,2.05
25.063048839569092,0.89,-0.54,1.64,1.94
25.063311100006104,1.43,-0.43,1.01,1.8
25.06356906890869,1.79,0.08,0.45,1.84
25.063808917999268,1.79,0.53,0.04,1.86
25.06406307220459,1.46,0.66,0.06,1.6
25.06504487991333,1.24,0.68,0.39,1.46
25.065463066101074,1.47,0.45,1.64,2.24
25.07525897026062,1.75,0.44,2.29,2.91
25.08600091934204,1.67,0.95,1.71,2.57
25.095278024673462,1.11,1.67,1.29,2.38
25.16336488723755,0.4,2.33,1.37,2.73
25.163624048233032,0.72,3.13,1.32,3.47
25.163886070251465,1.39,3.15,1.68,3.83
25.164140939712524,1.66,2.96,2.3,4.09
25.1644229888916,2.27,2.85,2.81,4.6
25.165380001068115,2.87,3.17,3.17,5.32
25.165635108947754,3.25,4.04,3.34,6.16
25.175119876861572,3.65,5.63,3.35,7.49
25.246180057525635,4.95,7.63,3.78,9.84
25.246456146240234,6.5,8.37,5.34,11.86
25.24671697616577,6.84,8.82,6.48,12.9
25.246978044509888,7.25,9.7,7.88,14.44
25.247241973876953,7.07,10.18,8.49,15.02
25.24749994277954,6.3,9.83,8.12,14.22
25.247764110565186,5.96,8.97,6.64,12.65
25.25545310974121,5.53,7.48,2.37,9.59
25.265067100524902,5.29,7.21,-3.14,9.47
25.274980068206787,2.32,10.97,-6.44,12.93
25.34731388092041,-4.24,14.06,-2.55,14.9
25.34757900238037,-5.36,11.04,0.79,12.29
25.34784197807312,-0.61,6.86,0.5,6.9
25.34809899330139,1.49,3.2,1.26,3.74
25.348368167877197,-1.96,1.26,0.86,2.48
25.348631858825684,-4.69,2.22,-4.83,7.08
25.348888874053955,0.62,5.71,-2.73,6.35
25.35539698600769,6.35,5.32,1.99,8.51
25.36479616165161,9.83,2.48,3.51,10.72
25.374813079833984,10.03,0.24,3.82,10.73
25.447788953781128,7.81,-0.97,3.09,8.45
25.44805598258972,5.59,-1.7,2.75,6.45
25.44831609725952,3.92,-1.98,2.65,5.12
25.448575973510742,3.01,-1.72,2.21,4.11
25.44883894920349,2.58,-1.5,2.01,3.59
25.449102878570557,1.9,-1.57,1.84,3.07
25.44935894012451,1.22,-1.48,1.36,2.35
25.4551420211792,1.01,-1.24,1.22,2.01
25.464882850646973,1.19,-1.07,1.04,1.9
25.474599838256836,1.3,-1.07,0.65,1.8
25.547812938690186,1.01,-1.43,0.1,1.75
25.548078060150146,0.53,-1.96,-0.19,2.03
25.548337936401367,0.44,-2.54,-0.31,2.59
25.54858112335205,0.52,-3.29,-0.31,3.34
25.548838138580322,0.1,-4.02,-0.17,4.02
25.549109935760498,-0.48,-4.65,-0.32,4.68
25.549376964569092,-0.72,-5.11,-0.6,5.19
25.555098056793213,-1.07,-5.3,-0.84,5.47
25.564653873443604,-1.64,-5.27,-1.67,5.76
25.57463502883911,-2.85,-5.07,-2.6,6.37
25.647411823272705,-4.82,-5.06,-2.77,7.51
25.64835000038147,-6.27,-5.32,-3.23,8.83
25.64861488342285,-6.17,-4.9,-4.53,9.08
25.64887809753418,-5.48,-3.68,-5.95,8.88
25.64913511276245,-5.49,-2.27,-7.49,9.55
25.649392127990723,-6.33,-1.4,-8.82,10.94
25.649649143218994,-8.11,-1.22,-10.03,12.95
25.65499210357666,-10.29,-1.35,-11.13,15.21
25.66434383392334,-11.6,-2.22,-11.2,16.27
25.674354076385498,-10.8,-3.43,-10.26,15.28
25.685047149658203,-8.78,-3.55,-9.73,13.57
25.747395992279053,-7.66,-3.1,-9.47,12.56
25.747660160064697,-7.46,-2.97,-9.59,12.5
25.747920989990234,-7.31,-3.22,-9.43,12.35
25.748180866241455,-7.9,1.49,-9.84,12.7
25.74844002723694,-4.06,5.78,-6.38,9.51
25.748697996139526,7.45,4.92,1.76,9.09
25.754780054092407,21.78,16.25,29.24,39.91
25.76422095298767,16.47,13.97,7.92,23.0
25.774266958236694,-0.51,7.63,-15.1,16.92
25.784870147705078,-7.44,2.77,-3.4,8.63
25.847847938537598,-13.6,0.64,-1.51,13.69
25.848114013671875,-13.02,-1.22,-2.63,13.33
25.848374843597412,-12.02,0.46,-0.46,12.03
25.84863305091858,-9.08,-2.49,-3.55,10.06
25.84888982772827,-5.11,-1.74,-5.68,7.83
25.849145889282227,-2.24,-0.03,-5.11,5.57
25.85459804534912,-0.38,0.07,-4.21,4.22
25.86402702331543,1.58,0.49,-3.57,3.93
25.874048948287964,2.88,1.03,-3.75,4.83
25.88464117050171,2.31,1.48,-3.04,4.09
25.947983980178833,0.91,1.03,-2.26,2.64
25.948246955871582,-0.44,0.44,-1.71,1.81
25.948506832122803,-1.28,0.08,-0.71,1.46
25.94876503944397,-1.6,-0.3,0.61,1.73
25.94902205467224,-1.53,-0.44,0.8,1.78
25.94928002357483,-0.9,-0.43,0.25,1.02
25.95433282852173,-0.16,-0.17,-0.09,0.25
25.963778972625732,0.79,0.15,-0.28,0.85
25.97380495071411,1.26,0.3,-0.19,1.3
25.98444700241089,0.94,0.27,-0.3,1.02
26.047953128814697,0.43,0.02,-0.41,0.59
26.048222064971924,0.12,-0.17,-0.34,0.39
26.04848003387451,0.17,-0.18,-0.09,0.26
26.0487380027771,0.31,-0.09,0.36,0.48
26.04899501800537,0.44,0.01,0.61,0.75
26.04925012588501,0.89,0.15,0.84,1.23
26.05413293838501,1.55,0.32,1.12,1.93
26.06378984451294,1.73,0.32,0.97,2.0
26.073708057403564,1.37,0.25,0.72,1.56
26.08439016342163,0.9,0.12,0.55,1.06
26.148076057434082,0.51,0.05,0.59,0.78
26.14833903312683,0.19,0.02,0.75,0.77
26.148600101470947,0.05,-0.06,0.9,0.9
26.148859977722168,0.11,-0.09,0.84,0.85
26.149117946624756,0.47,0.01,0.48,0.67
26.14937400817871,0.69,0.19,0.15,0.73
26.154186964035034,0.54,0.42,0.04,0.68
26.163701057434082,0.5,0.57,0.05,0.75
26.173678874969482,0.83,0.57,0.35,1.06
26.18430805206299,1.45,0.52,1.13,1.91
26.24778985977173,1.84,0.39,1.4,2.34
26.248069047927856,1.63,0.33,1.53,2.25
26.248324871063232,0.99,0.4,1.74,2.04
26.248580932617188,0.92,0.71,1.95,2.27
26.24883508682251,1.69,1.37,2.08,3.0
26.249089002609253,1.93,1.8,2.14,3.39
26.25387716293335,2.15,2.0,1.74,3.41
26.26350498199463,2.2,2.29,1.65,3.57
26.27342987060547,2.03,2.34,1.7,3.53
26.284185886383057,2.15,2.52,1.7,3.72
26.347693920135498,2.45,2.68,2.09,4.18
26.347954034805298,2.7,3.1,2.52,4.82
26.34821105003357,3.07,4.26,3.11,6.1
26.348466873168945,3.86,6.81,3.2,8.45
26.34872603416443,6.09,8.94,4.43,11.68
26.3489830493927,6.86,9.28,6.21,13.1
26.353724002838135,6.17,9.73,6.96,13.46
26.363402843475342,5.75,10.89,8.44,14.92
26.373316049575806,5.45,11.45,9.46,15.82
26.38396406173706,4.53,10.65,8.22,14.19
26.448112964630127,3.95,8.97,5.15,11.07
26.44837999343872,5.51,7.36,-0.54,9.2
26.44864296913147,6.55,8.75,-4.7,11.89
26.44890308380127,1.35,13.15,-3.94,13.79
26.44916296005249,-3.53,14.1,-0.16,14.53
26.449424982070923,-1.69,10.5,-0.26,10.63
26.454226970672607,1.02,5.52,-0.02,5.61
26.46313714981079,-0.14,2.99,1.76,3.47
26.473143100738525,-5.06,1.92,-2.99,6.18
26.48374605178833,-2.2,4.09,-4.89,6.74
26.548935890197754,4.08,5.49,0.65,6.87
26.549203872680664,8.0,3.32,2.95,9.15
26.54946804046631,9.62,1.01,3.61,10.32
26.549726009368896,8.37,-0.73,3.69,9.17
26.549985885620117,6.57,-1.91,3.22,7.56
26.550241947174072,5.32,-2.32,2.58,6.35
26.55364990234375,4.11,-2.25,2.06,5.11
26.563055992126465,3.06,-2.24,2.13,4.34
26.57299494743347,2.25,-2.51,2.62,4.26
26.583622932434082,1.55,-2.72,2.65,4.1
26.649654865264893,1.22,-2.82,2.41,3.9
26.649932861328125,1.27,-2.89,2.31,3.91
26.650190830230713,1.61,-2.77,1.86,3.7
26.650450944900513,1.88,-2.7,1.38,3.56
26.650707006454468,1.83,-2.96,1.03,3.62
26.65096402168274,1.44,-3.41,0.57,3.74
26.65365505218506,1.08,-4.01,0.53,4.18
26.662886142730713,0.76,-4.47,0.63,4.57
26.67290496826172,0.47,-4.95,0.52,4.99
26.6835298538208,0.04,-5.49,0.68,5.53
26.749404907226562,-0.88,-5.77,0.44,5.85
26.749669075012207,-1.64,-5.94,-0.38,6.17
26.74992799758911,-2.47,-5.73,-1.66,6.45
26.750185012817383,-4.03,-5.39,-3.01,7.37
26.75045108795166,-6.11,-5.19,-4.63,9.25
26.75071382522583,-7.72,-4.7,-5.32,10.48
26.75359296798706,-8.22,-3.78,-5.3,10.48
26.762755870819092,-7.68,-2.39,-5.94,9.99
26.772779941558838,-7.31,-0.69,-7.31,10.36
26.78342294692993,-7.74,0.83,-8.62,11.61
26.849483013153076,-8.56,1.57,-8.87,12.42
26.849756956100464,-9.65,2.05,-8.27,12.87
26.85002088546753,-10.41,2.95,-8.2,13.57
26.85028100013733,-10.38,3.18,-9.06,14.14
26.850538969039917,-9.15,2.35,-9.56,13.44
26.850795030593872,-6.9,1.78,-9.0,11.47
26.853416919708252,-3.78,2.49,-7.34,8.62
26.86259889602661,-3.06,-3.41,-6.74,8.14
26.87272596359253,-6.62,-2.87,-9.76,12.13
26.88321805000305,6.89,13.5,11.87,19.25
26.948982000350952,21.54,17.78,32.59,42.92
26.949252128601074,6.26,12.23,-6.58,15.23
26.949517965316772,-7.83,4.92,-4.57,10.31
26.949777126312256,-13.43,-2.84,0.93,13.75
26.950034141540527,-13.72,-5.34,-4.03,15.26
26.95030117034912,-9.84,-1.28,-2.46,10.22
26.953320026397705,-7.6,-1.35,-5.52,9.48
26.962440013885498,-3.96,-0.19,-7.12,8.14
26.972416877746582,-1.2,0.94,-6.41,6.58
26.983070850372314,-0.44,0.6,-4.3,4.36
27.048757076263428,0.44,0.23,-3.18,3.21
27.049017906188965,1.51,0.28,-2.87,3.25
27.049275875091553,1.26,0.63,-2.18,2.59
27.049532890319824,-0.73,0.74,-1.22,1.6
27.04978895187378,-2.01,0.55,-0.4,2.12
27.05005407333374,-1.72,0.15,-0.14,1.73
27.05312204360962,-1.19,-0.26,0.04,1.21
27.06232786178589,-1.0,-0.34,0.34,1.1
27.072262048721313,-0.59,-0.23,0.26,0.68
27.08298683166504,-0.32,0.01,0.03,0.32
27.149067878723145,-0.01,0.11,-0.52,0.53
27.149333953857422,0.42,0.12,-1.23,1.3
27.1496000289917,0.77,0.01,-1.43,1.62
27.149857997894287,0.92,-0.11,-1.24,1.54
27.150113105773926,0.86,-0.03,-0.55,1.02
27.15038013458252,0.69,0.19,0.21,0.74
27.152668952941895,0.63,0.28,0.63,0.93
27.162184953689575,0.61,0.32,0.53,0.86
27.172160148620605,0.44,0.27,0.22,0.56
27.182796001434326,0.25,0.11,0.47,0.54
27.248684883117676,0.51,0.03,0.77,0.92
27.248942852020264,1.07,0.23,1.03,1.5
27.249202966690063,1.31,0.4,1.0,1.69
27.249457836151123,1.39,0.39,1.11,1.82
27.24971294403076,1.62,0.28,1.55,2.25
27.2499680519104,1.76,-0.04,1.96,2.63
27.252446174621582,2.09,-0.35,2.12,2.99
27.26207208633423,2.3,-0.56,2.02,3.11
27.272053956985474,2.01,-0.34,1.5,2.53
27.28267812728882,1.59,0.18,0.69,1.74
27.34819793701172,1.2,0.64,0.23,1.37
27.348464965820312,0.79,0.99,-0.03,1.26
27.3487229347229,0.56,1.06,0.01,1.19
27.348984956741333,0.61,0.97,1.02,1.53
27.349244117736816,1.34,1.01,2.03,2.63
27.349499940872192,1.76,1.32,2.64,3.43
27.352316856384277,1.63,1.86,2.72,3.67
27.361868858337402,1.8,2.13,2.53,3.76
27.371850967407227,1.91,2.5,2.29,3.89
27.382463932037354,1.88,2.54,2.41,3.97
27.447932958602905,2.34,2.72,2.76,4.52
27.448193073272705,3.18,3.1,3.33,5.55
27.448447942733765,3.98,3.9,3.85,6.77
27.44870400428772,4.65,5.5,4.19,8.33
27.448965072631836,4.86,8.25,3.9,10.33
27.449231147766113,5.77,10.75,4.37,12.95
27.452189922332764,5.76,11.21,6.73,14.28
27.461694955825806,5.49,11.5,8.62,15.38
27.47168207168579,6.21,11.58,8.44,15.61
27.482338905334473,6.17,11.26,6.74,14.5
27.547998905181885,5.94,10.42,4.55,12.82
27.548264980316162,6.09,9.22,-1.55,11.15
27.54852294921875,4.81,10.33,-6.96,13.35
27.548780918121338,-1.26,13.85,-5.66,15.01
27.549036979675293,-4.74,13.33,-2.12,14.3
27.549302101135254,0.22,7.86,-1.43,7.99
27.552013874053955,3.36,2.78,1.07,4.49
27.561561107635498,-1.51,1.04,0.5,1.9
27.57161808013916,-4.96,2.29,-5.13,7.49
27.582181930541992,-0.12,5.23,-0.93,5.31
27.649351119995117,4.3,4.35,3.45,7.02
27.649613857269287,7.13,1.84,5.08,8.94
27.64987087249756,6.78,0.44,5.02,8.44
27.650128841400146,5.45,-0.14,3.62,6.54
27.650388956069946,4.58,-0.67,2.37,5.2
27.650649070739746,3.42,-1.01,1.77,3.98
27.65175199508667,2.24,-1.5,2.02,3.36
27.661316871643066,1.3,-2.15,2.55,3.57
27.671388149261475,0.53,-2.69,2.62,3.79
27.68202805519104,-0.02,-3.06,2.32,3.84
27.749138832092285,-0.01,-3.3,2.16,3.94
27.749401092529297,0.48,-3.73,2.38,4.45
27.749661922454834,0.95,-4.12,2.32,4.82
27.74992084503174,1.03,-4.23,2.0,4.79
27.750176906585693,0.71,-4.36,1.67,4.72
27.75043296813965,0.42,-4.7,1.46,4.93
27.751636028289795,0.5,-5.13,1.37,5.33
27.761242866516113,0.72,-5.55,1.6,5.82
27.771153926849365,0.89,-5.98,1.62,6.25
27.78195095062256,0.45,-6.09,1.31,6.24
27.848719120025635,-0.39,-6.08,0.48,6.11
27.848981857299805,-1.15,-6.06,-0.22,6.17
27.849238872528076,-1.76,-5.94,-1.06,6.28
27.84949493408203,-2.4,-5.75,-1.88,6.5
27.84975004196167,-4.01,-5.37,-2.63,7.19
27.850006103515625,-5.64,-4.98,-3.63,8.35
27.851619958877563,-6.56,-4.28,-5.11,9.35
27.861228942871094,-7.19,-3.4,-6.84,10.49
27.871026039123535,-8.25,-2.51,-8.25,11.93
27.881925106048584,-9.78,-1.57,-9.41,13.66
27.94917917251587,-11.71,-0.71,-10.42,15.69
27.94944190979004,-13.49,-0.16,-11.09,17.46
27.94970417022705,-13.97,-0.2,-11.05,17.81
27.949963092803955,-12.51,-0.73,-9.69,15.84
27.950220108032227,-10.28,-1.02,-8.21,13.19
27.95050287246704,-8.74,-1.06,-7.46,11.53
27.951457023620605,-8.33,-1.77,-6.58,10.76
27.960980892181396,-7.85,-2.8,-5.03,9.73
27.97085404396057,-9.57,3.53,-4.58,11.18
27.981700897216797,0.27,3.05,-1.13,3.26
28.048856019973755,25.18,5.11,10.86,27.89
28.04912805557251,40.52,20.06,27.9,53.12
28.049395084381104,12.97,22.2,-2.21,25.8
28.049663066864014,-5.43,10.08,-12.8,17.17
28.049922943115234,-12.48,-2.14,-4.75,13.52
28.050209045410156,-17.49,-7.23,-4.19,19.38
28.05130910873413,-15.95,-1.25,0.28,16.0
28.06092596054077,-11.63,-1.39,-2.14,11.9
28.07079315185547,-6.53,-2.02,-5.91,9.03
28.081475973129272,-3.92,-0.21,-6.19,7.32
28.148850917816162,-2.81,0.18,-4.15,5.01
28.149116039276123,-0.55,0.26,-3.03,3.09
28.14937686920166,2.58,0.97,-2.95,4.03
28.149634838104248,3.77,1.48,-2.15,4.58
28.14989185333252,1.84,1.27,-1.25,2.56
28.150153160095215,-0.73,0.69,-1.14,1.51
28.151108980178833,-1.7,-0.04,-0.71,1.84
28.16063094139099,-1.66,-0.44,0.34,1.75
28.17084789276123,-1.72,-0.55,1.11,2.11
28.181222915649414,-0.98,-0.34,0.91,1.37
28.248898029327393,0.29,0.05,-0.35,0.45
28.24916100502014,1.04,0.25,-1.21,1.61
28.24941897392273,1.19,0.16,-1.17,1.67
28.24968385696411,0.97,-0.05,-0.61,1.14
28.24996304512024,0.58,-0.19,-0.14,0.62
28.250378131866455,0.02,-0.23,-0.02,0.23
28.251172065734863,-0.67,-0.12,0.01,0.68
28.260522842407227,-1.05,0.03,0.13,1.05
28.2708420753479,-0.95,0.16,0.3,1.0
28.281141996383667,-0.23,0.26,0.29,0.45
28.348505973815918,0.9,0.4,0.52,1.11
28.3487548828125,1.9,0.4,0.91,2.14
28.349012851715088,2.26,0.28,0.95,2.46
28.349268913269043,1.93,0.08,0.88,2.12
28.34952688217163,1.43,-0.15,0.98,1.74
28.349814891815186,1.19,-0.34,1.41,1.87
28.35085105895996,1.25,-0.44,1.8,2.23
28.360479831695557,1.53,-0.46,1.87,2.45
28.370718002319336,1.92,-0.32,1.4,2.39
28.381030082702637,2.17,0.01,0.71,2.28
28.44854211807251,2.23,0.31,0.65,2.34
28.44880485534668,2.15,0.56,0.42,2.26
28.449060916900635,1.62,0.53,0.24,1.72
28.449316024780273,1.06,0.31,0.89,1.41
28.449613094329834,1.08,0.23,1.77,2.08
28.449900150299072,1.57,0.41,2.38,2.88
28.450851917266846,2.13,0.96,2.2,3.2
28.460246086120605,2.26,1.46,1.86,3.27
28.470192909240723,2.07,1.85,1.76,3.28
28.480923175811768,2.12,2.52,1.54,3.63
28.548691034317017,2.7,3.33,1.79,4.64
28.548951148986816,2.45,3.75,3.19,5.49
28.549208164215088,2.85,3.42,3.63,5.74
28.549500942230225,3.15,3.65,4.05,6.29
28.549943923950195,3.12,5.23,3.96,7.26
28.550201892852783,4.53,7.93,3.64,9.83
28.550968170166016,6.1,8.56,5.18,11.71
28.56009602546692,5.1,8.99,5.6,11.75
28.570056915283203,4.9,10.54,6.98,13.55
28.580748081207275,5.95,12.08,8.16,15.74
28.649675846099854,6.96,12.44,7.64,16.17
28.649943828582764,6.63,10.98,6.74,14.48
28.65020513534546,6.59,9.07,3.83,11.84
28.65046215057373,7.01,7.79,-1.52,10.58
28.650717973709106,5.98,8.92,-6.08,12.34
28.650975942611694,1.15,13.05,-6.21,14.49
28.651751041412354,-3.05,14.1,-1.68,14.52
28.659888982772827,-2.08,9.71,0.1,9.93
28.669951915740967,1.2,4.24,0.38,4.42
28.68058705329895,-0.32,1.77,1.41,2.28
28.74913215637207,-5.47,1.06,-4.03,6.87
28.74941110610962,-3.99,4.48,-6.13,8.57
28.7498300075531,2.28,5.95,-0.06,6.37
28.75008797645569,7.26,3.56,2.98,8.61
28.750344038009644,8.8,1.17,3.83,9.66
28.75060200691223,6.67,-0.54,3.12,7.38
28.75136709213257,4.83,-1.83,2.32,5.66
28.75980496406555,3.35,-2.55,2.41,4.85
28.769888877868652,2.28,-2.73,2.32,4.24
28.780436038970947,1.38,-2.9,2.46,4.04
28.849917888641357,0.47,-3.26,2.49,4.12
28.850178003311157,0.01,-3.5,2.33,4.2
28.85043716430664,0.18,-3.52,2.21,4.16
28.850692987442017,0.87,-3.5,2.1,4.17
28.850950956344604,1.67,-3.64,2.11,4.52
28.851215839385986,2.32,-3.74,2.05,4.85
28.851973056793213,2.59,-3.94,1.91,5.08
28.8597309589386,2.48,-4.29,1.76,5.25
28.869663953781128,1.96,-4.8,1.67,5.44
28.880316019058228,1.36,-5.54,1.48,5.89
28.9500629901886,0.93,-6.33,1.28,6.52
28.950326919555664,0.64,-6.97,1.29,7.11
28.950584888458252,0.5,-7.52,1.13,7.62
28.95084500312805,0.43,-7.95,1.26,8.06
28.95109987258911,0.05,-8.07,1.15,8.15
28.951356887817383,-0.22,-7.99,0.41,8.0
28.952125072479248,-0.76,-7.62,-0.51,7.67
28.959517002105713,-2.16,-6.88,-1.8,7.43
28.969481945037842,-3.78,-5.78,-4.18,8.07
28.98017692565918,-5.4,-4.35,-6.75,9.67
29.050053119659424,-6.5,-2.9,-7.61,10.41
29.050320148468018,-6.69,-1.67,-7.58,10.24
29.050578117370605,-6.96,-0.35,-8.53,11.01
29.050835132598877,-7.56,0.99,-9.93,12.51
29.05109405517578,-8.22,1.81,-10.59,13.52
29.05135488510132,-8.92,1.75,-10.66,14.0
29.052104949951172,-9.7,1.09,-10.66,14.45
29.059345960617065,-10.19,0.19,-10.98,14.98
29.069311141967773,-10.3,-1.44,-11.74,15.68
29.07996702194214,-10.11,2.45,-11.99,15.87
29.15015411376953,-6.47,4.76,-6.85,10.55
29.150424003601074,0.25,2.93,-3.48,4.55
29.150686025619507,14.93,17.1,28.77,36.64
29.15094494819641,20.7,18.79,10.79,29.96
29.151203155517578,8.58,15.83,-16.08,24.14
29.1514630317688,-3.77,2.79,0.51,4.71
29.152255058288574,-15.13,-8.93,1.17,17.6
29.159114837646484,-13.12,-7.54,-1.26,15.18
29.169193983078003,-10.72,-4.03,-6.79,13.31
29.17979907989502,-8.1,-1.37,-8.76,12.0
29.250077962875366,-4.12,1.8,-5.64,7.21
29.250342845916748,-1.43,2.13,-3.27,4.15
29.250604152679443,1.38,1.15,-3.46,3.89
29.250863075256348,3.7,0.68,-3.38,5.05
29.251121997833252,2.98,0.65,-2.21,3.76
29.251378059387207,0.01,0.9,-1.54,1.78
29.252174854278564,-1.78,0.6,-1.74,2.56
29.259042024612427,-2.42,0.19,-1.69,2.95
29.26896595954895,-2.69,-0.08,-0.48,2.73
29.279696941375732,-2.72,-0.34,0.46,2.77
29.35032892227173,-1.74,-0.42,0.37,1.82
29.350597858428955,-0.37,-0.26,0.24,0.51
29.35086703300476,0.61,0.01,0.04,0.61
29.351125955581665,1.2,0.21,-0.55,1.33
29.351382970809937,1.54,0.18,-0.76,1.72
29.351639986038208,1.51,0.11,-0.57,1.61
29.352437019348145,1.17,-0.03,-0.34,1.21
29.35887384414673,0.68,-0.1,0.02,0.68
29.36885690689087,0.32,-0.1,0.37,0.49
29.379477977752686,0.31,-0.01,0.54,0.62
29.4496431350708,0.84,0.18,0.73,1.12
29.449903964996338,1.64,0.33,1.15,2.03
29.45014500617981,2.27,0.33,1.59,2.79
29.450402975082397,2.29,0.26,1.28,2.63
29.450660943984985,1.53,0.06,0.59,1.64
29.45091700553894,0.83,-0.25,0.64,1.07
29.451694011688232,0.79,-0.4,0.97,1.31
29.458803176879883,1.07,-0.29,1.51,1.87
29.468721866607666,1.38,-0.17,1.81,2.28
29.47945499420166,1.34,-0.09,1.37,1.91
29.549589157104492,0.78,0.02,0.84,1.14
29.549850940704346,0.63,0.23,0.36,0.76
29.5501070022583,0.96,0.3,0.54,1.14
29.550363063812256,1.66,0.35,0.97,1.95
29.550621032714844,2.13,0.43,1.19,2.47
29.55087399482727,2.26,0.51,1.63,2.83
29.551651000976562,1.97,0.8,1.76,2.76
29.55864405632019,1.36,1.32,1.61,2.48
29.568542957305908,0.91,1.81,1.74,2.67
29.579235076904297,0.67,2.07,2.05,2.98
29.64970302581787,0.71,2.77,2.18,3.59
29.649971961975098,2.08,3.08,2.59,4.52
29.650269031524658,2.34,2.8,2.99,4.71
29.65055513381958,2.63,2.87,3.52,5.24
29.650874137878418,3.1,2.98,4.28,6.06
29.651172161102295,3.52,3.63,4.76,6.94
29.652058124542236,3.65,6.13,4.38,8.37
29.658825874328613,5.17,9.62,4.22,11.7
29.66841197013855,6.88,10.16,6.48,13.87
29.679026126861572,6.37,10.3,7.23,14.1
29.749608039855957,6.62,11.63,7.89,15.53
29.74987506866455,6.52,12.25,8.62,16.33
29.750138998031616,5.49,11.31,7.14,14.45
29.750399112701416,4.13,9.24,2.41,10.4
29.75065517425537,4.24,7.95,-4.84,10.22
29.750911951065063,2.88,10.65,-8.39,13.86
29.75167989730835,-2.62,12.98,-3.71,13.75
29.758272171020508,-3.96,12.93,-0.93,13.55
29.768267154693604,-0.61,9.54,-3.08,10.04
29.778953075408936,2.38,3.48,-1.97,4.65
29.84963607788086,-0.4,0.92,-0.1,1.0
29.84989905357361,-5.01,0.48,-4.15,6.52
29.850157022476196,-2.18,3.34,-3.51,5.31
29.850412845611572,3.25,4.5,1.83,5.84
29.85066795349121,7.12,1.94,3.78,8.29
29.850924015045166,8.52,-0.22,4.05,9.43
29.851685047149658,7.04,-1.28,3.72,8.06
29.858000993728638,5.42,-1.6,3.36,6.57
29.868040084838867,4.08,-1.37,2.51,4.98
29.878695964813232,2.86,-1.61,2.03,3.85
29.888072967529297,1.88,-2.3,1.94,3.54
29.950567960739136,0.88,-2.75,1.75,3.37
29.95084285736084,0.46,-2.72,1.52,3.14
29.951098918914795,0.61,-2.6,1.35,2.99
29.95135498046875,0.8,-2.68,1.0,2.97
29.951609134674072,1.04,-2.84,0.81,3.13
29.952383041381836,1.24,-2.9,0.69,3.22
29.957900047302246,1.26,-2.91,0.31,3.18
29.967895030975342,1.09,-3.14,0.03,3.32
29.978600025177002,0.58,-3.61,-0.11,3.65
29.98793601989746,-0.08,-4.4,0.14,4.4
30.050851821899414,-0.6,-5.19,0.2,5.22
30.051114082336426,-0.77,-6.0,0.09,6.04
30.051372051239014,-0.52,-6.79,0.75,6.85
30.051630973815918,-0.37,-7.14,1.38,7.28
30.051893949508667,-0.17,-7.23,1.62,7.41
30.052658081054688,0.08,-7.44,1.41,7.57
30.05794095993042,-0.46,-7.27,0.06,7.28
30.068020820617676,-1.76,-7.15,-1.86,7.59
30.078423023223877,-3.93,-6.89,-2.83,8.42
30.087950944900513,-5.59,-6.42,-2.88,8.98
30.150995016098022,-6.16,-5.91,-3.66,9.28
30.151267051696777,-6.43,-5.08,-5.02,9.6
30.15153217315674,-6.61,-3.86,-6.02,9.73
