time,ax,ay,az,atotal
0.008672714233398438,-0.58,0.04,-1.75,1.84
0.04516792297363281,-0.2,0.55,-0.92,1.09
0.0467987060546875,0.43,-0.09,-0.29,0.52
0.04781675338745117,-0.27,0.29,0.42,0.57
0.05427384376525879,-0.57,0.21,0.83,1.02
0.05811500549316406,-0.27,-0.34,0.09,0.44
0.07132792472839355,0.0,-0.13,-0.35,0.37
0.0781698226928711,-0.11,0.28,-0.37,0.47
0.08846569061279297,-0.21,0.19,0.03,0.28
0.09807586669921875,0.11,-0.1,0.52,0.54
0.10782289505004883,0.4,-0.01,0.53,0.66
0.11811971664428711,0.24,0.04,0.44,0.5
0.14747190475463867,0.05,-0.09,0.33,0.34
0.1490168571472168,0.02,-0.01,0.14,0.14
0.15004992485046387,-0.02,0.0,-0.09,0.09
0.15732479095458984,0.0,0.0,-0.03,0.03
0.16731691360473633,-0.02,-0.02,0.15,0.15
0.1773509979248047,-0.07,-0.01,0.26,0.26
0.1872258186340332,-0.01,-0.03,0.26,0.26
0.1971440315246582,0.07,-0.01,0.14,0.15
0.20711803436279297,0.01,0.05,0.03,0.05
0.21743392944335938,0.0,-0.01,0.0,0.01
0.24558782577514648,-0.02,-0.08,-0.01,0.08
0.24699878692626953,-0.04,-0.06,0.07,0.1
0.24817585945129395,-0.03,-0.02,0.09,0.09
0.2566719055175781,0.01,-0.01,0.06,0.06
0.26664185523986816,0.06,0.02,0.05,0.08
0.27661991119384766,0.0,0.05,0.1,0.11
0.28661203384399414,-0.16,0.07,0.16,0.23
0.2963547706604004,-0.26,0.0,0.17,0.31
0.3062310218811035,-0.2,-0.05,0.24,0.31
0.31942081451416016,-0.06,-0.07,0.32,0.33
0.34422874450683594,0.12,-0.09,0.28,0.31
0.34536075592041016,0.28,-0.07,0.12,0.31
0.3464469909667969,0.3,-0.02,-0.11,0.32
0.35599374771118164,0.18,0.02,-0.18,0.25
0.36583471298217773,0.01,0.0,-0.01,0.01
0.3758387565612793,-0.09,-0.05,0.17,0.19
0.3857858180999756,0.03,-0.09,0.38,0.39
0.39569997787475586,0.18,-0.13,0.59,0.63
0.40559983253479004,0.15,-0.21,0.66,0.7
0.4182419776916504,0.15,-0.21,0.49,0.55
0.4421079158782959,0.36,-0.36,0.04,0.51
0.44327592849731445,0.31,-0.26,-0.24,0.47
0.44498181343078613,0.12,-0.08,-0.02,0.14
0.4550967216491699,-0.05,0.1,0.35,0.36
0.4651169776916504,-0.35,0.19,0.5,0.63
0.47513580322265625,-0.34,0.21,0.45,0.6
0.48496103286743164,0.07,0.23,0.47,0.52
0.4949169158935547,0.39,-0.14,0.45,0.61
0.5047578811645508,0.35,-0.13,0.69,0.78
0.5175337791442871,-0.05,-0.06,0.72,0.72
0.5476539134979248,-0.37,0.02,0.47,0.59
0.5492839813232422,-0.24,0.16,0.17,0.33
0.5509510040283203,0.1,0.11,-0.2,0.24
0.5548000335693359,0.3,0.01,-0.76,0.81
0.5644497871398926,0.19,0.1,-0.67,0.7
0.5743048191070557,-0.21,0.05,-0.44,0.49
0.584190845489502,-0.45,0.16,-0.19,0.51
0.5941109657287598,-0.26,0.1,0.1,0.29
0.604590892791748,0.06,-0.01,0.21,0.21
0.6166179180145264,0.13,-0.19,0.58,0.62
0.6461098194122314,-0.15,-0.29,0.74,0.8
0.6477317810058594,-0.18,-0.06,0.55,0.58
0.64935302734375,-0.02,0.04,0.59,0.59
0.6543169021606445,0.21,-0.06,0.45,0.5
0.663815975189209,0.5,-0.1,0.42,0.66
0.6734778881072998,0.49,-0.09,0.49,0.69
0.683445930480957,0.37,-0.09,0.35,0.51
0.6935257911682129,0.24,-0.03,0.17,0.29
0.7036037445068359,0.05,0.0,0.16,0.16
0.7133517265319824,-0.09,0.03,0.17,0.19
0.7457756996154785,-0.27,0.1,0.16,0.32
0.747532844543457,-0.37,0.1,0.19,0.42
0.7488858699798584,-0.41,0.02,0.17,0.44
0.7569127082824707,-0.62,0.02,0.22,0.65
0.763070821762085,-0.65,0.13,0.35,0.74
0.7740387916564941,-0.31,0.09,0.11,0.34
0.7831807136535645,0.0,0.05,-0.25,0.25
0.7926239967346191,-0.02,0.15,-0.36,0.39
0.8028318881988525,-0.27,0.18,-0.31,0.44
0.8130168914794922,-0.66,0.07,-0.41,0.78
0.8506827354431152,-0.65,0.08,-0.28,0.71
0.8526709079742432,-0.3,0.03,0.04,0.3
0.8541059494018555,-0.24,0.0,0.32,0.4
0.8558950424194336,-0.29,-0.05,0.49,0.57
0.8621768951416016,-0.26,-0.06,0.5,0.56
0.8724298477172852,-0.21,-0.02,0.31,0.37
0.8822059631347656,-0.2,-0.07,0.03,0.21
0.8921337127685547,-0.12,-0.03,-0.05,0.13
0.9018278121948242,0.25,-0.01,0.01,0.25
0.9119210243225098,0.57,-0.05,-0.06,0.57
0.9223699569702148,0.6,0.0,-0.06,0.6
0.9502687454223633,0.38,0.04,0.01,0.38
0.9518637657165527,0.0,0.06,0.03,0.06
0.9535229206085205,-0.22,0.03,-0.05,0.22
0.9612789154052734,-0.21,0.08,-0.07,0.23
0.9715819358825684,-0.09,0.07,-0.05,0.12
0.9814629554748535,0.07,0.04,-0.02,0.08
0.9913198947906494,0.23,0.1,-0.24,0.34
1.0010957717895508,0.08,0.03,-0.24,0.25
1.0111899375915527,-0.25,0.01,-0.19,0.31
1.0216526985168457,-0.22,-0.05,0.02,0.22
1.0523028373718262,-0.46,-0.16,-0.07,0.49
1.0539369583129883,0.01,0.07,0.38,0.38
1.0549850463867188,0.75,0.0,0.84,1.12
1.0752739906311035,0.77,-0.02,0.58,0.96
1.0767297744750977,0.58,-0.02,0.22,0.62
1.0914950370788574,0.27,-0.05,0.06,0.28
1.0929770469665527,-0.01,-0.03,0.08,0.08
1.1062378883361816,-0.06,0.0,0.08,0.1
1.110257863998413,0.24,0.01,-0.01,0.24
1.126856803894043,0.57,0.12,-0.28,0.64
1.1509478092193604,0.45,0.14,-0.35,0.58
1.1527647972106934,0.0,0.09,-0.11,0.14
1.1540148258209229,-0.39,0.06,0.18,0.43
1.1594557762145996,-0.59,0.08,0.26,0.64
1.1695349216461182,-0.57,0.13,0.05,0.58
1.179473876953125,-0.5,0.12,-0.15,0.53
1.189931869506836,-0.54,0.2,-0.11,0.58
1.2000627517700195,-0.49,0.18,0.0,0.52
1.2096810340881348,-0.33,0.05,0.05,0.33
1.2195188999176025,-0.13,-0.09,-0.13,0.2
1.245856761932373,0.02,-0.06,-0.27,0.27
1.247567892074585,0.09,0.03,-0.11,0.14
1.249351978302002,-0.05,0.03,0.17,0.17
1.2591779232025146,-0.32,0.03,0.38,0.49
1.2691128253936768,-0.47,0.1,0.53,0.71
1.2793538570404053,-0.37,0.15,0.59,0.71
1.289219856262207,-0.26,0.21,0.36,0.49
1.2989728450775146,-0.27,0.19,0.01,0.33
1.3090157508850098,-0.37,0.14,-0.17,0.43
1.3216137886047363,-0.47,0.17,-0.2,0.53
1.3524107933044434,-0.42,0.25,-0.22,0.53
1.354430913925171,-0.24,0.29,-0.35,0.51
1.3559248447418213,-0.02,0.12,-0.42,0.43
1.3754267692565918,-0.02,-0.06,-0.34,0.34
1.3768019676208496,-0.18,-0.09,-0.3,0.36
1.3914189338684082,-0.45,-0.01,-0.26,0.51
1.392892837524414,-0.84,0.17,-0.15,0.87
1.407510757446289,-1.15,0.26,-0.38,1.23
1.409867763519287,-0.97,0.23,-1.0,1.41
1.4247808456420898,0.49,-0.35,-1.59,1.7
1.4510908126831055,2.09,-1.19,-2.87,3.74
1.453028917312622,2.97,-1.58,-4.19,5.37
1.4542908668518066,3.52,-1.07,-4.06,5.47
1.4575908184051514,3.24,-0.42,-3.23,4.59
1.4677047729492188,2.02,-0.24,-2.2,2.99
1.4778337478637695,0.9,-0.71,-0.82,1.4
1.4877219200134277,0.6,-1.44,0.51,1.64
1.4975099563598633,0.77,-1.64,1.47,2.33
1.5074799060821533,-0.48,0.0,3.03,3.06
1.5173308849334717,-2.99,1.72,6.02,6.93
1.554210901260376,-5.87,2.59,10.23,12.07
1.5561168193817139,-5.99,0.52,12.36,13.74
1.5575628280639648,-3.09,-2.62,8.05,9.01
1.5755157470703125,-0.02,-1.54,2.4,2.85
1.5769968032836914,1.38,-0.66,-1.09,1.87
1.5915238857269287,1.45,-0.09,-2.84,3.19
1.5929980278015137,1.07,1.23,-4.05,4.36
1.607097864151001,1.08,1.94,-3.92,4.5
1.6085987091064453,1.38,1.48,-2.47,3.19
1.6251418590545654,0.6,0.27,-1.53,1.66
1.6518678665161133,-0.48,-0.06,-0.97,1.08
1.6532559394836426,-1.22,0.22,-0.15,1.24
1.654268741607666,-1.4,0.3,0.67,1.58
1.6755938529968262,-1.22,0.27,1.33,1.82
1.6770210266113281,-1.05,0.19,1.3,1.68
1.6920337677001953,-0.76,0.07,0.26,0.8
1.6934847831726074,-0.27,-0.01,-0.92,0.95
1.7068829536437988,0.07,0.11,-1.51,1.51
1.7083468437194824,0.32,0.29,-1.52,1.58
1.7243528366088867,0.57,0.29,-1.29,1.43
1.7265167236328125,0.69,0.29,-0.94,1.2
1.7683167457580566,0.6,0.26,-0.54,0.84
1.7699627876281738,0.23,0.07,-0.26,0.35
1.770979881286621,0.13,0.0,0.06,0.14
1.7724637985229492,0.24,-0.03,0.38,0.45
1.7750797271728516,0.14,-0.01,0.42,0.44
1.7852377891540527,0.2,-0.03,0.34,0.39
1.7953898906707764,0.37,-0.05,0.31,0.48
1.805323839187622,0.4,0.0,0.05,0.4
1.8152039051055908,0.28,0.06,-0.37,0.46
1.825078010559082,0.13,0.15,-0.6,0.63
1.8509650230407715,0.02,0.09,-0.44,0.44
1.8520739078521729,-0.13,0.09,-0.22,0.27
1.8543877601623535,-0.27,0.15,-0.14,0.33
1.8647937774658203,-0.33,0.16,0.07,0.37
1.8747198581695557,-0.29,0.17,0.35,0.48
1.8846960067749023,-0.1,0.13,0.38,0.41
1.8945627212524414,0.11,0.04,0.23,0.25
1.904545783996582,0.21,0.01,0.08,0.22
1.9144229888916016,0.19,0.0,-0.02,0.19
1.9242897033691406,0.19,0.02,-0.04,0.19
1.9534587860107422,0.28,0.06,-0.01,0.28
1.954643726348877,0.32,-0.01,0.15,0.35
1.9556069374084473,0.19,-0.1,0.32,0.38
1.9753568172454834,0.01,-0.13,0.38,0.4
1.9767990112304688,-0.13,-0.05,0.31,0.33
1.9917449951171875,-0.15,0.12,0.14,0.23
1.9936189651489258,-0.07,0.22,-0.07,0.24
2.006701946258545,-0.01,0.1,-0.24,0.26
2.0133779048919678,-0.07,-0.05,-0.36,0.37
2.0240917205810547,-0.21,-0.08,-0.4,0.45
2.0552618503570557,-0.32,0.0,-0.43,0.53
2.0566399097442627,-0.37,0.1,-0.32,0.49
2.0576529502868652,-0.42,0.17,-0.1,0.46
2.0754847526550293,-0.43,0.29,0.0,0.51
2.0769639015197754,-0.42,0.38,-0.04,0.56
2.091925859451294,-0.37,0.41,-0.06,0.55
2.093402862548828,-0.65,0.4,-0.32,0.82
2.1069908142089844,-0.87,0.38,-0.35,1.01
2.1128597259521484,-0.64,0.58,-0.24,0.89
2.1270217895507812,-0.09,0.82,-0.37,0.9
2.1567740440368652,0.27,0.66,-0.62,0.94
2.158277988433838,0.93,0.24,-1.09,1.45
2.159294843673706,2.03,-1.08,-2.21,3.18
2.175905704498291,2.56,-1.56,-3.17,4.36
2.1773719787597656,2.53,-0.51,-3.3,4.18
2.1932477951049805,2.17,0.35,-2.86,3.6
2.194741725921631,1.92,0.68,-2.32,3.08
2.2075347900390625,1.94,0.36,-1.53,2.49
2.212038040161133,1.65,0.22,-0.24,1.68
2.2234678268432617,0.95,0.12,0.72,1.19
2.2569947242736816,-0.32,-0.45,0.6,0.81
2.258579730987549,-1.51,-0.44,0.56,1.66
2.2595667839050293,-1.57,-0.44,0.91,1.86
2.275535821914673,-0.86,-0.73,1.09,1.56
2.277010917663574,-0.05,-1.08,0.86,1.38
2.2918477058410645,0.54,-1.32,0.49,1.5
2.2933130264282227,0.8,-1.42,0.29,1.65
2.30720591545105,0.76,-1.54,0.21,1.73
2.311161994934082,0.63,-1.67,0.28,1.8
2.3242459297180176,0.48,-1.6,0.39,1.71
2.360308885574341,0.11,-1.29,0.45,1.37
2.362107753753662,-0.46,-0.96,0.6,1.22
2.3636298179626465,-1.14,-0.85,0.94,1.7
2.3756468296051025,-1.74,-0.96,1.29,2.36
2.377140998840332,-1.81,-1.08,1.46,2.56
2.3806748390197754,0.09,-1.01,1.05,1.45
2.39095401763916,0.79,-0.55,-0.02,0.96
2.400804042816162,0.44,1.01,1.26,1.67
2.4106407165527344,0.38,0.72,3.41,3.5
2.4206666946411133,-0.42,0.35,2.62,2.67
2.453439712524414,-2.57,3.68,2.46,5.11
2.454586982727051,-4.09,5.83,5.31,8.88
2.4555978775024414,-4.68,2.65,6.78,8.65
2.475829839706421,-4.17,-1.28,4.94,6.59
2.477339744567871,-2.4,-1.43,1.16,3.02
2.4921059608459473,-0.3,0.24,-0.62,0.72
2.49357271194458,0.61,1.0,0.16,1.18
2.5073390007019043,0.31,0.34,0.64,0.78
2.5100269317626953,-0.3,-0.42,-0.45,0.68
2.5274109840393066,-0.51,-0.11,-1.31,1.41
2.5309629440307617,-0.15,0.48,-1.63,1.7
2.5641279220581055,0.1,0.59,-1.86,1.95
2.565333843231201,-0.59,0.57,-1.73,1.91
2.566567897796631,-1.76,0.84,-0.79,2.1
2.5762887001037598,-2.44,1.04,0.0,2.65
2.5792369842529297,-2.08,0.73,-0.15,2.2
2.5913476943969727,-0.72,0.24,-0.61,0.97
2.599270820617676,0.21,0.17,-0.83,0.87
2.608902931213379,0.21,0.21,-1.0,1.04
2.6189327239990234,-0.03,0.2,-1.34,1.35
2.629159927368164,0.55,0.19,-1.16,1.29
2.6571009159088135,1.36,0.07,-0.69,1.52
2.658690929412842,1.73,-0.14,-0.56,1.82
2.6597137451171875,1.37,-0.21,-0.28,1.41
2.676151752471924,0.68,-0.1,-0.12,0.69
2.67844295501709,0.04,-0.04,-0.19,0.19
2.690974712371826,-0.17,-0.15,-0.09,0.24
2.698394775390625,-0.06,-0.23,0.21,0.31
2.708265781402588,-0.08,-0.13,0.14,0.2
2.718350887298584,-0.22,0.02,0.08,0.23
2.7280378341674805,-0.33,0.14,0.26,0.44
2.7593698501586914,-0.56,0.17,0.36,0.68
2.7610087394714355,-0.69,0.1,0.24,0.73
2.7620248794555664,-0.34,-0.04,0.07,0.34
2.7759017944335938,0.22,-0.03,0.23,0.31
2.7776570320129395,0.52,0.08,0.26,0.58
2.7922286987304688,0.49,0.15,0.17,0.53
2.7975549697875977,0.23,0.14,0.01,0.26
2.8076398372650146,-0.07,0.08,-0.13,0.16
2.8176116943359375,-0.3,0.09,0.0,0.31
2.827770709991455,-0.26,0.08,0.15,0.31
2.8582258224487305,-0.03,0.04,0.13,0.13
2.859771728515625,0.13,0.03,0.18,0.22
2.8608016967773438,-0.05,0.0,0.25,0.25
2.876473903656006,-0.32,0.01,0.01,0.32
2.877884864807129,-0.42,0.23,-0.14,0.49
2.8922789096832275,-0.66,0.44,-0.13,0.8
2.89705491065979,-1.05,0.45,-0.5,1.24
2.9075348377227783,-1.31,0.46,-0.77,1.58
2.9168429374694824,-1.33,0.43,-0.89,1.65
2.929417848587036,-1.42,0.38,-0.98,1.76
2.965211868286133,-1.28,0.27,-0.79,1.52
2.9670069217681885,-0.92,0.25,-0.44,1.05
2.9683148860931396,-0.92,0.22,-0.32,0.99
2.97171688079834,-1.17,0.14,-0.41,1.24
2.9759716987609863,-1.47,0.23,-0.56,1.58
2.992342948913574,-1.32,0.2,-0.66,1.48
2.9960789680480957,-0.42,0.03,-0.54,0.68
3.0076828002929688,0.2,-0.14,-0.23,0.33
3.0160398483276367,0.47,-0.22,0.04,0.52
3.0257797241210938,0.17,0.0,-0.02,0.17
3.059659004211426,-0.39,0.35,-0.31,0.6
3.0609378814697266,-0.5,0.35,-0.72,0.94
3.061931848526001,0.06,-0.03,-0.65,0.65
3.076164722442627,0.64,-0.43,-0.28,0.82
3.0776419639587402,0.68,-0.41,-0.02,0.79
3.092392921447754,0.13,-0.19,0.12,0.25
3.095423698425293,-0.28,0.09,0.23,0.37
3.107388973236084,-0.45,0.24,0.26,0.57
3.11527681350708,-0.45,0.26,-0.34,0.62
3.125532865524292,0.49,0.68,-0.81,1.16
3.1641650199890137,0.65,0.7,-1.49,1.76
3.165559768676758,1.16,1.03,-2.05,2.57
3.1665709018707275,1.72,1.32,-1.66,2.73
3.1772689819335938,1.57,1.45,-1.8,2.79
3.1787147521972656,0.35,2.29,-2.26,3.23
3.1921520233154297,0.01,3.31,-2.12,3.93
3.194605827331543,-0.45,4.5,-1.09,4.65
3.207552909851074,-1.9,4.75,0.17,5.11
3.214434862136841,-2.42,4.22,-0.47,4.88
3.2248787879943848,-2.23,4.36,-0.38,4.91
3.2602787017822266,-1.74,4.08,0.63,4.48
3.2620198726654053,-1.97,3.65,0.56,4.18
3.2635278701782227,-2.04,3.64,0.67,4.22
3.275566816329956,-1.71,3.52,1.19,4.09
3.277045726776123,-1.93,3.09,1.06,3.79
3.2925467491149902,-2.47,2.3,0.56,3.42
3.294039726257324,-2.79,1.25,-0.07,3.05
3.308897018432617,-3.0,0.7,-0.63,3.14
3.3137917518615723,-3.19,0.79,-1.18,3.49
3.326429843902588,-2.8,1.03,-1.7,3.43
3.3374738693237305,-1.66,1.11,-2.05,2.86
3.3648810386657715,0.06,1.04,-2.66,2.85
3.3660569190979004,1.76,0.84,-3.68,4.16
3.3672657012939453,3.61,2.39,-3.84,5.78
3.3729519844055176,4.12,4.17,-3.62,6.88
3.38284969329834,1.16,2.76,-3.91,4.92
3.3931617736816406,-1.12,0.42,-3.6,3.79
3.4031119346618652,-1.78,-0.78,-3.28,3.81
3.413191795349121,-2.19,-1.78,-3.63,4.59
3.4231977462768555,-2.25,-2.97,-3.62,5.19
3.4330997467041016,0.33,-2.44,-2.92,3.81
3.461864948272705,-0.77,-2.71,-2.84,4.0
3.4631829261779785,-3.85,-2.81,-3.63,5.99
3.464195728302002,-6.42,-2.56,-3.68,7.83
3.4751529693603516,-7.43,-2.36,-2.97,8.34
3.482759952545166,-6.93,-2.37,-2.22,7.65
3.492541790008545,-5.74,-2.39,-1.7,6.44
3.5024218559265137,-4.57,-2.34,-1.61,5.38
3.512152910232544,-3.69,-2.01,-1.72,4.54
3.52239990234375,-3.16,-1.63,-1.83,3.99
3.5322458744049072,-3.03,-1.51,-1.66,3.77
3.5621237754821777,-3.14,-1.58,-1.3,3.74
3.563572883605957,-3.21,-1.43,-0.92,3.63
3.5645909309387207,-3.4,-1.09,-0.61,3.62
3.576296806335449,-3.81,-0.74,-0.4,3.9
3.5817418098449707,-3.93,-0.4,-0.22,3.95
3.5924978256225586,-3.4,-0.22,-0.31,3.42
3.601672887802124,-2.52,-0.07,-0.61,2.59
3.6115260124206543,-1.72,0.21,-0.53,1.81
3.6216328144073486,-1.27,0.4,-0.28,1.36
3.6314377784729004,-1.23,0.67,-0.09,1.4
3.6612277030944824,-1.37,0.96,0.11,1.67
3.6627159118652344,-1.51,1.14,0.28,1.91
3.6637349128723145,-1.41,1.43,0.59,2.09
3.6766037940979004,-0.92,1.66,0.99,2.14
3.681159019470215,-0.44,1.7,1.32,2.19
3.6924667358398438,0.36,1.55,1.54,2.21
3.7010128498077393,1.64,0.92,1.31,2.29
3.7109217643737793,2.76,0.57,1.29,3.09
3.7208878993988037,3.62,0.41,1.49,3.93
3.730576992034912,4.35,0.38,1.81,4.72
3.769777774810791,4.87,0.42,2.35,5.42
3.7712109088897705,5.09,0.5,2.95,5.9
3.772207736968994,5.25,0.89,3.52,6.38
3.7931699752807617,5.48,1.31,4.09,6.96
3.794597864151001,5.5,1.36,4.73,7.38
3.809358835220337,5.25,1.14,5.31,7.55
3.810774803161621,4.83,0.81,5.75,7.55
3.8245298862457275,4.28,0.76,6.0,7.4
3.8259809017181396,3.72,3.83,5.39,7.58
3.8407819271087646,4.48,2.69,5.32,7.45
3.8682780265808105,8.44,2.34,6.82,11.1
3.869614839553833,16.25,3.5,8.22,18.54
3.870656967163086,20.14,1.82,7.35,21.51
3.8731937408447266,12.77,1.08,4.15,13.47
3.879197835922241,3.54,-1.52,1.71,4.21
3.889516830444336,-2.75,-2.84,-0.71,4.01
3.8995158672332764,-4.96,-1.61,-2.31,5.7
3.9093637466430664,-2.44,-0.63,-2.02,3.22
3.9191439151763916,1.0,1.09,-0.18,1.49
3.9291179180145264,2.16,2.79,1.32,3.76
3.9644699096679688,1.67,2.01,2.16,3.39
3.9657907485961914,1.1,-0.29,2.51,2.75
3.9667909145355225,0.16,-0.42,1.94,1.99
3.9748849868774414,-0.82,0.18,1.06,1.35
3.978468894958496,-1.08,0.09,0.73,1.3
3.991407871246338,-0.43,-0.02,0.71,0.83
3.998729705810547,0.38,0.07,0.32,0.5
4.008476734161377,0.95,0.12,-0.16,0.97
4.018462896347046,1.09,-0.1,-0.3,1.13
4.028264045715332,0.64,-0.25,-0.4,0.79
4.06518292427063,0.12,-0.1,-0.28,0.32
4.0664708614349365,-0.15,-0.02,0.08,0.17
4.067521810531616,-0.51,0.09,0.36,0.63
4.076586723327637,-1.07,0.11,0.67,1.26
4.078056812286377,-1.24,0.16,0.74,1.45
4.092582702636719,-0.94,0.39,0.91,1.36
4.0977396965026855,-0.49,0.39,0.57,0.84
4.107917785644531,0.11,0.17,0.09,0.22
4.117820739746094,0.22,-0.04,-0.31,0.38
4.127476692199707,-0.07,-0.19,-0.62,0.65
4.137702941894531,0.05,-0.33,-0.5,0.6
4.169920921325684,0.09,-0.13,-0.06,0.16
4.171084880828857,-0.18,0.09,0.23,0.3
4.172077894210815,-0.41,0.01,0.37,0.55
4.1935319900512695,-0.34,-0.07,0.47,0.58
4.19499397277832,-0.21,0.04,0.43,0.48
4.208928823471069,-0.22,0.25,-0.05,0.33
4.210414886474609,0.0,0.36,-0.57,0.67
4.225064754486084,0.31,0.32,-0.81,0.92
4.2266929149627686,0.53,0.19,-0.76,0.94
4.241361856460571,0.93,0.12,-0.62,1.12
4.269344806671143,1.31,-0.02,-0.32,1.34
4.2707719802856445,1.01,-0.16,-0.06,1.02
4.2717390060424805,0.35,-0.05,0.11,0.37
4.276224851608276,-0.04,-0.02,0.44,0.44
4.286196708679199,-0.01,-0.12,0.61,0.62
4.296574831008911,0.27,-0.19,0.4,0.51
4.306460857391357,0.45,-0.22,0.22,0.54
4.3163018226623535,0.29,-0.13,0.16,0.35
4.32614278793335,-0.31,0.01,0.22,0.38
4.335990905761719,-0.25,0.11,0.44,0.51
4.367189884185791,0.3,0.08,0.48,0.57
4.36841082572937,0.24,0.14,0.23,0.36
4.369560718536377,0.06,0.17,0.23,0.29
4.375509738922119,-0.15,0.23,0.15,0.31
4.393030881881714,-0.5,0.24,-0.24,0.6
4.395537853240967,-0.39,0.26,-0.34,0.57
4.407716751098633,-0.14,0.26,-0.21,0.36
4.415385723114014,-0.33,0.25,-0.39,0.56
4.425354957580566,-0.68,0.27,-0.62,0.95
4.435329914093018,-0.94,0.28,-0.55,1.12
4.4658918380737305,-1.25,0.21,-0.54,1.37
4.467073917388916,-1.21,0.23,-0.55,1.34
4.46829891204834,-0.49,0.29,-0.43,0.71
4.475543975830078,-0.3,0.2,-0.37,0.51
4.484961032867432,-0.6,0.15,-0.27,0.67
4.495121955871582,-0.89,0.17,-0.11,0.91
4.505013942718506,-1.24,0.32,-0.19,1.29
4.514704704284668,-1.63,0.48,-0.58,1.79
4.524672031402588,-1.52,0.51,-0.77,1.77
4.534660816192627,-1.11,0.44,-0.71,1.38
4.571745872497559,-0.94,0.38,-0.73,1.24
4.573612689971924,-0.89,0.37,-0.92,1.33
4.575027942657471,-1.16,0.47,-1.17,1.71
4.593294858932495,-1.47,0.64,-1.45,2.16
4.594793796539307,-1.69,0.76,-1.67,2.49
4.6091227531433105,-1.65,0.52,-1.73,2.44
4.610607862472534,-0.9,0.06,-1.29,1.57
4.62531590461731,0.09,-0.48,-0.37,0.61
4.626811981201172,0.69,-0.37,0.03,0.78
4.645086765289307,0.52,0.15,0.14,0.55
4.674010753631592,0.33,0.23,0.37,0.54
4.675286769866943,0.85,0.22,0.97,1.3
4.67628288269043,1.56,0.1,1.09,1.9
4.693649768829346,1.69,0.14,0.65,1.81
4.695124864578247,1.39,0.44,0.34,1.49
4.70936393737793,0.77,0.77,0.66,1.27
4.710820913314819,0.07,0.85,1.16,1.43
4.724997043609619,-0.12,1.13,1.05,1.54
4.726357936859131,0.01,1.38,0.51,1.47
4.740290880203247,-0.05,1.48,0.44,1.54
4.768317699432373,0.25,1.09,0.29,1.15
4.769718885421753,0.58,1.05,0.02,1.19
4.770754814147949,0.63,0.86,0.17,1.07
4.773221969604492,0.29,0.7,0.22,0.78
4.782578945159912,-0.34,0.76,0.18,0.85
4.792547702789307,-0.73,1.09,0.15,1.32
4.8027448654174805,-1.01,1.49,0.0,1.8
4.812548875808716,-0.9,1.47,0.28,1.74
4.82257604598999,-0.84,1.47,-0.04,1.69
4.832456827163696,-0.79,1.55,-0.63,1.85
4.868353843688965,-0.75,1.52,-0.94,1.93
4.869750022888184,-0.88,1.61,-1.2,2.19
4.870692729949951,-0.74,1.84,-1.25,2.34
4.872720718383789,-0.52,2.04,-1.26,2.45
4.881907939910889,-0.48,1.92,-1.37,2.4
4.892125844955444,-0.2,1.78,-1.27,2.19
4.902044773101807,-0.42,1.59,-1.1,1.97
4.911839962005615,-0.96,1.66,-1.18,2.25
4.921844005584717,-1.31,1.93,-1.34,2.69
4.931643962860107,-1.42,1.7,-1.31,2.57
4.941580772399902,-1.25,1.33,-1.3,2.24
4.972319841384888,-0.87,1.07,-1.51,2.04
4.973505020141602,-0.67,0.87,-1.96,2.24
4.97452187538147,-0.33,1.3,-1.92,2.34
4.993798732757568,0.95,2.78,-1.92,3.5
4.995206832885742,1.91,3.53,-2.91,4.95
5.0093889236450195,0.09,2.09,-3.71,4.25
5.010916709899902,-0.97,1.15,-3.16,3.49
5.0251359939575195,-1.51,0.92,-2.95,3.43
5.03079080581665,-2.62,0.52,-3.65,4.52
5.041268825531006,-4.09,-0.87,-3.88,5.7
5.074114799499512,-3.67,-0.98,-3.01,4.84
5.0754358768463135,-2.39,-0.4,-2.67,3.6
5.076419830322266,-4.61,-0.36,-3.4,5.73
5.093350887298584,-6.99,0.08,-3.92,8.01
5.094707012176514,-8.14,0.2,-3.74,8.96
5.109593868255615,-7.64,-0.11,-3.4,8.36
5.111025810241699,-6.33,-0.59,-3.27,7.14
5.12535285949707,-5.3,-1.04,-3.3,6.32
5.129971981048584,-4.88,-1.21,-3.27,5.99
5.1419677734375,-4.54,-1.21,-3.1,5.62
5.171363830566406,-3.88,-1.22,-2.57,4.81
5.172811985015869,-3.12,-1.41,-1.88,3.9
5.173823833465576,-2.78,-1.61,-1.42,3.51
5.193743705749512,-3.05,-1.65,-1.07,3.62
5.195240020751953,-3.58,-1.47,-0.81,3.95
5.209679841995239,-3.88,-1.2,-0.58,4.1
5.211156845092773,-3.74,-0.96,-0.39,3.88
5.2253758907318115,-3.42,-0.56,-0.17,3.46
5.229313850402832,-3.08,-0.04,0.04,3.08
5.239877700805664,-2.77,0.42,0.15,2.8
5.271207809448242,-2.64,0.95,0.39,2.83
5.272661924362183,-2.56,1.48,0.88,3.08
5.2736077308654785,-2.37,1.78,1.31,3.24
5.29371190071106,-1.92,1.89,1.59,3.12
5.295203924179077,-1.02,1.85,1.79,2.76
5.309746742248535,0.09,1.74,1.84,2.53
5.31120491027832,1.0,1.65,1.9,2.7
5.325395822525024,1.59,1.63,1.98,3.01
5.3288140296936035,1.99,1.69,2.0,3.28
5.341387748718262,2.64,1.66,2.03,3.72
5.379412889480591,3.39,1.39,2.01,4.17
5.380722999572754,3.8,1.29,2.2,4.57
5.3817138671875,3.69,1.38,2.56,4.69
5.393590927124023,3.45,1.36,2.91,4.71
5.394645690917969,3.51,1.41,3.44,5.11
5.409926891326904,3.92,1.38,3.88,5.68
5.411407947540283,4.27,1.13,4.09,6.01
5.425171852111816,4.41,0.92,4.18,6.14
5.427865982055664,4.57,0.8,4.19,6.25
5.441524028778076,4.98,1.06,4.04,6.49
5.474874973297119,5.49,2.71,3.25,6.93
5.476357936859131,7.33,1.09,2.94,7.97
5.47736382484436,9.51,1.58,4.19,10.51
5.49369478225708,10.49,1.33,5.21,11.78
5.495168924331665,10.23,-0.2,4.37,11.12
5.509792804718018,8.39,-0.57,3.5,9.1
5.511230945587158,6.14,-0.53,3.51,7.09
5.52547287940979,5.81,-0.74,3.87,7.02
5.526904821395874,8.91,-0.24,4.53,9.99
5.541566848754883,10.68,-1.24,3.44,11.28
5.574887752532959,5.78,-3.29,1.16,6.75
5.576227903366089,-0.74,-2.48,1.2,2.85
5.577263832092285,-1.27,-2.99,2.01,3.82
5.594354867935181,1.35,-4.21,1.99,4.84
5.595834732055664,2.78,-1.01,1.51,3.32
5.609831809997559,1.1,3.64,0.76,3.87
5.61130690574646,-2.81,5.93,-0.18,6.56
5.625630855560303,-4.58,5.06,0.26,6.82
5.62709379196167,-2.26,0.37,1.42,2.69
5.64158296585083,0.75,-0.9,2.22,2.51
5.675335884094238,1.99,-0.32,1.87,2.74
5.676605701446533,1.6,-0.24,1.01,1.9
5.677591800689697,0.94,-0.39,0.44,1.1
5.694561958312988,0.92,-0.6,0.11,1.1
5.695868968963623,1.12,-0.32,0.23,1.18
5.709813833236694,0.85,0.03,0.13,0.86
5.711281776428223,0.4,0.08,-0.06,0.41
5.725452899932861,0.05,0.11,-0.05,0.13
5.726852893829346,-0.26,0.38,0.72,0.85
5.741320848464966,-0.89,0.56,0.9,1.38
5.7454798221588135,-1.05,0.58,0.0,1.19
5.790940761566162,-0.87,0.35,-0.64,1.13
5.792119979858398,-0.36,0.55,-0.88,1.09
5.7931249141693115,0.14,0.54,-1.37,1.47
5.810824871063232,0.06,0.1,-1.59,1.59
5.812333822250366,-0.11,0.07,-1.65,1.65
5.826469898223877,0.17,0.08,-1.4,1.41
5.827930927276611,0.49,0.02,-0.8,0.93
5.842104911804199,0.37,0.18,-0.51,0.65
5.843547821044922,0.0,0.22,-0.2,0.29
5.858220815658569,-0.32,0.09,0.28,0.43
5.887664794921875,-0.41,-0.02,0.69,0.8
5.888988018035889,-0.22,-0.18,0.74,0.79
5.889979839324951,0.36,-0.43,0.88,1.04
5.910411834716797,0.73,-0.54,0.75,1.17
5.911446809768677,0.57,-0.42,0.18,0.73
5.92706298828125,0.33,-0.14,0.04,0.36
5.928562879562378,-0.03,0.07,0.19,0.2
5.942375898361206,-0.17,0.13,0.1,0.23
5.943865776062012,-0.13,0.01,0.03,0.13
5.958324909210205,-0.23,0.0,0.03,0.23
5.986248016357422,-0.06,0.05,0.06,0.09
5.987630844116211,0.11,0.12,0.07,0.17
5.988597869873047,0.33,0.1,0.08,0.35
5.990923881530762,0.61,-0.16,0.16,0.65
5.993336915969849,0.64,-0.37,0.14,0.75
6.0032548904418945,0.41,-0.24,-0.04,0.47
6.013556003570557,-0.16,0.08,-0.25,0.3
6.0236430168151855,-1.11,0.38,-0.38,1.23
6.033599853515625,-1.76,0.68,-0.05,1.88
6.043299913406372,-1.68,0.65,0.16,1.8
6.072941780090332,-1.01,0.44,0.28,1.13
6.074100971221924,-0.39,0.2,0.18,0.47
6.075098991394043,-0.08,0.14,-0.04,0.16
6.0936360359191895,0.03,0.21,-0.25,0.32
6.094689846038818,-0.11,0.32,-0.53,0.62
6.109656810760498,-0.42,0.37,-0.61,0.82
6.112583875656128,-0.76,0.34,-0.34,0.89
6.126727819442749,-1.06,0.3,-0.11,1.1
6.132601737976074,-1.19,0.24,-0.16,1.22
6.142533779144287,-1.23,0.15,-0.33,1.28
6.178647041320801,-1.03,0.25,-0.28,1.09
6.179961919784546,-0.59,0.32,-0.13,0.68
6.181035041809082,-0.25,0.17,-0.11,0.32
6.194634914398193,-0.18,0.04,-0.15,0.23
6.195684909820557,-0.16,-0.03,-0.24,0.29
6.20867395401001,-0.22,0.04,-0.31,0.38
6.211669921875,-0.38,0.08,-0.32,0.5
6.225918769836426,-0.53,0.25,-0.44,0.73
6.231649875640869,-0.77,0.33,-0.65,1.06
6.241907835006714,-1.01,0.28,-0.89,1.37
6.277799844741821,-0.84,0.34,-0.84,1.23
6.2790868282318115,-0.33,0.24,-0.35,0.53
6.2801268100738525,-0.03,0.14,-0.09,0.16
6.294384002685547,0.03,0.16,-0.16,0.22
6.295406818389893,-0.06,0.32,-0.31,0.44
6.309975862503052,-0.17,0.47,-0.37,0.62
6.310938835144043,0.0,0.47,-0.26,0.53
6.325881004333496,0.21,0.38,0.09,0.44
6.3310370445251465,0.3,0.15,0.38,0.5
6.341640949249268,0.45,0.24,0.54,0.74
6.375858783721924,0.42,0.76,0.4,0.95
6.377211809158325,0.46,1.25,0.01,1.33
6.378232002258301,0.56,1.55,-0.01,1.64
6.3941497802734375,0.49,1.72,-0.02,1.78
6.39520788192749,-0.05,2.13,-0.2,2.13
6.409862995147705,-0.62,2.5,-0.06,2.57
6.410905838012695,-0.86,2.58,-0.18,2.72
6.425954818725586,-0.9,2.77,-0.3,2.92
6.430237770080566,-1.01,2.75,-0.51,2.97
6.441941738128662,-1.11,2.56,-0.89,2.92
6.477252006530762,-1.17,2.61,-1.08,3.05
6.47852087020874,-1.21,2.63,-1.16,3.11
6.4795448780059814,-1.37,2.73,-1.16,3.26
6.491305828094482,-1.49,2.5,-1.18,3.14
6.492339849472046,-1.37,1.98,-1.21,2.69
6.51033091545105,-1.12,1.51,-0.99,2.12
6.511803865432739,-0.92,0.78,-0.7,1.39
6.525912761688232,-0.67,0.13,-0.47,0.82
6.529545783996582,-0.36,-0.12,-0.16,0.41
6.541852951049805,-0.17,-0.02,0.14,0.22
6.549294948577881,-0.14,-0.03,0.11,0.18
6.586216926574707,-0.16,0.01,-0.03,0.16
6.5872979164123535,-0.12,0.15,-0.03,0.19
6.58843994140625,0.14,-0.03,0.13,0.19
6.589773893356323,0.61,-0.51,0.22,0.82
6.59899377822876,0.71,0.0,-0.15,0.72
6.608654975891113,0.31,1.39,-0.7,1.58
6.618997812271118,0.52,2.24,-0.8,2.43
6.628948926925659,1.0,2.25,-0.36,2.48
6.638911724090576,1.76,2.22,0.1,2.83
6.648732900619507,1.12,1.59,-0.25,1.96
6.681654930114746,-0.69,0.62,-0.95,1.32
6.683077812194824,-1.76,0.32,-1.0,2.04
6.684084892272949,-1.54,0.69,-0.72,1.83
6.694389820098877,-0.67,1.39,-0.7,1.69
6.697979927062988,0.18,1.95,-1.01,2.2
6.709921836853027,-0.39,1.32,-2.25,2.63
6.7183427810668945,-3.44,-1.3,-3.21,4.88
6.728034973144531,-4.78,-1.92,-2.31,5.64
6.7380547523498535,-3.24,0.77,-1.82,3.79
6.748064994812012,-5.47,-0.24,-3.89,6.71
6.780252933502197,-7.86,-0.67,-5.26,9.48
6.781601905822754,-9.2,0.12,-5.07,10.5
6.78262186050415,-7.91,0.62,-4.97,9.36
6.793558835983276,-5.41,0.03,-4.7,7.16
6.797062873840332,-3.67,-0.74,-4.38,5.76
6.808835983276367,-2.78,-0.69,-4.56,5.38
6.816919803619385,-2.28,0.31,-4.76,5.28
6.8271379470825195,-2.39,0.98,-4.36,5.06
6.837352752685547,-2.99,0.72,-3.42,4.59
6.847245693206787,-3.69,0.02,-2.33,4.36
6.880138874053955,-4.37,-0.43,-1.4,4.6
6.8815460205078125,-4.77,-0.52,-0.91,4.88
6.8825788497924805,-4.98,-0.48,-0.66,5.04
6.8944807052612305,-5.19,-0.29,-0.25,5.2
6.896517753601074,-5.27,-0.13,0.39,5.28
6.910122871398926,-5.0,-0.09,1.05,5.1
6.916769027709961,-4.36,-0.23,1.51,4.61
6.926471710205078,-3.42,-0.27,1.64,3.8
6.9364800453186035,-2.62,-0.04,1.61,3.07
6.9463279247283936,-2.0,0.05,1.54,2.52
6.983634948730469,-1.5,-0.03,1.56,2.16
6.985137939453125,-0.89,-0.24,1.62,1.86
6.986140727996826,-0.04,-0.41,1.59,1.64
6.987724781036377,0.86,-0.37,1.8,2.02
6.99574089050293,1.69,-0.15,2.19,2.77
7.0100789070129395,2.27,0.03,2.55,3.41
7.015635013580322,2.43,0.25,2.96,3.83
7.025719881057739,2.61,0.69,3.27,4.24
7.035888910293579,3.1,1.07,3.72,4.95
7.045511722564697,3.92,1.19,4.17,5.84
7.082619905471802,4.85,1.17,4.17,6.5
7.083961009979248,5.72,1.21,3.78,6.96
7.085035800933838,6.37,1.37,3.14,7.23
7.094177722930908,6.89,1.56,2.52,7.5
7.095238924026489,7.64,1.67,2.19,8.12
7.111194849014282,8.6,1.66,2.11,9.0
7.114955902099609,9.15,1.51,2.24,9.54
7.12494683265686,9.03,1.14,2.6,9.46
7.134997844696045,8.02,2.55,2.72,8.84
7.144737720489502,6.97,3.52,2.52,8.2
7.182373046875,8.94,1.34,3.06,9.54
7.183754920959473,11.19,2.38,4.92,12.45
7.184738874435425,15.41,2.83,5.98,16.77
7.1947948932647705,16.37,1.03,5.46,17.28
7.195863723754883,7.71,-0.72,3.77,8.61
7.2104387283325195,-1.96,-1.11,3.13,3.85
7.214349746704102,-5.84,-2.53,2.04,6.68
7.2262818813323975,-3.86,-2.1,1.65,4.69
7.234452724456787,-0.18,0.2,1.6,1.62
7.24409294128418,1.06,3.17,1.07,3.5
7.28190279006958,0.13,4.18,0.16,4.18
7.2833428382873535,0.08,1.95,0.47,2.0
7.284350872039795,0.83,-0.45,0.92,1.31
7.294538974761963,0.62,-0.37,0.58,0.92
7.295616865158081,-0.23,-0.04,-0.18,0.29
7.310414791107178,-0.62,-0.04,-0.91,1.1
7.313529014587402,-0.31,-0.04,-1.37,1.4
7.324873924255371,0.17,0.03,-1.36,1.37
7.333614826202393,0.4,0.04,-0.91,0.99
7.343294858932495,0.1,0.08,-0.3,0.32
7.353307723999023,-0.49,0.14,0.18,0.54
7.38785982131958,-0.81,0.21,0.7,1.09
7.38902473449707,-0.9,0.26,1.08,1.42
7.390002727508545,-0.97,0.18,1.03,1.42
7.4114789962768555,-0.73,0.07,0.71,1.02
7.412942886352539,-0.09,-0.12,0.29,0.32
7.427434921264648,0.37,-0.14,0.06,0.4
7.428877830505371,0.31,0.04,-0.22,0.38
7.442227840423584,-0.19,0.19,-0.64,0.69
7.443603038787842,-0.3,0.23,-0.41,0.55
7.459611892700195,0.0,0.07,0.04,0.08
7.489579916000366,0.26,0.06,0.39,0.47
7.490968704223633,0.27,0.11,0.45,0.53
7.492038726806641,0.25,0.21,0.2,0.38
7.510706901550293,0.42,0.23,0.01,0.47
7.511737823486328,0.43,0.12,-0.2,0.48
7.527623891830444,0.36,0.13,-0.19,0.42
7.529083728790283,0.35,0.06,0.06,0.36
7.5428290367126465,0.39,0.04,0.29,0.48
7.544277906417847,0.43,0.18,0.25,0.52
7.55919885635376,0.36,0.28,0.18,0.49
7.588234901428223,0.24,0.19,0.19,0.36
7.589534759521484,0.34,0.09,0.14,0.37
7.590574741363525,0.45,-0.07,0.3,0.54
7.611025810241699,0.35,-0.15,0.42,0.56
7.612046718597412,0.09,-0.17,0.6,0.63
7.627956867218018,-0.05,-0.11,0.68,0.69
7.629446983337402,-0.06,-0.04,0.17,0.18
7.642902851104736,0.09,-0.05,-0.24,0.26
7.644384860992432,0.17,-0.12,-0.25,0.32
7.659596920013428,-0.02,-0.02,-0.21,0.21
7.68781590461731,-0.23,0.15,0.05,0.27
7.689237833023071,-0.39,0.18,0.1,0.44
7.690313816070557,-0.49,0.12,-0.04,0.5
7.711055755615234,-0.28,0.02,0.05,0.28
7.712134838104248,0.27,-0.15,0.26,0.4
7.727534770965576,0.47,-0.18,0.46,0.68
7.728911876678467,0.25,-0.05,0.19,0.31
7.743407726287842,-0.17,0.13,-0.27,0.34
7.744874954223633,-0.42,0.3,-0.2,0.55
7.759440898895264,-0.64,0.34,0.05,0.72
7.788378715515137,-0.52,0.35,-0.04,0.62
7.789789915084839,-0.19,0.18,-0.17,0.31
7.7907679080963135,-0.05,0.0,-0.19,0.19
7.811218738555908,-0.09,-0.01,-0.19,0.21
7.812146902084351,-0.21,0.05,-0.18,0.28
7.8281779289245605,-0.31,0.07,-0.21,0.38
7.829586982727051,-0.57,0.07,-0.25,0.62
7.843008041381836,-1.01,0.08,-0.36,1.07
7.844458818435669,-1.44,0.15,-0.52,1.53
7.859365940093994,-1.65,0.24,-0.11,1.67
7.8879828453063965,-1.67,0.35,0.51,1.78
7.8892107009887695,-1.35,0.6,0.74,1.65
7.890210866928101,-1.22,0.74,0.31,1.46
7.911101818084717,-1.23,0.58,-0.36,1.4
7.912153720855713,-0.94,0.34,-0.65,1.19
7.927803993225098,-0.66,0.18,-0.71,0.98
7.929286956787109,-0.25,0.02,-0.85,0.88
7.943151950836182,0.21,-0.16,-0.59,0.64
7.944562911987305,0.25,-0.18,-0.27,0.4
7.9595947265625,0.11,-0.11,-0.07,0.17
7.9873738288879395,-0.03,-0.06,0.28,0.28
7.98904275894165,-0.05,-0.03,0.37,0.37
7.990060806274414,0.0,-0.05,0.28,0.28
7.992219924926758,0.17,-0.14,0.11,0.24
7.998196840286255,0.34,-0.05,0.02,0.34
8.008195877075195,0.18,0.0,0.07,0.19
8.01817798614502,-0.06,0.15,-0.12,0.2
8.028271913528442,-0.2,0.28,-0.17,0.38
8.038188934326172,-0.39,0.59,-0.24,0.74
8.048186779022217,-0.54,0.73,-0.48,1.02
8.084778785705566,-0.6,0.75,-0.65,1.15
8.086067914962769,-0.67,0.51,-0.75,1.12
8.087129831314087,-0.72,0.25,-0.65,1.0
8.092111825942993,-0.73,0.17,-0.81,1.1
8.110726833343506,-1.0,0.32,-0.76,1.29
8.111806869506836,-1.1,0.56,-0.62,1.38
8.12559700012207,-0.29,0.84,-0.42,0.98
8.127115726470947,0.64,0.95,0.22,1.16
8.142470836639404,1.19,1.15,0.71,1.8
8.147230863571167,0.97,1.41,0.7,1.84
8.159169912338257,0.21,1.44,0.4,1.5
8.188511848449707,-0.08,1.18,0.51,1.28
8.189888000488281,-0.02,0.86,0.35,0.92
8.190942764282227,0.18,0.64,0.19,0.69
8.211456775665283,0.06,0.55,-0.24,0.6
8.21248483657837,0.0,0.66,-0.61,0.89
8.227916717529297,0.1,0.81,-0.86,1.18
8.229358911514282,-0.08,1.06,-1.06,1.5
8.242939949035645,-0.06,1.03,-0.95,1.4
8.246798038482666,0.19,0.94,-0.74,1.21
8.25963282585144,0.27,0.89,-0.5,1.05
8.2896728515625,0.59,0.64,-0.01,0.87
8.291028022766113,0.62,0.66,0.28,0.94
8.292061805725098,0.15,0.79,0.34,0.87
8.31126070022583,-0.38,0.89,0.11,0.97
8.312266826629639,-0.91,0.82,0.11,1.22
8.327931880950928,-0.96,0.48,0.37,1.13
8.329411029815674,-0.65,0.21,0.49,0.84
8.342941761016846,-0.26,0.08,0.22,0.34
8.345881938934326,-0.02,0.14,-0.03,0.14
8.359583854675293,0.12,0.29,0.03,0.31
8.389484882354736,0.23,0.31,-0.11,0.4
8.390864849090576,-0.15,0.85,-0.2,0.88
8.39186692237854,-0.67,1.39,-0.07,1.54
8.411267757415771,-1.08,1.56,-0.21,1.9
8.412267923355103,-1.26,1.85,-0.31,2.25
8.428412914276123,-1.24,2.29,-0.25,2.61
8.429857730865479,-0.99,2.35,-0.33,2.57
8.443240880966187,-0.99,1.86,-0.69,2.21
8.445065975189209,-1.08,1.93,-0.87,2.37
8.459702968597412,-1.03,1.96,-1.27,2.55
8.488313913345337,-0.56,1.91,-1.49,2.48
8.490334033966064,0.82,2.71,-1.42,3.16
8.491350889205933,1.64,2.86,-2.04,3.87
8.511772871017456,0.37,2.0,-2.75,3.42
8.513262748718262,-0.93,1.37,-2.65,3.12
8.528084754943848,-1.74,0.85,-2.29,2.99
8.529583930969238,-2.1,0.67,-2.41,3.26
8.54339075088501,-2.54,0.37,-3.02,3.96
8.544880867004395,-3.87,-0.75,-3.39,5.19
8.559708833694458,-3.75,-0.11,-2.88,4.72
8.593572854995728,-2.31,0.93,-2.44,3.48
8.594831943511963,-3.99,0.31,-3.31,5.19
8.595847845077515,-6.09,0.29,-3.93,7.25
8.612013816833496,-7.58,0.6,-3.78,8.49
8.613510847091675,-7.65,0.65,-3.5,8.43
8.628118991851807,-6.54,0.44,-3.31,7.34
8.629586696624756,-5.11,-0.06,-3.16,6.0
8.643362998962402,-3.97,-0.49,-3.18,5.11
8.644822835922241,-3.27,-0.43,-3.16,4.56
8.65972375869751,-2.86,-0.12,-2.85,4.03
8.691367864608765,-2.72,-0.17,-2.25,3.53
8.692701816558838,-2.93,-0.74,-1.67,3.45
8.693725824356079,-3.34,-1.23,-1.19,3.75
8.711634874343872,-3.66,-1.33,-0.87,3.99
8.712687015533447,-3.81,-1.1,-0.54,4.0
8.728489875793457,-3.83,-0.89,-0.16,3.93
8.729975700378418,-3.55,-0.79,0.19,3.64
8.743461847305298,-3.19,-0.69,0.52,3.3
8.744881868362427,-2.89,-0.55,0.89,3.07
8.759740829467773,-2.44,-0.37,1.31,2.79
8.791728973388672,-1.8,-0.26,1.61,2.42
8.793054819107056,-1.16,-0.21,1.61,1.99
8.794013023376465,-0.76,-0.15,1.68,1.85
8.811614036560059,-0.42,-0.03,1.93,1.97
8.812685012817383,0.05,0.25,2.15,2.16
8.828261852264404,0.62,0.56,2.2,2.35
8.82973575592041,1.06,0.82,2.13,2.51
8.843758821487427,1.23,1.16,2.34,2.88
8.845254898071289,1.53,1.29,2.83,3.46
8.859896898269653,2.25,1.03,3.05,3.92
8.891401767730713,3.05,0.79,3.18,4.47
8.892690896987915,3.63,0.72,3.25,4.92
8.893726825714111,3.94,0.65,3.23,5.13
8.91174602508545,4.09,0.79,3.25,5.28
8.912797927856445,4.3,0.86,3.14,5.39
8.928323745727539,4.41,0.78,2.99,5.38
8.929698944091797,4.39,0.78,2.94,5.34
8.943567752838135,4.4,0.73,2.88,5.3
8.94498872756958,4.59,0.7,2.84,5.44
8.959901809692383,5.16,0.48,2.69,5.83
8.961400985717773,5.78,0.05,2.34,6.23
9.011565923690796,6.11,-0.04,2.0,6.42
9.012683868408203,6.23,-0.01,1.67,6.44
9.013701915740967,6.13,0.0,1.45,6.29
9.028595924377441,5.94,0.01,1.38,6.09
9.02962875366211,5.74,-0.03,1.3,5.88
9.044610977172852,5.47,0.08,1.27,5.61
9.04605770111084,4.84,2.13,1.07,5.39
9.060407876968384,5.8,1.61,1.1,6.11
9.0618577003479,9.71,1.46,1.9,10.0
9.077521800994873,11.79,0.69,2.57,12.08
9.105466842651367,8.7,0.37,2.05,8.94
9.106767892837524,4.18,-1.17,1.34,4.54
9.107769012451172,-0.44,-2.47,0.9,2.66
9.12911581993103,-3.72,-1.51,1.37,4.24
9.13059377670288,-2.87,-0.53,1.96,3.51
9.144725799560547,-0.33,-1.7,2.07,2.69
9.146203994750977,1.12,-1.76,2.24,3.06
9.160429000854492,1.46,-0.22,2.19,2.64
9.16189193725586,1.23,1.17,2.05,2.66
9.176584720611572,0.22,1.86,1.8,2.59
9.207669734954834,-0.67,1.75,0.64,1.98
9.209027767181396,-0.86,1.09,-0.64,1.52
9.210078716278076,-0.58,0.59,-1.17,1.43
9.228847980499268,0.12,0.2,-0.88,0.91
9.230337858200073,1.19,-0.35,-0.1,1.24
9.244947910308838,2.38,-0.56,0.58,2.51
9.246429920196533,2.62,-0.36,1.0,2.82
9.260266780853271,1.73,-0.32,1.03,2.03
9.261680841445923,0.54,-0.3,0.93,1.11
9.276512861251831,-0.32,-0.11,0.85,0.91
9.305420875549316,-0.74,0.0,0.71,1.02
9.30679702758789,-0.77,0.34,0.62,1.04
9.30786681175232,-0.58,0.5,0.6,0.97
9.32860279083252,-0.05,0.63,0.5,0.8
9.329669952392578,-0.06,0.01,0.11,0.12
9.344024896621704,-0.14,-0.03,-0.17,0.22
9.34554386138916,0.04,-0.21,-0.31,0.37
9.360479831695557,-0.08,-0.52,-0.34,0.62
9.361940860748291,-0.07,-0.12,-0.38,0.4
9.376471042633057,-0.44,-0.23,-0.07,0.5
9.404356002807617,-0.52,0.1,0.36,0.64
9.405776977539062,-0.76,0.01,0.88,1.16
9.406736850738525,-0.94,0.21,0.85,1.28
9.409053802490234,-1.12,0.41,0.61,1.33
9.410408020019531,-1.01,0.52,-0.11,1.14
9.417378902435303,-0.66,0.47,-0.85,1.17
9.427644729614258,-0.36,0.55,-1.38,1.52
9.437421798706055,-0.03,0.51,-1.37,1.46
9.447713851928711,0.39,0.33,-0.94,1.06
9.457702875137329,0.56,0.3,-0.48,0.79
9.49229097366333,0.31,0.27,-0.33,0.52
9.493465900421143,-0.03,0.28,-0.25,0.37
9.494462013244629,-0.12,0.29,0.05,0.31
9.51203203201294,0.03,0.25,0.29,0.38
9.513044834136963,0.17,0.23,0.3,0.41
9.528007984161377,0.13,0.19,0.07,0.24
9.529029846191406,0.09,0.09,-0.1,0.16
9.543818950653076,0.24,-0.04,-0.02,0.24
9.546749830245972,0.38,-0.14,0.16,0.43
9.56003189086914,0.33,-0.14,0.22,0.42
9.592679023742676,0.06,-0.08,0.17,0.19
9.593986988067627,-0.2,0.11,0.24,0.33
9.594969749450684,-0.31,0.25,0.13,0.41
9.611893892288208,-0.22,0.25,-0.06,0.33
9.612865924835205,0.02,0.08,-0.25,0.26
9.627929925918579,0.25,-0.05,-0.18,0.31
9.628989696502686,0.32,-0.07,-0.14,0.35
9.643781900405884,0.2,0.02,-0.22,0.29
9.645969867706299,0.06,0.22,-0.11,0.25
9.660171031951904,-0.13,0.39,0.05,0.41
9.692649841308594,-0.36,0.45,0.02,0.57
9.694039821624756,-0.67,0.44,-0.28,0.84
9.695119857788086,-1.04,0.41,-0.66,1.29
9.712097883224487,-1.05,0.41,-0.75,1.35
9.713038921356201,-0.89,0.43,-0.68,1.19
9.728530883789062,-0.83,0.46,-0.47,1.05
9.729995727539062,-0.8,0.39,-0.22,0.91
9.743822813034058,-0.73,0.16,-0.12,0.75
9.745329856872559,-0.56,-0.36,-0.08,0.67
9.760457992553711,-0.35,-0.99,0.29,1.08
9.765085697174072,-0.33,-1.65,0.64,1.8
9.806272983551025,-0.78,-2.01,0.71,2.26
9.807515859603882,-1.06,-1.65,0.57,2.04
9.808497905731201,-0.61,-0.72,0.72,1.18
9.828991889953613,-0.34,-0.06,0.46,0.57
9.83043384552002,-0.09,0.56,-0.08,0.57
9.845019817352295,-0.07,1.06,-0.33,1.11
9.84644889831543,-0.38,1.4,-0.61,1.57
9.860821723937988,-0.83,1.36,-0.94,1.84
9.862304925918579,-1.08,1.07,-1.03,1.83
9.876535892486572,-1.14,0.59,-0.87,1.55
9.907148838043213,-0.97,0.18,-0.38,1.05
9.908565044403076,-0.85,0.02,-0.16,0.86
9.909629821777344,-0.89,0.15,-0.17,0.91
9.928797721862793,-0.68,0.16,-0.06,0.7
9.930014848709106,0.0,0.19,0.07,0.2
9.94501781463623,1.06,0.2,0.06,1.08
9.94646692276001,1.77,-0.15,-0.05,1.77
9.960672855377197,1.93,-0.35,-0.05,1.96
9.962034702301025,1.68,-0.2,-0.17,1.7
9.97663688659668,1.33,0.11,-0.36,1.38
10.00574779510498,0.93,0.24,0.08,0.96
10.007024765014648,0.74,0.38,0.55,0.99
10.0079927444458,0.82,0.26,0.78,1.16
10.029211044311523,0.74,0.18,0.84,1.13
10.030268907546997,0.33,0.67,0.78,1.07
10.045226812362671,-0.1,1.52,0.94,1.78
10.046664714813232,-0.91,1.96,1.02,2.38
10.061577796936035,-0.77,2.13,0.91,2.44
10.063077926635742,-0.5,1.98,0.62,2.13
10.077343940734863,-0.45,2.02,0.16,2.07
10.105018854141235,-0.54,2.27,-0.07,2.33
10.106408834457397,-0.39,2.42,-0.08,2.45
10.107354879379272,-0.36,2.9,-0.01,2.92
10.108973979949951,-0.55,3.29,0.1,3.33
10.112353801727295,-0.38,3.16,0.19,3.18
10.122143745422363,-0.32,2.73,-0.02,2.74
10.132526874542236,-0.77,2.53,-0.31,2.66
10.142189979553223,-1.2,2.48,-0.4,2.78
10.152362823486328,-1.43,2.31,-0.4,2.74
10.162169933319092,-1.68,1.94,-0.77,2.67
10.198120832443237,-1.72,1.86,-1.07,2.75
10.199282884597778,-1.91,2.28,-1.26,3.23
10.200301885604858,-1.79,2.58,-1.49,3.47
10.212417840957642,-1.39,2.19,-1.49,2.99
10.21340274810791,-1.2,1.32,-1.33,2.22
10.228214740753174,-1.43,1.18,-1.18,2.19
10.231518745422363,-1.74,2.05,-0.98,2.86
10.244288921356201,-1.53,1.89,-1.36,2.78
10.251554012298584,-0.05,2.11,-0.7,2.22
10.261345863342285,1.55,3.5,-0.4,3.84
10.299336910247803,0.47,2.59,-1.34,2.95
10.300711870193481,-1.25,1.0,-2.03,2.58
10.301683902740479,-2.55,-0.34,-2.36,3.49
10.312397956848145,-3.94,-1.72,-2.4,4.92
10.313436031341553,-5.02,-3.23,-2.58,6.5
10.328580856323242,-2.48,-2.74,-2.64,4.54
10.330732822418213,-1.98,-2.0,-3.29,4.32
10.343698024749756,-4.4,-1.12,-4.27,6.23
10.350663900375366,-6.57,-0.52,-4.59,8.03
10.360754013061523,-7.82,-0.47,-4.02,8.8
10.398576736450195,-7.8,-0.62,-3.16,8.43
10.399953842163086,-7.07,-0.88,-2.57,7.57
10.400960922241211,-6.24,-0.95,-2.43,6.76
10.412353038787842,-5.7,-0.54,-2.55,6.26
10.41343069076538,-5.63,0.1,-2.43,6.13
10.428640842437744,-5.82,0.55,-1.78,6.11
10.429975032806396,-5.97,0.65,-1.2,6.12
10.444040775299072,-6.0,0.87,-1.02,6.14
10.450104713439941,-5.79,1.35,-1.26,6.07
10.460517883300781,-5.32,1.66,-1.65,5.81
10.495951890945435,-4.53,1.72,-1.76,5.15
10.497304916381836,-3.49,1.68,-1.55,4.17
10.49831771850586,-2.51,1.49,-1.14,3.13
10.512409925460815,-1.69,1.12,-0.74,2.15
10.513453006744385,-0.95,0.92,-0.52,1.42
10.528892040252686,-0.35,0.92,-0.38,1.05
10.53023386001587,-0.01,0.75,-0.04,0.75
10.544112920761108,0.38,0.34,0.57,0.76
10.549257755279541,1.06,0.03,1.19,1.59
10.560500860214233,1.67,-0.18,1.51,2.25
10.569206714630127,2.02,-0.39,1.73,2.68
10.604033946990967,2.24,-0.28,2.11,3.09
10.605206966400146,2.42,0.23,2.6,3.55
10.606363773345947,2.73,0.51,3.21,4.24
10.608741760253906,3.14,0.63,3.82,4.98
10.618604898452759,3.57,1.1,4.01,5.48
10.628811836242676,4.26,1.67,3.86,5.98
10.638731002807617,5.25,2.05,3.81,6.8
10.648658752441406,6.38,2.1,3.74,7.68
10.658740043640137,7.39,1.86,3.27,8.29
10.668392896652222,8.23,1.72,2.6,8.8
10.702192783355713,9.13,1.67,2.35,9.57
10.703625917434692,9.86,1.42,2.53,10.27
10.704701900482178,10.04,0.9,2.55,10.39
10.708593845367432,9.43,1.58,2.41,9.86
10.717920780181885,8.82,0.94,1.96,9.08
10.728680849075317,9.32,-1.19,1.51,9.51
10.738205909729004,9.41,-0.66,1.55,9.55
10.747732877731323,9.1,0.56,0.82,9.15
10.757935047149658,8.65,1.96,0.19,8.87
10.767813920974731,11.53,3.67,0.6,12.11
10.799252033233643,11.14,1.99,1.04,11.36
10.800596714019775,6.19,-0.58,1.07,6.3
10.801624774932861,0.37,-1.42,1.0,1.77
10.810717821121216,-5.38,-1.93,0.94,5.79
10.817249774932861,-6.66,0.33,3.12,7.36
10.82862377166748,-3.81,1.81,6.01,7.34
10.837306022644043,-1.02,1.24,5.94,6.15
10.846879959106445,-0.4,1.24,4.44,4.62
10.85759687423706,-0.48,0.68,2.36,2.5
10.866941928863525,-0.31,-0.31,1.0,1.09
10.898537874221802,0.29,-0.68,0.61,0.95
10.899902820587158,1.13,-0.55,0.66,1.41
10.900918960571289,2.07,-0.54,0.38,2.17
10.912367820739746,3.04,-0.45,0.37,3.09
10.916297912597656,3.8,-0.31,0.62,3.86
10.926416873931885,3.64,-0.09,0.32,3.65
10.936311721801758,2.11,0.15,-0.27,2.13
10.946255922317505,0.26,0.27,-0.56,0.67
10.956151962280273,-1.05,0.35,-0.09,1.11
10.96613073348999,-1.42,0.32,0.77,1.64
11.003844738006592,-1.15,0.23,1.04,1.56
11.005241870880127,-1.41,0.17,0.11,1.42
11.00616192817688,-1.56,0.45,-0.34,1.65
11.008893013000488,-0.76,0.33,0.06,0.83
11.01546573638916,0.28,0.0,0.28,0.39
11.02576494216919,0.69,-0.09,-0.04,0.69
11.03550672531128,0.37,0.07,-0.56,0.67
11.045825958251953,-0.04,0.17,-0.59,0.61
11.055484771728516,-0.21,0.11,-0.25,0.34
11.065632820129395,-0.45,0.32,0.09,0.55
11.101937770843506,-0.7,0.49,0.09,0.85
11.103248834609985,-0.64,0.38,-0.46,0.87
11.10436487197876,-0.27,0.33,-1.03,1.11
11.109333992004395,0.26,0.31,-1.21,1.27
11.114813804626465,0.53,0.27,-1.08,1.23
11.129117012023926,0.55,0.2,-0.82,1.0
11.134615898132324,0.54,0.15,-0.54,0.77
11.144603729248047,0.38,0.04,-0.22,0.44
11.154904842376709,0.18,-0.02,0.04,0.18
11.164572715759277,-0.06,-0.01,0.11,0.12
11.200253963470459,-0.31,-0.02,0.11,0.32
11.201546907424927,-0.33,-0.01,0.13,0.35
11.202549934387207,-0.28,0.0,0.12,0.3
11.212785720825195,-0.39,0.12,0.13,0.42
11.213833808898926,-0.39,0.34,0.06,0.52
11.22909688949585,-0.43,0.32,0.08,0.54
11.233954906463623,-0.49,0.33,0.03,0.59
11.244096755981445,-0.37,0.32,0.0,0.48
11.253928899765015,0.02,0.15,0.08,0.17
11.264017820358276,0.35,-0.02,-0.18,0.39
11.299461841583252,0.46,-0.05,-0.24,0.52
11.300769805908203,0.64,-0.04,0.03,0.64
11.301790714263916,0.77,-0.09,0.21,0.8
11.312902927398682,0.79,-0.15,0.41,0.9
11.313985824584961,0.76,-0.16,0.42,0.88
11.329001903533936,0.73,-0.05,0.45,0.85
11.333008766174316,0.48,0.0,0.16,0.5
11.34325385093689,0.24,0.13,-0.1,0.29
11.353291034698486,0.1,0.27,-0.2,0.35
11.363053798675537,-0.07,0.38,-0.37,0.53
11.373143911361694,-0.24,0.37,-0.3,0.53
11.405004024505615,-0.59,0.31,-0.17,0.68
11.406167030334473,-1.02,0.29,0.03,1.06
11.407364845275879,-1.3,0.2,0.26,1.34
11.412578821182251,-1.46,0.13,0.21,1.48
11.422473907470703,-1.67,0.16,-0.28,1.7
11.432891845703125,-1.62,0.22,-0.71,1.78
11.442551851272583,-1.43,0.21,-0.56,1.55
11.452569007873535,-1.07,0.05,-0.05,1.07
11.462524890899658,-0.57,-0.29,0.4,0.75
11.472362041473389,-0.2,-0.66,0.65,0.94
11.502952814102173,-0.01,-1.1,0.78,1.34
11.504143714904785,-0.13,-1.39,0.69,1.55
11.505502700805664,-0.75,-1.34,-0.11,1.53
11.511802911758423,-0.34,-0.4,-0.32,0.61
11.521731853485107,0.82,0.47,0.68,1.16
11.531855821609497,1.01,0.6,0.42,1.24
11.541781902313232,0.5,0.64,-0.26,0.85
11.551898956298828,0.11,0.74,-0.41,0.85
11.561725854873657,-0.25,0.87,-0.99,1.34
11.571654796600342,-0.38,0.67,-1.35,1.55
11.6024489402771,-0.22,0.42,-1.05,1.15
11.603614807128906,-0.19,0.32,-0.6,0.7
11.604776859283447,-0.74,0.13,-0.49,0.89
11.611080884933472,-1.01,-0.12,-0.02,1.01
11.621018886566162,-0.67,-0.23,0.73,1.01
11.630798816680908,0.12,-0.25,1.19,1.22
11.641000747680664,1.15,-0.17,1.01,1.53
11.651110887527466,1.69,-0.6,0.44,1.84
11.661073923110962,1.85,-1.2,0.27,2.22
11.670974731445312,1.86,-1.06,0.46,2.18
11.70141077041626,1.34,-0.64,0.69,1.63
11.702818870544434,0.49,-0.37,1.14,1.29
11.70381784439087,-0.07,-0.29,1.57,1.59
11.712167739868164,-0.3,-0.16,1.63,1.66
11.720390796661377,-0.47,0.06,1.31,1.39
11.730125904083252,-0.5,0.07,0.62,0.79
11.740188837051392,-0.18,0.18,0.18,0.31
11.750239849090576,0.09,0.32,0.17,0.37
11.760376930236816,-0.18,0.22,0.13,0.31
11.770153999328613,-0.7,0.23,0.11,0.74
11.806773900985718,-0.79,0.38,0.02,0.87
11.808182716369629,-0.25,0.58,0.03,0.63
11.809247016906738,0.43,0.65,-0.13,0.79
11.829846858978271,0.63,0.7,-0.55,1.09
11.830919742584229,0.31,1.03,-1.21,1.61
11.846158027648926,0.12,1.44,-1.76,2.27
11.847622871398926,0.02,1.92,-1.74,2.59
11.861918926239014,-0.57,2.07,-1.17,2.44
11.863406896591187,-0.9,2.78,-0.53,2.96
11.877616882324219,-1.06,2.73,-0.37,2.95
11.905182838439941,-1.04,2.8,-0.34,3.0
11.90645694732666,-0.76,3.1,0.26,3.2
11.907450914382935,-1.2,3.19,0.18,3.41
11.910027980804443,-1.52,3.22,-0.04,3.56
11.918616771697998,-1.48,2.95,0.11,3.3
11.928741931915283,-1.18,2.73,0.29,2.98
11.938618898391724,-1.19,2.51,0.37,2.8
11.94851303100586,-1.35,2.38,0.14,2.73
11.95903491973877,-1.47,2.27,0.0,2.7
11.968618869781494,-1.67,2.09,-0.09,2.67
12.003829956054688,-1.9,1.73,-0.09,2.57
12.005062818527222,-2.15,1.45,-0.11,2.59
12.006139755249023,-1.89,1.06,-0.15,2.17
12.009078979492188,-1.51,1.05,-0.43,1.88
12.029868841171265,-1.76,1.07,-0.96,2.27
12.030914783477783,-1.81,1.11,-1.45,2.57
12.045191764831543,-1.37,1.0,-1.69,2.39
12.047945976257324,-0.88,0.56,-1.94,2.2
12.061141967773438,-0.43,0.79,-2.01,2.2
12.067808866500854,-0.26,1.45,-1.98,2.46
12.103635787963867,-0.17,2.26,-1.57,2.75
12.10483694076538,0.17,2.9,-0.8,3.01
12.10594391822815,1.12,3.94,0.04,4.09
12.107173919677734,0.35,3.66,-0.32,3.69
12.12921690940857,-0.56,3.03,-0.87,3.2
12.130276918411255,-0.65,2.36,-1.07,2.67
12.144714832305908,-1.16,1.4,-2.25,2.89
12.146914958953857,-2.6,-0.02,-3.55,4.4
12.161366939544678,-4.18,-2.09,-4.03,6.17
12.16731882095337,-4.04,-1.53,-3.73,5.7
12.177733898162842,-2.33,-0.29,-2.95,3.77
12.20842695236206,-3.34,-0.79,-3.05,4.59
12.20972204208374,-5.39,-1.09,-3.85,6.71
12.210736751556396,-6.99,-1.08,-3.98,8.11
12.230010986328125,-7.22,-1.15,-3.42,8.07
12.231092929840088,-6.23,-1.39,-2.69,6.92
12.246114730834961,-4.6,-1.83,-2.1,5.37
12.247582912445068,-3.3,-2.31,-2.03,4.51
12.26210880279541,-2.74,-2.4,-2.08,4.19
12.266356945037842,-2.55,-2.26,-1.92,3.91
12.277678966522217,-2.37,-2.1,-1.47,3.49
12.307463884353638,-2.31,-2.17,-0.94,3.3
12.308852910995483,-2.49,-2.4,-0.46,3.48
12.309854984283447,-2.91,-2.54,-0.31,3.87
12.329663753509521,-3.45,-2.48,-0.27,4.25
12.330691814422607,-3.82,-2.19,0.05,4.4
12.346142768859863,-3.85,-1.74,0.37,4.24
12.347622871398926,-3.33,-1.08,0.55,3.54
12.361857891082764,-2.65,-0.34,0.6,2.73
12.365470886230469,-2.14,0.27,0.6,2.23
12.377806901931763,-1.94,0.92,0.67,2.24
12.40687084197998,-1.93,1.58,0.88,2.64
12.408341884613037,-1.51,2.26,1.19,2.96
12.409310817718506,-0.54,2.75,1.27,3.07
12.430094718933105,0.46,2.79,1.06,3.01
12.431184768676758,1.13,2.67,0.88,3.02
12.446562767028809,1.55,2.52,1.16,3.17
12.448020935058594,1.89,2.32,1.79,3.48
12.462131023406982,2.3,2.32,2.34,4.01
12.464828968048096,2.63,2.34,2.72,4.44
12.478055000305176,2.75,2.24,2.92,4.59
12.506805896759033,2.91,2.08,2.87,4.58
12.508083820343018,3.28,1.6,2.71,4.54
12.509052753448486,3.71,1.12,2.88,4.82
12.529997825622559,4.06,0.68,3.26,5.25
12.531009912490845,4.38,0.36,3.49,5.61
12.54672884941101,4.88,0.34,3.58,6.06
12.548227787017822,5.46,0.35,3.46,6.47
12.562175750732422,5.61,0.13,3.22,6.46
12.564070701599121,5.21,-0.13,2.95,5.98
12.577966690063477,4.65,-0.22,2.79,5.42
12.611784934997559,4.49,-0.31,2.75,5.27
12.613083839416504,4.75,-0.57,2.66,5.47
12.614099025726318,5.0,-0.88,2.48,5.65
12.615149021148682,4.92,-1.07,2.07,5.44
12.6233549118042,4.33,0.38,1.65,4.64
12.633413791656494,3.53,2.12,0.78,4.19
12.643474817276001,4.65,0.23,0.14,4.65
12.653701782226562,6.05,-0.38,1.16,6.17
12.663372993469238,7.56,0.29,2.09,7.84
12.67349100112915,10.66,-0.43,2.01,10.85
12.710656881332397,11.62,0.19,1.92,11.77
12.712029933929443,7.74,1.81,2.15,8.23
12.713014841079712,1.67,1.82,2.51,3.52
12.73014497756958,-2.3,1.07,2.21,3.36
12.731202840805054,-2.65,1.21,1.85,3.45
12.746170043945312,-1.91,1.52,1.13,2.68
12.747585773468018,-1.41,1.47,0.69,2.15
12.762077808380127,-0.4,0.45,1.13,1.28
12.76354169845581,1.1,-0.33,2.11,2.4
12.777912855148315,1.64,-0.11,1.26,2.07
12.808837890625,1.16,0.05,-0.33,1.2
12.810181856155396,0.97,-0.33,-0.58,1.17
12.811237812042236,1.25,-0.55,-0.59,1.48
12.83023977279663,1.31,-0.15,-1.08,1.7
12.831256866455078,1.25,0.1,-0.84,1.5
12.84609603881836,1.18,-0.05,0.09,1.18
12.847532749176025,0.83,-0.12,1.18,1.44
12.862148761749268,0.21,0.0,1.97,1.98
12.863619804382324,-0.45,-0.1,1.92,1.97
12.878094911575317,-0.69,-0.06,1.22,1.4
12.909859895706177,-0.71,0.17,0.62,0.95
12.91133975982666,-0.45,0.19,-0.26,0.55
12.912360906600952,-0.4,0.09,-0.64,0.76
12.930556774139404,-0.16,0.15,-0.69,0.72
12.9320387840271,-0.03,-0.04,-0.6,0.6
12.946393966674805,-0.09,-0.04,-0.57,0.57
12.947762966156006,-0.46,0.03,-0.62,0.77
12.961777925491333,-0.94,0.25,-0.66,1.17
12.963234901428223,-1.27,0.41,-0.59,1.45
12.978067874908447,-0.86,0.31,-0.48,1.03
12.9808669090271,-0.23,0.23,-0.2,0.38
13.025360822677612,-0.08,0.32,-0.05,0.33
13.026515007019043,0.03,0.26,-0.1,0.28
13.027447700500488,0.42,0.18,-0.09,0.46
13.047929763793945,0.61,0.2,-0.15,0.65
13.049449920654297,0.51,0.11,-0.1,0.53
13.063072919845581,0.54,-0.09,0.11,0.55
13.064558029174805,0.71,-0.16,0.53,0.9
13.07866096496582,0.77,-0.18,0.7,1.05
13.08012580871582,0.66,-0.08,0.64,0.92
13.095188856124878,0.39,-0.02,0.61,0.72
13.126089811325073,0.07,-0.03,0.5,0.5
13.127381801605225,0.18,0.06,0.56,0.59
13.128390789031982,0.35,-0.03,0.52,0.62
13.14709997177124,0.3,-0.09,0.43,0.53
13.148128986358643,0.16,-0.08,0.31,0.35
13.163365840911865,0.04,0.0,0.22,0.22
13.16481876373291,-0.21,0.23,0.23,0.38
13.178858757019043,-0.53,0.42,0.02,0.67
13.180309772491455,-0.69,0.52,-0.1,0.86
13.194952011108398,-0.38,0.34,-0.16,0.53
13.22345495223999,-0.24,0.17,-0.4,0.49
13.224867820739746,-0.33,0.06,-0.58,0.67
13.225872039794922,-0.54,0.08,-0.59,0.8
13.24691891670227,-0.77,0.28,-0.5,0.95
13.24800181388855,-0.92,0.39,-0.52,1.12
13.26354169845581,-0.72,0.3,-0.46,0.9
13.265012741088867,-0.41,0.21,-0.32,0.56
13.278714895248413,-0.34,0.1,-0.16,0.38
13.280160903930664,-0.22,0.12,-0.18,0.3
13.295097827911377,-0.13,0.2,-0.21,0.31
13.322913885116577,-0.25,0.16,-0.19,0.35
13.324413776397705,-0.13,0.08,-0.08,0.17
13.325422763824463,0.05,-0.04,0.13,0.14
13.327958822250366,0.2,-0.18,0.28,0.38
13.329288959503174,0.22,-0.36,0.56,0.7
13.338113784790039,0.19,-0.43,0.58,0.74
13.348213911056519,0.09,-0.47,0.39,0.61
13.358402729034424,-0.25,-0.53,0.23,0.62
13.368209838867188,-0.68,-0.53,0.0,0.86
13.378069877624512,-0.94,-0.41,-0.05,1.02
13.415334701538086,-1.28,-0.21,0.08,1.29
13.416563987731934,-1.85,0.29,-0.11,1.87
13.417573928833008,-2.12,0.95,-0.33,2.34
13.430698871612549,-2.37,1.29,-0.67,2.78
13.431736946105957,-2.21,1.32,-1.07,2.78
13.446860790252686,-1.05,1.04,-0.8,1.68
13.448291778564453,-0.08,0.42,-1.08,1.16
13.462416887283325,0.89,-0.14,-1.05,1.38
13.467270851135254,1.13,-0.49,-0.49,1.32
13.47819185256958,0.61,-0.74,0.09,0.96
13.514774799346924,0.1,-0.43,0.29,0.52
13.516090869903564,-0.06,-0.1,0.4,0.41
13.517104864120483,0.15,0.0,0.7,0.71
13.530780792236328,0.37,-0.03,0.72,0.81
13.531837940216064,0.66,-0.07,0.51,0.83
13.546702861785889,1.15,-0.36,0.65,1.36
13.548213958740234,1.42,-0.67,1.31,2.04
13.562604904174805,1.27,-0.69,1.81,2.31
13.56658387184143,0.85,-0.43,2.02,2.23
13.578333854675293,0.48,-0.06,1.57,1.64
13.614446878433228,0.35,0.28,0.29,0.53
13.616355895996094,0.54,0.45,-0.85,1.1
13.61732292175293,0.54,0.51,-1.56,1.72
13.631035804748535,0.34,0.65,-1.82,1.96
13.632508754730225,0.27,0.6,-1.56,1.69
13.646514892578125,0.5,0.99,-0.81,1.37
13.647954940795898,0.05,0.81,0.1,0.81
13.662633895874023,-0.41,0.96,0.58,1.19
13.66580080986023,-0.75,1.4,1.05,1.9
13.67837381362915,-1.26,1.44,1.02,2.16
13.713092803955078,-1.66,2.11,1.28,2.97
13.714430809020996,-1.64,2.22,1.25,3.02
13.71541976928711,-1.4,2.41,0.84,2.91
13.730685710906982,-1.46,2.74,0.12,3.1
13.73172903060913,-1.49,2.8,-0.45,3.2
13.746853828430176,-1.06,2.84,-0.89,3.15
13.74834394454956,-0.49,2.79,-1.18,3.06
13.76252794265747,-0.13,2.54,-1.14,2.78
13.765038967132568,-0.31,2.33,-1.3,2.68
13.77856969833374,-0.58,2.32,-1.38,2.76
13.785054922103882,-0.78,2.34,-1.26,2.76
13.824328899383545,-1.09,2.21,-1.18,2.73
13.825471878051758,-1.46,1.83,-1.17,2.61
13.826451778411865,-1.41,1.45,-1.04,2.27
13.847786903381348,-1.09,1.24,-0.76,1.81
13.849248886108398,-1.03,0.9,-0.62,1.5
13.86372685432434,-0.92,0.64,-0.59,1.26
13.865190982818604,-0.7,0.25,-0.43,0.85
13.879134893417358,-0.8,-0.12,-0.67,1.05
13.880635738372803,-0.49,-0.2,-0.29,0.6
13.895558834075928,-0.03,-0.21,-0.05,0.21
13.924216747283936,0.26,0.3,-0.1,0.4
13.92553186416626,0.46,0.92,-0.06,1.03
13.92651891708374,1.16,1.37,0.14,1.8
13.947250843048096,2.33,2.32,0.11,3.28
13.948283910751343,2.08,2.23,-0.7,3.12
13.96397089958191,0.83,1.36,-1.58,2.24
13.965415954589844,0.04,0.17,-1.83,1.83
13.979270935058594,-0.54,-0.53,-2.16,2.28
13.980729818344116,-0.94,-0.4,-2.49,2.69
13.996928691864014,-1.11,-0.18,-2.42,2.66
14.02593183517456,-0.95,-0.29,-2.2,2.41
14.02724289894104,-1.01,-1.03,-2.41,2.8
14.02820086479187,-1.56,-3.31,-2.76,4.58
14.047261714935303,-0.07,-3.03,-2.51,3.93
14.048736810684204,-0.26,-1.44,-2.46,2.86
14.06390380859375,-3.18,-2.3,-3.58,5.31
14.065392971038818,-5.81,-2.69,-3.8,7.44
14.079250812530518,-7.36,-2.62,-2.69,8.26
14.080716848373413,-7.02,-2.25,-1.44,7.51
14.09537386894226,-5.51,-2.18,-0.74,5.97
14.125008821487427,-4.28,-2.34,-0.75,4.93
14.126802921295166,-4.01,-2.13,-1.27,4.71
14.127808809280396,-4.45,-1.36,-1.38,4.85
14.147544860839844,-4.77,-0.42,-0.64,4.83
14.148959875106812,-4.48,0.01,0.52,4.51
14.163833856582642,-4.14,0.12,1.31,4.34
14.165289878845215,-4.11,0.37,1.22,4.3
14.179512023925781,-4.23,0.84,0.49,4.34
14.18101978302002,-4.17,1.25,-0.13,4.35
14.195518016815186,-3.52,1.38,-0.28,3.79
14.225234031677246,-2.47,1.33,-0.17,2.81
14.226586818695068,-1.44,1.39,-0.13,2.0
14.227597713470459,-0.94,1.54,-0.36,1.83
14.247349739074707,-1.06,1.66,-0.81,2.12
14.248798847198486,-1.29,1.78,-1.08,2.44
14.263837814331055,-1.04,1.63,-1.16,2.25
14.265260696411133,-0.48,1.25,-1.16,1.77
14.279139995574951,0.16,0.94,-0.94,1.33
14.280620813369751,0.64,0.78,-0.82,1.3
14.296531915664673,0.73,0.74,-0.61,1.2
14.329494953155518,0.43,0.65,-0.26,0.82
14.330873012542725,0.08,0.57,0.16,0.59
14.331882953643799,0.27,0.63,0.5,0.84
14.34824800491333,0.7,0.6,0.58,1.08
14.349701881408691,0.9,0.8,0.66,1.37
14.363953828811646,0.76,1.01,0.92,1.56
14.365339756011963,0.64,1.0,1.42,1.85
14.378170013427734,1.0,0.73,1.97,2.32
14.379572868347168,1.58,0.21,2.34,2.83
14.394150733947754,2.09,-0.11,2.51,3.26
14.423085927963257,2.52,-0.18,2.6,3.62
14.424438953399658,2.96,-0.19,2.78,4.06
14.4254469871521,3.46,-0.35,3.06,4.63
14.427856922149658,4.1,-0.59,3.4,5.35
14.42983102798462,4.78,-0.88,3.63,6.06
14.43979287147522,5.34,-1.11,3.61,6.54
14.449883937835693,5.77,-1.2,3.5,6.85
14.459881782531738,6.16,-1.21,3.47,7.17
14.46985673904419,6.51,-1.07,3.5,7.46
14.479798793792725,6.78,-0.88,3.38,7.62
14.515833854675293,6.98,-0.42,3.07,7.63
14.51702070236206,8.47,3.24,1.75,9.23
14.518035888671875,11.47,2.44,0.9,11.76
14.531208038330078,15.13,3.2,2.08,15.6
14.532269954681396,15.19,2.36,4.64,16.05
14.546796798706055,9.42,-0.98,3.89,10.23
14.548836708068848,-0.2,-1.02,2.67,2.86
14.562800884246826,-8.04,-0.33,1.91,8.27
14.569041728973389,-8.06,1.23,2.17,8.43
14.578943729400635,-3.2,2.12,1.58,4.15
14.588961839675903,-0.65,2.98,0.14,3.05
14.62125301361084,0.55,1.64,0.59,1.82
14.622413873672485,1.68,-0.93,2.3,2.99
14.623579025268555,2.33,-1.08,2.32,3.46
14.628543853759766,2.1,-0.32,0.72,2.24
14.638096809387207,1.83,-0.39,-0.34,1.9
14.648131847381592,1.9,-0.5,-0.27,1.98
14.658507823944092,1.49,-0.17,-0.03,1.49
14.668231964111328,0.47,-0.13,0.0,0.48
14.678279876708984,-0.4,0.05,0.4,0.56
14.688251972198486,-0.72,0.3,0.8,1.11
14.719787836074829,-0.63,0.39,0.83,1.11
14.72099494934082,-0.44,0.16,0.58,0.74
14.722107887268066,-0.08,0.08,0.28,0.3
14.72792100906372,-0.09,0.24,-0.14,0.29
14.737725734710693,-0.06,0.33,-0.57,0.66
14.7474946975708,0.02,0.3,-0.7,0.76
14.757755756378174,0.08,0.19,-0.64,0.67
14.767624855041504,-0.08,0.17,-0.35,0.39
14.77768588066101,-0.23,0.02,-0.44,0.49
14.787549018859863,-0.61,0.12,-0.51,0.8
14.81897783279419,-0.64,0.23,-0.11,0.68
14.820415019989014,-0.21,0.16,0.29,0.39
14.821399927139282,0.27,0.01,0.28,0.38
14.831460952758789,0.35,0.05,-0.06,0.35
14.836769819259644,0.35,0.18,-0.13,0.41
14.847052812576294,0.34,0.23,-0.35,0.53
14.85706377029419,0.24,0.16,-0.62,0.68
14.866816997528076,0.33,0.02,-0.46,0.56
14.876940727233887,0.29,-0.08,-0.07,0.3
14.886765956878662,0.15,-0.02,0.24,0.28
14.918190956115723,0.02,0.04,0.43,0.43
14.919517040252686,-0.12,0.07,0.47,0.49
14.920506954193115,-0.11,0.09,0.43,0.45
14.929833889007568,-0.09,0.05,0.5,0.51
14.936182975769043,0.12,-0.14,0.56,0.58
14.94675874710083,0.35,-0.26,0.73,0.85
14.956192016601562,0.3,-0.23,0.73,0.82
14.965879917144775,0.14,-0.21,0.46,0.52
14.976364850997925,-0.03,-0.08,0.11,0.13
14.986104011535645,-0.14,0.1,-0.18,0.24
15.024421691894531,0.09,0.13,0.07,0.17
15.025792837142944,0.43,0.03,0.38,0.57
15.026861906051636,0.69,-0.04,0.24,0.73
15.04809284210205,0.67,-0.02,0.13,0.68
15.049588918685913,0.36,0.07,0.22,0.42
15.064497947692871,-0.02,0.12,0.24,0.26
15.065890789031982,-0.49,0.24,0.2,0.58
15.079373836517334,-0.65,0.28,0.11,0.71
15.080835819244385,-0.63,0.21,0.09,0.67
15.095801830291748,-0.55,0.21,0.03,0.58
15.125937938690186,-0.75,0.32,-0.38,0.89
15.127371788024902,-0.92,0.39,-0.63,1.18
15.128399848937988,-0.7,0.42,-0.3,0.86
15.1476469039917,-0.62,0.35,-0.27,0.76
15.149057865142822,-0.73,0.23,-0.59,0.96
15.1642746925354,-0.82,0.17,-0.71,1.09
15.16573190689087,-0.86,0.1,-0.66,1.08
15.17992091178894,-1.15,0.05,-0.57,1.28
15.181411743164062,-1.28,0.11,-0.56,1.4
15.195923805236816,-0.89,0.18,-0.14,0.91
15.224458694458008,-0.4,0.18,0.45,0.62
15.225852012634277,-0.21,0.01,0.52,0.56
15.226847887039185,-0.07,-0.15,0.2,0.25
15.247628927230835,-0.07,-0.14,0.12,0.19
15.248612880706787,-0.5,-0.07,-0.03,0.5
15.264549732208252,-0.97,0.14,-0.21,1.0
15.266055822372437,-1.23,0.3,-0.5,1.36
15.27981686592102,-0.25,0.46,0.01,0.52
15.2813138961792,0.63,0.31,0.35,0.78
15.29644775390625,0.74,0.13,0.05,0.75
15.325372695922852,0.45,0.07,-0.56,0.72
15.32668685913086,0.19,0.14,-0.92,0.94
15.32770299911499,-0.14,0.18,-0.91,0.93
15.348042011260986,-0.29,-0.03,-0.26,0.39
15.349515914916992,-0.39,-0.14,0.3,0.51
15.36432695388794,-0.67,0.03,0.31,0.73
15.365756034851074,-0.97,0.27,0.06,1.0
15.376370906829834,-1.23,0.48,-0.42,1.38
15.377336025238037,-0.96,0.66,-0.79,1.4
15.393194913864136,-0.03,0.77,-0.65,1.0
15.39415979385376,0.78,0.78,-0.81,1.36
15.440590858459473,1.48,0.85,-0.58,1.8
15.44173288345337,1.65,0.71,0.15,1.8
15.442840814590454,1.31,0.61,0.62,1.57
15.444264888763428,0.58,0.81,1.08,1.46
15.445658922195435,-0.13,1.11,1.26,1.68
15.452340841293335,-0.59,1.65,0.99,2.01
15.462263822555542,-0.59,1.75,0.06,1.84
15.47256588935852,-0.57,2.49,-0.19,2.56
15.482264995574951,-0.79,2.13,-0.37,2.3
15.492166996002197,-1.02,1.75,-0.76,2.16
15.521522998809814,-1.02,1.45,-0.89,1.98
15.522647857666016,-0.96,1.33,-0.75,1.8
15.52402400970459,-0.84,1.37,-0.58,1.7
15.531524896621704,-0.87,1.55,-0.61,1.87
15.541475772857666,-0.78,1.98,-0.64,2.22
15.551362991333008,-0.69,2.02,-0.78,2.27
15.56137990951538,-0.36,1.73,-0.58,1.85
15.571704864501953,0.17,1.45,-0.14,1.46
15.581507921218872,0.47,0.93,-0.12,1.04
15.59143590927124,0.53,0.81,-0.33,1.02
15.62163782119751,0.35,1.04,-0.25,1.12
15.622813701629639,-0.01,1.01,-0.19,1.02
15.624071836471558,-0.34,0.9,-0.51,1.08
15.630805969238281,-0.64,0.96,-0.79,1.39
15.640698909759521,-0.98,1.02,-0.98,1.72
15.650922775268555,-1.16,1.05,-1.02,1.86
15.660693883895874,-1.25,1.03,-1.1,1.95
15.670928001403809,-1.26,1.06,-1.11,1.98
15.680554866790771,-1.01,1.48,-1.07,2.08
15.690752029418945,0.35,2.52,-0.77,2.65
15.720537900924683,1.5,3.02,-1.31,3.61
15.721722841262817,0.28,1.48,-2.06,2.55
15.723012924194336,-0.59,0.26,-2.12,2.21
15.730130910873413,-0.91,-0.41,-2.28,2.48
15.74020791053772,-1.75,-1.49,-2.39,3.31
15.749936819076538,-2.5,-2.43,-2.35,4.2
15.760020732879639,-0.73,-1.78,-1.94,2.73
15.770144939422607,-1.49,-1.27,-1.95,2.76
15.779945850372314,-3.92,-1.43,-2.77,5.0
15.789918899536133,-5.89,-1.39,-2.96,6.73
15.825428009033203,-6.03,-1.23,-2.32,6.57
15.826764822006226,-4.69,-1.34,-1.64,5.14
15.827775955200195,-3.18,-1.9,-1.4,3.96
15.848237991333008,-2.49,-1.98,-1.38,3.46
15.849288940429688,-2.51,-1.4,-1.35,3.17
15.864590883255005,-2.95,-0.69,-1.07,3.21
15.866047859191895,-3.42,-0.32,-0.51,3.47
15.879934787750244,-3.72,-0.21,0.03,3.72
15.881410837173462,-3.89,-0.09,0.29,3.9
15.896217823028564,-3.96,0.11,0.35,3.97
15.925946712493896,-3.96,0.27,0.43,3.99
15.927276849746704,-3.79,0.43,0.55,3.85
15.928308010101318,-3.52,0.63,0.59,3.62
15.948052883148193,-3.05,0.73,0.5,3.17
15.949114799499512,-2.52,0.85,0.37,2.68
15.965893745422363,-2.14,0.94,0.17,2.34
15.967355728149414,-1.85,0.96,-0.02,2.08
15.980181694030762,-1.66,0.91,-0.18,1.9
15.981653690338135,-1.64,0.77,-0.24,1.82
15.996405839920044,-1.56,0.66,-0.15,1.7
16.026365756988525,-1.36,0.62,-0.04,1.49
16.02785587310791,-1.25,0.69,0.12,1.43
16.02886199951172,-1.17,0.86,0.25,1.47
16.048197746276855,-0.8,0.86,0.33,1.22
16.049547910690308,-0.31,0.61,0.44,0.81
16.06475591659546,0.02,0.34,0.56,0.65
16.06622290611267,0.12,0.21,0.61,0.65
16.079928874969482,0.12,0.22,0.7,0.74
16.081247806549072,0.2,0.34,0.86,0.94
16.096141815185547,0.35,0.3,1.01,1.11
16.12475299835205,0.45,0.18,1.08,1.18
16.1261568069458,0.55,0.19,1.1,1.24
16.127130031585693,0.62,0.23,1.12,1.3
16.14831781387329,0.84,0.25,1.23,1.51
16.149367809295654,1.29,0.1,1.2,1.76
16.165013790130615,1.62,-0.15,1.06,1.94
16.16643190383911,1.71,-0.44,0.99,2.02
16.180498838424683,1.87,-0.6,1.01,2.2
16.181911945343018,2.34,-0.5,1.12,2.64
16.196749925613403,3.0,-0.53,1.36,3.33
16.198253870010376,3.48,-0.79,1.52,3.87
16.24722194671631,3.78,-0.76,1.62,4.18
16.248379707336426,4.25,-0.54,1.62,4.58
16.249363899230957,4.88,-0.37,1.47,5.11
16.266150951385498,5.28,-0.31,1.18,5.41
16.267640829086304,5.17,-0.32,1.1,5.29
16.28102397918701,4.93,-0.35,1.37,5.12
16.282474994659424,4.91,-0.59,1.7,5.22
16.296870708465576,4.99,-0.85,1.98,5.43
16.29833483695984,5.2,-0.92,2.34,5.77
16.312854766845703,5.54,-0.83,2.5,6.13
16.341736793518066,5.68,-0.5,2.43,6.19
16.343113899230957,5.39,-0.11,2.25,5.84
16.344111919403076,4.72,0.22,2.09,5.16
16.36560583114624,3.97,0.41,2.07,4.49
16.367071866989136,3.41,0.44,2.26,4.11
16.381371021270752,3.04,1.69,2.31,4.17
16.382786750793457,3.3,2.47,2.14,4.64
16.397218704223633,7.79,2.6,3.01,8.74
16.39863872528076,9.74,1.51,4.29,10.74
16.413188934326172,3.89,0.43,3.56,5.29
16.44308376312256,-3.46,0.47,3.11,4.67
16.444475889205933,-5.93,-0.54,2.92,6.63
16.44549584388733,-4.05,-0.98,2.76,4.99
16.46539282798767,-1.53,-0.48,1.94,2.51
16.46686887741089,0.31,1.19,0.52,1.33
16.481412887573242,0.47,2.66,-1.01,2.88
16.48289203643799,0.32,2.26,-0.99,2.48
16.497166872024536,1.09,0.17,0.97,1.46
16.49865984916687,2.31,-0.79,2.09,3.21
16.513001918792725,2.92,-0.51,1.26,3.22
16.54257583618164,2.42,-0.28,0.04,2.43
16.543962955474854,1.57,-0.36,-0.3,1.63
16.544986724853516,1.08,-0.44,0.28,1.19
16.5655779838562,0.6,-0.3,0.76,1.01
16.567051887512207,-0.13,-0.2,0.73,0.76
16.581126928329468,-0.58,0.05,0.76,0.95
16.582633018493652,-0.61,0.46,0.68,1.02
16.59663987159729,-0.79,0.52,0.33,1.0
16.59810972213745,-0.81,0.29,0.06,0.86
16.613016843795776,-0.43,0.13,-0.02,0.44
16.64162302017212,-0.17,0.14,0.11,0.24
16.642998695373535,0.15,0.13,0.17,0.26
16.643959045410156,0.37,-0.09,-0.1,0.39
16.665262699127197,0.38,-0.19,-0.59,0.72
16.66632080078125,0.21,-0.03,-0.77,0.79
16.682005882263184,-0.23,0.15,-0.51,0.57
16.683461904525757,-0.8,0.28,0.01,0.84
16.697454929351807,-1.08,0.31,0.35,1.17
16.698877811431885,-0.89,0.24,0.62,1.11
16.713181972503662,-0.33,0.14,0.43,0.55
16.744411945343018,-0.37,0.13,-0.06,0.39
16.74567699432373,-0.82,0.25,-0.36,0.92
16.74672794342041,-0.93,0.47,-0.65,1.22
16.765882968902588,-0.57,0.54,-0.71,1.05
16.76734495162964,-0.12,0.46,-0.8,0.93
16.78125786781311,0.21,0.33,-0.93,1.0
16.782702922821045,0.45,0.26,-0.92,1.05
16.797103881835938,0.42,0.22,-0.59,0.75
16.798588752746582,0.33,0.05,-0.08,0.34
16.812932014465332,0.2,-0.02,0.41,0.45
16.843976974487305,-0.1,-0.25,1.03,1.06
16.845240831375122,-0.52,-0.29,1.34,1.46
16.846261024475098,-0.89,-0.3,1.32,1.62
16.86543893814087,-0.14,0.02,1.19,1.19
16.866880893707275,0.39,0.07,0.25,0.46
16.881333827972412,0.61,-0.07,-0.72,0.94
16.882783889770508,0.79,-0.01,-0.67,1.03
16.897029876708984,0.73,0.03,-0.66,0.98
16.898480892181396,0.19,0.13,-0.65,0.68
16.91306972503662,-0.37,0.28,-0.57,0.73
16.9415340423584,-0.58,0.31,-0.18,0.68
16.943047046661377,-0.67,0.25,-0.06,0.71
16.94408369064331,-0.62,0.29,-0.14,0.69
16.945628881454468,-0.58,0.32,-0.23,0.7
16.947122812271118,-0.56,0.36,-0.55,0.86
16.950782775878906,-0.25,0.43,-0.47,0.68
16.960989952087402,-0.23,0.32,-0.5,0.63
16.970967769622803,-0.59,0.19,-0.67,0.91
16.98063087463379,-0.77,0.15,-0.67,1.03
16.9908709526062,-0.58,0.19,-0.32,0.68
17.00082778930664,-0.36,0.29,-0.18,0.49
17.02858591079712,-0.31,0.27,-0.03,0.41
17.029932022094727,-0.46,0.13,0.1,0.48
17.030927896499634,-0.66,0.06,0.19,0.68
17.048653841018677,-0.88,0.11,0.24,0.91
17.049945831298828,-0.98,0.22,0.21,1.02
17.0650577545166,-1.08,0.23,-0.06,1.1
17.069926738739014,-1.02,0.17,-0.05,1.03
17.080527782440186,-0.77,0.1,-0.02,0.77
17.090295791625977,-0.51,0.08,-0.26,0.57
17.099833965301514,-0.65,0.08,-0.65,0.92
17.12974977493286,-0.64,0.07,-0.66,0.92
17.131008863449097,-0.19,-0.08,-0.2,0.28
17.132097721099854,-0.07,-0.17,0.3,0.35
17.148808002471924,-0.42,-0.09,0.26,0.5
17.14986276626587,-0.5,0.26,-0.51,0.76
17.16490077972412,-0.01,0.59,-0.65,0.87
17.169421911239624,0.2,0.31,-0.51,0.62
17.17951488494873,0.08,-0.1,-0.19,0.22
17.18915891647339,0.06,-0.55,0.21,0.59
17.199458837509155,-0.07,-0.52,0.23,0.57
17.23042583465576,0.03,-0.37,0.21,0.42
17.231750965118408,0.47,-0.2,0.65,0.82
17.232759952545166,0.98,-0.36,0.76,1.29
17.248995780944824,1.56,-0.28,0.83,1.78
17.25003671646118,1.62,-0.22,0.88,1.85
17.265394926071167,1.15,-0.19,0.82,1.42
17.268648862838745,0.55,0.17,0.99,1.14
17.28095769882202,-0.23,0.61,1.04,1.22
17.288755893707275,-0.76,1.3,0.51,1.58
17.29840588569641,-0.94,1.77,-0.3,2.02
17.32915496826172,-0.71,1.84,-0.86,2.15
17.330437898635864,-0.32,2.05,-1.24,2.41
17.331449031829834,-0.09,2.02,-1.05,2.27
17.34865093231201,0.03,1.87,-0.59,1.96
17.349676847457886,-0.1,2.02,-0.39,2.05
17.365327835083008,-0.37,2.37,-0.12,2.4
17.367978811264038,-0.5,2.47,0.01,2.52
17.378700733184814,-0.5,2.41,-0.01,2.46
17.387871742248535,-0.64,2.5,-0.11,2.58
17.397507905960083,-0.96,2.5,-0.04,2.67
17.435659885406494,-1.2,2.3,-0.16,2.59
17.436890840530396,-1.32,2.3,-0.13,2.65
17.437779903411865,-1.4,2.15,-0.04,2.56
17.44848084449768,-1.39,1.82,-0.18,2.29
17.449464797973633,-1.39,1.72,-0.37,2.24
17.465580940246582,-1.53,1.64,-0.42,2.28
17.467068910598755,-1.65,1.38,-0.58,2.22
17.480504035949707,-1.43,1.06,-0.85,1.97
17.487355709075928,-0.93,0.95,-0.9,1.6
17.497052907943726,-0.68,1.44,-0.96,1.85
17.533963918685913,-0.55,1.25,-1.12,1.76
17.53524684906006,-0.33,0.69,-1.19,1.41
17.536263942718506,0.42,1.22,-1.14,1.72
17.548983812332153,2.44,3.16,-0.77,4.06
17.55004382133484,2.39,3.08,-1.09,4.04
17.56550693511963,0.57,1.0,-1.65,2.01
17.566967964172363,-1.18,-0.88,-2.32,2.74
17.58053493499756,-3.34,-3.25,-2.53,5.3
17.586410999298096,-3.48,-4.13,-1.86,5.71
17.59688091278076,-0.62,-2.5,-0.78,2.69
17.633112907409668,-1.58,-2.0,-1.4,2.9
17.634411811828613,-4.25,-2.26,-2.9,5.61
17.635441780090332,-6.39,-2.15,-3.27,7.49
17.649194717407227,-6.52,-2.1,-2.67,7.35
17.65024185180664,-5.04,-2.21,-2.03,5.86
17.665397882461548,-3.56,-2.18,-1.73,4.51
17.666817903518677,-2.8,-1.83,-1.58,3.69
17.68110704421997,-2.61,-1.33,-1.45,3.26
17.68565583229065,-2.77,-0.73,-1.28,3.13
17.69711184501648,-2.99,-0.33,-0.81,3.11
17.73234272003174,-3.26,-0.26,-0.16,3.27
17.733714818954468,-3.55,-0.19,0.27,3.56
17.734721899032593,-3.63,-0.08,0.27,3.64
17.748840808868408,-3.58,-0.07,0.01,3.58
17.74986481666565,-3.36,-0.03,-0.14,3.36
17.765466690063477,-2.97,0.05,-0.03,2.97
17.766948699951172,-2.58,0.13,0.08,2.58
17.78089475631714,-2.19,0.27,0.02,2.2
17.78482985496521,-1.94,0.49,-0.18,2.0
17.79706573486328,-1.87,0.88,-0.33,2.09
17.804661750793457,-1.83,1.13,-0.37,2.18
17.842142820358276,-1.79,1.25,-0.37,2.21
17.843241691589355,-1.8,1.42,-0.33,2.31
17.844221830368042,-1.82,1.55,-0.2,2.39
17.866001844406128,-1.67,1.64,-0.08,2.34
17.867442846298218,-1.35,1.6,-0.04,2.09
17.881901741027832,-0.98,1.37,-0.05,1.68
17.883347988128662,-0.59,1.17,-0.01,1.31
17.897737979888916,-0.16,1.05,0.02,1.06
17.899209022521973,0.33,0.95,0.07,1.0
17.913651943206787,0.93,0.78,0.07,1.21
17.94266700744629,1.37,0.63,-0.02,1.5
17.943953037261963,1.54,0.6,-0.13,1.65
17.944931983947754,1.6,0.61,-0.05,1.71
17.965812921524048,1.71,0.56,0.21,1.81
17.967182874679565,1.74,0.32,0.7,1.9
17.982244968414307,1.71,0.08,1.27,2.13
17.983705043792725,1.99,-0.17,1.63,2.57
17.997604846954346,2.41,-0.46,1.85,3.07
17.999090909957886,2.69,-0.66,2.01,3.42
18.013617992401123,2.89,-0.75,2.15,3.67
18.041587829589844,3.19,-0.83,2.26,3.99
18.042953968048096,3.77,-0.89,2.3,4.5
18.04393196105957,4.46,-1.01,2.35,5.14
18.045538902282715,4.97,-1.06,2.43,5.63
18.05281090736389,5.33,-1.0,2.43,5.94
18.062675952911377,5.68,-0.77,2.4,6.21
18.072632789611816,6.01,-0.61,2.38,6.49
18.082737922668457,6.13,-0.59,2.46,6.63
18.092561721801758,5.97,-0.48,2.59,6.52
18.102338790893555,5.72,-0.17,2.8,6.37
18.131404876708984,5.64,0.22,3.01,6.39
18.132717847824097,5.66,0.31,2.97,6.39
18.133623838424683,5.43,1.08,2.6,6.11
18.149340867996216,4.35,3.11,1.65,5.59
18.15184497833252,5.74,2.39,1.56,6.41
18.16535782814026,11.02,2.01,3.09,11.62
18.171831846237183,11.74,0.25,3.57,12.27
18.181772708892822,5.1,-0.15,2.31,5.6
18.192043781280518,-1.79,0.29,2.11,2.78
18.20157480239868,-6.16,-0.38,1.93,6.46
18.236641883850098,-7.27,-0.2,1.45,7.41
18.2379207611084,-5.48,0.15,0.22,5.48
18.239004850387573,-2.13,1.39,-0.51,2.59
18.2410306930542,0.79,2.66,-0.47,2.81
18.251362800598145,2.28,1.59,0.4,2.8
18.261140823364258,2.42,-0.56,1.35,2.82
18.271159887313843,2.28,-1.01,1.32,2.82
18.281247854232788,2.02,-0.64,0.86,2.28
18.2911057472229,1.7,-0.44,0.45,1.81
18.30106782913208,1.32,-0.46,0.08,1.4
18.336795806884766,0.75,-0.26,-0.17,0.81
18.338132858276367,0.14,-0.05,0.05,0.15
18.339141845703125,-0.36,0.07,0.85,0.92
18.348986864089966,-0.6,0.26,1.45,1.59
18.350231885910034,-0.59,0.32,1.51,1.65
18.365649700164795,-0.32,0.16,1.12,1.17
18.370359897613525,0.14,0.0,0.58,0.59
18.381022930145264,0.54,-0.04,0.23,0.58
18.390466690063477,0.72,0.0,-0.04,0.72
18.400304794311523,0.59,0.02,-0.09,0.59
18.43583083152771,0.45,-0.02,0.3,0.54
18.43713092803955,0.68,-0.17,0.75,1.02
18.438145875930786,0.87,-0.28,0.79,1.2
18.449429988861084,0.66,-0.11,0.7,0.96
18.45051097869873,0.26,0.03,0.86,0.89
18.465962886810303,-0.08,-0.04,0.87,0.87
18.46947193145752,-0.24,-0.06,1.01,1.03
18.48108673095703,-0.18,0.06,0.99,1.0
18.489611864089966,-0.54,0.11,0.05,0.55
18.499423027038574,-0.7,0.18,-0.49,0.87
18.53663182258606,-0.29,0.07,-0.38,0.48
18.53807282447815,-0.01,0.01,-0.31,0.31
18.539052963256836,-0.09,0.09,-0.32,0.34
18.549470901489258,-0.47,0.31,-0.24,0.61
18.5505268573761,-0.93,0.43,-0.28,1.06
18.565958976745605,-1.13,0.37,-0.6,1.33
18.568997859954834,-0.9,0.25,-0.79,1.22
18.581236839294434,-0.44,0.18,-0.85,0.97
18.588886737823486,-0.24,0.26,-0.94,1.0
18.598583698272705,-0.4,0.45,-1.03,1.19
18.60861301422119,-0.4,0.45,-0.93,1.1
18.640586853027344,-0.27,0.3,-0.62,0.73
18.641819953918457,0.05,0.1,-0.17,0.2
18.642967700958252,0.37,-0.1,0.22,0.44
18.648108959197998,0.64,-0.11,0.42,0.77
18.666098833084106,0.89,-0.16,0.53,1.04
18.668118000030518,1.02,-0.23,0.51,1.16
18.681355953216553,0.94,-0.2,0.49,1.07
18.687850952148438,0.7,-0.1,0.46,0.84
18.697845935821533,0.53,-0.06,0.49,0.72
18.708043813705444,0.57,-0.07,0.51,0.76
18.738906860351562,0.55,-0.07,0.28,0.62
18.740038871765137,0.41,-0.06,0.07,0.42
18.741273880004883,0.28,-0.02,0.19,0.33
18.747334957122803,0.02,-0.01,0.37,0.37
18.7573299407959,-0.09,-0.06,0.45,0.46
18.76711392402649,0.16,-0.14,0.58,0.61
18.77764081954956,-0.05,-0.04,0.49,0.49
18.787351846694946,-0.32,0.13,0.03,0.34
18.79738473892212,0.2,0.09,-0.09,0.23
18.807223796844482,0.36,0.04,0.15,0.39
18.837742805480957,0.07,0.0,0.26,0.26
18.838977813720703,-0.17,0.09,0.4,0.44
18.839943885803223,-0.59,0.33,0.31,0.74
18.846524715423584,-0.99,0.49,0.11,1.11
18.856624841690063,-1.34,0.56,-0.22,1.46
18.866686820983887,-1.72,0.51,-1.06,2.08
18.876466751098633,-1.87,0.52,-1.73,2.6
18.886351823806763,-1.83,0.54,-1.75,2.58
18.896638870239258,-1.93,0.44,-1.59,2.53
18.9063458442688,-2.18,0.43,-1.63,2.75
18.938552856445312,-2.38,0.48,-1.57,2.89
18.939881801605225,-2.6,0.52,-1.3,2.95
18.940958976745605,-2.43,0.54,-0.96,2.66
18.946025848388672,-1.69,0.42,-0.66,1.86
18.95586085319519,-0.96,0.12,-0.58,1.12
18.966331005096436,-0.52,-0.04,-0.45,0.68
18.97587776184082,-0.24,-0.05,-0.14,0.28
18.985925912857056,0.11,0.14,-0.12,0.21
18.996020793914795,0.03,0.12,-0.67,0.68
19.005574703216553,0.49,-0.2,-0.07,0.53
19.041738033294678,1.61,-0.64,1.24,2.13
19.0431170463562,1.79,-1.04,1.24,2.41
19.044007778167725,1.17,-1.01,0.74,1.71
19.046206951141357,1.16,-0.84,1.1,1.8
19.05501079559326,1.23,-0.51,1.45,1.96
19.065133810043335,1.1,-0.28,1.21,1.65
19.07523775100708,0.83,0.1,0.71,1.09
19.085141897201538,0.49,0.09,0.16,0.52
19.095175743103027,0.72,0.02,0.07,0.72
19.104990005493164,0.95,-0.14,-0.42,1.04
19.140329837799072,0.66,0.16,-1.01,1.21
19.141618728637695,0.59,0.64,-0.97,1.3
19.14262580871582,0.5,1.28,-0.88,1.63
19.146795749664307,0.4,1.63,-0.91,1.9
19.16591501235962,0.13,2.1,-0.76,2.23
19.16741180419922,-0.75,2.26,-0.21,2.39
19.181513786315918,-1.47,2.31,0.49,2.78
19.184221744537354,-1.47,2.93,0.82,3.37
19.19768786430359,-1.29,2.84,0.48,3.15
19.20426082611084,-1.15,2.99,1.15,3.4
19.241442918777466,-0.9,2.51,1.35,2.98
19.242658853530884,-1.06,2.75,0.97,3.1
19.24383282661438,-0.84,3.13,0.88,3.35
19.245381832122803,-0.77,3.58,0.01,3.66
19.253463745117188,-0.97,3.89,-0.95,4.12
19.263609886169434,-1.23,3.71,-1.38,4.14
19.273599863052368,-1.57,2.99,-1.7,3.78
19.28359603881836,-2.08,2.38,-1.91,3.69
19.29340887069702,-2.41,1.97,-2.01,3.7
19.303607940673828,-2.45,1.86,-1.89,3.61
19.33898401260376,-2.31,1.99,-1.79,3.53
19.340292930603027,-2.22,2.05,-1.98,3.61
19.34136199951172,-2.02,1.76,-2.24,3.49
19.34625792503357,-1.86,1.1,-2.17,3.06
19.3659348487854,-0.8,1.17,-1.85,2.33
19.366934776306152,1.12,2.29,-2.03,3.25
19.381325721740723,3.36,4.51,-2.09,5.99
19.382778882980347,3.09,4.1,-2.92,5.9
19.397896766662598,0.73,1.87,-3.31,3.87
19.40284776687622,-1.23,0.02,-3.32,3.54
19.414238929748535,-2.81,-1.86,-2.93,4.46
19.4447979927063,-4.46,-2.74,-2.62,5.85
19.446156978607178,-3.71,-1.61,-1.44,4.29
19.447189807891846,-3.19,-1.83,-1.71,4.05
19.466920852661133,-5.09,-1.47,-2.95,6.06
19.468398809432983,-6.78,-1.06,-3.73,7.81
19.48268985748291,-6.63,-0.85,-3.55,7.56
19.484121799468994,-5.23,-1.11,-3.14,6.2
19.49858784675598,-3.74,-1.5,-2.88,4.95
19.501869916915894,-3.0,-1.17,-2.76,4.24
19.514222860336304,-2.78,-0.35,-2.79,3.95
19.543386936187744,-2.83,0.16,-2.66,3.88
19.544757843017578,-3.03,0.23,-2.26,3.78
19.545767784118652,-3.3,0.08,-1.62,3.67
19.566911697387695,-3.62,-0.07,-0.97,3.74
19.568410873413086,-4.08,-0.01,-0.49,4.1
19.58276891708374,-4.64,0.18,-0.18,4.64
19.584245920181274,-4.93,0.42,0.04,4.94
19.598485946655273,-4.62,0.57,0.18,4.65
19.60111904144287,-3.75,0.59,0.34,3.81
19.614564895629883,-2.8,0.47,0.32,2.85
19.64405584335327,-2.28,0.3,0.18,2.3
19.64540386199951,-2.12,0.28,0.18,2.14
19.646352767944336,-2.06,0.25,0.52,2.13
19.667205810546875,-1.82,0.06,1.08,2.11
19.66867184638977,-1.32,-0.2,1.34,1.89
19.682962894439697,-0.91,-0.39,1.21,1.56
19.684470891952515,-0.67,-0.44,1.14,1.39
19.698585033416748,-0.54,-0.48,1.34,1.52
19.700401782989502,-0.55,-0.44,1.76,1.89
19.714597702026367,-0.72,-0.21,2.24,2.36
19.742372035980225,-0.59,0.09,2.58,2.64
19.743738889694214,-0.06,0.11,2.65,2.65
19.744709968566895,0.61,0.1,2.45,2.52
19.749794006347656,1.19,0.13,2.19,2.49
19.759696006774902,1.71,0.2,2.15,2.75
19.76990795135498,2.19,0.35,2.2,3.12
19.779899835586548,2.66,0.64,2.19,3.5
19.78983974456787,3.16,0.9,2.09,3.89
19.799750804901123,3.68,1.05,1.93,4.28
19.809526920318604,4.11,1.07,1.75,4.59
19.846450805664062,4.44,1.16,1.78,4.92
19.84777593612671,5.07,1.48,1.94,5.62
19.848843812942505,5.95,1.46,2.0,6.44
19.866775035858154,6.54,1.06,1.87,6.88
19.867794036865234,6.49,1.32,1.53,6.79
19.882722854614258,4.96,5.31,1.63,7.44
19.884183883666992,6.05,2.3,1.04,6.55
19.899961948394775,8.88,-0.13,1.68,9.03
19.901387691497803,9.76,0.65,2.09,10.0
19.915352821350098,9.74,0.62,1.78,9.92
19.945128917694092,8.51,-0.28,1.38,8.62
19.946455001831055,6.83,-0.53,1.22,6.95
19.947511911392212,5.75,-0.29,1.0,5.84
19.966789722442627,5.0,-0.2,0.93,5.08
19.967875003814697,4.51,-0.53,0.95,4.63
19.982863903045654,5.59,0.14,1.27,5.73
19.9843168258667,8.19,0.64,1.4,8.33
19.998573780059814,8.27,-0.34,0.77,8.31
20.000053882598877,5.96,-1.83,0.4,6.24
20.014670848846436,2.09,-2.28,0.49,3.13
20.04309892654419,-1.05,-1.91,0.4,2.21
20.04455590248108,-2.25,-1.57,0.44,2.77
20.04552698135376,-1.77,-1.41,1.37,2.64
20.047963857650757,-0.94,-0.33,2.79,2.96
20.057657718658447,-1.02,1.75,3.87,4.36
20.067595958709717,-0.94,3.5,5.26,6.38
20.0776629447937,-0.97,2.75,5.34,6.08
20.08761501312256,-1.37,0.7,3.16,3.51
20.097568035125732,-0.94,-0.26,1.0,1.39
20.107359886169434,-0.03,-0.07,0.12,0.14
20.143784999847412,1.02,-0.01,0.27,1.05
20.145140886306763,2.32,-0.28,0.59,2.41
20.14611291885376,2.91,-0.38,0.01,2.93
20.167311906814575,2.26,-0.37,-0.69,2.39
20.168794870376587,1.61,-0.57,-0.6,1.81
20.18323802947998,1.22,-0.74,-0.22,1.44
20.18471384048462,0.48,-0.55,-0.07,0.73
20.19865083694458,-0.31,-0.46,0.17,0.58
20.200124740600586,-1.25,-0.21,0.04,1.26
20.214834690093994,-1.89,0.38,-0.58,2.01
20.216364860534668,-1.8,1.11,-0.67,2.21
20.26120090484619,-1.13,1.28,-0.47,1.77
20.26233673095703,-0.34,0.66,-0.41,0.84
20.263381004333496,0.14,0.28,-0.43,0.53
20.283761978149414,0.34,0.2,-0.27,0.47
20.285229921340942,0.27,0.15,-0.22,0.37
20.299123764038086,0.11,0.15,-0.22,0.28
20.300386905670166,0.01,0.28,-0.04,0.28
20.31482982635498,-0.02,0.32,0.1,0.33
20.316175937652588,-0.03,0.28,0.05,0.28
20.331227779388428,0.18,0.2,-0.02,0.26
20.361557960510254,0.48,-0.06,-0.05,0.48
20.363021850585938,0.72,-0.02,0.01,0.72
20.36401891708374,0.56,0.05,-0.01,0.56
20.38331699371338,0.33,0.06,0.14,0.36
20.38454294204712,0.27,-0.04,0.27,0.38
20.400150775909424,0.19,-0.09,-0.05,0.21
20.401604890823364,0.34,-0.02,-0.22,0.4
20.415145874023438,1.09,0.03,0.1,1.09
20.41660189628601,1.58,-0.11,0.27,1.6
20.43154001235962,1.28,-0.18,0.28,1.32
20.46064591407776,0.7,-0.06,0.35,0.78
20.462059020996094,0.1,0.1,0.42,0.44
20.463032722473145,-0.57,0.19,0.1,0.6
20.48387098312378,-1.03,0.17,-0.23,1.06
20.48534870147705,-1.33,0.33,-0.67,1.52
20.50016975402832,-1.43,0.4,-1.06,1.82
20.501628875732422,-1.37,0.36,-1.37,1.97
20.515111923217773,-1.13,0.35,-1.23,1.7
20.516502857208252,-1.18,0.35,-0.93,1.54
20.531548023223877,-1.18,0.38,-0.75,1.44
20.560423851013184,-0.98,0.37,-0.46,1.14
20.56175470352173,-1.0,0.18,-0.1,1.02
20.562811851501465,-1.18,-0.08,0.23,1.2
20.584019899368286,-1.38,-0.03,0.34,1.42
20.585481882095337,-1.17,0.16,0.3,1.21
20.600512981414795,-0.51,0.02,0.4,0.64
20.60198402404785,0.13,-0.14,0.62,0.64
20.61532688140869,0.5,-0.22,0.7,0.88
20.61674690246582,0.26,-0.34,0.56,0.7
20.631613731384277,-0.37,-0.13,0.01,0.39
20.660640716552734,-0.74,0.12,-0.63,0.97
20.662039756774902,-0.89,0.23,-0.68,1.14
20.663020849227905,-0.8,0.22,-0.31,0.88
20.683594703674316,-1.02,0.15,0.04,1.03
20.684639930725098,-1.24,0.34,0.23,1.3
20.700450897216797,-1.44,0.59,0.09,1.55
20.70194673538208,-1.42,0.71,-0.02,1.58
20.71534490585327,-1.15,0.55,-0.17,1.28
20.71675992012024,-0.38,0.16,-0.38,0.56
20.731797695159912,0.36,-0.04,-0.37,0.51
20.75932502746582,0.56,-0.02,-0.41,0.69
20.760705947875977,0.43,0.1,-0.48,0.65
20.761700868606567,0.74,0.02,-0.17,0.75
20.76417088508606,1.33,-0.25,0.45,1.42
20.76566791534424,2.48,-0.64,1.06,2.77
20.772074699401855,3.55,-0.88,1.47,3.94
20.782081842422485,3.35,-0.91,1.53,3.79
20.79200792312622,2.16,-0.64,1.27,2.58
20.802206993103027,0.77,0.3,1.09,1.36
20.812142848968506,-0.24,0.98,0.38,1.07
20.84494185447693,-0.43,1.55,-0.29,1.63
20.846312046051025,-0.69,1.71,-0.33,1.87
20.84729790687561,-1.21,1.83,-0.31,2.21
20.866963863372803,-1.18,0.99,-0.5,1.61
20.86799192428589,-1.07,0.78,-0.66,1.47
20.88369369506836,-0.97,0.79,-0.2,1.26
20.884694814682007,-0.99,0.35,0.34,1.1
20.89942979812622,-0.93,0.23,0.78,1.23
20.901198863983154,-0.6,0.24,1.37,1.51
20.91501474380493,-0.24,-0.02,1.67,1.68
20.9473557472229,-0.15,-0.4,1.98,2.02
20.948683738708496,-0.67,-0.46,1.68,1.86
20.949697971343994,-1.15,-0.27,1.13,1.63
20.967394828796387,-0.63,-0.11,1.21,1.36
20.968418836593628,-0.03,0.0,0.8,0.8
20.983336925506592,0.3,0.0,-0.02,0.3
20.98465585708618,0.64,0.0,-0.52,0.82
20.99872398376465,0.53,0.21,-1.26,1.38
21.000504970550537,0.14,0.75,-2.06,2.19
21.015102863311768,-0.06,1.14,-2.02,2.32
21.020538806915283,-0.27,1.14,-1.67,2.03
21.061848878860474,-0.5,1.29,-1.43,1.98
21.063015937805176,-0.67,1.63,-1.28,2.17
21.064026832580566,-0.72,1.83,-1.06,2.23
21.08397388458252,-0.71,1.91,-0.91,2.23
21.08531093597412,-0.72,2.06,-0.86,2.34
21.100199699401855,-0.55,2.15,-0.26,2.23
21.101661920547485,-0.57,1.94,0.08,2.02
21.11551785469055,-0.73,1.73,0.1,1.88
21.11694884300232,-0.9,1.63,0.17,1.86
21.1318359375,-1.12,1.36,0.29,1.78
21.160322904586792,-1.33,1.18,0.17,1.78
21.161605834960938,-1.19,1.16,-0.16,1.66
21.16259479522705,-0.92,1.24,-0.29,1.57
21.164662837982178,-0.35,1.33,-0.59,1.49
21.169167041778564,0.26,1.1,-1.24,1.67
21.179250717163086,0.52,0.48,-1.64,1.78
21.189242839813232,1.02,0.45,-1.5,1.86
21.19922184944153,1.91,1.15,-1.13,2.49
21.209129810333252,2.7,2.27,-0.71,3.59
21.219082832336426,1.73,2.06,-0.85,2.82
21.24940299987793,0.59,1.15,-0.95,1.6
21.250679969787598,-0.12,0.09,-1.01,1.02
21.251640796661377,-1.25,-0.71,-1.54,2.1
21.26833486557007,-2.82,-1.57,-2.28,3.95
21.26933193206787,-4.19,-2.36,-2.34,5.34
21.281388759613037,-2.45,-1.01,-1.8,3.2
21.288434982299805,-2.73,-0.78,-2.12,3.54
21.299173831939697,-5.25,-0.85,-2.97,6.09
21.30850887298584,-7.58,-0.62,-3.25,8.27
21.318161010742188,-8.05,-0.22,-2.67,8.48
21.35060977935791,-6.58,-0.12,-2.05,6.89
21.35198187828064,-4.91,-0.64,-1.84,5.28
21.35302186012268,-3.96,-0.81,-1.88,4.45
21.3677978515625,-3.2,-0.3,-2.01,3.79
21.368842840194702,-2.78,-0.15,-2.35,3.64
21.38370370864868,-3.24,-0.77,-2.46,4.14
21.38795280456543,-3.49,-0.97,-1.81,4.04
21.39920997619629,-2.83,-0.9,-1.11,3.17
21.407729864120483,-2.14,-0.84,-0.98,2.49
21.41744375228882,-2.26,-0.71,-1.07,2.59
21.45475673675537,-2.91,-0.39,-0.79,3.04
21.456254959106445,-3.29,0.06,-0.15,3.29
21.457250833511353,-3.12,0.46,0.46,3.18
21.468225955963135,-2.87,0.8,0.63,3.04
21.469295024871826,-2.82,1.12,0.45,3.06
21.483824729919434,-2.74,1.56,0.39,3.17
21.48702573776245,-2.33,1.89,0.3,3.01
21.499465942382812,-1.74,2.03,0.21,2.68
21.507011890411377,-1.2,1.86,0.07,2.21
21.516578912734985,-0.84,1.55,0.02,1.76
21.554544925689697,-0.71,1.42,0.34,1.62
21.55589485168457,-0.59,1.1,0.67,1.41
21.55689787864685,-0.45,0.83,0.91,1.31
21.567692756652832,-0.07,0.76,0.99,1.25
21.56874179840088,0.4,0.52,0.84,1.06
21.583876848220825,0.48,0.34,0.82,1.0
21.58623170852661,0.31,0.41,0.89,1.02
21.598697900772095,0.4,0.47,0.98,1.15
21.60608673095703,0.73,0.39,1.1,1.37
21.61589479446411,1.05,0.59,1.3,1.77
21.65396499633789,1.23,0.73,1.46,2.04
21.655308723449707,1.24,0.84,1.62,2.2
21.656271934509277,1.42,1.03,1.78,2.49
21.665019989013672,1.72,1.03,1.86,2.73
21.665791988372803,1.98,0.86,1.92,2.88
21.679800987243652,2.33,0.59,2.05,3.15
21.685373783111572,2.77,0.21,2.22,3.55
21.69996190071106,3.1,-0.04,2.44,3.94
21.705408811569214,3.38,-0.11,2.78,4.37
21.715304851531982,3.9,-0.17,3.11,4.99
21.75505781173706,4.6,-0.48,3.31,5.68
21.75644874572754,5.25,-0.78,3.36,6.28
21.757473945617676,5.73,-1.04,3.34,6.71
21.76770281791687,6.04,-1.25,3.3,6.99
21.768733978271484,6.25,-1.46,3.13,7.14
21.783787727355957,6.45,-1.65,3.01,7.3
21.785289764404297,6.64,-1.33,2.96,7.39
21.799293041229248,5.97,2.0,2.27,6.69
21.804507732391357,6.8,2.01,1.25,7.2
21.815245866775513,10.07,1.53,1.42,10.28
21.824769973754883,14.63,2.64,2.91,15.14
21.85628080368042,15.51,1.84,2.97,15.89
21.857508897781372,7.83,0.47,1.59,8.0
21.858736991882324,-1.11,0.05,1.56,1.91
21.86556386947632,-6.65,-1.83,1.14,6.99
21.87406587600708,-6.92,-1.33,1.86,7.28
21.883818864822388,-3.64,-0.08,2.82,4.6
21.89391279220581,-1.06,1.25,2.49,2.98
21.903738021850586,-0.08,2.1,1.1,2.37
21.913908004760742,0.77,1.84,1.1,2.27
21.923792839050293,1.75,0.22,1.87,2.57
21.954254865646362,2.12,-0.74,1.9,2.94
21.95562481880188,2.09,-0.75,1.05,2.45
21.956645965576172,2.28,-0.5,0.41,2.36
21.967735767364502,2.51,-0.28,-0.02,2.52
21.973071813583374,1.83,-0.03,-0.67,1.94
21.98320770263672,0.73,0.24,-0.4,0.86
21.99320077896118,0.21,0.23,0.78,0.83
22.003173828125,0.21,-0.06,1.29,1.3
22.013248920440674,0.11,-0.13,0.89,0.9
22.023297786712646,-0.05,-0.03,0.72,0.72
22.05412769317627,-0.23,0.11,0.7,0.74
22.05540370941162,-0.55,0.0,0.54,0.77
22.056391716003418,-0.47,-0.01,0.74,0.87
22.06749987602234,-0.18,-0.01,0.39,0.42
22.07225489616394,0.05,0.13,-0.18,0.22
22.083135843276978,0.06,0.27,-0.68,0.73
22.092716693878174,0.23,0.52,-0.98,1.13
22.102325916290283,0.04,0.31,-0.93,0.98
22.11244773864746,-0.15,0.36,-0.86,0.94
22.12210702896118,-0.17,0.12,-0.77,0.79
22.15488576889038,0.05,0.19,-0.61,0.64
22.156193733215332,0.18,0.24,-0.57,0.64
22.157105922698975,0.11,0.21,-0.5,0.55
22.1681170463562,0.04,0.31,-0.31,0.44
22.171566009521484,-0.01,0.29,-0.18,0.34
22.1839337348938,-0.05,0.17,-0.05,0.18
22.191956996917725,-0.08,0.26,0.12,0.29
22.20169496536255,-0.1,0.18,0.13,0.24
22.211472034454346,-0.11,0.02,-0.04,0.11
22.221444845199585,-0.06,0.01,-0.05,0.07
22.259202003479004,-0.05,0.01,-0.07,0.08
22.26050901412964,-0.24,-0.01,-0.27,0.36
22.261497974395752,-0.49,-0.02,-0.2,0.52
22.263717889785767,-0.62,-0.03,0.11,0.63
22.270731925964355,-0.48,-0.03,0.31,0.57
22.28095579147339,-0.23,-0.02,0.41,0.47
22.291007041931152,-0.11,0.14,0.2,0.26
22.300954818725586,0.13,0.23,0.02,0.26
22.310672760009766,0.28,0.16,0.02,0.32
22.32078981399536,0.23,-0.06,-0.07,0.24
22.357266902923584,0.12,-0.12,-0.2,0.26
22.358541011810303,-0.08,-0.05,0.03,0.09
22.359627723693848,-0.17,0.09,0.14,0.23
22.364178895950317,-0.23,0.2,0.14,0.33
22.38392400741577,-0.24,0.27,0.11,0.37
22.384949922561646,-0.32,0.22,0.09,0.39
22.39969491958618,-0.6,0.14,-0.13,0.62
22.401168823242188,-0.75,-0.01,-0.19,0.77
22.415818691253662,-0.6,-0.09,0.14,0.62
22.41980481147766,-0.36,-0.08,0.45,0.58
22.45939302444458,-0.17,-0.05,0.41,0.44
22.460559844970703,-0.13,-0.01,0.24,0.27
22.461843013763428,-0.11,0.08,-0.22,0.25
22.464190006256104,0.0,-0.01,-0.48,0.48
22.46931481361389,0.07,-0.16,-0.42,0.45
22.479458808898926,0.13,-0.13,-0.12,0.21
22.489709854125977,0.1,0.02,0.06,0.11
22.499477863311768,0.11,0.3,0.3,0.43
22.509310722351074,-0.07,0.38,0.43,0.57
22.519330978393555,-0.2,0.34,0.17,0.42
22.555490016937256,-0.08,0.2,0.31,0.37
22.556785821914673,0.26,-0.09,0.73,0.78
22.557801723480225,0.42,-0.23,0.78,0.91
22.566401958465576,0.25,-0.22,0.41,0.52
22.568636894226074,-0.1,-0.08,0.04,0.13
22.58391571044922,-0.57,0.15,-0.16,0.61
22.58868169784546,-1.07,0.52,-0.53,1.3
22.599658012390137,-1.23,0.74,-1.06,1.78
22.608654022216797,-1.16,0.74,-1.41,1.97
22.618347883224487,-1.09,0.5,-1.23,1.71
22.628347873687744,-0.96,0.11,-0.6,1.13
22.65970277786255,-0.88,-0.06,-0.09,0.88
22.66089391708374,-0.81,0.03,0.18,0.83
22.66211175918579,-0.54,0.23,0.33,0.67
22.6677508354187,0.03,0.22,0.44,0.49
22.677767753601074,0.41,0.03,0.25,0.48
22.687987804412842,0.51,-0.15,-0.31,0.61
22.698120832443237,0.76,-0.3,-0.4,0.9
22.707953929901123,1.04,-0.46,0.07,1.13
22.717805862426758,0.95,-0.47,0.75,1.29
22.727595806121826,0.55,-0.39,1.15,1.33
22.758680820465088,0.41,-0.21,1.26,1.34
22.759873867034912,0.59,-0.12,1.42,1.54
22.760972023010254,0.72,-0.33,1.57,1.75
22.76716375350952,0.62,-0.47,1.66,1.83
22.784045696258545,0.27,-0.54,1.38,1.5
22.786987781524658,-0.07,-0.39,1.06,1.13
22.799190998077393,-0.23,-0.1,0.75,0.79
22.806896924972534,-0.45,0.16,-0.03,0.47
22.816861867904663,-0.55,0.34,-0.9,1.1
22.826902866363525,-0.34,0.52,-1.4,1.53
22.85629177093506,-0.33,0.53,-1.61,1.72
22.857443809509277,-0.17,0.76,-1.52,1.7
22.858635902404785,0.18,1.03,-0.94,1.4
22.866134881973267,0.45,1.51,-0.22,1.59
22.876588821411133,0.08,1.62,-0.08,1.62
22.886252880096436,-0.18,1.99,0.45,2.04
22.896597862243652,-0.1,1.83,0.74,1.97
22.9061279296875,0.03,1.86,0.57,1.94
22.916483879089355,-0.04,1.85,0.45,1.9
22.926068782806396,-0.52,1.72,0.29,1.82
22.95753788948059,-0.9,1.8,0.17,2.01
22.95884370803833,-0.76,2.24,0.15,2.37
22.959905862808228,-0.76,2.26,-0.15,2.38
22.965476989746094,-0.96,2.08,-0.3,2.31
22.97564697265625,-1.08,1.92,-0.53,2.26
22.98597288131714,-1.12,1.82,-0.86,2.3
22.995661735534668,-1.23,1.78,-1.1,2.42
23.00565791130066,-1.29,1.77,-1.16,2.47
23.015657901763916,-1.19,1.68,-1.11,2.33
23.02542781829834,-1.2,1.7,-1.04,2.32
23.061723709106445,-1.51,1.76,-0.95,2.5
23.06305503845215,-1.92,1.68,-0.9,2.7
23.064143896102905,-1.95,1.41,-1.02,2.61
23.084828853607178,-1.47,1.44,-1.05,2.31
23.085856914520264,-1.07,1.38,-0.98,2.0
23.101513862609863,-0.85,0.86,-0.77,1.43
23.102972984313965,-0.04,0.76,-0.36,0.84
23.116333961486816,0.64,1.43,-0.1,1.56
23.11780881881714,1.76,2.38,0.05,2.96
23.132882833480835,2.12,2.13,-0.57,3.05
23.160094738006592,0.91,0.65,-1.3,1.71
23.161415815353394,-0.15,-0.69,-1.55,1.7
23.162446975708008,-1.01,-1.7,-1.4,2.42
23.16482400894165,-2.46,-2.57,-1.27,3.77
23.17405390739441,-4.21,-2.59,-1.07,5.05
23.183724880218506,-4.16,-1.2,-0.22,4.33
23.19424295425415,-3.66,-1.27,-0.43,3.89
23.204253911972046,-4.85,-1.54,-1.6,5.33
23.214200019836426,-6.28,-1.34,-2.31,6.82
23.22396183013916,-6.33,-0.91,-2.46,6.85
23.260958909988403,-4.92,-0.36,-2.37,5.47
23.26238989830017,-3.51,-0.32,-2.38,4.25
23.263389825820923,-2.86,-0.28,-2.36,3.71
23.26580786705017,-2.75,0.02,-2.28,3.57
23.273561000823975,-2.9,0.35,-2.19,3.65
23.283447742462158,-3.23,0.63,-2.0,3.85
23.293145895004272,-3.56,0.83,-1.71,4.03
23.303459882736206,-3.8,0.97,-1.44,4.17
23.31346893310547,-3.93,1.14,-1.23,4.27
23.323270797729492,-3.85,1.22,-1.03,4.16
23.358627796173096,-3.59,1.13,-0.87,3.86
23.360052824020386,-3.31,1.05,-0.8,3.56
23.361050844192505,-3.16,1.03,-0.82,3.42
23.364215850830078,-3.06,1.0,-0.88,3.33
23.38408899307251,-2.86,0.93,-0.83,3.11
23.385140895843506,-2.52,0.79,-0.61,2.71
23.40012288093567,-2.2,0.64,-0.47,2.33
23.402458906173706,-1.95,0.69,-0.44,2.11
23.416095733642578,-1.7,0.83,-0.37,1.92
23.422457695007324,-1.41,0.83,-0.25,1.65
23.43298101425171,-1.18,0.67,-0.08,1.35
23.463201999664307,-1.06,0.48,0.22,1.18
23.464578866958618,-0.94,0.24,0.63,1.15
23.46559476852417,-0.7,-0.04,1.01,1.22
23.484704971313477,-0.34,-0.27,1.34,1.4
23.485724925994873,-0.01,-0.37,1.63,1.67
23.50164270401001,0.2,-0.36,1.95,1.99
23.503111839294434,0.41,-0.31,2.21,2.26
23.516751766204834,0.72,-0.24,2.39,2.5
23.52161979675293,1.24,-0.14,2.51,2.8
23.53290581703186,1.92,-0.07,2.65,3.27
23.5642728805542,2.59,-0.02,2.64,3.69
23.565639972686768,3.11,0.12,2.49,3.98
23.566632747650146,3.62,0.22,2.37,4.33
23.58500385284424,4.17,0.11,2.21,4.72
23.586383819580078,4.63,0.02,2.0,5.04
23.601515769958496,4.83,-0.04,1.7,5.12
23.602903842926025,4.78,-0.04,1.39,4.97
23.616686820983887,4.88,0.12,1.86,5.22
23.62081003189087,5.62,0.03,2.54,6.16
23.63300585746765,6.53,-0.3,2.72,7.08
23.663219928741455,7.19,-0.62,2.27,7.56
23.66457986831665,7.57,-0.72,1.76,7.8
23.665596961975098,7.63,-0.76,1.52,7.81
23.68524694442749,7.54,-0.63,1.58,7.72
23.686717987060547,7.36,-0.42,1.72,7.56
23.701542854309082,7.01,-0.36,1.78,7.24
23.70296573638916,6.39,-0.45,1.86,6.67
23.71698784828186,5.66,-0.55,2.06,6.04
23.720088005065918,5.14,-0.66,2.34,5.68
23.732533931732178,6.48,0.44,2.33,6.9
23.76213788986206,7.78,1.06,1.62,8.01
23.763580799102783,7.99,1.44,1.52,8.25
23.76457977294922,6.81,0.78,2.85,7.42
23.78513193130493,2.16,-0.66,2.41,3.3
23.786600828170776,-3.58,0.38,2.1,4.16
23.801533699035645,-5.31,0.54,2.11,5.73
23.80298900604248,-4.33,0.18,1.89,4.72
23.81706190109253,-2.69,1.43,2.37,3.85
23.819273948669434,-1.07,2.39,2.6,3.69
23.83448600769043,-0.23,1.72,1.65,2.39
23.870466709136963,0.15,0.5,0.47,0.7
23.87176489830017,0.58,0.12,0.26,0.64
23.872753858566284,1.03,0.21,0.72,1.27
23.885414838790894,1.32,-0.16,1.08,1.71
23.88647985458374,1.88,-0.76,0.8,2.17
23.901574850082397,2.5,-0.69,0.19,2.6
23.903043746948242,2.3,-0.23,-0.15,2.31
23.91703176498413,1.42,0.15,0.08,1.43
23.91850185394287,0.47,0.1,0.53,0.71
23.933169841766357,-0.45,-0.24,0.48,0.7
23.966097831726074,-0.9,-0.12,0.24,0.93
23.96744990348816,-0.78,0.37,0.31,0.91
23.96844983100891,-0.3,0.7,0.6,0.96
23.98565101623535,0.0,0.31,0.73,0.79
23.98715090751648,0.34,-0.06,0.46,0.57
24.00156283378601,0.16,-0.13,0.16,0.26
24.002989768981934,-0.13,0.11,0.01,0.17
24.015974044799805,-0.28,0.22,-0.06,0.36
24.017905712127686,-0.55,0.06,-0.24,0.6
24.034008979797363,-0.36,0.27,-0.45,0.63
24.065404891967773,-0.52,0.2,-0.12,0.56
24.06674098968506,-0.22,0.49,0.03,0.53
24.0677227973938,0.16,0.21,0.07,0.27
24.085238933563232,0.26,0.06,-0.17,0.31
24.08670997619629,0.22,0.2,-0.74,0.79
24.101512908935547,0.2,0.21,-1.67,1.69
24.102917909622192,0.2,0.32,-1.76,1.8
24.116734981536865,-0.09,0.29,-1.08,1.12
24.118189811706543,-0.6,0.19,-0.27,0.68
24.1330509185791,-0.84,0.18,0.25,0.89
24.166040897369385,-0.68,0.23,0.35,0.79
24.167320728302002,-0.57,0.13,0.14,0.6
24.1683349609375,-0.24,-0.01,0.09,0.25
24.1853768825531,0.08,-0.04,0.29,0.3
24.18680691719055,0.1,0.01,0.2,0.22
24.201525926589966,-0.17,0.11,0.06,0.21
24.20299196243286,-0.36,0.13,-0.13,0.4
24.21725583076477,-0.17,0.14,0.12,0.25
24.21883201599121,-0.08,0.09,0.3,0.32
24.233224868774414,0.06,-0.01,0.32,0.32
24.236214876174927,0.46,-0.12,0.35,0.59
24.281545877456665,0.72,-0.09,0.41,0.83
24.28266477584839,0.6,0.01,0.36,0.69
24.283686876296997,0.41,0.07,0.27,0.49
24.302536964416504,0.36,0.11,0.32,0.49
24.303864002227783,0.19,0.06,0.2,0.28
24.318227767944336,-0.12,0.02,0.07,0.14
24.319690704345703,-0.34,0.1,-0.03,0.35
24.333714962005615,-0.38,0.07,-0.1,0.39
24.335124015808105,-0.38,-0.04,0.02,0.38
24.349610805511475,-0.63,-0.03,0.22,0.66
24.37776803970337,-0.94,0.14,0.24,0.98
24.37909173965454,-1.11,0.29,0.08,1.15
24.38007092475891,-1.05,0.36,-0.25,1.13
24.382377862930298,-0.87,0.26,-0.48,1.02
24.384910821914673,-0.53,0.14,-0.56,0.78
24.394845962524414,-0.01,0.08,-0.41,0.41
24.404974937438965,0.58,0.02,-0.14,0.59
24.41524076461792,0.67,0.01,0.05,0.67
24.425015926361084,0.42,0.0,0.05,0.42
24.434922695159912,0.11,-0.02,0.13,0.17
24.464202880859375,-0.15,0.0,0.09,0.17
24.46524691581726,-0.23,0.01,-0.05,0.23
24.466259956359863,-0.08,-0.12,-0.06,0.15
24.485062837600708,0.0,-0.1,-0.27,0.28
24.486105918884277,-0.12,0.06,-0.4,0.42
24.501955032348633,-0.48,0.18,-0.42,0.66
24.504191875457764,-0.9,0.51,-0.53,1.16
24.517064809799194,-1.11,0.75,-0.49,1.42
24.52435874938965,-0.91,0.72,-0.45,1.24
24.53398895263672,-0.68,0.43,-0.47,0.93
24.564713954925537,-0.74,-0.16,-0.22,0.78
24.566025733947754,-0.49,-0.29,0.2,0.6
24.56702995300293,-0.52,-0.24,0.33,0.66
24.585413932800293,-0.77,-0.11,0.24,0.81
24.586464881896973,-0.55,0.1,0.05,0.56
24.60102081298828,-0.02,0.3,-0.24,0.38
24.603545904159546,0.43,0.33,-0.34,0.63
24.617295742034912,0.58,0.04,-0.36,0.68
24.623427867889404,0.5,-0.31,-0.12,0.6
24.633591890335083,0.32,-0.4,0.36,0.62
24.669363975524902,0.04,-0.36,0.72,0.8
24.6706600189209,-0.05,-0.28,0.77,0.82
24.671687841415405,0.24,-0.23,0.86,0.92
24.686237812042236,0.48,-0.14,0.67,0.83
24.68730401992798,0.55,-0.04,0.32,0.63
24.70189094543457,0.4,-0.01,0.08,0.4
24.703345775604248,0.09,-0.12,0.02,0.15
24.717244863510132,0.02,-0.13,0.2,0.23
24.722712993621826,0.17,-0.34,0.61,0.71
24.7335147857666,0.22,-0.62,1.16,1.33
24.768643856048584,-0.09,-0.62,1.61,1.72
24.770005702972412,-0.23,-0.25,1.99,2.01
24.771020889282227,-0.02,0.03,1.88,1.88
24.785302877426147,0.18,0.08,1.32,1.33
24.78635287284851,0.08,0.11,0.7,0.71
24.801970958709717,-0.25,0.33,-0.01,0.41
24.80342674255371,-0.16,0.69,-0.74,1.02
24.818237781524658,0.1,0.83,-0.95,1.26
24.822059869766235,0.16,0.69,-0.81,1.07
24.834697723388672,0.16,0.69,-0.45,0.83
24.867838859558105,-0.18,0.94,-0.49,1.07
24.869197845458984,-0.83,1.35,-0.36,1.62
24.870213985443115,-0.93,1.78,-0.15,2.01
24.871343851089478,-0.45,2.34,-0.06,2.38
24.881348848342896,-0.3,2.33,-0.05,2.34
24.89144492149353,-0.29,2.27,0.21,2.29
24.901494026184082,-0.58,2.24,0.33,2.33
24.91163682937622,-0.65,2.2,0.52,2.35
24.92118501663208,-0.57,2.4,0.53,2.52
24.931253910064697,-0.59,2.69,0.36,2.77
24.96730089187622,-0.61,2.62,-0.19,2.69
24.968470811843872,-0.77,2.71,-0.82,2.93
24.96951389312744,-0.69,2.54,-0.97,2.8
24.985671043395996,-0.69,2.06,-1.12,2.44
24.986681938171387,-1.13,1.76,-1.2,2.41
25.00190281867981,-1.43,1.68,-1.13,2.47
25.003394842147827,-1.6,1.42,-1.33,2.51
25.01742172241211,-1.51,1.49,-1.49,2.59
25.020246982574463,-1.04,1.98,-1.38,2.62
25.033788919448853,-0.69,2.05,-1.44,2.59
25.04019069671631,-0.02,1.16,-1.38,1.8
25.079250812530518,1.04,0.92,-1.42,1.98
25.080402851104736,1.8,1.85,-1.73,3.1
25.08137798309326,2.27,2.18,-2.09,3.77
25.102843761444092,1.2,1.2,-2.24,2.81
25.10431981086731,-0.43,-0.15,-2.12,2.16
25.118260860443115,-3.13,-2.19,-1.96,4.29
25.11974000930786,-5.3,-1.78,-0.98,5.67
25.134459018707275,-4.57,-0.48,0.08,4.59
25.13595986366272,-4.91,-1.66,-0.86,5.25
25.150156021118164,-6.24,-1.52,-2.14,6.76
25.17810869216919,-5.87,-0.71,-2.63,6.47
25.179504871368408,-3.96,-0.84,-2.6,4.81
25.18052101135254,-2.47,-1.53,-2.31,3.71
25.182058811187744,-2.08,-1.68,-2.0,3.33
25.189024925231934,-2.68,-1.42,-1.82,3.53
25.19898796081543,-3.58,-1.24,-1.55,4.09
25.208996772766113,-4.1,-1.17,-1.03,4.38
25.219038009643555,-4.26,-0.92,-0.48,4.38
25.228814840316772,-4.04,-0.64,-0.22,4.09
25.238951921463013,-3.58,-0.5,-0.14,3.61
25.269158840179443,-3.14,-0.35,0.02,3.15
25.270556926727295,-2.98,-0.16,0.17,2.98
25.27156686782837,-2.9,0.17,0.24,2.91
25.285656929016113,-2.56,0.52,0.23,2.62
25.288070917129517,-2.15,0.91,0.06,2.33
25.30178689956665,-2.04,1.22,-0.24,2.38
25.308380842208862,-2.01,1.54,-0.52,2.58
25.318017959594727,-1.68,1.68,-0.55,2.43
25.32811689376831,-1.17,1.72,-0.2,2.08
25.33795690536499,-0.73,1.83,-0.03,1.97
25.368916988372803,-0.32,1.75,-0.12,1.78
25.370627880096436,-0.23,1.62,-0.25,1.65
25.371660709381104,-0.44,1.64,-0.34,1.73
25.38589572906494,-0.49,1.74,-0.45,1.86
25.387213706970215,-0.36,1.62,-0.47,1.72
25.402345895767212,-0.23,1.26,-0.33,1.32
25.407505989074707,-0.29,0.95,-0.05,0.99
25.417480945587158,-0.43,0.74,0.27,0.89
25.427435874938965,-0.43,0.51,0.54,0.85
25.437116861343384,-0.35,0.25,0.71,0.83
25.47479772567749,-0.25,-0.01,0.82,0.85
25.476151943206787,-0.17,-0.18,0.96,0.99
25.477159023284912,-0.31,-0.24,1.21,1.27
25.48459792137146,-0.44,-0.43,1.4,1.52
25.48664093017578,-0.3,-0.7,1.59,1.76
25.502480030059814,0.08,-0.9,1.84,2.04
25.506765842437744,0.51,-1.11,2.16,2.48
25.51750898361206,0.87,-1.27,2.33,2.79
25.52670383453369,1.11,-1.16,2.43,2.91
25.536458015441895,1.31,-0.81,2.58,3.0
25.57289981842041,1.84,-0.26,2.86,3.41
25.57420587539673,2.75,-0.06,3.04,4.09
25.575185775756836,3.88,-0.08,2.9,4.84
25.58258581161499,4.84,-0.08,2.46,5.42
25.585871696472168,5.36,0.05,1.86,5.67
25.60236382484436,5.51,0.3,1.67,5.76
25.605973720550537,5.68,0.45,1.84,5.98
25.615965843200684,6.18,0.21,2.01,6.5
25.62589383125305,6.78,-0.25,1.98,7.06
25.635674953460693,7.34,-0.49,1.88,7.59
25.670530796051025,7.78,-0.56,1.83,8.01
25.671916007995605,8.05,0.45,1.9,8.28
25.67292070388794,7.9,1.85,1.34,8.22
25.686229705810547,8.92,2.17,1.83,9.36
25.687280893325806,13.81,1.84,3.29,14.31
25.702598810195923,13.39,0.34,3.62,13.87
25.70535683631897,7.41,0.07,3.05,8.01
25.71760392189026,0.73,-1.17,2.23,2.62
25.724788904190063,-4.94,-2.27,0.38,5.44
25.73491096496582,-6.73,-1.22,-0.52,6.85
25.77239489555359,-3.66,0.65,1.04,3.86
25.773708820343018,0.43,2.52,2.94,3.89
25.77466583251953,2.17,3.02,2.98,4.76
25.78610587120056,1.49,1.47,1.98,2.88
25.78716492652893,0.78,-0.29,1.23,1.48
25.80356502532959,0.75,-0.5,1.04,1.37
25.80502700805664,1.06,-0.26,0.38,1.15
25.817972898483276,1.52,-0.38,-0.4,1.61
25.82454204559326,1.85,-0.58,-0.6,2.02
25.834197998046875,1.66,-0.3,-0.28,1.7
25.844252824783325,1.01,0.04,0.24,1.03
25.87560272216797,0.12,0.12,0.76,0.77
25.8767147064209,-0.47,0.12,0.94,1.05
25.87793493270874,-0.62,0.07,0.96,1.14
25.88363289833069,-0.43,-0.11,1.05,1.13
25.893733024597168,0.07,-0.22,0.81,0.84
25.903817892074585,0.42,-0.15,0.25,0.51
25.91378092765808,0.83,-0.3,0.08,0.88
25.92341184616089,1.03,-0.31,0.37,1.13
25.933743000030518,0.56,-0.15,0.3,0.65
25.943615913391113,-0.02,0.05,-0.13,0.14
25.974198818206787,-0.22,0.33,-0.18,0.43
25.975610733032227,-0.29,0.59,-0.19,0.68
25.976616859436035,-0.55,0.62,-0.16,0.84
25.985715866088867,-0.65,0.55,-0.39,0.93
25.993152856826782,-0.62,0.44,-0.71,1.04
26.00299072265625,-0.46,0.44,-0.88,1.08
26.01283288002014,-0.25,0.47,-1.12,1.24
26.022976875305176,-0.02,0.4,-1.01,1.08
26.03293800354004,-0.19,0.31,-1.02,1.08
26.042850017547607,-0.47,0.39,-0.86,1.05
26.07536482810974,-0.51,0.33,-0.23,0.64
26.07669496536255,-0.37,0.09,0.34,0.51
26.07776403427124,-0.32,0.06,0.44,0.54
26.08456802368164,-0.23,0.14,0.22,0.34
26.102911949157715,-0.04,0.17,0.17,0.24
26.104393005371094,0.13,0.07,0.29,0.32
26.117887020111084,0.24,-0.15,0.31,0.41
26.121928691864014,0.23,-0.22,0.36,0.48
26.13437271118164,0.13,-0.1,0.2,0.25
26.141928911209106,0.04,0.03,0.13,0.13
26.178624868392944,0.1,0.11,0.17,0.22
26.179763793945312,0.13,0.04,0.25,0.28
26.180994987487793,0.06,-0.11,0.16,0.2
26.182706832885742,-0.01,-0.15,-0.12,0.19
26.19130277633667,-0.08,-0.02,-0.34,0.34
26.20157790184021,-0.09,0.27,-0.21,0.35
26.211670875549316,0.02,0.36,0.15,0.39
26.221426010131836,0.08,0.23,0.41,0.47
26.231530904769897,0.09,-0.02,0.39,0.4
26.24103283882141,0.19,-0.24,0.28,0.41
26.277846813201904,0.24,-0.32,0.08,0.4
26.279164791107178,0.12,-0.26,0.07,0.29
26.28018093109131,0.01,-0.12,0.12,0.17
26.282187938690186,-0.12,-0.09,0.12,0.19
26.29089593887329,-0.25,-0.06,0.08,0.26
26.30069875717163,-0.32,0.02,-0.01,0.32
26.31085777282715,-0.42,0.11,-0.12,0.45
26.32071304321289,-0.51,0.27,-0.14,0.59
26.330655813217163,-0.58,0.31,-0.05,0.65
26.340518951416016,-0.72,0.22,0.1,0.75
26.37678575515747,-0.67,-0.1,0.09,0.68
26.37820291519165,-0.6,-0.47,0.18,0.78
26.379204750061035,-0.57,-0.69,0.07,0.89
26.382417917251587,-0.37,-0.65,-0.19,0.77
26.4027419090271,-0.44,-0.46,-0.5,0.8
26.404209852218628,-1.4,-0.05,-0.98,1.7
26.41776990890503,-1.99,0.64,-1.3,2.46
26.41976499557495,-1.14,1.31,-0.24,1.75
26.434292793273926,-0.24,1.3,0.43,1.39
26.439799785614014,0.17,0.88,-0.03,0.89
26.477896690368652,0.21,0.43,-0.57,0.74
26.479076862335205,0.32,-0.19,-0.31,0.48
26.480196952819824,0.37,-0.37,0.05,0.52
26.482666015625,0.15,-0.36,-0.01,0.39
26.489028930664062,-0.16,-0.14,0.1,0.23
26.499111890792847,-0.19,0.02,0.53,0.56
26.50939702987671,-0.13,0.11,0.62,0.64
26.519224882125854,-0.25,0.33,0.15,0.44
26.5290789604187,-0.26,0.54,-0.45,0.74
26.53908395767212,-0.01,0.72,-0.9,1.15
26.575401782989502,0.49,0.63,-0.9,1.2
26.576636791229248,0.82,0.16,-0.43,0.93
26.577699899673462,0.79,-0.31,0.15,0.86
26.582676887512207,0.75,-0.52,0.71,1.15
26.588547706604004,0.72,-0.75,1.12,1.52
26.60290288925171,0.8,-1.09,1.43,1.96
26.608405828475952,0.86,-1.07,1.47,2.01
26.618282794952393,0.7,-0.65,1.15,1.49
26.628346920013428,0.41,-0.36,1.0,1.13
26.638243913650513,0.11,-0.1,0.88,0.89
26.648366928100586,-0.22,0.15,0.65,0.7
26.679654836654663,-0.45,0.34,0.44,0.71
26.68080186843872,-0.35,0.5,0.19,0.63
26.68178701400757,-0.07,0.86,-0.21,0.88
26.703715801239014,-0.06,1.09,-0.36,1.14
26.705150842666626,-0.02,1.38,-0.43,1.44
26.71936583518982,0.5,1.68,-0.52,1.82
26.72079586982727,0.29,1.53,-0.44,1.61
26.73506188392639,0.52,1.66,-0.24,1.75
26.737249851226807,0.15,1.66,0.03,1.66
26.750957012176514,-0.25,1.9,-0.17,1.92
26.77800178527832,-0.01,2.64,0.31,2.65
26.779411792755127,-0.12,2.67,0.18,2.67
26.780427932739258,-0.32,2.38,-0.03,2.4
26.78689479827881,-0.74,2.54,-0.13,2.64
26.796697854995728,-0.99,2.77,-0.31,2.95
26.80714988708496,-1.04,2.78,-0.76,3.06
26.817028045654297,-1.12,2.67,-1.09,3.09
26.826855897903442,-1.2,2.36,-1.21,2.91
26.836764812469482,-1.28,2.27,-1.56,3.03
26.846521854400635,-1.26,2.4,-1.7,3.19
26.877670764923096,-1.17,2.27,-1.58,3.0
26.878849029541016,-1.2,1.9,-1.67,2.79
26.88016176223755,-1.14,1.91,-1.79,2.85
26.886085987091064,-1.04,1.94,-1.82,2.85
26.90304183959961,-1.03,1.37,-1.67,2.39
26.90627670288086,-1.02,0.62,-1.23,1.71
26.918099880218506,-0.16,1.13,-0.55,1.26
26.926222801208496,1.07,2.44,0.01,2.66
26.9359188079834,2.04,3.09,-0.31,3.71
26.945770740509033,1.11,1.86,-1.51,2.64
26.976903915405273,-0.47,-0.01,-2.11,2.16
26.97814702987671,-1.85,-1.66,-2.21,3.32
26.979279041290283,-3.26,-2.59,-2.31,4.76
26.985297918319702,-3.69,-1.31,-1.48,4.18
27.00321888923645,-2.58,-0.75,-0.34,2.7
27.0054669380188,-3.53,-1.8,-0.85,4.05
27.018069744110107,-5.82,-1.92,-1.72,6.36
27.025482892990112,-7.0,-1.58,-2.01,7.45
27.035205841064453,-6.11,-1.08,-1.63,6.41
27.045283794403076,-4.39,-1.09,-1.25,4.69
27.08218002319336,-3.4,-1.16,-0.98,3.72
27.08333396911621,-3.28,-0.91,-1.1,3.57
27.084353923797607,-3.57,-0.38,-1.41,3.85
27.10377073287964,-3.89,0.07,-1.47,4.15
27.10522484779358,-4.08,0.28,-1.38,4.31
27.11951971054077,-4.09,0.51,-1.1,4.26
27.120975971221924,-3.96,0.8,-0.88,4.13
27.135265827178955,-3.83,1.02,-0.92,4.06
27.136723041534424,-3.8,1.12,-1.1,4.11
27.151093006134033,-3.72,0.99,-1.19,4.02
27.181347846984863,-3.55,0.87,-1.01,3.79
27.18260884284973,-3.26,0.88,-0.62,3.43
27.183637857437134,-2.92,0.7,-0.27,3.01
27.203718900680542,-2.51,0.24,-0.12,2.52
27.205198764801025,-2.08,-0.13,-0.16,2.09
27.21936798095703,-1.8,-0.34,-0.35,1.86
27.22077703475952,-1.69,-0.33,-0.55,1.8
27.235172748565674,-1.5,-0.21,-0.64,1.64
27.23658275604248,-1.18,-0.11,-0.54,1.3
27.251308917999268,-0.77,-0.01,-0.33,0.83
27.281692028045654,-0.31,-0.15,-0.08,0.35
27.2831130027771,0.0,-0.44,0.26,0.51
27.28416395187378,0.11,-0.58,0.71,0.92
27.30380892753601,0.16,-0.51,1.01,1.14
27.305280923843384,0.39,-0.24,1.21,1.29
27.31934404373169,0.78,0.15,1.24,1.47
27.32080888748169,1.05,0.59,1.12,1.64
27.335386753082275,1.31,1.04,1.08,1.99
27.33681082725525,1.78,1.38,1.12,2.51
27.35128092765808,2.34,1.5,1.13,3.0
27.38063383102417,3.01,1.55,0.99,3.52
27.38197898864746,3.71,1.42,0.76,4.04
27.38298797607422,4.15,1.24,0.72,4.39
27.403750896453857,4.39,1.11,0.67,4.57
27.40522289276123,4.63,0.99,0.56,4.76
27.419747829437256,4.98,0.84,0.56,5.08
27.421149730682373,5.4,0.64,0.69,5.48
27.435597896575928,5.56,0.33,0.96,5.65
27.437018871307373,5.32,-0.02,1.3,5.47
27.451169967651367,4.92,-0.3,1.65,5.19
27.45263671875,4.72,-0.54,1.98,5.14
27.497954845428467,4.78,-0.76,2.32,5.36
27.499157905578613,5.09,-1.03,2.6,5.8
27.50015687942505,5.3,-1.37,2.78,6.13
27.520036697387695,5.25,-1.59,2.89,6.2
27.52104377746582,5.05,-1.73,2.9,6.07
27.53672170639038,4.92,-1.72,2.92,5.97
27.538142919540405,4.85,-1.62,2.99,5.92
27.55178189277649,4.77,-1.57,3.08,5.89
27.553213834762573,4.58,-1.52,3.14,5.75
27.568196773529053,4.31,-1.27,3.11,5.46
27.59815287590027,6.5,1.27,2.58,7.1
27.59950590133667,8.23,1.68,1.78,8.58
27.600512981414795,10.1,2.46,2.0,10.58
27.62020778656006,8.12,1.51,3.87,9.12
27.621688842773438,1.66,-0.39,3.06,3.5
27.636693000793457,-4.18,-0.46,1.48,4.45
27.638155937194824,-7.42,-0.43,0.92,7.48
27.65170669555664,-5.92,1.51,1.93,6.4
27.653170824050903,-1.88,2.94,2.73,4.43
27.668039798736572,0.36,2.6,1.97,3.28
27.697982788085938,0.82,0.6,1.84,2.1
27.699333906173706,0.88,-0.53,1.64,1.93
27.700328826904297,1.18,-0.42,1.38,1.86
27.720108032226562,1.45,-0.5,0.8,1.72
27.721550941467285,1.74,-0.64,-0.25,1.87
27.73647689819336,1.75,-0.26,-1.32,2.2
27.7379207611084,1.74,-0.22,-2.05,2.69
27.751680850982666,1.62,-0.34,-1.43,2.18
27.753139972686768,1.07,-0.23,-0.16,1.1
27.769940853118896,0.35,-0.23,0.75,0.85
27.80307102203369,-0.35,-0.19,1.01,1.08
27.80439591407776,-0.93,0.17,1.09,1.44
27.805419921875,-1.02,0.32,1.07,1.51
27.82027578353882,-0.68,0.37,0.8,1.11
27.821287870407104,-0.23,0.46,0.51,0.72
27.836731910705566,0.06,0.46,0.15,0.48
27.838124752044678,0.15,0.33,-0.19,0.4
27.851855754852295,0.42,0.06,-0.37,0.56
27.853333950042725,0.54,0.07,-0.59,0.8
27.86826181411743,0.39,0.18,-0.96,1.05
27.898247718811035,0.14,0.33,-0.96,1.02
27.89948081970215,0.03,0.4,-0.82,0.91
27.90049695968628,0.01,0.39,-0.62,0.73
27.920087814331055,0.11,0.24,-0.19,0.32
27.92113971710205,0.26,-0.02,0.15,0.3
27.93673086166382,0.46,-0.11,0.42,0.63
27.93821883201599,0.65,-0.16,0.56,0.87
27.951942920684814,0.65,-0.14,0.65,0.92
27.953299045562744,0.42,-0.05,0.66,0.78
27.968156814575195,0.23,0.0,0.69,0.72
27.99736785888672,0.14,0.02,0.87,0.88
27.998572826385498,-0.02,-0.05,0.66,0.66
27.999512910842896,-0.13,0.07,0.25,0.29
28.020208835601807,-0.18,0.19,0.0,0.26
28.021222829818726,-0.23,0.18,-0.19,0.34
28.03685998916626,-0.43,0.21,-0.46,0.66
28.038269996643066,-0.51,0.33,-0.4,0.72
28.05215883255005,-0.5,0.35,-0.21,0.64
28.053623914718628,-0.66,0.36,-0.41,0.85
28.068331718444824,-0.77,0.36,-0.53,1.0
28.096999883651733,-0.72,0.35,-0.46,0.92
28.098378896713257,-0.78,0.34,-0.53,1.0
28.09931492805481,-0.78,0.25,-0.54,0.98
28.120248794555664,-0.71,0.08,-0.28,0.76
28.12124490737915,-0.35,-0.02,0.02,0.35
28.136932849884033,0.16,-0.01,0.59,0.61
28.13841485977173,0.27,0.06,0.65,0.7
28.152397871017456,-0.08,0.13,0.21,0.25
28.15387988090515,-0.37,0.15,-0.11,0.41
28.168583869934082,-0.5,0.13,-0.21,0.55
28.18890690803528,-0.46,0.15,-0.22,0.53
28.189908027648926,-0.3,0.12,-0.15,0.35
28.19070792198181,-0.19,0.07,-0.1,0.22
28.200034856796265,-0.28,0.01,-0.02,0.28
28.201004028320312,-0.64,-0.03,0.01,0.64
28.22088098526001,-0.9,-0.01,-0.07,0.9
28.22244691848755,-0.97,-0.06,-0.32,1.02
28.235843896865845,-0.77,-0.14,-0.49,0.92
28.237355709075928,-0.49,-0.3,-0.44,0.72
28.25168800354004,-0.34,-0.43,-0.45,0.7
28.256229877471924,-0.34,-0.36,-0.29,0.57
28.297805786132812,-0.64,-0.36,-0.34,0.8
28.298943042755127,-0.71,-0.14,-0.43,0.84
28.299969911575317,-0.34,0.01,0.17,0.38
28.32061195373535,-0.17,0.15,0.35,0.41
28.32210397720337,0.16,0.36,0.44,0.59
28.336768865585327,0.52,0.45,0.56,0.88
28.3382248878479,0.8,0.33,0.16,0.88
28.352191925048828,0.79,0.29,-0.35,0.91
28.353660821914673,0.64,0.12,-0.52,0.83
28.36832571029663,0.4,-0.19,-0.28,0.52
28.397865772247314,-0.07,-0.11,-0.2,0.23
28.399141788482666,-0.5,0.26,-0.35,0.66
28.400153875350952,-0.54,0.29,-0.34,0.7
28.420154809951782,-0.3,0.18,-0.07,0.35
28.42157793045044,-0.02,0.07,-0.06,0.09
28.436800003051758,0.07,0.31,-0.37,0.48
28.438299894332886,-0.11,0.48,-0.66,0.82
28.452464818954468,-0.25,0.58,-0.72,0.95
28.453961849212646,-0.11,0.41,-0.46,0.62
28.468763828277588,0.29,0.23,-0.01,0.37
28.498130798339844,0.84,-0.3,0.47,1.0
28.49946689605713,1.16,-0.81,0.79,1.62
28.50047779083252,0.94,-0.48,0.61,1.21
28.520721912384033,0.36,0.04,0.4,0.53
28.52220582962036,0.15,0.08,0.66,0.68
28.536956787109375,0.32,-0.15,0.84,0.91
28.538367748260498,0.32,-0.06,0.83,0.89
28.55236291885376,0.05,0.21,0.89,0.91
28.553846836090088,-0.28,0.54,0.86,1.05
28.568991899490356,-0.47,0.63,0.83,1.14
28.59822988510132,-0.38,0.65,0.73,1.04
28.599730014801025,-0.21,0.61,0.59,0.87
28.60075283050537,-0.22,0.48,0.62,0.81
28.62070369720459,-0.03,0.39,1.0,1.07
28.622161865234375,0.28,0.49,1.1,1.23
28.636107921600342,0.07,0.56,0.72,0.91
28.637526035308838,0.02,0.58,0.5,0.76
28.652459859848022,1.05,0.78,1.09,1.7
28.653928756713867,0.91,0.82,1.03,1.6
28.66876482963562,0.29,0.86,0.37,0.98
28.697495937347412,-0.26,0.88,0.13,0.92
28.698779821395874,-0.61,0.83,0.07,1.03
28.699774742126465,-0.58,0.88,-0.16,1.06
28.721232891082764,-0.64,1.06,-0.26,1.26
28.72269892692566,-0.52,0.93,-0.38,1.13
28.736363887786865,0.03,1.26,0.04,1.26
28.737812995910645,-0.12,1.53,0.11,1.53
28.753339767456055,-0.58,1.37,0.03,1.48
28.754838943481445,-1.01,1.19,-0.02,1.56
28.76967191696167,-1.56,1.19,-0.12,1.96
28.798380851745605,-1.87,1.4,-0.15,2.34
28.799816846847534,-1.9,1.79,-0.05,2.61
28.800859928131104,-1.77,1.98,-0.25,2.66
28.82071089744568,-1.35,1.91,-0.43,2.37
28.822170734405518,-0.98,1.56,-0.72,1.97
28.83726692199707,-0.77,1.32,-1.14,1.9
28.838737964630127,-0.63,1.51,-1.36,2.12
28.85233187675476,-0.37,1.8,-1.59,2.43
28.853811740875244,-0.1,2.27,-2.38,3.29
28.868713855743408,-0.01,2.53,-2.74,3.72
28.8977108001709,-0.18,2.14,-2.87,3.58
28.899008750915527,-0.24,1.97,-2.91,3.52
28.90005588531494,0.46,2.23,-2.53,3.4
28.920962810516357,1.66,3.54,-2.05,4.41
28.922444820404053,1.19,4.11,-2.6,5.0
28.937626838684082,-0.25,2.79,-3.14,4.2
28.939100742340088,-1.41,1.68,-2.97,3.69
28.95240879058838,-2.32,0.83,-3.07,3.93
28.953890800476074,-3.16,-0.05,-3.21,4.5
28.96967077255249,-3.78,-0.83,-3.16,4.99
29.00030279159546,-2.46,-0.72,-3.19,4.09
29.0016770362854,-0.57,-1.12,-3.07,3.31
29.002684831619263,-3.11,-1.47,-2.87,4.47
29.021148920059204,-6.13,-0.78,-3.2,6.95
29.022636890411377,-7.37,-0.35,-2.98,7.95
29.037226915359497,-6.68,-0.58,-1.74,6.92
29.038689851760864,-5.74,-1.45,-1.19,6.03
29.052395820617676,-5.73,-1.99,-1.22,6.18
29.053854942321777,-6.39,-1.6,-0.98,6.65
29.068814754486084,-6.72,-0.8,-0.5,6.78
29.070258855819702,-6.27,-0.32,-0.22,6.28
29.116591930389404,-5.61,-0.17,-0.25,5.61
29.11776876449585,-5.18,0.07,-0.42,5.19
29.11878204345703,-4.85,0.32,-0.59,4.89
29.138150691986084,-4.32,0.5,-0.62,4.39
29.139619827270508,-3.53,0.81,-0.71,3.69
29.153460025787354,-2.68,1.24,-1.0,3.11
29.154924869537354,-2.14,1.57,-1.25,2.93
29.1693696975708,-1.87,1.65,-1.25,2.78
29.17075490951538,-1.71,1.47,-0.97,2.45
29.185300827026367,-1.46,0.83,-0.54,1.76
29.214001893997192,-1.14,0.07,0.16,1.15
29.21546483039856,-0.81,-0.38,0.99,1.33
29.216485023498535,-0.19,-0.54,1.59,1.68
29.237903833389282,0.99,-0.7,1.64,2.03
29.239370822906494,2.16,-0.84,1.37,2.69
29.253549814224243,2.85,-0.68,1.26,3.18
29.255030870437622,3.22,-0.32,1.45,3.54
29.26957082748413,3.59,0.25,1.88,4.06
29.2710018157959,3.91,0.71,2.27,4.57
29.28563404083252,3.91,1.06,2.63,4.82
29.313841819763184,3.64,1.55,2.83,4.86
29.315249919891357,3.56,2.17,3.12,5.2
29.316243886947632,3.98,2.5,3.49,5.85
29.318490028381348,4.6,2.13,3.41,6.1
29.31986379623413,5.15,1.48,3.18,6.23
29.32124900817871,5.8,1.16,2.84,6.56
29.327483892440796,6.59,1.27,2.53,7.17
29.33775782585144,7.2,1.17,2.23,7.62
29.34741973876953,7.2,0.99,1.98,7.53
29.357903957366943,6.83,0.97,1.79,7.12
29.385422706604004,6.54,0.95,1.64,6.8
29.386741876602173,6.32,0.7,1.52,6.53
29.38781499862671,5.97,0.24,1.45,6.14
29.40478801727295,5.49,-0.33,1.52,5.7
29.407054901123047,5.05,-0.83,1.69,5.38
29.41922378540039,4.74,-1.14,1.81,5.2
29.42717695236206,4.45,-1.33,1.78,4.97
29.436781883239746,4.1,-1.44,1.59,4.62
29.447185039520264,3.72,-1.39,1.37,4.2
29.456998825073242,3.25,-1.37,1.18,3.71
29.491020917892456,3.76,-0.66,1.24,4.01
29.492774963378906,6.47,1.66,0.35,6.68
29.493818759918213,6.21,1.36,-0.54,6.38
29.504748821258545,5.52,0.05,-0.53,5.54
29.506269931793213,2.62,0.04,0.52,2.67
29.520335912704468,-0.38,-0.38,0.36,0.64
29.526445865631104,-1.45,-0.55,0.56,1.64
29.53637385368347,-0.92,-0.53,1.09,1.52
29.546573877334595,0.32,-0.28,1.45,1.51
29.55627679824829,1.43,-0.02,2.16,2.59
29.593647003173828,0.87,0.6,2.99,3.17
29.595046043395996,-1.42,1.71,3.8,4.4
29.59613800048828,-2.48,1.55,4.34,5.23
29.603810787200928,-2.0,0.53,3.22,3.82
29.605600833892822,-1.08,-0.13,0.7,1.29
29.619755744934082,-0.39,0.18,-1.82,1.87
29.625784873962402,0.06,0.65,-2.86,2.93
29.63666296005249,0.62,0.96,-1.93,2.24
29.645821809768677,0.95,0.79,-0.65,1.39
29.655571937561035,1.0,0.25,-0.3,1.07
29.692538738250732,1.1,-0.28,-0.43,1.21
29.693866729736328,1.26,-0.39,-0.25,1.34
29.694933891296387,0.89,-0.05,0.25,0.92
29.701687812805176,0.07,-0.08,0.76,0.76
29.704782962799072,-0.43,-0.23,1.35,1.43
29.720918893814087,-0.45,-0.01,1.71,1.76
29.72490692138672,-0.07,0.19,1.7,1.71
29.7371609210968,0.15,0.14,1.28,1.29
29.744678020477295,-0.11,0.11,0.59,0.61
29.754578828811646,-0.3,0.03,0.61,0.68
29.792290925979614,-0.32,-0.13,0.64,0.72
29.793558835983276,-0.32,-0.28,0.05,0.42
29.794500827789307,-0.34,-0.07,-0.39,0.52
29.801596879959106,-0.34,0.27,-0.61,0.74
29.80411982536316,-0.41,0.29,-0.9,1.03
29.820777893066406,-0.43,0.24,-0.93,1.05
29.82431983947754,-0.44,0.26,-0.78,0.93
29.835120916366577,-0.5,0.39,-0.79,1.01
29.844172954559326,-0.6,0.44,-1.06,1.29
29.85395097732544,-0.54,0.32,-0.99,1.17
29.863996028900146,-0.63,0.27,-0.62,0.92
29.89655303955078,-0.74,0.29,-0.14,0.8
29.89772391319275,-0.43,0.3,0.2,0.56
29.898937702178955,0.18,0.14,0.21,0.31
29.90337586402893,0.71,0.11,0.18,0.74
29.913211822509766,1.06,-0.08,0.21,1.08
29.923672914505005,1.51,-0.39,0.39,1.6
29.933589935302734,1.59,-0.5,0.73,1.81
29.943267822265625,1.26,-0.39,0.67,1.47
29.953380823135376,0.7,-0.2,0.4,0.83
29.963270902633667,0.23,0.07,0.26,0.35
29.99512791633606,0.14,0.08,0.22,0.27
29.9963538646698,0.3,-0.05,0.24,0.38
29.9997398853302,0.31,-0.02,0.28,0.41
30.00256586074829,0.22,0.05,0.17,0.28
30.021050930023193,0.14,0.06,-0.03,0.15
30.022543907165527,0.07,0.1,-0.14,0.18
30.03642988204956,-0.06,0.14,-0.19,0.24
30.042627811431885,-0.15,0.29,-0.11,0.34
30.052461862564087,-0.16,0.36,0.05,0.39
30.06258487701416,-0.18,0.31,0.01,0.35
30.09391188621521,-0.2,0.29,-0.06,0.35
30.094954013824463,-0.34,0.28,-0.39,0.58
