time,ax,ay,az,atotal
0.007901906967163086,0.84,0.23,-0.03,0.87
0.018538951873779297,-0.7,0.29,-0.35,0.83
0.028741121292114258,0.27,-0.03,-0.13,0.3
0.07557392120361328,0.15,0.0,-0.23,0.27
0.07601499557495117,0.14,0.03,-0.16,0.21
0.07644009590148926,-0.02,0.05,-0.27,0.27
0.07686305046081543,-0.17,0.06,-0.23,0.29
0.07778692245483398,-0.14,0.01,-0.16,0.21
0.08830904960632324,-0.01,0.01,-0.08,0.08
0.09836196899414062,0.13,0.02,-0.06,0.14
0.10773682594299316,0.13,-0.06,-0.07,0.15
0.1183919906616211,0.04,-0.1,-0.06,0.12
0.12840485572814941,0.09,-0.03,-0.08,0.12
0.1767129898071289,0.22,0.07,-0.08,0.24
0.17712998390197754,0.33,0.11,-0.14,0.37
0.1778709888458252,0.41,0.03,-0.17,0.44
0.17829203605651855,0.45,-0.07,-0.06,0.45
0.17871308326721191,0.39,-0.02,0.06,0.39
0.1881721019744873,0.29,0.07,0.09,0.31
0.1981198787689209,0.21,0.05,0.06,0.22
0.20763492584228516,0.17,0.08,-0.01,0.18
0.21815991401672363,-0.09,-0.05,0.01,0.1
0.22839093208312988,-0.12,0.06,-0.06,0.14
0.2762768268585205,-0.01,0.06,-0.07,0.09
0.27670979499816895,-0.09,-0.01,-0.03,0.09
0.2773919105529785,-0.18,0.04,-0.05,0.19
0.27780985832214355,-0.3,0.01,-0.05,0.3
0.2782127857208252,-0.31,-0.02,-0.06,0.31
0.2880079746246338,-0.22,0.03,-0.09,0.23
0.2980067729949951,-0.12,0.05,-0.11,0.17
0.3075277805328369,-0.12,0.01,-0.1,0.15
0.3182098865509033,-0.18,0.0,-0.09,0.2
0.32820796966552734,-0.26,-0.01,-0.06,0.26
0.3754849433898926,-0.27,-0.05,-0.07,0.28
0.375899076461792,-0.26,-0.04,-0.07,0.27
0.37630391120910645,-0.11,-0.02,-0.12,0.16
0.37672877311706543,-0.04,-0.08,-0.05,0.1
0.377453088760376,-0.02,-0.11,0.03,0.11
0.3878509998321533,-0.05,-0.05,0.12,0.13
0.39789509773254395,-0.17,-0.1,0.15,0.24
0.4073798656463623,-0.21,-0.03,0.07,0.22
0.4182119369506836,-0.18,0.01,-0.1,0.2
0.4281580448150635,-0.04,-0.02,-0.23,0.23
0.4762229919433594,0.17,0.02,-0.2,0.26
0.47667384147644043,0.25,0.11,-0.19,0.33
0.47742199897766113,0.29,0.18,-0.16,0.37
0.4778459072113037,0.51,0.11,-0.15,0.54
0.4782679080963135,0.31,-0.15,-0.05,0.34
0.4877607822418213,0.03,0.0,0.1,0.1
0.49764180183410645,0.18,-0.04,0.04,0.18
0.5072219371795654,0.22,0.06,0.06,0.23
0.5181279182434082,0.23,0.12,0.06,0.26
0.5279548168182373,0.25,0.16,0.03,0.29
0.5759170055389404,0.24,0.06,0.02,0.24
0.5763700008392334,0.17,-0.03,0.0,0.17
0.5771379470825195,0.16,-0.13,0.01,0.2
0.5775609016418457,0.31,-0.11,0.02,0.32
0.577988862991333,0.64,0.22,0.01,0.67
0.5876109600067139,-0.23,0.0,0.28,0.36
0.5976459980010986,-0.64,-0.17,0.1,0.66
0.6071310043334961,-0.31,-0.12,0.07,0.33
0.6179659366607666,-0.05,-0.04,0.14,0.15
0.6277589797973633,-0.01,-0.04,0.22,0.22
0.6765649318695068,-0.01,-0.07,0.19,0.2
0.6772959232330322,0.03,0.02,0.15,0.15
0.6777188777923584,0.1,0.06,0.08,0.14
0.6781418323516846,0.23,0.08,-0.04,0.24
0.6785590648651123,0.38,0.05,-0.1,0.39
0.6874368190765381,0.46,0.02,-0.06,0.46
0.697563886642456,0.39,0.03,0.05,0.39
0.7069799900054932,0.28,0.04,0.11,0.3
0.7179830074310303,0.19,0.05,0.19,0.27
0.7276217937469482,0.0,0.04,0.19,0.19
0.7766330242156982,-0.17,-0.09,0.08,0.2
0.7772557735443115,-0.24,-0.17,0.18,0.34
0.7776820659637451,-0.18,-0.13,0.24,0.32
0.7780869007110596,0.08,-0.13,0.3,0.33
0.7784898281097412,0.19,-0.09,0.37,0.42
0.7873029708862305,0.2,-0.07,0.29,0.35
0.7972469329833984,0.07,-0.07,0.24,0.25
0.8067739009857178,-0.08,-0.04,0.19,0.21
0.8178060054779053,-0.05,0.0,0.08,0.09
0.8275048732757568,0.07,-0.02,0.11,0.13
0.8766148090362549,-0.05,-0.09,0.18,0.2
0.8772339820861816,-0.28,-0.12,0.12,0.32
0.8776569366455078,-0.35,-0.08,0.07,0.36
0.878079891204834,-0.21,-0.06,0.08,0.23
0.878485918045044,0.11,-0.06,0.11,0.16
0.8871018886566162,0.24,-0.07,0.24,0.34
0.8970589637756348,0.08,-0.04,0.26,0.27
0.9065959453582764,-0.18,-0.04,0.14,0.23
0.9175970554351807,-0.33,-0.05,0.2,0.38
0.92728590965271,-0.32,0.07,0.34,0.47
0.9771831035614014,-0.18,0.29,0.39,0.51
0.9776129722595215,0.04,-0.02,0.48,0.48
0.9780359268188477,0.09,-0.26,0.47,0.54
0.9784538745880127,0.08,-0.12,0.45,0.47
0.978874921798706,0.13,0.02,0.39,0.41
0.9870889186859131,0.34,0.01,0.37,0.5
0.9970080852508545,0.77,-0.15,0.39,0.87
1.0066077709197998,0.88,-0.2,0.05,0.9
1.0170059204101562,0.72,0.02,0.04,0.72
1.0272138118743896,0.26,-0.1,0.35,0.44
1.0781328678131104,-0.02,-0.27,0.54,0.6
1.0785648822784424,0.08,-0.23,0.48,0.53
1.078969955444336,0.29,-0.23,0.56,0.67
1.079374074935913,0.23,-0.22,0.73,0.79
1.0798017978668213,-0.06,-0.18,0.65,0.67
1.086827039718628,-0.02,-0.19,0.73,0.75
1.0968568325042725,0.52,-0.15,0.92,1.06
1.106327772140503,0.89,-0.15,0.88,1.26
1.1169707775115967,0.09,-0.37,0.25,0.45
1.1269519329071045,-0.72,-0.28,-0.18,0.79
1.1768279075622559,-1.2,-0.3,-0.24,1.26
1.1772539615631104,-1.26,-0.18,-0.38,1.32
1.177706003189087,-0.86,-0.1,-0.01,0.86
1.1781718730926514,-0.57,-0.06,0.22,0.61
1.1786558628082275,-0.31,-0.05,0.25,0.4
1.186811923980713,-0.11,-0.04,0.23,0.25
1.1967508792877197,-0.11,-0.06,0.15,0.19
1.206254005432129,-0.19,-0.07,0.14,0.24
1.2167150974273682,-0.27,-0.07,0.23,0.36
1.2268640995025635,-0.28,-0.12,0.02,0.3
1.2781798839569092,-0.23,-0.13,-0.26,0.37
1.2786049842834473,-0.27,-0.12,-0.31,0.42
1.279020071029663,-0.38,-0.09,-0.26,0.46
1.2794339656829834,-0.25,-0.07,-0.27,0.37
1.2798469066619873,-0.13,-0.03,-0.41,0.43
1.2865850925445557,-0.26,0.03,-0.42,0.49
1.2966630458831787,-0.33,-0.01,-0.31,0.45
1.3060338497161865,-0.18,-0.06,-0.21,0.28
1.316654920578003,-0.03,-0.04,-0.12,0.13
1.3267409801483154,-0.06,-0.07,-0.12,0.15
1.3808000087738037,-0.27,-0.09,-0.27,0.39
1.381230115890503,-0.33,-0.08,-0.25,0.42
1.3816509246826172,-0.38,-0.12,-0.02,0.39
1.3820750713348389,-0.35,-0.16,0.17,0.42
1.3825349807739258,-0.29,-0.09,0.19,0.35
1.3862559795379639,-0.17,-0.03,0.15,0.22
1.3963549137115479,0.04,0.01,0.05,0.06
1.4058477878570557,0.3,0.27,-0.03,0.4
1.4164679050445557,0.52,0.38,0.03,0.64
1.4265720844268799,0.76,0.32,-0.07,0.82
1.4769928455352783,0.84,0.25,-0.21,0.9
1.477423906326294,0.58,0.18,-0.25,0.65
1.4778478145599365,0.6,0.1,-0.17,0.63
1.4782719612121582,0.82,0.09,-0.02,0.82
1.4786899089813232,1.07,0.05,0.17,1.08
1.4862689971923828,1.15,0.07,0.14,1.16
1.4963181018829346,0.68,-0.08,-0.7,0.97
1.5057828426361084,0.1,-0.11,-0.77,0.78
1.516381025314331,-0.05,0.04,0.01,0.06
1.5264849662780762,0.08,0.13,0.39,0.41
1.577934980392456,0.1,0.1,0.15,0.2
1.5783650875091553,0.02,0.03,-0.05,0.06
1.578787088394165,-0.02,-0.02,0.1,0.1
1.5792369842529297,0.16,-0.01,0.18,0.24
1.5796549320220947,0.26,-0.02,0.27,0.37
1.586021900177002,0.24,-0.04,0.1,0.26
1.5961668491363525,0.3,0.01,-0.04,0.3
1.605576992034912,0.25,0.03,-0.38,0.45
1.6162669658660889,0.1,0.09,-0.58,0.59
1.6263420581817627,-0.15,0.13,-0.58,0.61
1.6782219409942627,-0.37,0.09,-0.54,0.66
1.6786530017852783,-0.61,0.03,-0.36,0.7
1.6790599822998047,-0.63,0.03,-0.16,0.65
1.6794440746307373,-0.36,0.03,0.02,0.36
1.6798460483551025,-0.1,0.04,0.09,0.14
1.6858689785003662,0.08,0.09,0.08,0.14
1.6959660053253174,0.23,0.13,0.08,0.27
1.7054378986358643,0.17,0.13,-0.06,0.22
1.7159850597381592,0.04,0.11,-0.14,0.18
1.7262418270111084,0.01,0.06,0.01,0.06
1.7774419784545898,0.12,0.05,0.22,0.25
1.7778770923614502,0.35,0.08,0.38,0.52
1.7783048152923584,0.5,0.11,0.52,0.72
1.778731107711792,0.55,0.05,0.76,0.93
1.7791519165039062,0.54,0.02,0.72,0.9
1.7857201099395752,0.55,0.06,0.53,0.76
1.795954942703247,0.69,0.14,0.45,0.83
1.8053529262542725,0.74,0.17,0.42,0.86
1.815911054611206,0.72,0.2,0.51,0.9
1.826051950454712,0.85,0.21,0.57,1.04
1.8776299953460693,0.96,0.24,0.59,1.15
1.8780648708343506,1.04,0.25,0.67,1.26
1.8784878253936768,1.15,0.21,0.94,1.5
1.8789129257202148,1.31,0.31,0.93,1.63
1.8793318271636963,1.48,0.39,0.79,1.72
1.8856871128082275,1.56,0.5,0.97,1.9
1.8958349227905273,1.55,0.57,0.88,1.87
1.905221939086914,1.46,0.7,0.83,1.81
1.9158339500427246,1.36,0.97,0.92,1.9
1.9258201122283936,1.13,1.04,1.0,1.83
1.9774858951568604,1.03,1.16,0.76,1.72
1.9779198169708252,1.17,1.59,0.64,2.07
1.9783399105072021,1.38,2.1,0.76,2.62
1.9787569046020508,1.06,2.63,1.39,3.15
1.979172945022583,1.42,2.81,2.06,3.76
1.98580002784729,1.71,2.95,2.58,4.27
1.9955389499664307,1.95,3.13,3.08,4.8
2.004997968673706,2.14,3.36,3.57,5.34
2.015597105026245,1.44,5.53,2.66,6.3
2.025739908218384,3.12,9.26,1.23,9.84
2.077422857284546,5.26,8.63,4.28,10.97
2.0778470039367676,2.98,7.48,5.68,9.85
2.0782630443573,2.55,7.97,6.41,10.54
2.0786828994750977,4.42,9.17,6.97,12.33
2.07909893989563,6.09,9.87,5.31,12.75
2.0856969356536865,5.64,9.92,3.92,12.06
2.09539794921875,4.32,9.13,2.78,10.47
2.104928970336914,3.75,8.19,0.35,9.01
2.1154987812042236,2.95,7.71,-2.5,8.62
2.125541925430298,1.32,8.06,-4.36,9.25
2.1770670413970947,-0.94,9.37,-3.97,10.21
2.1775009632110596,-1.98,8.37,-2.12,8.85
2.1779229640960693,-0.18,4.73,-0.54,4.76
2.178352117538452,1.18,2.06,1.37,2.74
2.1787688732147217,-2.2,0.66,-1.19,2.58
2.1856210231781006,-3.4,3.58,-5.37,7.29
2.1954028606414795,0.72,4.9,-0.5,4.97
2.2047829627990723,4.23,2.94,2.9,5.91
2.215308904647827,5.89,1.34,2.95,6.72
2.2254209518432617,4.71,0.35,2.23,5.22
2.27799391746521,3.34,-0.82,1.58,3.78
2.2784299850463867,2.88,-2.04,1.39,3.79
2.2788589000701904,2.38,-2.39,1.53,3.7
2.279282808303833,1.64,-2.23,1.7,3.24
2.2797048091888428,0.8,-2.12,1.66,2.8
2.2854440212249756,0.0,-2.3,1.5,2.74
2.2949697971343994,-0.22,-2.51,1.54,2.95
2.304565906524658,0.21,-2.61,1.53,3.03
2.3164708614349365,0.9,-2.71,1.45,3.2
2.325256109237671,1.54,-2.84,1.55,3.58
2.3345749378204346,1.98,-3.17,1.76,4.13
2.37808895111084,2.19,-3.6,1.89,4.61
2.3785178661346436,1.94,-4.1,1.69,4.84
2.3789429664611816,1.55,-4.65,1.57,5.14
2.3793699741363525,1.26,-5.22,1.54,5.58
2.3852651119232178,1.12,-5.72,1.49,6.01
2.39501690864563,1.26,-6.05,1.64,6.39
2.4044179916381836,1.36,-6.22,1.73,6.59
2.4150819778442383,1.44,-6.26,1.76,6.66
2.4251620769500732,1.28,-6.12,1.71,6.48
2.4344661235809326,0.56,-5.68,1.0,5.79
2.4770100116729736,-0.69,-5.2,-0.23,5.25
2.4774420261383057,-1.91,-4.9,-1.53,5.47
2.4778621196746826,-3.03,-4.41,-3.17,6.21
2.478289842605591,-3.83,-3.87,-4.53,7.08
2.4847400188446045,-4.73,-3.52,-5.66,8.17
2.494821786880493,-5.6,-3.33,-6.7,9.34
2.5043060779571533,-6.08,-3.23,-7.2,9.96
2.515004873275757,-6.37,-3.11,-7.27,10.15
2.5250790119171143,-6.58,-2.89,-7.34,10.27
2.5343120098114014,-6.91,-2.45,-7.9,10.77
2.577410936355591,-7.0,-1.76,-8.5,11.15
2.5778470039367676,-6.66,-1.25,-8.58,10.93
2.5782668590545654,-6.31,-1.02,-8.26,10.44
2.5786850452423096,-6.15,-0.91,-8.27,10.34
2.5846049785614014,-6.16,-1.04,-8.43,10.49
2.5946779251098633,-6.34,-1.41,-8.19,10.45
2.6041419506073,-6.93,1.98,-7.71,10.55
2.6148130893707275,-2.26,6.61,-3.16,7.66
2.6248559951782227,10.63,5.32,8.9,14.84
2.6342499256134033,25.45,14.6,29.23,41.41
2.6780998706817627,15.43,15.25,0.91,21.71
2.678632974624634,0.86,11.29,-13.09,17.3
2.6790599822998047,-8.2,4.97,-5.26,10.93
2.6794798374176025,-14.07,-4.53,-4.76,15.52
2.68448805809021,-11.55,-3.41,1.12,12.09
2.6945009231567383,-9.14,-2.74,-2.72,9.92
2.704051971435547,-5.64,-1.55,-7.38,9.41
2.7146408557891846,-2.55,0.3,-5.9,6.43
2.7247440814971924,-0.87,0.56,-3.49,3.64
2.7340238094329834,0.63,0.67,-2.5,2.66
2.777662992477417,2.27,1.01,-1.9,3.12
2.7785251140594482,1.95,0.82,-0.69,2.22
2.7789480686187744,-0.34,0.35,-0.12,0.5
2.779370069503784,-2.09,-0.1,-0.81,2.24
2.784353017807007,-2.05,0.05,-0.99,2.27
2.794384002685547,-1.37,0.16,-0.1,1.38
2.8039309978485107,-0.64,-0.08,0.14,0.66
2.8146231174468994,0.03,-0.07,-0.34,0.34
2.824605941772461,0.6,0.02,-0.87,1.05
2.8338708877563477,0.7,0.11,-1.17,1.36
2.8779728412628174,0.46,0.16,-1.13,1.23
2.8784070014953613,-0.14,0.07,-0.91,0.92
2.8788340091705322,-0.81,-0.11,-0.49,0.95
2.879258871078491,-1.14,-0.2,-0.01,1.15
2.8842108249664307,-0.98,-0.12,0.25,1.01
2.894274950027466,-0.49,0.09,0.51,0.71
2.9037020206451416,0.07,0.23,0.85,0.88
2.9142720699310303,0.66,0.22,0.91,1.14
2.9245340824127197,1.23,0.11,0.69,1.41
2.933804988861084,1.33,0.06,0.39,1.38
2.9781389236450195,1.02,0.04,0.11,1.02
2.9785799980163574,0.71,0.07,0.08,0.71
2.979006052017212,0.48,0.04,0.42,0.63
2.9794270992279053,0.37,-0.06,0.81,0.89
2.984031915664673,0.39,-0.13,1.04,1.11
2.994136095046997,0.71,-0.21,1.31,1.5
3.003542900085449,1.57,-0.27,1.62,2.27
3.0142500400543213,2.45,-0.28,1.54,2.9
3.0243160724639893,2.58,-0.15,1.15,2.82
3.0335938930511475,1.96,0.06,0.7,2.08
3.0783398151397705,1.35,0.24,0.37,1.42
3.0787839889526367,1.14,0.25,0.54,1.28
3.079209089279175,1.37,0.07,0.86,1.61
3.079636812210083,1.69,-0.15,1.1,2.02
3.0838589668273926,1.81,-0.25,1.53,2.38
3.094047784805298,1.95,-0.23,1.79,2.65
3.1032798290252686,1.86,0.03,1.53,2.4
3.1140248775482178,1.74,0.38,1.11,2.09
3.124108076095581,1.63,0.62,0.84,1.93
3.133420944213867,1.43,0.7,0.64,1.71
3.1779778003692627,1.25,0.77,0.52,1.55
3.1787450313568115,1.05,1.0,0.51,1.53
3.1791629791259766,0.85,1.37,0.4,1.66
3.1795780658721924,1.16,2.26,0.63,2.61
3.1837680339813232,1.25,2.65,1.55,3.31
3.1937777996063232,0.56,3.39,2.02,3.98
3.203152894973755,1.2,5.96,1.74,6.32
3.21393084526062,3.53,7.51,3.06,8.84
3.2240169048309326,4.37,6.56,5.28,9.48
3.2333269119262695,3.74,6.8,5.03,9.24
3.2785208225250244,4.05,7.36,5.8,10.2
3.278959035873413,4.03,8.07,6.83,11.31
3.2793829441070557,3.86,9.01,7.03,12.06
3.2798030376434326,4.05,9.79,6.63,12.49
3.283627986907959,4.09,9.72,6.59,12.43
3.293699026107788,3.45,8.53,5.56,10.75
3.3029778003692627,3.91,7.49,2.99,8.96
3.313788890838623,5.64,6.79,-0.48,8.83
3.3238518238067627,5.37,8.16,-3.85,10.49
3.333002805709839,0.22,10.96,-4.57,11.87
3.378293991088867,-4.45,11.57,-2.93,12.73
3.378727912902832,-1.99,7.74,-0.79,8.03
3.37914776802063,1.73,3.6,2.1,4.51
3.3795669078826904,-0.21,2.61,0.99,2.79
3.383654832839966,-3.28,3.68,-6.03,7.78
3.3935489654541016,1.03,5.57,-3.5,6.65
3.4031307697296143,5.24,3.85,1.95,6.78
3.4136159420013428,6.75,1.17,3.42,7.65
3.423717975616455,5.34,-0.15,2.92,6.08
3.4329798221588135,3.48,-0.9,2.08,4.15
3.4779539108276367,2.57,-1.71,2.48,3.95
3.478740930557251,1.97,-2.28,2.71,4.05
3.4791648387908936,1.3,-2.48,2.5,3.75
3.479585886001587,0.67,-2.56,2.59,3.7
3.483431100845337,0.42,-2.66,2.79,3.87
3.4934427738189697,0.68,-2.77,2.75,3.96
3.5029571056365967,1.17,-2.95,2.75,4.19
3.5135109424591064,1.74,-3.21,2.93,4.68
3.5234711170196533,2.18,-3.61,3.01,5.18
3.532849073410034,2.26,-3.95,2.85,5.36
3.577860116958618,2.16,-4.4,2.78,5.63
3.578486919403076,2.01,-5.0,2.79,6.06
3.5789120197296143,1.7,-5.71,2.57,6.48
3.5793330669403076,1.25,-6.38,2.23,6.87
3.583132028579712,1.02,-6.9,1.95,7.24
3.593189001083374,0.57,-7.25,1.59,7.44
3.6028459072113037,-0.07,-7.72,1.29,7.82
3.6133477687835693,-0.7,-8.12,1.19,8.23
3.623504877090454,-1.28,-7.87,0.83,8.01
3.6327250003814697,-1.88,-7.35,0.06,7.58
3.6774470806121826,-2.92,-6.97,-1.06,7.63
3.678291082382202,-4.02,-6.07,-2.34,7.64
3.6787149906158447,-5.14,-4.6,-4.79,8.39
3.679136037826538,-6.56,-2.72,-7.08,10.02
3.683027982711792,-7.66,-1.26,-7.24,10.61
3.69311785697937,-8.18,-0.68,-6.62,10.54
3.7028157711029053,-8.85,-0.19,-7.22,11.42
3.71321177482605,-9.96,0.25,-8.78,13.27
3.723317861557007,-10.1,0.0,-9.53,13.88
3.733299970626831,-8.55,-0.29,-8.69,12.19
3.776514768600464,-6.99,0.11,-8.21,10.78
3.7774879932403564,-5.83,0.52,-8.29,10.14
3.777913808822632,-5.5,1.19,-8.56,10.24
3.7783329486846924,-6.5,7.75,-6.96,12.27
3.782850980758667,-0.78,-0.32,-7.03,7.08
3.792930841445923,10.28,10.46,7.01,16.25
3.802845001220703,23.62,19.6,25.89,40.15
3.813046932220459,7.02,14.39,-6.96,17.45
3.8231117725372314,-3.57,5.61,-7.66,10.14
3.8323988914489746,-11.43,-3.83,1.95,12.21
3.873915910720825,-16.77,-2.82,1.15,17.04
3.874774932861328,-14.51,-2.43,-3.87,15.21
3.8752410411834717,-8.31,-0.97,-7.18,11.02
3.8756608963012695,-5.66,0.42,-5.39,7.82
3.8827199935913086,-2.08,0.92,-3.5,4.17
3.892749071121216,1.14,0.95,-3.61,3.9
3.90221905708313,3.24,0.89,-4.26,5.42
3.91291880607605,3.69,0.91,-3.55,5.2
3.9228858947753906,1.61,0.75,-2.61,3.15
3.9323089122772217,-0.48,0.5,-2.27,2.37
3.9746410846710205,-1.2,0.22,-2.4,2.69
3.975510835647583,-1.67,0.27,-1.9,2.54
3.975938081741333,-1.88,0.1,-0.87,2.07
3.976357936859131,-1.51,-0.01,-0.21,1.52
3.9825809001922607,-0.56,-0.11,0.03,0.57
3.992563009262085,0.54,-0.19,0.11,0.58
4.002080917358398,1.08,-0.22,0.27,1.13
4.012768030166626,0.94,-0.23,0.32,1.01
4.022841930389404,0.65,-0.24,0.58,0.9
4.03213906288147,0.43,-0.23,0.44,0.65
4.075324773788452,0.53,-0.26,0.19,0.62
4.0760838985443115,0.8,-0.2,0.14,0.83
4.076510906219482,0.99,-0.06,0.11,0.99
4.076930999755859,1.13,0.03,0.23,1.15
4.082443952560425,1.19,0.03,0.49,1.28
4.092430830001831,1.18,0.04,0.75,1.39
4.101953983306885,1.11,0.07,0.95,1.46
4.112656831741333,0.9,0.01,1.08,1.4
4.122719049453735,0.46,-0.06,1.17,1.25
4.1320250034332275,0.08,-0.01,1.14,1.14
4.175236940383911,-0.03,0.07,1.16,1.16
4.17598295211792,0.26,-0.01,1.29,1.31
4.176410913467407,0.67,-0.16,1.25,1.42
4.176832914352417,0.98,-0.21,0.9,1.34
4.182311773300171,1.08,-0.26,0.77,1.35
4.1923987865448,1.01,-0.27,0.54,1.17
4.201793909072876,1.08,-0.19,0.46,1.18
4.2125020027160645,1.18,-0.22,0.6,1.34
4.222492933273315,1.45,-0.28,0.82,1.68
4.231803894042969,1.93,-0.32,1.55,2.49
4.274602890014648,2.51,-0.37,2.25,3.39
4.275363922119141,3.01,-0.24,2.14,3.7
4.275787115097046,2.42,0.08,1.41,2.8
4.276205778121948,1.22,0.33,1.24,1.77
4.282150030136108,0.78,0.53,1.19,1.51
4.292228937149048,1.04,0.56,1.29,1.74
4.3016839027404785,1.57,0.64,1.31,2.14
4.31237006187439,1.83,0.95,1.21,2.39
4.322416067123413,1.75,1.51,1.05,2.53
4.3317999839782715,1.27,1.98,0.74,2.46
4.37487006187439,0.8,2.77,0.89,3.01
4.375623941421509,0.79,3.63,1.55,4.02
4.3760459423065186,0.74,5.32,2.36,5.86
4.3764660358428955,2.41,7.45,2.84,8.32
4.382077932357788,4.86,7.71,4.58,10.2
4.392048120498657,4.91,7.38,5.62,10.49
4.401479005813599,4.52,7.99,5.62,10.76
4.412200927734375,4.15,8.46,6.16,11.25
4.422311067581177,3.29,8.73,6.87,11.58
4.431571960449219,3.43,9.79,7.95,13.06
4.474675893783569,4.72,10.41,6.99,13.39
4.475365877151489,6.42,9.63,4.7,12.49
4.475786924362183,6.37,7.99,3.35,10.75
4.476208925247192,5.6,6.43,0.33,8.53
4.481928110122681,4.34,7.11,-3.85,9.17
4.491940975189209,0.19,10.78,-4.73,11.77
4.5013909339904785,-4.69,12.58,-1.07,13.46
4.512069940567017,-5.13,9.91,-0.04,11.15
4.522053003311157,-0.44,4.98,0.87,5.07
4.531419992446899,0.76,2.03,2.42,3.24
4.57488489151001,-4.38,1.19,-2.77,5.31
4.575746774673462,-3.49,4.12,-6.0,8.07
4.576172113418579,1.98,5.3,-0.13,5.65
4.576592922210693,6.21,2.36,3.39,7.45
4.581711053848267,8.41,-0.42,4.64,9.61
4.591705083847046,6.91,-1.8,4.45,8.41
4.601209878921509,4.79,-2.59,3.98,6.74
4.611891031265259,3.3,-2.91,3.89,5.87
4.62182879447937,1.91,-2.77,3.61,4.93
4.631286859512329,0.48,-2.51,3.28,4.15
4.674937963485718,-0.27,-2.25,3.05,3.79
4.675701856613159,-0.03,-2.24,2.76,3.55
4.6761229038238525,0.51,-2.52,2.57,3.63
4.676548957824707,1.0,-2.86,2.26,3.77
4.681564092636108,1.48,-3.11,1.95,3.95
4.691534996032715,1.87,-3.36,1.9,4.28
4.7011048793792725,1.92,-3.86,1.81,4.67
4.711819887161255,1.75,-4.56,1.65,5.15
4.72176194190979,1.54,-5.11,1.6,5.57
4.7311389446258545,1.13,-5.68,1.26,5.92
4.774420976638794,0.83,-6.2,1.14,6.35
4.775307893753052,0.39,-6.62,1.31,6.75
4.7757439613342285,-0.12,-6.74,1.12,6.83
4.7761759757995605,-0.53,-6.66,0.4,6.69
4.7813849449157715,-1.36,-6.45,-0.96,6.66
4.791449785232544,-2.48,-6.01,-2.28,6.88
4.80093789100647,-3.57,-5.42,-3.2,7.23
4.811632871627808,-4.66,-4.81,-3.77,7.68
4.821507930755615,-5.8,-4.07,-5.03,8.68
4.8311607837677,-6.71,-3.11,-6.71,9.98
4.875304937362671,-6.98,-2.17,-7.64,10.57
4.8761889934539795,-7.4,-1.41,-8.17,11.11
4.876617908477783,-8.6,-0.77,-9.09,12.53
4.877036809921265,-9.3,-0.81,-9.44,13.27
4.881310939788818,-9.36,-1.15,-9.63,13.47
4.891166925430298,-9.08,-1.23,-9.95,13.52
4.900734901428223,-8.42,-1.41,-10.0,13.14
4.911492109298706,-7.85,-1.86,-9.99,12.84
4.921644926071167,-7.91,-2.66,-9.88,12.93
4.93091893196106,-8.64,3.43,-8.71,12.73
4.974036931991577,-3.87,3.68,-4.45,6.95
4.9748289585113525,10.21,7.56,7.91,14.96
4.975261926651001,26.64,18.16,31.02,44.74
4.975683927536011,9.87,16.94,-5.37,20.32
4.98115611076355,0.38,11.87,-14.31,18.59
4.99101996421814,-6.93,-1.12,-0.91,7.07
5.000618934631348,-17.0,-5.11,1.6,17.82
5.011328935623169,-14.54,-5.45,-4.0,16.03
5.021589994430542,-10.13,-1.33,-8.27,13.14
5.030745983123779,-7.28,-0.05,-7.13,10.19
5.072945833206177,-3.15,1.46,-4.35,5.56
5.073785066604614,-0.49,1.17,-3.22,3.46
5.07420802116394,1.59,0.7,-2.98,3.44
5.074631929397583,2.73,0.61,-2.27,3.6
5.081049919128418,1.47,0.58,-1.76,2.36
5.091187953948975,-0.62,0.37,-1.63,1.78
5.100498914718628,-1.1,0.18,-1.9,2.2
5.111191034317017,-0.42,0.24,-1.32,1.4
5.155833959579468,-0.03,0.25,-0.31,0.39
5.156277894973755,0.05,0.1,-0.02,0.11
5.156697034835815,0.35,-0.1,-0.34,0.49
5.157111883163452,0.56,-0.2,-0.6,0.84
5.160405874252319,0.37,-0.16,-0.48,0.62
5.170700788497925,-0.01,-0.04,-0.19,0.19
5.181006908416748,-0.29,-0.08,0.04,0.3
5.191001892089844,-0.35,-0.22,0.2,0.45
5.200423002243042,-0.15,-0.2,0.15,0.29
5.211249113082886,0.24,-0.1,0.2,0.32
5.257903814315796,0.58,-0.02,0.44,0.72
5.258347988128662,0.83,0.02,0.56,1.0
5.2587730884552,0.94,0.07,0.44,1.04
5.25918984413147,1.14,0.06,0.33,1.18
5.260304927825928,1.44,0.01,0.34,1.47
5.27022385597229,1.65,0.06,0.35,1.68
5.280847787857056,1.43,0.28,0.39,1.5
5.290833950042725,0.67,0.27,0.76,1.04
5.300347089767456,-0.06,0.1,1.02,1.02
5.311016798019409,-0.39,-0.03,1.14,1.2
5.357692003250122,-0.08,-0.15,1.45,1.45
5.358138799667358,1.1,-0.29,1.8,2.12
5.358560800552368,2.42,-0.43,1.77,3.02
5.358985900878906,2.86,-0.45,1.31,3.17
5.359977960586548,2.55,-0.28,0.88,2.71
5.369982004165649,2.08,-0.06,0.65,2.18
5.3806939125061035,1.9,0.11,0.8,2.06
5.390610933303833,1.86,0.14,1.2,2.21
5.400170087814331,1.61,-0.04,1.69,2.33
5.410891771316528,1.43,-0.15,2.17,2.6
5.456430912017822,1.29,0.06,2.11,2.47
5.457989931106567,1.27,0.44,1.6,2.08
5.458410978317261,1.22,0.92,0.93,1.78
5.4588258266448975,1.13,1.45,0.24,1.85
5.4598588943481445,0.82,1.61,0.28,1.82
5.4698708057403564,0.97,1.78,0.45,2.07
5.480545997619629,1.37,2.41,1.05,2.96
5.490586996078491,1.58,2.85,2.03,3.83
5.5000739097595215,1.32,3.33,3.02,4.68
5.510761022567749,1.8,5.46,2.84,6.41
5.556370973587036,3.91,7.94,2.96,9.33
5.558038949966431,5.65,7.72,5.02,10.8
5.55846095085144,4.67,7.77,5.54,10.62
5.558877944946289,4.51,8.6,5.9,11.36
5.5598227977752686,4.85,9.78,7.3,13.13
5.569807767868042,5.25,10.67,8.13,14.4
5.580384016036987,5.28,10.58,6.87,13.67
5.590447902679443,5.09,9.62,5.48,12.18
5.599904775619507,5.31,8.19,3.77,10.46
5.610541105270386,6.07,6.97,0.33,9.24
5.620543003082275,5.99,7.55,-3.65,10.3
5.65681004524231,2.59,10.23,-4.97,11.66
5.657256841659546,-1.92,11.91,-2.19,12.26
5.657681941986084,-3.97,10.51,-1.34,11.31
5.6595728397369385,-1.54,5.94,-0.24,6.14
5.669673919677734,1.1,2.53,2.21,3.53
5.680251836776733,-3.45,1.25,-1.58,3.99
5.690323114395142,-3.27,3.8,-5.85,7.7
5.699664831161499,2.16,5.63,-0.51,6.05
5.710387945175171,6.46,3.26,2.88,7.78
5.720421075820923,8.44,0.79,3.93,9.34
5.757221937179565,6.72,-0.4,3.43,7.55
5.75766396522522,4.24,-1.15,2.48,5.04
5.7580931186676025,2.41,-1.97,2.17,3.79
5.759387969970703,1.18,-2.68,2.08,3.59
5.769527912139893,0.13,-2.87,1.98,3.48
5.780129909515381,-0.68,-2.78,2.01,3.49
5.790137052536011,-0.84,-2.51,1.72,3.15
5.799525022506714,-0.46,-2.51,1.51,2.96
5.810264825820923,0.24,-2.83,1.57,3.24
5.82024884223938,1.13,-3.1,1.37,3.57
5.856803894042969,1.73,-3.28,1.14,3.87
5.857251882553101,1.83,-3.5,1.05,4.08
5.857674837112427,1.69,-3.86,1.01,4.33
5.859323978424072,1.54,-4.6,1.19,4.99
5.8692848682403564,1.35,-5.39,1.33,5.71
5.879956007003784,1.02,-6.19,1.29,6.4
5.889959096908569,0.67,-6.95,1.43,7.12
5.899400949478149,0.45,-7.53,1.61,7.71
5.91013503074646,0.17,-7.93,1.49,8.07
5.920169115066528,0.05,-8.11,1.42,8.23
5.956533908843994,-0.18,-7.96,1.21,8.05
5.956981897354126,-0.66,-7.49,0.55,7.53
5.957410097122192,-1.69,-6.97,-0.37,7.18
5.959234952926636,-3.02,-6.26,-2.05,7.24
5.9692018032073975,-4.68,-5.35,-4.41,8.36
5.9798688888549805,-6.22,-4.35,-6.42,9.94
5.989836931228638,-7.25,-3.32,-7.03,10.63
5.99935507774353,-7.88,-2.6,-7.05,10.88
6.009941816329956,-8.27,-2.15,-7.26,11.21
6.019953012466431,-8.78,-1.41,-8.03,11.98
6.05708909034729,-8.86,-0.39,-8.96,12.6
6.057535886764526,-8.34,0.06,-9.32,12.5
6.057959794998169,-7.63,-0.16,-8.97,11.77
6.059063911437988,-7.29,-0.19,-8.68,11.33
6.069001913070679,-7.44,-0.2,-9.33,11.93
6.079613924026489,-8.38,-0.55,-10.09,13.12
6.089691877365112,-9.52,3.17,-9.83,14.04
6.099150896072388,-4.56,6.88,-5.45,9.89
6.109818935394287,10.55,8.37,9.97,16.75
6.119848966598511,27.53,18.17,34.75,47.91
6.1577370166778564,12.8,15.21,-2.26,20.0
6.158982992172241,1.62,10.43,-15.55,18.79
6.15941596031189,-6.27,1.05,-0.71,6.39
6.159843921661377,-16.52,-2.01,4.05,17.12
6.168970823287964,-15.47,-3.86,-1.3,15.99
6.17953085899353,-8.74,-2.28,-6.25,10.98
6.189410924911499,-5.68,-1.43,-7.68,9.65
6.198923826217651,-1.8,0.25,-6.21,6.47
6.2095959186553955,0.79,1.04,-4.35,4.54
6.219645977020264,1.99,0.64,-4.3,4.78
6.258095979690552,2.4,0.49,-3.98,4.67
6.25885796546936,1.26,0.7,-3.16,3.47
6.25928807258606,-1.28,0.62,-1.93,2.39
6.259714841842651,-3.01,0.25,-0.73,3.1
6.268728017807007,-2.72,0.06,-0.09,2.72
6.279364824295044,-1.86,-0.09,0.55,1.94
6.289226770401001,-1.41,-0.22,0.79,1.63
6.2987799644470215,-1.21,-0.3,0.39,1.3
6.309525966644287,-0.35,-0.21,-0.22,0.46
6.319546937942505,0.58,0.02,-0.66,0.87
6.358590841293335,0.65,0.13,-1.07,1.25
6.359219789505005,0.34,0.12,-1.49,1.53
6.359643936157227,-0.04,-0.05,-1.32,1.32
6.360069990158081,-0.36,-0.27,-0.74,0.86
6.368611097335815,-0.49,-0.3,-0.05,0.57
6.379231929779053,-0.48,-0.04,0.5,0.69
6.3893139362335205,-0.24,0.16,0.83,0.87
6.3986780643463135,0.26,0.33,1.18,1.25
6.409432888031006,1.0,0.32,1.16,1.56
6.4194159507751465,1.54,0.29,1.05,1.88
6.458853006362915,1.35,0.22,0.54,1.47
6.459300994873047,0.66,0.08,0.04,0.66
6.459723949432373,0.17,-0.01,0.1,0.19
6.46015477180481,0.02,-0.08,0.38,0.38
6.4685258865356445,-0.07,-0.02,0.69,0.69
6.479077100753784,0.12,0.01,1.07,1.07
6.489311933517456,0.47,0.03,1.11,1.2
6.4985129833221436,0.9,-0.01,0.86,1.24
6.509228944778442,1.28,-0.21,0.67,1.45
6.5193140506744385,1.6,-0.19,0.53,1.69
6.557600975036621,1.64,-0.02,0.45,1.7
6.5587029457092285,1.29,0.22,0.4,1.36
6.559125900268555,0.97,0.39,0.58,1.19
6.559551000595093,0.93,0.43,1.04,1.45
6.5683369636535645,1.12,0.23,1.51,1.89
6.578964948654175,1.38,0.04,2.02,2.44
6.589126825332642,1.69,0.09,2.26,2.82
6.59835410118103,1.87,0.23,1.97,2.72
6.609040021896362,1.95,0.52,1.62,2.58
6.619021892547607,1.96,1.08,1.18,2.52
6.658690929412842,1.79,1.93,1.02,2.82
6.6595540046691895,1.57,2.45,1.11,3.11
6.65998101234436,1.37,2.78,1.78,3.57
6.660402059555054,1.63,2.8,2.45,4.06
6.668181896209717,2.12,2.83,3.0,4.63
6.678846120834351,2.59,3.26,3.24,5.27
6.689060926437378,2.63,5.31,2.84,6.57
6.698235988616943,3.89,8.1,2.72,9.38
6.7088987827301025,5.47,8.89,5.22,11.67
6.718825101852417,5.46,9.38,6.79,12.8
6.758372068405151,5.98,10.43,7.53,14.18
6.759318113327026,6.38,11.43,8.16,15.42
6.759744882583618,5.94,11.47,8.56,15.49
6.760171890258789,4.99,10.36,7.67,13.82
6.768082857131958,4.35,9.23,4.64,11.2
6.778665781021118,4.69,7.96,-0.1,9.23
6.78884482383728,4.75,8.19,-5.51,10.95
6.798107862472534,2.3,11.38,-7.31,13.71
6.808767080307007,-3.57,13.55,-2.35,14.2
6.8188087940216064,-6.75,10.61,-0.07,12.57
6.8585309982299805,-3.03,4.88,-0.09,5.74
6.859249830245972,-0.23,2.47,0.84,2.61
6.859673976898193,-4.86,2.52,-3.86,6.69
6.860093832015991,-3.72,5.58,-7.24,9.86
6.8679039478302,2.55,6.91,-0.35,7.37
6.878532886505127,6.53,3.89,3.41,8.33
6.8888139724731445,7.7,1.74,3.51,8.63
6.897986888885498,5.72,0.64,2.24,6.17
6.908684015274048,4.14,-0.69,1.47,4.44
6.918673992156982,3.47,-1.86,1.83,4.34
6.959017038345337,2.61,-2.48,2.17,4.2
6.959762811660767,1.69,-2.7,2.22,3.88
6.960187911987305,0.61,-2.86,2.17,3.64
6.960608959197998,-0.05,-3.01,1.86,3.53
6.967719793319702,-0.18,-3.23,1.64,3.62
6.97836709022522,0.03,-3.45,1.44,3.73
6.988266944885254,0.59,-3.57,1.35,3.86
6.997813940048218,1.23,-3.76,1.5,4.23
7.008559942245483,1.72,-4.1,1.53,4.7
7.018512964248657,1.95,-4.53,1.45,5.14
7.058815956115723,1.82,-5.14,1.45,5.64
7.059631109237671,1.24,-5.92,1.33,6.19
7.060053110122681,0.53,-6.67,1.14,6.78
7.060473918914795,-0.04,-7.38,0.75,7.41
7.067589044570923,-0.08,-8.31,0.95,8.36
7.078161954879761,0.2,-9.04,1.49,9.16
7.088166952133179,0.63,-9.52,1.65,9.68
7.097616910934448,0.6,-9.62,1.75,9.79
7.108360052108765,0.07,-9.49,1.27,9.57
7.118347883224487,-0.92,-8.95,0.31,9.0
7.1595070362091064,-2.39,-8.36,-0.85,8.73
7.160361051559448,-3.78,-7.72,-2.22,8.87
7.160783052444458,-4.56,-6.62,-3.94,8.95
7.161201000213623,-5.23,-5.06,-5.35,9.03
7.167447805404663,-6.17,-3.76,-5.95,9.35
7.178072929382324,-7.03,-2.62,-6.49,9.91
7.187984943389893,-7.86,-1.57,-7.0,10.64
7.197508096694946,-8.95,-0.74,-7.89,11.95
7.2082200050354,-9.56,-0.14,-8.47,12.77
7.218172788619995,-9.56,0.43,-8.55,12.83
7.259115934371948,-9.07,0.59,-8.42,12.38
7.259972810745239,-8.4,0.43,-8.49,11.95
7.260396957397461,-7.6,0.0,-8.81,11.63
7.260815858840942,-7.0,-0.23,-8.65,11.12
7.26732611656189,-6.89,-0.45,-8.3,10.79
7.277981996536255,-7.33,3.97,-8.4,11.83
7.28788685798645,-2.4,13.44,-0.22,13.65
7.297364950180054,22.49,11.42,21.15,32.91
7.308211088180542,31.91,15.99,25.86,44.07
7.318121910095215,7.31,14.89,-6.95,17.98
7.352741003036499,-0.81,10.9,-15.11,18.64
7.353182077407837,-8.13,0.15,-2.15,8.41
7.353608846664429,-16.66,-4.96,7.38,18.88
7.357189893722534,-19.58,-3.7,-0.38,19.93
7.367170095443726,-12.77,-3.57,-7.83,15.39
7.37779688835144,-5.65,-0.65,-8.35,10.1
7.387775897979736,-1.5,1.87,-5.92,6.38
7.39725399017334,1.77,2.33,-2.97,4.16
7.407761812210083,4.28,1.45,-4.66,6.49
7.418000936508179,4.92,1.1,-5.08,7.15
7.45415186882019,1.89,0.7,-3.25,3.82
7.454584836959839,-1.97,0.41,-2.57,3.26
7.455006837844849,-2.77,0.07,-2.24,3.56
7.457086801528931,-2.2,0.02,-1.19,2.5
7.466977834701538,-1.95,0.05,0.15,1.95
7.4776318073272705,-1.81,-0.13,1.0,2.07
7.487605810165405,-0.93,-0.21,0.94,1.33
7.49710488319397,0.68,0.01,0.8,1.05
7.5077879428863525,1.66,0.04,0.82,1.85
7.517773866653442,1.71,0.07,0.54,1.79
7.553980112075806,1.33,-0.1,0.14,1.34
7.554413080215454,0.97,-0.32,-0.28,1.05
7.55483603477478,0.47,-0.4,-0.39,0.73
7.5567848682403564,-0.06,-0.28,-0.33,0.43
7.566860914230347,-0.15,-0.08,-0.1,0.19
7.577407121658325,-0.08,-0.05,0.46,0.46
7.587551832199097,0.18,-0.06,1.14,1.15
7.597008943557739,0.83,-0.03,1.48,1.69
7.607571840286255,1.47,0.06,1.62,2.18
7.617616891860962,1.67,0.18,1.73,2.41
7.654504060745239,1.61,0.27,1.71,2.36
7.654935121536255,1.49,0.19,1.45,2.08
7.655352830886841,1.44,-0.07,1.18,1.86
7.656599998474121,1.23,-0.25,1.28,1.79
7.666723966598511,1.4,-0.41,1.73,2.26
7.6773529052734375,1.49,-0.55,2.08,2.61
7.687246084213257,1.76,-0.41,2.35,2.96
7.696871995925903,2.08,-0.19,1.67,2.67
7.707324981689453,1.91,0.1,0.78,2.06
7.717489004135132,1.53,0.33,0.02,1.56
7.753473997116089,0.98,0.35,-0.14,1.05
7.75390887260437,0.55,0.27,0.25,0.66
7.754328966140747,0.42,0.2,0.7,0.84
7.756523847579956,0.79,0.48,0.91,1.29
7.766639947891235,1.0,1.18,0.58,1.65
7.777223825454712,0.87,1.87,0.29,2.08
7.787157773971558,0.81,2.21,0.65,2.44
7.796667814254761,0.83,2.46,1.3,2.9
7.807288885116577,1.09,2.52,1.62,3.18
7.817346811294556,1.31,2.91,2.17,3.85
7.8535521030426025,1.53,3.22,2.91,4.6
7.853977918624878,1.83,3.58,3.77,5.51
7.854396104812622,1.96,4.32,4.71,6.68
7.856512784957886,2.08,6.58,5.06,8.55
7.8663880825042725,3.97,10.01,5.4,12.04
7.877026796340942,7.28,11.86,7.48,15.79
7.887020826339722,8.62,12.51,8.48,17.39
7.896589040756226,8.13,12.85,8.29,17.31
7.907355070114136,7.19,12.51,8.44,16.71
7.917264938354492,5.95,11.4,7.54,14.9
7.954131841659546,4.39,9.02,2.88,10.43
7.954563856124878,4.67,7.96,-4.74,10.37
7.954984903335571,4.95,11.02,-8.97,15.04
7.956511974334717,-0.4,16.01,-4.39,16.6
7.966356039047241,-4.51,14.11,0.36,14.81
7.976936101913452,-3.76,7.15,-0.91,8.12
7.986926794052124,0.55,2.79,-0.15,2.84
7.996387004852295,-3.15,1.39,-0.91,3.56
8.00736403465271,-7.15,2.57,-7.07,10.37
8.0171959400177,-2.51,5.91,-2.96,7.07
8.054033994674683,2.96,4.76,2.86,6.29
8.054466009140015,6.4,1.83,5.22,8.45
8.054884910583496,5.98,0.27,5.74,8.29
8.056451082229614,3.67,-1.09,4.41,5.83
8.066138982772827,1.96,-2.27,2.81,4.1
8.076740026473999,0.93,-2.55,2.54,3.71
8.086713075637817,0.72,-2.53,3.39,4.29
8.09621000289917,1.13,-2.75,4.42,5.32
8.107280015945435,1.52,-3.11,4.68,5.82
8.116961002349854,1.65,-3.54,4.21,5.74
8.154736995697021,1.77,-3.94,4.01,5.89
8.155165910720825,2.14,-4.34,3.97,6.25
8.155940771102905,2.39,-4.74,3.8,6.52
8.156718015670776,2.08,-5.19,3.19,6.43
8.166016817092896,1.44,-5.81,2.56,6.51
8.176603078842163,0.7,-6.63,2.07,6.98
8.18666696548462,0.15,-7.31,1.41,7.44
8.196100950241089,-0.16,-7.94,0.71,7.97
8.207129955291748,-0.02,-8.55,0.07,8.55
8.216984033584595,-0.07,-8.83,-0.22,8.83
8.253926038742065,-0.52,-8.6,-0.67,8.64
8.254358053207397,-1.14,-8.19,-1.46,8.39
8.254783868789673,-1.96,-8.06,-2.05,8.54
8.255826950073242,-2.86,-7.65,-3.13,8.74
8.265908002853394,-3.9,-6.32,-5.07,8.99
8.276443004608154,-5.35,-4.61,-6.46,9.57
8.28646993637085,-6.21,-3.19,-6.54,9.56
8.295950889587402,-5.89,-1.93,-6.57,9.03
8.306883096694946,-5.47,-1.09,-6.93,8.89
8.316694021224976,-5.65,-0.76,-7.61,9.5
8.354665040969849,-6.99,-0.47,-8.63,11.11
8.355103969573975,-8.87,-0.17,-9.63,13.09
8.355853796005249,-9.8,-0.29,-9.95,13.96
8.35661792755127,-9.37,-0.87,-9.88,13.64
8.365798950195312,-8.75,-1.26,-9.59,13.04
8.376467943191528,-8.32,-1.3,-9.14,12.42
8.386330842971802,-8.51,4.44,-8.48,12.8
8.395731925964355,-3.41,4.52,-3.6,6.7
8.406699895858765,3.21,3.67,0.5,4.9
8.416568040847778,16.53,19.6,26.86,37.13
8.454629898071289,9.63,22.72,-2.77,24.83
8.45510983467102,4.1,10.63,-14.38,18.34
8.455847978591919,-3.22,-3.86,2.42,5.57
8.45662808418274,-15.35,-9.02,0.73,17.81
8.465569972991943,-12.59,-5.48,-4.33,14.39
8.476179838180542,-10.49,-1.65,-7.74,13.14
8.4861319065094,-6.87,1.1,-5.21,8.69
8.495618104934692,-2.65,1.97,-2.31,4.02
8.506680965423584,1.23,0.86,-3.55,3.85
8.516406774520874,3.24,0.58,-4.3,5.41
8.555055856704712,2.29,0.56,-2.96,3.78
8.555808782577515,-0.16,0.57,-1.89,1.98
8.556575059890747,-2.07,0.35,-0.98,2.31
8.557007074356079,-2.0,0.27,-0.84,2.18
8.56542181968689,-1.05,0.14,-1.03,1.47
8.576143026351929,-0.58,0.04,-0.8,0.98
8.58591890335083,-0.59,-0.01,-0.59,0.83
8.595478773117065,-0.68,-0.07,-0.8,1.05
8.606129884719849,-0.28,-0.14,-1.11,1.15
8.616241931915283,0.11,-0.18,-1.41,1.42
8.65572190284729,0.37,-0.21,-1.24,1.31
8.656156778335571,0.52,-0.21,-0.6,0.82
8.656895875930786,0.66,-0.37,-0.01,0.75
8.65731692314148,0.78,-0.41,0.41,0.97
8.66526484489441,0.86,-0.25,0.48,1.01
8.675903081893921,0.82,0.09,0.28,0.87
8.68588900566101,0.65,0.39,0.34,0.83
8.695308923721313,0.55,0.45,0.82,1.08
8.705983877182007,0.81,0.28,1.25,1.51
8.716131925582886,1.14,0.16,1.23,1.68
8.75567078590393,1.29,0.16,1.22,1.78
8.756091833114624,1.31,0.22,1.18,1.77
8.756892919540405,0.91,0.3,1.01,1.39
8.757316827774048,0.49,0.16,1.17,1.27
8.765150785446167,0.57,-0.05,1.31,1.42
8.775742769241333,0.97,-0.11,1.05,1.43
8.785775899887085,1.21,0.01,0.84,1.47
8.795160055160522,0.97,0.28,0.68,1.21
8.80585503578186,0.64,0.59,0.6,1.05
8.816020965576172,0.75,0.77,0.61,1.23
8.854634046554565,1.13,0.73,1.03,1.69
8.855384111404419,1.53,0.68,1.23,2.07
8.855803966522217,1.86,0.87,1.39,2.47
8.856233835220337,1.95,1.32,1.53,2.8
8.864897012710571,1.42,1.57,2.28,3.11
8.875511884689331,1.09,1.83,2.35,3.17
8.885577917098999,1.55,2.17,2.21,3.46
8.895034074783325,1.9,2.39,2.23,3.78
8.90571904182434,2.49,2.56,2.18,4.18
8.915820837020874,3.08,2.82,2.49,4.86
8.955655813217163,3.37,3.06,3.02,5.46
8.956088781356812,3.58,3.32,3.64,6.09
8.956834077835083,3.76,3.75,4.34,6.85
8.957259893417358,3.57,5.1,4.69,7.79
8.964887857437134,3.35,8.13,4.48,9.86
8.975425004959106,4.76,10.81,5.73,13.12
8.985471963882446,5.69,11.83,7.72,15.22
8.995250940322876,6.06,12.65,8.53,16.41
9.00556206703186,6.33,12.84,7.93,16.36
9.015531778335571,5.09,11.65,6.77,14.4
9.055217981338501,4.2,9.8,2.63,10.98
9.055652856826782,5.38,9.67,-3.5,11.6
9.056075811386108,4.27,13.45,-6.36,15.47
9.056497812271118,-0.96,16.52,-3.03,16.82
9.064720869064331,-3.02,14.15,-0.8,14.49
9.075178861618042,0.54,7.71,-0.31,7.73
9.085247993469238,2.27,3.78,1.64,4.7
9.094722986221313,-3.61,1.43,-2.43,4.58
9.105331897735596,-6.56,3.24,-7.84,10.72
9.11550784111023,-1.44,5.55,-1.5,5.92
9.156233072280884,4.1,3.06,3.25,6.06
9.156670808792114,6.78,0.75,4.14,7.97
9.157434940338135,5.6,-0.45,3.76,6.76
9.15786099433899,4.33,-1.2,2.93,5.36
9.164550065994263,4.27,-2.02,2.97,5.57
9.175036907196045,3.71,-2.49,3.0,5.38
9.185078859329224,2.93,-2.6,3.08,4.98
9.194607019424438,2.25,-2.91,3.51,5.08
9.20528793334961,1.76,-3.59,3.61,5.38
9.215299844741821,1.23,-4.01,3.26,5.31
9.255819082260132,0.79,-4.22,2.86,5.15
9.25625205039978,1.0,-4.41,2.63,5.23
9.256675004959106,1.34,-4.45,2.55,5.3
9.257474899291992,1.55,-4.36,2.59,5.3
9.264426946640015,1.36,-4.32,2.32,5.08
9.274847984313965,0.97,-4.57,1.79,5.0
9.285026788711548,0.62,-5.19,1.68,5.49
9.29446291923523,0.42,-5.68,1.42,5.86
9.305118799209595,0.34,-6.16,1.03,6.25
9.315238952636719,0.39,-6.62,0.92,6.69
9.35632586479187,0.15,-6.85,0.71,6.88
9.35675597190857,-0.35,-6.72,0.09,6.72
9.357521772384644,-1.29,-6.37,-1.04,6.58
9.357944965362549,-2.43,-6.12,-2.22,6.94
9.36427903175354,-3.28,-5.89,-3.27,7.49
9.374943017959595,-4.41,-5.17,-4.29,8.03
9.384793043136597,-5.65,-4.39,-5.21,8.85
9.394357919692993,-6.67,-3.36,-6.33,9.79
9.40499496459961,-7.32,-2.01,-7.61,10.74
9.415037870407104,-7.53,-1.06,-8.42,11.34
9.456001996994019,-7.43,-0.62,-8.56,11.35
9.456435918807983,-7.5,-0.75,-8.72,11.52
9.456857919692993,-7.84,-1.17,-9.21,12.15
9.45760989189148,-8.28,-1.88,-9.77,12.94
9.46419882774353,-9.04,-2.5,-10.07,13.76
9.474945783615112,-9.76,-3.22,-10.56,14.73
9.484623908996582,-9.72,-3.78,-10.56,14.84
9.494150876998901,-9.43,-3.43,-9.85,14.06
9.504830121994019,-8.71,5.79,-8.27,13.33
9.514909029006958,-0.17,5.75,-2.15,6.14
9.556472063064575,14.54,14.01,21.36,29.39
9.557001829147339,21.15,21.91,21.58,37.32
9.557784795761108,3.06,20.23,-19.46,28.23
9.55821681022644,3.13,4.85,-10.86,12.29
9.564020872116089,-8.72,-5.05,2.57,10.39
9.574912786483765,-15.72,-8.46,0.87,17.87
9.584542989730835,-10.96,-4.21,-5.68,13.04
9.594039916992188,-8.84,-1.21,-8.7,12.46
9.604589939117432,-6.03,1.13,-5.04,7.93
9.614766836166382,-2.73,1.43,-2.47,3.94
9.655585050582886,0.77,0.51,-3.29,3.41
9.656023979187012,2.98,0.36,-3.13,4.33
9.656444787979126,1.74,0.46,-1.58,2.39
9.656864881515503,-1.07,0.41,-1.16,1.63
9.663866996765137,-2.27,0.29,-1.39,2.67
9.67473578453064,-1.63,0.41,-1.57,2.29
9.684394121170044,-0.62,0.45,-1.2,1.42
9.693897008895874,-0.55,0.16,-1.18,1.31
9.704519987106323,-1.33,-0.14,-1.07,1.71
9.714561939239502,-1.63,-0.39,-0.62,1.78
9.756088972091675,-0.7,-0.2,-0.8,1.08
9.756530046463013,0.12,0.04,-1.14,1.14
9.756948947906494,0.28,0.03,-1.12,1.15
9.757704019546509,0.14,-0.07,-0.5,0.52
9.763749837875366,-0.04,-0.17,0.36,0.4
9.774571895599365,-0.06,-0.21,0.75,0.78
9.784205913543701,-0.02,-0.11,0.86,0.86
9.793775796890259,0.13,0.13,0.63,0.65
9.804279088973999,0.47,0.34,0.42,0.71
9.814517974853516,1.01,0.4,0.52,1.2
9.823601007461548,1.41,0.22,0.78,1.62
9.85621190071106,1.54,0.12,1.06,1.87
9.856730937957764,1.5,0.24,1.31,2.0
9.857131958007812,1.47,0.24,1.34,2.0
9.863529920578003,1.23,0.15,1.42,1.88
9.874401807785034,0.73,0.05,1.57,1.73
9.884130954742432,0.36,-0.19,1.5,1.55
9.893536806106567,0.5,-0.46,1.31,1.47
9.904252767562866,1.09,-0.4,0.78,1.39
9.914346933364868,1.43,0.01,0.12,1.43
9.923560857772827,1.48,0.67,-0.12,1.62
9.956403970718384,1.46,0.86,0.03,1.69
9.956841945648193,1.18,0.59,0.81,1.54
9.957259893417358,1.04,0.35,1.59,1.93
9.963360071182251,1.34,0.55,2.11,2.55
9.974003076553345,1.71,1.2,2.14,2.99
9.983933925628662,1.68,1.66,2.06,3.13
9.993354082107544,1.68,2.41,1.89,3.49
10.004034996032715,1.8,2.59,1.96,3.71
10.014178037643433,2.05,2.83,2.31,4.18
10.023413896560669,2.66,3.0,2.82,4.9
10.056185960769653,3.17,3.26,3.38,5.66
10.056617021560669,3.52,3.67,3.85,6.37
10.057033777236938,3.7,4.39,4.35,7.2
10.063269853591919,3.37,6.43,4.61,8.59
10.073793888092041,4.0,10.03,4.64,11.75
10.083874940872192,6.57,11.77,7.67,15.5
10.093226909637451,7.31,12.49,9.59,17.36
10.103984117507935,7.46,13.26,9.35,17.85
10.113963842391968,6.86,12.5,9.84,17.32
10.123238801956177,5.33,10.78,8.88,14.94
10.156384944915771,4.4,9.05,2.71,10.42
10.156823873519897,5.67,9.4,-5.33,12.2
10.157245874404907,4.95,13.44,-8.74,16.77
10.163209915161133,-1.87,16.54,-3.38,16.98
10.173734903335571,-5.61,13.37,1.56,14.58
10.183675050735474,-4.07,6.94,1.78,8.23
10.193126916885376,0.27,3.12,1.46,3.45
10.20390009880066,-4.39,2.01,-2.31,5.35
10.213941812515259,-6.86,4.09,-8.65,11.77
10.223006010055542,-0.73,7.3,-2.93,7.89
10.257524967193604,5.17,5.19,2.45,7.72
10.258272886276245,9.02,2.12,3.57,9.92
10.258693933486938,8.66,0.46,3.09,9.2
10.26292896270752,5.55,-0.52,2.65,6.17
10.273482084274292,3.79,-2.21,2.02,4.82
10.283504962921143,2.96,-3.26,1.66,4.7
10.292978048324585,1.99,-3.51,1.67,4.36
10.303666830062866,1.28,-3.69,2.31,4.53
10.31375002861023,1.0,-3.89,2.82,4.9
10.322999000549316,1.02,-4.16,2.72,5.07
10.357177019119263,1.25,-4.47,2.42,5.23
10.357616901397705,1.59,-4.59,2.19,5.32
10.358361959457397,2.02,-4.66,1.94,5.43
10.362831830978394,2.22,-4.79,1.98,5.63
10.373387098312378,1.96,-4.84,1.71,5.49
10.383332967758179,1.67,-5.1,1.58,5.59
10.392853021621704,1.21,-5.68,1.32,5.95
10.403572797775269,0.63,-6.3,0.92,6.39
10.41366982460022,0.2,-6.83,0.81,6.88
10.422853946685791,-0.02,-7.29,0.47,7.3
10.457661867141724,-0.38,-7.68,0.06,7.68
10.458414793014526,-1.14,-7.84,-0.51,7.93
10.458847999572754,-1.88,-7.68,-1.31,8.01
10.462708950042725,-2.85,-7.35,-2.38,8.23
10.473232984542847,-4.09,-6.87,-3.83,8.86
10.483366966247559,-4.76,-6.34,-5.14,9.44
10.492582082748413,-5.01,-5.61,-5.81,9.5
10.503379106521606,-5.54,-4.57,-6.8,9.89
10.513394117355347,-6.34,-3.19,-7.88,10.6
10.522644996643066,-7.27,-2.41,-8.55,11.47
10.55768084526062,-8.05,-2.17,-9.02,12.28
10.55846381187439,-8.31,-2.09,-9.4,12.71
10.558892011642456,-8.79,-1.95,-9.64,13.19
10.562498807907104,-9.64,-1.63,-10.07,14.03
10.573041915893555,-10.05,-1.55,-10.38,14.53
10.58308482170105,-9.82,-1.42,-10.21,14.23
10.592458009719849,-9.78,0.89,-10.09,14.08
10.603217840194702,-6.06,8.17,-6.33,11.98
10.613331079483032,0.87,2.51,-3.85,4.67
10.622506856918335,14.01,19.81,25.9,35.48
10.657777070999146,16.73,27.03,13.12,34.38
10.658521890640259,4.19,16.16,-20.35,26.32
10.65894889831543,3.61,-3.42,-2.72,5.66
10.662373781204224,-12.77,-7.89,4.63,15.7
10.672911882400513,-19.49,-7.83,-0.33,21.0
10.682907819747925,-12.25,-3.22,-8.11,15.04
10.69225001335144,-9.31,0.58,-10.4,13.97
10.703120946884155,-5.96,2.89,-4.81,8.18
10.713198900222778,-1.42,1.45,-3.78,4.29
10.722379922866821,2.29,0.12,-4.06,4.66
10.757375001907349,2.32,0.13,-2.69,3.55
10.757810831069946,-0.37,0.37,-1.5,1.58
10.758616924285889,-2.06,0.52,-1.32,2.5
10.762174844741821,-1.96,0.54,-1.28,2.4
10.772733926773071,-1.05,0.52,-1.16,1.64
10.782811880111694,-0.9,0.12,-0.6,1.08
10.792226076126099,-1.06,-0.15,-0.21,1.09
10.803014993667603,-0.48,-0.04,-0.62,0.78
10.812988042831421,0.68,0.15,-1.13,1.32
10.822235822677612,1.69,0.18,-1.39,2.19
10.858102083206177,1.46,-0.02,-1.16,1.86
10.858872890472412,0.55,-0.44,-0.66,0.96
10.859299898147583,-0.15,-0.6,-0.2,0.65
10.862046003341675,-0.39,-0.39,0.67,0.86
10.872578859329224,-0.43,-0.02,1.22,1.29
10.882692098617554,-0.44,0.28,1.21,1.31
10.892236948013306,-0.31,0.32,0.94,1.04
10.902902841567993,0.27,0.21,0.4,0.52
10.912820100784302,0.97,0.23,0.01,0.99
10.92210602760315,1.19,0.25,0.17,1.22
10.95789885520935,1.03,0.28,0.29,1.1
10.958663940429688,0.79,0.37,0.59,1.05
10.959085941314697,0.62,0.34,0.94,1.17
10.961944818496704,0.68,0.14,1.3,1.47
10.972477912902832,1.05,-0.04,1.48,1.81
10.982570886611938,1.41,-0.3,1.25,1.9
10.992299795150757,1.29,-0.45,0.8,1.58
11.00272011756897,0.76,-0.28,0.32,0.87
11.012655019760132,0.32,0.22,-0.48,0.61
11.021958112716675,0.12,0.6,-0.58,0.84
11.058263063430786,0.48,0.62,-0.25,0.82
11.059014081954956,1.17,0.61,0.52,1.41
11.059461832046509,2.15,0.6,1.51,2.69
11.061837911605835,2.77,0.67,2.65,3.89
11.072362899780273,2.81,0.94,3.28,4.42
11.082338094711304,2.89,1.68,2.91,4.43
11.092191934585571,2.7,2.37,3.12,4.75
11.102518796920776,2.62,2.35,2.96,4.59
11.112543821334839,3.14,2.72,2.72,4.96
11.121725797653198,3.4,2.87,2.95,5.33
11.158639907836914,3.64,3.05,3.31,5.78
11.159414052963257,3.79,3.41,3.83,6.37
11.159850835800171,3.52,5.14,4.13,7.47
11.161686897277832,4.21,9.06,3.65,10.63
11.172137022018433,6.79,10.28,5.52,13.5
11.182194948196411,5.78,9.86,6.63,13.21
11.191673040390015,3.57,10.77,6.2,12.92
11.20235800743103,3.83,11.92,7.95,14.83
11.212342023849487,5.37,12.51,7.11,15.35
11.22164511680603,5.89,11.95,4.09,13.93
11.258445978164673,6.01,10.5,0.71,12.11
11.25912094116211,5.36,10.21,-3.59,12.07
11.25954794883728,3.34,12.53,-7.02,14.74
11.261470079421997,0.9,15.64,-4.58,16.32
11.272002935409546,-1.92,12.45,-0.44,12.6
11.282076120376587,-1.0,4.77,0.05,4.87
11.291549921035767,-0.51,1.7,1.94,2.62
11.302254915237427,-5.78,0.78,-2.66,6.41
11.312237977981567,-5.15,4.04,-5.72,8.69
11.321556806564331,1.25,5.72,0.96,5.93
11.359183073043823,5.71,3.14,4.24,7.77
11.36006498336792,7.07,1.35,4.63,8.55
11.360485792160034,5.29,0.35,3.58,6.39
11.361255884170532,3.43,-0.93,1.91,4.03
11.371843099594116,2.17,-1.91,1.5,3.25
11.381922960281372,0.97,-2.67,1.86,3.39
11.391350984573364,0.28,-3.4,2.66,4.32
11.402143955230713,0.06,-4.11,3.43,5.35
11.412065982818604,-0.07,-4.62,3.52,5.8
11.42137098312378,-0.04,-4.82,3.34,5.86
11.459455966949463,0.4,-4.8,3.2,5.78
11.46033787727356,1.07,-4.74,3.15,5.79
11.46104884147644,1.5,-4.76,3.19,5.92
11.461473941802979,1.57,-4.73,3.09,5.86
11.471755981445312,1.24,-4.77,2.58,5.56
11.48183298110962,0.84,-5.15,2.13,5.63
11.491206884384155,0.46,-5.78,2.01,6.13
11.501880884170532,0.19,-6.27,1.57,6.46
11.511951923370361,-0.03,-6.8,1.08,6.88
11.521283864974976,-0.07,-7.16,1.02,7.23
11.55939507484436,-0.2,-7.1,0.84,7.15
11.560363054275513,-0.39,-7.02,0.28,7.03
11.56112790107727,-1.09,-6.81,-1.02,6.97
11.561550855636597,-2.53,-6.45,-2.87,7.49
11.571552991867065,-4.04,-5.98,-4.03,8.26
11.581604957580566,-5.27,-5.55,-4.61,8.93
11.591078996658325,-5.91,-4.9,-5.69,9.55
11.601938962936401,-6.11,-3.97,-6.84,9.99
11.611840009689331,-6.43,-2.77,-8.14,10.73
11.621113061904907,-6.96,-1.9,-8.89,11.44
11.659987926483154,-7.34,-1.86,-9.07,11.81
11.661102056503296,-7.52,-2.09,-9.28,12.12
11.661525964736938,-7.81,-2.04,-9.49,12.45
11.661947965621948,-7.93,-2.12,-9.66,12.67
11.671751976013184,-7.69,-2.17,-9.57,12.46
11.681434869766235,-7.59,-1.79,-9.73,12.46
11.690953016281128,-7.94,-1.65,-9.85,12.75
11.701581001281738,-8.77,-1.49,-9.97,13.36
11.711824893951416,-8.57,7.66,-7.88,13.93
11.720977067947388,2.95,8.81,3.25,9.84
11.760239839553833,20.76,15.66,32.25,41.42
11.76131296157837,20.51,20.19,15.81,32.83
11.761741876602173,2.21,15.27,-18.96,24.44
11.762169122695923,-1.74,4.08,-9.83,10.78
11.771342992782593,-10.95,-3.89,4.38,12.41
11.781294107437134,-17.16,-3.56,3.51,17.87
11.790878057479858,-12.29,-4.5,-5.16,14.06
11.801440954208374,-6.9,-1.74,-9.14,11.58
11.81138300895691,-4.41,0.48,-8.4,9.49
11.820756912231445,-2.19,1.56,-5.18,5.83
11.859643936157227,-0.37,0.9,-4.71,4.8
11.860757112503052,1.83,0.79,-4.83,5.22
11.86118197441101,2.41,1.12,-2.93,3.95
11.861601114273071,0.21,0.99,-1.1,1.49
11.870985984802246,-1.98,0.38,-0.56,2.09
11.881111860275269,-2.42,-0.21,-0.47,2.47
11.89057183265686,-2.11,-0.27,-0.11,2.13
11.90122389793396,-1.63,-0.2,0.48,1.71
11.911284923553467,-0.77,-0.17,0.47,0.91
11.92060399055481,-0.12,-0.07,0.01,0.13
11.960997819900513,0.16,0.02,-0.38,0.41
11.961809873580933,0.45,0.08,-0.69,0.82
11.962230920791626,0.49,0.05,-1.0,1.11
11.962652921676636,0.21,-0.05,-1.15,1.17
11.97094988822937,-0.12,-0.2,-0.98,1.0
11.98111605644226,-0.52,-0.21,-0.51,0.75
11.990502119064331,-0.64,-0.11,-0.02,0.64
12.001183986663818,-0.52,0.04,0.57,0.77
12.011157989501953,-0.02,0.22,0.75,0.78
12.020479917526245,0.73,0.39,0.75,1.11
12.060962915420532,1.36,0.4,0.87,1.66
12.061783075332642,1.88,0.24,0.92,2.1
12.062204122543335,1.82,0.13,0.6,1.92
12.062623977661133,1.24,0.07,0.31,1.28
12.070862054824829,0.77,-0.01,0.41,0.87
12.08097791671753,0.68,-0.06,0.84,1.08
12.090380907058716,0.74,-0.17,1.39,1.58
12.101072072982788,0.78,-0.23,1.57,1.76
12.110955953598022,1.14,-0.22,1.36,1.78
12.12040090560913,1.54,-0.19,0.81,1.75
12.1611909866333,1.59,-0.15,0.35,1.63
12.161938905715942,1.28,0.09,0.15,1.29
12.162347078323364,0.9,0.28,0.15,0.95
12.162748098373413,0.61,0.41,0.3,0.79
12.170689821243286,0.51,0.48,0.69,0.98
12.180706977844238,0.56,0.42,1.17,1.36
12.19015383720398,0.81,0.29,1.61,1.82
12.200828790664673,1.07,0.19,1.94,2.22
12.210767030715942,1.28,0.28,1.99,2.38
12.220148801803589,1.78,0.77,1.7,2.57
12.261295080184937,1.9,1.55,1.52,2.88
12.262073993682861,1.91,2.2,1.48,3.26
12.262495994567871,2.02,2.42,1.51,3.49
12.262916803359985,1.86,2.52,1.38,3.42
12.27052092552185,1.98,2.57,1.99,3.8
12.280349969863892,2.13,2.44,2.55,4.12
12.289974927902222,2.3,2.9,3.25,4.92
12.300731897354126,2.42,5.1,3.43,6.6
12.31089186668396,4.29,8.22,3.63,9.95
12.320019006729126,6.53,8.6,6.13,12.41
12.361660957336426,6.07,8.52,6.59,12.36
12.362637996673584,5.64,9.67,7.17,13.29
12.363056898117065,4.93,10.72,8.77,14.7
12.36347508430481,3.92,11.21,8.12,14.38
12.370359897613525,3.35,10.68,6.7,13.04
12.380270957946777,2.89,9.22,3.65,10.32
12.389867067337036,4.46,8.52,-1.77,9.77
12.400573015213013,6.46,10.93,-5.17,13.7
12.410930871963501,2.98,14.05,-3.7,14.83
12.419974088668823,-1.93,13.64,-0.07,13.77
12.46260380744934,-2.12,9.53,-0.21,9.76
12.463538885116577,1.25,5.09,0.44,5.25
12.463963985443115,0.28,3.34,1.81,3.8
12.464385986328125,-5.19,2.91,-4.11,7.23
12.470258951187134,-4.47,6.45,-6.49,10.18
12.480231046676636,0.74,7.44,-0.7,7.5
12.489743947982788,5.2,3.81,2.98,7.1
12.500441789627075,6.99,0.82,4.02,8.1
12.544477939605713,5.49,-0.38,3.07,6.3
12.544933080673218,4.2,-1.34,2.0,4.84
12.545367956161499,3.43,-2.35,2.35,4.77
12.545784950256348,2.48,-3.07,2.71,4.78
12.549621820449829,1.53,-3.19,2.82,4.52
12.559828042984009,0.54,-3.0,3.07,4.32
12.570205926895142,-0.07,-2.99,3.18,4.36
12.58026909828186,0.18,-3.13,3.13,4.43
12.589524030685425,0.75,-3.52,2.97,4.66
12.600460767745972,1.33,-3.68,2.49,4.63
12.64683198928833,1.52,-3.79,2.12,4.6
12.647273778915405,1.51,-4.08,2.14,4.84
12.64769196510315,1.54,-4.57,2.3,5.34
12.648096799850464,1.49,-5.29,2.3,5.95
12.649508953094482,1.28,-6.08,2.19,6.58
12.659473896026611,0.89,-6.89,2.06,7.24
12.670079946517944,0.51,-7.61,1.95,7.87
12.680076837539673,0.31,-8.25,2.08,8.51
12.689584016799927,0.17,-8.75,1.97,8.97
12.700233936309814,-0.16,-8.86,1.79,9.04
12.746148824691772,-0.52,-8.7,1.45,8.83
12.746592998504639,-0.85,-8.33,0.76,8.4
12.747016906738281,-1.71,-7.72,-0.28,7.91
12.74744200706482,-3.07,-6.77,-1.88,7.66
12.74930191040039,-3.9,-5.5,-4.26,7.97
12.759284973144531,-4.94,-3.76,-6.68,9.11
12.769927978515625,-6.73,-2.03,-8.09,10.71
12.77988600730896,-7.38,-1.05,-8.43,11.25
12.789309978485107,-7.43,-0.6,-8.62,11.39
12.800069093704224,-7.79,0.02,-9.33,12.15
12.847291946411133,-8.0,0.73,-9.91,12.75
12.84781002998352,-7.86,0.83,-10.74,13.33
12.848233938217163,-7.64,0.43,-10.75,13.19
12.84868597984314,-7.96,0.55,-10.76,13.39
12.849450826644897,-9.28,3.5,-12.1,15.64
12.859168767929077,-5.79,8.66,-7.4,12.77
12.869755029678345,-1.12,-0.53,-8.3,8.39
12.879880905151367,5.92,14.31,12.4,19.83
12.889547109603882,19.47,19.22,26.3,37.94
12.89996600151062,8.3,14.74,-9.88,19.59
12.945398092269897,-0.77,3.48,-4.51,5.74
12.946885824203491,-12.14,-4.29,3.42,13.32
12.947314023971558,-16.34,-4.8,-1.51,17.09
12.947734117507935,-8.94,-3.5,-6.13,11.39
12.949012994766235,-5.96,-0.2,-8.37,10.27
12.959057092666626,-4.3,1.06,-7.51,8.71
12.969645977020264,-2.07,1.68,-5.62,6.22
12.979691982269287,-0.34,0.36,-4.71,4.73
12.989082098007202,1.29,-0.61,-3.86,4.11
12.999799966812134,1.46,-0.09,-2.13,2.58
13.009840965270996,-0.41,0.42,-0.26,0.64
13.047552824020386,-1.78,0.73,-1.19,2.26
13.047980070114136,-1.63,0.61,-1.97,2.62
13.048405885696411,-0.97,0.45,-1.43,1.78
13.049143075942993,-0.49,0.25,-0.93,1.08
13.058806896209717,-0.6,-0.01,-0.64,0.87
13.069534063339233,-0.69,-0.26,-0.72,1.03
13.079481840133667,-0.64,-0.32,-0.86,1.11
13.089231967926025,-0.45,-0.2,-0.95,1.07
13.09956693649292,-0.28,-0.02,-0.95,0.99
13.10960602760315,-0.5,0.03,-1.05,1.16
13.147681951522827,-0.89,0.0,-0.96,1.3
13.14813780784607,-0.97,-0.04,-0.42,1.05
13.148905038833618,-0.77,-0.06,0.23,0.8
13.149338006973267,-0.38,-0.07,0.8,0.88
13.158748865127563,0.15,-0.03,1.04,1.05
13.169344902038574,0.79,0.09,0.93,1.22
13.179260015487671,1.08,0.26,0.52,1.22
13.188685894012451,0.76,0.23,0.18,0.81
13.199513912200928,0.31,0.0,0.1,0.32
13.209475994110107,0.2,-0.15,0.23,0.33
13.247308015823364,0.32,-0.04,0.59,0.67
13.247750997543335,0.47,0.1,0.82,0.95
13.248528003692627,0.57,0.2,0.86,1.05
13.249017000198364,0.59,0.14,0.96,1.13
13.258606910705566,0.69,-0.02,1.1,1.29
13.26929783821106,1.1,-0.15,1.26,1.67
13.279206991195679,1.67,-0.15,1.21,2.06
13.288644075393677,1.88,-0.04,1.0,2.12
13.299314975738525,1.54,0.2,0.49,1.62
13.309348821640015,1.0,0.42,0.09,1.08
13.348877906799316,0.64,0.59,0.22,0.89
13.349315881729126,0.61,0.64,0.59,1.06
13.34973406791687,0.72,0.6,1.06,1.41
13.350155115127563,0.75,0.62,1.36,1.67
13.35848879814148,1.11,0.77,1.6,2.09
13.369091987609863,1.13,1.23,2.0,2.6
13.37900710105896,1.28,1.79,1.68,2.76
13.38840389251709,1.38,2.22,1.66,3.09
13.399196863174438,1.5,2.32,1.64,3.21
13.409229040145874,1.45,2.18,1.64,3.08
13.448199033737183,1.52,2.16,1.78,3.18
13.448821783065796,1.79,2.28,1.99,3.51
13.449239015579224,1.95,2.38,2.35,3.87
13.449660062789917,2.05,2.84,2.85,4.51
13.458292961120605,2.08,4.67,3.22,6.04
13.468930959701538,3.72,7.7,3.77,9.34
13.478906869888306,6.34,9.14,5.67,12.48
13.488298892974854,7.17,9.34,6.83,13.61
13.499088048934937,6.69,9.46,7.44,13.76
13.50908899307251,5.77,9.76,9.17,14.58
13.548752069473267,4.97,9.42,9.43,14.22
13.549192905426025,4.77,8.72,6.67,11.96
13.549613952636719,5.2,9.0,1.85,10.55
13.55003809928894,6.91,11.0,-3.93,13.57
13.558160066604614,6.77,14.43,-7.31,17.53
13.568796873092651,1.23,16.25,-3.65,16.7
13.578667879104614,-3.35,11.44,0.77,11.94
13.5882089138031,-3.17,5.82,2.31,7.01
13.598880052566528,0.73,3.02,3.07,4.36
13.608880996704102,-2.61,3.06,0.68,4.07
13.649611949920654,-6.51,4.8,-6.75,10.53
13.65005087852478,-2.11,8.14,-4.31,9.44
13.650479078292847,3.4,7.15,1.08,7.99
13.650896787643433,7.43,3.91,2.71,8.82
13.657982110977173,8.35,1.8,3.22,9.12
13.668639898300171,6.14,0.48,2.62,6.69
13.678594827651978,4.42,-0.9,1.87,4.88
13.688106775283813,3.2,-2.13,1.96,4.31
13.698767900466919,1.87,-2.63,2.54,4.1
13.708834886550903,0.56,-2.74,2.79,3.95
13.748943090438843,-0.26,-2.87,2.95,4.12
13.74938178062439,-0.52,-3.11,2.55,4.05
13.749804973602295,0.03,-3.31,2.07,3.9
13.75022292137146,1.07,-3.45,2.02,4.13
13.75790810585022,1.95,-3.53,2.08,4.53
13.768533945083618,2.27,-3.56,1.95,4.65
13.778603792190552,1.88,-3.73,1.59,4.46
13.78789210319519,1.61,-4.19,1.55,4.74
13.798599004745483,1.42,-4.97,1.7,5.44
13.808470964431763,1.04,-5.88,1.71,6.21
13.849965810775757,0.59,-6.85,1.81,7.1
13.850414037704468,0.41,-7.75,2.07,8.03
13.850857019424438,0.12,-8.35,2.0,8.58
13.851286888122559,-0.53,-8.69,1.73,8.87
13.857714891433716,-0.95,-8.77,1.75,8.99
13.868275880813599,-0.82,-8.54,1.24,8.66
13.878538846969604,-1.44,-7.93,-0.03,8.05
13.887685060501099,-3.13,-7.27,-1.88,8.13
13.898437976837158,-4.62,-6.63,-3.8,8.92
13.90856385231018,-6.14,-5.89,-5.27,10.0
13.950114965438843,-7.3,-5.13,-6.03,10.76
13.950569868087769,-7.81,-3.97,-6.57,10.95
13.950997114181519,-8.35,-2.83,-7.68,11.69
13.951421976089478,-8.85,-2.17,-8.84,12.69
13.957479000091553,-9.07,-2.1,-9.15,13.05
13.968226909637451,-9.52,-1.99,-9.78,13.79
13.978494882583618,-9.89,-1.61,-10.22,14.31
13.987584829330444,-9.59,-1.62,-9.65,13.7
13.998331785202026,-9.59,-1.12,-9.72,13.7
14.00835394859314,-9.85,-0.17,-11.3,14.99
14.050494909286499,-10.65,5.18,-12.43,17.16
14.051301002502441,-5.79,8.49,-7.67,12.82
14.051753997802734,10.57,9.46,6.21,15.48
14.052205801010132,32.45,21.89,33.04,51.22
14.057420015335083,14.75,21.51,-2.07,26.16
14.067958116531372,8.33,13.46,-15.77,22.34
14.07816481590271,-3.58,-0.66,-1.14,3.81
14.087449789047241,-21.38,-9.4,5.9,24.08
14.098150968551636,-21.66,-8.73,-1.43,23.39
14.10831594467163,-13.59,-2.43,-9.9,16.98
14.149308919906616,-9.35,0.62,-7.82,12.2
14.150268793106079,-4.61,2.01,-4.17,6.53
14.150696992874146,0.16,1.34,-3.83,4.06
14.151120901107788,2.9,0.9,-4.95,5.8
14.157278776168823,3.1,0.9,-3.73,4.93
14.167927980422974,0.94,0.68,-2.4,2.66
14.178069829940796,-1.29,0.47,-2.42,2.78
14.187334775924683,-1.96,0.03,-2.2,2.94
14.198027849197388,-1.87,-0.07,-0.73,2.0
14.2080659866333,-1.5,0.07,0.56,1.6
14.249807119369507,-0.6,0.01,0.74,0.95
14.250647783279419,0.3,-0.09,0.3,0.43
14.251074075698853,0.74,-0.02,-0.29,0.79
14.251497030258179,0.73,-0.03,-0.5,0.88
14.257184982299805,0.61,-0.15,-0.41,0.75
14.267740964889526,0.55,-0.2,-0.26,0.64
14.277937889099121,0.41,-0.25,-0.14,0.5
14.287123918533325,0.13,-0.25,0.04,0.28
14.297926902770996,-0.07,-0.13,0.16,0.21
14.307950973510742,-0.13,0.07,0.31,0.34
14.350744009017944,0.13,0.28,0.65,0.71
14.351584911346436,0.85,0.35,1.03,1.38
14.352036952972412,1.88,0.25,1.47,2.39
14.352452993392944,2.62,0.22,1.57,3.06
14.357008934020996,2.52,0.23,1.21,2.8
14.36757779121399,1.83,0.09,0.89,2.03
14.377537965774536,1.26,-0.15,1.04,1.64
14.38701605796814,0.88,-0.29,1.44,1.71
14.397701978683472,0.61,-0.32,1.72,1.85
14.407768964767456,0.63,-0.41,1.45,1.63
14.450920820236206,0.95,-0.38,0.87,1.34
14.451567888259888,1.02,-0.02,0.11,1.02
14.451993942260742,0.7,0.43,-0.41,0.91
14.452395915985107,0.49,0.77,-0.41,1.0
14.456820964813232,0.61,0.7,-0.15,0.94
14.46738886833191,0.74,0.38,0.86,1.19
14.477293968200684,0.93,0.32,1.63,1.9
14.487024068832397,0.82,0.58,1.66,1.94
14.497565031051636,0.76,1.12,1.34,1.9
14.507706880569458,0.51,1.7,1.28,2.18
14.550512075424194,0.5,2.2,1.23,2.56
14.551422834396362,1.12,2.29,1.36,2.88
14.551843881607056,1.6,2.44,1.4,3.23
14.552259922027588,1.73,2.67,1.49,3.51
14.556680917739868,1.79,2.98,1.77,3.9
14.567286968231201,2.06,3.26,2.36,4.52
14.57720685005188,2.46,3.53,3.02,5.25
14.586813926696777,2.73,4.0,3.94,6.24
14.597479104995728,2.8,6.08,4.45,8.03
14.607470989227295,4.84,9.84,4.74,11.94
14.651460886001587,8.37,10.93,8.33,16.09
14.652251958847046,8.49,10.54,9.59,16.58
14.652662992477417,7.63,10.58,9.59,16.19
14.653066873550415,6.31,10.3,10.7,16.13
14.656483888626099,5.21,9.48,9.25,14.23
14.667136907577515,6.11,8.71,2.76,10.99
14.677098989486694,8.83,9.41,-4.47,13.65
14.686572790145874,8.2,13.88,-8.77,18.35
14.697304010391235,1.92,18.07,-4.68,18.76
14.707352876663208,-2.97,12.87,1.74,13.32
14.751755952835083,-4.49,6.13,3.49,8.36
14.752526998519897,-1.34,3.25,2.38,4.24
14.752957105636597,-2.08,2.61,-1.24,3.56
14.753374814987183,-6.01,2.98,-8.52,10.84
14.756357908248901,-3.52,6.81,-5.94,9.69
14.766992807388306,2.75,6.47,-0.14,7.03
14.77694296836853,7.05,3.27,1.99,8.02
14.786496877670288,8.68,0.68,2.76,9.13
14.797231912612915,6.48,-0.98,2.31,6.94
14.807092905044556,4.19,-1.9,1.98,5.0
14.852153062820435,2.89,-2.73,1.77,4.35
14.853087902069092,1.64,-3.16,2.09,4.12
14.853513956069946,0.58,-3.27,2.61,4.22
14.853935956954956,-0.25,-3.47,2.69,4.39
14.856229066848755,-0.7,-3.71,2.3,4.42
14.866760969161987,-0.53,-3.72,1.95,4.23
14.876802921295166,0.05,-3.81,1.59,4.12
14.886319875717163,0.74,-3.72,1.43,4.05
14.896950960159302,0.93,-3.51,1.48,3.92
14.906973123550415,0.88,-3.68,1.56,4.09
14.951690912246704,0.83,-4.4,1.45,4.7
14.952445983886719,0.72,-5.15,1.25,5.34
14.952869892120361,0.34,-5.84,1.17,5.96
14.953294038772583,-0.14,-6.69,1.2,6.79
14.956064939498901,-0.47,-7.56,1.31,7.68
14.966675996780396,-0.86,-8.11,1.25,8.25
14.976742029190063,-1.33,-8.32,0.72,8.45
14.986172914505005,-1.71,-8.29,-0.07,8.46
14.996740102767944,-2.27,-8.12,-1.15,8.5
15.006934881210327,-3.03,-7.62,-2.62,8.6
15.052788019180298,-3.98,-6.85,-3.71,8.74
15.053480863571167,-4.98,-6.19,-4.65,9.2
15.05390477180481,-5.42,-5.55,-5.52,9.52
15.054325819015503,-5.74,-4.74,-6.04,9.58
15.055974960327148,-5.74,-3.94,-6.71,9.66
15.06644892692566,-5.63,-3.4,-7.16,9.72
15.076555013656616,-6.44,-2.63,-7.96,10.57
15.086020946502686,-7.96,-1.59,-9.33,12.36
15.096579790115356,-9.12,-0.71,-10.25,13.73
15.10663390159607,-9.63,-0.23,-10.63,14.34
15.152405977249146,-9.77,-0.31,-10.9,14.64
15.153239965438843,-9.75,-1.26,-10.67,14.5
15.153672933578491,-9.66,-2.58,-9.8,14.0
15.154095888137817,-9.76,-1.2,-9.56,13.71
15.15593409538269,-8.0,8.33,-6.51,13.25
15.166176080703735,7.2,6.21,4.11,10.35
15.176401853561401,33.34,18.07,36.12,52.37
15.185913801193237,17.52,21.83,9.1,29.43
15.196623086929321,-1.2,16.7,-18.95,25.28
15.206505060195923,-6.0,1.73,-4.44,7.66
15.253360986709595,-17.81,-5.31,6.13,19.56
15.254241943359375,-18.88,-7.51,-0.49,20.32
15.254668951034546,-11.64,-3.53,-7.36,14.21
15.255108118057251,-8.71,-1.75,-9.2,12.78
15.255850076675415,-4.73,0.83,-7.19,8.64
15.267182111740112,-0.9,1.96,-4.59,5.07
15.276264905929565,1.68,1.19,-4.66,5.09
15.285742998123169,3.45,0.95,-4.19,5.51
15.2966787815094,3.27,0.7,-2.08,3.93
15.306432962417603,0.2,0.47,-1.15,1.25
15.354458093643188,-1.99,0.33,-1.57,2.55
15.355575799942017,-2.31,-0.17,-1.64,2.83
15.356003046035767,-2.12,-0.2,-0.56,2.2
15.356426000595093,-2.11,-0.16,0.51,2.17
15.356848955154419,-1.66,-0.19,0.72,1.81
15.366389036178589,-0.48,-0.08,-0.07,0.49
15.376027822494507,0.43,0.06,-1.01,1.09
15.385592937469482,0.63,0.14,-1.34,1.48
15.396528959274292,0.65,0.02,-1.24,1.4
15.40627408027649,0.3,-0.11,-0.86,0.91
15.454126119613647,-0.17,-0.15,-0.51,0.55
15.455410957336426,-0.58,-0.19,-0.28,0.67
15.455842971801758,-0.86,-0.06,0.01,0.86
15.456265926361084,-0.89,0.14,0.38,0.97
15.45668911933899,-0.37,0.37,0.74,0.9
15.465930938720703,0.85,0.45,1.07,1.43
15.476014852523804,2.06,0.31,1.27,2.43
15.485359907150269,2.31,0.17,1.26,2.63
15.496404886245728,1.84,-0.02,0.95,2.07
15.506102800369263,1.4,-0.18,0.69,1.57
15.554331064224243,1.06,-0.17,0.79,1.33
15.55544400215149,0.67,-0.04,1.12,1.3
15.555868864059448,0.42,-0.06,1.24,1.31
15.556290864944458,0.28,-0.16,1.3,1.33
15.556718111038208,0.59,-0.15,0.9,1.08
15.566025972366333,1.3,0.05,0.51,1.39
15.575866937637329,1.75,0.39,0.15,1.79
15.58530306816101,1.63,0.59,0.13,1.73
15.596266984939575,1.08,0.63,0.61,1.39
15.60600209236145,0.73,0.6,0.99,1.36
15.65449595451355,0.61,0.31,1.78,1.9
15.655604124069214,0.68,0.16,2.38,2.48
15.656033992767334,0.98,0.45,1.7,2.01
15.656452894210815,1.2,1.11,1.16,2.0
15.65687894821167,0.85,1.69,0.92,2.1
15.666018962860107,0.91,2.0,1.0,2.41
15.67566990852356,1.45,2.16,1.54,3.02
15.685159921646118,2.2,2.17,1.79,3.57
15.69610595703125,2.66,2.44,1.61,3.95
15.705881834030151,2.63,2.86,1.65,4.22
15.75583004951477,2.66,3.16,2.02,4.59
15.756264925003052,2.95,3.59,2.71,5.37
15.756688833236694,3.0,5.46,3.14,6.97
15.75710391998291,4.84,8.56,4.03,10.62
15.757521867752075,7.47,9.44,6.94,13.89
15.765516996383667,7.43,9.74,7.74,14.49
15.775524854660034,7.2,10.85,8.92,15.78
15.785063982009888,6.06,11.45,10.15,16.45
15.796061992645264,4.73,10.95,9.84,15.46
15.805714845657349,4.55,9.51,7.23,12.78
15.855983018875122,6.42,9.03,1.23,11.14
15.85642695426941,8.42,11.41,-4.11,14.76
15.856848955154419,5.3,15.96,-6.63,18.07
15.857270956039429,-1.35,16.57,-2.22,16.77
15.85769009590149,-3.38,11.62,0.83,12.13
15.865278959274292,-1.75,6.21,2.27,6.83
15.875314950942993,0.4,3.54,2.54,4.37
15.884828805923462,-4.48,2.46,-2.61,5.73
15.895448923110962,-7.14,4.7,-7.74,11.53
15.905517816543579,-1.49,7.27,-1.9,7.66
15.95602798461914,4.37,4.78,1.9,6.74
15.956453084945679,7.81,1.75,2.85,8.49
15.956880807876587,7.19,0.1,3.28,7.9
15.957300901412964,4.78,-1.15,2.71,5.61
15.95772385597229,3.44,-2.14,2.11,4.56
15.965858936309814,2.43,-2.66,2.1,4.17
15.975269079208374,1.51,-3.01,2.21,4.02
15.984709978103638,0.76,-2.88,2.62,3.96
15.995345830917358,-0.01,-2.47,2.72,3.67
16.00528597831726,-0.44,-2.25,2.14,3.13
16.05730891227722,-0.4,-2.56,1.88,3.2
16.05774188041687,0.44,-3.04,1.81,3.56
16.05816888809204,1.18,-3.08,1.75,3.73
16.058588981628418,1.34,-2.89,1.41,3.48
16.0590078830719,1.36,-3.27,1.2,3.73
16.065046072006226,1.34,-3.98,1.28,4.39
16.07501196861267,1.03,-4.68,1.27,4.95
16.08463406562805,0.51,-5.52,0.91,5.61
16.09511399269104,0.1,-6.43,0.88,6.49
16.105283975601196,-0.28,-7.24,0.8,7.28
16.157166004180908,-0.93,-7.74,0.29,7.8
16.157598972320557,-1.53,-8.13,-0.34,8.27
16.158024072647095,-1.98,-8.47,-0.77,8.73
16.158445119857788,-2.6,-8.33,-1.46,8.84
16.15886378288269,-3.44,-7.77,-2.76,8.93
16.164906978607178,-3.94,-7.11,-4.28,9.18
16.174885988235474,-4.28,-6.25,-6.24,9.81
16.184380769729614,-5.0,-5.0,-7.75,10.49
16.194926023483276,-5.87,-3.61,-8.46,10.91
16.205091953277588,-6.67,-2.55,-9.06,11.53
16.258067846298218,-7.66,-1.92,-9.63,12.45
16.258500814437866,-8.68,-1.76,-10.3,13.58
16.258919954299927,-9.33,-1.95,-11.0,14.55
16.259339094161987,-9.73,-2.61,-11.25,15.1
16.259758949279785,-9.82,-3.31,-11.06,15.15
16.26468586921692,-9.81,-4.16,-10.68,15.08
16.274847984313965,-10.02,-4.6,-10.45,15.19
16.284290075302124,-10.33,-2.64,-10.57,15.01
16.294896841049194,-7.49,8.33,-7.6,13.53
16.305001974105835,5.16,6.09,2.85,8.47
16.358338117599487,23.93,19.63,40.94,51.32
16.358779907226562,17.45,28.24,5.21,33.6
16.359205961227417,4.12,16.12,-24.11,29.29
16.35962700843811,3.76,1.12,-8.22,9.1
16.36004900932312,-11.36,-5.89,1.45,12.87
16.364592790603638,-20.57,-4.41,6.61,22.05
16.374534845352173,-17.53,-3.64,-6.07,18.9
16.38408589363098,-11.33,-3.17,-11.46,16.42
16.39474892616272,-7.13,-0.63,-5.57,9.06
16.404891967773438,-4.02,0.11,-2.61,4.79
16.45880699157715,0.22,0.27,-3.5,3.51
16.459239959716797,3.88,0.83,-4.16,5.74
16.459662914276123,4.17,1.24,-3.1,5.34
16.460081815719604,1.19,1.38,-2.12,2.79
16.46050477027893,-0.76,0.91,-2.06,2.37
16.464321851730347,-0.99,0.08,-1.79,2.04
16.474411964416504,-0.78,-0.15,-1.11,1.36
16.483948945999146,-0.72,-0.18,-1.17,1.38
16.494573831558228,-0.87,-0.2,-1.14,1.44
16.50465703010559,-0.97,-0.26,-0.76,1.25
16.559003114700317,-0.57,-0.26,-0.59,0.86
16.559420824050903,-0.1,-0.16,-0.49,0.52
16.559842824935913,0.04,-0.13,-0.36,0.38
16.56026792526245,0.09,-0.1,-0.24,0.27
16.560674905776978,0.34,-0.1,0.02,0.35
16.564152002334595,0.72,-0.07,0.45,0.85
16.574275970458984,0.76,-0.02,0.78,1.08
16.583815813064575,0.44,0.1,0.68,0.81
16.594401121139526,0.25,0.34,0.44,0.6
16.6045401096344,0.35,0.47,0.42,0.72
16.6587131023407,0.62,0.4,0.45,0.86
16.65914797782898,1.08,0.25,0.75,1.33
16.659564971923828,1.35,0.1,1.18,1.79
16.659981966018677,1.38,0.06,1.28,1.88
16.660398960113525,1.27,-0.01,1.34,1.84
16.66423201560974,0.8,-0.05,1.46,1.66
16.67413306236267,0.34,-0.02,1.27,1.31
16.68367600440979,0.3,0.03,1.07,1.11
16.694169998168945,0.62,0.0,0.73,0.95
16.704427003860474,0.95,0.04,0.48,1.06
16.759569883346558,1.23,0.16,0.47,1.32
16.760000944137573,1.63,0.29,0.73,1.8
16.760422945022583,2.02,0.43,1.08,2.33
16.760842084884644,2.22,0.39,1.57,2.74
16.761258840560913,1.9,0.17,2.19,2.9
16.764205932617188,1.47,0.56,1.94,2.49
16.774049043655396,1.12,1.16,1.56,2.24
16.783469915390015,1.08,2.05,1.28,2.64
16.794173002243042,1.14,2.71,1.77,3.43
16.804239988327026,1.21,2.78,1.81,3.53
16.859269857406616,1.9,3.12,1.92,4.12
16.85970377922058,2.21,3.0,2.39,4.42
16.860127925872803,2.44,3.16,2.64,4.78
16.860549926757812,2.64,3.53,2.95,5.3
16.860971927642822,2.46,5.24,2.91,6.47
16.864101886749268,3.74,8.54,3.0,9.79
16.873848915100098,6.46,9.61,5.93,13.0
16.883376836776733,7.34,9.94,7.99,14.71
16.89387011528015,8.14,11.46,8.02,16.18
16.904043912887573,7.64,12.65,8.63,17.11
16.959661960601807,5.3,11.75,9.61,16.07
16.960100889205933,3.27,9.78,8.27,13.21
16.960519075393677,4.02,8.23,2.24,9.42
16.96093487739563,7.67,9.69,-4.34,13.09
16.96135401725769,7.77,14.96,-7.67,18.52
16.963961839675903,1.1,18.06,-4.45,18.63
16.97360110282898,-2.66,14.77,-1.6,15.09
16.983125925064087,-2.33,7.08,0.71,7.48
16.99376606941223,0.05,3.69,2.96,4.73
17.00376582145691,-4.41,3.15,-2.49,5.96
17.013129949569702,-6.1,5.27,-8.64,11.81
17.06043291091919,-0.2,7.47,-1.82,7.69
17.060858964920044,5.11,4.46,2.77,7.32
17.061282873153687,7.99,1.6,3.42,8.83
17.061700105667114,7.19,0.2,2.86,7.74
17.063867807388306,5.47,-0.86,2.08,5.91
17.07362699508667,4.51,-2.16,1.75,5.29
17.08303689956665,3.65,-3.23,1.86,5.21
17.09370493888855,2.86,-3.6,2.14,5.07
17.10382390022278,2.0,-3.88,2.78,5.17
17.113077878952026,0.93,-4.16,3.08,5.25
17.16101908683777,0.32,-4.12,2.38,4.76
17.16144895553589,0.48,-4.09,1.74,4.47
17.161874055862427,1.05,-4.28,1.38,4.61
17.162328958511353,1.55,-4.53,1.13,4.91
17.163975954055786,1.62,-4.56,0.77,4.9
17.173457860946655,1.53,-4.78,0.38,5.03
17.1828830242157,1.1,-5.43,0.23,5.54
17.193591833114624,0.27,-6.26,-0.13,6.26
17.203531980514526,-0.34,-7.28,-0.22,7.29
17.21291494369507,-0.64,-8.22,-0.17,8.24
17.260781049728394,-0.78,-9.01,-0.16,9.04
17.261224031448364,-0.92,-9.72,0.08,9.76
17.261653900146484,-1.05,-9.95,0.41,10.01
17.262075901031494,-0.8,-9.59,0.19,9.62
17.263670921325684,-0.4,-9.1,-0.17,9.11
17.273363828659058,-0.53,-8.79,-0.43,8.81
17.282798051834106,-1.39,-7.91,-1.35,8.14
17.2934467792511,-2.92,-6.6,-3.01,7.81
17.3034508228302,-4.5,-5.54,-4.23,8.29
17.312782049179077,-5.59,-4.47,-5.0,8.73
17.361594915390015,-6.51,-3.19,-6.21,9.54
17.362040996551514,-7.52,-2.17,-7.25,10.66
17.362776041030884,-8.76,-1.83,-8.11,12.07
17.36319899559021,-9.62,-2.01,-8.48,12.98
17.36453604698181,-9.89,-2.21,-8.36,13.13
17.37306499481201,-9.96,-2.05,-8.43,13.2
17.382706880569458,-10.07,-1.23,-9.04,13.58
17.393325090408325,-9.97,-0.48,-9.32,13.65
17.40326499938965,-9.7,-0.59,-8.7,13.04
17.412637948989868,-10.15,4.2,-8.34,13.79
17.46259593963623,-3.12,6.36,-7.47,10.29
17.46321988105774,8.95,7.18,1.63,11.58
17.463978052139282,35.41,31.53,39.71,61.84
17.464407920837402,13.5,32.44,-0.95,35.14
17.465361833572388,-0.05,7.82,-20.09,21.55
17.47293996810913,-5.56,-10.16,0.16,11.58
17.48254704475403,-19.97,-9.02,6.65,22.89
17.493120908737183,-23.44,-4.47,0.13,23.86
17.503135919570923,-15.47,-2.06,-6.3,16.83
17.512431859970093,-8.83,-1.25,-8.55,12.35
17.56237292289734,-4.02,1.04,-5.57,6.94
17.5629940032959,-1.81,0.97,-2.95,3.59
17.563416957855225,1.22,0.6,-3.5,3.75
17.564170122146606,4.71,1.13,-3.82,6.16
17.565099954605103,4.47,1.4,-2.43,5.27
17.572850942611694,0.51,1.03,-1.97,2.28
17.58238196372986,-1.61,0.5,-2.64,3.13
17.592962980270386,-2.49,-0.22,-2.4,3.46
17.602996110916138,-2.93,-0.6,-1.35,3.28
17.61228585243225,-2.78,-0.64,0.1,2.85
17.662885904312134,-1.6,-0.46,0.64,1.78
17.66333794593811,0.05,-0.07,0.19,0.2
17.66413187980652,0.73,0.18,-0.56,0.93
17.66455888748169,0.71,0.16,-1.0,1.23
17.665509939193726,0.53,0.05,-0.9,1.04
17.672703981399536,0.27,-0.05,-0.35,0.44
17.6820809841156,-0.08,-0.12,-0.03,0.14
17.692798852920532,-0.38,-0.07,-0.08,0.39
17.702812910079956,-0.55,0.1,-0.04,0.56
17.71214985847473,-0.67,0.23,0.15,0.72
17.763420820236206,-0.43,0.23,0.21,0.53
17.764153003692627,0.18,0.24,0.38,0.48
17.764580011367798,1.1,0.33,0.67,1.32
17.7650089263916,2.03,0.35,0.99,2.28
17.765928983688354,2.34,0.25,0.95,2.53
17.77261185646057,1.76,0.08,0.57,1.85
17.78206992149353,1.06,-0.04,0.5,1.17
17.79259490966797,0.85,-0.12,0.99,1.31
17.802715063095093,0.93,-0.09,1.71,1.94
17.812019109725952,1.27,-0.05,2.2,2.54
17.86334776878357,1.71,-0.08,1.79,2.47
17.864110946655273,2.23,0.14,1.43,2.65
17.864537954330444,2.51,0.61,0.94,2.74
17.86496090888977,2.05,0.9,0.5,2.29
17.86591601371765,1.15,0.68,0.63,1.47
17.87231707572937,0.72,0.46,1.08,1.37
17.881805896759033,0.91,0.48,1.55,1.86
17.89247989654541,1.4,0.44,2.75,3.11
17.902556896209717,1.92,0.93,3.09,3.75
17.911892890930176,2.7,1.9,2.52,4.15
17.963710069656372,2.65,2.72,2.11,4.34
17.96446681022644,2.16,3.07,2.44,4.47
17.964890956878662,2.64,3.06,2.96,5.0
17.96532392501831,3.35,3.07,3.89,5.98
17.966274976730347,3.87,3.5,4.41,6.83
17.972163915634155,4.05,5.95,3.98,8.22
17.981580018997192,5.34,9.62,3.38,11.51
17.992257833480835,7.01,10.51,5.57,13.8
18.00232195854187,5.35,10.44,6.37,13.34
18.01173996925354,5.18,11.65,8.07,15.08
18.06424593925476,6.37,12.89,9.18,17.05
18.06494402885437,6.68,13.06,7.93,16.67
18.06536602973938,6.22,11.4,6.6,14.56
18.065781831741333,5.56,8.4,2.07,10.28
18.066715955734253,5.71,8.19,-4.68,11.02
18.071892023086548,4.61,12.12,-8.65,15.58
18.081361055374146,-0.84,16.16,-3.87,16.63
18.091999769210815,-4.97,12.4,-0.14,13.35
18.10216212272644,-3.0,3.95,1.24,5.11
18.111546993255615,-1.55,1.54,1.76,2.8
18.16443181037903,-7.32,2.35,-5.0,9.17
18.165185928344727,-5.52,5.58,-6.39,10.12
18.165609121322632,0.55,6.63,1.43,6.8
18.1660258769989,5.16,3.2,4.32,7.45
18.166950941085815,6.39,0.4,4.51,7.83
18.171796083450317,4.32,-0.66,3.07,5.34
18.18127989768982,2.31,-1.34,1.6,3.11
18.191922903060913,1.19,-2.26,2.0,3.24
18.202014923095703,1.05,-3.22,2.46,4.18
18.211249113082886,0.97,-3.68,2.62,4.62
18.265243768692017,0.66,-3.67,2.7,4.6
18.26599907875061,0.76,-3.5,2.62,4.43
18.266419887542725,1.27,-3.62,2.76,4.72
18.266835927963257,1.97,-3.9,2.92,5.25
18.267756938934326,2.56,-3.96,2.8,5.48
18.271662950515747,2.92,-4.08,2.67,5.68
18.283748865127563,3.23,-4.46,2.71,6.13
18.291735887527466,3.5,-4.91,2.67,6.59
18.301905870437622,3.49,-5.47,2.73,7.03
18.311189889907837,3.25,-6.23,2.72,7.53
18.365909814834595,2.77,-7.04,2.44,7.94
18.366676092147827,2.07,-7.77,1.66,8.21
18.367098093032837,1.39,-8.55,1.16,8.73
18.367515802383423,0.77,-9.08,0.83,9.15
18.36844801902771,0.55,-9.37,0.81,9.42
18.371476888656616,0.27,-9.36,0.65,9.38
18.384905099868774,-0.38,-8.93,-0.54,8.95
18.39175796508789,-1.46,-8.44,-2.05,8.8
18.40190291404724,-2.73,-8.03,-3.37,9.12
18.411109924316406,-3.95,-6.93,-5.34,9.59
18.46609091758728,-5.21,-5.06,-8.47,11.15
18.467045068740845,-6.33,-2.84,-10.31,12.42
18.46747088432312,-7.24,-1.39,-9.73,12.2
18.467891931533813,-8.1,-0.71,-9.21,12.28
18.468833923339844,-9.25,-0.02,-10.2,13.76
18.47138285636902,-9.99,0.14,-10.87,14.76
18.480978965759277,-9.92,-0.23,-10.0,14.08
18.491691827774048,-9.61,-0.24,-9.74,13.68
18.5017249584198,-9.42,-0.38,-9.84,13.62
18.511048078536987,-9.51,1.46,-9.91,13.81
18.566333055496216,-6.8,11.06,-7.95,15.22
18.56735396385193,3.96,5.25,-4.68,8.07
18.567797899246216,22.39,18.58,28.24,40.54
18.56823992729187,23.08,25.88,18.97,39.52
18.56920289993286,2.62,13.91,-19.22,23.86
18.571343898773193,-1.92,-1.17,-4.18,4.74
18.580829858779907,-14.37,-5.8,7.25,17.1
18.59154200553894,-20.69,-3.02,1.51,20.96
18.60157299041748,-15.17,-4.41,-6.58,17.11
18.61082911491394,-7.91,-1.83,-10.41,13.2
18.66715693473816,-4.87,1.59,-8.26,9.71
18.66793394088745,-3.08,1.79,-4.38,5.64
18.668389081954956,-0.62,0.54,-4.86,4.92
18.668832063674927,2.1,0.65,-4.92,5.38
18.66980290412903,2.76,0.95,-3.41,4.48
18.671327829360962,0.18,0.73,-2.56,2.66
18.680744886398315,-2.31,0.37,-2.32,3.29
18.691417932510376,-2.44,-0.06,-1.71,2.98
18.701469898223877,-1.59,-0.22,0.32,1.63
18.710726976394653,-0.96,-0.11,1.39,1.69
18.7674400806427,-0.81,-0.12,0.73,1.09
18.768372774124146,-0.51,-0.06,-0.14,0.53
18.768794775009155,0.42,0.05,-0.8,0.9
18.769214868545532,1.21,0.01,-1.04,1.59
18.770210027694702,1.22,-0.17,-0.78,1.45
18.771451950073242,0.24,-0.38,-0.68,0.81
18.780524015426636,-0.98,-0.45,-0.48,1.18
18.791210889816284,-1.69,-0.34,-0.24,1.74
18.80131506919861,-1.67,0.01,-0.19,1.68
18.810609102249146,-0.71,0.48,0.05,0.85
18.867336988449097,0.85,0.83,0.61,1.33
18.868170022964478,2.14,0.69,1.04,2.47
18.868612051010132,2.8,0.37,1.06,3.01
18.869050979614258,2.48,0.1,1.01,2.67
18.870368003845215,1.68,-0.02,1.35,2.15
18.871311902999878,1.28,-0.09,1.85,2.25
18.880398988723755,1.04,-0.37,2.14,2.4
18.891084909439087,1.12,-0.71,2.26,2.62
18.90119695663452,1.7,-0.59,1.75,2.51
18.91044592857361,1.79,-0.01,0.74,1.93
18.967861890792847,1.06,0.48,-0.58,1.3
18.968662977218628,0.17,0.62,-1.16,1.32
18.969094038009644,-0.05,0.41,-0.66,0.77
18.969516038894653,0.05,0.24,0.01,0.24
18.970797777175903,0.25,0.26,0.59,0.69
18.97173285484314,0.6,0.36,1.3,1.47
18.980223894119263,0.85,0.42,1.62,1.87
18.990875005722046,0.86,0.73,1.21,1.65
19.000916957855225,0.58,0.92,0.62,1.25
19.01024079322815,0.49,1.23,0.25,1.34
19.06813883781433,0.31,1.37,0.79,1.61
19.0690438747406,0.4,1.37,0.92,1.69
19.069464921951294,0.83,1.63,1.08,2.12
19.07021403312683,0.97,1.6,1.62,2.47
19.071176767349243,1.55,1.67,1.94,2.99
19.07211184501648,2.29,1.91,2.21,3.71
19.080111980438232,2.59,2.11,2.26,4.03
19.09079909324646,2.79,2.31,2.41,4.35
19.10076594352722,2.83,2.71,2.66,4.73
19.110053777694702,2.39,4.5,2.76,5.79
19.1685049533844,3.31,7.69,2.67,8.78
19.16928505897522,5.56,8.69,5.55,11.71
19.17004895210266,5.49,8.68,7.63,12.79
19.170471906661987,5.6,10.03,7.52,13.72
19.17142081260681,5.14,11.46,8.61,15.22
19.172343969345093,2.98,11.53,9.9,15.48
19.179892778396606,1.34,10.11,8.45,13.24
19.190594911575317,3.72,8.02,3.05,9.35
19.20049786567688,8.85,8.09,-2.21,12.19
19.20995593070984,9.65,13.27,-5.27,17.23
19.269120931625366,2.41,16.9,-5.74,18.01
19.270224809646606,-2.01,14.94,-4.63,15.76
19.27065110206604,-0.72,7.9,-1.2,8.02
19.27107882499695,1.74,2.95,3.07,4.59
19.27203106880188,-3.38,2.79,-1.03,4.5
19.272964000701904,-6.74,4.38,-8.58,11.75
19.279878854751587,-2.02,6.33,-2.32,7.03
19.29049277305603,2.95,4.02,3.11,5.87
19.3004310131073,5.72,1.56,3.3,6.78
19.309818983078003,5.32,0.67,2.56,5.94
19.369137048721313,4.41,-0.27,1.41,4.63
19.37024998664856,4.15,-1.25,1.16,4.48
19.370675802230835,3.73,-2.04,1.77,4.6
19.37109899520874,3.11,-2.51,2.2,4.56
19.372078895568848,2.15,-2.78,2.63,4.38
19.373027086257935,0.9,-2.92,3.09,4.34
19.3796329498291,0.1,-2.82,2.98,4.1
19.39036798477173,0.17,-2.84,2.7,3.92
19.40025496482849,0.74,-2.98,2.49,3.95
19.409684896469116,1.28,-3.07,2.26,4.02
19.47020196914673,1.74,-3.2,2.03,4.16
19.47114109992981,1.93,-3.32,1.88,4.27
19.47156596183777,1.88,-3.74,1.79,4.55
19.47198987007141,1.62,-4.51,1.75,5.1
19.472944974899292,1.29,-5.43,1.52,5.78
19.47387385368347,1.04,-6.27,1.49,6.52
19.479512929916382,0.91,-6.9,1.46,7.11
19.49014687538147,0.8,-7.53,1.42,7.7
19.50002884864807,0.12,-7.89,1.21,7.98
19.50960612297058,-0.51,-7.93,0.65,7.97
19.569998025894165,-0.97,-7.7,-0.17,7.76
19.570948839187622,-1.84,-7.62,-1.27,7.94
19.571388959884644,-2.94,-7.38,-2.29,8.26
19.571829080581665,-4.02,-6.96,-3.18,8.64
19.572791814804077,-5.12,-6.17,-4.49,9.18
19.573728799819946,-5.38,-4.92,-5.55,9.16
19.579399824142456,-5.44,-3.46,-6.71,9.3
19.589991807937622,-6.5,-1.81,-8.33,10.71
19.59991192817688,-8.68,-0.69,-9.98,13.24
19.609419107437134,-10.51,-0.63,-10.65,14.97
19.670650005340576,-11.27,-1.27,-10.42,15.4
19.671422004699707,-11.29,-1.89,-10.07,15.24
19.671849966049194,-10.35,-1.97,-9.79,14.38
19.67227292060852,-9.44,-1.82,-9.9,13.79
19.67324709892273,-9.24,-2.71,-9.38,13.44
19.674175024032593,-9.25,-3.26,-8.8,13.17
19.67919397354126,-10.11,3.42,-8.61,13.71
19.68987798690796,-1.24,7.03,-3.4,7.9
19.699840784072876,21.72,11.97,19.05,31.27
19.709580898284912,32.7,24.9,29.8,50.76
19.77090811729431,3.85,21.33,-14.47,26.06
19.77186393737793,-0.17,7.33,-17.78,19.23
19.7722909450531,-5.48,-6.18,-0.46,8.27
19.77271294593811,-14.23,-4.1,5.06,15.64
19.77367091178894,-16.42,-2.65,-3.21,16.93
19.77459979057312,-11.73,-2.32,-6.06,13.4
19.779035806655884,-8.65,-0.62,-6.27,10.7
19.789623022079468,-6.34,0.89,-3.74,7.41
19.85419201850891,-2.53,0.54,-2.58,3.65
19.85463786125183,1.36,0.41,-2.67,3.02
19.855058908462524,3.13,0.8,-2.08,3.84
19.85548186302185,1.75,0.81,-1.95,2.74
19.8559148311615,-0.39,0.63,-2.39,2.5
19.856334924697876,-1.02,0.34,-3.02,3.2
19.85949683189392,-0.74,0.23,-2.56,2.67
19.86942410469055,-0.85,0.1,-1.06,1.36
19.87894606590271,-1.23,-0.19,-0.12,1.25
19.88962697982788,-1.11,-0.36,-0.21,1.18
19.955771923065186,-0.4,-0.16,-0.6,0.73
19.956236124038696,0.32,0.1,-0.72,0.79
19.956694841384888,0.54,0.08,-0.52,0.75
19.957130908966064,0.21,-0.07,-0.09,0.23
19.957571983337402,-0.27,-0.21,0.36,0.49
19.95800280570984,-0.51,-0.29,0.55,0.8
19.959340810775757,-0.51,-0.21,0.44,0.7
19.969347953796387,-0.11,0.05,0.26,0.28
19.978820085525513,0.57,0.32,0.37,0.75
19.9895179271698,1.0,0.41,0.65,1.26
20.055527925491333,1.38,0.29,0.6,1.53
20.056427001953125,1.73,0.19,0.78,1.9
20.056852102279663,1.66,0.14,0.97,1.92
20.057274103164673,1.21,0.08,0.86,1.48
20.057697057724,0.81,-0.05,0.93,1.23
20.058153867721558,0.56,-0.09,1.08,1.21
20.059396028518677,0.36,-0.21,1.16,1.23
20.069479942321777,0.26,-0.32,1.18,1.24
20.0786349773407,0.67,-0.39,0.95,1.22
20.08942484855652,1.37,-0.29,0.47,1.47
20.15531611442566,1.73,-0.02,0.4,1.77
20.15575098991394,1.6,0.26,0.47,1.68
20.156169891357422,1.23,0.37,0.79,1.5
20.156587839126587,0.86,0.44,1.06,1.43
20.157005071640015,0.8,0.27,1.32,1.56
20.157421827316284,0.74,0.17,1.97,2.11
20.158929109573364,1.02,0.45,1.84,2.15
20.169103860855103,1.21,0.77,1.41,2.01
20.17857599258423,1.17,1.19,1.1,1.99
20.189185857772827,1.47,1.84,1.1,2.59
20.25446105003357,1.74,2.52,1.2,3.28
20.256335020065308,2.12,3.4,1.48,4.27
20.256760835647583,2.15,3.37,2.1,4.51
20.257182836532593,2.13,3.32,2.72,4.79
20.257595777511597,2.3,3.29,3.03,5.02
20.258326768875122,2.16,3.77,3.37,5.49
20.259279012680054,1.92,5.82,3.17,6.89
20.269768953323364,3.5,8.81,3.46,10.09
20.278409957885742,5.84,9.49,6.44,12.87
20.289263010025024,6.23,9.77,8.12,14.14
20.29904007911682,7.55,11.1,8.52,15.89
20.356687784194946,8.46,11.72,9.01,17.03
20.357120990753174,7.23,10.83,8.91,15.77
20.357558012008667,5.4,8.89,6.94,12.5
20.35831093788147,4.82,7.23,1.82,8.87
20.358734846115112,6.84,8.44,-4.09,11.6
20.359712839126587,6.27,13.95,-7.47,17.02
20.368897914886475,-0.38,17.33,-3.15,17.61
20.37836480140686,-4.19,12.56,-0.03,13.24
20.38898491859436,-3.63,5.7,1.16,6.85
20.398881912231445,-0.14,2.57,2.21,3.39
20.45701003074646,-3.86,1.73,-2.39,4.85
20.45749592781067,-5.35,3.57,-7.75,10.07
20.45828604698181,0.22,6.42,-2.04,6.73
20.458735942840576,5.06,4.64,2.15,7.19
20.459171056747437,8.11,1.72,2.89,8.77
20.460165977478027,7.83,-0.21,2.98,8.38
20.468633890151978,5.78,-1.6,2.03,6.33
20.478096961975098,4.59,-2.31,1.5,5.35
20.488773107528687,3.39,-2.24,1.5,4.33
20.49869704246521,2.48,-1.94,1.42,3.45
20.55721879005432,1.75,-2.04,1.53,3.09
20.55803894996643,0.96,-2.37,1.16,2.8
20.558470964431763,0.78,-2.85,0.74,3.04
20.558900117874146,1.3,-3.33,0.74,3.65
20.55931305885315,1.97,-3.38,0.61,3.95
20.560264825820923,2.22,-3.29,0.32,3.98
20.56848692893982,1.85,-3.48,0.14,3.94
20.577979803085327,1.53,-3.89,-0.01,4.18
20.588663816452026,1.23,-4.52,0.08,4.68
20.598598957061768,0.83,-5.36,0.14,5.42
20.658061981201172,0.48,-6.02,0.09,6.03
20.65873885154724,0.41,-6.58,0.26,6.59
20.65918278694153,0.16,-7.31,0.42,7.32
20.659626960754395,-0.26,-7.86,0.51,7.88
20.660075902938843,-0.82,-7.9,0.33,7.94
20.661045789718628,-1.04,-7.86,-0.06,7.92
20.66836380958557,-1.05,-7.76,-0.7,7.86
20.67781710624695,-1.28,-7.46,-1.4,7.69
20.68844485282898,-2.05,-6.98,-2.56,7.71
20.698447942733765,-3.76,-6.15,-3.76,8.13
20.758716821670532,-6.13,-5.41,-4.83,9.49
20.75917077064514,-7.91,-4.77,-6.43,11.25
20.75961995124817,-8.17,-4.18,-6.94,11.5
20.760052919387817,-7.67,-3.68,-6.69,10.82
20.760485887527466,-7.89,-3.31,-7.4,11.31
20.761443853378296,-9.26,-2.91,-8.81,13.1
20.768014907836914,-10.65,-2.4,-9.77,14.65
20.777716875076294,-10.7,-2.33,-9.95,14.79
20.78831195831299,-9.43,-2.3,-9.3,13.44
20.79834008216858,-8.14,-1.86,-8.97,12.25
20.859400033950806,-7.61,-2.11,-8.83,11.84
20.85985493659973,-8.06,-2.73,-7.78,11.53
20.86027693748474,-9.15,-1.27,-7.05,11.62
20.86071491241455,-7.61,5.98,-6.16,11.47
20.861142873764038,7.49,4.97,2.29,9.27
20.86217188835144,37.6,21.93,35.93,56.44
20.867833852767944,21.11,34.14,9.15,41.16
20.877443075180054,-1.6,19.35,-23.73,30.66
20.88811182975769,-2.54,-5.66,-7.96,10.09
20.89810585975647,-15.73,-11.24,3.71,19.68
20.959388971328735,-21.61,-8.43,1.68,23.25
20.959842920303345,-16.65,-2.55,-5.77,17.8
20.96027684211731,-12.32,-0.91,-6.85,14.12
20.96073293685913,-7.34,0.75,-2.21,7.7
20.961196899414062,-2.1,0.7,-1.62,2.74
20.962159872055054,2.31,0.64,-2.13,3.2
20.96769404411316,5.54,1.09,-2.08,6.01
20.977343797683716,5.49,0.77,-2.28,5.99
20.98792290687561,1.33,0.53,-3.42,3.7
20.99787402153015,-1.88,0.34,-3.9,4.34
21.060127019882202,-2.65,0.22,-2.54,3.67
21.060561895370483,-1.84,0.07,-1.52,2.38
21.060981035232544,-1.65,-0.22,-0.99,1.93
21.061403036117554,-2.01,-0.51,-0.33,2.09
21.06182289123535,-1.56,-0.28,-0.15,1.59
21.06277894973755,-0.19,0.23,-0.47,0.55
21.067766904830933,1.19,0.32,-0.41,1.29
21.077199935913086,1.47,0.19,-0.35,1.52
21.08779501914978,0.77,-0.01,-0.53,0.93
21.09785485267639,0.03,-0.22,-0.29,0.36
21.160001039505005,-0.21,-0.12,-0.26,0.35
21.160448789596558,-0.08,0.09,-0.26,0.28
21.16085982322693,-0.11,0.28,0.01,0.3
21.161295890808105,-0.23,0.18,0.02,0.29
21.161735773086548,-0.11,0.05,0.18,0.21
21.162691831588745,0.46,0.14,0.68,0.83
21.16774892807007,1.21,0.26,0.99,1.58
21.177064895629883,1.77,0.38,1.02,2.07
21.187655925750732,1.7,0.32,0.8,1.9
21.197715997695923,0.99,0.06,0.6,1.15
21.260356903076172,0.18,-0.19,0.72,0.76
21.260806798934937,-0.28,-0.29,1.05,1.12
21.261249780654907,-0.16,-0.18,1.25,1.27
21.261686086654663,0.44,-0.04,1.29,1.36
21.262120008468628,1.16,0.03,1.14,1.62
21.263098001480103,1.51,0.0,0.79,1.7
21.267724990844727,1.68,0.07,0.48,1.74
21.276942014694214,1.88,0.23,0.55,1.97
21.28749394416809,1.97,0.3,1.06,2.25
21.297672033309937,1.87,0.3,1.72,2.55
21.362766981124878,1.67,0.44,1.79,2.48
21.363252878189087,1.3,0.39,1.93,2.35
21.363744020462036,0.83,0.65,1.86,2.13
21.36423397064209,1.3,1.25,1.51,2.35
21.36472797393799,1.44,1.73,1.21,2.55
21.365850925445557,1.72,2.66,1.26,3.4
21.367510080337524,1.93,2.86,1.66,3.82
21.37677311897278,2.05,2.98,2.25,4.25
21.38750386238098,2.49,3.13,2.79,4.87
21.397323846817017,2.87,3.51,3.3,5.6
21.461057901382446,2.69,4.89,3.32,6.49
21.461488962173462,3.46,7.7,2.95,8.94
21.4619038105011,5.53,8.87,4.9,11.54
21.462321043014526,5.52,9.24,6.42,12.53
21.46273899078369,5.6,10.77,7.27,14.14
21.463696002960205,6.74,11.94,8.62,16.19
21.46746802330017,6.96,11.96,8.83,16.41
21.47668695449829,6.8,11.15,7.36,14.99
21.487186908721924,6.27,9.14,4.76,12.06
21.497293949127197,6.22,7.65,-0.55,9.87
21.561331033706665,6.82,9.75,-5.75,13.21
21.561772108078003,3.65,14.52,-6.38,16.27
21.562196969985962,-2.36,15.35,-2.01,15.65
21.562618017196655,-4.63,10.42,-1.72,11.53
21.563041925430298,-2.8,3.94,0.55,4.86
21.5639750957489,0.03,1.46,2.77,3.13
21.567234992980957,-4.22,1.09,-3.46,5.56
21.57648777961731,-3.11,4.53,-6.53,8.53
21.587115049362183,2.11,5.92,-0.14,6.28
21.59713578224182,5.93,3.12,2.8,7.26
21.662065982818604,7.67,0.68,3.8,8.58
21.662503004074097,6.09,-0.64,3.1,6.86
21.662925958633423,4.37,-1.76,1.78,5.03
21.663349866867065,3.09,-2.86,1.97,4.64
21.663769006729126,2.29,-3.4,2.41,4.75
21.664704084396362,1.95,-3.44,2.57,4.71
21.666791915893555,1.47,-3.16,2.66,4.38
21.676312923431396,0.96,-3.11,2.48,4.09
21.687011003494263,0.89,-3.22,2.36,4.09
21.697008848190308,1.2,-3.14,2.1,3.96
21.762181043624878,1.4,-3.01,1.65,3.7
21.762617826461792,1.31,-3.05,1.31,3.56
21.763038873672485,0.92,-3.18,0.81,3.4
21.76345992088318,0.54,-3.46,0.52,3.54
21.763885974884033,0.38,-4.11,0.81,4.2
21.764822959899902,0.48,-4.93,1.05,5.06
21.766602993011475,0.58,-5.7,0.97,5.81
21.776187896728516,0.58,-6.39,1.02,6.49
21.786843061447144,0.27,-6.79,1.25,6.9
21.796819925308228,-0.35,-6.8,1.1,6.89
21.862354040145874,-0.69,-6.71,0.7,6.78
21.86279797554016,-1.09,-6.64,0.08,6.72
21.863229990005493,-1.83,-6.35,-1.33,6.74
21.86367106437683,-2.74,-5.72,-2.38,6.77
21.86409091949463,-3.75,-5.07,-2.68,6.85
21.865025997161865,-4.57,-4.29,-3.53,7.19
21.866461992263794,-5.0,-3.22,-4.95,7.73
21.876051902770996,-5.4,-1.97,-6.15,8.41
21.886667013168335,-6.08,-1.04,-7.22,9.49
21.896654844284058,-6.9,-0.82,-7.8,10.44
21.962771892547607,-7.7,-1.42,-7.72,10.99
21.963212966918945,-8.26,-2.2,-7.84,11.59
21.9636390209198,-8.33,-2.51,-8.1,11.88
21.96407389640808,-8.14,-2.44,-8.27,11.85
21.964505910873413,-7.82,-2.34,-8.88,12.06
21.9654757976532,-7.98,-2.32,-9.84,12.87
21.96672296524048,-8.94,-2.27,-10.29,13.81
21.975897073745728,-10.97,-1.38,-11.04,15.62
21.98662781715393,-10.84,7.08,-9.41,16.0
21.996618032455444,-1.4,2.24,-5.64,6.22
22.063164949417114,11.38,13.02,18.68,25.45
22.063623905181885,21.28,19.98,23.82,37.67
22.064076900482178,8.3,19.39,-14.9,25.82
22.064507961273193,10.19,11.37,-10.9,18.75
22.064937829971313,-2.23,1.35,-2.4,3.54
22.066263914108276,-13.9,-8.16,1.98,16.23
22.067551851272583,-12.64,-7.14,-0.41,14.52
22.075825929641724,-11.26,-3.64,-10.0,15.49
22.086344957351685,-9.76,-0.77,-10.09,14.05
22.096415996551514,-6.35,1.46,-5.8,8.72
22.16288995742798,-2.29,1.22,-3.61,4.44
22.163347959518433,1.03,0.83,-2.97,3.25
22.16378688812256,2.79,1.2,-1.91,3.58
22.164211988449097,2.35,0.98,-0.26,2.55
22.164653062820435,0.13,0.65,-0.51,0.83
22.165968894958496,-1.07,0.05,-1.65,1.96
22.166898012161255,-1.28,-0.15,-1.53,2.0
22.175620794296265,-1.44,-0.11,-0.8,1.65
22.186235904693604,-1.77,-0.3,0.02,1.79
22.196232080459595,-1.31,-0.41,0.36,1.41
22.26303505897522,-0.19,-0.16,-0.2,0.31
22.263468027114868,0.89,0.04,-0.92,1.28
22.26389789581299,1.29,0.09,-1.23,1.78
22.264325857162476,0.73,-0.05,-0.9,1.15
22.26477289199829,0.04,-0.26,-0.1,0.28
22.266047954559326,-0.39,-0.34,0.39,0.64
22.26697611808777,-0.75,-0.11,0.56,0.94
22.275448083877563,-0.89,0.2,0.52,1.05
22.286117792129517,-0.64,0.34,0.36,0.8
22.29611897468567,-0.12,0.26,0.29,0.4
22.36288094520569,0.59,0.13,0.54,0.81
22.363356828689575,1.21,0.12,0.84,1.47
22.36381983757019,1.69,0.17,0.9,1.92
22.364248991012573,1.89,0.23,0.69,2.02
22.36467695236206,1.49,0.17,0.41,1.55
22.365669012069702,0.75,-0.06,0.39,0.84
22.36699891090393,0.2,-0.26,0.62,0.7
22.37530779838562,0.24,-0.32,1.18,1.24
22.385857820510864,0.59,-0.29,1.46,1.6
22.396034955978394,1.17,-0.11,1.38,1.81
22.462580919265747,1.8,0.17,1.11,2.12
22.463035821914673,1.89,0.43,0.56,2.01
22.46347188949585,1.68,0.51,0.32,1.78
22.463911771774292,1.46,0.33,0.35,1.53
22.464339017868042,1.2,0.08,0.48,1.29
22.465678930282593,1.05,-0.02,0.76,1.29
22.466627836227417,1.1,0.12,1.35,1.74
22.475194931030273,1.03,0.42,1.7,2.03
22.485631942749023,0.94,0.92,1.67,2.12
22.495872974395752,0.95,1.24,2.39,2.85
22.562310934066772,1.33,1.81,2.42,3.3
22.56275200843811,1.18,2.46,1.72,3.22
22.563178777694702,1.46,2.87,1.75,3.66
22.563599824905396,1.36,2.78,1.98,3.67
22.564021825790405,1.61,2.76,2.34,3.96
22.56532883644104,2.18,2.98,2.73,4.59
22.5662579536438,2.26,4.11,3.12,5.63
22.575042963027954,3.16,6.79,3.06,8.09
22.585570096969604,5.93,8.06,5.04,11.2
22.595643997192383,6.61,8.18,6.79,12.51
22.662730932235718,6.14,9.18,7.22,13.19
22.66317582130432,5.44,10.67,8.81,14.86
22.663598775863647,5.1,11.57,9.93,16.07
22.664021968841553,4.91,11.42,8.19,14.88
22.664811849594116,4.83,10.03,4.97,12.19
22.665780782699585,5.12,8.25,0.4,9.71
22.66669797897339,6.18,8.9,-4.95,11.91
22.674906969070435,4.64,13.27,-6.97,15.69
22.685703992843628,-1.67,15.89,-2.13,16.11
22.695552110671997,-4.71,12.13,0.16,13.01
22.763300895690918,-3.12,6.2,0.58,6.96
22.763744115829468,1.37,2.94,1.48,3.56
22.764538049697876,-2.05,2.1,-1.27,3.19
22.76496696472168,-4.04,3.94,-6.48,8.59
22.7653968334198,0.27,6.74,-2.17,7.08
22.766359090805054,4.24,4.83,2.0,6.73
22.76729702949524,7.36,1.58,3.63,8.35
22.77478289604187,7.58,-0.67,3.87,8.53
22.785621881484985,5.97,-2.2,2.92,7.0
22.795339822769165,4.66,-3.06,2.61,6.15
22.86376190185547,3.01,-3.26,2.63,5.15
22.864552974700928,1.62,-3.05,2.65,4.35
22.864980936050415,0.55,-2.59,2.72,3.79
22.865402936935425,-0.2,-2.2,2.19,3.11
22.8658230304718,-0.12,-2.05,1.6,2.6
22.866786003112793,0.64,-2.19,1.69,2.83
22.86803412437439,1.66,-2.24,1.71,3.27
22.874533891677856,2.26,-2.36,1.46,3.57
22.885553121566772,2.1,-2.57,1.07,3.48
22.895179986953735,1.43,-2.93,0.57,3.3
22.96385097503662,0.77,-3.57,0.16,3.65
22.964619874954224,0.35,-4.41,0.02,4.42
22.965049028396606,0.11,-5.32,0.06,5.32
22.9654757976532,0.04,-6.22,0.42,6.23
22.96590304374695,0.16,-6.97,0.89,7.02
22.96684694290161,0.0,-7.52,1.38,7.64
22.96813178062439,-0.91,-7.65,0.92,7.75
22.974427938461304,-1.37,-7.74,0.34,7.86
22.985387086868286,-1.81,-7.76,-0.5,7.98
22.99502205848694,-2.19,-7.52,-1.66,8.0
23.064682960510254,-2.75,-6.92,-2.46,7.84
23.065325021743774,-4.15,-6.07,-3.49,8.13
23.06575083732605,-5.41,-4.97,-4.8,8.77
23.066173791885376,-6.07,-3.95,-5.73,9.23
23.066601037979126,-6.58,-3.01,-6.69,9.85
23.06755805015564,-7.12,-2.38,-7.34,10.49
23.068826913833618,-7.6,-2.39,-7.4,10.87
23.074262857437134,-8.51,-2.44,-7.98,11.91
23.085263967514038,-9.64,-2.29,-9.51,13.73
23.094877004623413,-10.22,-2.04,-10.41,14.73
23.165056943893433,-9.94,-1.92,-10.43,14.53
23.165504932403564,-9.4,-2.8,-10.15,14.11
23.165937900543213,-9.62,-3.68,-9.72,14.16
23.166361093521118,-10.12,4.35,-8.29,13.78
23.166786909103394,-4.21,3.15,-5.32,7.47
23.1677348613739,14.64,13.6,16.47,25.89
23.16905188560486,25.94,28.97,23.9,45.64
23.174120903015137,5.34,25.73,-18.9,32.36
23.185159921646118,5.66,5.03,-9.61,12.23
23.194721937179565,-10.71,-7.2,3.11,13.27
23.264941930770874,-17.49,-11.9,-1.32,21.19
23.265392065048218,-13.61,-4.99,-7.27,16.21
23.265815019607544,-12.91,-1.34,-9.35,15.99
23.266238927841187,-8.86,0.93,-5.39,10.41
23.26665997505188,-2.99,0.66,-3.0,4.28
23.267595052719116,1.5,0.41,-3.11,3.47
23.268872022628784,3.53,1.33,-2.57,4.56
23.274041891098022,3.17,1.32,-1.49,3.74
23.28459906578064,0.06,0.88,-1.92,2.11
23.294578790664673,-2.48,0.1,-3.08,3.95
23.36553406715393,-2.92,-0.13,-2.55,3.87
23.365970849990845,-2.01,-0.06,-1.56,2.54
23.36641001701355,-1.34,-0.15,-0.89,1.61
23.36682891845703,-1.02,-0.21,-0.71,1.26
23.36724591255188,-0.83,-0.25,-0.42,0.96
23.368550062179565,-0.7,-0.23,0.01,0.73
23.369481801986694,0.13,-0.07,-0.06,0.15
23.37376594543457,0.72,0.11,-0.2,0.75
23.38446307182312,0.67,0.14,-0.24,0.72
23.394532918930054,0.47,0.11,-0.19,0.51
23.465648889541626,0.38,0.09,0.05,0.39
23.466078996658325,0.34,0.05,0.18,0.38
23.466500997543335,0.14,0.06,0.21,0.25
23.466922998428345,0.04,0.05,0.14,0.15
23.46734094619751,0.44,0.12,0.08,0.46
23.468630075454712,1.12,0.3,0.3,1.19
23.469576120376587,1.7,0.43,0.63,1.86
23.473675966262817,1.89,0.36,0.89,2.11
23.484174966812134,1.38,0.2,1.09,1.76
23.494345903396606,0.46,0.07,0.88,0.99
23.564626932144165,-0.05,0.01,0.85,0.85
23.565069913864136,0.06,-0.03,1.06,1.06
23.565494775772095,0.6,-0.04,1.19,1.33
23.565912008285522,1.1,-0.04,1.28,1.68
23.566312074661255,1.32,-0.1,0.97,1.64
23.56725287437439,1.59,-0.2,0.46,1.66
23.56818389892578,2.16,-0.29,0.1,2.18
23.57358694076538,2.58,-0.1,0.06,2.58
23.58418297767639,2.22,0.27,0.19,2.24
23.594191789627075,1.36,0.4,0.7,1.58
23.66436195373535,0.68,0.45,0.99,1.28
23.664798974990845,0.44,0.7,1.06,1.34
23.665218114852905,0.21,1.21,1.54,1.96
23.66563582420349,0.54,1.73,1.83,2.57
23.666056871414185,1.21,2.11,2.38,3.4
23.666996955871582,1.48,2.99,2.47,4.15
23.667918920516968,2.1,3.29,3.07,4.96
23.67348599433899,2.36,3.39,3.26,5.26
23.684050798416138,2.83,3.76,3.68,5.97
23.694072008132935,3.21,4.26,4.37,6.89
23.76432991027832,3.12,6.06,4.69,8.27
23.764765977859497,4.32,9.22,4.84,11.27
23.765188932418823,6.61,10.48,6.93,14.19
23.76561689376831,6.52,10.38,8.3,14.8
23.76604390144348,5.21,10.9,8.98,15.05
23.7669780254364,5.2,11.68,10.16,16.33
23.76790189743042,6.01,11.15,9.02,15.55
23.773298978805542,6.31,9.32,4.97,12.3
23.78374409675598,7.23,8.07,-0.02,10.83
23.793826818466187,8.67,9.9,-4.71,13.97
23.864428997039795,4.7,13.86,-5.83,15.75
23.864892959594727,-1.88,15.23,-2.36,15.52
23.865329027175903,-4.13,10.99,-0.7,11.76
23.865774869918823,-2.53,5.0,0.98,5.68
23.866217851638794,0.07,2.34,1.39,2.72
23.867186784744263,-4.03,1.9,-3.54,5.69
23.86811590194702,-3.83,4.36,-6.35,8.6
23.873066902160645,1.13,6.26,-0.79,6.41
23.883729934692383,5.22,3.94,1.95,6.82
23.893760919570923,7.95,1.39,2.95,8.59
23.964571952819824,8.05,-0.26,3.11,8.63
23.965025901794434,6.76,-1.42,1.94,7.17
23.965469121932983,5.63,-2.23,1.15,6.16
23.965897798538208,4.41,-2.62,1.57,5.36
23.966338872909546,3.42,-2.8,2.02,4.85
23.967296838760376,2.64,-2.92,2.45,4.63
23.968229055404663,1.64,-3.17,2.49,4.35
23.972954034805298,1.15,-3.57,2.04,4.26
23.983603954315186,1.22,-3.92,1.66,4.42
23.99360489845276,1.66,-3.81,1.33,4.36
24.064892053604126,1.66,-3.57,0.96,4.05
24.06532096862793,1.21,-3.42,0.45,3.65
24.06577181816101,1.01,-3.4,0.08,3.54
24.066208124160767,0.7,-3.76,0.14,3.82
24.066656827926636,0.37,-4.33,0.36,4.36
24.067620038986206,0.03,-4.83,0.55,4.86
24.06886601448059,-0.21,-5.44,0.42,5.46
24.07279396057129,-0.5,-5.85,0.0,5.87
24.083319902420044,-0.87,-5.8,-1.09,5.96
24.093467950820923,-1.13,-5.65,-1.97,6.08
24.16536593437195,-2.2,-5.78,-2.03,6.5
24.165816068649292,-3.05,-5.9,-1.97,6.92
24.166258096694946,-3.81,-5.71,-2.51,7.3
24.16670298576355,-5.18,-5.42,-4.01,8.5
24.167155981063843,-6.38,-5.09,-5.73,9.97
24.16811203956604,-7.12,-4.73,-6.95,11.01
24.169391870498657,-7.83,-4.21,-7.95,11.92
24.172642946243286,-9.04,-3.61,-9.17,13.37
24.183221101760864,-10.31,-3.23,-9.59,14.44
24.19332194328308,-10.86,-3.59,-9.48,14.85
24.265976905822754,-10.41,-4.16,-9.18,14.48
24.266422986984253,-9.65,-4.47,-8.79,13.79
24.266867876052856,-8.89,-4.27,-8.37,12.93
24.267317056655884,-8.41,-3.77,-8.55,12.57
24.267753839492798,-8.0,-3.62,-8.3,12.08
24.269043922424316,-8.11,-3.07,-7.77,11.64
24.27000093460083,-9.87,4.2,-8.09,13.43
24.272429943084717,-1.93,4.79,-5.58,7.6
24.283092975616455,15.79,12.83,18.26,27.33
24.293133020401,31.32,29.85,32.39,54.04
24.366697072982788,3.77,29.29,-18.15,34.66
24.36717200279236,2.5,9.08,-17.23,19.63
24.36762309074402,-6.86,-8.46,-2.86,11.26
24.36806893348694,-19.08,-12.02,9.36,24.41
24.368520975112915,-18.11,-5.83,0.16,19.02
24.369856119155884,-13.95,-3.02,-10.61,17.78
24.370825052261353,-10.1,-1.25,-6.99,12.34
24.372358083724976,-4.49,-0.27,-2.91,5.35
24.38296389579773,-0.04,0.52,-2.32,2.37
24.392993927001953,3.39,1.77,-2.33,4.47
24.466238975524902,6.43,1.85,-1.83,6.93
24.46667981147766,4.85,1.18,-1.77,5.29
24.467103958129883,-0.26,0.43,-2.61,2.65
24.46752691268921,-2.83,-0.28,-2.54,3.81
24.467946767807007,-2.73,-0.32,-1.52,3.14
24.469260931015015,-1.44,-0.33,-0.88,1.71
24.470227003097534,-0.7,-0.1,-0.83,1.09
24.4722421169281,-0.52,0.03,-1.08,1.19
24.482775926589966,-0.52,0.0,-0.71,0.88
24.492902994155884,-0.04,0.05,-0.27,0.27
24.502251863479614,0.33,0.18,-0.22,0.43
24.565813779830933,0.28,0.24,-0.4,0.54
24.566247940063477,0.08,0.09,-0.51,0.52
24.56667399406433,0.01,-0.13,-0.22,0.25
24.567101001739502,0.18,-0.12,0.3,0.36
24.568055868148804,0.67,0.08,0.78,1.03
24.56932282447815,0.94,0.16,0.8,1.24
24.57203507423401,0.79,0.19,0.44,0.92
24.582607984542847,0.55,0.24,0.45,0.75
24.592708826065063,0.64,0.19,0.71,0.97
24.60205101966858,1.09,0.24,1.1,1.56
24.66551184654236,1.65,0.27,1.44,2.2
24.665952920913696,1.98,0.25,1.46,2.47
24.66637396812439,1.83,0.21,1.35,2.28
24.666797876358032,1.37,0.17,1.48,2.02
24.66774296760559,0.86,0.04,1.52,1.74
24.668673992156982,0.46,-0.12,1.27,1.35
24.671924829483032,0.42,-0.26,1.14,1.24
24.68249201774597,0.86,-0.16,0.76,1.15
24.692603826522827,1.25,0.24,0.06,1.27
24.70180892944336,1.26,0.71,-0.39,1.49
24.764903783798218,0.96,0.95,-0.54,1.45
24.765331983566284,0.46,0.94,-0.4,1.12
24.765755891799927,0.17,1.02,0.24,1.06
24.766170978546143,0.2,1.11,1.21,1.65
24.767124891281128,0.56,1.22,2.17,2.55
24.768030881881714,0.58,1.79,2.85,3.41
24.771804094314575,1.08,1.93,2.76,3.53
24.78238296508789,0.9,1.96,2.61,3.38
24.792510986328125,1.11,2.07,2.4,3.35
24.801739931106567,2.07,2.29,2.45,3.94
24.865214109420776,3.02,2.49,2.8,4.81
24.865640878677368,3.88,2.78,3.2,5.74
24.8660569190979,4.27,3.65,3.9,6.83
24.866472005844116,4.05,6.47,3.7,8.48
24.867427110671997,5.74,9.78,4.15,12.07
24.868337869644165,7.39,10.9,6.62,14.73
24.8717257976532,6.86,11.56,7.43,15.35
24.8821918964386,6.38,12.0,7.68,15.61
24.892266035079956,5.89,11.76,7.93,15.35
24.901646852493286,5.07,10.71,6.89,13.7
24.965656995773315,5.17,8.99,2.05,10.57
24.966092824935913,6.96,8.96,-4.21,12.1
24.966519117355347,7.73,11.93,-8.31,16.46
24.966943979263306,2.93,15.55,-4.89,16.56
24.967879056930542,-1.61,13.73,-0.87,13.85
24.968816995620728,-3.26,7.58,-0.52,8.26
24.971423864364624,-1.56,2.26,1.33,3.05
24.982059955596924,-2.11,0.36,0.94,2.33
24.992120027542114,-5.99,0.52,-5.65,8.25
25.001476049423218,-2.5,4.04,-3.63,5.97
25.065894842147827,2.77,4.3,1.95,5.47
25.066327810287476,6.55,1.9,3.9,7.85
25.06675100326538,8.02,0.08,5.14,9.52
25.067178964614868,6.5,-0.69,4.44,7.9
25.06810998916626,5.36,-0.95,3.05,6.23
25.069057941436768,4.28,-1.31,2.78,5.26
25.071311950683594,3.0,-1.77,2.88,4.51
25.08199906349182,2.02,-2.35,2.98,4.29
25.09204077720642,0.93,-2.98,3.2,4.47
25.10133695602417,0.1,-3.36,2.98,4.49
25.16596293449402,-0.28,-3.29,2.38,4.07
25.166399002075195,-0.13,-3.15,1.62,3.54
25.166829824447632,0.55,-3.01,1.12,3.25
25.16725182533264,1.17,-3.0,0.97,3.36
25.168197870254517,1.49,-3.15,0.67,3.54
25.169135808944702,1.19,-3.49,0.3,3.69
25.17116689682007,0.55,-3.96,0.22,4.0
25.181816816329956,0.23,-4.55,0.48,4.58
25.19183611869812,0.33,-5.08,0.76,5.14
25.201173067092896,0.52,-5.81,1.15,5.94
25.2663791179657,0.44,-6.55,1.66,6.77
25.266817808151245,0.2,-6.87,1.65,7.06
25.267241954803467,0.38,-6.7,1.48,6.87
25.267663955688477,-0.16,-6.36,0.68,6.39
25.26861310005188,-1.44,-5.9,-0.77,6.12
25.26987385749817,-3.04,-5.25,-2.37,6.51
25.270906925201416,-5.14,-4.89,-3.81,8.05
25.281575918197632,-6.94,-4.41,-5.34,9.8
25.291696786880493,-7.56,-3.61,-6.21,10.42
25.300924062728882,-7.65,-2.79,-7.04,10.76
25.366241931915283,-7.47,-2.09,-8.22,11.3
25.366682767868042,-7.74,-1.4,-9.28,12.16
25.367111921310425,-9.06,-0.66,-10.6,13.95
25.36754012107849,-10.55,0.13,-11.8,15.82
25.368502855300903,-10.81,-0.12,-11.46,15.75
25.3694589138031,-9.82,-1.19,-10.48,14.41
25.370752096176147,-8.39,-1.75,-9.67,12.92
25.381359815597534,-7.3,-1.53,-8.34,11.18
25.391541004180908,-6.47,-1.24,-7.28,9.81
25.400868892669678,-7.06,6.62,-5.84,11.3
25.466526985168457,-1.07,4.92,-1.69,5.31
25.466977834701538,12.43,8.47,14.34,20.78
25.467408895492554,25.56,16.12,30.98,43.27
25.467838048934937,7.36,17.87,-8.87,21.26
25.46881604194641,0.99,13.91,-14.18,19.88
25.470031023025513,-6.78,-0.59,-4.18,7.98
25.470793962478638,-17.45,-4.74,2.98,18.32
25.48123002052307,-15.66,-6.84,-3.73,17.49
25.491307973861694,-9.04,-2.07,-9.94,13.59
25.500626802444458,-5.61,-0.43,-10.07,11.53
25.56647276878357,-1.55,1.73,-7.63,7.97
25.56691598892212,1.11,1.93,-5.51,5.94
25.567344903945923,2.53,1.04,-4.94,5.64
25.567771911621094,2.87,0.8,-3.69,4.74
25.568751096725464,1.26,0.49,-1.98,2.39
25.56968092918396,-1.05,0.17,-0.92,1.4
25.57080388069153,-2.41,-0.05,-0.72,2.51
25.58123803138733,-2.6,-0.06,-0.31,2.61
25.59118890762329,-2.37,0.01,0.76,2.48
25.600603818893433,-1.99,-0.06,1.24,2.34
25.666940927505493,-1.17,-0.19,0.54,1.3
25.66738200187683,-0.2,-0.27,-0.24,0.41
25.66780686378479,0.43,-0.21,-0.69,0.83
25.668231964111328,0.77,-0.12,-0.76,1.08
25.669176816940308,0.85,-0.1,-0.62,1.05
25.67073392868042,0.72,-0.07,-0.53,0.89
25.671159982681274,0.7,-0.08,-0.52,0.87
25.68115496635437,0.66,0.0,-0.36,0.75
25.69106698036194,0.4,0.14,0.08,0.43
25.70043110847473,0.16,0.14,0.75,0.77
25.767014980316162,0.41,0.09,1.09,1.16
25.7674458026886,1.25,0.17,1.02,1.62
25.767878770828247,2.14,0.3,0.99,2.37
25.76830506324768,2.32,0.25,0.84,2.48
25.76922297477722,1.67,0.05,0.69,1.8
25.7708637714386,0.81,-0.06,0.7,1.07
25.77129101753235,0.5,-0.03,0.7,0.86
25.780929803848267,0.52,0.02,0.89,1.03
25.79095196723938,0.48,-0.01,0.95,1.06
25.800400018692017,0.38,-0.07,0.88,0.96
25.86701798439026,0.35,-0.05,0.45,0.57
25.867455005645752,0.3,0.08,0.07,0.31
25.867875814437866,0.42,0.25,0.12,0.5
25.868295907974243,0.89,0.26,0.17,0.94
25.869236946105957,1.36,0.05,0.61,1.49
25.87084698677063,1.97,-0.19,1.36,2.4
25.871293783187866,2.54,-0.4,2.13,3.33
25.88076090812683,2.71,-0.3,2.92,3.99
25.89081311225891,2.44,0.36,2.51,3.51
25.90021777153015,1.91,0.94,1.64,2.68
25.966527938842773,1.19,1.61,0.88,2.18
25.966962099075317,0.77,2.1,0.53,2.29
25.96738290786743,0.9,2.66,1.04,2.99
25.967801809310913,1.2,2.87,1.97,3.68
25.96872591972351,2.35,2.95,2.34,4.43
25.97001004219055,3.1,3.34,2.68,5.28
25.970775842666626,2.88,3.49,2.82,5.33
25.980600118637085,2.27,4.66,2.57,5.78
25.99065589904785,2.32,7.75,2.12,8.36
26.000065088272095,4.81,9.7,4.05,11.55
26.06592297554016,5.89,9.5,6.66,13.01
26.066357851028442,5.7,10.15,6.95,13.55
26.06678080558777,6.13,11.13,7.53,14.77
26.06720995903015,6.54,12.1,7.69,15.75
26.068140983581543,6.15,11.96,6.63,14.99
26.0690438747406,5.32,10.17,3.92,12.12
26.069857835769653,6.0,7.64,-0.96,9.76
26.080352067947388,5.56,8.26,-5.91,11.57
26.090450048446655,1.42,12.41,-6.78,14.21
26.09975504875183,-3.03,14.25,-3.24,14.92
26.165714979171753,-2.48,9.0,-0.29,9.33
26.166146993637085,1.33,3.69,1.78,4.3
26.166565895080566,-1.13,2.27,0.73,2.63
26.16698384284973,-4.29,3.02,-4.5,6.91
26.167922973632812,0.22,5.49,-1.22,5.62
26.168826818466187,5.23,4.32,2.83,7.35
26.169740915298462,7.46,2.21,4.03,8.76
26.180320978164673,6.21,0.87,4.5,7.71
26.190376043319702,4.05,-0.17,3.36,5.26
26.199695825576782,2.49,-1.03,1.96,3.33
26.26612877845764,1.29,-1.75,1.49,2.63
26.266568899154663,0.4,-2.24,1.72,2.85
26.26698899269104,-0.23,-2.62,2.26,3.46
26.267409086227417,-0.72,-3.14,2.51,4.08
26.26834797859192,-1.08,-3.62,2.26,4.4
26.269284963607788,-1.16,-3.78,2.01,4.43
26.270018815994263,-0.83,-3.77,2.03,4.36
26.280210971832275,-0.06,-3.87,2.04,4.37
26.290226936340332,0.8,-3.9,1.82,4.37
26.29971480369568,1.29,-3.98,1.62,4.48
26.366503953933716,1.25,-4.39,1.54,4.81
26.366974115371704,1.08,-5.03,1.56,5.37
26.367414951324463,1.08,-5.56,1.54,5.86
26.36785101890564,1.15,-6.03,1.56,6.33
26.36882495880127,0.95,-6.6,1.52,6.83
26.37009310722351,0.84,-7.0,1.68,7.24
26.37086796760559,0.54,-7.01,1.75,7.24
26.38007378578186,0.34,-6.93,1.61,7.12
26.3901309967041,-0.2,-6.65,0.87,6.7
26.3994619846344,-1.08,-5.92,-0.55,6.04
26.466530084609985,-2.26,-4.98,-1.95,5.8
26.46697688102722,-4.25,-3.97,-3.53,6.8
26.46739888191223,-5.85,-2.97,-4.93,8.2
26.467827081680298,-6.74,-1.87,-5.9,9.15
26.4691379070282,-7.06,-0.83,-7.16,10.08
26.47006106376648,-6.83,-0.15,-7.86,10.41
26.47084879875183,-7.01,0.2,-8.15,10.75
26.479909896850586,-8.25,0.46,-8.93,12.16
26.490063905715942,-9.86,0.17,-9.81,13.9
26.49932098388672,-10.85,-0.44,-10.36,15.0
26.567312955856323,-10.79,-1.28,-11.16,15.57
26.56775212287903,-9.71,-2.08,-10.7,14.59
26.568175077438354,-8.72,-2.98,-9.06,12.92
26.568639993667603,-9.2,-3.9,-8.11,12.86
26.569880962371826,-9.41,-4.25,-8.32,13.26
26.571133852005005,-9.4,-1.66,-8.7,12.91
26.571565866470337,-4.89,9.91,-2.74,11.38
26.5796799659729,19.84,9.01,21.18,30.38
26.589837789535522,35.37,12.53,35.31,51.52
26.5991051197052,10.6,15.53,-4.2,19.26
26.667768955230713,-1.91,14.97,-18.67,24.0
26.66820502281189,-4.93,3.82,-10.28,12.02
26.668987035751343,-9.37,-3.34,5.97,11.6
26.669413805007935,-14.45,-2.25,2.27,14.79
26.670326948165894,-12.37,-4.19,-8.96,15.83
26.67155385017395,-8.48,-1.09,-9.03,12.43
26.672003984451294,-6.03,0.03,-7.84,9.89
26.67956280708313,-3.57,1.33,-6.03,7.13
26.689637899398804,-0.89,0.88,-4.02,4.21
26.698922872543335,2.12,0.12,-3.22,3.85
26.76760196685791,3.12,0.71,-2.2,3.88
26.76803994178772,1.31,1.14,-1.11,2.06
26.76882004737854,-0.42,0.58,-1.09,1.3
26.769245862960815,-0.96,0.2,-0.99,1.39
26.770182847976685,-0.77,0.08,-0.36,0.85
26.771490812301636,-0.56,0.0,0.05,0.56
26.771922826766968,-0.8,-0.14,-0.04,0.81
26.779449939727783,-1.43,-0.33,-0.2,1.48
26.789430856704712,-1.57,-0.41,-0.22,1.63
26.798793077468872,-0.58,-0.19,-0.56,0.82
26.867657899856567,0.38,0.05,-0.84,0.92
26.868124961853027,0.64,-0.07,-0.85,1.06
26.868862867355347,0.54,-0.3,-0.43,0.75
26.869285821914673,0.51,-0.38,0.34,0.72
26.870203971862793,0.6,-0.31,0.95,1.16
26.871484994888306,0.66,-0.08,1.18,1.35
26.871917009353638,0.57,0.27,0.94,1.13
26.87936282157898,0.48,0.42,0.6,0.87
26.889137983322144,0.57,0.31,0.49,0.81
26.89866590499878,0.76,0.15,0.67,1.02
26.968157052993774,1.32,0.06,0.92,1.61
26.968885898590088,1.89,0.06,1.11,2.19
26.969286918640137,1.79,0.08,1.17,2.13
26.969705820083618,1.25,0.04,1.23,1.75
26.970648050308228,0.94,0.01,1.26,1.57
26.971932888031006,0.88,-0.08,1.33,1.59
26.972354888916016,0.86,-0.19,1.13,1.43
26.97905707359314,0.73,-0.26,0.75,1.07
26.989064931869507,0.52,-0.13,0.36,0.64
26.998541116714478,0.54,0.24,-0.1,0.59
27.06784701347351,0.55,0.46,-0.03,0.71
27.068629026412964,0.7,0.62,0.2,0.95
27.06904697418213,0.73,0.72,0.28,1.06
27.069464921951294,0.39,0.66,0.21,0.79
27.070422887802124,-0.2,0.64,0.26,0.71
27.07165288925171,-0.56,0.52,0.71,1.04
27.07208490371704,-0.59,0.93,0.88,1.4
27.07894778251648,0.01,1.45,0.98,1.75
27.089067935943604,0.62,2.04,1.22,2.45
27.09842610359192,1.42,2.31,1.54,3.11
27.16753602027893,2.03,2.37,1.81,3.6
27.16829800605774,2.4,2.41,2.14,4.01
27.168715000152588,2.6,2.72,2.51,4.52
27.169135808944702,2.69,3.11,3.14,5.17
27.170035123825073,2.77,3.78,3.89,6.09
27.171287775039673,2.84,5.53,4.48,7.66
27.171714067459106,3.69,8.97,4.52,10.7
27.17890477180481,6.15,11.51,6.3,14.49
27.189100980758667,7.29,11.57,8.12,15.9
27.198253870010376,6.99,11.04,8.51,15.59
27.267653942108154,6.56,10.36,8.9,15.15
27.268399953842163,6.06,9.21,7.79,13.49
27.268826961517334,5.28,7.85,3.27,10.0
27.2692449092865,5.1,7.81,-3.37,9.91
27.270171880722046,5.02,10.89,-7.82,14.31
27.271284818649292,0.07,15.33,-4.95,16.1
27.271713972091675,-4.8,13.35,0.68,14.2
27.27866005897522,-4.31,8.38,0.55,9.43
27.350727796554565,0.32,4.19,-0.03,4.2
27.35116696357727,0.85,2.05,0.29,2.23
27.351590871810913,-3.93,1.74,-3.89,5.79
27.35201907157898,-2.6,4.44,-5.46,7.5
27.352436780929565,2.22,5.9,0.05,6.3
27.352853059768677,6.08,3.33,3.23,7.64
27.3537700176239,8.45,0.9,4.31,9.52
27.358493089675903,7.87,-0.35,4.26,8.95
27.367995023727417,5.88,-1.46,3.41,6.95
27.378620862960815,4.26,-2.31,3.04,5.72
27.4555881023407,2.8,-2.68,2.96,4.87
27.456062078475952,1.7,-2.66,2.86,4.25
27.456494092941284,0.82,-2.75,3.0,4.15
27.456923961639404,0.35,-3.07,2.87,4.21
27.45739197731018,0.41,-3.45,2.48,4.26
27.458128929138184,0.94,-3.41,2.15,4.13
27.459162950515747,1.65,-3.12,1.79,3.95
27.46015691757202,1.49,-2.87,1.21,3.45
27.46782398223877,0.67,-2.79,0.68,2.94
27.478429079055786,-0.09,-3.09,0.32,3.1
27.556052923202515,-0.48,-3.36,-0.24,3.4
27.55649995803833,-0.69,-3.68,-0.4,3.76
27.55693793296814,-0.54,-4.18,-0.15,4.21
27.55771279335022,0.15,-4.8,0.59,4.83
27.558130979537964,0.77,-5.46,1.08,5.61
27.55855393409729,0.57,-5.65,1.45,5.86
27.559484004974365,0.01,-5.56,1.04,5.65
27.5604088306427,-1.13,-5.23,-0.12,5.35
27.567729949951172,-3.11,-4.38,-2.11,5.77
27.578325033187866,-4.67,-3.2,-5.16,7.65
27.65475296974182,-6.17,-1.89,-6.85,9.41
27.656827926635742,-7.3,-1.47,-6.09,9.61
27.657575845718384,-7.75,-1.63,-5.63,9.71
27.65799593925476,-8.08,-1.23,-6.73,10.58
27.658416032791138,-8.5,-0.37,-8.35,11.92
27.658833980560303,-8.54,-0.26,-9.36,12.67
27.65976881980896,-8.55,-1.2,-9.37,12.74
27.660669088363647,-9.14,-2.07,-9.07,13.04
27.667438983917236,-9.72,-2.18,-9.45,13.73
27.678117036819458,-9.19,-1.93,-9.7,13.5
27.687989950180054,-7.87,-2.25,-9.06,12.2
27.75606608390808,-7.25,-3.08,-8.55,11.62
27.756498098373413,-6.93,-3.73,-8.04,11.25
27.757251024246216,-7.13,-3.96,-7.34,10.97
27.757686853408813,-8.19,3.11,-7.15,11.3
27.758108854293823,-0.49,6.88,-1.11,6.98
27.759045839309692,18.03,6.17,16.02,24.89
27.75994896888733,27.51,12.51,27.76,41.03
27.76747488975525,8.25,15.49,-4.67,18.16
27.778035879135132,-1.54,13.16,-15.54,20.42
27.78802990913391,-5.05,2.03,-5.71,7.88
27.85653281211853,-12.12,-2.28,2.42,12.56
27.857320070266724,-12.57,-4.76,0.63,13.45
27.857747793197632,-11.0,-1.97,-3.72,11.77
27.858176946640015,-9.93,-2.22,-7.19,12.45
27.858598947525024,-6.64,-0.46,-7.42,9.96
27.859556913375854,-4.02,0.81,-5.19,6.61
27.860449075698853,-1.45,0.44,-3.11,3.45
27.86714196205139,1.64,0.46,-2.6,3.1
27.877859830856323,3.33,1.11,-2.22,4.15
27.88777494430542,2.06,1.23,-0.92,2.56
27.956069946289062,-0.4,0.69,-1.2,1.44
27.956527948379517,-1.4,0.08,-1.75,2.24
27.957332849502563,-1.58,0.04,-1.35,2.07
27.95778489112854,-1.63,0.0,-0.59,1.73
27.958209991455078,-1.06,-0.19,-0.41,1.15
27.95916485786438,-0.27,-0.13,-0.89,0.93
27.960083961486816,0.04,-0.08,-1.33,1.33
27.967076063156128,0.03,-0.05,-1.21,1.21
27.97772789001465,0.05,0.01,-0.85,0.85
27.98762583732605,-0.04,-0.01,-0.52,0.52
28.055804014205933,-0.23,-0.11,-0.33,0.41
28.05625891685486,-0.28,-0.15,-0.12,0.33
28.057027101516724,-0.17,-0.09,0.18,0.26
28.057464838027954,0.02,0.03,0.38,0.38
28.057896852493286,0.44,0.12,0.7,0.83
28.058844804763794,1.07,0.18,0.98,1.46
28.05973982810974,1.63,0.25,0.98,1.91
28.066884994506836,1.82,0.26,0.85,2.02
28.07754683494568,1.56,0.14,0.76,1.74
28.08748698234558,1.16,-0.08,0.68,1.34
28.155534982681274,0.96,-0.21,0.85,1.29
28.155954122543335,0.96,-0.22,1.05,1.43
28.15669083595276,1.03,-0.09,1.14,1.53
28.157130002975464,1.02,-0.03,1.21,1.58
28.15756392478943,0.95,-0.06,1.11,1.46
28.15852379798889,1.07,-0.1,0.8,1.33
28.15943193435669,1.27,-0.09,0.42,1.34
28.166745901107788,1.48,-0.05,0.47,1.55
28.177388906478882,1.58,0.04,0.61,1.69
28.187447786331177,1.45,0.07,0.72,1.62
28.255493879318237,0.99,-0.03,1.27,1.61
28.255928993225098,0.88,0.15,1.43,1.68
28.256687879562378,0.97,0.37,1.09,1.5
28.257123947143555,0.79,0.56,1.0,1.39
28.257542848587036,0.51,0.7,0.74,1.13
28.258464097976685,0.45,0.95,0.51,1.16
28.25936484336853,1.06,1.66,0.44,2.01
28.26672387123108,1.56,2.38,0.74,2.94
28.277284860610962,1.41,2.96,0.96,3.41
28.28724193572998,1.4,3.21,1.47,3.79
28.355392932891846,1.46,3.25,2.05,4.11
28.355830907821655,1.48,3.78,2.21,4.62
28.356594800949097,1.92,5.62,1.95,6.25
28.35703206062317,3.52,7.27,2.69,8.51
28.35744881629944,4.92,7.61,4.63,10.17
28.358378887176514,5.52,7.84,5.72,11.16
28.35925602912903,6.49,8.73,6.67,12.76
28.36653995513916,7.2,9.71,7.17,14.05
28.37704300880432,6.69,10.15,7.28,14.16
28.387001991271973,5.78,9.79,7.12,13.41
28.455465078353882,5.02,8.78,6.17,11.84
28.45622491836548,5.18,7.26,2.53,9.27
28.45666790008545,5.9,6.59,-2.4,9.16
28.457085847854614,3.73,8.76,-6.12,11.31
28.45750403404236,-1.48,12.07,-5.56,13.37
28.458515882492065,-4.6,11.72,-1.4,12.66
28.459450006484985,-3.0,6.87,1.3,7.6
28.466341972351074,1.33,3.08,1.83,3.82
28.476967096328735,-0.2,1.49,0.81,1.7
28.48689889907837,-3.71,2.15,-4.6,6.28
28.55617594718933,0.11,5.3,-2.97,6.07
28.556803941726685,4.97,4.48,1.53,6.86
28.55724310874939,8.1,1.7,3.08,8.83
28.55765986442566,8.55,-0.04,3.58,9.26
28.558092832565308,6.49,-1.01,2.84,7.15
28.559046983718872,4.95,-1.63,2.07,5.6
28.55996298789978,3.9,-2.17,2.08,4.92
28.566253900527954,2.88,-2.51,2.27,4.44
28.576833963394165,2.05,-2.65,2.08,3.94
28.586747884750366,1.31,-2.64,1.85,3.47
28.656407117843628,0.83,-2.58,1.64,3.16
28.657050848007202,0.79,-2.64,1.56,3.16
28.657476902008057,1.13,-2.79,1.45,3.34
28.657910108566284,1.55,-2.98,1.34,3.61
28.658329963684082,1.71,-3.13,1.02,3.7
28.659251928329468,1.53,-3.4,0.58,3.77
28.66015601158142,1.0,-3.85,0.44,4.0
28.666111946105957,0.54,-4.16,0.39,4.21
28.676690816879272,0.39,-4.4,0.54,4.45
28.68662691116333,0.45,-4.79,0.9,4.89
28.75691795349121,0.19,-5.18,1.22,5.32
28.757570028305054,-0.34,-5.24,1.37,5.42
28.75801110267639,-0.5,-5.17,1.4,5.37
28.758471965789795,-1.02,-4.82,1.09,5.04
28.758909940719604,-2.21,-4.04,-0.32,4.61
28.75985312461853,-4.37,-3.13,-3.01,6.16
28.76075792312622,-7.1,-2.04,-5.0,8.92
28.765963792800903,-8.68,-1.53,-4.92,10.09
28.776526927947998,-9.03,-1.41,-4.31,10.1
28.786487817764282,-8.75,-0.63,-5.33,10.26
28.8568217754364,-8.35,0.5,-6.84,10.8
28.85745406150818,-8.64,0.97,-8.14,11.91
28.85790991783142,-9.73,0.69,-8.83,13.15
28.85834789276123,-10.9,-0.03,-8.73,13.96
28.8587749004364,-11.43,-0.59,-9.07,14.6
28.859709978103638,-10.66,-1.32,-8.56,13.73
28.86062502861023,-9.21,-1.92,-7.29,11.9
28.86566400527954,-8.25,-2.36,-6.7,10.88
28.87634587287903,-7.95,-3.2,-6.37,10.67
28.88635802268982,-8.49,-2.85,-6.64,11.14
28.956756830215454,-9.79,4.32,-5.86,12.2
28.957401037216187,2.08,1.96,-1.4,3.18
28.957859992980957,19.81,6.0,12.89,24.38
28.958282947540283,26.25,14.21,22.43,37.33
28.958730936050415,7.26,17.22,-5.38,19.44
28.95968198776245,-2.71,13.27,-12.96,18.74
28.960621118545532,-7.99,0.58,-4.39,9.13
28.965611934661865,-14.22,-4.75,-1.83,15.1
28.97610878944397,-13.86,-3.94,1.5,14.48
28.986170053482056,-11.49,-2.48,-2.91,12.1
29.056341886520386,-8.5,-2.32,-6.29,10.82
29.05716109275818,-4.77,-0.33,-5.87,7.57
29.057603120803833,-2.1,0.75,-3.44,4.09
29.05803894996643,0.3,0.94,-2.63,2.8
29.058473825454712,2.9,1.27,-2.23,3.87
29.059432983398438,3.2,1.34,-1.01,3.61
29.060353994369507,1.24,0.67,-0.78,1.61
29.0654399394989,-0.44,0.11,-2.09,2.13
29.075978994369507,-0.87,0.03,-2.17,2.33
29.085973978042603,-0.81,0.13,-1.1,1.37
29.1562077999115,-1.01,0.1,-0.39,1.08
29.156996965408325,-0.89,-0.08,-0.42,0.98
29.15745711326599,-0.31,-0.05,-0.79,0.85
29.157888889312744,0.21,-0.08,-0.98,1.0
29.158342123031616,0.18,-0.16,-0.67,0.71
29.159300088882446,-0.19,-0.25,-0.09,0.32
29.160210847854614,-0.59,-0.28,0.2,0.68
29.165355920791626,-0.68,-0.17,0.22,0.73
29.176020860671997,-0.47,0.02,0.18,0.5
29.18595290184021,-0.27,0.13,0.22,0.37
29.256253957748413,-0.18,0.18,0.51,0.56
29.25704789161682,0.05,0.11,0.44,0.45
29.25748896598816,0.51,0.2,0.34,0.64
29.257911920547485,1.04,0.33,0.49,1.19
29.258375883102417,1.44,0.37,0.72,1.65
29.259308099746704,1.77,0.25,1.13,2.11
29.26024079322815,1.76,0.12,1.36,2.22
29.26520609855652,1.44,0.04,1.27,1.92
29.27585005760193,0.98,-0.09,1.25,1.59
29.285724878311157,0.73,-0.19,1.14,1.36
29.356451988220215,0.75,-0.25,0.74,1.08
29.357237100601196,1.02,-0.13,0.42,1.11
29.357659101486206,1.28,0.02,0.15,1.28
29.358076810836792,1.38,0.09,0.16,1.39
29.358486890792847,1.36,0.11,0.27,1.39
29.359381914138794,1.35,0.18,0.31,1.39
29.36026883125305,1.33,0.11,0.62,1.47
29.365859985351562,1.14,0.11,1.12,1.6
29.37562584877014,0.94,0.13,1.28,1.59
29.38568377494812,0.83,0.2,1.16,1.44
29.455338954925537,0.57,0.41,0.97,1.19
29.455951929092407,0.36,0.77,0.8,1.16
29.456714868545532,0.84,1.05,0.83,1.58
29.457136869430542,1.14,1.46,0.58,1.94
29.457585096359253,1.46,1.97,0.71,2.55
29.458526849746704,1.3,1.89,0.75,2.41
29.45944094657898,1.22,1.87,1.16,2.51
29.46492600440979,1.33,1.9,1.48,2.75
29.475559949874878,1.35,2.13,1.78,3.08
29.485416889190674,1.52,2.38,2.11,3.52
29.55544686317444,1.47,2.8,2.44,3.99
29.55606698989868,1.24,4.25,2.49,5.07
29.556859970092773,2.24,6.56,2.49,7.36
29.557259798049927,4.55,7.39,4.57,9.8
29.557696104049683,5.45,7.46,6.55,11.32
29.55867099761963,6.53,8.26,7.04,12.66
29.559606790542603,7.91,9.14,7.59,14.27
29.56477379798889,8.04,9.51,8.06,14.83
29.575299978256226,7.19,8.86,7.12,13.44
29.585296869277954,5.84,7.23,5.07,10.58
29.65569496154785,5.13,6.26,0.69,8.12
29.656140089035034,5.59,7.6,-3.94,10.22
29.656944036483765,5.01,10.89,-7.45,14.11
29.657397985458374,0.94,13.84,-4.53,14.59
29.657821893692017,-1.9,11.55,-0.06,11.7
29.658756971359253,-2.81,6.98,1.96,7.77
29.65966486930847,0.05,3.35,1.26,3.57
29.66460394859314,0.82,1.84,-0.13,2.01
29.67513394355774,-4.18,0.91,-4.39,6.12
29.68516182899475,-3.96,2.98,-6.66,8.3
29.755964994430542,1.4,4.85,-1.26,5.2
29.75671696662903,6.02,3.09,1.78,6.99
29.757144927978516,9.1,0.63,3.14,9.64
29.75756812095642,9.01,-1.51,3.53,9.79
29.75799012184143,6.77,-2.6,2.49,7.66
29.758915901184082,5.0,-2.91,1.72,6.03
29.759835958480835,3.33,-2.99,1.77,4.81
29.76437211036682,1.89,-3.01,1.99,4.07
29.77493190765381,0.61,-3.19,1.82,3.72
29.7850821018219,-0.43,-3.34,1.08,3.53
29.856640100479126,-0.71,-3.45,0.69,3.58
29.857430934906006,0.51,-3.56,1.42,3.86
29.8578839302063,2.61,-2.86,2.06,4.38
29.858304977416992,3.35,-1.88,1.97,4.31
29.85872483253479,1.77,-2.15,0.95,2.94
29.85969591140747,-0.46,-2.41,-1.71,2.99
29.860596895217896,-1.2,-2.6,-3.19,4.28
29.86426591873169,-0.97,-3.23,-1.01,3.52
29.87469506263733,0.49,-3.97,0.78,4.07
29.88486099243164,1.17,-4.18,0.78,4.41
29.956845998764038,1.03,-4.19,0.46,4.33
29.95763397216797,0.73,-4.17,0.13,4.23
29.958076000213623,0.17,-3.9,-0.2,3.9
29.958513021469116,-1.0,-3.55,-0.62,3.73
29.958945989608765,-2.86,-3.32,-1.68,4.69
29.959877967834473,-4.52,-3.13,-3.27,6.39
29.960821866989136,-5.8,-2.93,-4.76,8.05
29.964203119277954,-6.82,-2.56,-5.63,9.2
29.97456693649292,-7.36,-2.2,-5.9,9.68
29.984750032424927,-7.52,-2.06,-6.24,9.98
30.056791067123413,-7.51,-2.09,-6.47,10.13
30.057574033737183,-7.76,-1.99,-6.66,10.41
30.058008909225464,-8.22,-1.73,-6.98,10.92
30.058429956436157,-8.32,-1.84,-6.55,10.74
30.05885100364685,-7.91,-2.16,-6.04,10.18
30.059810876846313,-7.39,-2.23,-6.4,10.02
30.06071400642395,-7.27,-1.81,-6.8,10.11
30.063939809799194,-7.88,-1.53,-6.62,10.4
30.07458186149597,-8.57,-2.24,-6.38,10.91
30.084638833999634,-8.76,-2.98,-6.51,11.31
30.155991792678833,-9.46,2.41,-6.26,11.59
