time,ax,ay,az,atotal
0.008252859115600586,0.3,-0.15,-0.54,0.63
0.018080949783325195,0.49,0.58,-0.29,0.81
0.027601957321166992,0.22,0.01,-0.03,0.22
0.03838205337524414,-0.04,-0.04,-0.2,0.2
0.048339128494262695,-0.01,-0.01,-0.17,0.17
0.08365416526794434,-0.07,0.02,-0.11,0.13
0.08407998085021973,-0.11,0.0,-0.04,0.11
0.08448290824890137,-0.11,-0.04,0.03,0.12
0.08732390403747559,-0.12,-0.04,0.07,0.14
0.09737515449523926,-0.13,-0.05,0.06,0.15
0.10800385475158691,-0.12,-0.02,0.04,0.12
0.11784696578979492,-0.1,-0.01,0.02,0.1
0.12747597694396973,-0.05,0.0,0.0,0.05
0.13826799392700195,0.01,0.02,-0.01,0.02
0.14812111854553223,0.04,0.01,-0.02,0.04
0.18362212181091309,0.05,-0.02,-0.02,0.05
0.18403005599975586,0.07,-0.03,0.0,0.07
0.1844320297241211,0.09,-0.03,0.06,0.11
0.18728089332580566,0.12,-0.02,0.09,0.15
0.1971759796142578,0.14,0.01,0.09,0.16
0.20780205726623535,0.13,0.01,0.08,0.15
0.21796202659606934,0.1,0.0,0.04,0.1
0.2272951602935791,0.06,0.02,0.01,0.06
0.23813891410827637,0.02,0.0,0.03,0.03
0.24802613258361816,0.03,-0.02,0.02,0.04
0.2838139533996582,0.04,0.02,0.05,0.06
0.28421998023986816,0.04,-0.01,0.03,0.05
0.2846200466156006,0.01,-0.03,0.01,0.03
0.28707385063171387,0.02,-0.01,0.02,0.03
0.29706311225891113,0.02,0.0,0.03,0.03
0.30768394470214844,0.0,-0.01,0.02,0.02
0.31783604621887207,0.01,0.01,-0.01,0.01
0.32733798027038574,-0.03,-0.02,-0.02,0.04
0.3379209041595459,-0.02,-0.03,0.0,0.03
0.3479030132293701,-0.01,-0.02,-0.01,0.02
0.3840620517730713,-0.04,-0.01,-0.01,0.04
0.384490966796875,-0.05,0.0,-0.05,0.07
0.3848898410797119,-0.08,0.0,-0.05,0.09
0.3869168758392334,-0.08,-0.02,-0.03,0.08
0.3968079090118408,-0.08,-0.02,-0.02,0.08
0.40753912925720215,-0.07,-0.05,-0.01,0.08
0.4177539348602295,-0.05,-0.03,0.0,0.05
0.4270150661468506,-0.05,0.0,-0.01,0.05
0.43765997886657715,-0.1,0.01,-0.01,0.1
0.44779396057128906,-0.08,-0.02,-0.04,0.09
0.48400092124938965,-0.05,-0.04,-0.07,0.09
0.4844181537628174,-0.04,-0.03,-0.05,0.07
0.4848358631134033,-0.05,-0.01,-0.05,0.07
0.48680806159973145,-0.06,-0.01,-0.01,0.06
0.4967339038848877,-0.05,-0.01,-0.02,0.05
0.5073931217193604,-0.05,0.0,-0.03,0.05
0.517564058303833,-0.07,-0.03,-0.02,0.07
0.5269420146942139,-0.05,-0.04,0.01,0.06
0.5376009941101074,0.01,0.0,0.04,0.04
0.5475170612335205,0.05,0.0,0.04,0.06
0.5837118625640869,0.04,0.02,0.02,0.04
0.5841410160064697,0.01,-0.01,-0.01,0.01
0.5845811367034912,0.0,-0.03,-0.03,0.04
0.586637020111084,0.04,-0.03,-0.01,0.05
0.5966918468475342,0.06,-0.01,0.02,0.06
0.6072289943695068,0.06,0.01,0.02,0.06
0.61745285987854,0.07,0.01,0.02,0.07
0.6266460418701172,0.04,0.01,0.01,0.04
0.6375348567962646,-0.03,0.01,-0.02,0.03
0.6474268436431885,-0.09,-0.01,-0.09,0.12
0.6843688488006592,-0.14,-0.02,-0.09,0.16
0.6847610473632812,-0.16,-0.02,-0.06,0.17
0.6851630210876465,-0.14,-0.03,-0.03,0.14
0.6864159107208252,-0.12,-0.04,-0.02,0.12
0.6963579654693604,-0.09,-0.05,-0.03,0.1
0.7070701122283936,-0.04,0.0,-0.04,0.05
0.7169859409332275,-0.01,0.02,-0.05,0.05
0.7264411449432373,0.0,0.01,-0.04,0.04
0.737076997756958,0.02,0.01,-0.04,0.04
0.7472531795501709,0.05,0.0,-0.06,0.07
0.7841570377349854,0.04,0.0,-0.03,0.05
0.7845540046691895,0.02,0.02,-0.03,0.04
0.7849459648132324,0.02,0.02,-0.01,0.03
0.7864291667938232,0.01,0.0,0.02,0.02
0.796220064163208,0.01,-0.03,0.01,0.03
0.8070080280303955,0.04,-0.01,-0.02,0.04
0.8170411586761475,0.08,0.0,-0.05,0.09
0.8263881206512451,0.1,0.0,-0.04,0.1
0.8371021747589111,0.09,0.03,-0.01,0.09
0.8471758365631104,0.05,0.02,0.02,0.05
0.8843569755554199,0.06,-0.01,0.01,0.06
0.8847839832305908,0.09,0.01,-0.01,0.09
0.8852179050445557,0.13,0.01,-0.04,0.13
0.886214017868042,0.08,0.01,-0.03,0.08
0.8961198329925537,0.03,0.0,-0.03,0.04
0.9068238735198975,-0.01,0.0,-0.02,0.02
0.9168150424957275,-0.05,0.02,-0.02,0.05
0.9261858463287354,-0.05,0.02,-0.04,0.06
0.9370591640472412,-0.08,-0.01,-0.06,0.1
0.9470899105072021,-0.09,-0.05,-0.04,0.11
0.9841458797454834,-0.13,-0.06,0.0,0.14
0.9845800399780273,-0.15,-0.03,-0.01,0.15
0.9850199222564697,-0.13,0.02,-0.02,0.13
0.9860870838165283,-0.16,0.02,-0.03,0.16
0.9960601329803467,-0.12,0.0,-0.06,0.13
1.006653070449829,-0.07,-0.01,-0.06,0.09
1.0165431499481201,0.0,-0.01,-0.06,0.06
1.026134967803955,0.07,-0.01,-0.04,0.08
1.036823034286499,0.1,0.0,0.0,0.1
1.0468928813934326,0.09,0.0,0.02,0.09
1.0846619606018066,0.05,0.02,0.02,0.05
1.0850698947906494,0.06,0.0,0.03,0.06
1.0858170986175537,0.07,0.0,0.04,0.08
1.0862209796905518,0.25,-0.02,0.03,0.25
1.095947027206421,0.42,0.02,0.09,0.43
1.1066069602966309,0.5,0.06,0.1,0.51
1.1165721416473389,0.52,0.08,0.15,0.54
1.126037836074829,0.49,0.11,0.17,0.53
1.1367390155792236,0.46,0.13,0.16,0.5
1.1467578411102295,0.39,0.08,0.11,0.41
1.1852200031280518,0.33,-0.02,0.01,0.33
1.1859371662139893,0.22,-0.08,-0.07,0.24
1.1863579750061035,0.03,-0.14,-0.12,0.18
1.1867740154266357,-0.15,-0.16,-0.1,0.24
1.1958110332489014,-0.32,-0.07,-0.05,0.33
1.2064120769500732,-0.47,-0.03,-0.11,0.48
1.21639084815979,-0.51,-0.09,-0.15,0.53
1.2258009910583496,-0.5,-0.08,-0.17,0.53
1.236415147781372,-0.44,-0.08,-0.17,0.47
1.2465898990631104,-0.36,-0.07,-0.13,0.38
1.2856318950653076,-0.3,-0.04,-0.12,0.32
1.2862319946289062,-0.3,-0.01,-0.11,0.31
1.2866320610046387,-0.44,0.02,-0.14,0.46
1.2870490550994873,-0.53,-0.07,-0.2,0.57
1.2956469058990479,-0.41,-0.1,-0.17,0.45
1.3063099384307861,-0.15,-0.02,-0.11,0.18
1.3162429332733154,0.07,0.0,-0.07,0.09
1.3256590366363525,0.06,-0.01,-0.05,0.07
1.3363430500030518,0.03,-0.01,-0.1,0.1
1.3465049266815186,0.06,0.01,-0.05,0.07
1.3859851360321045,0.08,0.0,0.0,0.08
1.38639497756958,0.07,0.0,-0.01,0.07
1.386795997619629,0.01,0.01,-0.03,0.03
1.387218952178955,-0.12,-0.04,-0.01,0.12
1.3954830169677734,-0.19,-0.06,0.05,0.2
1.4060618877410889,-0.2,-0.05,0.09,0.22
1.416193962097168,-0.2,-0.07,0.17,0.27
1.425572156906128,-0.21,-0.1,0.19,0.3
1.436218023300171,-0.14,-0.07,0.16,0.22
1.4463579654693604,-0.14,-0.04,0.21,0.25
1.485903024673462,-0.09,-0.04,0.26,0.27
1.4863131046295166,0.06,0.01,0.24,0.24
1.4867279529571533,0.13,0.05,0.11,0.17
1.4871439933776855,0.15,0.07,0.0,0.16
1.4952619075775146,0.14,0.04,-0.1,0.17
1.5059010982513428,0.14,0.02,-0.12,0.18
1.515934944152832,0.08,0.01,-0.12,0.14
1.5254449844360352,0.06,-0.04,-0.11,0.13
1.5360050201416016,0.0,-0.02,-0.13,0.13
1.5461819171905518,-0.07,-0.04,-0.1,0.12
1.5854918956756592,-0.18,-0.1,-0.01,0.2
1.5859248638153076,-0.21,-0.09,0.07,0.23
1.5863449573516846,-0.13,-0.03,0.1,0.16
1.5867609977722168,-0.09,-0.01,0.11,0.14
1.5951049327850342,-0.1,-0.04,0.11,0.15
1.6058249473571777,-0.02,-0.01,0.15,0.15
1.6158690452575684,0.07,0.04,0.14,0.16
1.6252920627593994,0.17,0.02,0.09,0.19
1.635941982269287,0.24,0.03,0.07,0.25
1.6460258960723877,0.25,0.03,0.03,0.25
1.686094045639038,0.25,0.03,-0.03,0.25
1.6864840984344482,0.26,0.02,-0.04,0.26
1.6868960857391357,0.22,0.02,-0.03,0.22
1.687302827835083,0.19,0.04,-0.07,0.2
1.6950650215148926,0.15,0.02,-0.09,0.17
1.7057390213012695,0.08,0.0,0.0,0.08
1.715759038925171,0.03,0.0,0.04,0.05
1.7251579761505127,0.0,-0.01,0.07,0.07
1.7359020709991455,0.01,-0.03,0.1,0.1
1.7459750175476074,0.07,0.01,0.14,0.15
1.7870240211486816,0.12,0.02,0.14,0.18
1.7874350547790527,0.06,0.0,0.09,0.1
1.787855863571167,-0.01,0.01,-0.04,0.04
1.7882769107818604,-0.05,0.0,-0.13,0.13
1.794886827468872,-0.03,-0.01,-0.13,0.13
1.8055741786956787,0.05,0.01,-0.11,0.12
1.8155238628387451,0.08,-0.02,-0.07,0.1
1.825023889541626,-0.01,-0.05,-0.04,0.06
1.8359081745147705,-0.07,-0.04,-0.01,0.08
1.8457129001617432,-0.07,-0.01,0.01,0.07
1.8859140872955322,-0.03,0.0,0.03,0.04
1.8863308429718018,0.07,-0.01,0.03,0.07
1.886733055114746,0.11,0.01,0.06,0.12
1.8871419429779053,0.08,0.01,0.01,0.08
1.894791841506958,0.06,0.02,-0.08,0.1
1.9054338932037354,0.04,0.05,-0.14,0.15
1.9154670238494873,0.09,0.03,-0.19,0.21
1.9248549938201904,0.12,-0.01,-0.21,0.24
1.9358320236206055,0.11,-0.03,-0.13,0.17
1.945600986480713,0.09,-0.02,-0.09,0.12
1.9874789714813232,0.01,0.0,-0.07,0.07
1.9878928661346436,-0.02,0.0,-0.06,0.06
1.9882948398590088,-0.04,0.02,-0.07,0.08
1.9886949062347412,-0.03,0.02,-0.08,0.08
1.9945659637451172,-0.03,-0.02,-0.07,0.07
2.006693124771118,-0.06,-0.02,-0.07,0.09
2.0151641368865967,-0.09,-0.02,-0.1,0.13
2.024583101272583,-0.14,-0.04,-0.1,0.17
2.035568952560425,-0.12,-0.05,-0.07,0.14
2.04548716545105,-0.07,-0.04,-0.02,0.08
2.0870468616485596,-0.04,-0.01,-0.01,0.04
2.087476968765259,-0.02,0.01,-0.05,0.05
2.0879008769989014,-0.03,0.0,-0.12,0.12
2.0882809162139893,-0.04,0.0,-0.12,0.12
2.0944321155548096,0.02,0.0,-0.09,0.09
2.1051039695739746,0.03,-0.02,-0.09,0.09
2.115110158920288,0.07,0.0,-0.07,0.09
2.12450909614563,0.04,0.0,-0.08,0.08
2.135420083999634,-0.06,-0.01,-0.13,0.14
2.145266056060791,-0.12,-0.02,-0.13,0.17
2.187222957611084,-0.08,0.0,-0.07,0.1
2.1876349449157715,-0.04,0.0,-0.04,0.05
2.188040018081665,-0.07,-0.03,-0.05,0.09
2.1884679794311523,-0.13,0.03,-0.02,0.13
2.1942951679229736,-0.14,0.01,-0.08,0.16
2.2051079273223877,-0.07,-0.04,-0.15,0.17
2.214958906173706,-0.12,-0.07,-0.14,0.19
2.22442889213562,-0.16,-0.01,-0.11,0.19
2.235308885574341,-0.06,0.08,-0.08,0.12
2.2452199459075928,0.1,0.1,-0.11,0.17
2.2878129482269287,0.18,0.09,-0.2,0.28
2.288243055343628,0.2,0.04,-0.33,0.38
2.288663148880005,0.1,0.03,-0.26,0.28
2.289080858230591,0.01,0.07,-0.21,0.22
2.294236898422241,0.05,0.12,-0.14,0.19
2.3048689365386963,0.27,0.17,-0.17,0.36
2.314836025238037,0.47,0.14,-0.33,0.59
2.3242781162261963,0.48,0.08,-0.34,0.59
2.335073947906494,0.31,-0.05,-0.25,0.4
2.3449389934539795,-0.07,-0.22,-0.09,0.24
2.3870928287506104,-0.33,-0.19,0.04,0.38
2.387521982192993,-0.37,-0.09,0.1,0.39
2.3879411220550537,-0.34,-0.04,0.16,0.37
2.3883588314056396,-0.24,0.01,0.07,0.25
2.394110918045044,-0.13,0.03,-0.12,0.17
2.4046790599823,-0.1,0.03,-0.3,0.31
2.4147040843963623,-0.08,0.01,-0.39,0.39
2.4241459369659424,-0.08,-0.03,-0.37,0.37
2.4346678256988525,-0.13,-0.05,-0.39,0.41
2.4448130130767822,-0.21,-0.01,-0.29,0.35
2.4871859550476074,-0.14,-0.01,-0.18,0.22
2.487604856491089,0.0,0.02,-0.12,0.12
2.4880268573760986,-0.11,0.03,-0.11,0.15
2.488450050354004,-0.38,0.0,-0.16,0.41
2.493885040283203,-0.61,-0.04,-0.2,0.64
2.5044748783111572,-0.72,0.04,-0.2,0.74
2.5144450664520264,-0.85,-0.04,-0.15,0.86
2.523937940597534,-0.75,-0.15,-0.04,0.76
2.5346100330352783,-0.52,-0.07,0.14,0.54
2.544767141342163,-0.33,-0.04,0.19,0.38
2.5875189304351807,-0.18,-0.01,0.18,0.25
2.58794903755188,-0.02,0.04,0.05,0.06
2.5883681774139404,0.18,-0.01,0.01,0.18
2.58878493309021,0.27,-0.06,-0.08,0.28
2.5936989784240723,0.3,-0.11,-0.2,0.37
2.6042568683624268,0.32,-0.1,-0.19,0.38
2.6141860485076904,0.32,-0.1,-0.16,0.37
2.6238348484039307,0.33,-0.03,-0.05,0.33
2.63452410697937,0.33,0.04,0.03,0.33
2.644508123397827,0.35,0.04,0.07,0.35
2.6878879070281982,0.4,0.06,0.07,0.41
2.688292980194092,0.41,0.01,0.06,0.41
2.688704013824463,0.36,-0.08,0.07,0.37
2.689120054244995,0.29,-0.12,0.08,0.32
2.693619966506958,0.25,-0.1,0.14,0.3
2.7041590213775635,0.23,-0.05,0.28,0.36
2.7141830921173096,0.36,0.03,0.42,0.55
2.7237141132354736,0.5,0.09,0.43,0.66
2.7343218326568604,0.54,0.12,0.32,0.63
2.7444350719451904,0.49,0.04,0.31,0.58
2.787916898727417,0.35,0.01,0.27,0.44
2.7883388996124268,0.26,0.09,0.18,0.32
2.7887399196624756,0.24,0.09,0.11,0.27
2.7891249656677246,0.24,0.01,0.15,0.28
2.793484926223755,0.1,-0.06,0.23,0.25
2.804097890853882,0.05,-0.11,0.21,0.24
2.814039945602417,0.03,-0.04,0.21,0.21
2.8235738277435303,-0.04,0.05,0.22,0.22
2.834195852279663,-0.02,0.01,0.23,0.23
2.8443169593811035,0.13,-0.06,0.21,0.25
2.8886899948120117,0.27,0.01,0.14,0.3
2.889119863510132,0.29,-0.04,0.21,0.36
2.8895418643951416,0.08,-0.11,0.31,0.33
2.8899519443511963,-0.18,-0.02,0.28,0.33
2.8933260440826416,-0.3,-0.07,0.3,0.43
2.903905153274536,-0.3,-0.1,0.24,0.39
2.9138989448547363,-0.23,-0.11,0.19,0.31
2.923382043838501,-0.16,-0.1,0.1,0.21
2.9339568614959717,-0.07,-0.05,0.07,0.11
2.944193124771118,-0.03,-0.03,0.12,0.12
2.9885880947113037,0.04,-0.07,0.17,0.18
2.9890191555023193,0.08,-0.14,0.25,0.29
2.9894421100616455,0.09,-0.11,0.28,0.31
2.989861011505127,0.1,0.02,0.36,0.37
2.993134021759033,0.02,0.03,0.39,0.39
3.003533124923706,0.0,-0.09,0.4,0.41
3.0137178897857666,0.01,-0.14,0.51,0.52
3.023237943649292,-0.08,-0.24,0.66,0.7
3.0339338779449463,-0.33,-0.24,0.64,0.75
3.0439560413360596,-0.54,0.0,0.67,0.86
3.08866810798645,-0.52,0.02,0.97,1.1
3.089094877243042,-0.4,0.01,1.13,1.19
3.089522123336792,-0.19,-0.04,1.0,1.01
3.0899360179901123,0.08,-0.18,0.9,0.92
3.093050003051758,0.4,-0.34,1.02,1.14
3.1034059524536133,0.64,-0.33,0.88,1.13
3.1136109828948975,0.81,-0.25,0.38,0.92
3.1245248317718506,1.03,-0.41,0.01,1.1
3.13371205329895,1.24,-0.62,-0.08,1.38
3.1437828540802,0.75,-0.6,-0.48,1.07
3.189221143722534,0.61,-0.28,-1.59,1.72
3.1896488666534424,0.63,-0.19,-0.79,1.02
3.1900720596313477,0.53,-0.24,0.1,0.59
3.190490961074829,0.63,-0.44,0.61,0.98
3.1928889751434326,0.39,-0.35,0.57,0.77
3.2032899856567383,0.02,-0.18,0.44,0.47
3.213623046875,-0.51,0.1,0.51,0.72
3.2229650020599365,-0.74,0.32,0.57,0.98
3.233664035797119,-0.94,-0.01,0.13,0.94
3.243725061416626,-1.26,-0.59,-0.78,1.59
3.289893865585327,-1.19,-0.09,-0.41,1.26
3.290325880050659,-1.33,0.44,-0.16,1.41
3.2907488346099854,-1.42,0.46,-0.68,1.64
3.291166067123413,-1.13,0.27,-0.79,1.4
3.29274582862854,-0.81,0.26,-1.11,1.39
3.303377866744995,-0.6,0.32,-1.19,1.37
3.3133318424224854,-0.54,0.25,-0.87,1.05
3.3228039741516113,-0.49,0.13,-0.56,0.75
3.333489179611206,-0.46,0.03,-0.33,0.56
3.3435089588165283,-0.24,0.07,-0.32,0.4
3.3893849849700928,-0.01,0.02,-0.19,0.19
3.3898160457611084,0.18,0.07,0.09,0.21
3.39023494720459,0.27,0.16,0.06,0.31
3.3906490802764893,0.4,0.31,0.12,0.52
3.3926589488983154,0.15,0.41,0.04,0.43
3.4033820629119873,-0.67,0.36,-0.01,0.76
3.41330885887146,-0.81,0.23,-0.02,0.84
3.4226129055023193,-0.44,0.27,0.05,0.51
3.433306932449341,-0.36,0.27,0.02,0.45
3.443321943283081,-0.45,0.2,-0.05,0.49
3.4894940853118896,-0.1,0.2,0.04,0.22
3.4899260997772217,0.5,0.14,-0.04,0.52
3.4903600215911865,0.79,0.12,-0.12,0.8
3.4907729625701904,0.82,0.12,0.23,0.86
3.492455005645752,0.68,0.15,0.26,0.74
3.503443956375122,0.55,0.18,-0.01,0.57
3.5131309032440186,0.58,0.16,0.12,0.61
3.5225331783294678,0.71,0.1,0.21,0.74
3.533160924911499,0.74,0.09,0.01,0.74
3.5431978702545166,0.6,0.06,-0.17,0.62
3.5896379947662354,0.17,0.06,-0.38,0.42
3.5900418758392334,0.0,0.06,-0.31,0.31
3.5904409885406494,0.18,0.04,-0.25,0.31
3.590852975845337,0.46,0.13,-0.2,0.51
3.592292070388794,0.62,0.13,-0.03,0.63
3.6030280590057373,0.34,0.07,-0.07,0.35
3.612823963165283,-0.05,0.07,-0.09,0.12
3.6224119663238525,-0.09,-0.02,0.01,0.09
3.632979154586792,-0.01,-0.03,-0.02,0.03
3.6430819034576416,0.09,0.0,0.1,0.13
3.652348041534424,0.0,-0.01,0.37,0.37
3.689774990081787,-0.15,-0.05,0.6,0.62
3.690196990966797,-0.19,-0.06,0.62,0.65
3.6906158924102783,0.17,-0.08,0.64,0.66
3.6920888423919678,0.46,0.09,0.46,0.65
3.702932119369507,0.64,0.19,0.19,0.69
3.712693929672241,0.73,0.18,0.09,0.75
3.722172975540161,0.75,0.34,0.12,0.83
3.7328641414642334,1.02,0.36,0.24,1.1
3.7429521083831787,1.28,0.42,0.27,1.37
3.7522029876708984,1.25,0.65,0.4,1.46
3.7901999950408936,1.06,0.86,0.51,1.45
3.7906291484832764,0.97,0.94,0.68,1.51
3.7910468578338623,0.98,1.04,0.93,1.7
3.7918920516967773,1.33,1.28,1.17,2.18
3.8029258251190186,1.41,1.39,1.39,2.41
3.8126308917999268,1.39,1.42,1.71,2.62
3.82207989692688,1.37,1.49,2.14,2.94
3.832775831222534,1.39,1.78,2.4,3.29
3.8427670001983643,1.52,2.21,2.73,3.82
3.8520290851593018,1.55,3.18,3.07,4.68
3.889955997467041,1.9,5.93,2.69,6.78
3.8903849124908447,4.49,8.28,3.18,9.94
3.8907999992370605,5.51,7.69,5.41,10.89
3.8919408321380615,4.11,7.34,6.08,10.37
3.9024078845977783,4.01,7.48,6.9,10.93
3.9124691486358643,3.43,7.56,7.2,10.98
3.9220950603485107,2.79,7.64,6.26,10.26
3.932603120803833,3.43,7.64,5.36,9.94
3.9426958560943604,5.11,7.43,3.87,9.81
3.9519100189208984,5.9,6.83,1.15,9.09
3.9903550148010254,5.09,6.17,-0.85,8.04
3.9907829761505127,1.8,6.99,-1.86,7.45
3.9912540912628174,-4.72,7.93,-1.5,9.34
3.991992950439453,-5.0,7.4,-1.01,8.98
4.002308130264282,-0.44,5.88,0.06,5.89
4.012333154678345,1.58,3.4,1.79,4.15
4.021815061569214,1.76,1.73,2.66,3.62
4.03253698348999,-1.76,1.66,-0.03,2.41
4.042508840560913,-1.43,4.14,-3.72,5.74
4.051785945892334,2.93,5.49,0.16,6.22
4.091526985168457,6.16,3.72,3.11,7.83
4.0922369956970215,7.49,1.71,3.81,8.57
4.092668056488037,6.78,0.65,2.95,7.42
4.093093156814575,5.74,-0.03,1.78,6.0
4.102131128311157,4.88,-0.34,1.41,5.09
4.1121299266815186,4.16,-0.38,1.32,4.38
4.121657133102417,3.26,-0.15,1.14,3.45
4.132194995880127,2.39,0.18,0.73,2.5
4.142362833023071,1.86,0.4,0.47,1.95
4.151515960693359,1.63,0.64,0.16,1.75
4.190437078475952,1.79,0.69,-0.19,1.92
4.190929174423218,2.23,0.37,-0.33,2.28
4.19167685508728,2.47,-0.12,-0.56,2.53
4.192092180252075,2.26,-0.65,-0.74,2.46
4.201995134353638,1.7,-1.24,-0.99,2.32
4.2120678424835205,1.02,-1.83,-1.1,2.36
4.22147798538208,0.51,-2.5,-1.13,2.79
4.2322118282318115,0.45,-3.06,-0.88,3.21
4.242181062698364,0.62,-3.38,-0.4,3.45
4.2514121532440186,0.78,-3.29,0.05,3.38
4.291724920272827,0.72,-3.5,0.14,3.57
4.292157888412476,0.07,-3.86,-0.2,3.86
4.292579889297485,-0.32,-3.87,-1.08,4.03
4.2930028438568115,-0.43,-3.7,-1.61,4.05
4.301813840866089,-0.81,-3.73,-1.21,4.0
4.311940908432007,-0.94,-3.85,-1.14,4.12
4.321311950683594,-0.9,-3.58,-1.72,4.07
4.331944942474365,-1.22,-3.24,-2.38,4.2
4.342059850692749,-2.22,-3.1,-3.21,4.98
4.3514039516448975,-3.32,-3.04,-4.01,6.02
4.392216920852661,-3.89,-3.21,-4.52,6.77
4.392646074295044,-4.43,-3.49,-5.13,7.62
4.393074989318848,-5.02,-3.66,-5.62,8.37
4.393493890762329,-5.49,-3.79,-5.87,8.88
4.401676893234253,-5.96,-3.89,-6.16,9.41
4.41176700592041,-6.57,-3.87,-6.25,9.85
4.421178102493286,-6.99,-3.68,-6.17,10.02
4.431811094284058,-6.99,-3.25,-6.2,9.89
4.441864967346191,-7.11,-2.7,-6.63,10.08
4.4511401653289795,-7.29,-2.35,-6.9,10.3
4.4921228885650635,-7.21,-2.18,-6.97,10.26
4.492555856704712,-7.18,-2.15,-6.65,10.01
4.49298095703125,-7.86,-2.18,-6.27,10.28
4.49340295791626,-8.59,-2.63,-6.01,10.8
4.501535177230835,-8.61,-3.26,-5.36,10.65
4.511590003967285,-8.88,2.15,-5.38,10.6
4.520962953567505,2.96,1.38,-2.23,3.95
4.531687021255493,17.66,9.15,11.01,22.73
4.541934013366699,28.77,22.22,25.28,44.27
4.5510780811309814,6.42,27.42,-9.48,29.71
4.586589097976685,0.48,9.26,-12.04,15.19
4.587015867233276,-9.19,-6.12,-0.95,11.08
4.587450981140137,-17.47,-10.14,2.46,20.34
4.590888977050781,-13.65,-5.69,-0.94,14.81
4.60139799118042,-11.1,-2.56,-6.8,13.26
4.611389875411987,-6.95,-0.29,-5.12,8.63
4.6207380294799805,-3.49,1.59,-2.02,4.33
4.631542921066284,-0.85,1.43,-1.33,2.12
4.641824960708618,1.74,0.89,-2.24,2.97
4.6508870124816895,3.52,0.73,-1.96,4.09
4.687577962875366,2.45,0.63,-0.95,2.7
4.68802285194397,-0.32,0.39,-1.08,1.19
4.688474893569946,-1.52,0.08,-1.46,2.1
4.690678834915161,-1.36,0.0,-0.7,1.52
4.701256990432739,-1.08,-0.1,0.25,1.11
4.71126389503479,-0.65,-0.11,0.47,0.8
4.720715045928955,0.05,-0.03,-0.06,0.08
4.731441020965576,0.7,-0.02,-0.82,1.07
4.741566896438599,0.79,-0.07,-1.01,1.28
4.750797986984253,0.51,-0.1,-0.42,0.66
4.787703037261963,0.17,-0.04,0.1,0.2
4.788131952285767,-0.04,0.06,0.3,0.3
4.788543939590454,-0.13,0.1,0.26,0.3
4.790509939193726,-0.25,0.09,0.09,0.28
4.801469087600708,-0.35,0.02,-0.08,0.35
4.8110878467559814,-0.37,0.01,0.08,0.37
4.820691823959351,-0.23,0.14,0.34,0.43
4.831359148025513,0.29,0.26,0.47,0.61
4.841438055038452,0.91,0.3,0.51,1.08
4.8506269454956055,1.36,0.3,0.42,1.45
4.888216018676758,1.38,0.2,0.26,1.41
4.888648986816406,1.03,0.05,0.36,1.09
4.889080047607422,0.57,-0.04,0.75,0.94
4.890333890914917,0.29,0.02,0.96,1.0
4.900897979736328,0.2,0.13,0.96,0.98
4.911041021347046,0.31,0.09,0.98,1.03
4.920655012130737,0.58,0.03,0.99,1.14
4.9312169551849365,0.88,-0.03,1.01,1.33
4.941123008728027,1.01,-0.12,0.71,1.24
4.950432062149048,0.85,-0.29,0.52,1.03
4.987902879714966,0.53,-0.21,0.39,0.69
4.988331079483032,0.74,0.09,0.19,0.76
4.988749027252197,1.21,0.1,0.43,1.28
4.990153074264526,1.58,0.0,0.9,1.81
5.000784158706665,1.56,-0.02,1.17,1.95
5.0108489990234375,1.21,0.0,1.32,1.79
5.020624876022339,0.79,0.24,1.28,1.52
5.031058073043823,0.55,0.53,1.62,1.79
5.0410850048065186,0.62,0.7,1.82,2.04
5.05036187171936,0.8,0.93,1.73,2.12
5.087939977645874,1.11,1.3,1.4,2.2
5.088361024856567,1.19,1.88,1.27,2.56
5.088775873184204,1.38,2.28,1.59,3.1
5.090017080307007,1.98,2.64,1.58,3.65
5.100749969482422,2.54,3.04,1.9,4.39
5.110682010650635,2.44,3.2,2.26,4.61
5.120491027832031,2.5,3.89,2.6,5.3
5.130826950073242,2.81,5.81,2.71,6.99
5.14093804359436,4.38,8.06,3.62,9.86
5.150226831436157,5.38,8.9,5.94,11.97
5.188397169113159,4.83,9.4,7.58,13.0
5.188827991485596,5.07,10.18,8.77,14.36
5.18927001953125,5.83,11.04,9.2,15.5
5.1900389194488525,6.64,11.35,7.99,15.38
5.200510025024414,7.82,10.35,5.8,14.2
5.210625886917114,7.64,8.88,2.64,12.0
5.220073938369751,6.4,8.17,-1.45,10.47
5.2307751178741455,3.8,9.58,-4.28,11.15
5.240828990936279,-1.26,11.32,-3.44,11.89
5.250088930130005,-4.9,10.69,-1.94,11.91
5.287986993789673,-5.12,8.68,0.02,10.07
5.288420915603638,-0.98,4.15,1.64,4.56
5.288841009140015,1.82,1.08,1.9,2.84
5.289779901504517,-2.63,0.36,-2.7,3.78
5.300313949584961,-1.35,3.74,-4.07,5.68
5.3103790283203125,2.99,4.78,1.16,5.75
5.319885969161987,6.18,2.56,3.41,7.5
5.330629110336304,7.37,0.33,4.4,8.58
5.340693950653076,6.36,-1.16,4.26,7.74
5.349948167800903,4.83,-2.12,3.59,6.38
5.388879060745239,3.34,-2.67,2.79,5.1
5.389686822891235,2.18,-2.7,2.43,4.23
5.390126943588257,1.23,-2.45,2.53,3.73
5.390559911727905,0.58,-2.31,2.48,3.43
5.400168180465698,0.21,-2.31,2.03,3.08
5.41031813621521,0.27,-2.2,1.75,2.82
5.4197540283203125,0.79,-2.23,1.7,2.91
5.43049693107605,1.34,-2.24,1.56,3.04
5.440497159957886,1.67,-2.35,1.36,3.18
5.44977593421936,1.8,-2.56,1.15,3.33
5.4886720180511475,1.73,-2.85,1.03,3.48
5.489457845687866,1.51,-3.41,0.82,3.81
5.489886045455933,1.23,-3.88,0.65,4.12
5.490303993225098,0.94,-4.15,0.64,4.3
5.500082969665527,0.37,-4.19,0.6,4.24
5.510151147842407,-0.1,-4.51,0.4,4.52
5.519597053527832,-0.71,-4.71,-0.13,4.76
5.530311822891235,-1.23,-4.49,-1.23,4.81
5.540336847305298,-1.58,-4.26,-2.18,5.03
5.54961085319519,-2.48,-3.96,-2.55,5.32
5.588531970977783,-3.53,-3.54,-2.87,5.76
5.5893189907073975,-4.03,-3.02,-3.48,6.12
5.5897438526153564,-4.05,-2.23,-4.53,6.47
5.59016489982605,-4.08,-1.4,-5.64,7.1
5.599910020828247,-4.48,-0.77,-6.58,7.99
5.610029935836792,-5.42,-0.35,-7.58,9.32
5.619478940963745,-6.83,-0.03,-8.48,10.88
5.63003396987915,-8.18,-0.3,-8.65,11.9
5.640212059020996,-8.81,-1.17,-8.59,12.36
5.649577856063843,-8.68,-1.68,-8.98,12.6
5.688413858413696,-8.07,-1.88,-9.35,12.49
5.689241170883179,-7.51,-2.35,-8.73,11.75
5.689681053161621,-7.09,-2.99,-7.89,11.02
5.690110921859741,-7.0,-3.94,-7.53,11.01
5.69980001449585,-7.92,-2.64,-7.58,11.27
5.709902048110962,-7.64,4.33,-5.63,10.43
5.7193520069122314,-0.61,-3.9,-5.56,6.81
5.729994058609009,9.88,7.7,13.49,18.4
5.74017596244812,21.55,16.07,24.29,36.23
5.749454975128174,6.55,19.77,-8.69,22.56
5.789577007293701,1.55,15.31,-10.55,18.65
5.790034055709839,-5.59,2.23,-7.53,9.63
5.790452003479004,-11.2,-5.28,-4.53,13.18
5.790868043899536,-11.4,-3.74,1.98,12.16
5.7997050285339355,-10.59,-3.82,-5.3,12.44
5.809731960296631,-7.98,-2.19,-8.99,12.21
5.819123983383179,-5.38,-0.06,-6.58,8.49
5.829787969589233,-2.55,0.61,-4.12,4.88
5.8399498462677,0.07,0.91,-2.56,2.71
5.8492209911346436,2.07,1.17,-1.34,2.72
5.888941049575806,2.2,1.1,-0.18,2.46
5.8895580768585205,0.04,0.6,0.34,0.69
5.88997483253479,-1.96,-0.08,-0.93,2.17
5.890391111373901,-2.42,-0.37,-1.55,2.89
5.899376153945923,-1.89,-0.06,-0.77,2.04
5.909465074539185,-1.11,-0.03,-0.27,1.14
5.918836832046509,0.11,-0.06,-0.5,0.51
5.9296300411224365,1.26,0.08,-1.03,1.62
5.9398438930511475,1.55,0.08,-1.46,2.13
5.9490180015563965,0.95,-0.02,-1.69,1.93
5.989362001419067,0.26,-0.08,-1.25,1.27
5.989789009094238,-0.08,-0.19,-0.49,0.53
5.990211009979248,0.03,-0.26,-0.01,0.26
5.990633010864258,0.29,-0.21,0.43,0.55
5.999250173568726,0.55,-0.14,0.62,0.84
6.009413003921509,0.98,-0.08,0.73,1.22
6.0188469886779785,1.43,-0.01,0.76,1.61
6.029494047164917,1.6,0.07,0.65,1.72
6.039604902267456,1.62,0.19,0.7,1.77
6.048866033554077,1.52,0.27,0.86,1.76
6.089863061904907,1.19,0.14,0.97,1.54
6.0902910232543945,0.91,-0.04,1.09,1.42
6.090713024139404,0.7,-0.14,1.19,1.38
6.091130971908569,0.56,-0.1,1.13,1.26
6.099168062210083,0.47,0.03,1.14,1.23
6.109248876571655,0.45,0.06,1.12,1.2
6.11868691444397,0.41,0.04,1.0,1.08
6.129371881484985,0.38,-0.01,0.72,0.81
6.139364004135132,0.32,-0.08,0.25,0.41
6.148749113082886,0.12,-0.15,0.15,0.24
6.189957857131958,-0.14,-0.15,0.22,0.3
6.19036602973938,-0.05,-0.09,0.24,0.26
6.19078516960144,0.08,-0.13,0.14,0.2
6.191184997558594,0.08,-0.18,-0.12,0.23
6.199080944061279,-0.01,-0.14,0.06,0.15
6.209144830703735,0.33,0.03,0.59,0.67
6.218529939651489,1.11,0.2,0.89,1.43
6.229382038116455,1.52,0.34,1.28,2.01
6.239206075668335,1.57,0.4,1.6,2.27
6.248603105545044,1.64,0.48,1.83,2.5
6.289385080337524,1.91,0.69,1.66,2.62
6.289838075637817,1.99,1.11,1.4,2.67
6.290284872055054,2.0,1.5,1.01,2.69
6.29070782661438,1.94,2.13,0.82,2.99
6.298884153366089,2.19,2.82,1.17,3.75
6.308979034423828,1.92,3.16,1.85,4.13
6.318422079086304,1.65,4.15,2.41,5.07
6.329108953475952,2.4,6.42,2.24,7.21
6.339200973510742,4.36,7.27,3.31,9.1
6.348530054092407,4.71,6.39,4.63,9.18
6.3890931606292725,4.19,6.61,4.3,8.92
6.389523983001709,4.36,7.14,4.54,9.51
6.389939069747925,3.19,7.47,5.09,9.58
6.390354871749878,2.25,8.23,5.95,10.4
6.398736953735352,3.44,9.77,6.71,12.34
6.40881609916687,5.29,10.4,5.64,12.95
6.418225049972534,6.09,9.93,4.19,12.37
6.428951025009155,6.15,8.83,3.19,11.22
6.4390318393707275,6.06,7.38,-0.07,9.54
6.448340177536011,4.84,7.89,-3.75,9.98
6.489444971084595,0.94,10.58,-3.97,11.33
6.48987889289856,-2.6,11.62,-1.08,11.95
6.490303039550781,-2.61,8.19,0.97,8.65
6.490728139877319,0.78,4.1,1.71,4.51
6.498596906661987,1.41,2.05,3.1,3.97
6.508662939071655,-3.79,1.1,-1.59,4.25
6.5181190967559814,-3.67,3.86,-4.92,7.25
6.528815031051636,1.66,4.84,0.46,5.13
6.539062976837158,5.6,2.35,3.14,6.83
6.548159837722778,7.4,0.07,4.04,8.43
6.589823961257935,6.26,-1.14,3.53,7.27
6.590260982513428,4.71,-1.6,2.45,5.54
6.590680837631226,3.38,-1.93,2.19,4.46
6.59109902381897,2.16,-2.17,2.38,3.87
6.598449945449829,1.21,-2.12,2.38,3.4
6.608520984649658,0.54,-2.01,2.15,2.99
6.6179039478302,0.08,-2.13,1.84,2.81
6.628631830215454,0.12,-2.3,1.57,2.78
6.672126054763794,0.76,-2.39,1.59,2.96
6.672551870346069,1.53,-2.52,1.7,3.4
6.67297101020813,2.08,-2.65,1.66,3.75
6.673392057418823,2.17,-2.81,1.57,3.88
6.677832841873169,1.89,-3.17,1.43,3.95
6.688117027282715,1.73,-3.62,1.38,4.24
6.698457956314087,1.59,-4.07,1.42,4.59
6.708475828170776,1.3,-4.54,1.22,4.87
6.717864036560059,1.12,-5.06,1.19,5.31
6.728616952896118,0.84,-5.29,1.41,5.53
6.774895906448364,0.73,-5.18,1.43,5.42
6.7753260135650635,0.58,-4.96,1.02,5.09
6.77574610710144,-0.05,-4.46,0.16,4.46
6.776172876358032,-1.17,-3.84,-1.44,4.26
6.777690172195435,-2.66,-3.11,-2.82,4.96
6.787583112716675,-4.32,-2.48,-3.67,6.18
6.798271894454956,-5.43,-1.99,-4.53,7.34
6.808305025100708,-5.93,-1.54,-5.33,8.12
6.817697048187256,-6.24,-0.96,-6.24,8.87
6.828371047973633,-6.8,-0.24,-7.33,10.0
6.873422861099243,-7.64,0.25,-8.05,11.1
6.873867034912109,-8.78,0.03,-8.48,12.2
6.874299049377441,-9.5,-0.93,-8.78,12.96
6.874727010726929,-9.24,-1.78,-8.38,12.6
6.877554178237915,-8.11,-2.13,-7.56,11.28
6.887560129165649,-7.29,-2.14,-7.47,10.65
6.898176908493042,-7.71,-1.7,-8.53,11.62
6.9081151485443115,-7.79,3.16,-8.16,11.71
6.917557954788208,-3.74,-1.44,-6.35,7.5
6.928377866744995,-5.48,-0.48,-7.48,9.28
6.973210096359253,5.99,14.63,12.26,20.0
6.973673105239868,16.44,17.23,17.48,29.54
6.974128007888794,5.7,17.16,-12.89,22.2
6.974558115005493,0.06,6.28,-6.29,8.88
6.977421998977661,-9.12,-3.42,2.33,10.01
6.987349033355713,-12.11,-7.38,-0.75,14.2
6.997990846633911,-7.31,-5.67,-5.08,10.55
7.008117914199829,-7.24,-1.95,-7.49,10.59
7.017403841018677,-6.77,0.41,-6.09,9.11
7.028287172317505,-4.32,1.42,-3.56,5.77
7.0721728801727295,-1.86,0.53,-2.35,3.04
7.073745012283325,-0.07,0.1,-1.74,1.74
7.07418417930603,0.63,0.35,-0.89,1.14
7.074610948562622,0.01,0.45,-0.47,0.65
7.077252149581909,-1.05,0.55,-0.74,1.39
7.087232828140259,-1.66,0.35,-1.48,2.25
7.097822904586792,-1.6,-0.05,-1.91,2.49
7.107992887496948,-1.24,-0.14,-1.45,1.91
7.117310047149658,-0.73,-0.21,-0.4,0.85
7.12804913520813,-0.15,-0.28,-0.12,0.33
7.172224998474121,0.12,-0.24,-0.81,0.85
7.173863172531128,0.04,-0.04,-1.37,1.37
7.174298048019409,-0.11,0.14,-1.29,1.3
7.174726963043213,-0.34,0.21,-0.83,0.92
7.17707896232605,-0.52,0.24,-0.39,0.69
7.187074899673462,-0.55,0.21,-0.18,0.61
7.197728872299194,-0.34,0.12,-0.19,0.4
7.207794904708862,0.07,0.05,-0.07,0.11
7.219146966934204,0.48,-0.02,0.21,0.52
7.227893114089966,0.66,-0.01,0.44,0.79
7.237971067428589,0.88,0.01,0.49,1.0
7.273382902145386,0.96,0.07,0.34,1.02
7.273831129074097,0.87,0.23,0.21,0.92
7.274250030517578,0.7,0.23,0.14,0.74
7.276937007904053,0.42,0.2,0.11,0.47
7.2869720458984375,0.09,0.13,0.16,0.22
7.297527074813843,-0.31,0.03,0.17,0.35
7.30768609046936,-0.6,-0.06,0.34,0.69
7.317072153091431,-0.57,-0.11,0.62,0.84
7.327812910079956,-0.32,0.0,0.94,0.99
7.337753057479858,0.27,0.12,1.12,1.15
7.372807025909424,1.05,0.25,1.15,1.57
7.373260021209717,1.65,0.26,0.81,1.85
7.373692989349365,1.85,0.24,0.8,2.02
7.376844167709351,1.76,0.13,1.19,2.12
7.386831998825073,1.95,0.1,1.74,2.61
7.397449016571045,2.42,0.03,1.82,3.02
7.407408952713013,2.66,0.04,1.98,3.31
7.416893005371094,2.38,0.29,1.85,3.02
7.427790880203247,1.56,0.46,1.52,2.22
7.437705993652344,0.92,0.67,1.36,1.77
7.472897052764893,1.03,1.07,1.31,1.98
7.47332501411438,1.59,1.75,1.14,2.62
7.4737489223480225,1.85,2.13,1.18,3.05
7.476816892623901,1.85,2.52,1.32,3.39
7.486626863479614,1.94,2.8,2.11,4.0
7.497328042984009,2.35,3.01,2.8,4.73
7.507239103317261,2.71,3.28,3.41,5.45
7.5167059898376465,2.92,3.89,3.57,6.03
7.527428865432739,2.66,5.55,3.33,6.99
7.537521123886108,3.13,8.55,2.96,9.57
7.573451042175293,5.49,9.79,4.84,12.22
7.573904037475586,5.39,9.3,6.64,12.63
7.574326992034912,3.88,9.41,7.37,12.56
7.576465845108032,3.51,10.46,8.17,13.72
7.586416006088257,4.29,11.76,8.4,15.07
7.5970330238342285,4.71,10.72,6.76,13.52
7.607133150100708,5.38,8.28,2.83,10.27
7.616575002670288,6.27,7.24,-2.0,9.78
7.627529859542847,5.65,9.1,-6.14,12.34
7.6373820304870605,2.42,12.56,-5.73,14.01
7.673537969589233,-1.82,14.06,-0.54,14.18
7.673987150192261,-3.15,10.47,0.61,10.95
7.674429178237915,-0.93,4.94,0.15,5.02
7.676316022872925,1.48,1.17,1.44,2.37
7.686333894729614,-2.22,-0.15,-1.92,2.93
7.697005033493042,-1.68,2.84,-4.54,5.61
7.706891059875488,2.4,4.69,0.55,5.29
7.716456174850464,5.63,2.91,3.28,7.13
7.727173089981079,7.62,0.86,4.85,9.07
7.737328052520752,7.45,-0.61,5.59,9.33
7.7737040519714355,6.11,-1.36,4.96,7.98
7.774134874343872,4.51,-1.55,3.61,5.98
7.774561166763306,3.27,-1.59,2.86,4.62
7.77622389793396,2.45,-1.65,3.03,4.23
7.786219835281372,1.89,-1.84,3.32,4.24
7.796860933303833,1.26,-2.0,3.35,4.1
7.806686162948608,0.71,-2.09,3.23,3.91
7.816304922103882,0.52,-2.15,2.84,3.59
7.826987981796265,0.69,-2.23,2.51,3.42
7.837146043777466,1.23,-2.36,2.42,3.59
7.873469114303589,1.59,-2.54,2.36,3.81
7.873911142349243,1.53,-2.66,1.72,3.51
7.874346971511841,1.19,-2.96,1.08,3.36
7.876113176345825,0.39,-3.5,0.47,3.55
7.886092901229858,-0.16,-3.98,0.19,3.98
7.8967578411102295,-0.31,-4.33,0.29,4.35
7.9066619873046875,-0.44,-4.53,-0.41,4.56
7.916100978851318,-0.94,-4.51,-1.59,4.87
7.926841974258423,-1.99,-4.42,-2.58,5.49
7.93691086769104,-3.35,-4.07,-3.69,6.43
7.973492860794067,-4.57,-3.37,-4.8,7.43
7.973942041397095,-5.65,-2.52,-5.62,8.35
7.974382162094116,-6.23,-1.51,-6.67,9.25
7.976012945175171,-6.44,-0.21,-7.93,10.21
7.985975027084351,-6.92,0.96,-8.77,11.21
7.9965150356292725,-7.64,1.54,-9.3,12.13
8.006664037704468,-8.39,0.73,-9.67,12.82
8.01606798171997,-8.53,-1.03,-9.54,12.83
8.026648044586182,-8.51,-2.38,-9.55,13.01
8.036797046661377,-8.83,-3.48,-9.73,13.59
8.073271036148071,-9.3,-4.72,-9.53,14.12
8.07370400428772,-10.23,-2.84,-9.87,14.49
8.074128866195679,-6.53,1.69,-7.76,10.28
8.075791120529175,-3.45,-5.52,-6.3,9.05
8.085783004760742,-4.47,2.54,-1.51,5.35
8.096444845199585,10.68,14.48,23.66,29.72
8.106695890426636,9.78,18.44,1.49,20.92
8.115760087966919,1.88,17.95,-18.26,25.67
8.126425981521606,1.72,4.7,-7.05,8.64
8.136626958847046,-8.34,-5.03,-2.47,10.04
8.173062086105347,-11.43,-4.86,2.32,12.63
8.173495054244995,-10.98,-4.03,-6.38,13.32
8.173915147781372,-11.85,-2.88,-7.62,14.37
8.175627946853638,-10.59,-1.08,-3.27,11.13
8.18563199043274,-4.92,-0.15,-2.64,5.58
8.19624400138855,0.36,0.18,-1.93,1.97
8.206603050231934,3.32,0.74,-0.94,3.52
8.215692043304443,3.59,1.13,-2.14,4.32
8.226413011550903,0.6,1.37,-2.89,3.25
8.236468076705933,-1.81,0.57,-2.18,2.89
8.273903131484985,-1.41,0.09,-1.76,2.25
8.27435302734375,-0.89,-0.02,-2.0,2.18
8.274793863296509,-1.22,-0.06,-2.08,2.41
8.275552034378052,-1.2,-0.07,-1.91,2.25
8.285498857498169,-0.57,0.02,-1.41,1.52
8.296128988265991,-0.18,0.1,-0.89,0.91
8.306396961212158,-0.3,-0.04,-0.19,0.35
8.315606832504272,-0.24,-0.06,0.2,0.31
8.326288938522339,-0.01,0.07,0.19,0.2
8.336373090744019,0.07,0.01,0.26,0.26
8.373885869979858,0.14,-0.12,0.31,0.36
8.374315023422241,0.32,-0.17,0.36,0.51
8.37474799156189,0.58,-0.17,0.4,0.72
8.375478982925415,0.88,-0.06,0.35,0.94
8.385348081588745,1.02,0.11,0.26,1.05
8.39592695236206,0.91,0.2,0.27,0.97
8.406224012374878,0.75,0.23,0.51,0.93
8.415334939956665,0.58,0.22,0.68,0.92
8.426041841506958,0.47,0.19,0.74,0.89
8.436178922653198,0.48,0.18,0.94,1.07
8.47308611869812,0.41,0.2,1.01,1.1
8.473507165908813,0.14,0.2,0.95,0.98
8.4739248752594,-0.01,0.12,0.84,0.84
8.475169897079468,0.21,-0.04,0.93,0.95
8.485208988189697,0.62,-0.09,0.97,1.15
8.495887994766235,1.08,0.0,0.93,1.42
8.50619912147522,1.51,0.14,0.89,1.75
8.515388011932373,1.93,0.35,1.08,2.23
8.52596402168274,2.12,0.52,1.47,2.63
8.536070108413696,2.07,0.7,1.55,2.67
8.573907136917114,1.71,0.57,1.7,2.47
8.574357986450195,1.26,0.66,1.88,2.35
8.575126886367798,1.12,1.24,1.5,2.24
8.575541973114014,0.92,1.94,1.21,2.46
8.586276054382324,0.97,2.61,1.53,3.17
8.595680952072144,1.08,2.86,1.85,3.57
8.605994939804077,1.45,2.93,2.29,3.99
8.615126848220825,2.09,3.01,2.68,4.53
8.625835180282593,2.54,3.28,2.85,5.03
8.635861158370972,2.74,3.57,3.01,5.41
8.6735520362854,2.68,4.24,3.29,5.99
8.673979043960571,2.57,5.98,3.29,7.29
8.674425840377808,3.78,8.04,4.15,9.8
8.675182104110718,5.34,8.92,6.61,12.31
8.684892892837524,6.09,9.79,8.08,14.07
8.695534944534302,6.77,10.82,8.61,15.39
8.705488920211792,6.58,11.08,9.03,15.73
8.71498703956604,5.63,10.36,8.7,14.65
8.725754976272583,4.69,8.51,6.1,11.47
8.735778093338013,4.76,7.39,-0.32,8.79
8.774183988571167,6.11,9.15,-6.54,12.79
8.77495002746582,3.31,13.67,-7.06,15.73
8.775370836257935,-1.73,15.36,-0.95,15.48
8.775796175003052,-3.53,11.45,2.35,12.21
8.784745931625366,-1.27,5.98,1.6,6.31
8.795361042022705,2.19,3.18,1.7,4.21
8.805451154708862,-3.5,2.05,-1.1,4.2
8.814841985702515,-6.31,3.57,-7.01,10.08
8.82550311088562,-1.49,6.45,-2.83,7.19
8.835662126541138,3.77,4.95,1.78,6.47
8.87349796295166,7.94,1.59,3.57,8.84
8.873955011367798,7.78,-0.81,3.94,8.75
8.874721050262451,5.19,-1.86,3.13,6.33
8.875141859054565,3.52,-2.62,2.85,5.23
8.88461184501648,2.46,-2.95,2.99,4.86
8.89530897140503,1.83,-2.93,3.13,4.66
8.905115842819214,1.32,-2.75,3.21,4.42
8.9147310256958,0.85,-2.68,3.04,4.14
8.92543911933899,0.4,-2.82,2.68,3.91
8.935595035552979,0.67,-2.97,2.39,3.87
8.973685026168823,1.42,-3.07,2.3,4.09
8.974475145339966,2.15,-3.1,2.28,4.4
8.974898099899292,2.65,-3.13,2.29,4.69
8.975314855575562,2.67,-3.33,2.21,4.8
8.984472036361694,2.25,-3.82,1.95,4.84
8.995063066482544,1.66,-4.41,1.65,4.99
9.005076169967651,1.15,-4.88,1.27,5.17
9.014554023742676,0.84,-5.32,0.8,5.44
9.025223970413208,0.68,-5.68,0.59,5.75
9.03528094291687,0.24,-5.83,0.46,5.85
9.074803113937378,-0.36,-5.95,0.06,5.96
9.075247049331665,-1.05,-5.86,-0.73,5.99
9.075674057006836,-2.36,-5.27,-2.21,6.18
9.076101064682007,-3.87,-4.48,-4.41,7.38
9.084357023239136,-5.4,-3.81,-5.54,8.62
9.094907999038696,-7.11,-2.95,-6.61,10.14
9.10489296913147,-7.6,-1.77,-7.9,11.1
9.114382982254028,-7.03,-0.56,-8.54,11.07
9.125092029571533,-6.52,0.39,-9.36,11.41
9.135184049606323,-6.84,0.79,-10.02,12.15
9.17513108253479,-7.68,0.49,-10.18,12.76
9.17556095123291,-8.9,0.58,-10.78,13.99
9.175981044769287,-9.66,0.56,-11.88,15.32
9.176400899887085,-9.65,-0.64,-11.67,15.15
9.184098958969116,-9.07,2.86,-11.19,14.68
9.194774866104126,-3.11,2.18,-8.44,9.25
9.20477294921875,-2.73,-3.93,-7.94,9.27
9.21425199508667,-4.07,3.25,-3.3,6.16
9.224833011627197,9.13,14.1,20.8,26.73
9.235056161880493,14.08,12.74,13.19,23.11
9.273498058319092,3.95,10.41,-13.11,17.2
9.274286985397339,-5.71,5.76,-1.21,8.2
9.274718999862671,-12.61,-4.16,0.87,13.3
9.27514910697937,-8.7,-3.33,0.15,9.31
9.284034013748169,-8.01,-2.48,-2.55,8.76
9.29464316368103,-7.84,-3.04,-5.71,10.16
9.304656028747559,-5.56,-0.99,-6.97,8.97
9.31413197517395,-3.78,0.86,-6.06,7.19
9.32465386390686,-1.8,0.8,-4.58,4.98
9.334963083267212,0.32,0.27,-3.5,3.52
9.374848127365112,2.15,0.22,-1.09,2.42
9.37528395652771,1.55,0.69,-0.27,1.71
9.37570309638977,0.24,0.75,-2.08,2.22
9.376117944717407,-0.63,0.51,-2.73,2.84
9.383878946304321,-1.1,0.43,-2.02,2.33
9.394479036331177,-1.06,0.37,-1.37,1.77
9.404546976089478,-1.04,0.15,-1.22,1.61
9.413916826248169,-1.09,-0.06,-1.2,1.62
9.424532175064087,-1.14,-0.07,-0.87,1.43
9.434924840927124,-1.01,0.04,-0.84,1.31
9.47367787361145,-0.58,0.17,-1.03,1.19
9.474323034286499,-0.43,0.14,-1.04,1.13
9.474778890609741,-0.41,-0.07,-0.78,0.88
9.475203037261963,-0.33,-0.22,-0.17,0.43
9.48379397392273,-0.16,-0.28,0.51,0.6
9.494333028793335,0.15,-0.27,0.91,0.96
9.504407167434692,0.6,-0.12,0.89,1.08
9.513788938522339,1.01,0.15,0.68,1.22
9.524386167526245,1.07,0.27,0.43,1.18
9.534669160842896,0.73,0.14,0.19,0.76
9.574676990509033,0.21,-0.05,0.14,0.25
9.575090169906616,0.07,-0.05,0.39,0.39
9.57548999786377,0.28,0.09,0.74,0.79
9.575907945632935,0.51,0.13,0.88,1.02
9.583586931228638,0.36,0.0,0.99,1.05
9.594223976135254,0.04,-0.17,1.08,1.09
9.604236841201782,0.24,-0.3,1.05,1.11
9.613584041595459,0.99,-0.32,0.84,1.33
9.624361038208008,1.81,-0.14,0.57,1.9
9.634562969207764,2.3,0.14,0.56,2.37
9.674505949020386,1.99,0.45,0.58,2.12
9.674937963485718,1.13,0.54,0.43,1.32
9.675364971160889,0.52,0.36,0.79,1.01
9.675801992416382,0.66,0.25,1.29,1.47
9.683496952056885,1.16,0.31,1.37,1.82
9.695837020874023,1.52,0.49,1.27,2.04
9.704003095626831,1.46,0.62,1.22,2.0
9.713497877120972,1.28,0.68,1.17,1.86
9.724447965621948,1.19,0.88,1.23,1.92
9.734390020370483,1.45,1.24,0.95,2.13
9.774914026260376,1.8,1.8,0.91,2.7
9.775346040725708,1.44,2.21,1.26,2.92
9.77576994895935,1.5,2.45,1.21,3.11
9.776192903518677,1.54,2.6,1.57,3.4
9.783472061157227,1.48,2.57,2.03,3.59
9.79406189918518,1.43,3.69,2.09,4.47
9.804001092910767,2.05,6.2,1.7,6.74
9.81333303451538,3.98,7.1,3.11,8.71
9.824260950088501,4.1,6.53,4.95,9.16
9.83425784111023,3.81,7.06,5.5,9.72
9.874511003494263,4.45,7.71,6.72,11.15
9.87493896484375,4.77,8.43,6.99,11.94
9.875357866287231,5.02,9.44,6.6,12.56
9.875772953033447,4.42,9.34,6.51,12.21
9.88316297531128,2.87,8.05,5.84,10.35
9.893739938735962,2.22,6.64,3.15,7.67
9.903853178024292,3.46,6.34,-1.37,7.35
9.913229942321777,4.68,8.91,-4.78,11.14
9.924144983291626,3.95,11.49,-4.06,12.81
9.934041976928711,0.75,10.62,0.74,10.67
9.97379183769226,-0.89,7.34,1.65,7.57
9.974231004714966,0.82,4.67,-0.71,4.79
9.974666833877563,1.55,2.12,0.08,2.62
9.97509217262268,-1.12,-0.02,0.04,1.12
9.983078002929688,-2.53,0.77,-4.38,5.11
9.993614912033081,1.6,3.58,-2.8,4.81
10.003595113754272,5.84,2.67,0.94,6.48
10.01306700706482,8.61,0.26,3.13,9.16
10.024120092391968,9.76,-1.3,4.28,10.73
10.033987045288086,8.6,-2.01,3.69,9.57
10.07423996925354,6.7,-1.88,3.26,7.68
10.074672937393188,4.64,-1.58,3.61,6.08
10.07510495185852,3.04,-1.46,4.0,5.23
10.075531005859375,1.99,-1.5,4.11,4.8
10.082916021347046,1.16,-1.66,3.59,4.12
10.093487024307251,0.45,-1.55,2.86,3.28
10.103534936904907,-0.14,-1.3,2.18,2.54
10.112946033477783,-0.18,-1.12,1.78,2.11
10.123799085617065,0.52,-1.22,1.93,2.34
10.133763074874878,1.46,-1.45,2.56,3.28
10.175333976745605,1.83,-1.54,2.55,3.49
10.175761938095093,0.98,-1.55,1.85,2.6
10.176181077957153,-0.41,-2.01,1.1,2.32
10.17660117149353,-1.6,-2.43,-0.31,2.92
10.182758092880249,-2.26,-2.43,-1.87,3.8
10.193343877792358,-2.41,-2.51,-2.21,4.12
10.203306913375854,-2.43,-2.65,-1.46,3.88
10.212759971618652,-2.59,-2.52,-1.21,3.81
10.223653078079224,-3.18,-1.99,-1.85,4.18
10.233721017837524,-3.96,-1.17,-2.65,4.9
10.27556300163269,-4.57,-0.51,-3.57,5.82
10.27598786354065,-5.31,-0.05,-4.65,7.05
10.276411056518555,-6.3,0.54,-5.92,8.66
10.27682900428772,-7.46,1.2,-7.31,10.51
10.282614946365356,-8.44,1.53,-8.39,11.99
10.293146848678589,-8.97,1.36,-9.28,12.97
10.303161859512329,-9.02,0.87,-9.7,13.27
10.312615156173706,-8.39,0.08,-9.14,12.4
10.323517084121704,-7.55,-1.37,-8.0,11.08
10.333508968353271,-7.54,-3.08,-7.7,11.2
10.374828100204468,-8.9,-2.81,-8.5,12.62
10.37527585029602,-9.39,-0.45,-7.26,11.87
10.37571406364441,-6.62,-5.06,-8.37,11.81
10.376149892807007,-7.52,-3.23,-7.38,11.02
10.382478952407837,-1.27,7.85,1.65,8.12
10.393087148666382,11.75,13.41,23.8,29.73
10.40297794342041,7.09,12.03,-1.94,14.09
10.412490129470825,1.27,9.36,-8.99,13.04
10.423192977905273,-4.23,2.25,1.12,4.92
10.433333158493042,-11.45,-1.18,-2.24,11.72
10.475108861923218,-6.28,-3.38,-5.45,8.97
10.475547075271606,-5.33,-1.41,-6.94,8.86
10.475965976715088,-7.71,-1.59,-7.24,10.69
10.47639012336731,-5.7,-0.29,-7.58,9.48
10.482193946838379,-3.31,0.52,-5.93,6.81
10.492928981781006,-1.94,0.1,-3.7,4.17
10.502853155136108,-0.29,0.29,-1.99,2.03
10.51235294342041,1.06,0.71,-1.16,1.72
10.5228750705719,0.79,0.91,-0.56,1.32
10.533075094223022,-0.72,0.57,-0.21,0.94
10.575417041778564,-1.81,0.03,-0.57,1.89
10.575857877731323,-2.13,-0.18,-0.84,2.29
10.576290845870972,-1.88,-0.23,-0.73,2.02
10.576712846755981,-1.32,-0.3,-0.57,1.46
10.582174062728882,-0.55,-0.23,-0.54,0.8
10.592666864395142,0.01,-0.03,-0.74,0.74
10.604532957077026,0.21,0.12,-1.15,1.17
10.612169981002808,0.08,0.2,-1.28,1.29
10.622828960418701,-0.28,0.15,-0.94,0.99
10.633095979690552,-0.63,0.08,-0.43,0.76
10.6752610206604,-0.61,0.0,-0.02,0.61
10.6757071018219,-0.22,-0.03,0.28,0.35
10.676141023635864,0.29,-0.02,0.52,0.59
10.676573038101196,0.78,0.04,0.7,1.04
10.681998014450073,1.48,0.13,0.67,1.62
10.692572832107544,2.07,0.21,0.68,2.18
10.70247483253479,2.06,0.22,0.74,2.19
10.7120521068573,1.69,0.13,0.9,1.91
10.722686052322388,1.58,0.0,1.14,1.94
10.73290205001831,1.48,-0.07,1.07,1.82
10.775777101516724,1.02,-0.06,0.85,1.32
10.776203870773315,0.59,-0.03,0.98,1.14
10.776604890823364,0.42,-0.03,1.28,1.34
10.777003049850464,0.55,-0.04,1.43,1.53
10.781787157058716,1.06,-0.07,1.2,1.6
10.792216062545776,1.51,-0.12,0.82,1.72
10.802459955215454,1.33,-0.06,0.54,1.43
10.81188416481018,0.78,0.11,0.09,0.79
10.82252812385559,0.38,0.22,0.13,0.45
10.832802057266235,0.6,0.2,0.78,1.0
10.875915050506592,1.3,0.11,1.55,2.02
10.876343011856079,1.96,0.07,2.06,2.84
10.87676215171814,2.37,0.12,2.16,3.2
10.877175092697144,2.39,0.22,2.33,3.34
10.881698846817017,2.11,0.66,2.23,3.14
10.892226934432983,1.72,1.28,1.5,2.61
10.90228796005249,1.37,1.86,0.98,2.5
10.91283392906189,1.48,2.65,1.19,3.26
10.922438859939575,1.78,3.1,1.72,3.96
10.932595014572144,2.2,3.17,2.28,4.48
10.975580930709839,2.66,3.58,2.89,5.31
10.976009130477905,2.8,4.45,3.1,6.1
10.976423978805542,3.06,6.98,2.56,8.03
10.976836919784546,4.74,8.91,2.92,10.5
10.981580018997192,5.08,8.34,5.04,10.98
10.991951942443848,3.29,8.18,5.8,10.55
11.002099990844727,2.76,9.25,7.53,12.24
11.011637926101685,3.72,10.86,8.76,14.44
11.022304058074951,4.95,10.97,7.74,14.3
11.032365083694458,5.27,9.2,6.32,12.34
11.075730085372925,5.3,6.68,4.31,9.55
11.076174974441528,5.11,4.8,-0.48,7.02
11.076606035232544,2.76,5.78,-5.8,8.64
11.077041864395142,-1.82,10.0,-6.03,11.81
11.08143401145935,-4.6,11.54,-0.49,12.43
11.0918550491333,-3.81,9.23,1.91,10.16
11.102023839950562,0.32,4.57,1.14,4.72
11.11148715019226,2.3,0.69,1.85,3.03
11.122167825698853,-0.16,-1.52,0.72,1.68
11.132267951965332,-2.31,-0.22,-5.08,5.58
11.176084041595459,1.19,3.98,-3.18,5.23
11.17652702331543,5.02,3.95,1.19,6.49
11.176957845687866,7.96,1.3,3.61,8.83
11.177392959594727,9.44,-1.09,5.13,10.79
11.181292057037354,8.19,-2.21,5.09,9.89
11.191881895065308,5.88,-2.28,4.02,7.47
11.201863050460815,3.91,-2.17,3.23,5.51
11.211346864700317,2.8,-2.35,3.12,4.8
11.222010850906372,2.35,-2.72,3.22,4.82
11.232179880142212,1.84,-2.95,3.15,4.69
11.276705980300903,1.1,-2.62,2.53,3.8
11.277156114578247,0.37,-2.13,2.14,3.04
11.277585983276367,0.2,-1.98,2.09,2.88
11.278012037277222,0.82,-2.06,2.02,2.99
11.281160116195679,1.67,-2.01,2.28,3.46
11.291744947433472,1.84,-1.63,2.12,3.24
11.301712036132812,1.15,-1.18,1.66,2.33
11.312112092971802,-0.23,-1.28,0.87,1.56
11.321899175643921,-1.49,-1.05,-1.09,2.12
11.33188509941101,-2.0,-0.75,-3.03,3.7
11.376621961593628,-2.49,-0.74,-3.26,4.16
11.37705111503601,-2.52,-1.0,-2.36,3.59
11.377472162246704,-2.43,-0.84,-2.16,3.35
11.377890825271606,-3.18,-0.4,-2.97,4.36
11.380951166152954,-4.57,-0.15,-4.04,6.1
11.391782999038696,-5.78,-0.13,-4.66,7.42
11.401489019393921,-6.85,-0.12,-5.25,8.63
11.411041975021362,-7.54,-0.1,-6.33,9.84
11.421704053878784,-7.99,-0.26,-7.53,10.98
11.431900978088379,-8.5,-0.93,-8.3,11.91
11.476094961166382,-8.51,-1.94,-8.48,12.16
11.476547956466675,-8.09,-2.73,-8.39,11.97
11.47698712348938,-7.7,-3.67,-7.97,11.67
11.47742486000061,-7.4,-4.82,-7.2,11.39
11.480931043624878,-7.08,-5.49,-6.6,11.12
11.491666078567505,-6.78,-5.74,-6.52,11.01
11.501368999481201,-7.03,-5.86,-7.08,11.57
11.510864973068237,-7.48,-6.29,-7.36,12.23
11.521498918533325,-8.51,-2.82,-7.28,11.54
11.531617879867554,-4.15,-1.74,-6.73,8.09
11.574546098709106,-0.84,-4.64,-5.61,7.32
11.576247930526733,7.17,15.14,14.18,21.94
11.576677083969116,13.83,22.31,14.46,29.96
11.57709813117981,1.13,24.99,-15.84,29.6
11.580662965774536,2.74,5.5,-11.03,12.62
11.594059944152832,-5.74,-7.4,0.76,9.39
11.60128402709961,-10.62,-7.42,4.01,13.56
11.610726118087769,-10.87,-5.94,-4.02,13.02
11.621409177780151,-11.25,-3.67,-6.28,13.39
11.631487131118774,-9.09,-0.99,-2.76,9.55
11.640711069107056,-4.23,0.67,-1.14,4.43
11.675374031066895,-0.17,0.65,-0.81,1.05
11.67582392692566,1.77,0.57,-0.72,1.99
11.676259994506836,2.7,0.59,-1.39,3.09
11.6805419921875,1.34,0.53,-2.65,3.01
11.691445112228394,-1.31,0.52,-2.64,2.99
11.701172113418579,-1.91,0.41,-2.04,2.82
11.710667848587036,-1.01,0.3,-2.06,2.31
11.72123098373413,-0.9,0.22,-1.98,2.18
11.731412172317505,-1.33,0.19,-1.7,2.16
11.740566968917847,-1.12,0.18,-1.48,1.86
11.774749040603638,-0.59,0.07,-0.92,1.09
11.775177955627441,-0.46,0.01,-0.33,0.56
11.775621175765991,-0.66,0.02,0.15,0.67
11.780440092086792,-0.76,0.09,0.35,0.84
11.791277170181274,-0.59,0.2,0.25,0.67
11.801006078720093,-0.18,0.27,0.05,0.32
11.810503005981445,0.15,0.23,-0.06,0.28
11.821205854415894,0.21,0.12,-0.24,0.34
11.831364870071411,0.27,0.01,-0.42,0.49
11.840419054031372,0.59,0.01,-0.43,0.73
11.878101110458374,1.0,0.02,-0.14,1.0
11.878541946411133,1.41,0.08,0.39,1.46
11.879063844680786,1.57,0.13,0.72,1.73
11.880204916000366,1.26,0.17,0.8,1.5
11.8907310962677,0.8,0.18,0.93,1.23
11.900777101516724,0.56,0.19,1.03,1.18
11.910278081893921,0.45,0.19,1.02,1.13
11.920891046524048,0.32,0.14,0.9,0.96
11.931082963943481,0.2,0.04,0.81,0.83
11.940309047698975,0.48,-0.06,0.84,0.96
11.975484132766724,1.07,-0.07,0.85,1.36
11.975929975509644,1.51,0.07,0.76,1.69
11.976360082626343,1.59,0.33,0.66,1.75
11.980134963989258,1.19,0.49,0.59,1.41
11.990585088729858,0.79,0.57,0.53,1.1
12.00064492225647,0.61,0.54,0.95,1.25
12.010163068771362,0.72,0.57,1.31,1.59
12.020714044570923,1.08,0.57,1.94,2.29
12.030944108963013,1.44,0.95,2.34,2.9
12.040188074111938,1.64,1.68,2.01,3.09
12.07580304145813,1.52,1.94,1.72,3.0
12.07624888420105,1.03,2.1,1.52,2.78
12.076678037643433,1.11,2.23,1.55,2.93
12.079991102218628,1.61,2.47,1.81,3.45
12.090502977371216,2.11,2.73,2.08,4.02
12.10053300857544,2.59,3.3,2.37,4.81
12.110009908676147,3.0,4.09,2.68,5.73
12.120705842971802,3.03,5.62,2.41,6.82
12.130842924118042,4.13,7.06,2.83,8.65
12.139949083328247,4.74,7.09,4.71,9.74
12.176111936569214,4.68,7.19,6.24,10.6
12.176542043685913,5.31,7.95,7.42,12.1
12.1769700050354,5.99,8.88,7.63,13.15
12.179842948913574,5.7,8.99,7.62,13.09
12.190365076065063,4.75,8.21,7.39,12.02
12.20041799545288,3.81,6.29,5.26,9.04
12.20986795425415,4.0,5.08,0.06,6.46
12.220582962036133,5.1,6.44,-5.22,9.73
12.230633974075317,3.73,10.56,-7.45,13.45
12.23987102508545,-0.99,12.94,-2.56,13.22
12.27724814414978,-3.04,10.11,1.98,10.74
12.27770209312439,-3.01,6.35,2.84,7.57
12.278125047683716,1.24,3.02,1.58,3.62
12.279628038406372,2.4,0.95,1.24,2.86
12.290179014205933,-1.95,0.21,-2.23,2.96
12.300278902053833,-2.21,2.67,-5.72,6.68
12.30957293510437,1.89,4.37,-1.9,5.12
12.320343971252441,5.27,2.68,1.09,6.01
12.330551862716675,7.84,0.23,3.27,8.49
12.339720010757446,8.33,-2.15,4.53,9.72
12.376423120498657,6.42,-3.41,3.79,8.19
12.376857995986938,4.89,-3.26,3.27,6.72
12.37729001045227,3.69,-3.2,3.44,5.97
12.379528999328613,2.62,-3.26,3.81,5.65
12.390097856521606,1.73,-3.01,3.84,5.17
12.400130033493042,1.19,-2.33,3.12,4.07
12.40954303741455,0.73,-1.65,2.47,3.05
12.420343160629272,0.74,-1.26,2.51,2.9
12.430457830429077,1.54,-0.95,2.67,3.22
12.439593076705933,1.26,-0.66,2.74,3.08
12.477198839187622,-0.13,-0.83,1.8,1.98
12.477642059326172,-1.0,-0.69,-1.64,2.04
12.47806715965271,-1.74,-0.74,-3.65,4.11
12.47932505607605,-2.38,-1.78,-1.68,3.41
12.489896059036255,-1.41,-2.67,0.18,3.02
12.499974012374878,-0.66,-2.8,-0.28,2.89
12.509340047836304,-0.36,-2.77,-1.24,3.05
12.520089864730835,-0.6,-2.84,-1.46,3.24
12.530192136764526,-0.84,-2.79,-1.06,3.1
12.53945517539978,-1.48,-2.49,-1.28,3.16
12.577195882797241,-2.82,-1.88,-2.63,4.28
12.57762885093689,-4.31,-1.38,-3.95,6.0
12.57804799079895,-5.64,-1.08,-5.51,7.95
12.579174995422363,-6.83,-1.04,-7.13,9.92
12.589794874191284,-7.51,-1.31,-7.69,10.82
12.59986400604248,-7.31,-1.68,-7.71,10.75
12.609141111373901,-6.9,-1.83,-8.13,10.81
12.619959115982056,-7.09,-2.06,-8.38,11.16
12.630120038986206,-7.17,-3.01,-7.67,10.92
12.639291048049927,-6.76,-3.77,-6.98,10.42
12.677257061004639,-6.22,-3.66,-6.97,10.03
12.677690029144287,-6.15,-3.39,-6.96,9.88
12.678107976913452,-7.22,-0.56,-7.66,10.54
12.678993940353394,-3.72,1.18,-7.34,8.31
12.689657926559448,-3.15,-3.6,-7.91,9.24
12.699676990509033,-8.33,-0.36,-7.73,11.36
12.709254026412964,-2.32,10.12,3.27,10.88
12.71986198425293,9.55,13.42,19.08,25.2
12.729866027832031,3.44,12.42,-4.92,13.79
12.739112138748169,-2.83,3.28,-3.93,5.84
12.777078866958618,-6.76,-2.94,3.79,8.28
12.77751898765564,-10.21,-2.49,-3.84,11.18
12.777949094772339,-5.44,-3.2,-5.69,8.49
12.778861045837402,-5.86,-0.85,-5.95,8.39
12.789495944976807,-6.61,0.27,-5.83,8.81
12.799597978591919,-4.27,0.8,-3.56,5.61
12.80924391746521,-1.74,-0.11,-2.64,3.16
12.819694995880127,0.42,-0.27,-2.18,2.23
12.829726934432983,1.59,0.23,-1.12,1.95
12.839005947113037,1.3,0.46,-0.61,1.5
12.879265069961548,-0.34,0.37,-1.59,1.66
12.879698038101196,-1.45,0.35,-2.35,2.78
12.880117177963257,-1.77,0.38,-2.07,2.74
12.880544900894165,-1.49,0.12,-1.22,1.92
12.889343023300171,-1.09,-0.04,-0.96,1.45
12.899376153945923,-1.05,-0.07,-1.17,1.57
12.909054040908813,-0.59,-0.08,-1.27,1.4
12.919402837753296,0.06,0.03,-1.42,1.42
12.929619073867798,0.0,0.19,-1.38,1.39
12.938828945159912,-0.44,0.28,-1.08,1.19
12.978358030319214,-0.8,0.24,-0.76,1.12
12.979119062423706,-0.9,0.14,-0.42,1.0
12.979552984237671,-0.71,0.07,-0.14,0.72
12.979976892471313,-0.44,0.02,-0.05,0.44
12.98907208442688,-0.12,0.02,-0.02,0.12
12.999176025390625,0.34,0.03,0.05,0.34
13.00891900062561,0.71,0.02,0.05,0.71
13.019423007965088,0.86,0.01,0.19,0.88
13.029551982879639,0.83,0.06,0.34,0.89
13.038710832595825,0.66,0.14,0.42,0.79
13.078459978103638,0.48,0.19,0.49,0.71
13.079086065292358,0.33,0.16,0.66,0.75
13.079514026641846,0.25,0.1,0.86,0.9
13.079929113388062,0.25,0.01,0.87,0.9
13.089010000228882,0.17,-0.05,0.9,0.91
13.099056959152222,0.24,-0.13,0.96,0.99
13.108512163162231,0.71,-0.14,0.9,1.15
13.119125127792358,1.14,-0.1,0.82,1.4
13.129364967346191,1.28,-0.05,0.83,1.52
13.138519048690796,1.36,0.02,0.76,1.55
13.178056001663208,1.2,0.05,0.71,1.39
13.178756952285767,1.14,0.14,0.81,1.4
13.179188966751099,1.16,0.3,0.85,1.46
13.17962384223938,1.15,0.37,1.01,1.57
13.188858985900879,1.13,0.32,1.26,1.72
13.198951005935669,1.3,0.45,1.41,1.96
13.208316087722778,1.52,0.88,1.06,2.05
13.219074964523315,1.4,1.29,0.85,2.08
13.229176044464111,1.11,1.61,1.22,2.3
13.238412141799927,1.45,1.76,1.32,2.63
13.278393030166626,1.91,2.28,1.2,3.2
13.279003858566284,1.96,2.85,1.43,3.74
13.279499053955078,2.25,3.05,1.41,4.04
13.279975175857544,2.31,3.13,1.79,4.28
13.288739919662476,2.41,3.81,2.03,4.94
13.298846006393433,2.55,5.55,2.13,6.46
13.30823802947998,3.85,7.52,2.61,8.84
13.318902969360352,5.08,7.7,4.55,10.28
13.329046964645386,4.24,7.06,5.54,9.92
13.338513135910034,3.26,7.35,6.05,10.06
13.378650903701782,3.18,8.12,7.64,11.59
13.37907600402832,3.96,9.02,8.67,13.12
13.379494905471802,4.82,9.29,8.29,13.35
13.379909992218018,4.88,8.06,7.05,11.76
13.388597011566162,5.44,6.52,4.34,9.53
13.398995161056519,6.51,6.09,0.4,8.92
13.40805697441101,5.98,8.03,-3.6,10.63
13.418735027313232,1.68,11.81,-4.67,12.81
13.428876161575317,-2.58,12.35,-0.82,12.64
13.438134908676147,-2.51,9.52,0.94,9.89
13.479452848434448,0.96,5.94,1.02,6.1
13.479882001876831,2.77,3.08,1.93,4.56
13.480302095413208,-1.56,1.27,-0.64,2.11
13.480721950531006,-2.88,3.25,-5.29,6.84
13.48843002319336,1.23,5.41,-1.61,5.77
13.49852705001831,4.74,3.59,1.76,6.2
13.50796103477478,7.38,0.89,3.22,8.1
13.518585920333862,7.31,-0.97,3.52,8.17
13.528872013092041,5.88,-1.84,3.24,6.96
13.53801417350769,4.89,-2.28,3.4,6.37
13.579377889633179,4.11,-2.32,3.41,5.82
13.579813957214355,3.31,-2.06,3.14,5.0
13.580238103866577,2.33,-1.77,2.92,4.13
13.580656051635742,1.35,-1.65,2.75,3.47
13.588279962539673,0.78,-1.74,2.47,3.12
13.598406076431274,0.82,-1.79,2.17,2.93
13.607795000076294,1.18,-1.97,1.95,3.01
13.618422031402588,1.55,-2.19,1.71,3.18
13.62859296798706,1.85,-2.62,1.59,3.57
13.637876987457275,1.97,-3.03,1.71,3.99
13.679588079452515,1.85,-3.26,2.12,4.3
13.680030107498169,1.44,-3.46,2.37,4.43
13.680464029312134,0.35,-4.0,1.93,4.45
13.68089509010315,-1.16,-4.48,0.84,4.7
13.688114881515503,-2.21,-4.25,-1.13,4.92
13.69829797744751,-3.07,-3.74,-2.9,5.64
13.707671880722046,-4.86,-3.59,-3.68,7.07
13.7183358669281,-6.14,-4.17,-3.24,8.09
13.728410959243774,-6.94,-4.35,-3.45,8.88
13.737805128097534,-7.68,-3.65,-4.92,9.82
13.77982783317566,-8.45,-2.85,-6.43,10.99
13.780280828475952,-8.93,-2.06,-7.97,12.14
13.780715942382812,-9.02,-1.48,-9.08,12.88
13.781147956848145,-9.42,-1.22,-9.81,13.65
13.787976026535034,-10.12,-1.36,-10.03,14.31
13.798038005828857,-10.48,-2.26,-9.65,14.42
13.807494878768921,-9.8,-3.15,-9.62,14.08
13.81819200515747,-8.4,-3.44,-9.44,13.09
13.8281729221344,-7.8,-1.67,-9.82,12.65
13.837553977966309,-7.66,4.31,-6.84,11.13
13.88034987449646,-2.32,-6.67,-9.34,11.7
13.880805015563965,-1.29,0.93,-7.26,7.43
13.881250143051147,9.89,18.34,13.18,24.65
13.881695985794067,10.31,25.23,3.6,27.49
13.887861967086792,-0.08,13.14,-12.47,18.11
13.897879838943481,-5.85,-6.37,-9.11,12.56
13.907405138015747,-10.08,-5.28,-0.64,11.39
13.9179208278656,-12.28,-4.6,-2.04,13.27
13.928110837936401,-10.5,-2.73,-4.56,11.76
13.937427997589111,-7.67,-0.82,-3.64,8.52
13.980299949645996,-4.78,0.53,-1.7,5.1
13.98073410987854,-1.73,0.68,-0.75,2.0
13.981160879135132,1.09,0.65,-0.91,1.56
13.981589078903198,2.74,0.69,-0.39,2.85
13.987576961517334,1.98,0.46,-0.29,2.05
13.997689962387085,0.42,0.29,-1.5,1.58
14.007174015045166,-0.08,0.34,-2.65,2.67
14.017874002456665,-0.12,0.56,-2.61,2.67
14.027915954589844,-0.39,0.6,-1.92,2.04
14.037264108657837,-0.72,0.34,-1.38,1.59
14.08047890663147,-0.77,-0.01,-0.96,1.23
14.080897092819214,-0.77,-0.17,-0.55,0.96
14.081303834915161,-0.75,-0.21,-0.18,0.79
14.081724882125854,-0.6,-0.11,0.09,0.61
14.087538957595825,-0.29,-0.07,0.51,0.59
14.09757113456726,0.13,-0.1,0.85,0.86
14.106927156448364,0.62,-0.12,0.76,0.98
14.1176278591156,0.91,-0.02,0.47,1.02
14.127734899520874,0.99,0.11,0.15,1.0
14.13722014427185,0.96,0.18,-0.12,0.98
14.18071699142456,0.89,0.18,-0.33,0.96
14.181138038635254,0.79,0.16,-0.35,0.87
14.181565046310425,0.66,0.14,-0.12,0.68
14.1819908618927,0.58,0.11,0.2,0.62
14.187438011169434,0.48,0.11,0.61,0.78
14.197365045547485,0.27,0.13,0.94,0.98
14.207226037979126,0.12,0.07,1.23,1.23
14.217602968215942,0.38,-0.09,1.63,1.67
14.227862119674683,1.26,-0.29,1.53,2.0
14.236992120742798,1.98,-0.44,1.13,2.32
14.280752897262573,1.96,-0.38,0.97,2.21
14.281180143356323,1.6,-0.11,0.69,1.74
14.281605958938599,1.49,0.14,0.91,1.75
14.282027006149292,1.96,0.17,1.03,2.22
14.287401914596558,2.38,0.12,1.41,2.76
14.2972891330719,2.38,0.1,1.97,3.09
14.306766033172607,2.0,0.19,2.01,2.84
14.317508935928345,1.52,0.32,2.13,2.63
14.327575922012329,1.36,0.4,1.94,2.4
14.336904048919678,1.44,0.49,1.85,2.39
14.381350040435791,1.59,0.77,1.63,2.4
14.381795167922974,1.67,1.02,1.2,2.29
14.382226943969727,1.57,1.5,0.86,2.33
14.382654905319214,1.38,1.99,0.94,2.59
14.387097120285034,0.78,2.31,1.16,2.7
14.39712905883789,0.98,3.05,1.35,3.47
14.406644105911255,1.58,3.21,1.68,3.95
14.417258024215698,1.56,3.43,2.52,4.53
14.42765212059021,1.82,4.68,3.19,5.94
14.436625003814697,3.13,7.13,3.37,8.48
14.481215953826904,5.33,8.11,5.2,11.01
14.481652021408081,5.56,8.04,6.59,11.78
14.48207688331604,4.86,8.41,6.64,11.76
14.48250412940979,4.44,9.35,8.14,13.16
14.487059831619263,4.68,10.22,9.15,14.49
14.496939897537231,5.51,9.76,7.7,13.59
14.506489038467407,5.7,8.23,5.59,11.46
14.517144918441772,5.82,6.87,2.27,9.28
14.563807964324951,6.29,7.45,-2.44,10.05
14.564239025115967,3.34,10.65,-5.45,12.42
14.564661026000977,-1.98,12.44,-2.57,12.85
14.565079927444458,-3.78,11.13,0.93,11.79
14.566241979598999,-2.79,8.16,1.19,8.7
14.576739072799683,0.62,4.09,0.71,4.19
14.586990118026733,1.16,0.92,1.59,2.17
14.596927881240845,-2.63,-0.82,-1.42,3.09
14.606345891952515,-1.83,2.15,-4.71,5.49
14.617089033126831,2.86,4.39,-0.66,5.28
14.665840864181519,6.08,2.59,2.2,6.96
14.666584968566895,7.64,0.07,3.25,8.3
14.667006969451904,7.88,-1.88,4.17,9.11
14.66743016242981,6.47,-2.95,4.07,8.19
14.667847871780396,4.88,-3.08,3.3,6.64
14.676140069961548,4.08,-2.85,2.97,5.79
14.686820030212402,3.75,-2.56,3.07,5.48
14.696792840957642,3.3,-2.29,3.37,5.24
14.706198930740356,2.5,-2.06,3.1,4.48
14.716931104660034,1.85,-1.78,2.13,3.33
14.765545129776001,1.63,-1.7,1.48,2.78
14.766308069229126,1.8,-1.73,1.26,2.79
14.76675009727478,2.21,-1.84,1.11,3.08
14.767189025878906,2.73,-2.08,1.24,3.64
14.76763105392456,3.08,-2.18,1.43,4.03
14.775951147079468,2.88,-1.91,1.43,3.73
14.7866849899292,1.72,-2.03,0.72,2.75
14.796671152114868,-0.15,-2.79,-0.31,2.81
14.806102991104126,-1.33,-2.81,-2.22,3.82
14.816771030426025,-1.49,-2.55,-4.41,5.3
14.865900039672852,-2.74,-2.3,-5.32,6.41
14.866525888442993,-3.78,-2.64,-4.58,6.49
14.866950035095215,-4.41,-3.23,-3.93,6.73
14.86736798286438,-5.27,-2.9,-4.72,7.64
14.867786169052124,-5.81,-2.16,-5.48,8.27
14.875913858413696,-5.65,-1.43,-6.31,8.58
14.886523008346558,-5.33,-0.64,-7.62,9.32
14.896558046340942,-5.85,-0.13,-8.76,10.53
14.905908823013306,-6.99,-0.13,-9.29,11.62
14.916652917861938,-8.02,-0.22,-9.69,12.58
14.965723991394043,-8.83,-0.09,-10.91,14.03
14.96740198135376,-9.54,-1.09,-12.59,15.83
14.967833042144775,-10.31,-2.79,-12.84,16.7
14.968260049819946,-10.41,-0.01,-12.06,15.93
14.968684911727905,-6.16,-2.17,-10.46,12.33
14.975816011428833,-8.52,-4.28,-9.31,13.32
14.986387968063354,-9.39,1.53,-6.05,11.27
14.996287107467651,3.38,12.05,15.65,20.03
15.00584101676941,12.37,14.34,13.96,23.52
15.016509056091309,-1.12,18.37,-12.23,22.09
15.065460920333862,-5.78,2.02,-6.37,8.83
15.067358016967773,-8.59,-5.47,3.51,10.77
15.067804098129272,-13.1,-6.22,2.01,14.64
15.068235158920288,-10.68,-4.89,-4.88,12.71
15.06867003440857,-9.58,-3.12,-5.75,11.6
15.075595140457153,-6.24,-0.21,-3.51,7.16
15.08616304397583,-1.95,1.13,-1.98,2.99
15.09622597694397,1.05,0.85,-2.86,3.16
15.105602979660034,2.65,0.58,-3.99,4.82
15.116339921951294,2.69,0.38,-3.23,4.22
15.126424074172974,0.73,0.76,-2.55,2.75
15.167165040969849,-1.03,0.74,-1.87,2.25
15.167600870132446,-1.34,0.4,-1.24,1.86
15.16801905632019,-1.45,0.08,-1.15,1.85
15.168436050415039,-1.48,-0.15,-0.71,1.64
15.175473928451538,-1.34,-0.18,-0.23,1.37
15.186028003692627,-0.73,-0.01,-0.23,0.76
15.196033954620361,0.31,0.28,-0.56,0.69
15.205441951751709,1.07,0.41,-0.91,1.46
15.216125965118408,1.19,0.36,-0.95,1.56
15.226171970367432,0.73,0.13,-0.52,0.9
15.267226934432983,0.26,-0.12,0.0,0.28
15.267656087875366,0.02,-0.27,0.29,0.39
15.268059015274048,-0.13,-0.27,0.34,0.45
15.26846194267273,-0.1,-0.12,0.29,0.32
15.275329828262329,0.21,0.06,0.37,0.42
15.285889863967896,0.46,0.12,0.51,0.69
15.295882940292358,0.53,0.09,0.49,0.72
15.305353879928589,0.63,0.15,0.34,0.73
15.316054105758667,0.79,0.3,0.4,0.93
15.326274156570435,0.96,0.38,0.69,1.24
15.36733603477478,1.05,0.3,1.01,1.48
15.367776155471802,0.85,0.11,1.33,1.58
15.36820387840271,0.61,-0.09,1.6,1.71
15.36863398551941,0.81,-0.07,1.56,1.75
15.375156164169312,1.39,0.04,1.21,1.84
15.385751962661743,1.46,0.34,0.67,1.64
15.395648956298828,1.18,0.73,0.26,1.41
15.40518307685852,1.1,0.92,0.31,1.46
15.415899991989136,0.97,1.05,0.59,1.54
15.42606496810913,0.78,1.14,0.73,1.56
15.467490911483765,0.81,1.14,1.46,2.02
15.467905044555664,1.03,1.47,2.38,2.98
15.468324899673462,1.1,1.48,2.9,3.43
15.468743085861206,1.42,1.67,2.66,3.44
15.47500491142273,1.72,1.76,2.54,3.53
15.485596895217896,2.08,1.86,2.34,3.64
15.495542049407959,2.67,2.13,2.34,4.14
15.505023002624512,3.32,2.4,2.79,4.95
15.515719175338745,3.85,2.87,3.46,5.91
15.52582597732544,4.15,4.05,3.88,6.97
15.568528890609741,4.19,6.64,3.7,8.67
15.568974018096924,5.43,8.92,3.98,11.17
15.569441080093384,5.88,8.92,5.84,12.17
15.569854974746704,5.06,9.32,7.38,12.92
15.574897050857544,4.74,9.96,8.38,13.85
15.585521936416626,3.49,10.31,8.11,13.57
15.595332860946655,2.08,9.78,7.83,12.69
15.604881048202515,1.36,8.0,4.87,9.46
15.615645170211792,3.13,6.83,-1.41,7.64
15.625741004943848,4.88,9.54,-6.44,12.5
15.66834807395935,1.28,13.01,-6.0,14.38
15.668800115585327,-2.25,13.4,-0.91,13.61
15.669242143630981,-1.64,11.82,1.03,11.97
15.66967511177063,1.24,7.06,-0.06,7.16
15.674765825271606,2.96,2.99,0.89,4.3
15.685328006744385,-0.65,1.11,0.57,1.4
15.695166826248169,-3.5,1.9,-4.96,6.36
15.704723119735718,0.11,5.44,-2.43,5.95
15.715458154678345,3.94,5.35,1.75,6.87
15.725507974624634,7.14,2.71,4.15,8.69
15.767989873886108,9.16,0.04,6.29,11.11
15.76843810081482,7.84,-1.48,5.95,9.95
15.768873929977417,5.52,-1.74,4.36,7.24
15.769316911697388,3.66,-1.72,3.49,5.34
15.774571180343628,2.07,-1.84,3.12,4.17
15.785199880599976,1.06,-2.23,3.18,4.02
15.795021057128906,0.05,-2.68,3.32,4.26
15.804600954055786,-0.72,-2.84,2.87,4.1
15.815256834030151,-0.76,-3.03,2.39,3.93
15.825325965881348,-0.27,-3.35,2.48,4.17
15.86867904663086,0.56,-3.71,2.56,4.54
15.869107961654663,1.3,-3.95,2.45,4.82
15.869526147842407,1.37,-4.24,2.14,4.94
15.869943857192993,1.04,-4.45,1.68,4.86
15.874423027038574,0.44,-4.78,1.33,4.98
15.885117053985596,-0.37,-5.15,0.95,5.24
15.895063161849976,-1.09,-5.47,0.56,5.6
15.904453039169312,-1.82,-5.71,-0.05,5.99
15.915127992630005,-2.23,-5.62,-1.19,6.16
15.925246953964233,-3.0,-5.06,-2.47,6.38
15.968899965286255,-4.19,-4.38,-3.94,7.22
15.969328165054321,-5.75,-3.55,-4.79,8.28
15.969746828079224,-7.27,-2.44,-5.18,9.25
15.970165967941284,-7.9,-1.29,-5.37,9.63
15.974301099777222,-7.5,0.37,-5.74,9.45
15.984853982925415,-6.91,2.26,-6.41,9.69
15.995036840438843,-6.63,3.58,-7.11,10.35
16.004366159439087,-7.13,4.08,-7.89,11.39
16.01507592201233,-8.35,3.67,-9.13,12.9
16.025129079818726,-9.16,2.36,-10.14,13.86
16.06980800628662,-8.98,0.54,-9.63,13.17
16.070236921310425,-7.74,-0.98,-8.79,11.75
16.070658922195435,-5.93,-1.97,-9.45,11.32
16.071082830429077,-7.25,1.87,-10.14,12.6
16.074133157730103,-7.08,-0.78,-8.85,11.36
16.084712028503418,-5.84,-3.64,-9.24,11.52
16.094990968704224,1.08,5.49,0.6,5.62
16.104138135910034,12.43,8.0,19.17,24.2
16.11485195159912,12.87,4.57,11.65,17.95
16.125192880630493,4.37,10.4,-8.16,13.92
16.17046594619751,-5.08,14.08,-11.68,18.98
16.17093586921692,-7.13,2.99,-9.85,12.52
16.171380043029785,-8.61,-0.91,2.6,9.03
16.171812057495117,-10.56,-4.8,1.73,11.72
16.17400097846985,-9.07,-3.74,-4.78,10.91
16.18458390235901,-6.78,-2.2,-5.75,9.15
16.194890022277832,-4.12,-0.63,-4.47,6.11
16.203943967819214,-2.16,0.62,-2.67,3.48
16.214709043502808,-0.39,0.8,-1.85,2.05
16.224750995635986,1.67,0.52,-1.95,2.61
16.270575046539307,2.42,0.58,-1.79,3.06
16.27100110054016,1.06,0.45,-1.31,1.74
16.271419048309326,-0.8,0.38,-1.3,1.57
16.271834135055542,-1.46,0.41,-1.28,1.98
16.273802042007446,-1.17,0.23,-0.91,1.49
16.284435033798218,-0.73,0.07,-0.69,1.0
16.2948260307312,-0.5,0.09,-0.65,0.82
16.30386185646057,-0.44,0.07,-0.82,0.93
16.31452488899231,-0.27,0.05,-0.84,0.88
16.324651956558228,-0.07,-0.01,-0.61,0.61
16.370959997177124,-0.07,-0.05,-0.33,0.34
16.37137794494629,-0.1,-0.13,-0.13,0.2
16.371811151504517,-0.14,-0.2,0.12,0.27
16.372230052947998,0.05,-0.17,0.29,0.33
16.373711824417114,0.29,-0.06,0.53,0.6
16.384305953979492,0.28,0.09,0.55,0.62
16.39467215538025,0.34,0.21,0.36,0.53
16.403767824172974,0.51,0.22,0.26,0.61
16.414456129074097,0.83,0.17,0.25,0.88
16.424561977386475,1.3,0.15,0.59,1.43
16.471566915512085,1.68,0.12,0.94,1.92
16.471986055374146,1.56,0.12,1.3,2.03
16.47238802909851,1.14,0.1,1.51,1.89
16.472787141799927,1.07,-0.03,1.51,1.85
16.473562955856323,1.29,-0.15,1.46,1.95
16.48408007621765,1.46,-0.17,1.38,2.01
16.49447512626648,1.26,-0.16,1.16,1.72
16.503582000732422,0.86,-0.15,0.74,1.14
16.514214992523193,0.76,0.1,0.42,0.87
16.524369955062866,1.05,0.4,0.39,1.18
16.571105003356934,1.4,0.49,0.78,1.67
16.571532011032104,1.75,0.44,1.32,2.23
16.571956872940063,1.85,0.65,1.29,2.34
16.572371006011963,1.63,1.0,1.05,2.18
16.573321104049683,0.97,1.6,1.07,2.15
16.584012985229492,0.89,1.94,1.11,2.4
16.593968152999878,0.64,2.16,1.41,2.65
16.60350799560547,1.01,2.2,1.73,2.97
16.614012956619263,1.64,2.3,2.04,3.48
16.624292135238647,2.34,2.49,2.45,4.2
16.672037839889526,2.83,2.77,2.78,4.83
16.672477960586548,2.94,3.16,3.13,5.33
16.673225164413452,2.94,4.13,3.33,6.06
16.67364501953125,2.83,6.18,3.38,7.59
16.674075841903687,3.97,8.52,4.22,10.3
16.683897018432617,5.57,9.49,6.44,12.74
16.693782091140747,6.33,9.87,7.5,13.91
16.703378915786743,6.62,10.38,7.64,14.48
16.713968992233276,6.21,10.76,8.05,14.8
16.724020957946777,5.08,9.91,8.65,14.1
16.773072957992554,3.61,7.78,6.16,10.55
16.773684978485107,3.44,6.25,-0.33,7.14
16.774102926254272,3.81,7.79,-6.79,11.01
16.7745201587677,0.57,12.09,-7.27,14.11
16.774940013885498,-3.32,12.75,-0.35,13.17
16.78368592262268,-3.51,10.37,2.4,11.2
16.793702840805054,-0.06,5.61,0.39,5.62
16.80314612388611,1.6,1.3,0.66,2.16
16.81387209892273,-1.16,-0.93,0.21,1.5
16.823904037475586,-3.13,-0.58,-5.56,6.4
16.874019861221313,-0.17,3.27,-5.04,6.01
16.874465942382812,4.85,3.81,-0.42,6.18
16.874897003173828,8.5,1.25,2.36,8.9
16.875333070755005,9.7,-1.22,4.29,10.67
16.875759840011597,9.59,-2.34,4.69,10.92
16.883491039276123,8.09,-2.56,3.79,9.29
16.89358901977539,5.4,-2.34,3.16,6.67
16.902987003326416,3.66,-2.34,3.28,5.44
16.913663148880005,2.59,-2.82,3.45,5.15
16.92382311820984,1.73,-3.09,3.08,4.69
16.974342107772827,0.41,-3.11,2.11,3.78
16.97476887702942,-1.09,-2.96,0.83,3.26
16.97518801689148,-1.41,-2.79,0.52,3.16
16.975605010986328,-0.43,-2.74,1.25,3.04
16.97600483894348,0.92,-2.74,1.95,3.48
16.98335289955139,1.44,-2.6,1.72,3.43
16.99332308769226,0.9,-2.15,0.76,2.45
17.002881050109863,-0.74,-2.09,-0.03,2.21
17.013426065444946,-2.59,-2.23,-0.96,3.55
17.02368998527527,-3.48,-1.8,-2.8,4.81
17.074858903884888,-3.41,-1.41,-4.69,5.96
17.07530403137207,-3.73,-1.39,-4.61,6.09
17.075734853744507,-4.37,-1.66,-3.52,5.85
17.076165914535522,-4.84,-1.55,-3.14,5.97
17.076593160629272,-5.36,-1.01,-3.5,6.48
17.08324098587036,-5.59,-0.67,-4.19,7.01
17.093249082565308,-5.58,-0.14,-4.88,7.41
17.102694988250732,-6.14,0.81,-5.74,8.44
17.113401174545288,-7.18,1.78,-6.91,10.12
17.123550176620483,-8.07,2.34,-7.97,11.58
17.175039052963257,-8.52,1.96,-8.45,12.15
17.175474882125854,-8.69,0.39,-8.41,12.09
17.175902128219604,-8.38,-1.73,-7.98,11.7
17.176342010498047,-7.56,-3.29,-7.44,11.1
17.176778078079224,-6.88,-3.36,-7.2,10.51
17.18311905860901,-6.65,-3.05,-6.77,9.96
17.193061113357544,-6.99,-3.37,-6.09,9.86
17.20255398750305,-7.64,-3.54,-6.14,10.42
17.213173151016235,-8.45,-1.49,-6.84,10.97
17.2232768535614,-5.98,3.63,-5.94,9.17
17.275222063064575,3.57,2.27,0.23,4.23
17.27565097808838,8.72,4.3,11.83,15.31
17.276074171066284,10.32,6.48,15.1,19.4
17.276511907577515,3.62,5.36,3.26,7.24
17.27693486213684,-3.46,4.74,-5.51,8.04
17.28292489051819,-7.19,9.2,-7.78,14.03
17.292929887771606,-5.39,7.87,-15.2,17.94
17.302490949630737,-2.72,6.57,-3.0,7.71
17.312936067581177,-7.66,-0.89,9.73,12.41
17.323211908340454,-8.71,-5.27,-0.31,10.18
17.375755071640015,-7.02,-4.07,-5.22,9.64
17.37619709968567,-5.7,-3.25,-3.64,7.5
17.376621961593628,-3.51,-1.38,-2.84,4.72
17.377052068710327,-1.51,0.67,-1.74,2.39
17.377485036849976,0.43,1.47,-1.7,2.28
17.382750034332275,1.73,1.37,-2.61,3.41
17.39276695251465,1.59,1.01,-2.46,3.09
17.402252912521362,0.2,0.82,-2.3,2.44
17.412861108779907,-0.82,0.59,-2.68,2.86
17.422894954681396,-0.99,0.15,-2.32,2.52
17.477251052856445,-1.2,-0.18,-1.43,1.87
17.47777485847473,-1.35,-0.22,-1.13,1.77
17.47851586341858,-1.28,-0.1,-1.05,1.65
17.478965997695923,-1.21,0.01,-0.63,1.36
17.47944712638855,-1.04,0.02,-0.14,1.04
17.482758045196533,-0.8,-0.02,0.28,0.84
17.492570161819458,-0.72,0.0,0.64,0.96
17.50202488899231,-0.48,0.01,0.58,0.75
17.512677907943726,0.01,0.01,0.42,0.42
17.52263617515564,0.57,0.01,0.19,0.6
17.576526880264282,0.96,0.05,-0.15,0.97
17.57697105407715,0.98,0.08,-0.26,1.01
17.577390909194946,0.89,0.04,0.05,0.89
17.57780909538269,1.05,0.02,0.3,1.09
17.578584909439087,1.4,0.14,0.53,1.5
17.582473039627075,1.49,0.17,0.87,1.73
17.592418909072876,1.37,0.08,1.06,1.73
17.602025032043457,1.31,0.04,1.34,1.87
17.61290192604065,1.22,-0.05,1.45,1.89
17.622740030288696,1.08,-0.11,1.39,1.76
17.677098989486694,0.95,-0.19,1.34,1.65
17.677520990371704,0.95,-0.29,1.46,1.76
17.677921056747437,1.2,-0.18,1.38,1.83
17.678689002990723,1.47,0.08,1.03,1.79
17.679111003875732,1.25,0.51,0.58,1.46
17.682294130325317,0.66,0.66,0.28,0.97
17.692303895950317,0.26,0.63,0.35,0.76
17.70186996459961,0.18,0.54,0.64,0.85
17.71280002593994,0.3,0.5,0.74,0.94
17.722716093063354,0.58,0.56,1.13,1.38
17.77765393257141,0.78,0.81,1.92,2.22
17.778095960617065,0.95,1.02,2.0,2.43
17.77887511253357,1.42,1.77,1.82,2.9
17.77930498123169,1.58,1.93,1.91,3.14
17.779749155044556,1.81,2.13,2.09,3.49
17.782203912734985,2.45,2.39,1.99,3.95
17.79204297065735,2.72,2.73,2.03,4.35
17.801681995391846,2.83,3.24,2.15,4.8
17.812664031982422,2.86,3.73,2.37,5.26
17.822508096694946,2.52,5.15,2.3,6.17
17.878287076950073,3.32,7.14,2.52,8.26
17.87871503829956,4.36,7.7,4.5,9.92
17.879130125045776,4.33,7.94,6.17,10.94
17.879549026489258,4.65,8.67,7.23,12.2
17.879975080490112,4.76,9.41,7.59,12.99
17.88205885887146,4.16,9.72,7.55,12.99
17.891968965530396,4.11,9.06,6.75,12.02
17.901490926742554,3.65,7.44,3.91,9.16
17.912532091140747,4.29,6.95,-0.74,8.2
17.922352075576782,4.17,8.83,-4.17,10.61
17.979315996170044,-0.22,12.06,-3.23,12.48
17.979777097702026,-2.9,12.28,1.2,12.67
17.98020911216736,-0.3,9.86,2.26,10.12
17.980663061141968,2.86,6.34,2.06,7.25
17.981441020965576,2.41,3.45,2.68,4.98
17.98239493370056,-2.31,1.4,1.41,3.04
17.991817951202393,-5.6,1.67,-4.88,7.61
18.00145196914673,-2.05,5.2,-4.71,7.3
18.01209282875061,3.63,6.03,0.46,7.05
18.02206301689148,7.03,3.76,2.57,8.37
18.078973054885864,8.61,0.87,4.15,9.59
18.079406023025513,8.22,-1.24,4.64,9.52
18.079833030700684,6.6,-2.03,3.37,7.68
18.080265045166016,5.32,-2.31,2.81,6.44
18.080697059631348,4.03,-2.39,3.38,5.77
18.081971883773804,2.62,-2.17,3.46,4.85
18.091639041900635,1.27,-2.01,3.13,3.93
18.101220846176147,0.22,-2.08,2.77,3.47
18.111729860305786,-0.08,-2.37,2.35,3.33
18.12208914756775,0.14,-2.73,1.64,3.18
18.17982316017151,0.74,-3.06,1.3,3.4
18.180253982543945,1.93,-3.27,1.93,4.25
18.181056022644043,3.11,-3.2,2.85,5.29
18.181483030319214,3.33,-2.63,2.94,5.16
18.181900024414062,1.06,-2.82,2.07,3.65
18.182844877243042,-1.56,-3.23,-0.66,3.64
18.191601991653442,-1.83,-2.75,-4.08,5.24
18.201173067092896,-2.56,-2.69,-4.35,5.71
18.211747884750366,-2.93,-3.57,-2.4,5.2
18.221758127212524,-2.84,-4.06,-2.17,5.4
18.279899835586548,-3.46,-3.92,-3.64,6.37
18.280399084091187,-4.36,-3.56,-4.97,7.5
18.28117799758911,-5.46,-3.18,-5.78,8.56
18.281620979309082,-6.59,-2.97,-6.33,9.6
18.282056093215942,-7.53,-2.83,-7.39,10.92
18.283000946044922,-8.09,-2.27,-8.73,12.11
18.291401147842407,-7.99,-1.57,-9.57,12.56
18.30094599723816,-7.72,-0.96,-9.93,12.61
18.31141996383667,-8.24,-0.37,-10.06,13.0
18.321686029434204,-9.5,0.09,-10.68,14.29
18.380244970321655,-10.68,0.8,-11.1,15.42
18.381035089492798,-8.42,3.89,-9.42,13.21
18.381454944610596,-4.79,-0.66,-7.57,8.98
18.38187289237976,-9.24,-3.42,-7.66,12.47
18.38229012489319,-8.18,0.68,-5.83,10.06
18.383245944976807,5.47,12.73,14.52,20.06
18.391265153884888,11.38,17.36,12.94,24.46
18.400820016860962,0.27,11.29,-11.8,16.33
18.4114191532135,-3.8,-0.09,0.19,3.8
18.421555995941162,-9.7,-3.8,-1.94,10.59
18.480157136917114,-7.9,-3.65,-6.2,10.68
18.4809410572052,-6.4,-1.79,-4.81,8.2
18.481384992599487,-7.24,-1.74,-5.96,9.53
18.48182201385498,-6.54,0.52,-6.1,8.95
18.482269048690796,-4.74,0.76,-4.87,6.83
18.483193159103394,-1.5,0.17,-3.68,3.97
18.491065979003906,1.05,0.39,-2.12,2.39
18.500663995742798,1.72,0.89,-0.53,2.0
18.511132955551147,0.37,0.88,-0.2,0.97
18.52142596244812,-1.4,0.22,-1.24,1.88
18.58166003227234,-2.05,-0.17,-1.78,2.72
18.58209490776062,-1.84,-0.08,-0.97,2.08
18.582515001296997,-1.51,0.01,-0.71,1.66
18.582937002182007,-1.15,-0.06,-1.04,1.55
18.58333706855774,-0.91,-0.06,-1.34,1.62
18.58425998687744,-0.49,-0.07,-1.37,1.45
18.590914964675903,-0.13,-0.06,-1.02,1.03
18.600515127182007,-0.14,-0.02,-0.56,0.57
18.611062049865723,-0.27,-0.03,-0.08,0.28
18.621258020401,-0.23,-0.08,0.43,0.49
18.681530952453613,-0.09,-0.13,0.83,0.84
18.681972980499268,0.24,-0.11,1.03,1.06
18.6824209690094,0.95,-0.04,1.0,1.37
18.682860136032104,1.73,0.09,0.76,1.89
18.683292150497437,1.85,0.26,0.37,1.9
18.68420386314392,1.55,0.28,0.01,1.57
18.690810918807983,1.15,0.17,0.24,1.18
18.70036005973816,1.1,0.02,0.6,1.25
18.71092200279236,1.29,-0.03,0.91,1.57
18.72110605239868,1.22,-0.06,1.22,1.72
18.782088041305542,1.02,-0.14,1.41,1.74
18.78251600265503,0.84,-0.16,1.24,1.5
18.78293800354004,0.65,-0.17,0.71,0.97
18.78335690498352,0.62,-0.1,0.26,0.67
18.783771991729736,0.71,0.09,-0.02,0.71
18.784737825393677,0.75,0.35,0.07,0.83
18.790689945220947,0.86,0.47,0.53,1.11
18.800463914871216,1.12,0.55,0.97,1.58
18.810752153396606,1.39,0.43,1.64,2.19
18.82097315788269,1.83,0.46,2.45,3.09
18.8819100856781,2.49,0.93,2.25,3.48
18.88233208656311,2.59,1.35,2.01,3.54
18.882753133773804,2.02,1.69,1.57,3.06
18.883168935775757,2.06,2.41,1.2,3.38
18.883579969406128,2.6,3.24,1.73,4.5
18.884483098983765,2.25,3.55,2.68,4.98
18.890570878982544,2.71,3.77,3.22,5.65
18.90014100074768,2.95,4.4,3.88,6.56
18.910671949386597,2.7,6.44,3.61,7.86
18.920825004577637,3.99,9.24,3.06,10.51
18.983102083206177,5.01,9.38,4.95,11.72
18.983526945114136,3.49,9.54,6.14,11.86
18.983946084976196,3.37,10.61,7.3,13.31
18.98436403274536,4.62,11.5,7.39,14.42
18.984779119491577,5.91,11.6,6.65,14.61
18.985713958740234,5.26,10.06,5.59,12.65
18.99040389060974,4.32,8.15,2.43,9.53
18.999820947647095,4.33,7.02,-2.53,8.62
19.010441064834595,3.23,7.88,-6.42,10.66
19.02061700820923,-0.39,11.39,-5.52,12.66
19.083346128463745,-2.63,11.87,-1.41,12.23
19.08378291130066,-0.19,7.94,-0.58,7.96
19.084212064743042,2.21,2.78,-0.25,3.56
19.08464503288269,-0.06,-0.64,0.73,0.97
19.085068941116333,-3.01,-0.6,-4.3,5.28
19.08597493171692,0.71,3.18,-3.33,4.65
19.090227842330933,5.88,3.68,1.39,7.07
19.099764108657837,9.48,1.61,3.63,10.27
19.110327005386353,10.48,-0.17,5.08,11.64
19.12054204940796,8.74,-1.22,4.95,10.11
19.183714151382446,6.74,-1.77,3.78,7.92
19.184147119522095,4.84,-2.19,2.38,5.82
19.184563875198364,3.47,-2.6,1.7,4.65
19.18498206138611,2.51,-3.05,1.93,4.39
19.185399055480957,1.67,-3.61,2.37,4.63
19.186322927474976,0.77,-3.87,2.14,4.48
19.19013500213623,-0.12,-4.1,1.5,4.36
19.199650049209595,-0.57,-4.24,1.02,4.39
19.210124969482422,-0.44,-4.28,0.94,4.4
19.220266103744507,0.1,-4.22,0.92,4.32
19.284690141677856,0.79,-4.07,0.96,4.25
19.28511905670166,1.01,-3.97,0.75,4.16
19.285539865493774,0.88,-4.1,0.56,4.23
19.28596305847168,0.39,-4.42,0.58,4.47
19.28638005256653,-0.01,-4.86,0.52,4.88
19.287333965301514,-0.1,-4.99,0.19,4.99
19.2899329662323,-0.56,-4.77,-0.83,4.87
19.29946994781494,-0.9,-4.6,-1.92,5.06
19.31006097793579,-1.54,-4.44,-2.12,5.15
19.32023000717163,-3.1,-4.24,-2.32,5.74
19.38415789604187,-4.46,-3.92,-2.79,6.56
19.384605169296265,-5.48,-3.35,-2.78,6.99
19.3850359916687,-6.57,-2.46,-3.38,7.78
19.385473012924194,-7.24,-1.43,-5.17,9.01
19.38590407371521,-7.73,-0.19,-7.13,10.51
19.386883974075317,-8.64,1.14,-8.72,12.32
19.38983988761902,-9.73,2.1,-9.68,13.88
19.399322986602783,-10.4,2.32,-9.56,14.31
19.409919023513794,-11.06,2.32,-9.44,14.72
19.420142889022827,-10.87,1.36,-9.76,14.67
19.48519492149353,-9.66,-0.85,-7.47,12.24
19.485641956329346,-8.59,0.32,-6.51,10.78
19.48606514930725,-5.45,-1.35,-7.19,9.12
19.486484050750732,-7.28,-2.53,-7.32,10.62
19.486911058425903,1.63,8.07,4.95,9.6
19.48784899711609,18.76,12.42,26.57,34.81
19.489617109298706,14.4,10.7,4.08,18.39
19.499135971069336,-0.9,12.47,-9.57,15.74
19.509764909744263,-10.45,3.65,-4.79,12.06
19.51995015144348,-12.04,-4.96,-2.8,13.31
19.52912998199463,-11.77,-3.18,1.09,12.24
19.585736989974976,-9.72,-3.54,-4.21,11.16
19.586188077926636,-6.84,-2.13,-7.06,10.05
19.58663010597229,-4.5,-0.01,-6.06,7.54
19.587064027786255,-2.71,0.85,-3.53,4.53
19.58802103996277,-0.62,0.72,-2.85,3.0
19.589454889297485,1.56,0.37,-3.13,3.51
19.599077939987183,1.78,0.54,-2.01,2.73
19.609593152999878,-0.22,0.54,-0.48,0.75
19.619765996932983,-1.37,0.36,-0.54,1.51
19.629034996032715,-1.0,0.4,-1.02,1.48
19.68604803085327,-0.6,0.31,-0.75,1.0
19.68647789955139,-0.18,0.27,-0.82,0.88
19.68689513206482,0.07,0.25,-1.02,1.05
19.687310934066772,0.24,0.23,-1.16,1.2
19.688209056854248,0.69,0.06,-1.27,1.44
19.6894690990448,0.92,-0.09,-1.37,1.65
19.69888186454773,0.36,-0.24,-1.03,1.11
19.709460973739624,-0.45,-0.29,-0.36,0.64
19.71960186958313,-0.84,-0.11,0.19,0.86
19.72889804840088,-0.7,0.06,0.71,0.99
19.786250829696655,-0.56,0.05,1.13,1.26
19.78667902946472,-0.58,0.06,1.02,1.17
19.787107944488525,-0.44,0.12,0.41,0.61
19.787553071975708,-0.04,0.21,0.21,0.29
19.788810968399048,0.44,0.33,0.44,0.7
19.789708852767944,0.92,0.28,0.4,1.04
19.79949402809143,1.11,0.15,0.59,1.26
19.809324979782104,1.16,0.02,1.19,1.66
19.819538831710815,1.25,-0.18,1.77,2.17
19.828747987747192,1.13,-0.37,2.06,2.37
19.88646912574768,1.34,-0.47,1.89,2.36
19.886915922164917,1.93,-0.33,1.42,2.41
19.887355089187622,2.02,0.07,0.86,2.19
19.887786149978638,1.63,0.4,0.25,1.69
19.889080047607422,1.29,0.49,0.35,1.42
19.890023946762085,1.27,0.42,0.99,1.66
19.89863395690918,1.36,0.4,1.55,2.1
19.909228086471558,1.55,0.64,1.64,2.34
19.919387102127075,1.64,1.11,1.55,2.51
19.928548097610474,1.66,1.78,1.64,2.93
19.986971139907837,1.94,2.06,1.77,3.33
19.98740005493164,1.89,2.45,2.14,3.76
19.987839937210083,2.22,2.51,2.7,4.3
19.988590955734253,2.77,2.76,2.96,4.9
19.98952317237854,3.36,3.17,3.06,5.54
19.990433931350708,3.6,3.63,3.28,6.07
19.998430967330933,3.38,4.31,3.6,6.55
20.009044885635376,3.01,6.0,3.78,7.7
20.01912498474121,3.28,9.09,3.95,10.43
20.02849793434143,5.28,10.84,6.1,13.51
20.08738398551941,5.36,10.92,7.6,14.34
20.088183164596558,4.96,11.47,7.17,14.4
20.088616132736206,5.32,12.21,7.23,15.15
20.089038133621216,4.5,11.03,7.53,14.09
20.08998417854309,3.61,8.43,4.9,10.39
20.090890169143677,4.19,6.83,-1.24,8.1
20.09824299812317,3.93,8.31,-7.06,11.59
20.108890056610107,-0.54,12.33,-6.37,13.88
20.119065046310425,-3.94,12.81,-1.2,13.45
20.12832808494568,-2.52,8.71,-0.19,9.06
20.187837839126587,1.29,3.16,-0.13,3.41
20.188575983047485,0.85,-1.0,1.4,1.91
20.18899416923523,-2.44,-2.18,-2.72,4.25
20.189414024353027,-0.24,1.53,-3.88,4.17
20.190338850021362,4.48,2.7,1.23,5.37
20.191252946853638,8.11,0.16,3.79,8.95
20.198042154312134,10.39,-1.82,4.87,11.61
20.208739042282104,9.71,-2.64,4.8,11.14
20.218815088272095,7.79,-3.14,3.91,9.26
20.22808289527893,5.63,-3.34,2.96,7.18
20.289117097854614,4.3,-2.98,2.03,5.61
20.289567947387695,3.95,-2.62,1.6,5.0
20.290019989013672,3.64,-2.46,1.62,4.68
20.29046893119812,3.03,-2.1,1.43,3.95
20.291444063186646,2.31,-1.94,1.52,3.37
20.292364835739136,1.48,-2.04,2.42,3.49
20.29795813560486,0.47,-2.11,2.86,3.58
20.308603048324585,-0.45,-1.66,1.58,2.33
20.318882942199707,-0.43,-1.04,0.33,1.17
20.32790994644165,-0.65,-0.69,0.16,0.96
20.38979697227478,-1.4,-0.06,-0.81,1.61
20.390236139297485,-2.53,0.07,-1.36,2.87
20.39065909385681,-3.29,0.67,-3.03,4.52
20.391077995300293,-3.64,1.03,-5.85,6.96
20.392009973526,-4.06,0.7,-5.33,6.73
20.392925024032593,-3.93,-0.56,-2.55,4.71
20.397772073745728,-3.69,-1.18,-1.46,4.14
20.40837597846985,-3.91,-1.01,-2.43,4.71
20.41855502128601,-4.88,-0.89,-3.73,6.2
20.42783498764038,-5.7,-1.2,-4.93,7.63
20.490101099014282,-5.92,-1.59,-5.24,8.06
20.490546941757202,-7.15,-1.35,-6.38,9.67
20.490978956222534,-9.13,-1.04,-8.78,12.7
20.49143099784851,-10.89,-0.7,-10.77,15.33
20.492354154586792,-11.94,-1.36,-11.19,16.42
20.493289947509766,-12.21,-3.37,-11.0,16.77
20.49755883216858,-10.52,-4.77,-10.26,15.44
20.508236169815063,-8.52,-4.88,-8.66,13.09
20.518412828445435,-7.7,-4.8,-7.94,12.05
20.527775049209595,-6.74,-5.21,-8.09,11.74
20.59073805809021,-6.01,-6.21,-7.76,11.61
20.591179132461548,-5.67,-6.85,-6.63,11.09
20.591601133346558,-5.82,-6.76,-5.74,10.6
20.592017889022827,-6.78,-4.18,-5.58,9.72
20.592971086502075,-4.79,3.43,-4.9,7.66
20.593886137008667,7.96,4.58,4.04,10.03
20.59736704826355,20.51,14.17,22.42,33.52
20.608139038085938,10.46,38.51,-2.34,39.97
20.618268966674805,4.75,24.71,-24.05,34.8
20.62756896018982,6.46,-8.62,2.4,11.03
20.684955835342407,-7.49,-17.31,8.62,20.73
20.685413122177124,-14.45,-10.75,-1.26,18.05
20.685853004455566,-15.94,-5.91,-5.4,17.83
20.68629288673401,-12.47,-1.65,-4.37,13.31
20.68762993812561,-6.24,1.66,0.01,6.45
20.68852210044861,-1.6,1.64,1.21,2.59
20.69745898246765,2.34,1.14,-0.39,2.63
20.70799994468689,4.69,1.3,-2.96,5.69
20.718217134475708,4.34,0.98,-3.05,5.39
20.727429151535034,1.21,1.01,-1.6,2.24
20.78630805015564,-0.83,0.68,-2.42,2.64
20.78677201271057,-1.48,0.3,-3.03,3.38
20.78752303123474,-1.75,0.15,-2.94,3.42
20.787961959838867,-1.83,0.1,-2.15,2.82
20.788895845413208,-1.62,-0.01,-1.14,1.98
20.78979992866516,-0.96,0.04,-0.76,1.22
20.797348022460938,0.04,0.26,-0.65,0.7
20.807875871658325,0.64,0.35,-0.54,0.9
20.817957162857056,0.41,0.19,-0.1,0.46
20.82731604576111,0.01,-0.08,0.42,0.42
20.88708806037903,-0.16,-0.24,0.7,0.75
20.887730836868286,-0.12,-0.37,0.52,0.64
20.888165950775146,0.04,-0.22,0.14,0.26
20.88860297203064,0.28,0.09,-0.04,0.29
20.88958716392517,0.48,0.3,0.03,0.56
20.890487909317017,0.57,0.34,0.5,0.83
20.897336959838867,0.68,0.25,1.37,1.54
20.907811880111694,1.03,0.2,1.71,2.0
20.917834997177124,1.11,0.27,1.47,1.86
20.92724895477295,0.86,0.23,0.97,1.31
20.98693013191223,0.65,0.17,0.7,0.97
20.98757815361023,0.55,0.04,0.87,1.03
20.98802399635315,0.45,0.02,1.06,1.15
20.98843789100647,0.62,0.0,0.98,1.15
20.989411115646362,1.13,0.12,0.79,1.38
20.99040389060974,1.54,0.45,0.8,1.79
20.997249841690063,1.52,0.77,0.84,1.89
21.007539987564087,1.47,0.91,0.96,1.97
21.01776385307312,1.42,0.86,1.65,2.34
21.026939153671265,1.53,0.97,1.91,2.63
21.088072061538696,1.26,1.35,1.74,2.53
21.088495016098022,0.56,1.56,1.87,2.49
21.08890414237976,0.57,1.61,1.82,2.49
21.089311838150024,1.01,1.8,2.25,3.05
21.090255975723267,1.64,2.06,2.38,3.54
21.091166019439697,2.4,2.39,2.68,4.31
21.097121953964233,3.33,2.73,3.25,5.39
21.1074960231781,4.17,3.23,3.72,6.45
21.117496013641357,4.49,4.84,3.66,7.54
21.126829862594604,4.83,8.14,2.85,9.88
21.187644004821777,6.57,10.0,4.15,12.66
21.188081979751587,6.13,9.71,6.55,13.21
21.188516855239868,5.26,9.61,8.21,13.69
21.18896794319153,5.6,10.15,8.45,14.34
21.189929962158203,5.66,10.41,7.87,14.22
21.190840005874634,4.7,9.34,7.17,12.67
21.196714162826538,4.25,7.64,3.75,9.51
21.20732092857361,4.53,6.84,-2.01,8.44
21.217324018478394,4.62,8.52,-7.24,12.09
21.22670292854309,2.05,12.5,-6.24,14.12
21.28796100616455,-2.32,13.62,-0.79,13.83
21.28839898109436,-4.45,9.15,1.3,10.25
21.288843870162964,-3.55,3.52,1.47,5.21
21.28929114341736,0.67,0.43,2.28,2.41
21.290241956710815,-1.37,-0.2,-1.4,1.96
21.291144132614136,-1.11,3.44,-5.49,6.57
21.296566009521484,3.74,6.09,-0.59,7.17
21.30723786354065,7.13,3.84,2.89,8.59
21.317242860794067,10.02,0.74,4.64,11.06
21.326599836349487,10.33,-1.38,5.0,11.55
21.388864994049072,7.93,-2.36,3.64,9.03
21.389293909072876,5.45,-2.53,2.47,6.49
21.389713048934937,3.88,-2.41,2.11,5.03
21.390130043029785,3.56,-2.46,2.47,4.98
21.39106583595276,3.54,-2.86,3.0,5.45
21.391985177993774,2.94,-2.89,2.73,4.94
21.396383047103882,1.94,-2.64,1.93,3.8
21.40700101852417,0.88,-2.5,1.0,2.83
21.417083978652954,0.34,-2.51,1.1,2.76
21.426385164260864,0.49,-2.75,1.53,3.18
21.489426851272583,1.17,-2.73,1.44,3.3
21.489875078201294,1.15,-2.38,1.33,2.95
21.49031901359558,0.31,-2.31,0.67,2.42
21.490757942199707,-1.17,-2.76,-0.23,3.0
21.491706132888794,-2.46,-2.66,-1.79,4.04
21.492655992507935,-2.82,-2.53,-3.5,5.15
21.496211051940918,-3.44,-2.28,-4.21,5.89
21.506820917129517,-4.43,-2.42,-3.22,5.98
21.516888856887817,-5.38,-2.66,-2.42,6.47
21.52632999420166,-6.07,-2.09,-3.07,7.11
21.59010100364685,-6.54,-1.21,-4.44,7.99
21.5905339717865,-6.62,-0.38,-5.74,8.77
21.590965032577515,-6.69,0.48,-6.54,9.36
21.591384172439575,-7.36,1.05,-6.76,10.04
21.5923330783844,-8.66,1.28,-7.09,11.26
21.593265056610107,-9.93,0.81,-8.77,13.27
21.596025943756104,-10.63,-0.2,-11.15,15.4
21.60665202140808,-10.48,-1.55,-11.91,15.93
21.616878986358643,-10.12,-2.61,-9.99,14.45
21.626118898391724,-9.93,-3.41,-7.67,13.0
21.69061017036438,-9.64,-4.02,-7.08,12.61
21.691056966781616,-9.07,-4.27,-7.24,12.36
21.691503047943115,-9.05,-2.02,-7.49,11.91
21.69193696975708,-8.63,2.56,-6.23,10.94
21.692875146865845,1.83,-1.46,-3.78,4.44
21.693778038024902,13.33,7.25,11.81,19.22
21.69618582725525,20.16,10.98,19.99,30.43
21.706557035446167,5.82,18.44,-9.12,21.37
21.716691970825195,-2.43,21.11,-17.78,27.7
21.725960969924927,-2.75,0.6,-11.57,11.9
21.7906711101532,-6.74,-8.44,6.46,12.58
21.79110097885132,-8.84,-9.59,3.19,13.42
21.791520833969116,-9.86,-5.57,-7.95,13.83
21.791938066482544,-10.41,-2.3,-7.22,12.87
21.792866945266724,-6.9,0.05,-3.98,7.96
21.793771028518677,-3.55,0.98,-1.22,3.87
21.795789003372192,-1.99,0.58,0.81,2.22
21.80638098716736,0.09,0.55,-0.64,0.84
21.81658911705017,2.29,0.88,-2.13,3.24
21.825827836990356,1.4,0.93,-1.78,2.44
21.891584157943726,-0.86,0.85,-0.97,1.55
21.892038106918335,-1.4,0.43,-0.85,1.69
21.89246392250061,-0.93,-0.01,-1.15,1.47
21.892904043197632,-0.48,-0.03,-1.57,1.64
21.893839120864868,-0.23,0.19,-1.9,1.92
21.89476990699768,-0.02,0.28,-2.04,2.05
21.89574098587036,0.04,0.29,-1.93,1.95
21.90621590614319,-0.06,0.17,-1.32,1.33
21.916473150253296,-0.29,0.06,-0.58,0.65
21.925673007965088,-0.39,-0.03,-0.13,0.41
21.992146968841553,-0.34,-0.04,0.21,0.4
21.992578983306885,-0.23,0.01,0.4,0.46
21.99300217628479,-0.17,0.03,0.3,0.34
21.993402004241943,-0.17,0.02,0.27,0.31
21.99432682991028,-0.15,-0.01,0.29,0.32
21.995609998703003,-0.08,-0.03,0.17,0.19
21.99602699279785,0.07,0.05,0.13,0.15
22.006083965301514,0.54,0.15,0.25,0.61
22.01607894897461,1.3,0.41,0.43,1.42
22.02541708946228,1.63,0.6,0.65,1.85
22.092600107192993,1.22,0.46,0.85,1.55
22.09303307533264,0.62,0.25,1.16,1.33
22.093451023101807,0.33,0.11,1.4,1.44
22.093880891799927,0.56,-0.08,1.34,1.45
22.094865083694458,1.2,-0.19,1.3,1.77
22.096113920211792,1.88,-0.13,1.15,2.2
22.096534967422485,2.08,-0.03,0.97,2.29
22.105937004089355,1.67,0.12,0.63,1.78
22.1158390045166,1.28,0.36,0.21,1.34
22.125416040420532,0.9,0.53,0.16,1.05
22.192879915237427,0.72,0.63,0.8,1.24
22.193320989608765,1.46,0.91,1.6,2.34
22.19374704360962,2.07,1.1,2.13,3.16
22.19417905807495,1.75,1.49,1.8,2.91
22.195441961288452,1.14,1.96,1.63,2.79
22.196368932724,0.66,2.1,1.6,2.72
22.196794986724854,0.53,2.03,1.98,2.88
22.205794095993042,1.15,2.12,2.24,3.29
22.215726137161255,2.2,2.47,2.68,4.25
22.225263833999634,3.1,3.21,2.94,5.34
22.29275393486023,3.76,4.66,2.94,6.67
22.2931649684906,4.28,7.09,2.42,8.62
22.29358196258545,5.49,8.4,3.39,10.59
22.293997049331665,4.84,8.28,5.32,10.96
22.295296907424927,4.04,8.62,6.96,11.79
22.29620599746704,4.47,9.54,7.51,12.93
22.29662299156189,5.56,10.2,7.4,13.77
22.30569100379944,5.07,9.21,6.88,12.56
22.31572985649109,4.17,7.37,4.77,9.71
22.325184106826782,4.31,5.81,0.65,7.26
22.39388394355774,4.46,5.96,-3.54,8.24
22.394325017929077,3.29,8.59,-6.53,11.28
22.395087957382202,0.1,11.01,-3.4,11.52
22.395506143569946,-2.71,9.69,0.72,10.08
22.39642882347107,-2.7,5.99,0.55,6.59
22.397351026535034,0.15,2.21,0.21,2.22
22.39795994758606,1.54,-0.22,1.17,1.94
22.405500173568726,-0.52,-0.38,-2.41,2.49
22.415766954421997,1.28,3.2,-4.38,5.57
22.42498803138733,5.37,4.45,-0.79,7.01
22.49454402923584,8.09,2.2,1.64,8.54
22.49529004096985,9.72,0.22,3.45,10.31
22.495711088180542,9.4,-1.05,4.07,10.29
22.496134996414185,7.66,-1.69,3.17,8.46
22.49707007408142,5.98,-1.86,2.2,6.63
22.498181104660034,4.47,-1.98,1.99,5.27
22.49860692024231,3.28,-2.14,2.12,4.45
22.5052809715271,2.47,-2.24,2.19,3.98
22.515777826309204,1.66,-2.37,1.82,3.41
22.52480387687683,0.67,-2.48,1.16,2.81
22.595285177230835,-0.1,-2.34,0.44,2.38
22.595908880233765,-0.21,-2.16,0.14,2.17
22.596333026885986,0.21,-2.14,0.23,2.16
22.596752882003784,0.65,-2.33,0.38,2.44
22.597709894180298,0.88,-2.63,0.37,2.79
22.598832845687866,0.96,-2.66,0.47,2.86
22.599272966384888,0.77,-2.87,0.51,3.01
22.605247020721436,0.19,-3.29,0.1,3.29
22.678576946258545,-0.66,-3.36,-1.43,3.71
22.679007053375244,-1.21,-3.25,-2.43,4.23
22.67943000793457,-1.61,-3.22,-1.69,3.97
22.679851055145264,-1.77,-3.05,-1.17,3.71
22.68027091026306,-2.17,-2.5,-1.88,3.8
22.680689096450806,-3.32,-1.87,-3.15,4.94
22.68184494972229,-5.0,-1.46,-4.73,7.03
22.684993982315063,-6.51,-1.23,-6.35,9.17
22.694514989852905,-7.73,-0.82,-7.62,10.88
22.705225944519043,-8.5,-0.25,-8.3,11.88
22.779825925827026,-9.14,-0.05,-8.69,12.61
22.78026509284973,-9.63,-0.45,-8.52,12.86
22.780688047409058,-9.69,-1.12,-8.04,12.64
22.781111001968384,-8.94,-1.48,-7.63,11.84
22.781720876693726,-7.72,-1.33,-7.04,10.53
22.782227039337158,-6.69,-1.25,-6.33,9.29
22.783195972442627,-5.96,-1.49,-5.78,8.43
22.784894943237305,-5.98,-0.64,-5.69,8.27
22.794376134872437,-4.15,1.78,-5.93,7.45
22.804951906204224,-2.15,-1.2,-4.97,5.54
22.88026785850525,-7.15,-0.71,-5.26,8.9
22.880707025527954,-0.31,9.58,6.47,11.56
22.88113284111023,12.28,12.76,22.63,28.73
22.88176989555359,5.58,12.61,-4.98,14.66
22.88229489326477,-5.78,10.69,-6.03,13.56
22.8827121257782,-9.09,-0.57,-2.73,9.5
22.88364601135254,-8.66,-1.79,-2.89,9.3
22.884933948516846,-8.02,-2.1,0.21,8.29
22.8941810131073,-7.27,-4.06,-2.95,8.83
22.904847860336304,-6.28,-3.05,-6.96,9.85
22.978970050811768,-4.17,-0.64,-7.23,8.37
22.98073101043701,-2.07,0.4,-4.95,5.38
22.981159925460815,-0.52,0.65,-3.59,3.68
22.981807947158813,0.61,0.81,-2.33,2.54
22.982250928878784,1.93,0.81,-1.16,2.39
22.98266100883484,1.76,0.71,0.11,1.9
22.9836208820343,-0.23,0.32,0.52,0.65
22.984910011291504,-1.6,-0.03,0.0,1.6
22.99404215812683,-1.74,-0.09,-0.14,1.74
23.004576921463013,-1.38,-0.13,-0.15,1.39
23.079399824142456,-0.78,-0.1,-0.04,0.78
23.081169843673706,-0.08,0.02,-0.48,0.48
23.081785917282104,0.43,0.1,-1.24,1.31
23.082247018814087,0.43,0.21,-1.5,1.57
23.082656145095825,0.16,0.25,-1.54,1.56
23.08307909965515,-0.05,0.14,-1.39,1.39
23.08437705039978,-0.18,0.04,-0.84,0.86
23.085368871688843,-0.39,-0.04,-0.24,0.45
23.09393811225891,-0.62,-0.08,0.27,0.68
23.10459804534912,-0.57,-0.04,0.56,0.8
23.114670038223267,-0.12,0.06,0.55,0.56
23.18111801147461,0.6,0.16,0.51,0.8
23.181727170944214,1.2,0.19,0.44,1.29
23.182233095169067,1.5,0.24,0.26,1.54
23.182649850845337,1.53,0.29,0.19,1.56
23.183117151260376,1.25,0.19,0.29,1.29
23.184388875961304,0.86,0.07,0.7,1.11
23.18533682823181,0.62,0.01,1.32,1.45
23.19375205039978,0.51,0.0,1.59,1.66
23.204381942749023,0.55,0.01,1.39,1.49
23.214537858963013,0.77,-0.12,1.07,1.32
23.280879974365234,0.97,-0.35,0.44,1.12
23.28131413459778,0.84,-0.38,-0.32,0.97
23.28194499015808,0.37,-0.28,-0.77,0.89
23.282417058944702,-0.07,0.0,-0.73,0.73
23.282859086990356,-0.16,0.23,-0.47,0.54
23.284125089645386,-0.05,0.42,0.12,0.43
23.285069942474365,0.16,0.58,0.72,0.93
23.293588876724243,0.58,0.74,1.5,1.77
23.304258108139038,1.09,1.06,1.96,2.48
23.314356088638306,1.67,1.19,2.38,3.14
23.381070852279663,2.18,1.52,3.04,4.03
23.381497144699097,2.8,2.08,3.01,4.6
23.38210892677307,3.09,2.33,2.52,4.61
23.382614850997925,2.68,2.79,2.42,4.56
23.383363962173462,3.13,3.05,2.39,4.98
23.384286165237427,3.31,3.4,2.79,5.5
23.38518786430359,3.51,3.72,3.19,6.02
23.39347505569458,3.61,4.96,3.39,7.0
23.404095888137817,4.58,6.48,3.71,8.75
23.414323091506958,5.37,6.71,4.58,9.73
23.481231927871704,4.55,6.56,4.83,9.33
23.48185396194458,3.31,6.55,5.75,9.32
23.482311010360718,2.18,6.54,7.07,9.87
23.482748985290527,1.84,7.37,7.11,10.4
23.48353600502014,2.42,8.67,7.33,11.6
23.48449397087097,3.41,8.47,6.8,11.38
23.485440015792847,5.17,6.99,3.25,9.28
23.493383169174194,6.9,6.4,-1.38,9.51
23.503955125808716,6.49,8.76,-5.17,12.06
23.514086961746216,2.24,12.82,-5.14,13.99
23.58200192451477,-1.29,12.71,0.36,12.78
23.582425832748413,-1.11,9.23,2.83,9.71
23.583153009414673,1.85,5.97,1.05,6.33
23.583595991134644,2.95,3.12,0.67,4.34
23.58402395248413,-0.39,1.07,-0.11,1.14
23.584980964660645,-2.74,2.1,-5.09,6.15
23.58595299720764,0.72,5.04,-3.85,6.38
23.59320092201233,4.56,4.11,-0.14,6.14
23.603824853897095,7.27,1.49,1.84,7.64
23.61392092704773,8.46,-0.77,3.21,9.08
23.68275284767151,7.56,-2.49,3.23,8.58
23.683543920516968,6.12,-3.07,3.18,7.54
23.683972120285034,4.88,-3.05,3.21,6.58
23.684401988983154,3.85,-2.93,3.11,5.75
23.684818983078003,2.94,-2.86,3.24,5.22
23.685822010040283,1.83,-2.75,3.41,4.74
23.68675208091736,0.72,-2.62,3.12,4.13
23.693092107772827,0.23,-2.25,2.5,3.37
23.70364999771118,0.26,-2.0,1.81,2.7
23.713730096817017,0.8,-1.98,1.31,2.5
23.783304929733276,1.58,-1.99,1.54,2.97
23.78395700454712,2.09,-1.85,1.61,3.22
23.784393072128296,1.98,-1.78,1.56,3.08
23.78485608100891,0.84,-2.25,0.99,2.59
23.785287141799927,-0.36,-2.72,-0.47,2.78
23.786247968673706,-1.0,-2.71,-2.24,3.65
23.787139177322388,-1.42,-2.62,-3.3,4.44
23.7929208278656,-2.17,-2.61,-3.44,4.83
23.803497076034546,-3.11,-2.85,-3.35,5.38
23.813528060913086,-3.8,-3.0,-3.59,6.02
23.882930040359497,-4.59,-2.7,-3.74,6.5
23.883563995361328,-5.72,-2.07,-4.74,7.71
23.883983850479126,-7.11,-0.91,-7.78,10.57
23.884413957595825,-8.4,1.38,-10.31,13.37
23.88483500480652,-9.76,3.62,-10.82,15.01
23.88578200340271,-11.05,3.86,-10.64,15.81
23.886723041534424,-11.43,2.94,-10.48,15.78
23.892765045166016,-10.31,1.57,-10.26,14.62
23.90333104133606,-8.3,-0.44,-10.04,13.03
23.913389921188354,-6.61,-3.06,-8.95,11.53
23.983104944229126,-6.02,-5.12,-8.19,11.38
23.983722925186157,-7.61,-5.34,-8.01,12.27
23.98414397239685,-10.01,-2.56,-8.11,13.13
23.984566926956177,-6.11,1.58,-6.89,9.34
23.984987020492554,-0.98,4.44,-1.49,4.78
23.985953092575073,2.97,5.9,13.24,14.79
23.98690104484558,10.43,4.56,19.98,22.99
23.99256205558777,8.38,3.55,4.5,10.15
24.00317883491516,-0.44,9.16,-6.11,11.01
24.01343297958374,-8.75,11.96,-11.74,18.9
24.083648920059204,-5.67,7.58,-13.61,16.57
24.084107160568237,-8.67,1.64,1.73,8.99
24.084550142288208,-9.53,-6.77,4.03,12.36
24.08499312400818,-7.36,-5.35,-4.61,10.2
24.085441827774048,-5.62,-2.54,-7.32,9.57
24.08639883995056,-3.49,-0.56,-5.82,6.8
24.087326049804688,-0.98,1.02,-4.7,4.9
24.09247899055481,0.87,1.47,-2.77,3.25
24.103108167648315,1.45,1.0,-1.68,2.43
24.113177061080933,0.79,0.65,-1.4,1.73
24.18336510658264,-0.48,0.45,-0.5,0.82
24.183840036392212,-1.37,0.39,-0.09,1.42
24.1842679977417,-1.35,0.37,-0.4,1.45
24.184706926345825,-0.86,0.13,-0.18,0.88
24.185134172439575,-0.69,0.07,0.19,0.71
24.186103105545044,-0.03,0.09,-0.43,0.44
24.187044858932495,1.25,-0.02,-1.58,2.01
24.19230008125305,1.72,-0.23,-1.64,2.38
24.20321297645569,0.93,-0.56,-0.85,1.37
24.213062047958374,-0.08,-0.56,-0.38,0.68
24.283376932144165,-0.65,-0.16,-0.25,0.71
24.28385615348816,-0.86,0.12,0.1,0.87
24.284291982650757,-0.87,0.11,0.47,0.99
24.284733057022095,-0.59,0.0,0.57,0.82
24.28517508506775,-0.08,0.05,0.52,0.52
24.28613805770874,0.56,0.23,0.54,0.81
24.287078142166138,1.12,0.31,0.54,1.28
24.292195081710815,1.19,0.26,0.41,1.28
24.302639961242676,0.91,0.09,0.21,0.93
24.312793016433716,0.59,-0.12,0.22,0.64
24.38309597969055,0.37,-0.31,0.45,0.65
24.38354802131653,0.52,-0.37,0.85,1.06
24.3839750289917,0.73,-0.31,1.07,1.33
24.384401082992554,0.98,-0.24,0.94,1.37
24.38482689857483,1.29,-0.08,0.75,1.49
24.385810136795044,1.54,-0.01,0.6,1.65
24.386726140975952,2.21,0.1,0.79,2.34
24.39192795753479,2.65,0.13,1.01,2.83
24.402549982070923,2.63,0.17,1.3,2.93
24.412508964538574,2.51,0.09,1.81,3.09
24.482824087142944,2.48,0.32,2.05,3.23
24.48324990272522,2.59,0.75,1.42,3.04
24.483667135238647,2.37,1.09,1.12,2.83
24.484081029891968,1.99,1.52,0.8,2.62
24.484495878219604,1.65,2.1,0.45,2.7
24.485430002212524,1.65,2.8,0.56,3.29
24.486324071884155,1.66,3.74,1.73,4.44
24.491744995117188,1.44,4.24,3.0,5.38
24.502493143081665,2.03,5.25,2.8,6.28
24.512496948242188,3.09,7.26,2.88,8.39
24.58195400238037,4.2,7.24,3.95,9.25
24.58277702331543,4.02,6.98,4.62,9.28
24.583194971084595,3.53,7.57,4.96,9.71
24.583614110946655,3.98,8.85,6.07,11.44
24.584028959274292,4.43,9.64,6.35,12.36
24.584980964660645,4.39,9.92,5.89,12.34
24.585888147354126,4.47,9.63,5.67,12.03
24.591646909713745,4.1,8.29,5.03,10.52
24.602336168289185,3.57,6.44,2.48,7.76
24.612254858016968,3.7,5.44,-2.09,6.9
24.68202495574951,3.56,7.74,-6.17,10.51
24.682841062545776,1.49,12.08,-4.19,12.87
24.683264017105103,-0.54,11.75,-0.13,11.76
24.68368411064148,0.56,6.91,0.85,6.98
24.6840980052948,2.04,2.84,1.03,3.64
24.68505883216858,0.71,0.33,1.82,1.98
24.685949087142944,-2.69,-0.14,-2.17,3.45
24.69149613380432,-0.55,3.24,-2.71,4.25
24.702093839645386,3.53,3.58,1.32,5.19
24.712090015411377,6.79,1.41,3.39,7.71
24.782533884048462,8.58,-0.26,4.99,9.92
24.783169984817505,7.73,-1.48,5.4,9.54
24.783599138259888,5.98,-1.79,4.83,7.89
24.784024953842163,4.24,-1.71,4.22,6.22
24.7844500541687,2.64,-1.7,4.21,5.25
24.785425901412964,1.55,-2.02,4.52,5.18
24.786306142807007,0.99,-2.26,4.52,5.14
24.791298151016235,0.4,-2.23,3.89,4.5
24.80196499824524,-0.39,-2.16,2.9,3.63
24.81193709373474,-1.0,-2.22,2.11,3.22
24.882860898971558,-0.86,-2.45,1.91,3.22
24.883296966552734,-0.26,-2.68,2.18,3.46
24.883721113204956,0.27,-2.75,2.09,3.46
24.884140014648438,0.59,-2.91,1.57,3.35
24.88456416130066,0.46,-3.52,1.07,3.7
24.885530948638916,0.13,-4.15,0.59,4.19
24.886428117752075,-0.37,-4.57,0.36,4.59
24.891294956207275,-0.83,-4.71,0.06,4.78
24.901870012283325,-1.13,-4.35,-0.74,4.55
24.911996126174927,-1.85,-3.45,-2.44,4.61
24.983431100845337,-3.52,-2.22,-4.79,6.34
24.98386311531067,-5.25,-1.08,-6.19,8.18
24.984312057495117,-5.93,-0.45,-5.29,7.95
24.984734058380127,-5.56,0.04,-4.0,6.84
24.985156059265137,-4.95,0.93,-3.94,6.39
24.98617196083069,-4.88,1.81,-5.02,7.23
24.98710608482361,-5.18,1.9,-6.0,8.15
24.991081953048706,-6.25,1.93,-6.34,9.1
25.001782178878784,-8.25,2.54,-7.97,11.74
25.01189684867859,-9.53,2.59,-10.21,14.2
25.08338713645935,-9.45,1.12,-10.94,14.49
25.083817958831787,-8.05,-1.58,-10.2,13.08
25.08426308631897,-6.84,-3.74,-8.32,11.4
25.08468198776245,-7.56,-4.11,-6.94,11.05
25.085099935531616,-7.1,-1.49,-6.58,9.79
25.086114168167114,-5.43,-2.72,-6.46,8.86
25.08704400062561,-5.89,0.45,-3.11,6.67
25.090986013412476,1.34,2.96,7.55,8.21
25.101449966430664,7.45,-0.4,12.03,14.15
25.111632108688354,5.87,0.17,2.69,6.45
25.18409299850464,5.16,7.97,6.29,11.38
25.184542894363403,-1.09,15.39,0.17,15.42
25.185009002685547,-5.76,22.52,-18.33,29.6
25.185439825057983,2.29,14.45,-14.22,20.4
25.18590807914734,-3.64,-4.53,11.44,12.83
25.18690299987793,-11.72,-11.29,4.08,16.77
25.187803030014038,-10.1,-7.47,-9.17,15.55
25.190898180007935,-10.6,-5.59,-8.52,14.7
25.201249837875366,-7.7,-2.01,-5.54,9.69
25.211528062820435,-3.94,1.35,-3.86,5.67
25.283504009246826,-0.54,1.92,-2.6,3.27
25.28393292427063,2.07,1.75,-2.25,3.52
25.28438687324524,3.45,1.56,-2.16,4.35
25.28480315208435,2.29,1.14,-1.67,3.05
25.285218954086304,-0.4,0.93,-1.36,1.69
25.286208868026733,-1.89,0.34,-1.59,2.49
25.287130117416382,-1.9,-0.12,-1.6,2.48
25.29070782661438,-1.58,-0.1,-1.4,2.11
25.30101704597473,-1.38,0.04,-1.25,1.86
25.311384916305542,-0.82,-0.04,-0.94,1.24
25.38471484184265,-0.03,-0.08,-0.46,0.46
25.38517117500305,0.4,-0.16,-0.39,0.58
25.38561701774597,0.51,-0.1,-0.13,0.53
25.386046171188354,0.49,-0.08,0.33,0.59
25.386471033096313,0.57,-0.15,0.49,0.76
25.387439966201782,0.77,-0.08,0.73,1.06
25.38837504386902,0.72,0.0,0.83,1.09
25.390530824661255,0.56,0.04,0.81,0.98
25.400922060012817,0.41,0.03,0.66,0.77
25.411353826522827,0.53,0.04,0.55,0.76
25.483929872512817,0.98,0.12,0.65,1.18
25.48439598083496,1.43,0.14,0.95,1.72
25.484834909439087,1.74,0.13,1.32,2.18
25.48526692390442,1.94,0.11,1.62,2.52
25.48569083213806,1.8,0.01,1.6,2.4
25.48670196533203,1.45,-0.08,1.25,1.91
25.48765206336975,1.03,-0.19,0.82,1.33
25.490404844284058,0.33,-0.23,0.6,0.72
25.500903844833374,-0.02,0.0,0.41,0.41
25.511111974716187,0.23,0.3,0.17,0.41
25.583044052124023,0.77,0.53,0.33,0.99
25.583484888076782,1.48,0.71,0.5,1.71
25.583915948867798,1.87,0.74,1.17,2.32
25.584352016448975,1.71,0.92,2.02,2.8
25.58477807044983,1.67,1.24,1.54,2.58
25.585768938064575,1.5,1.56,1.04,2.4
25.586705923080444,0.81,2.35,1.26,2.78
25.59027886390686,1.0,2.37,2.12,3.33
25.600878953933716,1.61,2.28,1.92,3.38
25.610985040664673,2.12,2.58,2.01,3.89
25.68343186378479,2.33,2.71,2.27,4.23
25.683860063552856,2.56,3.03,2.57,4.72
25.684305906295776,2.88,3.7,2.76,5.44
25.684720993041992,2.93,4.8,3.05,6.39
25.685137033462524,3.18,6.59,2.85,7.85
25.686115980148315,4.15,7.7,4.37,9.77
25.687047958374023,4.02,8.18,6.62,11.26
25.690125942230225,4.23,9.19,7.5,12.59
25.700918912887573,5.82,10.03,7.73,13.93
25.710839986801147,6.37,10.13,7.62,14.18
25.782531023025513,5.65,8.98,7.08,12.75
25.7829749584198,5.22,7.17,3.84,9.66
25.783607006072998,5.24,6.07,-1.64,8.18
25.78412103652954,4.25,7.79,-6.77,11.16
25.78454899787903,1.11,11.85,-6.38,13.5
25.78551983833313,-2.47,12.75,0.08,12.98
25.78649592399597,-3.65,8.4,3.0,9.63
25.7900230884552,-0.89,3.73,1.45,4.09
25.801385164260864,1.18,1.09,0.95,1.86
25.81061291694641,-2.45,-0.15,-0.86,2.6
25.88296103477478,-3.61,1.59,-5.58,6.83
25.883772134780884,1.06,4.57,-2.18,5.17
25.884198904037476,5.03,3.34,1.76,6.28
25.884629011154175,7.88,0.98,4.03,8.9
25.88504695892334,8.64,-1.07,5.82,10.47
25.88599991798401,7.02,-2.3,5.19,9.02
25.88693404197693,5.62,-2.44,3.94,7.28
25.88985514640808,4.73,-2.47,3.67,6.47
25.900660037994385,4.18,-2.4,3.77,6.11
25.910603046417236,3.55,-2.31,4.2,5.96
25.98322892189026,2.45,-2.24,4.25,5.39
25.983665943145752,1.05,-2.07,3.3,4.03
25.984091997146606,0.2,-1.99,2.45,3.16
25.98452115058899,0.17,-2.11,2.13,3.0
25.98496985435486,0.72,-2.19,1.95,3.01
25.985939979553223,1.14,-2.29,1.69,3.06
25.986858129501343,1.32,-2.23,1.7,3.09
25.9896399974823,0.9,-2.17,1.58,2.83
26.0003879070282,-0.31,-2.15,0.86,2.33
26.0103440284729,-1.94,-2.55,-0.4,3.22
26.083872079849243,-2.84,-2.46,-2.71,4.63
26.084300994873047,-2.74,-1.91,-4.73,5.79
26.084726095199585,-3.15,-1.98,-4.41,5.76
26.085142850875854,-3.79,-2.32,-3.37,5.57
26.085559129714966,-4.06,-2.04,-3.68,5.84
26.086595058441162,-4.78,-1.1,-5.18,7.13
26.08758807182312,-6.25,-0.37,-6.87,9.29
26.089522123336792,-7.58,-0.13,-8.01,11.02
26.10040593147278,-7.87,0.03,-8.76,11.77
26.110242128372192,-7.49,0.21,-9.33,11.96
26.184656858444214,-7.48,-0.09,-9.98,12.47
26.185103178024292,-7.93,-1.0,-10.09,12.87
26.18553400039673,-8.28,-2.25,-9.56,12.84
26.18595600128174,-8.4,-3.41,-9.07,12.82
26.186386823654175,-8.09,-4.19,-8.48,12.44
26.187347173690796,-7.59,-4.46,-7.99,11.88
26.18827795982361,-8.24,0.63,-7.6,11.22
26.18935799598694,-5.78,-2.56,-6.98,9.41
26.19997000694275,-5.67,-5.98,-9.38,12.48
26.210234880447388,0.29,7.54,0.26,7.55
26.283797025680542,13.06,12.37,19.16,26.28
26.2846519947052,7.93,12.73,0.09,14.99
26.28511905670166,-0.6,12.83,-11.94,17.53
26.285552978515625,-3.01,0.21,-2.05,3.64
26.285998106002808,-10.92,-1.67,-1.09,11.1
26.286978006362915,-10.1,-4.16,-4.83,11.94
26.287912130355835,-7.51,-2.4,-4.21,8.93
26.289275884628296,-7.34,-1.26,-4.99,8.96
26.299769163131714,-4.67,0.21,-3.87,6.06
26.309978008270264,-2.85,0.36,-2.46,3.78
26.38529896736145,-0.9,0.18,-2.36,2.53
26.385771989822388,0.67,0.61,-2.14,2.32
26.386209964752197,1.43,0.86,-1.96,2.57
26.38663601875305,1.34,0.76,-1.8,2.36
26.387069940567017,0.81,0.57,-1.98,2.21
26.388027906417847,0.74,0.52,-2.23,2.4
26.38935112953186,0.52,0.37,-1.89,1.99
26.389785051345825,0.01,0.09,-1.32,1.32
26.399580001831055,-0.33,-0.15,-0.92,0.98
26.4099018573761,-0.47,-0.31,-0.7,0.89
26.484380960464478,-0.49,-0.29,-0.51,0.76
26.485029935836792,-0.56,-0.27,-0.14,0.63
26.485463857650757,-0.73,-0.21,0.11,0.76
26.485874891281128,-0.78,-0.21,0.38,0.89
26.48629117012024,-0.59,-0.18,0.64,0.88
26.487308025360107,-0.44,-0.11,0.58,0.73
26.488273859024048,-0.35,-0.06,0.39,0.52
26.4890239238739,-0.16,0.01,0.31,0.34
26.49954104423523,0.22,0.1,0.29,0.37
26.509623050689697,0.72,0.2,0.28,0.79
26.584354162216187,1.16,0.23,0.16,1.19
26.584776163101196,1.38,0.21,0.02,1.39
26.585192918777466,1.27,0.17,0.27,1.3
26.585625886917114,1.05,0.15,0.72,1.28
26.586023092269897,1.0,0.15,0.84,1.31
26.586969137191772,0.89,0.17,0.83,1.22
26.587857007980347,0.8,0.17,1.14,1.4
26.588732957839966,1.13,0.13,1.49,1.87
26.599328994750977,1.69,0.08,1.67,2.37
26.609554052352905,2.01,-0.01,1.75,2.66
26.68454909324646,2.27,-0.16,1.88,2.95
26.684970140457153,2.34,-0.13,1.57,2.82
26.685406923294067,2.14,0.14,1.13,2.42
26.6858389377594,1.69,0.45,0.76,1.9
26.68625497817993,0.98,0.76,0.33,1.28
26.687198877334595,0.39,1.03,0.49,1.2
26.6881320476532,0.31,1.07,0.85,1.4
26.68887996673584,0.4,1.19,1.08,1.65
26.699208974838257,0.62,1.34,1.34,1.99
26.709511041641235,0.64,1.71,1.42,2.31
26.783448934555054,0.8,2.76,1.77,3.37
26.78421902656555,1.39,2.91,2.11,3.85
26.784739017486572,1.83,3.1,2.4,4.32
26.785167932510376,2.3,3.31,2.89,4.95
26.78558611869812,2.73,4.22,3.1,5.9
26.78656005859375,3.28,6.55,3.0,7.91
26.78749394416809,5.54,8.49,3.6,10.75
26.78862690925598,6.45,8.27,5.23,11.71
26.799050092697144,5.9,7.87,5.65,11.34
26.809265851974487,5.67,7.94,6.25,11.58
26.88427495956421,4.57,7.7,7.36,11.59
26.88469696044922,4.26,7.91,7.71,11.83
26.885114908218384,5.66,7.72,5.2,10.89
26.88555598258972,6.1,7.06,1.0,9.38
26.885968923568726,6.03,7.53,-2.09,9.87
26.886943101882935,4.84,9.89,-4.81,12.01
26.887887954711914,-0.51,12.11,-3.01,12.48
26.8886559009552,-4.69,10.07,0.63,11.12
26.898942947387695,-2.96,7.06,1.2,7.74
26.90903902053833,1.29,3.96,1.07,4.3
26.985056161880493,0.87,1.3,1.75,2.34
26.985484838485718,-2.72,0.89,-2.19,3.6
26.98592495918274,-0.44,4.36,-3.92,5.87
26.986343145370483,4.51,5.4,0.32,7.04
26.98676896095276,7.79,2.97,3.01,8.86
26.988111972808838,9.3,1.06,4.08,10.21
26.989047050476074,8.99,-0.17,3.98,9.83
26.98946785926819,8.03,-1.03,3.58,8.85
26.998703002929688,6.65,-1.4,3.71,7.74
27.008854150772095,4.93,-1.38,3.66,6.29
27.084667921066284,3.6,-1.29,3.45,5.15
27.085103034973145,2.92,-1.5,3.39,4.71
27.085526943206787,2.49,-1.83,3.37,4.57
27.085964918136597,2.02,-1.99,2.96,4.09
27.086382150650024,1.7,-1.96,2.45,3.56
27.08744215965271,1.57,-1.83,2.17,3.24
27.08872699737549,1.5,-1.77,1.93,3.01
27.089146852493286,1.47,-1.69,1.67,2.79
27.098655939102173,1.32,-1.8,1.84,2.89
27.108927011489868,1.31,-2.08,1.44,2.84
27.1853289604187,1.21,-2.42,1.42,3.05
27.185795068740845,0.77,-2.6,1.33,3.02
27.186233043670654,-0.07,-2.65,0.9,2.79
27.18665385246277,-1.36,-2.63,0.04,2.96
27.18708300590515,-2.47,-2.12,-2.08,3.86
27.188356161117554,-3.47,-1.35,-5.02,6.25
27.18927788734436,-5.22,-0.78,-6.38,8.28
27.189697980880737,-6.8,-1.08,-5.59,8.86
27.19848895072937,-7.58,-1.42,-4.98,9.18
27.208593130111694,-7.6,-0.81,-5.39,9.35
27.285282850265503,-6.92,0.39,-6.09,9.22
27.285762071609497,-5.91,1.58,-6.9,9.22
27.286186933517456,-5.44,2.38,-7.75,9.76
27.28662896156311,-5.91,2.85,-8.28,10.56
27.28707194328308,-7.03,2.87,-9.54,12.19
27.288336992263794,-8.38,2.03,-12.63,15.29
27.28924012184143,-9.0,0.27,-14.68,17.22
27.289663076400757,-10.62,-3.45,-13.29,17.35
27.298316955566406,-13.43,-6.13,-10.02,17.84
27.308491945266724,-12.97,-0.89,-8.57,15.57
27.385801076889038,-5.6,-0.5,-8.29,10.01
27.3862521648407,-2.72,-1.8,-6.66,7.41
27.38668990135193,0.41,7.44,6.37,9.8
27.387171983718872,11.46,9.73,26.58,30.53
27.387909173965454,10.24,6.31,3.04,12.4
27.388864040374756,1.34,12.06,-11.61,16.79
27.389786958694458,-6.34,8.05,-7.98,12.98
27.390220880508423,-7.15,-0.23,-6.02,9.34
27.39816117286682,-8.23,-0.75,2.08,8.52
27.408403158187866,-8.27,-4.08,-1.91,9.41
27.485163927078247,-6.71,-3.69,-8.17,11.19
27.485617876052856,-4.98,-1.58,-8.54,10.01
27.48605513572693,-3.21,0.11,-5.96,6.77
27.486489057540894,-1.44,0.87,-3.84,4.19
27.48692011833191,-0.05,0.93,-2.85,2.99
27.48821997642517,0.5,0.7,-1.78,1.97
27.489134073257446,-0.24,0.53,-0.14,0.59
27.489554166793823,-1.42,0.32,0.41,1.51
27.498021841049194,-1.52,0.24,-0.61,1.65
27.50820803642273,-0.94,0.34,-0.93,1.36
27.517410039901733,-0.78,0.26,-0.77,1.12
27.58551287651062,-0.78,0.09,-0.91,1.2
27.585926055908203,-0.51,-0.05,-1.01,1.13
27.586363077163696,-0.08,-0.06,-1.18,1.18
27.586825132369995,0.21,-0.07,-1.21,1.23
27.588099002838135,0.27,-0.15,-1.04,1.08
27.58902907371521,0.31,-0.15,-0.67,0.75
27.589441061019897,0.38,-0.11,0.11,0.41
27.597848176956177,0.42,-0.05,1.06,1.14
27.60806107521057,0.54,0.02,1.53,1.62
27.61728596687317,0.82,0.14,1.34,1.57
27.685171842575073,0.83,0.25,0.76,1.15
27.685600996017456,0.81,0.2,0.32,0.89
27.686017990112305,0.95,0.04,0.3,0.99
27.68647003173828,1.21,0.01,0.6,1.35
27.687795877456665,1.6,0.03,0.98,1.87
27.6887149810791,1.74,0.03,1.26,2.14
27.689095973968506,1.7,0.03,1.39,2.19
27.69781804084778,1.56,-0.04,1.25,1.99
27.707903146743774,1.11,-0.24,0.9,1.44
27.71717095375061,0.44,-0.27,0.5,0.71
27.78431797027588,-0.1,-0.09,0.14,0.19
27.78474998474121,0.0,0.08,-0.05,0.09
27.785228967666626,0.48,0.25,-0.02,0.54
27.785672903060913,1.09,0.35,0.4,1.21
27.78695297241211,1.52,0.37,0.86,1.78
27.787914037704468,1.74,0.24,1.68,2.43
27.788334131240845,2.11,0.24,2.62,3.37
27.79768705368042,2.25,0.77,2.43,3.4
27.807698965072632,2.12,1.56,1.64,3.1
27.81707000732422,2.24,2.58,1.02,3.56
27.884109020233154,2.19,3.29,1.46,4.21
27.88477396965027,2.01,3.31,2.39,4.55
27.885190963745117,2.85,3.47,2.75,5.26
27.885624170303345,3.32,3.96,3.23,6.09
27.88689684867859,3.49,4.68,3.51,6.81
27.88783288002014,3.6,6.39,3.5,8.12
27.888267040252686,4.68,8.22,3.76,10.17
27.89743399620056,5.33,8.78,5.05,11.44
27.907625913619995,4.35,9.13,5.78,11.64
27.916921854019165,4.0,9.88,7.33,12.93
27.984845876693726,4.82,10.66,8.5,14.46
27.985274076461792,6.14,10.67,6.69,14.01
27.985692977905273,6.53,9.36,5.16,12.52
27.986127138137817,6.4,7.46,2.92,10.25
27.987428903579712,5.82,6.53,-2.16,9.0
27.98836588859558,3.16,8.57,-6.54,11.23
27.98881196975708,-0.62,12.49,-5.25,13.56
27.997249841690063,-2.72,13.19,0.35,13.47
28.00743794441223,-1.16,8.66,1.43,8.85
28.016724824905396,1.56,3.47,-0.43,3.82
28.08438992500305,-0.33,0.19,0.42,0.56
28.085041046142578,-4.18,-1.01,-3.84,5.76
28.08545994758606,-1.25,2.66,-4.28,5.19
28.08589196205139,3.41,3.74,1.06,5.17
28.08717703819275,6.63,1.38,3.47,7.6
28.088106870651245,8.71,-1.06,5.36,10.28
28.088526010513306,8.27,-2.74,6.11,10.64
28.09714102745056,6.79,-3.14,5.02,9.0
28.107522010803223,5.2,-3.04,3.67,7.05
28.116579055786133,4.01,-2.96,3.19,5.91
28.18501114845276,3.39,-3.06,3.29,5.62
28.18543791770935,2.97,-3.19,3.53,5.6
28.185858964920044,2.16,-3.15,3.27,5.02
28.186628103256226,1.1,-2.93,2.46,3.98
28.187575101852417,0.36,-2.73,1.73,3.25
28.188565969467163,0.28,-2.77,1.47,3.14
28.188984155654907,0.92,-3.01,1.64,3.54
28.19700789451599,1.74,-3.0,1.79,3.9
28.20716094970703,2.29,-2.65,1.12,3.67
28.21646809577942,2.23,-2.39,0.4,3.29
28.285197973251343,1.28,-2.47,-0.19,2.78
28.285696029663086,0.17,-2.36,-0.83,2.5
28.286468029022217,-0.92,-2.13,-1.79,2.93
28.28689694404602,-1.7,-1.71,-3.04,3.88
28.287845849990845,-2.31,-1.07,-5.02,5.62
28.28875994682312,-3.34,-0.64,-6.75,7.55
28.28918194770813,-4.62,-0.93,-6.03,7.65
28.296841859817505,-5.88,-1.52,-4.21,7.38
28.307058095932007,-6.85,-1.27,-4.43,8.25
28.316282033920288,-7.45,-0.11,-6.07,9.61
28.385725021362305,-7.77,0.86,-7.76,11.01
28.38646912574768,-8.2,0.83,-8.68,11.96
28.386916875839233,-8.94,0.44,-8.28,12.19
28.387333154678345,-9.83,-0.13,-8.44,12.95
28.388344049453735,-10.43,-1.26,-9.21,13.97
28.389292001724243,-10.47,-2.27,-8.98,13.97
28.38972306251526,-10.22,-2.79,-8.22,13.4
28.39678406715393,-9.82,-3.27,-7.55,12.81
28.40681290626526,-9.95,-2.26,-6.72,12.21
28.41615104675293,-7.39,0.1,-6.42,9.78
28.48614001274109,-3.61,-3.42,-5.96,7.76
28.486759901046753,-1.07,5.53,2.51,6.16
28.487179040908813,13.86,12.49,22.49,29.22
28.48759698867798,14.75,10.8,8.15,20.01
28.48850989341736,0.07,16.5,-12.92,20.95
28.489411115646362,-6.44,6.89,-9.86,13.64
28.48983097076416,-8.76,-4.07,-5.36,11.04
28.49654507637024,-10.89,-4.61,4.0,12.48
28.506624937057495,-10.49,-5.47,-2.88,12.17
28.515969038009644,-8.92,-3.82,-8.55,12.93
28.58589005470276,-7.12,-0.67,-6.11,9.4
28.586541891098022,-4.34,0.72,-2.62,5.12
28.586976051330566,-1.19,0.69,-2.28,2.66
28.587406873703003,1.1,0.88,-3.02,3.33
28.5883891582489,2.22,1.3,-2.55,3.62
28.589336156845093,0.78,1.14,-1.83,2.29
28.58976697921753,-1.29,0.8,-1.53,2.15
28.59643816947937,-1.72,0.51,-1.35,2.24
28.606448888778687,-1.56,0.07,-1.19,1.96
28.615811109542847,-1.51,-0.14,-0.83,1.72
28.686625957489014,-1.08,-0.25,-0.95,1.45
28.68705105781555,-0.14,-0.01,-1.21,1.21
28.68747591972351,0.72,0.2,-1.4,1.58
28.68790102005005,0.97,0.29,-1.16,1.53
28.68884587287903,0.59,0.2,-0.68,0.92
28.689747095108032,0.14,0.11,-0.07,0.19
28.690162897109985,0.05,0.03,0.59,0.59
28.696251153945923,0.3,-0.08,0.86,0.91
28.70633101463318,0.6,-0.09,0.92,1.1
28.715739011764526,0.85,-0.03,0.82,1.18
28.786535024642944,1.0,0.05,0.59,1.16
28.786999940872192,1.27,0.16,0.47,1.36
28.787421941757202,1.47,0.17,0.66,1.62
28.787841081619263,1.43,0.08,1.06,1.78
28.788795948028564,1.17,-0.07,1.22,1.69
28.789724111557007,0.97,-0.17,1.29,1.62
28.79014301300049,0.77,-0.22,1.3,1.52
28.796187162399292,0.52,-0.28,1.13,1.27
28.80627703666687,0.44,-0.28,0.67,0.84
28.815587043762207,0.44,-0.14,0.35,0.57
28.884825944900513,0.63,0.1,0.2,0.66
28.885917901992798,0.77,0.37,0.17,0.87
28.886339902877808,0.88,0.54,0.38,1.1
28.886770009994507,1.17,0.54,0.72,1.47
28.887696027755737,1.58,0.4,1.02,1.92
28.88861894607544,1.76,0.25,1.62,2.4
28.889018058776855,1.76,0.57,1.71,2.51
28.89602494239807,1.81,1.16,1.35,2.53
28.90614104270935,1.79,1.81,1.04,2.74
28.91546893119812,1.33,2.09,1.38,2.83
28.985875844955444,1.11,2.46,2.04,3.38
28.986488103866577,1.83,2.78,2.43,4.12
28.986929178237915,2.37,3.17,2.91,4.91
28.987339973449707,2.72,3.77,3.07,5.57
28.988288164138794,2.97,5.07,2.86,6.53
28.989238023757935,3.46,6.85,2.54,8.08
28.989649057388306,4.43,7.39,3.6,9.33
28.995784997940063,3.9,7.16,4.54,9.33
29.00610899925232,3.68,7.71,5.75,10.29
29.015319108963013,4.53,8.74,7.4,12.31
29.086153030395508,5.95,9.83,6.8,13.35
29.086580991744995,7.23,10.5,5.77,13.99
29.0870201587677,6.88,9.57,5.05,12.82
29.087452173233032,5.95,8.21,2.97,10.56
29.08846402168274,5.23,7.33,-0.78,9.03
29.089426040649414,3.69,7.27,-5.02,9.57
29.089848041534424,0.55,10.18,-6.33,12.0
29.095701932907104,-1.94,12.3,-1.38,12.52
29.10586714744568,-2.0,9.83,1.87,10.2
29.115129947662354,1.36,5.42,0.27,5.59
29.185385942459106,2.28,2.03,0.34,3.07
29.186012983322144,0.19,0.07,-0.39,0.43
29.186447858810425,-0.89,0.77,-5.69,5.81
29.186882972717285,3.04,4.44,-4.23,6.84
29.187877893447876,7.92,3.99,-0.49,8.88
29.188838005065918,11.0,1.46,1.86,11.25
29.18926215171814,11.83,-0.58,3.57,12.37
29.195523977279663,10.44,-2.09,3.99,11.37
29.205618143081665,7.88,-2.9,3.29,9.01
29.214939832687378,5.19,-3.07,2.1,6.38
29.28472900390625,3.54,-2.82,1.48,4.76
29.285764932632446,2.72,-2.78,1.81,4.28
29.286314010620117,1.92,-3.02,2.32,4.26
29.286736965179443,0.84,-3.22,2.22,4.0
29.287682056427002,-0.27,-3.18,1.13,3.38
29.288594961166382,-0.71,-2.7,0.39,2.81
29.28903102874756,-0.24,-2.34,0.93,2.52
29.2954580783844,0.51,-2.44,1.98,3.18
29.305617094039917,0.91,-2.21,1.86,3.02
29.314869165420532,1.02,-1.75,1.27,2.39
29.385896921157837,-0.25,-1.99,0.71,2.12
29.38632297515869,-2.42,-2.18,-0.62,3.31
29.386775016784668,-3.76,-1.72,-2.86,5.02
29.387189149856567,-4.51,-1.09,-5.06,6.86
29.388126134872437,-5.21,-0.83,-5.44,7.57
29.389057874679565,-5.75,-1.48,-3.99,7.15
29.38949203491211,-6.21,-2.2,-3.08,7.27
29.395292043685913,-7.11,-2.2,-3.77,8.34
29.40531301498413,-8.0,-2.2,-4.59,9.48
29.414669036865234,-8.08,-1.77,-5.5,9.93
29.485870122909546,-6.94,-1.07,-5.97,9.21
29.486300945281982,-6.58,-0.29,-6.38,9.16
29.486719846725464,-7.78,0.69,-8.29,11.38
29.48715615272522,-9.02,1.04,-10.12,13.59
29.4881010055542,-9.06,0.25,-9.77,13.32
29.48903203010559,-8.2,-1.38,-8.61,11.96
29.489459991455078,-7.3,-2.76,-7.34,10.71
29.495141983032227,-6.78,-3.45,-6.07,9.73
29.505213975906372,-6.53,-3.5,-5.63,9.3
29.514568090438843,-6.44,-3.44,-5.58,9.18
29.585958003997803,-7.5,-1.67,-5.75,9.59
29.586392164230347,-6.66,-0.22,-6.91,9.59
29.586833000183105,-3.27,-6.15,-7.01,9.88
29.587251901626587,1.31,3.71,-0.03,3.93
29.588211059570312,16.78,13.66,16.92,27.46
29.58914303779602,16.44,22.5,7.29,28.8
29.589574098587036,3.24,22.38,-15.91,27.64
29.59499192237854,1.44,1.74,-13.32,13.51
29.604961156845093,-8.91,-9.39,4.07,13.56
29.614408016204834,-13.82,-9.07,3.93,16.99
29.686054944992065,-12.11,-5.83,-1.77,13.55
29.686486959457397,-12.53,-4.11,-3.91,13.75
29.686936140060425,-9.66,-1.41,-2.9,10.18
29.68735098838806,-5.18,0.04,-0.94,5.26
29.688310861587524,-1.45,0.32,-0.13,1.49
29.689260959625244,2.0,0.89,-1.98,2.95
29.689679861068726,3.99,1.65,-3.5,5.55
29.694700002670288,2.56,1.73,-2.29,3.84
29.704946994781494,-0.58,1.4,-1.68,2.26
29.714246034622192,-1.79,0.61,-2.58,3.19
29.785917043685913,-1.37,0.05,-3.03,3.32
29.786389112472534,-0.92,-0.21,-2.71,2.86
29.78683304786682,-0.6,-0.2,-1.96,2.05
29.78725004196167,-0.31,-0.15,-1.4,1.44
29.788233041763306,-0.19,0.01,-0.87,0.89
29.789154052734375,-0.22,0.09,-0.29,0.37
29.789571046829224,-0.32,0.15,-0.01,0.35
29.794679880142212,-0.32,0.18,0.15,0.39
29.80479097366333,-0.34,0.13,0.29,0.46
29.814112901687622,-0.23,0.02,0.32,0.39
29.88611102104187,-0.09,-0.09,0.27,0.29
29.88654899597168,-0.11,-0.1,-0.02,0.15
29.886981964111328,0.1,0.02,-0.39,0.4
29.8874089717865,0.35,0.15,-0.47,0.6
29.888373136520386,0.44,0.19,-0.35,0.59
29.889296054840088,0.75,0.2,-0.04,0.77
29.889713048934937,1.11,0.2,0.45,1.21
29.894479036331177,1.04,0.16,0.74,1.28
29.90459704399109,0.5,0.05,0.71,0.86
29.9139621257782,-0.01,-0.14,0.81,0.82
29.98623299598694,-0.2,-0.2,0.96,1.0
29.98670506477356,-0.04,-0.12,0.89,0.89
29.98715305328369,0.27,-0.06,0.81,0.85
29.98759913444519,0.57,0.01,0.76,0.95
29.988531827926636,0.73,0.13,0.66,0.99
29.989514112472534,1.06,0.29,0.6,1.25
29.98993992805481,1.54,0.37,0.73,1.74
29.99432396888733,1.64,0.37,1.12,2.02
30.004323959350586,1.49,0.32,1.6,2.2
30.013813018798828,1.46,0.37,1.84,2.37
30.085567951202393,1.61,0.69,1.6,2.37
30.086145162582397,1.7,0.84,2.38,3.04
30.086562871932983,2.21,1.44,2.47,3.61
30.086981058120728,2.74,1.81,2.08,3.88
30.087964057922363,2.06,2.15,2.17,3.68
30.08890199661255,2.06,2.38,2.13,3.8
30.089301824569702,2.37,2.69,2.47,4.35
30.09419894218445,2.66,3.04,2.61,4.8
30.10409712791443,2.96,3.8,2.71,5.52
30.11365008354187,2.99,5.5,2.43,6.71
30.185868978500366,4.19,7.57,2.36,8.96
30.186291933059692,5.11,7.41,4.25,9.95
30.186705827713013,3.76,7.35,4.77,9.53
