time,ax,ay,az,atotal
0.003468036651611328,-0.14,-0.03,0.39,0.41
0.01373291015625,0.03,0.85,-0.38,0.93
0.023406982421875,-0.1,0.79,-0.48,0.92
0.03612089157104492,0.0,-0.01,0.11,0.11
0.04346585273742676,0.06,-0.34,0.43,0.55
0.06650781631469727,0.01,0.0,0.05,0.05
0.06814384460449219,0.08,0.09,-0.29,0.31
0.07282400131225586,0.08,0.12,-0.24,0.27
0.08391690254211426,0.07,0.09,-0.14,0.18
0.09313201904296875,0.01,-0.01,-0.01,0.01
0.10298490524291992,0.02,-0.04,0.07,0.08
0.1129307746887207,-0.03,0.01,0.14,0.14
0.1229088306427002,0.01,-0.04,0.12,0.12
0.1357407569885254,0.05,-0.05,0.02,0.07
0.1426708698272705,0.06,0.01,0.07,0.09
0.16609477996826172,0.07,-0.06,0.15,0.17
0.1677718162536621,-0.03,-0.05,0.11,0.12
0.17238187789916992,-0.01,0.0,0.08,0.08
0.18456792831420898,0.06,-0.01,-0.03,0.06
0.19229602813720703,-0.01,0.04,-0.08,0.09
0.2020559310913086,-0.07,0.07,-0.05,0.11
0.21206188201904297,-0.11,0.06,-0.06,0.13
0.22178173065185547,-0.12,0.05,-0.07,0.14
0.23508501052856445,-0.06,0.07,0.04,0.1
0.2424030303955078,-0.04,-0.03,0.1,0.11
0.2744569778442383,-0.01,-0.06,0.08,0.1
0.2761077880859375,0.02,-0.02,0.13,0.13
0.27771902084350586,0.01,-0.04,0.13,0.13
0.28130102157592773,-0.04,-0.06,-0.02,0.07
0.3007528781890869,0.03,-0.03,-0.14,0.14
0.30225586891174316,0.17,0.03,-0.19,0.25
0.31668686866760254,0.16,0.03,-0.06,0.17
0.3212149143218994,0.03,0.07,0.11,0.13
0.33095288276672363,-0.07,0.01,0.18,0.19
0.34160590171813965,-0.09,-0.08,0.14,0.18
0.3726997375488281,-0.15,-0.06,0.08,0.18
0.37416982650756836,-0.09,-0.04,0.04,0.1
0.37587404251098633,-0.07,-0.05,-0.03,0.09
0.3807239532470703,-0.05,-0.05,-0.03,0.07
0.39063596725463867,-0.01,-0.03,0.0,0.03
0.4008779525756836,-0.01,0.03,-0.01,0.03
0.41057872772216797,0.02,0.01,0.04,0.04
0.42064690589904785,0.05,-0.09,0.12,0.15
0.43050479888916016,0.11,-0.08,0.18,0.22
0.44313693046569824,0.22,-0.04,0.3,0.37
0.47292184829711914,0.31,-0.03,0.44,0.53
0.4745619297027588,0.15,-0.02,0.33,0.36
0.4763307571411133,-0.03,-0.02,0.04,0.05
0.4810919761657715,-0.01,0.01,-0.11,0.11
0.4899787902832031,0.14,0.04,-0.17,0.22
0.5003998279571533,0.11,0.07,-0.12,0.17
0.5098519325256348,-0.01,0.03,-0.13,0.13
0.519556999206543,0.0,0.04,-0.18,0.18
0.5297307968139648,0.01,0.0,-0.25,0.25
0.5399048328399658,0.05,0.09,-0.3,0.31
0.5801758766174316,0.11,0.19,-0.3,0.37
0.5817780494689941,0.01,0.32,-0.24,0.4
0.5832037925720215,-0.08,0.09,-0.39,0.4
0.601071834564209,-0.05,-0.08,-0.48,0.48
0.6025309562683105,-0.18,0.09,-0.38,0.43
0.6172037124633789,-0.18,0.04,-0.36,0.4
0.6185288429260254,0.06,0.04,-0.09,0.11
0.6346688270568848,0.16,-0.11,0.1,0.21
0.6368269920349121,0.16,-0.1,0.43,0.46
0.653519868850708,0.13,-0.17,0.74,0.77
0.6579248905181885,0.06,-0.3,0.79,0.84
0.6865520477294922,0.07,-0.23,0.8,0.83
0.6882038116455078,0.06,-0.21,0.64,0.67
0.6898937225341797,-0.01,-0.14,0.47,0.49
0.7022318840026855,-0.02,-0.06,0.26,0.26
0.7036919593811035,0.04,0.14,0.05,0.15
0.7174267768859863,0.03,0.13,-0.31,0.33
0.7189328670501709,-0.09,0.14,-0.49,0.51
0.7342710494995117,-0.2,0.16,-0.52,0.57
0.7379989624023438,-0.19,0.16,-0.27,0.36
0.7499198913574219,-0.08,0.02,-0.12,0.14
0.7722828388214111,0.01,-0.1,-0.05,0.11
0.774075984954834,-0.05,-0.09,0.19,0.21
0.7774567604064941,0.06,-0.08,0.43,0.44
0.7876019477844238,0.21,-0.16,0.42,0.49
0.7977280616760254,0.18,-0.13,0.34,0.4
0.8075418472290039,-0.04,-0.12,0.26,0.28
0.8175249099731445,-0.13,-0.06,0.37,0.39
0.8273258209228516,-0.02,-0.07,0.46,0.46
0.8377900123596191,0.12,-0.21,0.35,0.42
0.849639892578125,0.15,-0.14,0.38,0.43
0.8718218803405762,0.03,-0.04,0.4,0.4
0.8734307289123535,-0.17,-0.08,0.23,0.29
0.8769829273223877,-0.26,-0.03,-0.01,0.26
0.8868129253387451,-0.39,-0.15,-0.23,0.47
0.8970458507537842,-0.45,0.01,-0.1,0.46
0.9066200256347656,-0.22,0.16,-0.14,0.3
0.9169020652770996,0.0,0.08,-0.43,0.43
0.9267299175262451,-0.01,0.1,-0.51,0.51
0.9372320175170898,-0.14,0.14,-0.19,0.27
0.9490070343017578,-0.19,-0.07,0.29,0.35
0.9714980125427246,-0.08,-0.17,0.27,0.32
0.9731009006500244,0.09,-0.08,-0.02,0.12
0.9761078357696533,0.17,0.03,-0.13,0.21
0.9860818386077881,0.25,0.11,-0.05,0.27
0.9962568283081055,0.29,0.12,0.11,0.33
1.0059168338775635,0.2,0.05,0.01,0.2
1.016171932220459,0.02,0.0,-0.17,0.17
1.0257530212402344,-0.09,0.05,-0.18,0.2
1.036383867263794,-0.01,0.09,-0.16,0.18
1.048865795135498,0.16,0.04,-0.28,0.32
1.0751910209655762,0.17,0.04,-0.28,0.33
1.0766558647155762,0.05,0.06,-0.08,0.11
1.078368902206421,-0.02,0.0,0.01,0.02
1.0855789184570312,-0.06,-0.07,-0.12,0.15
1.1007637977600098,-0.02,0.01,-0.13,0.13
1.10526704788208,0.09,0.0,-0.11,0.14
1.1151578426361084,0.15,-0.03,0.03,0.15
1.1249709129333496,0.16,-0.03,0.22,0.27
1.1375558376312256,0.12,-0.07,0.29,0.32
1.1453227996826172,0.1,-0.03,0.33,0.34
1.1788849830627441,0.09,0.0,0.25,0.26
1.1805438995361328,-0.02,0.03,0.09,0.09
1.1819229125976562,-0.08,0.05,-0.1,0.13
1.2016758918762207,-0.1,0.05,-0.23,0.25
1.2030658721923828,-0.08,0.18,-0.12,0.23
1.2172980308532715,-0.08,0.16,-0.15,0.23
1.218540906906128,-0.11,0.01,-0.14,0.17
1.2342698574066162,0.0,0.07,0.07,0.09
1.236557960510254,0.16,0.05,0.08,0.18
1.2514889240264893,0.05,0.01,-0.02,0.05
1.27339506149292,-0.24,-0.03,0.02,0.24
1.2751848697662354,-0.3,0.0,0.1,0.31
1.2765889167785645,-0.06,-0.01,0.05,0.07
1.2835209369659424,0.21,0.1,-0.08,0.24
1.293889045715332,0.28,0.21,-0.1,0.36
1.3037409782409668,0.25,0.25,-0.06,0.35
1.313882827758789,0.27,0.23,0.01,0.35
1.323483943939209,0.18,0.14,0.24,0.33
1.3335719108581543,-0.19,-0.22,0.16,0.33
1.3436648845672607,-0.32,-0.17,-0.11,0.37
1.3807728290557861,-0.26,0.18,-0.12,0.33
1.3826408386230469,-0.27,0.18,-0.09,0.33
1.3838448524475098,-0.17,-0.05,-0.18,0.25
1.401521921157837,-0.04,-0.09,-0.13,0.16
1.4030537605285645,0.0,-0.1,-0.22,0.24
1.4168720245361328,0.0,-0.11,-0.29,0.31
1.4182069301605225,-0.08,-0.04,-0.25,0.26
1.4342548847198486,-0.17,0.01,-0.07,0.18
1.4356648921966553,-0.17,-0.08,0.09,0.2
1.4540438652038574,0.03,0.02,0.2,0.2
1.457509994506836,0.26,0.13,0.24,0.37
1.487454891204834,0.31,0.09,0.23,0.39
1.4890589714050293,0.18,-0.06,0.2,0.27
1.490427017211914,0.05,-0.08,0.16,0.18
1.5021090507507324,-0.02,-0.04,0.03,0.05
1.5035667419433594,-0.04,0.05,-0.09,0.11
1.5176620483398438,0.07,0.26,-0.21,0.34
1.522110939025879,0.14,0.32,-0.27,0.44
1.5346338748931885,0.04,0.18,-0.28,0.33
1.5418438911437988,-0.2,-0.02,-0.25,0.32
1.5521960258483887,-0.49,-0.02,-0.12,0.5
1.5784759521484375,-0.66,0.02,-0.07,0.66
1.580331802368164,-0.7,0.03,-0.08,0.7
1.5818068981170654,-0.61,0.09,-0.07,0.62
1.6019649505615234,-0.52,0.02,-0.08,0.52
1.603463888168335,-0.53,-0.09,-0.05,0.53
1.6178879737854004,-0.69,-0.03,-0.06,0.69
1.6212539672851562,-0.77,0.0,-0.14,0.78
1.6354827880859375,-0.84,0.09,-0.15,0.85
1.6416049003601074,-0.94,0.34,-0.11,1.0
1.65385103225708,-1.03,0.31,-0.13,1.08
1.6767778396606445,-1.03,0.09,-0.27,1.06
1.6784310340881348,-0.74,-0.03,-0.31,0.8
1.6808018684387207,-0.3,-0.05,-0.21,0.36
1.6909427642822266,0.13,-0.08,-0.22,0.26
1.7008578777313232,0.58,-0.07,-0.17,0.6
1.7107908725738525,0.9,0.09,-0.18,0.92
1.7207927703857422,1.0,0.43,0.02,1.08
1.7307329177856445,0.82,0.42,0.13,0.93
1.740799903869629,0.29,0.1,0.2,0.36
1.7535109519958496,-0.75,-0.54,0.36,0.99
1.7800407409667969,-1.57,-0.95,0.55,1.91
1.7816510200500488,-1.16,-0.72,0.52,1.46
1.7831029891967773,-0.09,-0.45,0.44,0.63
1.801581859588623,0.32,-0.47,0.33,0.65
1.8029999732971191,0.38,-0.45,0.32,0.67
1.8176469802856445,0.52,-0.22,0.32,0.64
1.8196940422058105,0.57,0.23,0.33,0.69
1.8343088626861572,0.35,0.4,0.18,0.56
1.8397538661956787,-0.36,0.07,0.11,0.38
1.851320743560791,-1.35,-0.44,0.24,1.44
1.8868980407714844,-1.82,-0.72,0.27,1.97
1.8888330459594727,-1.51,-0.8,0.12,1.71
1.8902778625488281,-0.84,-0.64,0.0,1.05
1.9021739959716797,-0.57,-0.34,0.33,0.74
1.9036459922790527,0.35,0.71,0.41,0.89
1.9180717468261719,1.18,0.46,-0.72,1.45
1.919569969177246,0.28,0.35,-0.59,0.74
1.9347858428955078,-0.17,0.49,0.02,0.51
1.939039945602417,-0.83,0.21,0.56,1.02
1.9504337310791016,-1.55,0.11,0.4,1.6
1.985644817352295,-1.38,-0.02,-0.2,1.39
1.9874629974365234,-0.23,0.28,-0.4,0.53
1.9888319969177246,1.24,0.38,-0.3,1.33
2.002450942993164,1.68,-0.07,-0.15,1.68
2.0039467811584473,0.99,-0.31,-0.08,1.04
2.0181338787078857,0.29,-0.2,0.13,0.37
2.019575834274292,0.35,-0.12,0.23,0.43
2.0347299575805664,0.56,-0.14,0.28,0.64
2.0380749702453613,0.3,-0.24,0.36,0.52
2.0482330322265625,-0.44,-0.11,0.31,0.54
2.079822063446045,-0.35,0.18,0.05,0.39
2.0818190574645996,0.43,0.16,-0.29,0.54
2.0832438468933105,0.94,-0.09,-0.26,0.97
2.102080821990967,1.04,-0.26,-0.16,1.08
2.103571891784668,0.52,0.02,-0.12,0.53
2.1179728507995605,-0.13,0.51,-0.12,0.53
2.1192049980163574,-0.06,0.46,-0.17,0.49
2.1354148387908936,-0.14,0.13,-0.25,0.31
2.1377768516540527,-0.56,0.33,0.15,0.66
2.1514320373535156,-0.53,0.68,0.25,0.89
2.182400941848755,-0.22,0.6,-0.25,0.68
2.184088945388794,-0.02,0.33,-0.7,0.77
2.185405731201172,0.24,-0.02,-0.99,1.01
2.202573776245117,0.62,-0.3,-1.27,1.44
2.2040598392486572,0.83,-0.53,-0.98,1.38
2.2165889739990234,0.78,-0.79,-0.34,1.16
2.218087911605835,0.69,-0.71,-0.06,0.99
2.2349138259887695,0.73,-0.47,-0.02,0.86
2.2365238666534424,0.59,-0.34,0.07,0.68
2.250762939453125,0.13,-0.15,0.12,0.23
2.259042739868164,0.04,0.1,0.0,0.1
2.2858099937438965,0.3,0.1,-0.26,0.4
2.2873597145080566,0.25,-0.05,-0.57,0.62
2.289015769958496,-0.04,0.0,-0.41,0.41
2.3027477264404297,-0.04,0.0,0.06,0.07
2.3061678409576416,-0.12,-0.07,0.41,0.43
2.3159990310668945,-0.21,0.0,0.32,0.38
2.3262388706207275,-0.3,-0.05,-0.17,0.34
2.336333751678467,-0.52,-0.11,-0.15,0.55
2.3462069034576416,-0.87,-0.08,0.25,0.9
2.355836868286133,-0.98,0.64,-0.1,1.17
2.3826208114624023,-0.68,1.12,-0.44,1.38
2.3845248222351074,-0.14,0.6,-0.08,0.62
2.3860230445861816,0.15,-0.28,0.23,0.39
2.402488946914673,0.17,-0.49,0.14,0.53
2.405561923980713,0.39,-0.22,0.03,0.44
2.415550708770752,0.43,0.02,0.04,0.43
2.4254138469696045,0.13,-0.05,0.25,0.28
2.4351277351379395,0.01,-0.12,0.36,0.37
2.445077896118164,-0.02,-0.03,0.34,0.34
2.4553699493408203,0.0,0.03,0.23,0.23
2.482269763946533,0.09,0.06,0.0,0.1
2.4840638637542725,0.1,0.24,-0.23,0.34
2.485369920730591,-0.26,0.36,0.07,0.44
2.5022308826446533,-0.69,0.27,0.41,0.84
2.5047309398651123,-0.83,0.29,0.38,0.95
2.5180888175964355,-0.7,0.36,-0.06,0.78
2.5246667861938477,-0.56,0.38,-0.46,0.81
2.535064935684204,-0.59,0.45,-0.57,0.93
2.544581890106201,-0.68,0.48,-0.32,0.89
2.5570778846740723,-0.71,0.5,-0.03,0.86
2.5817458629608154,-0.66,0.58,0.15,0.89
2.583493709564209,-0.66,0.69,0.21,0.97
2.5849037170410156,-0.64,0.9,0.16,1.11
2.602365016937256,-0.41,1.06,0.09,1.14
2.6038737297058105,-0.22,1.09,0.03,1.11
2.6181728839874268,-0.27,0.91,0.03,0.94
2.6238858699798584,-0.47,0.9,0.25,1.04
2.63429594039917,-0.6,1.03,0.25,1.21
2.643864870071411,-0.72,1.19,0.03,1.39
2.6540379524230957,-0.83,1.32,0.03,1.55
2.688382863998413,-0.89,1.34,0.06,1.6
2.6902658939361572,-1.06,1.31,0.18,1.69
2.691701889038086,-1.27,1.44,0.28,1.94
2.7026069164276123,-1.4,1.64,0.14,2.16
2.7040598392486572,-1.35,1.83,-0.1,2.27
2.7182018756866455,-1.23,1.89,-0.34,2.28
2.7230677604675293,-1.22,1.87,-0.51,2.29
2.7350668907165527,-1.46,1.88,-0.52,2.43
2.743234872817993,-1.98,2.08,-0.48,2.91
2.753480911254883,-2.57,2.36,-0.52,3.52
2.7921009063720703,-3.11,2.66,-0.49,4.12
2.7939488887786865,-3.39,2.97,-0.44,4.52
2.7953598499298096,-3.57,3.25,-0.21,4.83
2.798301935195923,-3.99,3.92,0.44,5.61
2.8184337615966797,-4.71,5.29,1.01,7.15
2.819896936416626,-5.64,6.7,0.61,8.77
2.836042881011963,-6.48,7.44,-0.87,9.9
2.8375110626220703,-7.07,7.92,-1.53,10.72
2.854346752166748,-7.54,9.0,-1.19,11.8
2.8599557876586914,-7.68,10.24,-1.55,12.89
2.8867297172546387,-8.13,11.07,-2.0,13.87
2.8883938789367676,-8.48,11.67,-2.23,14.59
2.8901429176330566,-7.91,12.32,-2.39,14.83
2.90285587310791,-5.76,13.12,-2.72,14.58
2.9043307304382324,-1.57,13.62,-4.37,14.38
2.918743848800659,1.87,11.99,-4.63,12.98
2.921689987182617,2.02,8.92,-3.54,9.8
2.934145927429199,-2.52,2.92,-2.62,4.66
2.9413609504699707,-5.18,-0.44,-1.47,5.4
2.951164722442627,-0.4,0.52,0.98,1.17
2.9856348037719727,4.18,-3.79,2.45,6.15
2.9875009059906006,0.96,-2.89,-1.02,3.21
2.9889397621154785,-3.96,0.67,-0.01,4.01
3.0025577545166016,-7.14,1.24,0.52,7.26
3.004053831100464,-9.49,-0.38,-0.16,9.49
3.0185859203338623,-11.2,-1.85,0.0,11.35
3.0206947326660156,-11.62,-3.33,0.8,12.11
3.035270929336548,-9.76,-4.26,1.49,10.75
3.0409107208251953,-6.88,-4.35,1.59,8.29
3.054309844970703,-5.21,-4.31,1.21,6.86
3.060657024383545,-4.55,-4.19,0.77,6.23
3.0886640548706055,-4.36,-4.16,0.5,6.04
3.0903477668762207,-4.16,-4.14,0.06,5.86
3.0916588306427,-3.8,-3.87,-0.48,5.44
3.1030797958374023,-3.17,-3.5,-0.96,4.81
3.1103458404541016,-2.55,-3.29,-1.13,4.31
3.120114803314209,-2.35,-3.56,-1.16,4.42
3.130138874053955,-2.55,-4.02,-1.04,4.87
3.139915943145752,-2.71,-4.31,-0.99,5.18
3.150059938430786,-2.6,-4.15,-0.92,4.98
3.160435914993286,-2.32,-3.74,-0.67,4.45
3.189239025115967,-1.93,-3.38,-0.38,3.91
3.190876007080078,-1.35,-2.78,-0.07,3.09
3.1925907135009766,-0.14,-2.15,-0.33,2.17
3.2001047134399414,1.28,-1.71,-1.0,2.35
3.209259033203125,2.53,-0.85,-1.19,2.92
3.219268798828125,3.59,0.31,-0.87,3.7
3.2291417121887207,4.43,1.28,-0.4,4.62
3.239471912384033,5.28,2.27,0.37,5.75
3.2492499351501465,6.16,2.98,0.75,6.88
3.259340763092041,7.02,3.3,0.83,7.8
3.2886109352111816,7.73,3.85,0.67,8.66
3.2902169227600098,8.18,4.3,0.06,9.24
3.2912440299987793,8.68,4.63,-0.56,9.85
3.302128791809082,9.88,4.82,-1.04,11.04
3.3088529109954834,11.76,4.43,-1.21,12.62
3.3186869621276855,13.58,3.33,-0.76,14.0
3.328274726867676,14.47,1.73,0.1,14.57
3.3384668827056885,13.6,0.49,1.03,13.64
3.3485498428344727,11.41,0.19,1.68,11.53
3.3589420318603516,10.52,0.18,1.64,10.64
3.3882758617401123,11.12,0.22,1.49,11.22
3.390077829360962,11.87,-0.38,1.57,11.97
3.3911099433898926,12.16,-1.12,2.13,12.39
3.402010917663574,11.9,-1.92,2.66,12.34
3.4080100059509277,11.05,-2.51,3.05,11.73
3.419126033782959,9.19,-1.27,0.94,9.32
3.4275529384613037,2.27,-2.65,-1.9,3.97
3.437739849090576,-7.05,-7.95,-6.36,12.38
3.447831869125366,-18.97,6.61,-12.09,23.44
3.4577207565307617,-22.65,37.29,7.58,44.28
3.4918718338012695,-19.76,38.33,6.26,43.57
3.493821859359741,-11.59,11.33,-7.86,18.01
3.495262861251831,-1.7,-3.26,-4.31,5.66
3.498839855194092,5.38,-7.48,-0.2,9.21
3.5186538696289062,9.49,-9.88,2.8,13.98
3.5201220512390137,11.02,-11.87,3.38,16.54
3.535627841949463,11.64,-8.22,1.6,14.33
3.5370588302612305,11.41,-1.51,2.65,11.81
3.554574966430664,8.28,2.32,1.17,8.67
3.559145927429199,3.29,2.11,-1.68,4.25
3.5870778560638428,0.23,1.74,-1.98,2.64
3.5887348651885986,-1.12,1.68,-1.56,2.55
3.5904927253723145,-0.76,1.1,-0.42,1.4
3.6036300659179688,1.0,0.31,0.31,1.09
3.6062097549438477,1.42,-0.08,0.35,1.46
3.6164278984069824,0.61,-0.05,0.37,0.71
3.626204013824463,-0.27,-0.36,-0.15,0.47
3.6361868381500244,-0.89,-0.55,-1.29,1.66
3.6466548442840576,-1.65,-0.19,-1.71,2.38
3.6587467193603516,-1.65,0.55,-1.16,2.09
3.686100959777832,-0.28,0.39,-0.48,0.67
3.6877408027648926,1.19,-0.3,0.27,1.25
3.6894240379333496,1.41,-0.42,1.48,2.08
3.7033419609069824,0.56,-0.52,1.94,2.08
3.705595016479492,-0.03,-0.59,1.13,1.27
3.71757173538208,-0.16,-0.15,0.14,0.26
3.725505828857422,-0.4,0.34,-0.45,0.69
3.7354750633239746,-0.8,0.55,-0.63,1.15
3.7459969520568848,-1.1,0.47,-0.51,1.3
3.7579197883605957,-0.97,0.38,-0.16,1.05
3.7852187156677246,-0.47,0.35,-0.13,0.6
3.787047863006592,-0.1,0.26,-0.06,0.28
3.7885427474975586,-0.23,0.13,0.25,0.36
3.8027448654174805,-0.8,0.03,0.49,0.93
3.8048079013824463,-1.47,-0.01,0.41,1.52
3.8200669288635254,-1.81,0.09,0.17,1.82
3.8247318267822266,-1.71,0.39,-0.39,1.79
3.8348288536071777,-1.45,0.71,-0.75,1.78
3.845067024230957,-1.38,0.74,-0.91,1.81
3.8571739196777344,-1.44,0.61,-0.76,1.73
3.864996910095215,-1.5,0.56,-0.28,1.62
3.8893990516662598,-1.32,0.44,0.03,1.39
3.8910207748413086,-1.05,0.35,0.06,1.1
3.8940958976745605,-0.8,0.44,0.06,0.91
3.904207944869995,-0.58,0.59,0.19,0.84
3.914334774017334,-0.61,0.59,0.14,0.86
3.923959732055664,-0.86,0.67,0.0,1.09
3.9342339038848877,-1.18,1.09,0.11,1.61
3.943850040435791,-1.5,1.76,0.3,2.33
3.9564318656921387,-1.7,2.55,0.54,3.11
3.9663467407226562,-1.79,2.73,-0.01,3.26
3.9911279678344727,-1.88,3.18,0.0,3.69
3.992767810821533,-2.27,3.68,-0.05,4.32
3.9944798946380615,-2.44,3.81,-0.18,4.52
4.002940893173218,-2.78,3.78,-0.03,4.69
4.01348876953125,-3.28,4.11,0.31,5.26
4.02320671081543,-4.07,5.08,0.99,6.58
4.033406734466553,-5.15,6.73,1.43,8.59
4.043252944946289,-6.48,8.89,1.54,11.1
4.053134918212891,-7.96,11.55,1.65,14.12
4.063515901565552,-9.36,13.49,0.91,16.44
4.089367866516113,-10.91,14.07,0.43,17.8
4.091003894805908,-12.34,14.15,0.75,18.78
4.092821836471558,-13.46,13.46,0.46,19.04
4.104022979736328,-13.67,13.4,-0.24,19.14
4.113194942474365,-10.82,14.23,-2.75,18.08
4.12256383895874,-3.87,14.49,-7.17,16.62
4.132400035858154,2.1,13.48,-5.99,14.89
4.142215728759766,4.38,8.81,-3.65,10.49
4.152901887893677,1.7,2.45,-4.17,5.12
4.165270805358887,-2.06,-0.05,-3.82,4.34
4.189880847930908,0.59,1.14,-1.22,1.77
4.191500902175903,3.62,-2.62,1.3,4.65
4.193143844604492,0.4,-3.01,-2.04,3.65
4.201574802398682,-4.69,-0.81,-1.42,4.96
4.211968898773193,-8.05,-0.25,0.27,8.05
4.221714019775391,-10.38,-1.56,-0.26,10.49
4.231916904449463,-12.68,-2.7,-0.32,12.96
4.24155592918396,-14.09,-3.38,0.79,14.51
4.251668930053711,-14.19,-4.35,2.22,15.0
4.261927843093872,-11.92,-5.1,4.04,13.58
4.295642852783203,-8.25,-5.39,4.18,10.7
4.297216892242432,-6.47,-4.91,3.0,8.65
4.298720836639404,-6.51,-4.0,2.7,8.1
4.301090717315674,-7.02,-4.28,2.41,8.56
4.311308860778809,-7.01,-4.64,1.82,8.6
4.321209907531738,-6.48,-4.53,1.09,7.98
4.331157922744751,-5.53,-4.15,0.37,6.92
4.340991020202637,-4.5,-3.97,-0.18,6.0
4.3508899211883545,-3.59,-4.18,-0.44,5.52
4.36075496673584,-2.81,-4.62,-0.67,5.44
4.392250061035156,-2.18,-4.95,-0.84,5.47
4.393934726715088,-1.68,-5.01,-0.9,5.36
4.3956828117370605,-1.14,-4.75,-0.64,4.92
4.4003987312316895,-0.36,-4.38,-0.03,4.39
4.419201850891113,0.55,-3.83,0.41,3.89
4.4206578731536865,1.59,-3.01,0.08,3.4
4.43610692024231,3.02,-1.82,-0.31,3.53
4.440104007720947,5.05,0.07,-0.06,5.05
4.451176881790161,7.4,2.72,0.73,7.91
4.463389873504639,9.41,5.07,0.73,10.71
4.491830825805664,11.02,6.75,-0.21,12.92
4.493499755859375,12.41,8.2,-1.73,14.97
4.4951677322387695,13.75,9.91,-3.59,17.32
4.499125003814697,15.67,11.67,-5.37,20.26
4.510313987731934,18.01,12.23,-6.41,22.69
4.5194008350372314,20.51,9.6,-7.9,23.98
4.529449939727783,22.89,4.74,-8.33,24.81
4.539280891418457,24.5,0.99,-5.54,25.13
4.549511909484863,24.05,0.9,-1.08,24.09
4.559152841567993,18.09,2.72,2.49,18.46
4.589987754821777,5.32,-1.12,3.83,6.65
4.591846942901611,-7.71,-0.05,5.31,9.36
4.593307971954346,-13.83,7.31,2.34,15.81
4.599013805389404,-15.11,19.77,-0.72,24.89
4.6092610359191895,-13.66,24.65,0.39,28.18
4.619309902191162,-7.96,10.98,-7.72,15.6
4.628798007965088,-0.09,0.83,-7.74,7.78
4.638980865478516,6.29,-3.74,-1.34,7.43
4.648751735687256,10.14,-7.61,3.15,13.06
4.658548831939697,12.18,-9.61,4.61,16.18
4.668877840042114,12.18,-7.84,2.7,14.73
4.699773788452148,10.5,-1.89,1.01,10.71
4.701377868652344,5.85,1.98,-1.05,6.26
4.702820777893066,1.09,2.06,-2.97,3.77
4.719848871231079,-1.43,2.23,-2.77,3.83
4.721349716186523,-2.36,2.12,-1.45,3.48
4.736033916473389,-1.2,0.64,0.38,1.41
4.7377119064331055,1.11,-1.0,1.06,1.83
4.752840995788574,1.85,-1.62,0.91,2.62
4.75758695602417,1.02,-1.15,0.57,1.63
4.772063732147217,0.33,-0.32,-0.26,0.52
4.795505046844482,0.58,0.17,-1.03,1.19
4.796992778778076,0.98,0.25,-0.84,1.31
4.797975063323975,0.89,0.02,-0.23,0.91
4.807377815246582,0.51,-0.17,0.26,0.59
4.817412853240967,0.14,-0.17,0.33,0.39
4.827565908432007,-0.04,-0.07,0.1,0.12
4.8375020027160645,-0.15,0.03,0.04,0.15
4.847178936004639,-0.36,0.13,0.05,0.38
4.857073783874512,-0.61,0.2,0.2,0.67
4.869696855545044,-0.8,0.21,0.2,0.85
4.893625736236572,-0.91,0.25,-0.19,0.96
4.894769906997681,-0.91,0.36,-0.52,1.1
4.896265983581543,-0.92,0.44,-0.6,1.18
4.9066338539123535,-0.86,0.41,-0.35,1.01
4.918834924697876,-0.65,0.23,-0.06,0.69
4.926499843597412,-0.49,0.06,0.18,0.52
4.936254978179932,-0.49,0.06,0.37,0.61
4.946362018585205,-0.55,0.2,0.39,0.7
4.956079959869385,-0.61,0.32,0.46,0.82
4.96623682975769,-0.77,0.36,0.46,0.96
4.995270729064941,-1.02,0.33,0.02,1.07
4.99688196182251,-1.32,0.52,-0.41,1.47
4.998295783996582,-1.44,0.79,-0.71,1.78
5.005805969238281,-1.42,0.9,-0.69,1.81
5.016033887863159,-1.33,0.97,-0.37,1.68
5.025735855102539,-1.37,0.97,-0.1,1.68
5.035631895065308,-1.64,0.97,0.0,1.9
5.045677900314331,-2.05,1.0,-0.08,2.28
5.055555820465088,-2.26,1.25,-0.42,2.61
5.065698862075806,-2.27,1.84,-0.59,2.98
5.102946758270264,-2.2,3.1,-0.53,3.83
5.104538917541504,-1.77,3.81,-0.85,4.28
5.105939865112305,-1.81,3.96,-0.68,4.4
5.119863033294678,-2.63,4.18,0.85,5.01
5.1213648319244385,-3.63,4.62,1.46,6.05
5.135701894760132,-4.3,4.95,0.93,6.62
5.137139797210693,-4.46,5.41,0.42,7.02
5.152746915817261,-4.65,5.8,0.05,7.43
5.1546409130096436,-5.21,6.41,-0.09,8.26
5.168715000152588,-6.28,7.76,0.54,9.99
5.203742980957031,-7.81,9.93,1.29,12.69
5.205571889877319,-9.64,12.04,0.52,15.43
5.2067108154296875,-11.13,13.38,-1.41,17.46
5.220240831375122,-12.01,13.7,-3.63,18.57
5.2217488288879395,-12.56,13.34,-5.08,19.01
5.2328808307647705,-13.38,14.09,-5.3,20.14
5.234399795532227,-12.23,16.92,-4.36,21.32
5.249838829040527,-7.09,17.53,-6.25,19.91
5.253925800323486,-1.44,13.15,-9.13,16.07
5.268425941467285,1.88,9.77,-6.85,12.07
5.296588897705078,0.66,5.76,-3.27,6.65
5.298268795013428,-1.56,-0.24,-2.45,2.91
5.299287796020508,2.0,-0.02,-0.68,2.11
5.320210933685303,6.85,-3.78,2.72,8.28
5.321707725524902,4.53,-6.7,-0.5,8.1
5.336833953857422,-2.49,-3.89,-2.22,5.12
5.338306903839111,-7.91,-2.14,0.78,8.23
5.353188991546631,-11.02,-2.11,0.95,11.26
5.354627847671509,-12.44,-2.94,1.48,12.86
5.372264862060547,-13.22,-4.28,1.61,13.98
5.3996100425720215,-12.44,-5.43,2.12,13.73
5.401063919067383,-9.17,-6.01,2.88,11.33
5.402148723602295,-5.48,-6.09,2.12,8.46
5.419965744018555,-3.83,-5.45,1.17,6.76
5.421480894088745,-3.51,-4.72,1.22,6.0
5.436154842376709,-3.51,-4.86,1.05,6.08
5.437566757202148,-3.41,-5.29,0.5,6.31
5.452870845794678,-3.08,-5.17,-0.36,6.02
5.454340934753418,-2.67,-4.83,-1.28,5.66
5.469075918197632,-2.73,-4.22,-1.78,5.33
5.4727678298950195,-3.06,-3.68,-1.93,5.16
5.5127599239349365,-3.33,-3.1,-1.62,4.82
5.514142036437988,-3.35,-3.0,-1.41,4.71
5.515105724334717,-2.95,-3.46,-1.24,4.71
5.517019748687744,-1.96,-3.33,-0.29,3.87
5.52174186706543,-0.32,-2.6,0.3,2.63
5.532013893127441,1.61,-2.22,-0.52,2.79
5.5421059131622314,3.61,-1.63,-1.81,4.35
5.551736831665039,5.74,-0.64,-2.69,6.37
5.561742782592773,7.48,0.29,-3.28,8.17
5.571677923202515,8.7,1.53,-3.01,9.33
5.600345849990845,9.95,2.54,-2.33,10.53
5.601819038391113,11.32,2.49,-2.2,11.79
5.60283088684082,12.47,2.45,-1.94,12.85
5.6201088428497314,13.48,2.94,-1.33,13.86
5.621615886688232,14.23,3.18,-0.7,14.59
5.6362409591674805,14.8,2.68,-0.14,15.04
5.6410698890686035,15.37,1.79,0.61,15.48
5.653307914733887,15.52,0.87,1.21,15.59
5.660938739776611,14.77,0.1,1.39,14.83
5.67119288444519,13.59,-0.3,0.88,13.62
5.702437877655029,12.96,-0.44,0.36,12.97
5.703884840011597,12.97,-0.77,0.09,12.99
5.704911708831787,13.3,-1.32,0.3,13.36
5.720109939575195,13.39,-2.15,0.64,13.57
5.721621036529541,12.54,-2.81,1.15,12.9
5.736625909805298,6.22,1.01,2.79,6.89
5.740327835083008,-4.9,-0.26,2.92,5.7
5.750773906707764,-15.84,1.38,-4.22,16.45
5.760222911834717,-21.51,26.03,-4.58,34.07
5.770537853240967,-20.79,43.15,11.32,49.21
5.8013598918914795,-14.84,21.64,-8.28,27.51
5.8027777671813965,-2.14,4.69,-12.47,13.49
5.8038129806518555,4.76,-3.76,-2.52,6.56
5.820296764373779,8.43,-9.75,2.39,13.1
5.821784973144531,10.58,-13.57,2.89,17.44
5.836612939834595,11.33,-13.17,3.35,17.69
5.839568853378296,11.19,-6.88,3.87,13.69
5.852967739105225,9.4,-0.31,3.13,9.91
5.859618902206421,4.25,1.84,-1.43,4.84
5.869686841964722,0.05,2.88,-2.82,4.03
5.910319805145264,-1.89,3.76,-2.98,5.15
5.911656856536865,-2.72,2.65,-1.8,4.2
5.912621974945068,-1.24,0.16,0.77,1.46
5.9156107902526855,1.59,-1.58,1.77,2.85
5.93392276763916,2.22,-1.84,1.05,3.06
5.9353108406066895,1.0,-0.82,-0.46,1.37
5.950008869171143,0.19,0.44,-1.36,1.44
5.951440811157227,0.05,0.88,-1.12,1.42
5.966089725494385,-0.07,0.27,-0.35,0.44
5.968577861785889,-0.47,-0.25,0.0,0.53
6.008870840072632,-0.74,-0.03,-0.17,0.75
6.010079860687256,-0.61,0.43,-0.48,0.88
6.011332035064697,-0.31,0.56,-0.51,0.81
6.0162129402160645,-0.07,0.43,-0.11,0.44
6.017889022827148,0.03,0.13,0.34,0.36
6.036725044250488,-0.05,-0.14,0.6,0.61
6.038238048553467,-0.31,-0.28,0.49,0.64
6.053037881851196,-0.6,-0.18,0.29,0.69
6.05806303024292,-0.8,0.06,0.14,0.81
6.068529844284058,-0.94,0.24,-0.09,0.97
6.102607727050781,-0.8,0.37,-0.09,0.88
6.103879928588867,-0.18,0.29,0.08,0.35
6.104878902435303,0.39,0.0,0.2,0.43
6.119962930679321,0.34,-0.2,0.3,0.49
6.120936870574951,-0.28,-0.2,0.43,0.55
6.1364569664001465,-0.86,-0.05,0.32,0.91
6.137913942337036,-1.05,0.18,-0.09,1.06
6.152924060821533,-0.92,0.46,-0.46,1.12
6.157224893569946,-0.77,0.68,-0.61,1.19
6.168636798858643,-0.78,0.78,-0.68,1.29
6.202971935272217,-0.99,0.85,-0.68,1.47
6.204494953155518,-1.28,1.18,-0.23,1.75
6.205524921417236,-1.48,1.48,-0.03,2.09
6.219781875610352,-1.4,1.52,-0.21,2.07
6.221231937408447,-1.58,1.44,-0.53,2.2
6.236849784851074,-2.04,1.79,-0.29,2.72
6.238318920135498,-2.67,2.55,0.21,3.69
6.253478050231934,-2.65,2.82,0.31,3.88
6.256508827209473,-2.45,2.86,0.5,3.79
6.2686638832092285,-2.33,3.11,0.8,3.96
6.276314735412598,-2.57,3.34,0.54,4.24
6.31325888633728,-2.96,3.63,0.19,4.68
6.314400911331177,-3.47,4.06,-0.04,5.34
6.315412998199463,-4.04,4.49,-0.25,6.04
6.337393760681152,-4.56,4.77,-0.36,6.6
6.33885383605957,-5.0,5.27,-0.2,7.26
6.352470874786377,-5.6,6.61,0.26,8.66
6.353937864303589,-6.69,8.89,0.43,11.13
6.370067834854126,-8.16,11.24,-0.24,13.89
6.371722936630249,-9.54,12.89,-1.87,16.14
6.385656833648682,-10.55,13.0,-3.54,17.11
6.414196968078613,-11.05,12.5,-4.25,17.21
6.415529727935791,-11.57,12.38,-4.54,17.54
6.416563034057617,-11.67,14.23,-2.94,18.63
6.437258720397949,-8.41,16.61,-2.45,18.77
6.438796043395996,-2.58,15.01,-6.27,16.47
6.45350193977356,1.94,10.9,-7.44,13.33
6.4550089836120605,2.57,7.92,-3.91,9.19
6.470091819763184,-1.18,2.58,-2.43,3.73
6.471515893936157,-1.18,1.04,-0.6,1.68
6.485499858856201,4.09,-0.26,3.44,5.35
6.5123748779296875,4.09,-4.84,3.01,7.01
6.513744831085205,-1.66,-3.13,0.2,3.54
6.514770030975342,-6.79,-0.6,2.21,7.16
6.517137050628662,-9.9,-0.13,2.27,10.15
6.5242600440979,-11.76,-1.04,1.65,11.92
6.534698963165283,-12.68,-2.4,1.82,13.03
6.54454493522644,-11.52,-3.71,2.5,12.35
6.5546417236328125,-7.76,-4.48,3.45,9.6
6.564225912094116,-4.7,-4.88,3.34,7.55
6.57448673248291,-4.12,-4.72,3.01,6.95
6.604183912277222,-4.45,-4.65,2.99,7.09
6.605531930923462,-4.79,-4.98,3.01,7.53
6.606545925140381,-4.67,-5.19,2.99,7.59
6.620719909667969,-4.25,-5.35,2.49,7.27
6.623751878738403,-4.06,-5.43,2.03,7.07
6.636853933334351,-4.07,-5.33,1.84,6.95
6.643681049346924,-4.02,-5.29,1.75,6.87
6.653447866439819,-3.76,-5.23,1.86,6.7
6.663477897644043,-3.48,-5.26,2.1,6.64
6.673210859298706,-3.39,-5.35,2.48,6.8
6.711334943771362,-3.33,-5.23,2.88,6.83
6.7127227783203125,-3.2,-4.94,3.09,6.64
6.713699817657471,-2.76,-4.14,3.29,5.96
6.715974807739258,-1.53,-3.13,2.84,4.49
6.737017869949341,1.1,-2.58,1.95,3.41
6.738471031188965,3.97,-2.13,0.86,4.58
6.753304958343506,6.15,-1.23,0.13,6.27
6.754762887954712,7.83,0.18,0.5,7.84
6.769800901412964,9.02,1.87,0.74,9.24
6.772737979888916,10.11,2.98,0.66,10.56
6.817527770996094,11.46,3.48,0.29,11.98
6.81870174407959,12.87,4.13,-0.66,13.53
6.819722890853882,14.38,4.78,-1.71,15.24
6.83781099319458,15.97,4.58,-2.6,16.81
6.83931303024292,17.53,3.79,-3.21,18.22
6.853326797485352,18.78,2.72,-3.47,19.29
6.854804992675781,19.57,1.53,-3.71,19.97
6.870248794555664,20.04,0.29,-3.53,20.35
6.8717217445373535,18.86,1.12,-2.37,19.04
6.889344930648804,14.03,5.26,-1.88,15.1
6.92137885093689,2.19,-2.42,-2.91,4.37
6.922733783721924,-11.33,5.91,-1.85,12.91
6.923752784729004,-16.77,31.74,-1.27,35.92
6.937892913818359,-16.29,41.35,5.07,44.73
6.938953876495361,-12.61,14.44,-10.41,21.81
6.953305721282959,-3.99,-1.34,-8.16,9.18
6.954769849777222,4.29,-5.24,-0.16,6.77
6.970221996307373,9.52,-11.33,4.19,15.38
6.971719741821289,12.75,-14.93,4.18,20.07
6.985538005828857,14.09,-10.86,3.85,18.2
7.013318061828613,13.28,-1.87,3.85,13.95
7.014622926712036,8.36,1.4,0.01,8.47
7.015629768371582,2.24,1.87,-1.7,3.37
7.017632961273193,-1.0,2.69,-2.22,3.62
7.020443916320801,-2.58,2.67,-2.19,4.31
7.030358791351318,-2.56,1.62,-0.64,3.09
7.040763854980469,0.34,-0.45,0.8,0.97
7.050731897354126,2.44,-1.59,0.47,2.95
7.060595989227295,2.44,-1.54,0.04,2.88
7.070390939712524,1.03,-0.85,-0.55,1.44
7.080269813537598,0.14,0.15,-0.84,0.86
7.112581729888916,0.14,0.48,-1.04,1.15
7.113681793212891,0.34,0.16,-0.63,0.73
7.114867925643921,0.38,-0.01,0.29,0.47
7.119764804840088,0.04,-0.05,0.62,0.62
7.129683017730713,-0.65,0.0,0.41,0.76
7.140017032623291,-1.3,0.38,-0.07,1.35
7.149876832962036,-1.63,0.62,-0.65,1.86
7.161017894744873,-1.69,0.79,-0.51,1.93
7.169674873352051,-1.35,0.69,-0.05,1.51
7.179625034332275,-0.84,0.32,0.35,0.96
7.210638999938965,-0.39,0.1,0.3,0.5
7.211846828460693,-0.09,0.05,-0.28,0.29
7.2131829261779785,-0.04,0.22,-0.54,0.58
7.218828916549683,-0.11,0.38,-0.24,0.46
7.229057788848877,-0.23,0.38,0.13,0.46
7.239326000213623,-0.48,0.29,0.48,0.73
7.249184846878052,-0.65,0.41,0.58,0.96
7.258874893188477,-0.57,0.55,0.45,0.91
7.268826961517334,-0.51,0.64,0.25,0.85
7.278903007507324,-0.5,0.63,0.2,0.82
7.309706926345825,-0.65,0.51,0.41,0.92
7.310848712921143,-0.94,0.39,0.46,1.11
7.312087059020996,-1.48,0.45,0.57,1.64
7.31823205947876,-1.88,0.73,0.3,2.03
7.328273773193359,-2.32,0.96,-0.38,2.53
7.338162899017334,-2.58,1.53,-0.66,3.07
7.348358869552612,-2.71,2.01,-1.15,3.56
7.358109951019287,-2.49,2.73,-1.34,3.93
7.368420839309692,-1.61,3.0,-1.13,3.58
7.3780517578125,-1.22,2.8,-0.17,3.05
7.411311864852905,-1.7,2.6,0.44,3.13
7.412684917449951,-2.78,2.66,0.64,3.9
7.413670063018799,-3.48,3.06,0.63,4.67
7.417428016662598,-3.49,3.47,0.34,4.93
7.4374847412109375,-3.29,3.8,0.09,5.02
7.438992023468018,-3.46,4.21,0.03,5.44
7.453946828842163,-4.68,4.74,0.1,6.66
7.457437038421631,-6.28,5.65,0.53,8.46
7.469292879104614,-7.5,7.02,1.11,10.33
7.477074861526489,-8.52,8.89,1.76,12.43
7.515024900436401,-9.63,11.21,2.14,14.93
7.516239881515503,-11.13,12.92,0.86,17.07
7.517286777496338,-12.9,13.52,-1.0,18.71
7.519354820251465,-14.0,14.96,-2.28,20.61
7.527215003967285,-12.57,17.7,-4.66,22.2
7.536561965942383,-6.86,17.37,-9.95,21.16
7.547505855560303,-0.07,16.52,-11.19,19.95
7.5564799308776855,2.66,14.03,-5.8,15.41
7.566932916641235,0.6,8.74,-2.74,9.17
7.5768139362335205,-3.62,3.32,-0.6,4.94
7.6143858432769775,-2.77,0.06,-2.31,3.6
7.615790843963623,5.06,1.36,-1.46,5.43
7.616796016693115,8.59,-2.59,1.11,9.04
7.637565851211548,2.3,-2.12,-3.2,4.47
7.638637065887451,-5.4,-0.12,-1.91,5.72
7.653925895690918,-9.52,0.12,-0.15,9.52
7.655441761016846,-11.36,-0.66,-0.39,11.38
7.670528888702393,-12.85,-1.84,-0.76,13.0
7.672011852264404,-13.65,-3.08,-0.62,14.0
7.6861889362335205,-12.71,-3.66,0.98,13.26
7.71386194229126,-9.46,-4.3,3.25,10.88
7.715190887451172,-6.12,-5.53,3.74,9.05
7.716182708740234,-4.74,-5.65,3.14,8.01
7.737464904785156,-5.01,-4.88,2.43,7.4
7.738528728485107,-5.79,-4.42,1.89,7.52
7.754987716674805,-6.18,-4.26,1.27,7.61
7.756451845169067,-5.8,-3.94,0.37,7.02
7.770900726318359,-5.24,-3.67,-0.37,6.4
7.7723708152771,-4.74,-3.57,-0.8,5.98
7.7861268520355225,-4.21,-3.58,-1.01,5.61
7.814230918884277,-3.51,-3.76,-1.23,5.28
7.815624713897705,-2.59,-3.95,-1.3,4.89
7.816621780395508,-1.51,-3.9,-1.05,4.31
7.837589740753174,-0.29,-4.02,-1.22,4.21
7.838642835617065,0.63,-4.14,-1.94,4.61
7.853946924209595,1.41,-3.68,-2.32,4.57
7.855449914932251,2.73,-2.76,-2.17,4.44
7.870779991149902,4.67,-2.24,-1.69,5.44
7.872243881225586,6.62,-1.54,-0.51,6.81
7.886139869689941,8.2,-0.12,0.78,8.23
7.88763689994812,9.6,1.37,1.43,9.8
7.93536901473999,11.15,2.76,1.38,11.56
7.9365620613098145,12.74,4.38,0.36,13.47
7.93756103515625,14.19,6.11,-0.79,15.46
7.954507827758789,16.02,7.82,-1.75,17.91
7.9559948444366455,18.4,8.47,-2.54,20.41
7.970614910125732,20.57,7.82,-3.06,22.21
7.972107887268066,22.0,6.08,-3.02,23.02
7.987284898757935,22.34,3.49,-1.94,22.69
7.9887919425964355,21.16,1.04,-0.33,21.18
8.002888917922974,19.21,-0.55,1.02,19.24
8.032673835754395,16.5,-0.22,1.53,16.57
8.034045934677124,8.15,4.34,3.58,9.9
8.03506588935852,-3.93,1.28,2.91,5.05
8.054224967956543,-14.3,1.86,0.71,14.43
8.0552818775177,-20.04,19.81,-4.63,28.55
8.070741891860962,-18.89,36.76,5.74,41.72
8.07220983505249,-14.81,22.67,-2.52,27.19
8.087289810180664,-5.24,3.8,-8.56,10.73
8.088744878768921,4.29,-2.62,-3.26,5.99
8.103108882904053,8.7,-8.96,2.51,12.73
8.132259845733643,10.92,-12.79,2.97,17.07
8.13366174697876,12.45,-12.72,1.8,17.88
8.134679794311523,13.33,-6.93,2.43,15.21
8.154009819030762,12.11,-0.22,2.45,12.35
8.15504503250122,6.63,1.69,-1.78,7.06
8.170407772064209,1.42,2.02,-2.64,3.61
8.1717848777771,-1.28,2.83,-2.34,3.88
8.187575817108154,-2.4,2.63,-1.51,3.86
8.189033031463623,-1.42,0.91,0.34,1.72
8.203696727752686,1.29,-1.15,1.37,2.2
8.232143878936768,2.58,-2.1,1.36,3.59
8.233713865280151,1.64,-1.62,1.01,2.51
8.234714031219482,0.28,-0.47,0.02,0.54
8.253952026367188,0.06,0.43,-1.37,1.43
8.255016803741455,0.26,0.7,-1.64,1.8
8.27056884765625,0.36,0.46,-0.75,0.95
8.271615982055664,0.32,0.1,0.11,0.35
8.287400722503662,0.25,-0.07,0.39,0.46
8.288887023925781,0.17,-0.05,0.28,0.33
8.303071022033691,0.06,-0.02,0.08,0.1
8.330471992492676,-0.18,0.07,0.14,0.23
8.331906795501709,-0.47,0.08,0.14,0.49
8.332828044891357,-0.77,0.13,-0.06,0.78
8.334955930709839,-1.09,0.25,-0.1,1.12
8.336540937423706,-1.26,0.37,-0.25,1.33
8.340422868728638,-1.01,0.45,-0.46,1.19
8.350347995758057,-0.74,0.43,-0.48,0.98
8.360421895980835,-0.73,0.43,-0.41,0.94
8.370192050933838,-1.14,0.56,-0.06,1.27
8.380151748657227,-1.55,0.7,0.21,1.71
8.414305925369263,-1.64,0.68,0.03,1.77
8.415544986724854,-1.54,0.63,-0.18,1.67
8.416509866714478,-1.25,0.6,-0.35,1.43
8.433974742889404,-1.03,0.47,-0.36,1.18
8.434961795806885,-1.0,0.42,-0.62,1.24
8.450730800628662,-1.15,0.45,-0.85,1.49
8.451722860336304,-1.44,0.67,-0.62,1.7
8.468104839324951,-1.52,1.05,-0.29,1.87
8.469563007354736,-1.37,1.26,-0.34,1.89
8.483613967895508,-1.34,1.68,-0.27,2.16
8.515594005584717,-1.67,2.45,-0.14,2.96
8.517419815063477,-2.17,3.3,0.6,3.99
8.51838493347168,-2.59,3.35,0.74,4.29
8.53829288482666,-2.95,3.74,1.15,4.9
8.539325714111328,-3.18,4.51,1.1,5.62
8.554069995880127,-3.69,4.96,0.34,6.19
8.555498838424683,-4.35,5.21,-0.14,6.78
8.570698738098145,-4.95,5.49,-0.33,7.39
8.572134017944336,-5.42,6.03,-0.13,8.1
8.586490869522095,-5.74,7.22,0.56,9.24
8.614857912063599,-6.32,9.33,1.04,11.31
8.616291999816895,-7.73,11.88,0.35,14.17
8.617332935333252,-10.01,13.32,-2.08,16.79
8.637812852859497,-11.71,14.02,-4.16,18.73
8.63884973526001,-12.88,14.19,-5.32,19.88
8.650743007659912,-13.29,14.32,-6.37,20.54
8.651848793029785,-12.76,15.84,-5.64,21.1
8.668000936508179,-8.83,18.63,-4.87,21.18
8.669487953186035,-2.35,16.98,-8.88,19.3
8.686667919158936,2.79,12.57,-8.47,15.41
8.688135862350464,2.23,7.02,-5.6,9.25
8.731258869171143,-2.4,1.75,-3.14,4.32
8.732418060302734,0.27,3.04,1.94,3.61
8.733389854431152,5.18,-2.78,4.85,7.62
8.755561828613281,2.65,-6.18,-0.08,6.72
8.756653785705566,-3.24,-2.53,-0.23,4.11
8.77089786529541,-6.57,-0.35,1.19,6.68
8.772381782531738,-8.67,-0.68,-0.63,8.71
8.787590026855469,-9.73,-1.86,-0.64,9.92
8.78906774520874,-9.63,-2.97,0.28,10.08
8.80263090133667,-8.14,-3.78,1.51,9.1
8.8311767578125,-6.34,-4.51,1.93,8.01
8.832535743713379,-5.44,-5.21,2.17,7.83
8.833556890487671,-5.18,-5.63,2.16,7.94
8.854532718658447,-5.29,-5.78,2.24,8.14
8.855489730834961,-5.29,-5.76,1.99,8.06
8.871098041534424,-5.26,-5.56,1.44,7.78
8.872550010681152,-5.05,-5.41,0.67,7.43
8.88766884803772,-4.71,-4.98,0.17,6.85
8.88918399810791,-4.49,-4.64,-0.11,6.45
8.903498888015747,-4.36,-4.57,-0.2,6.31
8.933138847351074,-4.45,-4.65,-0.06,6.43
8.934479713439941,-4.48,-4.93,0.18,6.66
8.935498714447021,-4.28,-5.43,0.21,6.91
8.954617977142334,-3.84,-5.99,0.33,7.12
8.95563793182373,-3.32,-6.3,0.7,7.15
8.969597816467285,-2.7,-6.22,1.13,6.87
8.971107006072998,-1.9,-5.63,1.34,6.09
8.987704753875732,-0.68,-5.06,0.7,5.15
8.989184856414795,1.07,-4.45,-0.12,4.57
9.003594875335693,2.99,-3.71,-0.55,4.79
9.032543897628784,4.88,-2.81,-0.6,5.66
9.034628868103027,6.95,-1.54,-0.12,7.11
9.03564190864563,9.14,-0.28,0.34,9.15
9.054804801940918,10.93,0.76,0.5,10.96
9.056328773498535,11.76,1.9,0.4,11.91
9.070649862289429,12.07,3.19,0.14,12.48
9.072145938873291,12.81,4.26,-0.59,13.51
9.087954998016357,14.33,5.15,-1.36,15.28
9.089420795440674,16.25,5.85,-2.48,17.44
9.103494882583618,18.45,6.44,-3.09,19.78
9.134415864944458,20.9,6.59,-2.67,22.07
9.13571286201477,22.89,5.58,-0.78,23.57
9.136751890182495,23.05,3.3,1.38,23.32
9.15544605255127,18.76,3.97,2.2,19.3
9.156935930252075,7.85,1.82,1.32,8.16
9.17124891281128,-6.74,0.2,2.78,7.29
9.172705888748169,-16.33,15.82,1.16,22.76
9.185547828674316,-19.39,37.0,2.72,41.86
9.187037944793701,-18.44,30.43,-1.36,35.6
9.203700065612793,-9.91,7.58,-9.68,15.79
9.232999801635742,-0.29,-2.38,-5.05,5.59
9.23430871963501,5.64,-8.93,0.28,10.56
9.235332012176514,9.7,-12.25,2.68,15.85
9.25458574295044,12.49,-12.27,3.36,17.82
9.25565481185913,13.58,-7.17,3.48,15.74
9.271280765533447,12.15,-0.6,1.39,12.24
9.272802829742432,6.75,1.66,-2.7,7.45
9.287868976593018,1.26,2.25,-3.73,4.53
9.289340019226074,-1.78,2.77,-1.42,3.58
9.303590774536133,-2.88,1.99,1.63,3.86
9.332501888275146,-1.06,-0.17,2.91,3.1
9.333940982818604,1.38,-1.64,1.62,2.68
9.33493685722351,2.03,-1.26,-0.37,2.41
9.354529857635498,1.23,-0.33,-1.14,1.7
9.355572938919067,0.64,0.2,-1.19,1.36
9.369833946228027,0.88,0.14,-1.02,1.35
9.370868921279907,1.23,-0.24,-0.63,1.4
9.387835025787354,1.07,-0.4,-0.41,1.21
9.389280796051025,0.71,-0.19,-0.26,0.77
9.403421878814697,0.31,-0.04,-0.31,0.44
9.431358814239502,-0.08,-0.04,-0.26,0.27
9.43266773223877,-0.57,0.03,0.35,0.66
9.433670043945312,-0.79,0.17,1.43,1.64
9.454261779785156,-0.55,0.11,1.51,1.61
9.45530080795288,-0.04,-0.02,0.26,0.26
9.471220970153809,0.14,0.23,-0.64,0.69
9.472265720367432,-0.12,0.4,-0.84,0.93
9.48814582824707,-0.43,0.31,-0.83,0.98
9.48959994316101,-0.66,0.24,-0.52,0.87
9.50246787071228,-0.86,0.28,-0.25,0.93
9.503904819488525,-1.1,0.39,0.07,1.16
9.549002885818481,-1.2,0.47,0.35,1.33
9.550211906433105,-1.06,0.44,0.42,1.22
9.551211833953857,-0.85,0.41,0.3,0.99
9.572031021118164,-0.93,0.29,-0.13,0.98
9.573086738586426,-1.33,0.24,-0.5,1.44
9.587831974029541,-1.74,0.44,-0.37,1.83
9.589316844940186,-1.92,0.64,-0.3,2.04
9.604923725128174,-1.72,0.72,-0.34,1.89
9.60640287399292,-1.32,0.79,-0.35,1.57
9.620161056518555,-1.01,0.81,-0.32,1.33
9.649257898330688,-1.0,0.88,-0.26,1.35
9.650551795959473,-1.3,1.04,-0.24,1.68
9.651556015014648,-1.67,1.3,-0.27,2.13
9.671298027038574,-1.95,1.69,-0.47,2.62
9.672399997711182,-2.12,2.57,-0.38,3.35
9.687295913696289,-2.2,3.3,-0.27,3.97
9.68874979019165,-2.18,3.97,0.23,4.53
9.704649925231934,-2.47,3.93,0.53,4.67
9.706101894378662,-2.83,4.08,0.84,5.03
9.720886945724487,-3.27,4.2,0.42,5.33
9.748539924621582,-3.8,4.81,0.14,6.13
9.749874830245972,-4.42,5.73,-0.16,7.23
9.750878810882568,-5.23,7.15,-0.01,8.85
9.771785736083984,-6.16,9.31,0.1,11.16
9.772888898849487,-7.35,10.69,-0.94,13.0
9.785714864730835,-8.73,11.68,-1.59,14.66
9.786791801452637,-9.96,12.65,-2.05,16.23
9.801997900009155,-10.54,12.6,-2.55,16.62
9.803496837615967,-11.05,11.92,-3.44,16.61
9.817903995513916,-11.91,11.95,-4.39,17.43
9.843760967254639,-10.98,13.42,-3.81,17.75
9.8450608253479,-5.95,15.13,-4.94,16.99
9.846142768859863,-0.12,13.06,-7.02,14.82
9.852296829223633,3.06,8.46,-4.71,10.15
9.85337495803833,0.82,3.04,-2.91,4.28
9.871124744415283,-3.05,0.26,-1.38,3.35
9.872192859649658,0.04,2.32,1.94,3.02
9.887862920761108,4.24,-2.15,3.19,5.72
9.888881921768188,1.29,-2.83,-0.92,3.24
9.90390396118164,-3.94,0.56,0.07,3.98
9.930514812469482,-7.56,0.99,0.64,7.65
9.931877851486206,-9.96,0.06,-0.24,9.96
9.932851791381836,-11.09,-1.15,0.05,11.14
9.935039043426514,-10.73,-2.48,0.82,11.04
9.938467025756836,-8.43,-3.5,2.18,9.38
9.948426723480225,-6.15,-4.16,2.88,7.96
9.958250999450684,-5.33,-4.63,3.25,7.77
9.968678951263428,-5.39,-4.86,3.38,8.0
9.97834300994873,-5.72,-4.88,2.94,8.07
9.988365888595581,-5.88,-4.76,2.4,7.93
10.022214889526367,-5.79,-4.51,1.88,7.57
10.023390769958496,-5.52,-4.27,1.43,7.12
10.024388790130615,-5.15,-4.09,1.09,6.66
10.039028882980347,-4.87,-4.16,0.86,6.46
10.040034770965576,-4.75,-4.45,0.82,6.56
10.051179885864258,-4.55,-4.85,0.82,6.7
10.057425022125244,-4.18,-5.23,0.93,6.75
10.067424774169922,-3.86,-5.49,1.15,6.8
10.077558040618896,-3.46,-5.74,1.44,6.85
10.087465763092041,-3.04,-5.98,1.72,6.92
10.1229567527771,-2.89,-6.2,1.92,7.1
10.124151945114136,-2.96,-6.16,2.1,7.14
10.125155925750732,-2.89,-5.56,2.31,6.67
10.139181852340698,-2.24,-4.37,2.75,5.62
10.140198945999146,-0.32,-3.06,2.6,4.02
10.154677867889404,2.69,-1.96,1.54,3.66
10.156765937805176,5.52,-0.55,0.21,5.55
10.170666933059692,8.24,1.82,-0.65,8.46
10.176995754241943,11.28,4.95,-1.01,12.35
10.187063932418823,14.16,7.67,-2.01,16.22
10.225088834762573,16.61,9.7,-3.35,19.52
10.226469039916992,19.0,11.05,-3.93,22.32
10.22753381729126,21.26,10.85,-4.12,24.22
10.238855838775635,23.01,8.2,-5.33,25.0
10.239938735961914,24.33,4.94,-5.3,25.38
10.253610849380493,24.29,3.2,-2.68,24.64
10.256059885025024,20.95,6.84,-0.37,22.04
10.271858930587769,12.8,1.45,-0.82,12.9
10.27623987197876,-1.5,-1.91,0.72,2.53
10.286187887191772,-12.99,10.26,0.08,16.55
10.296047925949097,-15.07,28.0,3.59,31.99
10.329562902450562,-14.95,27.0,5.58,31.36
10.330776929855347,-10.42,6.94,-7.98,14.84
10.332053899765015,0.18,-0.07,-8.02,8.02
10.335404872894287,7.24,-4.52,-0.26,8.53
10.354995727539062,11.26,-7.82,3.78,14.22
10.356077909469604,13.44,-8.87,4.15,16.62
10.371984958648682,13.22,-6.21,3.83,15.09
10.375362873077393,8.95,-2.1,1.38,9.29
10.385328769683838,3.35,-0.42,-1.68,3.77
10.395411014556885,0.05,1.24,-3.33,3.55
10.432353019714355,-1.51,2.72,-2.62,4.06
10.43349289894104,-2.04,2.36,-0.63,3.18
10.43450403213501,-0.26,0.38,1.47,1.54
10.455958843231201,1.49,-1.14,1.61,2.47
10.457430839538574,1.77,-1.41,0.55,2.32
10.471965789794922,0.96,-0.62,-0.27,1.17
10.473494052886963,0.47,0.19,-0.61,0.79
10.488555908203125,0.75,0.29,-0.59,0.99
10.49004602432251,1.03,-0.01,-0.4,1.1
10.504242897033691,0.67,-0.21,-0.47,0.84
10.534725904464722,0.12,-0.03,-0.47,0.48
10.536006927490234,-0.2,0.21,-0.24,0.37
10.537014961242676,-0.31,0.33,0.29,0.53
10.555564880371094,-0.31,0.13,0.54,0.63
10.556514739990234,-0.22,-0.13,0.28,0.37
10.570497035980225,-0.06,-0.11,-0.01,0.12
10.57197093963623,-0.04,0.05,-0.08,0.1
10.588590860366821,-0.23,0.15,0.16,0.31
10.590039730072021,-0.42,0.12,0.16,0.46
10.603830814361572,-0.56,0.12,-0.08,0.57
10.632969856262207,-0.63,0.31,-0.16,0.72
10.634341716766357,-0.54,0.43,-0.1,0.69
10.635340929031372,-0.39,0.41,0.01,0.56
10.654976844787598,-0.36,0.31,0.08,0.48
10.65602993965149,-0.44,0.28,0.34,0.62
10.671749830245972,-0.65,0.28,0.42,0.82
10.673069953918457,-1.05,0.38,0.48,1.21
10.688241004943848,-1.32,0.56,0.43,1.49
10.689694881439209,-1.21,0.66,0.27,1.4
10.704787731170654,-0.94,0.73,-0.1,1.19
10.734089851379395,-0.81,0.66,-0.4,1.11
10.73552393913269,-0.97,0.64,-0.53,1.27
10.736560821533203,-1.3,0.69,-0.55,1.57
10.755261898040771,-1.72,0.91,-0.37,1.98
10.756321907043457,-2.35,1.29,-0.12,2.68
10.771792888641357,-2.54,1.56,0.24,2.99
10.773231029510498,-2.45,1.82,0.36,3.07
10.78846287727356,-2.29,2.15,0.33,3.15
10.7899169921875,-2.08,2.59,0.02,3.32
10.804147720336914,-2.19,3.15,-0.24,3.84
10.832138061523438,-2.33,3.65,-0.41,4.34
10.833505868911743,-2.67,4.02,-0.3,4.83
10.834513902664185,-3.15,4.31,0.01,5.33
10.855325937271118,-3.63,4.69,0.69,5.97
10.856377840042114,-4.14,5.23,1.13,6.76
10.872100830078125,-4.86,6.12,1.33,7.92
10.87355089187622,-5.96,7.77,1.56,9.91
10.888783931732178,-7.21,9.66,1.07,12.1
10.890299797058105,-8.85,11.12,-0.21,14.21
10.904350757598877,-10.59,12.07,-0.63,16.06
10.932366847991943,-12.16,12.5,-0.39,17.44
10.933706760406494,-13.78,12.87,-0.3,18.85
10.934721946716309,-14.44,14.03,-1.0,20.15
10.95203971862793,-11.53,15.58,-4.12,19.81
10.953121900558472,-4.11,15.25,-10.03,18.7
10.971683979034424,3.11,15.09,-8.57,17.63
10.97276496887207,5.5,11.18,-4.08,13.11
10.98875093460083,1.86,5.08,-3.35,6.36
10.990233898162842,-3.71,0.88,-1.99,4.3
11.00412392616272,-2.0,1.56,-2.16,3.33
11.03108286857605,4.38,-0.41,0.48,4.42
11.032443046569824,3.77,-2.76,-2.06,5.1
11.033419847488403,-2.41,-0.11,-3.1,3.92
11.035597801208496,-6.61,1.3,-0.39,6.74
11.040220737457275,-8.67,0.48,-0.79,8.71
11.050174713134766,-10.33,-1.11,-1.58,10.5
11.06034803390503,-11.47,-2.39,-1.23,11.78
11.070147037506104,-11.14,-3.18,-0.02,11.58
11.080270767211914,-9.38,-4.27,1.28,10.38
11.090313911437988,-7.4,-5.7,1.95,9.54
11.100136756896973,-6.03,-6.34,2.36,9.06
11.131402015686035,-5.49,-6.0,2.13,8.4
11.13256287574768,-5.46,-5.45,1.55,7.86
11.133769989013672,-5.84,-5.28,0.58,7.89
11.139431953430176,-5.88,-5.1,-0.3,7.78
11.149448871612549,-5.37,-4.8,-0.93,7.26
11.159492015838623,-4.77,-4.52,-1.24,6.68
11.169370889663696,-4.37,-4.64,-1.22,6.48
11.179609775543213,-4.06,-5.12,-1.12,6.62
11.189470767974854,-3.57,-5.62,-1.09,6.74
11.199259757995605,-2.86,-5.98,-1.11,6.72
11.230602741241455,-2.07,-6.13,-0.89,6.53
11.231794834136963,-1.2,-6.16,-0.52,6.29
11.233028888702393,-0.45,-6.14,-0.69,6.19
11.238855838775635,0.25,-5.91,-1.25,6.04
11.248602867126465,1.47,-5.13,-1.49,5.54
11.25890588760376,3.31,-3.97,-1.38,5.34
11.268658876419067,5.11,-2.77,-0.76,5.86
11.278619766235352,6.5,-1.12,0.21,6.59
11.288646936416626,7.22,0.79,0.58,7.28
11.29867696762085,7.45,2.69,0.35,7.92
11.32871389389038,8.27,4.72,-0.23,9.52
11.329912900924683,10.57,6.7,-1.26,12.57
11.331151962280273,13.96,7.96,-2.29,16.23
11.337913036346436,17.27,8.34,-3.08,19.42
11.34801983833313,20.05,7.9,-2.95,21.75
11.357758045196533,21.69,6.13,-2.58,22.68
11.36846399307251,21.93,4.05,-2.25,22.41
11.378015995025635,21.11,2.97,-0.99,21.34
11.387801885604858,18.9,2.13,-0.34,19.02
11.39779281616211,15.91,3.84,-0.3,16.36
11.430048942565918,9.44,4.6,0.88,10.53
11.431241035461426,-2.21,-0.58,0.47,2.33
11.432564735412598,-13.39,4.34,1.23,14.12
11.437166929244995,-16.88,20.21,2.96,26.49
11.455255031585693,-15.11,30.15,6.82,34.4
11.456832885742188,-11.38,13.51,-3.37,17.98
11.471916913986206,-3.44,-0.74,-5.73,6.72
11.476699829101562,5.45,-2.15,-2.13,6.23
11.486901760101318,10.7,-6.51,2.97,12.87
11.497102737426758,12.82,-9.48,3.01,16.22
11.535408020019531,13.71,-7.08,1.81,15.53
11.536597728729248,12.07,-1.31,1.2,12.2
11.537601947784424,6.79,0.85,-1.83,7.08
11.55601692199707,1.74,0.9,-4.15,4.58
11.55704402923584,-0.96,1.74,-2.84,3.46
11.571826934814453,-1.87,2.19,0.45,2.91
11.572871923446655,-0.61,0.58,1.9,2.07
11.589118957519531,0.97,-1.04,1.09,1.79
11.590592861175537,1.52,-0.9,-0.22,1.78
11.604594945907593,1.07,-0.19,-0.7,1.29
11.634073734283447,0.86,0.13,-0.84,1.2
11.635447978973389,1.14,-0.06,-0.57,1.27
11.63645601272583,1.19,-0.33,-0.06,1.23
11.655726909637451,0.57,-0.36,0.21,0.7
11.656774044036865,-0.13,-0.13,-0.16,0.24
11.67186689376831,-0.48,0.17,-0.55,0.74
11.672898769378662,-0.55,0.4,-0.03,0.68
11.689836025238037,-0.43,0.28,0.63,0.81
11.691271781921387,-0.27,0.03,0.49,0.56
11.704922914505005,-0.24,-0.07,-0.23,0.33
11.73478078842163,-0.31,0.18,-0.51,0.62
11.736105918884277,-0.54,0.43,-0.24,0.73
11.737106800079346,-0.81,0.37,-0.16,0.9
11.755719900131226,-0.81,0.23,-0.25,0.87
11.756723880767822,-0.64,0.21,-0.09,0.67
11.771905899047852,-0.57,0.28,0.36,0.73
11.772928714752197,-0.53,0.34,0.72,0.95
11.788872718811035,-0.58,0.34,0.71,0.97
11.790257930755615,-0.82,0.38,0.56,1.06
11.804560899734497,-1.06,0.43,0.35,1.19
11.834147930145264,-1.11,0.48,0.1,1.21
11.835470914840698,-1.07,0.52,-0.31,1.22
11.836407899856567,-1.09,0.68,-0.63,1.43
11.85558795928955,-1.39,1.02,-0.77,1.88
11.856591939926147,-1.9,1.31,-0.8,2.44
11.872183799743652,-2.26,1.93,-0.26,2.98
11.873250007629395,-2.39,2.34,-0.07,3.34
11.889095783233643,-2.28,2.71,0.17,3.54
11.890523910522461,-2.19,2.67,0.32,3.46
11.904620885848999,-2.1,2.84,0.46,3.56
11.906085968017578,-2.19,3.09,0.33,3.8
11.948795795440674,-2.49,3.54,0.26,4.33
11.94996976852417,-2.96,3.92,0.24,4.91
11.950942039489746,-3.56,4.28,0.32,5.57
11.953015804290771,-4.21,4.68,0.36,6.3
11.9544358253479,-4.84,5.03,0.32,6.98
11.963212966918945,-5.53,5.53,0.46,7.83
11.97339677810669,-6.39,6.66,0.52,9.24
11.983019828796387,-7.44,8.41,0.72,11.25
11.993583917617798,-8.41,10.78,1.3,13.73
12.003410816192627,-9.4,13.0,0.69,16.05
12.035178899765015,-10.63,13.64,-1.32,17.34
12.036402940750122,-12.43,14.15,-2.22,18.96
12.037439823150635,-13.62,16.6,-2.5,21.61
12.052602767944336,-10.77,17.96,-6.05,21.79
12.05366587638855,-3.22,17.27,-11.07,20.76
12.072196006774902,2.14,14.81,-8.58,17.24
12.07323694229126,2.36,9.74,-3.86,10.73
12.088913917541504,-1.56,4.12,-2.11,4.88
12.09252405166626,-2.8,0.06,-2.62,3.83
12.104780912399292,2.96,0.63,-1.23,3.26
12.13518476486206,6.66,-3.2,1.69,7.57
12.136512756347656,1.82,-3.18,-2.34,4.34
12.137528896331787,-5.42,-0.75,-1.29,5.62
12.156039714813232,-9.42,-0.17,0.7,9.44
12.157074928283691,-11.29,-1.12,0.01,11.34
12.172212839126587,-12.56,-2.23,-0.29,12.75
12.1732497215271,-12.75,-3.36,0.18,13.18
12.189202785491943,-10.85,-4.19,1.97,11.79
12.191741943359375,-7.47,-5.28,3.27,9.71
12.204611778259277,-4.8,-6.1,3.41,8.47
12.234267711639404,-4.01,-5.65,3.01,7.55
12.235641956329346,-4.37,-4.64,2.29,6.77
12.23666787147522,-5.17,-4.32,1.48,6.89
12.256079912185669,-5.53,-4.2,0.69,6.97
12.257130861282349,-5.27,-3.92,-0.2,6.57
12.272019863128662,-4.87,-3.5,-0.72,6.04
12.27305793762207,-4.38,-3.28,-0.76,5.52
12.289245843887329,-3.76,-3.48,-0.55,5.15
12.290802001953125,-3.02,-3.94,-0.26,4.97
12.304802894592285,-2.01,-4.39,-0.48,4.85
12.339158058166504,-0.74,-4.63,-1.02,4.79
12.340435028076172,0.49,-4.69,-1.2,4.86
12.341448783874512,1.71,-4.8,-0.86,5.16
12.356299877166748,2.77,-5.01,-1.09,5.82
12.357342720031738,3.56,-5.14,-1.85,6.52
12.37220573425293,3.96,-4.71,-2.05,6.48
12.37324571609497,4.36,-3.73,-1.52,5.93
12.388820886611938,5.31,-2.74,-0.69,6.01
12.389867782592773,6.74,-1.57,0.28,6.92
12.405004978179932,8.09,-0.21,0.87,8.13
12.437859058380127,9.22,1.33,0.71,9.34
12.439247846603394,10.79,3.06,0.28,11.21
12.44026803970337,13.29,4.5,-0.12,14.03
12.456195831298828,15.74,5.0,-0.79,16.53
12.457225799560547,17.32,4.79,-1.67,18.04
12.472272872924805,18.46,4.39,-2.29,19.11
12.4733247756958,19.48,3.95,-2.35,20.01
12.489336013793945,20.67,3.07,-2.25,21.01
12.490810871124268,21.11,1.79,-1.8,21.26
12.505015850067139,19.93,0.34,-0.82,19.94
12.5379958152771,15.52,0.98,0.75,15.56
12.539333820343018,7.3,4.45,2.48,8.9
12.540311813354492,-3.57,-0.82,0.65,3.72
12.556183815002441,-14.86,5.01,-0.53,15.69
12.557233810424805,-19.41,26.91,0.14,33.18
12.572469711303711,-18.81,35.83,3.62,40.62
12.57353401184082,-13.78,15.36,-8.17,22.19
12.58925199508667,-4.34,-1.12,-6.01,7.49
12.590730905532837,2.55,-7.25,-0.24,7.68
12.604962825775146,8.3,-8.13,3.81,12.22
12.637166976928711,10.83,-10.84,4.01,15.83
12.638592720031738,12.14,-9.85,0.54,15.64
12.639579772949219,12.81,-2.63,1.45,13.15
12.656500816345215,9.84,2.16,-0.25,10.07
12.657533884048462,4.13,1.94,-3.65,5.84
12.673768043518066,0.4,2.22,-3.96,4.55
12.674806833267212,-1.81,2.59,-2.48,4.01
12.689729928970337,-2.7,1.37,0.98,3.18
12.691195011138916,-0.47,-0.89,3.2,3.35
12.705206871032715,1.92,-2.19,2.4,3.77
12.707828044891357,2.1,-1.56,0.8,2.73
12.75141191482544,1.09,-0.14,-0.68,1.29
12.752573013305664,0.77,0.68,-1.32,1.67
12.753571033477783,0.91,0.45,-0.41,1.09
12.773088932037354,0.88,-0.24,0.61,1.09
12.774058818817139,0.73,-0.45,0.54,1.01
12.789713859558105,0.52,-0.25,-0.41,0.7
12.791175842285156,0.18,0.04,-1.3,1.31
12.804481029510498,-0.26,0.33,-1.39,1.45
12.805966854095459,-0.39,0.38,-0.25,0.59
12.821386814117432,0.07,-0.08,0.89,0.89
12.852104902267456,0.63,-0.41,1.29,1.49
12.853447914123535,0.7,-0.32,1.04,1.29
12.854456901550293,0.22,-0.09,0.14,0.27
12.873018741607666,-0.31,0.3,-0.63,0.76
12.874032974243164,-0.52,0.5,-0.82,1.09
12.889121055603027,-0.48,0.45,-0.55,0.85
12.890162944793701,-0.43,0.31,-0.09,0.53
12.906261920928955,-0.48,0.22,0.27,0.59
12.907668828964233,-0.45,0.27,0.6,0.79
12.921653747558594,-0.51,0.35,0.61,0.86
12.951220989227295,-0.7,0.4,0.4,0.9
12.952523946762085,-0.98,0.38,0.0,1.05
12.953536033630371,-1.28,0.32,-0.39,1.37
12.972908973693848,-1.38,0.47,-0.59,1.57
12.973928928375244,-1.54,0.71,-0.66,1.81
12.989112854003906,-1.72,0.92,-0.72,2.07
12.990160942077637,-1.85,1.0,-0.7,2.21
13.005462884902954,-1.97,0.98,-0.48,2.25
13.006922721862793,-2.03,0.94,-0.06,2.23
13.021402835845947,-2.03,0.96,0.24,2.25
13.05095386505127,-1.81,1.18,0.07,2.16
13.052361011505127,-1.39,1.66,-0.18,2.17
13.053356885910034,-1.16,2.07,-0.16,2.37
13.072957992553711,-1.48,2.86,0.43,3.24
13.074036836624146,-1.79,3.11,0.45,3.61
13.089231014251709,-2.22,3.19,-0.01,3.88
13.090276718139648,-2.52,3.4,0.2,4.23
13.106307983398438,-2.7,3.74,0.32,4.62
13.107741832733154,-2.75,4.06,-0.01,4.9
13.12186574935913,-2.91,4.53,0.05,5.38
13.149470806121826,-3.59,5.58,0.56,6.65
13.150856971740723,-4.77,7.07,0.98,8.58
13.15183401107788,-6.32,8.9,0.91,10.95
13.15390396118164,-7.91,10.53,0.4,13.17
13.155097007751465,-9.44,11.6,-0.15,14.95
13.164711952209473,-10.62,11.92,-0.79,15.98
13.174778938293457,-11.56,11.5,-1.41,16.36
13.184071063995361,-12.68,11.59,-2.02,17.29
13.193946838378906,-13.16,13.02,-2.44,18.67
13.203798770904541,-10.07,14.19,-5.04,18.11
13.237559795379639,-3.43,14.33,-8.89,17.2
13.238522052764893,1.65,13.44,-6.55,15.04
13.23934292793274,2.57,9.48,-2.86,10.23
13.25693392753601,-0.99,4.26,-1.24,4.54
13.257991790771484,-3.52,-0.43,-1.7,3.93
13.272724866867065,0.8,0.25,-2.42,2.56
13.273723840713501,6.39,-1.45,0.54,6.57
13.289459943771362,4.17,-2.72,-1.25,5.13
13.293153762817383,-3.1,-0.64,-2.89,4.28
13.303634881973267,-8.13,-0.24,-0.61,8.15
13.340229034423828,-10.54,-1.34,-0.74,10.65
13.34155797958374,-12.12,-2.71,-0.79,12.44
13.342630863189697,-13.02,-4.21,-0.39,13.68
13.356794834136963,-12.84,-5.53,0.66,13.99
13.357853889465332,-10.96,-6.42,2.86,13.01
13.372360944747925,-7.9,-6.98,4.09,11.3
13.373402833938599,-5.82,-6.6,3.54,9.48
13.38923692703247,-4.72,-5.01,2.29,7.25
13.392506837844849,-4.38,-3.97,1.38,6.07
13.405114889144897,-5.02,-3.98,0.65,6.43
13.44049882888794,-5.53,-3.98,0.18,6.81
13.44184684753418,-5.2,-3.51,-0.46,6.29
13.442863941192627,-4.31,-3.04,-1.35,5.44
13.456713914871216,-3.36,-2.83,-2.04,4.84
13.45771598815918,-2.69,-2.83,-1.89,4.33
13.472638845443726,-2.41,-3.39,-1.51,4.42
13.473646879196167,-2.4,-4.27,-1.23,5.05
13.489532947540283,-2.35,-4.57,-0.73,5.19
13.491868019104004,-2.22,-4.13,0.21,4.69
13.505229949951172,-1.91,-3.42,0.77,3.99
13.51167893409729,-0.44,-2.89,0.34,2.94
13.550720930099487,1.69,-2.3,-0.78,2.95
13.551888942718506,3.2,-1.39,-1.6,3.83
13.552889823913574,4.73,0.07,-1.63,5.0
13.5731840133667,6.83,1.65,-1.4,7.16
13.574234008789062,9.12,2.45,-1.48,9.55
13.589123725891113,11.08,3.07,-1.83,11.64
13.5901780128479,13.0,4.24,-2.19,13.84
13.606375932693481,15.19,5.13,-2.36,16.2
13.607834815979004,17.32,5.25,-2.08,18.21
13.621768951416016,18.75,4.42,-1.02,19.29
13.65027904510498,19.14,3.27,0.37,19.42
13.651644945144653,18.72,2.52,1.5,18.94
13.652637958526611,18.0,1.97,2.13,18.23
13.672170877456665,16.56,1.34,2.2,16.75
13.673218727111816,13.75,5.14,2.68,14.92
13.689635753631592,9.31,6.47,1.69,11.46
13.690639972686768,2.47,-1.63,-2.35,3.77
13.70687198638916,-9.1,4.81,-0.73,10.31
13.708375930786133,-12.01,27.17,4.29,30.01
13.72232985496521,-9.71,32.43,9.0,35.02
13.750763893127441,-7.7,8.43,-4.55,12.29
13.752094745635986,1.32,0.65,-7.99,8.12
13.753128051757812,9.24,-2.34,-1.95,9.72
13.773790836334229,12.2,-6.7,3.48,14.34
13.774876832962036,13.21,-8.66,2.46,15.98
13.78955602645874,11.99,-5.98,1.87,13.52
13.790585041046143,7.15,-1.36,1.39,7.4
13.806924819946289,2.3,-0.22,-0.65,2.4
13.80843186378479,-0.24,0.69,-2.57,2.67
13.821403980255127,-1.15,2.06,-2.56,3.48
13.84944486618042,-1.15,2.02,-0.65,2.41
13.850656986236572,0.27,0.38,1.35,1.42
13.851418018341064,1.83,-0.98,1.83,2.76
13.853391885757446,1.97,-1.32,0.85,2.51
13.858901023864746,1.04,-0.53,-0.26,1.19
13.868928909301758,0.46,0.36,-0.67,0.88
13.879121780395508,0.29,0.44,-0.29,0.6
13.88881778717041,0.07,0.05,-0.21,0.22
13.89865779876709,0.09,-0.08,-0.76,0.76
13.908662796020508,0.23,0.1,-1.28,1.3
13.945291996002197,0.1,0.17,-1.05,1.06
13.946496963500977,-0.14,0.02,-0.21,0.25
13.947504997253418,-0.12,-0.06,0.68,0.69
13.956377029418945,0.07,0.02,1.03,1.03
13.958114862442017,0.06,0.18,0.78,0.8
13.972768783569336,-0.2,0.34,0.23,0.45
13.978107929229736,-0.32,0.36,-0.31,0.57
13.98955774307251,-0.37,0.34,-0.73,0.88
13.997813940048218,-0.53,0.36,-0.77,1.0
14.008103847503662,-0.92,0.54,-0.23,1.09
14.045129776000977,-1.29,0.66,0.24,1.46
14.046445846557617,-1.29,0.63,0.32,1.47
14.047412872314453,-0.87,0.52,0.32,1.06
14.054050922393799,-0.43,0.36,0.26,0.61
14.057461738586426,-0.27,0.12,0.09,0.3
14.073084831237793,-0.38,0.0,0.1,0.39
14.077404975891113,-0.57,0.11,0.09,0.58
14.08966588973999,-0.74,0.34,-0.09,0.81
14.097261905670166,-1.17,0.74,-0.34,1.42
14.107252836227417,-1.65,1.32,-0.49,2.16
14.14479684829712,-1.97,1.69,-0.82,2.72
14.146522045135498,-2.05,2.06,-0.53,2.95
14.147539854049683,-2.04,2.21,0.15,3.01
14.157374858856201,-1.89,2.18,0.54,2.93
14.158448934555054,-1.77,2.24,0.39,2.88
14.173327922821045,-1.73,2.44,0.23,2.99
14.176617860794067,-1.83,2.7,0.07,3.26
14.189754962921143,-2.11,2.96,0.13,3.63
14.196545839309692,-2.58,3.14,0.25,4.07
14.206521987915039,-3.18,3.24,0.28,4.54
14.245636940002441,-3.73,3.5,0.15,5.11
14.246891021728516,-4.04,3.96,-0.02,5.65
14.247946739196777,-4.4,4.53,-0.09,6.31
14.2566659450531,-5.16,5.63,0.12,7.63
14.257717847824097,-6.44,7.25,0.29,9.7
14.273111820220947,-7.91,9.54,0.33,12.39
14.2758150100708,-9.36,11.76,-0.75,15.04
14.28991174697876,-10.55,12.59,-2.76,16.65
14.295979976654053,-11.45,12.39,-3.56,17.24
14.30575180053711,-12.32,12.36,-4.3,17.97
14.316110849380493,-12.65,14.03,-3.85,19.27
14.347766876220703,-9.51,16.38,-4.4,19.44
14.348939895629883,-3.46,14.82,-8.37,17.36
14.350108861923218,0.82,11.81,-8.2,14.4
14.35514783859253,1.84,9.36,-4.87,10.71
14.37021780014038,-1.34,4.83,-1.25,5.16
14.375093936920166,-2.83,-0.66,-1.22,3.15
14.386514902114868,2.47,0.03,-0.87,2.61
14.39500093460083,7.53,-2.23,1.75,8.04
14.404965877532959,4.2,-3.63,-1.39,5.72
14.41509485244751,-3.76,-1.23,-2.06,4.46
14.446940898895264,-9.27,-0.19,0.15,9.27
14.448145866394043,-12.1,-0.8,-0.09,12.12
14.44936990737915,-14.06,-1.78,0.3,14.17
14.4544038772583,-15.28,-2.99,1.3,15.62
14.464341878890991,-14.95,-4.39,2.56,15.79
14.47433090209961,-11.57,-5.42,4.26,13.46
14.484370946884155,-6.74,-5.9,4.68,10.1
14.49443006515503,-4.48,-5.28,3.98,7.98
14.504247903823853,-4.55,-3.78,3.22,6.73
14.514362812042236,-5.1,-3.37,2.74,6.69
14.54508090019226,-5.25,-3.28,2.24,6.58
14.546233892440796,-4.82,-2.87,1.38,5.77
14.547071933746338,-4.25,-2.4,0.07,4.88
14.55718183517456,-3.92,-1.88,-0.78,4.41
14.563838005065918,-3.8,-1.43,-1.01,4.18
14.573572874069214,-3.48,-1.24,-0.87,3.79
14.583367824554443,-2.85,-1.14,-0.13,3.07
14.593673944473267,-1.71,-1.16,0.12,2.06
14.603720903396606,0.6,-2.22,-0.8,2.43
14.61359691619873,2.61,-2.66,-1.72,4.1
14.645143985748291,4.21,-2.43,-1.78,5.17
14.646484851837158,5.9,-2.41,-1.42,6.52
14.64749002456665,7.74,-2.5,-0.2,8.13
14.653700828552246,9.35,-2.72,1.3,9.82
14.66306185722351,10.05,-2.72,1.6,10.53
14.673402786254883,9.18,-1.54,0.74,9.33
14.68290090560913,8.8,0.34,0.21,8.8
14.692878723144531,10.03,1.73,-0.46,10.18
14.70305871963501,11.83,2.73,-0.91,12.17
14.713029861450195,13.98,3.67,-0.96,14.48
14.750972747802734,16.46,3.89,-1.72,17.0
14.75224494934082,18.87,2.82,-3.0,19.31
14.753049850463867,21.29,1.75,-3.28,21.61
14.773605823516846,23.57,0.64,-2.58,23.71
14.774704933166504,24.64,-1.12,-0.81,24.67
14.79034686088562,22.48,-0.12,0.27,22.48
14.791370868682861,13.8,3.01,0.91,14.15
14.806793928146362,-0.41,-1.45,0.16,1.51
14.808230876922607,-12.73,12.78,-3.09,18.3
14.822521924972534,-14.96,41.27,4.66,44.14
14.849525928497314,-15.39,34.87,7.93,38.93
14.850947856903076,-10.34,6.16,-13.32,17.95
14.85175085067749,-0.13,-3.51,-9.26,9.9
14.853758811950684,6.17,-6.63,3.85,9.84
14.861518859863281,11.25,-10.34,8.15,17.31
14.871572971343994,13.35,-12.84,5.9,19.43
14.881358861923218,12.74,-8.07,3.25,15.42
14.891380786895752,9.48,-1.35,2.06,9.79
14.901135921478271,3.64,0.75,-1.56,4.03
14.911175727844238,0.07,1.84,-4.06,4.45
14.946961879730225,-1.34,3.4,-4.37,5.69
14.948170900344849,-2.44,3.62,-2.24,4.9
14.948987007141113,-1.56,1.45,0.21,2.14
14.954558849334717,0.72,-1.05,0.9,1.55
14.973424911499023,1.94,-1.86,0.21,2.69
14.974483966827393,1.61,-1.06,-0.41,1.97
14.99013900756836,0.58,-0.11,-0.63,0.86
14.991199970245361,0.26,0.2,-0.43,0.54
15.005825996398926,0.67,0.0,0.22,0.7
15.010529041290283,0.95,-0.36,0.42,1.09
15.048945903778076,0.71,-0.32,0.23,0.81
15.050097942352295,0.29,-0.04,-0.12,0.31
15.051271915435791,-0.11,0.17,-0.25,0.32
15.053257942199707,-0.45,0.25,-0.08,0.52
15.059877872467041,-0.53,0.23,0.18,0.6
15.070202827453613,-0.38,0.05,0.25,0.45
15.0799560546875,-0.2,-0.05,0.15,0.25
15.089773893356323,-0.12,0.03,-0.16,0.2
15.099703788757324,-0.29,0.19,-0.36,0.49
15.109917879104614,-0.68,0.35,-0.17,0.78
15.119942903518677,-1.25,0.49,0.07,1.34
15.150718927383423,-1.52,0.56,0.22,1.63
15.15190076828003,-1.41,0.53,0.25,1.52
15.15287971496582,-1.18,0.46,0.34,1.31
15.174299716949463,-1.19,0.37,0.28,1.27
15.175309896469116,-1.45,0.39,0.08,1.5
15.190107822418213,-1.51,0.5,-0.13,1.59
15.1911039352417,-1.17,0.65,-0.43,1.4
15.207320928573608,-0.71,0.79,-0.72,1.28
15.20865774154663,-0.56,0.92,-0.81,1.34
15.222807884216309,-0.77,1.01,-0.71,1.45
15.250241756439209,-1.21,1.09,-0.54,1.71
15.25154972076416,-1.64,1.27,-0.13,2.07
15.25258493423462,-1.9,1.64,0.43,2.54
15.258654832839966,-2.11,2.04,0.68,3.01
15.268494844436646,-2.06,2.26,0.36,3.07
15.278532981872559,-2.41,2.77,-0.03,3.67
15.288243770599365,-2.64,3.35,-0.29,4.27
15.298290729522705,-3.0,3.96,-0.35,4.98
15.30812692642212,-3.31,4.49,-0.35,5.58
15.318379878997803,-3.68,4.87,-0.25,6.1
15.347791910171509,-4.22,5.26,0.25,6.74
15.349021911621094,-5.04,5.73,0.83,7.67
15.35014295578003,-6.2,6.82,1.48,9.33
15.357507944107056,-7.17,8.59,1.69,11.31
15.374054908752441,-8.18,10.34,0.85,13.21
15.377493858337402,-9.88,11.67,-0.5,15.29
15.388010025024414,-11.41,12.48,-1.54,16.97
15.39791488647461,-12.37,12.31,-2.35,17.6
15.40733289718628,-13.01,12.1,-3.01,18.02
15.417517900466919,-12.9,13.95,-2.66,19.18
15.44800591468811,-9.75,15.85,-4.56,19.15
15.449193954467773,-3.05,15.23,-8.5,17.7
15.450309753417969,2.43,12.96,-7.23,15.03
15.456837892532349,3.05,8.9,-3.62,10.08
15.473728895187378,-1.19,4.05,-1.44,4.46
15.476732730865479,-3.6,-0.62,-2.24,4.28
15.490123748779297,1.89,0.73,-1.96,2.81
15.496939897537231,8.07,-1.49,1.26,8.3
15.5065279006958,5.11,-2.64,-1.35,5.9
15.51675271987915,-2.97,-0.42,-2.76,4.07
15.554996967315674,-8.35,0.06,-0.34,8.35
15.55620288848877,-11.03,-0.66,-0.3,11.05
15.557208061218262,-12.81,-1.76,-0.43,12.93
15.574144840240479,-14.13,-3.07,-0.23,14.46
15.575198888778687,-14.44,-4.05,0.37,15.0
15.590284824371338,-12.92,-4.61,1.86,13.84
15.591346740722656,-9.29,-5.22,3.05,11.08
15.607434749603271,-6.31,-5.68,2.9,8.97
15.608885765075684,-5.31,-4.92,2.23,7.57
15.62362289428711,-5.53,-4.44,1.49,7.24
15.653209924697876,-5.79,-4.83,0.77,7.57
15.654492855072021,-5.51,-4.74,0.1,7.26
15.655482769012451,-5.07,-4.25,-0.76,6.65
15.67424201965332,-4.53,-3.58,-1.44,5.95
15.675283908843994,-3.7,-3.09,-1.87,5.17
15.690477848052979,-2.53,-3.18,-2.13,4.58
15.691516876220703,-1.21,-3.81,-2.17,4.54
15.707159042358398,-0.18,-4.73,-2.21,5.22
15.70864987373352,0.47,-5.48,-2.11,5.89
15.72288179397583,0.85,-5.8,-1.76,6.12
15.750577926635742,1.21,-5.76,-1.16,5.99
15.751997947692871,1.84,-5.18,-0.88,5.56
15.752961874008179,2.87,-4.21,-1.37,5.27
15.755476951599121,4.49,-3.16,-2.1,5.87
15.764606952667236,6.86,-1.83,-2.24,7.44
15.774662971496582,9.64,0.3,-1.18,9.71
15.784502983093262,12.19,2.49,0.22,12.44
15.794359922409058,14.34,4.09,0.93,14.94
15.804746866226196,16.24,5.49,1.42,17.2
15.814555883407593,18.03,6.62,1.3,19.25
15.85168170928955,19.43,6.99,0.36,20.65
15.853096961975098,20.39,7.04,-0.61,21.57
15.853993892669678,21.03,6.51,-0.78,22.02
15.870658874511719,21.41,4.94,0.01,21.97
15.871702909469604,21.49,3.35,0.42,21.75
15.890552043914795,19.63,5.83,-0.54,20.48
15.891602039337158,9.49,-0.78,-3.06,10.0
15.907671928405762,-5.65,-2.99,-1.7,6.61
15.909175872802734,-17.5,14.64,-0.73,22.82
15.922966957092285,-20.46,38.78,9.84,44.93
15.924522876739502,-19.46,29.78,4.8,35.89
15.965404033660889,-8.51,7.78,-7.24,13.61
15.966591835021973,2.72,-1.25,-4.73,5.59
15.967834949493408,7.78,-8.78,1.55,11.83
15.970356941223145,11.14,-12.21,2.69,16.74
15.99079704284668,13.18,-12.35,1.26,18.1
15.991851806640625,14.03,-7.91,1.89,16.21
16.007323741912842,12.75,-1.29,2.77,13.11
16.008358001708984,7.0,1.19,-1.08,7.18
16.022899866104126,1.35,1.31,-2.76,3.34
16.024385929107666,-1.48,2.28,-3.19,4.19
16.06742572784424,-2.72,2.71,-1.82,4.24
16.068565845489502,-1.88,1.45,0.94,2.55
16.06976294517517,1.05,-0.81,1.79,2.22
16.07133674621582,2.59,-1.9,0.97,3.35
16.072722911834717,1.83,-1.29,0.18,2.24
16.082291841506958,0.41,-0.11,-0.27,0.5
16.092360019683838,0.04,0.38,-0.3,0.48
16.102208852767944,0.47,0.15,-0.09,0.5
16.11230182647705,0.71,-0.15,0.1,0.73
16.122429847717285,0.54,-0.25,-0.32,0.67
16.15283989906311,0.28,-0.11,-0.8,0.85
16.153990745544434,0.04,0.22,-0.81,0.84
16.15495204925537,-0.17,0.34,-0.47,0.6
16.171340942382812,-0.33,0.24,0.05,0.41
16.17232394218445,-0.4,0.11,0.51,0.65
16.187593936920166,-0.48,0.06,0.6,0.77
16.191346883773804,-0.49,0.09,0.15,0.52
16.204364776611328,-0.45,0.2,-0.37,0.61
16.21159791946411,-0.57,0.39,-0.52,0.86
16.22135305404663,-0.91,0.53,-0.42,1.13
16.252591848373413,-1.18,0.56,-0.21,1.32
16.25387692451477,-1.21,0.57,0.05,1.33
16.254931926727295,-1.06,0.58,0.31,1.24
16.27461576461792,-1.01,0.55,0.39,1.21
16.275650024414062,-1.12,0.56,0.24,1.27
16.290754795074463,-1.18,0.53,-0.14,1.3
16.291791915893555,-1.17,0.48,-0.44,1.33
16.30766487121582,-0.97,0.43,-0.64,1.23
16.310739994049072,-0.82,0.45,-0.8,1.23
16.323078870773315,-0.9,0.62,-0.75,1.32
16.35836696624756,-1.05,0.85,-0.63,1.49
16.359673976898193,-1.2,1.05,-0.33,1.62
16.36066198348999,-1.5,1.27,-0.24,1.98
16.371906757354736,-1.87,1.78,0.09,2.58
16.372955799102783,-2.08,2.37,0.1,3.15
16.390087842941284,-1.99,3.06,0.32,3.66
16.39109492301941,-2.07,3.39,0.42,3.99
16.405983924865723,-2.34,3.71,0.61,4.42
16.41014790534973,-2.85,4.0,0.32,4.92
16.42303705215454,-3.43,4.38,-0.02,5.56
16.459048748016357,-4.05,4.96,-0.26,6.4
16.46032691001892,-4.72,5.78,-0.18,7.46
16.461352825164795,-5.45,7.26,0.22,9.08
16.474700927734375,-6.3,9.86,0.88,11.73
16.475759983062744,-7.84,12.91,0.36,15.1
16.48919677734375,-9.86,14.1,-1.71,17.29
16.490294933319092,-11.24,14.55,-2.97,18.62
16.504997730255127,-11.76,13.97,-3.82,18.65
16.509315013885498,-12.06,12.6,-4.45,18.0
16.520699977874756,-12.84,13.08,-3.81,18.72
16.5556640625,-11.64,15.12,-3.36,19.37
16.556967735290527,-5.91,16.83,-5.72,18.73
16.55808401107788,0.21,12.7,-10.24,16.31
16.57500386238098,2.7,7.91,-7.27,11.07
16.576039791107178,-0.5,3.7,-3.63,5.2
16.59062385559082,-3.08,0.11,-1.98,3.66
16.59166693687439,1.81,0.41,1.46,2.36
16.60917901992798,5.69,-4.76,3.67,8.27
16.610675811767578,1.11,-4.83,-0.57,4.98
16.623482942581177,-5.24,-1.58,0.43,5.48
16.655478954315186,-9.15,-0.48,1.6,9.3
16.656795024871826,-11.11,-1.15,0.51,11.18
16.65786075592041,-12.25,-2.3,0.24,12.46
16.6750168800354,-12.49,-3.39,0.56,12.95
16.676090717315674,-10.64,-3.87,1.75,11.45
16.69093084335327,-7.47,-4.5,2.43,9.05
16.691964864730835,-5.65,-4.97,2.91,8.06
16.708130836486816,-5.22,-5.15,2.86,7.87
16.709682941436768,-5.15,-5.17,2.73,7.79
16.723371982574463,-5.16,-5.04,2.34,7.58
16.727513790130615,-4.84,-4.82,1.73,7.04
16.76001286506653,-4.31,-4.42,0.86,6.23
16.761338710784912,-3.87,-3.94,0.26,5.52
16.762359857559204,-3.49,-3.79,-0.03,5.15
16.77506685256958,-3.32,-4.04,-0.25,5.23
16.77696704864502,-3.18,-4.31,0.0,5.35
16.790843963623047,-2.83,-4.84,0.36,5.61
16.796878814697266,-2.14,-5.35,0.8,5.81
16.808001041412354,-0.95,-5.47,1.07,5.65
16.817011833190918,0.46,-5.14,1.24,5.3
16.826743841171265,1.69,-4.61,0.72,4.96
16.859200954437256,3.06,-3.91,0.12,4.96
16.860374927520752,4.79,-2.94,-0.45,5.63
16.861398935317993,6.79,-1.88,-0.83,7.09
16.875077724456787,9.16,-0.47,-0.63,9.19
16.876166820526123,11.72,1.13,-0.33,11.77
16.891068935394287,14.11,2.29,0.2,14.29
16.89605689048767,15.81,3.13,0.53,16.12
16.90771985054016,17.08,3.84,0.71,17.52
16.91650390625,18.42,4.34,0.11,18.92
16.925992965698242,19.8,4.17,-0.54,20.24
16.958663940429688,20.61,3.17,-1.28,20.89
16.960041999816895,20.47,2.39,-1.61,20.67
16.96109890937805,19.22,1.27,-1.74,19.34
16.97551202774048,17.09,0.18,-1.47,17.15
16.976572036743164,14.41,4.31,-1.04,15.07
16.99120783805847,5.44,1.22,-1.38,5.74
16.99522876739502,-7.99,0.04,-2.07,8.25
17.008484840393066,-16.85,20.84,-4.1,27.11
17.015542030334473,-17.14,45.08,7.02,48.73
17.025498867034912,-15.23,28.48,-2.11,32.36
17.056829929351807,-6.53,1.75,-9.78,11.88
17.058166027069092,1.4,-7.64,-2.17,8.06
17.059139728546143,7.97,-10.16,4.65,13.72
17.071509838104248,11.52,-13.45,7.46,19.21
17.074758052825928,12.6,-12.7,3.57,18.24
17.0878267288208,12.23,-4.66,1.33,13.15
17.09466290473938,9.56,2.12,-0.59,9.81
17.104472875595093,4.75,3.29,-5.44,7.93
17.11470079421997,0.9,3.83,-6.25,7.38
17.12467098236084,-1.59,3.69,-3.36,5.23
17.162171840667725,-2.58,1.37,1.12,3.12
17.163530826568604,-0.67,-1.3,3.81,4.08
17.164549827575684,1.47,-2.38,2.87,4.0
17.173150062561035,2.07,-1.56,0.72,2.69
17.174241065979004,1.54,0.02,-0.75,1.71
17.188904762268066,0.92,0.67,-1.18,1.63
17.193803787231445,0.61,0.24,-0.74,0.98
17.207907915115356,0.69,-0.39,-0.12,0.8
17.213937759399414,0.78,-0.52,-0.11,0.94
17.22373104095459,0.75,-0.29,-0.43,0.91
17.261621952056885,0.53,0.09,-0.54,0.76
17.262928009033203,0.22,0.24,-0.56,0.64
17.26377773284912,-0.07,0.21,-0.12,0.25
17.275065898895264,-0.29,0.26,0.57,0.69
17.276115894317627,-0.47,0.14,0.64,0.8
17.291133880615234,-0.65,0.0,0.11,0.65
17.29316282272339,-0.82,0.18,-0.36,0.91
17.30775284767151,-0.93,0.44,-0.69,1.23
17.312981843948364,-1.03,0.56,-0.73,1.38
17.32356071472168,-1.02,0.49,-0.3,1.17
17.359880924224854,-0.93,0.33,0.19,1.0
17.361223936080933,-1.01,0.25,0.64,1.22
17.362335920333862,-1.17,0.39,0.79,1.46
17.37492275238037,-1.41,0.48,0.52,1.57
17.375946044921875,-1.67,0.48,0.12,1.74
17.391204833984375,-1.61,0.43,-0.17,1.67
17.392257928848267,-1.19,0.34,-0.35,1.28
17.408395767211914,-0.82,0.44,-0.34,0.99
17.41250491142273,-0.67,0.61,-0.4,0.99
17.423430919647217,-0.91,0.68,-0.45,1.22
17.460157871246338,-1.41,0.79,-0.39,1.66
17.46150302886963,-1.69,1.0,-0.05,1.96
17.462454795837402,-1.65,1.04,0.24,1.96
17.475085735321045,-1.28,1.1,0.4,1.73
17.47610092163086,-0.75,1.29,0.2,1.5
17.49093198776245,-0.56,1.55,0.03,1.64
17.491994857788086,-1.0,2.31,0.25,2.52
17.507422924041748,-1.81,2.88,0.27,3.41
17.51131582260132,-2.04,3.28,0.25,3.87
17.52233076095581,-2.1,3.42,0.16,4.01
17.531656742095947,-2.21,3.35,-0.05,4.01
17.564269065856934,-2.64,3.52,0.0,4.4
17.565449714660645,-3.32,4.0,0.18,5.2
17.566600799560547,-4.17,4.93,0.67,6.49
17.57138204574585,-5.25,6.65,1.3,8.57
17.580976963043213,-6.73,8.61,1.64,11.05
17.592124938964844,-8.4,10.43,1.4,13.46
17.60089874267578,-9.92,11.62,0.49,15.28
17.610662937164307,-11.59,12.15,-0.29,16.79
17.62181282043457,-13.07,12.43,-0.88,18.05
17.63097381591797,-13.87,12.82,-1.1,18.91
17.661120891571045,-13.71,14.03,-1.36,19.66
17.66240692138672,-10.14,15.43,-4.06,18.9
17.66335105895996,-3.38,14.71,-8.63,17.38
17.675621032714844,2.11,14.72,-5.52,15.86
17.680052757263184,3.46,11.4,-2.32,12.13
17.691143035888672,0.32,5.65,-1.16,5.77
17.700353860855103,-3.7,0.57,-1.33,3.97
17.70994472503662,-1.44,0.73,-2.95,3.36
17.720072746276855,4.7,-0.21,0.06,4.7
17.7302188873291,3.99,-2.24,-1.81,4.92
17.761520862579346,-3.06,0.7,-3.53,4.72
17.76280689239502,-8.15,2.17,-1.31,8.53
17.763815879821777,-10.08,1.14,-1.37,10.23
17.775430917739868,-11.18,-0.88,-2.06,11.4
17.77943181991577,-12.25,-2.45,-1.3,12.56
17.79127597808838,-12.21,-3.61,0.67,12.75
17.79932975769043,-10.61,-4.67,3.02,11.97
17.80951690673828,-8.23,-5.79,3.89,10.78
17.819538831710815,-6.69,-5.71,3.58,9.49
17.829372882843018,-5.91,-4.29,2.77,7.81
17.86055088043213,-5.42,-2.82,2.03,6.43
17.861862897872925,-5.22,-2.74,1.15,6.0
17.86287498474121,-4.8,-2.96,0.71,5.68
17.875653743743896,-3.91,-2.71,0.21,4.76
17.878647804260254,-3.09,-2.5,-0.75,4.04
17.891525745391846,-2.67,-2.59,-1.67,4.07
17.898778915405273,-2.53,-3.0,-1.97,4.39
17.90843105316162,-2.38,-3.68,-1.87,4.76
17.91866397857666,-2.07,-4.52,-1.42,5.17
17.928643941879272,-1.54,-5.38,-0.71,5.64
17.967127799987793,-0.85,-5.86,0.28,5.92
17.968503952026367,0.19,-5.79,0.52,5.81
17.969480991363525,1.6,-5.64,-0.61,5.89
17.971726894378662,3.04,-5.32,-1.55,6.32
17.97793197631836,4.68,-4.43,-1.18,6.55
17.987992763519287,6.79,-3.28,-0.07,7.54
17.99782371520996,9.06,-1.98,0.74,9.3
18.007981777191162,11.05,-0.38,0.98,11.09
18.01792573928833,12.69,1.47,0.76,12.79
18.02801489830017,14.36,3.24,0.5,14.72
18.065692901611328,15.89,4.43,-0.16,16.49
18.0670428276062,17.26,5.03,-1.01,18.0
18.06803798675537,18.48,5.19,-1.88,19.28
18.071539878845215,19.92,5.13,-3.55,20.87
18.09148597717285,21.7,4.12,-4.03,22.45
18.09256887435913,22.9,2.25,-3.31,23.24
18.108087062835693,22.23,5.39,-1.79,22.94
18.109134912490845,14.89,1.29,-5.81,16.03
18.123991012573242,-1.95,-1.51,-2.69,3.64
18.127038955688477,-14.33,21.86,-0.68,26.14
18.169787883758545,-15.0,45.98,4.68,48.59
18.171052932739258,-12.99,25.95,-3.58,29.23
18.17206573486328,-6.89,-0.21,-12.89,14.61
18.191898822784424,1.64,-4.57,-4.31,6.49
18.192954063415527,8.46,-7.6,2.99,11.75
18.20797872543335,12.95,-13.43,5.12,19.34
18.209027767181396,16.17,-12.58,5.54,21.22
18.225279808044434,14.91,-3.31,4.86,16.02
18.226754903793335,8.72,0.52,0.81,8.77
18.240886926651,2.34,0.74,-1.21,2.73
18.272085905075073,-0.89,2.13,-2.71,3.55
18.273375034332275,-2.34,2.89,-3.46,5.07
18.274377822875977,-2.29,2.29,-2.31,3.97
18.29207706451416,0.64,0.47,-0.21,0.82
18.293142795562744,2.78,-1.07,0.77,3.07
18.3085298538208,2.74,-1.86,0.83,3.41
18.31000804901123,1.45,-1.39,-0.03,2.0
18.325139045715332,0.61,-0.18,-0.69,0.93
18.326637744903564,0.51,0.51,-0.81,1.08
18.340889930725098,0.53,0.26,-0.23,0.63
18.342345714569092,0.47,-0.08,0.44,0.64
18.388290882110596,0.32,-0.14,0.59,0.68
18.38944673538208,0.03,-0.07,-0.04,0.08
18.390461921691895,-0.33,0.3,-0.55,0.7
18.40897274017334,-0.68,0.55,-0.8,1.18
18.40997290611267,-0.9,0.47,-0.91,1.36
18.425139904022217,-0.86,0.2,-0.59,1.06
18.42658281326294,-0.69,0.0,-0.13,0.7
18.442113876342773,-0.39,-0.06,0.07,0.4
18.44359588623047,-0.22,0.01,-0.1,0.24
18.457345008850098,-0.3,0.2,-0.12,0.38
18.490649938583374,-0.57,0.35,0.04,0.67
18.491973876953125,-0.83,0.4,0.13,0.93
18.492986917495728,-0.99,0.51,0.21,1.13
18.509243965148926,-1.13,0.58,0.19,1.28
18.510299921035767,-1.1,0.64,-0.03,1.27
18.524552822113037,-1.11,0.55,-0.16,1.24
18.525827884674072,-1.29,0.35,-0.15,1.34
18.542208909988403,-1.45,0.18,-0.17,1.47
18.543670892715454,-1.26,0.25,-0.25,1.3
18.557426929473877,-0.86,0.53,-0.36,1.07
18.588648796081543,-0.72,0.67,-0.7,1.2
18.5900239944458,-0.99,0.74,-0.72,1.43
18.59103775024414,-1.42,0.91,-0.47,1.75
18.609070777893066,-1.71,1.13,-0.32,2.07
18.610126972198486,-1.77,1.41,-0.14,2.26
18.6246337890625,-1.85,2.11,0.23,2.81
18.625936031341553,-2.11,2.86,0.24,3.56
18.64199686050415,-2.28,3.63,0.24,4.29
18.643369913101196,-2.7,3.9,0.18,4.74
18.657505989074707,-2.94,4.21,0.35,5.14
18.68938398361206,-3.1,4.41,0.09,5.39
18.690695762634277,-3.22,4.58,-0.11,5.59
18.691685914993286,-3.54,4.79,0.06,5.95
18.709133863449097,-4.26,5.11,0.43,6.66
18.710235834121704,-5.23,6.08,1.09,8.09
18.7242169380188,-6.21,8.3,1.71,10.5
18.725276947021484,-7.19,10.38,0.86,12.65
18.7423038482666,-8.49,11.48,-0.86,14.3
18.74383783340454,-9.71,11.81,-1.84,15.39
18.757630825042725,-10.64,11.42,-2.42,15.79
18.78810977935791,-11.78,10.9,-3.32,16.38
18.78938579559326,-12.71,12.54,-2.94,18.09
18.790380001068115,-10.94,15.27,-4.68,19.35
18.809260845184326,-4.8,16.23,-8.09,18.75
18.81028699874878,0.75,14.39,-8.28,16.61
18.82527780532837,2.18,9.91,-4.8,11.22
18.826329946517944,-1.4,5.28,-1.85,5.76
18.842378854751587,-4.28,0.04,-2.28,4.84
18.84381675720215,-0.5,-0.27,-3.04,3.09
18.85789203643799,6.11,-1.32,0.25,6.25
18.88770890235901,5.17,-3.46,-0.49,6.24
18.888877868652344,-1.97,-1.1,-2.65,3.48
18.889858722686768,-7.27,0.28,-0.14,7.27
18.905109882354736,-9.88,0.03,-0.26,9.88
18.906133890151978,-11.31,-0.9,-0.73,11.36
18.923882961273193,-12.54,-1.88,-0.71,12.7
18.924991846084595,-12.56,-2.77,-0.18,12.86
18.938681840896606,-10.26,-3.2,1.03,10.79
18.939737796783447,-7.07,-4.15,1.94,8.42
18.9577317237854,-5.05,-4.99,2.43,7.5
18.98810577392578,-4.52,-5.0,2.35,7.13
18.98946189880371,-4.65,-4.54,1.87,6.76
18.990489959716797,-4.88,-4.08,1.29,6.49
19.00918984413147,-4.68,-3.63,0.12,5.92
19.010244846343994,-4.1,-2.97,-1.05,5.17
19.025105953216553,-3.6,-2.17,-1.82,4.58
19.026179790496826,-3.24,-1.77,-2.2,4.29
19.042290925979614,-3.13,-1.87,-2.41,4.37
19.043760776519775,-2.93,-2.15,-2.37,4.33
19.057744026184082,-2.22,-2.59,-2.12,4.01
19.086379051208496,-0.9,-3.0,-1.84,3.63
19.087769985198975,0.59,-3.58,-2.2,4.24
19.088788986206055,1.82,-4.16,-2.96,5.42
19.109399795532227,2.81,-4.25,-3.11,5.96
19.110440731048584,3.5,-3.99,-2.4,5.82
19.12537693977356,4.5,-3.56,-1.18,5.85
19.126397848129272,5.73,-3.37,-0.01,6.64
19.142395973205566,6.37,-3.06,0.94,7.12
19.14349889755249,6.62,-2.01,2.21,7.26
19.15781593322754,7.37,-1.0,2.64,7.89
19.15928888320923,8.54,-0.1,2.05,8.78
19.202311038970947,9.83,1.17,1.04,9.95
19.2034649848938,11.44,2.31,-0.16,11.67
19.204267024993896,13.91,3.61,-0.76,14.39
19.205710887908936,16.9,4.56,-1.27,17.55
19.206950902938843,19.33,4.87,-1.47,19.98
19.208221912384033,20.85,5.23,-0.49,21.5
19.20935893058777,21.85,4.29,1.0,22.28
19.218994855880737,22.07,2.78,2.55,22.39
19.228490829467773,20.84,1.78,3.66,21.23
19.238754749298096,16.93,3.76,1.81,17.43
19.26396894454956,6.58,-0.42,-0.98,6.66
19.264842987060547,-7.1,-3.08,-3.31,8.41
19.267855882644653,-17.82,16.52,-4.84,24.77
19.278443813323975,-21.73,42.07,5.71,47.69
19.289028882980347,-21.51,32.85,-0.92,39.27
19.29777193069458,-11.28,7.01,-8.55,15.79
19.308084964752197,-0.9,-4.28,-3.17,5.4
19.318028926849365,5.68,-6.09,0.98,8.38
19.328115940093994,9.74,-10.48,2.89,14.59
19.337968826293945,12.68,-12.49,1.77,17.88
19.365368843078613,14.8,-8.36,0.19,16.99
19.366368770599365,15.36,-1.66,0.66,15.46
19.36747980117798,11.41,1.33,-1.24,11.55
19.377556800842285,4.39,1.5,-2.33,5.19
19.39208483695984,-0.33,1.82,-0.9,2.05
19.397296905517578,-2.68,1.86,0.37,3.28
19.408907890319824,-2.85,0.85,2.19,3.69
19.417335033416748,-0.31,-0.92,2.78,2.94
19.427121877670288,1.95,-1.68,0.91,2.73
19.437172889709473,2.18,-1.07,-0.72,2.53
19.46591281890869,1.32,-0.16,-1.52,2.01
19.466908931732178,0.86,0.44,-1.56,1.83
19.467938899993896,0.83,0.24,-0.76,1.15
19.476438999176025,0.89,-0.39,-0.05,0.97
19.486644744873047,0.8,-0.48,0.02,0.93
19.49643898010254,0.58,-0.22,-0.34,0.7
19.50655484199524,0.27,0.08,-0.5,0.57
19.516515731811523,-0.07,0.34,0.04,0.34
19.526339054107666,-0.35,0.3,0.61,0.76
19.53617787361145,-0.54,0.02,0.74,0.91
19.574535846710205,-0.56,-0.11,0.29,0.64
19.57589101791382,-0.52,0.08,-0.23,0.57
19.576690912246704,-0.44,0.29,-0.77,0.93
19.592938899993896,-0.25,0.3,-1.0,1.07
19.59399175643921,-0.21,0.28,-0.69,0.77
19.608876943588257,-0.23,0.22,-0.24,0.39
19.609891891479492,-0.15,0.08,0.1,0.19
19.625535011291504,-0.06,-0.01,0.16,0.17
19.62657403945923,-0.19,0.1,0.34,0.4
19.64151382446289,-0.48,0.24,0.72,0.89
19.672953844070435,-0.71,0.24,0.63,0.97
19.674320936203003,-0.87,0.26,0.23,0.93
19.675353050231934,-1.17,0.42,-0.18,1.25
19.693068027496338,-1.68,0.51,-0.47,1.81
19.69411587715149,-2.33,0.51,-0.71,2.48
19.708704948425293,-2.91,0.59,-0.94,3.11
19.709755897521973,-3.07,0.79,-1.11,3.35
19.725049018859863,-2.74,1.1,-1.12,3.15
19.726287841796875,-2.2,1.33,-1.09,2.79
19.741224765777588,-1.77,1.33,-0.83,2.36
19.77214288711548,-1.7,1.45,-0.5,2.28
19.773962020874023,-1.31,1.79,-0.43,2.25
19.77496099472046,-0.94,2.16,-0.55,2.41
19.792737007141113,-1.2,2.92,-0.36,3.17
19.79376792907715,-1.95,3.91,0.15,4.37
19.808964729309082,-2.62,4.77,0.85,5.5
19.810022830963135,-3.56,4.58,0.78,5.85
19.825609922409058,-4.15,4.98,1.13,6.58
19.827062845230103,-4.37,5.85,0.78,7.34
19.84154486656189,-4.58,7.54,0.49,8.83
19.87262773513794,-5.38,9.48,-0.13,10.9
19.873982906341553,-6.98,11.0,-0.81,13.05
19.8750057220459,-9.03,12.22,-1.19,15.24
19.889578819274902,-10.75,13.42,-1.88,17.29
19.890647888183594,-11.52,13.76,-3.53,18.28
19.90898084640503,-11.67,12.8,-5.76,18.25
19.910029888153076,-12.01,11.72,-6.67,18.05
19.924864768981934,-12.13,12.89,-5.08,18.41
19.92635989189148,-8.95,15.35,-4.16,18.24
19.941670894622803,-3.37,14.02,-6.19,15.69
19.94314694404602,0.89,9.12,-6.46,11.21
19.988194942474365,1.75,5.59,-3.28,6.71
19.989346027374268,-0.5,0.09,-1.83,1.89
19.990355014801025,-0.35,-1.14,-0.78,1.42
20.00995683670044,4.08,-2.22,3.2,5.64
20.011029720306396,3.01,-5.97,0.97,6.75
20.026286840438843,-3.74,-3.2,-1.03,5.02
20.027793884277344,-8.75,-0.48,1.59,8.9
20.0428409576416,-11.21,-0.43,1.47,11.31
20.04428482055664,-12.33,-1.49,1.05,12.46
20.056989908218384,-12.68,-2.47,1.42,12.99
20.08631992340088,-11.07,-2.99,2.94,11.83
20.08760690689087,-7.87,-3.68,3.53,9.37
20.08859086036682,-5.49,-4.28,3.1,7.62
20.105923891067505,-4.87,-3.98,2.74,6.86
20.10693073272705,-4.97,-3.54,2.82,6.72
20.12264394760132,-4.89,-3.61,2.69,6.64
20.123658895492554,-4.45,-3.82,2.23,6.27
20.139561891555786,-3.89,-3.81,1.46,5.63
20.140920877456665,-3.51,-3.81,0.79,5.24
20.15617275238037,-3.43,-4.07,0.41,5.33
20.186733722686768,-3.39,-4.57,0.14,5.69
20.188089847564697,-3.27,-4.98,-0.07,5.95
20.18912386894226,-3.13,-5.22,0.05,6.08
20.20995593070984,-2.84,-5.19,0.53,5.93
20.210985898971558,-1.96,-5.02,0.89,5.46
20.22407293319702,-0.36,-5.06,0.68,5.11
20.225106716156006,1.4,-4.92,0.23,5.12
20.242897987365723,3.11,-4.36,-0.05,5.35
20.244377851486206,4.78,-3.52,-0.09,5.93
20.25828194618225,6.57,-2.24,0.42,6.95
20.28766393661499,8.87,-0.69,0.89,8.94
20.28949284553528,11.46,0.79,1.04,11.53
20.290587902069092,13.84,2.29,1.02,14.06
20.30974793434143,15.62,3.91,0.68,16.11
20.310792922973633,16.99,5.26,-0.05,17.78
20.32602286338806,18.14,6.09,-1.31,19.17
20.32747983932495,19.25,6.26,-2.25,20.36
20.34308886528015,20.46,5.62,-2.61,21.37
20.344637870788574,21.54,4.01,-3.26,22.15
20.357281923294067,22.03,2.37,-2.74,22.32
20.385251998901367,20.6,1.1,-1.32,20.67
20.386643886566162,15.29,3.64,-0.6,15.72
20.38762378692627,4.89,-0.83,-0.67,5.0
20.389874935150146,-8.36,-0.73,-0.83,8.43
20.39125680923462,-17.75,16.01,-5.07,24.43
20.39945387840271,-20.52,36.11,3.11,41.64
20.41050100326538,-18.36,26.9,-3.41,32.74
20.419414043426514,-8.34,6.84,-10.03,14.72
20.42969799041748,1.81,-0.18,-3.53,3.97
20.439839839935303,7.65,-7.02,2.24,10.62
20.475886821746826,11.2,-12.29,2.78,16.85
20.477048873901367,14.24,-13.34,3.04,19.74
20.47785472869873,15.15,-7.54,3.86,17.35
20.493220806121826,12.63,-1.02,2.63,12.94
20.494277000427246,5.73,1.08,-1.43,6.0
20.50901985168457,0.31,2.12,-2.3,3.14
20.5100679397583,-2.26,2.85,-2.54,4.43
20.525709867477417,-3.08,2.58,-1.74,4.37
20.528618812561035,-1.46,1.08,0.23,1.83
20.54249095916748,1.21,-0.76,0.6,1.54
20.575955867767334,2.36,-1.44,0.17,2.76
20.577303886413574,1.69,-1.0,-0.34,1.99
20.578296899795532,0.7,-0.22,-0.6,0.94
20.593117713928223,0.4,0.18,-0.6,0.74
20.59409189224243,0.5,0.14,-0.34,0.62
20.60925793647766,0.74,-0.01,-0.12,0.74
20.610304832458496,0.84,-0.13,0.18,0.86
20.62633180618286,0.63,-0.13,0.49,0.8
20.628093719482422,0.19,-0.1,0.39,0.44
20.641753911972046,-0.27,0.07,0.22,0.35
20.677745819091797,-0.58,0.31,0.2,0.68
20.67906093597412,-0.62,0.31,-0.04,0.69
20.679983854293823,-0.66,0.29,-0.12,0.73
20.693394899368286,-0.69,0.32,-0.1,0.76
20.694416999816895,-0.69,0.23,-0.39,0.82
20.709210872650146,-0.67,0.24,-0.56,0.9
20.71023178100586,-0.68,0.32,-0.46,0.88
20.726061820983887,-0.76,0.35,0.02,0.83
20.727542877197266,-0.79,0.33,0.48,0.98
20.74189591407776,-0.78,0.32,0.53,0.99
20.747529983520508,-0.7,0.38,0.37,0.87
20.78778600692749,-0.5,0.48,0.14,0.7
20.78897786140442,-0.36,0.41,-0.03,0.54
20.789973735809326,-0.54,0.32,0.08,0.63
20.809931755065918,-0.82,0.4,0.03,0.91
20.81096076965332,-1.09,0.42,-0.33,1.21
20.82576084136963,-1.02,0.64,-0.5,1.3
20.826782941818237,-0.87,0.97,-0.52,1.4
20.843212842941284,-0.9,1.26,-0.33,1.58
20.844680786132812,-1.21,1.51,-0.05,1.93
20.858489990234375,-1.47,1.45,0.17,2.07
20.88707971572876,-1.88,1.66,0.38,2.53
20.8883318901062,-1.93,2.18,0.48,2.95
20.889328956604004,-1.74,2.3,0.25,2.89
20.91051983833313,-1.71,2.52,0.39,3.07
20.911529064178467,-1.94,2.71,0.46,3.36
20.926142930984497,-2.38,2.94,0.42,3.8
20.92719793319702,-2.81,3.28,0.17,4.32
20.943272829055786,-3.26,3.65,-0.24,4.89
20.944788932800293,-3.72,4.11,-0.37,5.55
20.95861291885376,-4.19,4.85,-0.04,6.4
20.987239837646484,-4.64,6.32,0.67,7.86
20.988664865493774,-5.63,8.23,0.97,10.01
20.98964285850525,-7.19,10.22,1.14,12.54
21.008641719818115,-8.97,11.83,0.94,14.87
21.009758949279785,-10.57,12.61,-0.2,16.45
21.026142835617065,-11.95,12.52,-1.53,17.37
21.02719783782959,-13.66,13.0,-1.63,18.92
21.040918827056885,-14.48,15.06,-1.83,20.97
21.041964054107666,-11.89,15.9,-5.8,20.68
21.05747890472412,-4.52,13.96,-11.85,18.86
21.08511972427368,1.18,12.63,-9.87,16.07
21.086493015289307,1.96,9.45,-4.98,10.86
21.087530851364136,-1.74,4.96,-1.18,5.38
21.089834928512573,-3.79,-0.35,-0.78,3.88
21.094247817993164,1.06,-0.47,-2.56,2.81
21.104622840881348,8.86,-0.38,-0.09,8.86
21.114588737487793,9.25,-2.85,0.65,9.7
21.1243257522583,1.22,-1.2,-3.54,3.93
21.13438606262207,-6.31,-0.12,-1.33,6.44
21.1442928314209,-10.28,-0.11,-0.65,10.3
21.180421829223633,-12.21,-0.69,-0.73,12.25
21.18160104751587,-13.9,-1.48,-0.58,13.99
21.182419776916504,-14.77,-2.38,-0.18,14.96
21.193202018737793,-13.95,-3.12,1.06,14.33
21.194067001342773,-10.16,-3.77,2.93,11.22
21.20972204208374,-6.1,-4.97,3.41,8.57
21.213470935821533,-4.15,-5.03,2.66,7.04
21.22391700744629,-3.81,-4.06,2.02,5.92
21.233520984649658,-4.5,-3.79,1.28,6.02
21.243631839752197,-4.84,-3.99,0.54,6.29
21.278987884521484,-4.55,-3.76,-0.44,5.91
21.280290842056274,-4.09,-3.07,-1.48,5.32
21.28118586540222,-3.66,-2.18,-2.2,4.79
21.293663024902344,-3.16,-1.88,-2.56,4.48
21.294713020324707,-2.51,-2.22,-2.47,4.16
21.309792041778564,-1.77,-2.99,-1.89,3.95
21.312752723693848,-1.01,-4.01,-1.22,4.31
21.326097011566162,-0.23,-4.77,-0.71,4.82
21.332926750183105,0.26,-5.2,-0.38,5.22
21.34284782409668,0.68,-5.26,-0.27,5.31
21.379673957824707,1.24,-5.01,-0.53,5.18
21.380852937698364,2.07,-4.54,-0.81,5.05
21.381877899169922,3.28,-3.61,-0.9,4.95
21.394182920455933,4.85,-2.2,-1.12,5.44
21.395213842391968,6.69,-0.72,-1.31,6.85
21.409164905548096,9.06,1.45,-1.47,9.29
21.41211700439453,12.18,4.4,-1.6,13.04
21.426012992858887,15.96,7.24,-2.12,17.65
21.432140827178955,19.78,9.48,-2.77,22.1
21.442033767700195,23.08,10.5,-2.47,25.47
21.478285789489746,25.19,8.81,-1.75,26.74
21.479569911956787,25.6,5.75,-1.13,26.26
21.480653762817383,24.27,3.74,0.04,24.55
21.493804931640625,20.68,2.17,0.45,20.79
21.494857788085938,17.83,0.58,1.05,17.87
21.50815486907959,16.94,-0.82,1.33,17.01
21.5112247467041,14.85,-0.15,2.22,15.01
21.527747869491577,8.43,5.77,4.08,11.0
21.53145980834961,-1.82,0.01,1.94,2.66
21.541336059570312,-15.51,-2.98,0.37,15.79
21.55135202407837,-27.26,18.46,-8.95,34.11
21.582465887069702,-27.17,38.8,9.42,48.29
21.583703994750977,-22.29,25.38,-2.25,33.85
21.584905862808228,-7.2,9.8,-8.6,14.89
21.590998888015747,2.14,-3.0,-2.41,4.4
21.600882053375244,6.58,-10.81,-0.31,12.65
21.61062479019165,8.94,-14.4,-0.78,16.96
21.62052083015442,11.42,-14.46,0.08,18.42
21.630192756652832,14.16,-9.17,3.23,17.17
21.64095401763916,14.99,-1.6,5.84,16.16
21.650661945343018,10.23,1.29,-0.22,10.31
21.682618856430054,3.51,1.29,-3.31,4.99
21.683891773223877,-0.59,2.42,-2.88,3.8
21.684937953948975,-2.4,3.18,-0.76,4.05
21.69155788421631,-2.66,1.37,0.51,3.03
21.700113773345947,-0.58,-1.11,1.39,1.87
21.709869861602783,1.69,-1.47,1.29,2.58
21.719865798950195,2.22,-0.81,0.41,2.39
21.729702949523926,1.36,-0.2,-0.43,1.44
21.740092754364014,0.65,0.16,-0.84,1.07
21.749860763549805,0.54,0.23,-0.72,0.92
21.7830069065094,0.67,0.1,-0.4,0.78
21.784265995025635,0.53,-0.07,-0.46,0.7
21.78532385826111,0.17,-0.03,-0.45,0.48
21.790538787841797,-0.04,0.12,-0.44,0.45
21.809830904006958,-0.1,0.22,-0.42,0.48
21.810869932174683,-0.17,0.24,0.11,0.31
21.826501846313477,-0.2,0.11,0.39,0.45
21.828871726989746,-0.25,-0.05,0.27,0.37
21.84243893623352,-0.48,0.07,0.03,0.48
21.84908676147461,-0.77,0.28,-0.39,0.9
21.88615584373474,-0.98,0.52,-0.55,1.23
21.887292861938477,-1.03,0.71,-0.48,1.33
21.888415813446045,-0.9,0.7,-0.26,1.16
21.88977575302124,-0.86,0.58,0.15,1.04
21.898667812347412,-0.81,0.44,0.42,1.01
21.908524990081787,-0.82,0.34,0.32,0.94
21.918580055236816,-0.95,0.29,0.13,1.0
21.92839789390564,-1.1,0.4,-0.01,1.17
21.938329935073853,-1.22,0.52,-0.26,1.35
21.948413848876953,-1.24,0.69,-0.57,1.52
21.983806848526,-1.1,0.93,-0.64,1.57
21.985220909118652,-1.04,1.02,-0.56,1.56
21.986209869384766,-1.23,1.08,-0.32,1.66
21.989739894866943,-1.69,1.15,-0.05,2.04
21.99789571762085,-2.43,1.49,0.5,2.89
22.010053873062134,-2.8,1.79,0.02,3.32
22.017518997192383,-2.49,2.05,-0.66,3.29
22.027418851852417,-1.78,2.34,-0.97,3.09
22.037497997283936,-1.2,2.76,-0.64,3.07
22.04770278930664,-1.52,3.01,-0.17,3.37
22.085680961608887,-2.43,3.3,0.29,4.1
22.086925983428955,-3.38,3.75,0.68,5.09
22.08791494369507,-4.07,4.44,0.96,6.09
22.09029483795166,-4.64,5.07,0.69,6.9
22.097238063812256,-5.47,5.63,0.38,7.85
22.10703182220459,-6.51,6.56,0.64,9.26
22.116961002349854,-7.32,8.28,1.43,11.14
22.126818895339966,-7.89,10.5,1.55,13.22
22.136963844299316,-8.64,12.47,0.67,15.18
22.147405862808228,-9.66,13.92,-0.91,16.96
22.183830738067627,-10.78,14.22,-2.85,18.07
22.185208797454834,-12.28,14.33,-3.8,19.25
22.186218738555908,-12.52,15.59,-4.37,20.46
22.18942880630493,-8.35,16.75,-7.83,20.28
22.207314014434814,-1.81,16.24,-9.54,18.92
22.20835590362549,1.91,12.76,-6.57,14.47
22.22642683982849,0.96,6.79,-2.34,7.24
22.227476835250854,-1.67,0.58,-1.2,2.13
22.242681980133057,-0.11,-1.31,-2.28,2.63
22.245925903320312,6.09,-1.81,1.22,6.46
22.28372573852539,6.41,-5.01,1.59,8.28
22.284903049468994,-1.07,-2.8,-2.58,3.95
22.286284923553467,-7.56,-0.79,-0.36,7.6
22.29009771347046,-10.83,-0.56,0.5,10.85
22.295445919036865,-12.16,-1.48,0.32,12.25
22.310210943222046,-13.07,-2.9,-0.06,13.38
22.31556487083435,-13.03,-4.32,0.29,13.73
22.32644486427307,-10.65,-5.04,1.99,11.94
22.335640907287598,-6.27,-5.68,2.93,8.95
22.345192909240723,-3.67,-5.95,2.39,7.38
22.355718851089478,-3.59,-5.16,1.69,6.5
22.38761806488037,-4.25,-4.99,1.18,6.65
22.388765811920166,-4.83,-5.33,0.9,7.24
22.389731884002686,-4.79,-5.48,0.47,7.29
22.411219835281372,-4.54,-5.66,-0.26,7.26
22.41217589378357,-4.26,-5.87,-0.6,7.27
22.42427086830139,-3.86,-5.96,-0.7,7.13
22.425259828567505,-3.33,-5.84,-0.55,6.74
22.440937995910645,-2.81,-5.48,0.0,6.15
22.444474935531616,-1.57,-5.22,0.25,5.45
22.45660090446472,0.44,-5.08,-0.95,5.18
22.485662937164307,2.22,-4.58,-2.08,5.49
22.487053871154785,3.62,-3.62,-2.36,5.63
22.488082885742188,5.13,-2.57,-2.1,6.1
22.494019031524658,6.59,-1.69,-1.29,6.92
22.504089832305908,7.83,-1.15,-0.36,7.92
22.514188766479492,8.93,-0.64,0.21,8.95
22.523629903793335,9.92,0.28,0.47,9.93
22.533836841583252,10.75,1.61,0.11,10.87
22.543871879577637,11.43,3.12,-0.36,11.85
22.55384087562561,12.69,4.43,-0.61,13.45
22.58567190170288,14.42,4.93,-1.29,15.29
22.586827754974365,15.86,5.21,-1.64,16.77
22.588116884231567,16.89,5.35,-1.51,17.78
22.593225955963135,17.47,4.6,-1.49,18.12
22.603179931640625,17.67,3.19,-1.33,18.0
22.61332893371582,17.81,2.03,-0.88,17.94
22.623229026794434,18.17,1.13,-0.42,18.2
22.633585929870605,18.08,0.38,-0.03,18.08
22.643016815185547,14.81,1.35,-0.03,14.87
22.653264045715332,6.28,5.15,1.57,8.27
22.685271739959717,-3.7,-0.8,-0.27,3.79
22.686412811279297,-14.03,0.93,-2.2,14.23
22.687675952911377,-22.59,22.33,-5.17,32.18
22.692415714263916,-24.04,37.58,7.16,45.18
22.70743179321289,-19.4,20.68,-6.06,28.99
22.71231174468994,-7.26,3.76,-6.73,10.58
22.72727084159851,1.96,-3.24,-1.59,4.1
22.73245096206665,7.06,-9.37,2.45,11.98
22.7427077293396,9.35,-13.11,2.73,16.33
22.752453804016113,11.16,-12.73,1.89,17.03
22.79044771194458,12.43,-7.26,2.19,14.56
22.79166293144226,12.64,-0.63,3.0,13.0
22.792672872543335,8.66,2.15,-0.84,8.96
22.811383724212646,2.53,2.44,-2.74,4.45
22.812406063079834,-1.27,2.71,-2.57,3.94
22.827144861221313,-2.94,2.39,-1.44,4.05
22.828639030456543,-3.03,1.06,0.78,3.3
22.844186782836914,-0.56,-0.85,2.3,2.51
22.845639944076538,1.76,-1.79,1.35,2.85
22.859420776367188,2.27,-1.37,-0.01,2.65
22.890365839004517,1.19,-0.27,-0.96,1.55
22.891674041748047,0.41,0.59,-1.32,1.5
22.892688751220703,0.19,0.68,-0.96,1.19
22.91097092628479,0.28,0.2,-0.45,0.56
22.912028789520264,0.56,-0.14,-0.32,0.66
22.927155017852783,0.76,-0.14,-0.42,0.87
22.92856192588806,0.68,0.07,-0.28,0.73
22.94406270980835,0.43,0.14,-0.08,0.45
22.945518970489502,0.04,0.15,0.24,0.28
22.959569931030273,-0.33,0.17,0.67,0.76
22.990372896194458,-0.56,0.19,0.59,0.83
22.991646766662598,-0.47,0.15,-0.01,0.49
22.99266481399536,-0.05,0.12,-0.41,0.43
23.01112699508667,0.29,0.07,-0.43,0.52
23.01219391822815,0.18,-0.01,-0.24,0.3
23.027394771575928,-0.13,0.15,0.14,0.24
23.02885890007019,-0.31,0.25,-0.01,0.39
23.044103860855103,-0.43,0.36,-0.22,0.6
23.045575857162476,-0.53,0.6,-0.15,0.81
23.059566974639893,-0.64,0.66,0.07,0.92
23.08878993988037,-0.79,0.66,0.25,1.05
23.09010601043701,-0.93,0.55,0.31,1.12
23.091099739074707,-1.14,0.31,0.05,1.18
23.110901832580566,-1.34,0.27,-0.13,1.37
23.111900806427002,-1.43,0.47,-0.32,1.53
23.12741494178772,-1.37,0.69,-0.41,1.58
23.12883186340332,-1.3,0.74,-0.72,1.66
23.144285917282104,-1.51,1.0,-0.53,1.88
23.14568281173706,-1.56,1.28,-0.09,2.01
23.1595458984375,-1.57,1.46,0.3,2.16
23.1610107421875,-1.59,1.85,0.45,2.48
23.205443859100342,-1.48,2.04,0.43,2.55
23.20664405822754,-1.69,2.18,0.79,2.86
23.20764994621277,-2.05,2.29,0.75,3.16
23.227537870407104,-2.51,2.47,0.43,3.54
23.228596925735474,-3.02,2.89,0.09,4.18
23.24412775039673,-3.45,3.44,-0.23,4.87
23.245601892471313,-3.64,3.93,-0.26,5.36
23.260592937469482,-3.79,4.33,-0.17,5.75
23.262077808380127,-4.19,4.69,0.21,6.29
23.27628803253174,-4.96,5.97,1.06,7.83
23.307655811309814,-6.13,7.86,1.29,10.05
23.30897283554077,-7.61,9.58,0.77,12.25
23.309993743896484,-9.13,10.86,0.25,14.19
23.32603693008423,-10.4,11.78,-0.45,15.72
23.327120780944824,-11.43,11.86,-1.48,16.53
23.343937873840332,-12.68,12.08,-1.49,17.57
23.345462799072266,-13.12,13.53,-1.64,18.91
23.35801076889038,-9.88,14.45,-4.71,18.12
23.35955786705017,-3.19,13.33,-9.39,16.61
23.37646484375,2.29,12.74,-7.15,14.78
23.405081748962402,3.54,9.53,-3.48,10.74
23.406513929367065,-0.01,5.34,-1.79,5.63
23.407498836517334,-3.23,0.8,-1.65,3.71
23.427547931671143,0.59,0.65,-3.39,3.5
23.428592920303345,7.43,-0.17,-0.46,7.44
23.444334983825684,6.36,-2.63,-0.17,6.88
23.445833921432495,-1.71,-0.73,-2.87,3.41
23.460684776306152,-7.97,0.18,-0.56,7.99
23.462172031402588,-10.8,-0.07,-0.17,10.8
23.47637176513672,-12.27,-1.28,-0.94,12.37
23.505146026611328,-13.57,-2.59,-1.39,13.88
23.50642681121826,-13.91,-3.45,-0.52,14.34
23.507402896881104,-12.25,-4.09,1.72,13.02
23.527864933013916,-8.51,-5.32,3.54,10.64
23.528934001922607,-5.54,-6.4,3.49,9.15
23.544517040252686,-4.3,-5.92,2.5,7.73
23.546020030975342,-4.33,-4.67,1.66,6.58
23.561007022857666,-4.86,-4.32,1.03,6.58
23.562326908111572,-4.93,-4.35,0.26,6.57
23.57643175125122,-4.28,-4.02,-0.56,5.89
23.606263875961304,-3.47,-3.63,-1.38,5.2
23.607583045959473,-2.81,-3.49,-1.89,4.86
23.608593940734863,-2.39,-3.66,-1.91,4.77
23.627676963806152,-2.27,-4.35,-1.86,5.24
23.62873888015747,-2.23,-5.11,-1.78,5.85
23.644609928131104,-1.87,-5.16,-1.12,5.6
23.646080017089844,-1.15,-4.86,-0.11,4.99
23.66104292869568,0.32,-4.9,0.18,4.91
23.66251277923584,2.17,-4.82,-0.66,5.32
23.676626920700073,3.73,-3.84,-1.25,5.49
23.70584487915039,5.39,-2.47,-0.9,5.99
23.70715093612671,7.36,-0.75,-0.18,7.4
23.708155870437622,9.34,1.16,0.59,9.43
23.727447986602783,10.86,2.89,0.94,11.27
23.728514909744263,11.88,4.58,0.79,12.75
23.744529724121094,12.94,6.24,0.31,14.36
23.746002912521362,14.48,7.54,-0.21,16.32
23.761162757873535,16.68,7.83,-0.78,18.44
23.762609004974365,19.03,7.17,-0.62,20.34
23.77651882171631,20.58,6.02,0.02,21.44
23.80665874481201,20.93,4.13,0.46,21.33
23.807955741882324,19.55,1.5,1.01,19.63
23.808952808380127,16.56,0.08,1.34,16.61
23.827659845352173,14.71,1.16,0.42,14.76
23.82869791984558,9.17,1.91,0.0,9.36
23.844620943069458,-1.9,-2.0,-0.69,2.84
23.84603500366211,-12.18,1.06,-2.97,12.58
23.861165046691895,-16.41,19.78,-1.72,25.75
23.862737894058228,-14.41,34.02,9.48,38.14
23.87669587135315,-11.75,17.16,-0.36,20.8
23.90551471710205,-3.08,1.39,-5.76,6.67
23.90691590309143,6.24,-2.11,-3.47,7.44
23.90791082382202,10.6,-6.63,2.8,12.81
23.927764892578125,12.5,-9.46,2.99,15.95
23.92882490158081,13.46,-8.63,2.39,16.16
23.944596767425537,12.19,-4.04,3.0,13.18
23.94603991508484,7.02,-0.48,0.57,7.05
23.961477756500244,1.8,0.69,-1.66,2.54
23.96299982070923,-1.01,2.02,-3.33,4.02
23.976627826690674,-2.15,2.88,-3.38,4.93
23.97810387611389,-1.74,1.85,-0.87,2.68
24.02291488647461,0.87,-0.37,1.46,1.73
24.024107933044434,2.78,-1.76,1.72,3.71
24.025121927261353,2.43,-1.77,0.78,3.1
24.044780731201172,1.07,-0.47,-0.52,1.27
24.045835971832275,0.64,0.61,-1.14,1.44
24.06096887588501,0.75,0.47,-0.52,1.02
24.062474727630615,0.69,-0.07,0.41,0.8
24.077597856521606,0.55,-0.39,0.54,0.86
24.079081058502197,0.43,-0.35,-0.2,0.58
24.09310293197632,0.28,-0.05,-0.96,1.0
24.1250319480896,0.12,0.29,-0.88,0.93
24.126351833343506,-0.07,0.27,-0.12,0.3
24.12735891342163,-0.19,0.05,0.55,0.58
24.144728899002075,-0.28,0.03,0.6,0.66
24.14616084098816,-0.45,0.18,-0.04,0.48
24.161303997039795,-0.54,0.33,-0.84,1.05
24.162789821624756,-0.43,0.39,-1.04,1.19
24.177533864974976,-0.49,0.36,-0.42,0.73
24.17901086807251,-0.75,0.25,0.12,0.79
24.193201065063477,-0.82,0.23,0.34,0.91
24.224125862121582,-0.74,0.37,0.36,0.9
24.225456714630127,-0.65,0.52,0.4,0.92
24.226512908935547,-0.59,0.49,0.48,0.9
24.245276927947998,-0.48,0.23,0.26,0.59
24.246355056762695,-0.55,-0.02,-0.06,0.55
24.260875940322876,-0.74,0.05,-0.41,0.84
24.262388944625854,-0.72,0.38,-0.76,1.11
24.278031826019287,-0.64,0.8,-0.9,1.36
24.279518842697144,-0.91,1.06,-0.64,1.53
24.29343605041504,-1.52,1.1,-0.3,1.9
24.322011947631836,-2.18,1.04,-0.05,2.41
24.323416709899902,-2.55,1.19,0.25,2.82
24.324443817138672,-2.3,1.45,0.31,2.73
24.3451988697052,-1.84,1.79,0.28,2.58
24.346240043640137,-1.42,2.08,0.32,2.53
24.3613018989563,-1.82,2.66,0.24,3.23
24.362735748291016,-2.31,3.29,0.15,4.02
24.378296852111816,-2.51,3.57,-0.1,4.36
24.37983274459839,-2.59,3.71,0.02,4.52
24.39172601699829,-2.72,3.65,-0.1,4.55
24.41908597946167,-3.03,3.6,-0.2,4.7
24.420508861541748,-3.46,3.94,-0.16,5.24
24.421566009521484,-4.14,4.78,0.21,6.32
24.42350673675537,-5.04,6.35,1.31,8.21
24.44114089012146,-6.07,8.91,2.71,11.11
24.44214677810669,-7.72,11.46,2.01,13.96
24.45814275741577,-9.9,12.17,-0.03,15.68
24.459603786468506,-11.45,12.0,-0.49,16.59
24.47482395172119,-12.52,11.44,-0.48,16.96
24.476346015930176,-13.53,11.91,0.19,18.02
24.519882917404175,-13.06,13.7,-0.68,18.93
24.52103590965271,-8.34,13.97,-5.72,17.24
24.522385835647583,-1.27,13.09,-9.74,16.36
24.524412870407104,3.23,12.76,-5.34,14.2
24.525840759277344,2.96,8.51,-2.49,9.34
24.52722692489624,-1.38,2.97,-1.64,3.66
24.528831958770752,-3.34,-0.7,-2.99,4.53
24.53852391242981,1.74,0.35,-2.48,3.04
24.548653841018677,6.06,-2.35,0.35,6.5
24.558509826660156,2.84,-1.81,-2.52,4.2
24.590787887573242,-3.55,0.73,-2.58,4.44
24.591798782348633,-7.58,1.5,-0.92,7.78
24.592609882354736,-9.45,0.31,-1.55,9.58
24.609814882278442,-11.2,-1.43,-1.86,11.44
24.610864877700806,-12.41,-2.78,-1.02,12.75
24.627501964569092,-12.49,-3.78,0.8,13.07
24.628532886505127,-11.12,-4.71,2.41,12.31
24.644444942474365,-8.83,-5.34,3.58,10.92
24.647735834121704,-6.74,-5.43,3.34,9.27
24.660114765167236,-5.29,-4.66,2.57,7.5
24.692471027374268,-4.78,-3.85,1.67,6.36
24.69378900527954,-5.09,-3.79,0.61,6.37
24.694797039031982,-5.32,-3.64,-0.18,6.44
24.711703777313232,-4.85,-3.32,-1.02,5.96
24.712764739990234,-4.2,-3.28,-1.91,5.66
24.727674961090088,-3.71,-3.51,-2.24,5.57
24.72867202758789,-3.32,-3.84,-2.11,5.49
24.74508571624756,-2.7,-4.22,-1.79,5.32
24.747192859649658,-1.77,-4.43,-1.48,4.99
24.760458946228027,-0.49,-4.67,-1.67,4.98
24.76698088645935,0.9,-5.15,-2.33,5.72
24.804636001586914,1.87,-5.22,-2.36,6.02
24.805788040161133,2.53,-4.8,-1.7,5.68
24.80674386024475,3.62,-4.26,-1.13,5.7
24.809294939041138,5.22,-3.39,-0.55,6.24
24.816354751586914,7.09,-2.17,0.06,7.41
24.826608896255493,8.69,-0.72,0.42,8.72
24.836662769317627,9.87,1.01,0.28,9.92
24.846662998199463,10.91,2.6,-0.15,11.21
24.856640815734863,12.08,3.68,-0.93,12.66
24.866439819335938,13.57,4.27,-2.25,14.4
24.8972909450531,15.52,4.57,-3.18,16.48
24.899066925048828,17.85,5.07,-3.06,18.8
24.900078773498535,20.3,5.49,-2.31,21.15
24.91104483604431,22.42,4.86,-0.95,22.96
24.915579795837402,23.51,2.74,0.73,23.68
24.925622940063477,22.98,0.68,3.34,23.23
24.935693740844727,17.38,3.21,4.93,18.34
24.94578981399536,5.63,2.48,4.18,7.43
24.955796718597412,-7.65,-1.18,1.38,7.86
24.965638875961304,-17.13,14.48,-1.36,22.47
24.9979248046875,-19.33,37.28,4.3,42.21
24.999237060546875,-18.45,29.37,-0.34,34.68
25.000239849090576,-10.57,6.81,-8.1,14.95
25.0120210647583,-0.47,-2.35,-3.53,4.26
25.014965057373047,7.5,-3.95,1.16,8.55
25.027875900268555,11.55,-8.86,4.02,15.1
25.034783840179443,13.75,-11.39,1.0,17.88
25.04500102996826,15.35,-7.8,0.84,17.23
25.054911851882935,14.27,-1.92,1.9,14.52
25.06466579437256,8.17,0.03,-1.03,8.23
25.096948862075806,1.94,0.8,-2.14,2.99
25.09823703765869,-1.19,2.36,-2.26,3.47
25.099236011505127,-2.82,2.73,-1.7,4.27
25.11228084564209,-2.89,1.44,0.47,3.26
25.114258766174316,-0.29,-0.67,1.69,1.84
25.127824783325195,2.06,-1.78,1.39,3.05
25.13441491127014,2.28,-1.53,0.63,2.81
25.145067930221558,1.08,-0.42,-0.22,1.17
25.154496908187866,0.3,0.41,-0.82,0.96
25.16420602798462,0.22,0.48,-1.1,1.22
25.20136284828186,0.32,0.18,-0.85,0.92
25.20271873474121,0.36,-0.01,-0.59,0.69
25.203718900680542,0.32,-0.07,-0.65,0.72
25.210657835006714,0.22,-0.06,-0.76,0.79
25.21345281600952,0.13,0.02,-0.7,0.71
25.228097915649414,-0.08,0.13,-0.15,0.21
25.23330783843994,-0.3,0.12,0.7,0.77
25.245022773742676,-0.39,0.09,1.07,1.14
25.253650903701782,-0.42,0.01,0.46,0.62
25.263556003570557,-0.28,0.11,-0.57,0.64
25.301593780517578,-0.14,0.33,-1.03,1.09
25.303022861480713,-0.25,0.41,-0.94,1.05
25.304030895233154,-0.49,0.37,-0.35,0.7
25.308915853500366,-0.72,0.3,0.27,0.82
25.328219890594482,-0.73,0.25,0.56,0.95
25.329227924346924,-0.51,0.25,0.58,0.81
25.34414005279541,-0.42,0.28,0.41,0.65
25.345587730407715,-0.54,0.26,0.3,0.67
25.360579013824463,-0.61,0.13,0.13,0.63
25.36247205734253,-0.52,0.01,-0.16,0.54
25.404196739196777,-0.42,0.05,-0.55,0.69
25.405335903167725,-0.66,0.39,-0.59,0.96
25.406506061553955,-1.12,0.86,-0.57,1.52
25.40803289413452,-1.39,1.16,-0.4,1.85
25.411952018737793,-1.46,1.32,-0.01,1.96
25.421835899353027,-1.5,1.34,0.29,2.03
25.4319748878479,-1.65,1.3,0.52,2.16
25.44202995300293,-1.86,1.45,0.57,2.42
25.45216393470764,-1.91,1.68,0.08,2.54
25.4620578289032,-1.97,2.01,-0.24,2.82
25.49864387512207,-2.31,2.86,-0.34,3.69
25.49981188774109,-2.39,3.15,-0.63,4.0
25.500797748565674,-2.69,3.49,-0.37,4.42
25.51230001449585,-2.94,3.72,-0.11,4.74
25.51335382461548,-3.35,4.0,0.05,5.21
25.528028964996338,-3.87,4.46,-0.01,5.9
25.531035900115967,-4.56,4.88,0.09,6.67
25.54519271850586,-5.3,5.73,0.72,7.83
25.551304817199707,-5.83,7.28,1.4,9.43
25.560955047607422,-6.86,9.57,1.77,11.9
25.57115888595581,-8.54,12.11,1.24,14.87
25.602109909057617,-10.33,13.08,-0.5,16.67
25.603271007537842,-11.6,13.56,-1.44,17.9
25.604580879211426,-12.65,12.99,-2.92,18.36
25.610658884048462,-13.45,12.97,-3.45,19.0
25.62116003036499,-12.21,14.56,-3.9,19.39
25.631078720092773,-6.8,15.19,-6.84,17.99
25.640888929367065,-0.01,14.23,-8.34,16.49
25.650211811065674,3.97,10.91,-5.37,12.79
25.660504817962646,3.02,6.76,-2.25,7.73
25.67060899734497,-0.64,1.14,-2.11,2.48
25.701180934906006,0.29,-0.77,-3.26,3.36
25.70228672027588,6.63,-1.03,0.01,6.7
25.703455924987793,6.55,-4.4,0.72,7.92
25.71072483062744,-1.3,-2.34,-2.75,3.83
25.720015048980713,-7.9,-0.79,-0.66,7.96
25.729667901992798,-11.09,-0.63,0.0,11.1
25.739535808563232,-12.71,-1.27,-0.41,12.77
25.74972105026245,-14.07,-2.27,-0.66,14.26
25.759801864624023,-14.88,-3.27,0.09,15.23
25.76986074447632,-13.95,-3.91,1.91,14.61
25.800296783447266,-9.94,-4.65,3.7,11.58
25.801557064056396,-6.38,-5.6,3.49,9.17
25.802536010742188,-5.14,-5.57,2.58,8.0
25.812432765960693,-5.58,-4.84,2.16,7.69
25.81895875930786,-6.1,-4.62,2.09,7.93
25.828754901885986,-5.93,-4.57,1.49,7.63
25.83892297744751,-5.3,-4.15,0.66,6.76
25.84896683692932,-4.71,-3.7,-0.05,5.98
25.859004020690918,-4.17,-3.35,-0.47,5.36
25.86910104751587,-3.54,-3.29,-0.73,4.88
25.900495052337646,-2.65,-3.47,-0.85,4.44
25.901830911636353,-1.41,-3.82,-0.74,4.13
25.90278387069702,-0.1,-4.09,-0.62,4.13
25.910001754760742,1.07,-4.02,-0.34,4.17
25.91821002960205,2.15,-3.72,-0.39,4.31
25.92825484275818,3.42,-3.12,-1.1,4.75
25.938109874725342,5.01,-2.2,-1.78,5.75
25.947996854782104,7.12,-1.06,-2.04,7.48
25.95832395553589,9.5,0.47,-1.49,9.62
25.968090057373047,11.66,2.21,-0.29,11.87
26.007938861846924,13.39,3.58,0.68,13.87
26.009244918823242,14.8,4.32,1.0,15.44
26.010249853134155,16.19,4.67,0.98,16.87
26.02951693534851,17.42,4.95,-0.22,18.11
26.0310218334198,18.64,4.65,-1.53,19.27
26.045742988586426,19.71,3.84,-2.99,20.3
26.047255039215088,20.85,3.12,-4.23,21.5
26.06231188774109,22.08,2.22,-4.54,22.65
26.063832759857178,22.65,0.42,-3.9,22.98
26.077533721923828,19.34,-0.17,-1.72,19.41
26.108606815338135,8.84,5.08,2.45,10.48
26.109936714172363,-4.19,1.61,4.36,6.25
26.110939025878906,-14.76,5.54,2.78,16.0
26.128900051116943,-18.28,23.8,2.05,30.07
26.129994869232178,-16.71,30.77,3.95,35.23
26.145638942718506,-11.89,12.82,-9.12,19.72
26.14709186553955,-3.17,1.34,-9.3,9.91
26.162264823913574,4.85,-1.5,-1.95,5.43
26.16372776031494,10.69,-4.21,3.2,11.92
26.177650928497314,12.24,-9.86,3.94,16.2
26.206682920455933,13.16,-10.82,-0.01,17.03
26.208096981048584,13.13,-4.38,1.5,13.92
26.20908784866333,8.88,0.81,0.26,8.92
26.228635787963867,2.92,1.42,-2.58,4.14
26.229674816131592,-0.51,2.28,-2.98,3.78
26.245567798614502,-1.98,3.0,-2.76,4.53
26.247028827667236,-2.26,2.27,-1.2,3.42
26.2618088722229,-0.24,0.17,0.76,0.81
26.263253927230835,1.76,-1.52,1.26,2.64
26.277938842773438,2.21,-2.02,1.49,3.34
26.30755591392517,1.28,-1.36,1.43,2.35
26.30888795852661,0.52,-0.38,0.66,0.92
26.30988073348999,0.7,0.17,-0.77,1.05
26.329128742218018,1.16,0.23,-1.12,1.62
26.330169916152954,1.24,-0.04,-0.3,1.27
26.34553575515747,0.89,-0.31,0.43,1.03
26.346559047698975,0.56,-0.39,0.37,0.77
26.362189769744873,0.25,-0.11,-0.11,0.29
26.363651752471924,-0.14,0.27,-0.28,0.41
26.37750792503357,-0.46,0.39,-0.37,0.7
26.37896490097046,-0.39,0.27,-0.26,0.54
26.424197912216187,-0.17,0.2,0.3,0.39
26.425296783447266,-0.21,-0.04,0.14,0.25
26.42628002166748,-0.63,-0.05,-0.37,0.73
26.447828769683838,-1.03,0.4,-0.73,1.32
26.449322938919067,-1.01,0.72,-0.81,1.48
26.461853981018066,-0.68,0.58,-0.47,1.0
26.463369846343994,-0.36,0.29,0.04,0.46
26.47900104522705,-0.37,0.17,0.27,0.48
26.4804630279541,-0.79,0.34,0.19,0.88
26.494587898254395,-1.22,0.66,-0.02,1.38
26.52599787712097,-1.38,0.8,-0.21,1.6
26.527310848236084,-1.23,0.75,-0.3,1.47
26.528334856033325,-0.98,0.55,-0.57,1.26
26.54612398147583,-0.87,0.43,-0.77,1.23
26.547103881835938,-0.87,0.54,-0.8,1.29
26.562248945236206,-0.84,0.72,-0.61,1.26
26.563663959503174,-0.96,0.91,-0.34,1.36
26.578946828842163,-1.22,0.98,-0.22,1.58
26.58043098449707,-1.26,1.08,-0.11,1.66
26.594491004943848,-1.52,1.14,-0.14,1.9
26.62330389022827,-1.9,1.61,0.02,2.49
26.62465476989746,-2.35,2.22,-0.2,3.23
26.62561798095703,-2.31,3.02,-0.13,3.8
26.642359733581543,-2.23,3.49,0.13,4.14
26.64337682723999,-2.49,4.03,0.51,4.76
26.659682750701904,-3.13,4.36,0.7,5.41
26.66110372543335,-3.96,4.78,0.66,6.24
26.675659894943237,-4.74,5.4,0.51,7.2
26.677103996276855,-5.34,6.71,0.64,8.59
26.692025899887085,-6.19,8.5,0.82,10.54
26.719270944595337,-7.31,10.77,0.75,13.03
26.720679759979248,-8.53,12.47,-0.71,15.12
26.721837997436523,-9.85,12.89,-2.17,16.36
26.724971771240234,-10.66,12.9,-2.3,16.89
26.726054906845093,-11.43,12.34,-3.11,17.1
26.744486808776855,-12.66,12.03,-3.68,17.84
26.74558973312378,-12.75,13.67,-3.61,19.03
26.758973836898804,-8.5,15.44,-5.3,18.4
26.761958837509155,-2.06,14.83,-7.29,16.65
26.778040885925293,2.21,10.76,-5.23,12.16
26.80574083328247,2.42,5.67,-2.61,6.69
26.807034015655518,-0.36,0.02,-2.42,2.44
26.80781602859497,-0.51,-1.11,-2.33,2.63
26.811210870742798,4.12,-1.82,1.12,4.64
26.82161784172058,3.61,-5.29,0.28,6.41
26.831501007080078,-2.88,-2.95,-2.37,4.75
26.841554880142212,-7.93,-0.73,-0.42,7.97
26.851289749145508,-10.41,-0.73,-0.35,10.44
26.861207962036133,-11.69,-1.85,-0.89,11.86
26.871352910995483,-12.85,-2.8,-1.09,13.19
26.907948970794678,-13.05,-3.39,-0.15,13.48
26.90939474105835,-11.5,-3.59,1.33,12.12
26.910425901412964,-8.75,-4.29,1.82,9.91
26.92902183532715,-6.69,-4.78,1.11,8.29
26.93008804321289,-5.99,-4.08,0.18,7.24
26.945485830307007,-5.9,-3.46,-0.44,6.85
26.94649386405945,-5.81,-3.44,-1.21,6.85
26.96220302581787,-5.43,-3.67,-2.05,6.86
26.96363091468811,-4.84,-3.65,-2.52,6.56
26.978179931640625,-4.18,-3.49,-2.76,6.1
27.005603790283203,-3.44,-3.58,-2.9,5.74
27.007048845291138,-2.56,-3.94,-2.85,5.49
27.008087873458862,-1.61,-4.56,-2.75,5.56
27.010286808013916,-0.79,-5.1,-2.84,5.89
27.020023822784424,-0.12,-5.22,-2.75,5.9
27.030009746551514,0.33,-4.83,-2.11,5.28
27.039787769317627,0.77,-4.19,-1.62,4.55
27.049838066101074,1.96,-3.34,-1.65,4.2
27.059985876083374,3.9,-2.52,-2.25,5.15
27.06983184814453,6.03,-1.39,-2.72,6.75
27.107972860336304,7.97,0.8,-2.23,8.31
27.10928201675415,9.85,3.48,-1.23,10.51
27.110315799713135,11.96,5.21,-1.15,13.09
27.12941288948059,14.15,6.13,-1.16,15.46
27.130413055419922,16.32,7.07,-0.8,17.8
27.1456298828125,18.37,7.72,0.04,19.92
27.14672088623047,19.95,7.49,1.25,21.34
27.16250491142273,20.72,6.27,2.22,21.76
27.163970947265625,20.01,4.77,3.38,20.84
27.177799940109253,17.89,3.86,4.1,18.75
27.17926287651062,15.96,2.75,4.36,16.77
27.225518941879272,15.01,1.55,4.45,15.73
27.2266628742218,14.3,1.66,3.98,14.93
27.227678775787354,9.2,2.53,3.27,10.08
27.246448040008545,-1.62,-1.71,0.86,2.5
27.24751091003418,-11.98,-1.58,-2.38,12.31
27.261559009552002,-19.81,15.04,-0.6,24.87
27.262658834457397,-20.13,33.69,7.58,39.97
27.27926993370056,-15.27,25.0,-0.85,29.3
27.280749797821045,-6.36,5.1,-5.38,9.76
27.294662952423096,1.54,-2.2,-3.97,4.79
27.32561993598938,8.53,-3.22,-1.93,9.31
27.326897859573364,12.3,-6.87,0.44,14.09
27.32789182662964,14.17,-8.12,0.57,16.34
27.346223831176758,14.64,-5.96,0.69,15.82
27.347261905670166,12.67,-2.9,0.75,13.01
27.36228084564209,6.5,-0.51,-0.33,6.52
27.363327026367188,1.28,0.65,-0.56,1.54
27.37905788421631,-1.43,1.72,-0.63,2.32
27.38010597229004,-2.32,2.21,0.1,3.2
27.393553733825684,-1.35,1.02,1.27,2.11
27.421409845352173,0.68,-0.7,1.58,1.85
27.422502040863037,1.67,-1.56,1.16,2.56
27.42335081100464,1.11,-1.18,0.16,1.62
27.425506830215454,0.37,-0.11,-0.83,0.91
27.426722049713135,0.32,0.69,-1.83,1.98
27.43675684928894,0.65,0.71,-1.82,2.05
27.446842908859253,0.84,0.08,-1.06,1.35
27.45655584335327,0.86,-0.57,-0.63,1.2
27.466777801513672,0.74,-0.64,-0.6,1.14
27.476821899414062,0.27,-0.13,-0.37,0.47
27.506508827209473,-0.25,0.34,0.45,0.61
27.507436752319336,-0.52,0.34,1.12,1.28
27.508151054382324,-0.5,0.14,1.26,1.36
27.529562950134277,-0.25,-0.02,0.85,0.88
27.53063201904297,-0.06,0.04,0.17,0.18
27.54591178894043,-0.08,0.12,-0.75,0.76
27.54695987701416,-0.06,0.24,-1.37,1.39
27.56266498565674,-0.13,0.39,-1.27,1.33
27.565651893615723,-0.47,0.41,-0.74,0.96
27.578341960906982,-0.87,0.36,-0.06,0.94
27.614047050476074,-1.1,0.29,0.68,1.32
27.61530590057373,-1.0,0.21,0.99,1.42
27.61611795425415,-0.67,0.14,0.72,0.99
27.629701852798462,-0.57,0.14,0.01,0.58
27.630675792694092,-0.87,0.28,-0.6,1.09
27.645664930343628,-1.19,0.52,-0.58,1.42
27.646711826324463,-1.17,0.59,-0.43,1.37
27.662466049194336,-1.1,0.5,-0.36,1.26
27.66506576538086,-1.22,0.47,-0.38,1.36
27.678233861923218,-1.45,0.47,-0.37,1.56
27.71109890937805,-1.65,0.63,-0.27,1.78
27.712260723114014,-1.71,1.01,-0.18,1.99
27.713074922561646,-1.6,1.39,-0.2,2.12
27.72964882850647,-1.34,1.7,-0.33,2.18
27.73070478439331,-1.31,2.04,-0.52,2.47
27.745689868927002,-1.6,2.71,-0.46,3.18
27.746750831604004,-1.97,3.55,-0.07,4.06
27.762465953826904,-2.41,4.1,0.08,4.75
27.764150857925415,-2.99,4.26,0.24,5.21
27.778368949890137,-3.46,4.55,0.06,5.71
27.812042713165283,-3.88,4.8,-0.37,6.18
27.813355922698975,-4.15,5.44,-0.43,6.85
27.814379930496216,-4.83,6.66,-0.35,8.23
27.82894992828369,-5.92,8.59,0.12,10.43
27.830042839050293,-7.19,11.21,0.47,13.32
27.84602189064026,-8.78,12.72,-0.86,15.47
27.847092866897583,-10.04,13.43,-1.87,16.87
27.860244750976562,-10.7,13.58,-2.79,17.51
27.86353302001953,-11.32,12.28,-4.38,17.26
27.878528833389282,-12.47,11.32,-4.72,17.49
27.90972089767456,-12.13,12.41,-3.86,17.77
27.91086196899414,-7.67,13.77,-4.38,16.35
27.91168975830078,-1.74,11.7,-6.9,13.69
27.929832935333252,2.53,7.92,-5.13,9.76
27.930875778198242,3.12,3.82,-1.88,5.27
27.946045875549316,0.6,-2.21,-1.95,3.0
27.947099924087524,0.92,-2.2,-0.71,2.48
27.962789058685303,4.02,-3.54,2.67,5.98
27.963863849639893,1.47,-5.18,-0.02,5.38
27.97835087776184,-4.87,-1.78,-1.24,5.33
27.982924938201904,-9.47,0.29,0.53,9.48
28.02381181716919,-11.7,0.15,0.23,11.7
28.02497673034668,-13.14,-0.76,-0.48,13.17
28.025965929031372,-13.96,-1.46,0.0,14.03
28.047022819519043,-12.53,-1.77,1.61,12.75
28.048051834106445,-8.62,-2.69,2.93,9.49
28.06251573562622,-5.46,-4.15,2.51,7.3
28.063554763793945,-4.47,-4.48,1.43,6.48
28.0797438621521,-4.78,-3.88,0.74,6.2
28.081207752227783,-4.93,-3.69,0.13,6.15
28.095118045806885,-4.42,-3.89,-0.66,5.92
28.12533688545227,-3.54,-3.98,-1.6,5.56
28.126560926437378,-3.05,-3.89,-2.29,5.44
28.12738800048828,-3.02,-3.8,-2.62,5.51
28.146461963653564,-3.09,-3.97,-2.67,5.69
28.147552967071533,-2.93,-4.32,-2.65,5.85
28.162473917007446,-2.34,-4.53,-2.55,5.7
28.163496017456055,-1.65,-4.76,-2.26,5.52
28.179497718811035,-1.12,-4.9,-1.56,5.26
28.18075394630432,-0.85,-4.88,-0.9,5.03
28.1949520111084,-0.32,-4.59,-0.75,4.66
28.22460389137268,1.37,-3.78,-0.83,4.1
28.22595191001892,3.76,-2.92,-1.11,4.88
28.226924896240234,5.98,-2.28,-1.0,6.47
28.247155904769897,8.15,-0.71,-0.53,8.19
28.248157024383545,10.35,1.27,-0.01,10.42
28.262999057769775,12.5,2.48,-0.28,12.74
28.26399803161621,14.42,3.66,-1.06,14.91
28.27916693687439,16.91,5.26,-1.6,17.78
28.280159950256348,19.95,6.2,-1.81,20.96
28.293680906295776,22.98,5.96,-0.98,23.76
28.320767879486084,24.85,4.18,0.45,25.2
28.32190179824829,25.0,2.41,1.94,25.19
28.322722911834717,22.47,1.24,2.95,22.69
28.324892044067383,17.61,0.62,2.82,17.84
28.34622883796692,14.41,0.31,2.56,14.63
28.347298860549927,12.75,-0.53,2.48,12.99
28.361801862716675,11.77,-0.75,2.94,12.15
28.362834930419922,7.74,0.99,3.74,8.65
28.37838077545166,-1.93,-3.07,1.32,3.85
28.37982702255249,-17.57,-5.12,-12.68,22.26
28.42372703552246,-31.43,26.55,-13.09,43.17
28.42488193511963,-30.69,53.55,19.74,64.8
28.425889015197754,-24.62,29.56,-2.76,38.56
28.44701099395752,-9.07,4.2,-3.69,10.65
28.448086738586426,2.68,-5.89,-1.81,6.71
28.462738037109375,6.81,-12.89,1.81,14.69
28.4637508392334,8.96,-16.68,1.42,18.98
28.479878902435303,11.97,-16.19,0.89,20.15
28.48138189315796,14.46,-9.51,2.75,17.52
28.49556589126587,15.02,-0.99,5.71,16.09
28.527647972106934,10.34,2.4,-0.04,10.61
28.528905868530273,3.28,2.57,-4.21,5.92
28.52991771697998,-0.95,3.2,-5.33,6.28
28.54699683189392,-2.68,3.49,-2.89,5.26
28.548045873641968,-3.07,1.99,0.56,3.7
28.56287693977356,-0.97,-1.03,2.28,2.68
28.563941955566406,1.55,-2.44,2.07,3.55
28.578941822052002,2.34,-1.65,0.91,3.0
28.58044195175171,1.24,-0.17,-0.7,1.43
28.59549593925476,0.12,0.67,-1.02,1.22
28.624818801879883,-0.24,0.58,-0.51,0.8
28.625926971435547,0.02,0.08,0.14,0.16
28.626765727996826,0.4,-0.32,-0.22,0.55
28.646750926971436,0.59,-0.24,-0.85,1.06
28.647774934768677,0.43,0.18,-0.79,0.91
28.662843942642212,0.04,0.29,-0.1,0.3
28.663858890533447,-0.19,0.2,0.69,0.74
28.679461002349854,-0.28,0.09,0.8,0.85
28.680506944656372,-0.4,0.12,0.25,0.48
28.695432901382446,-0.51,0.22,-0.49,0.74
28.725900888442993,-0.63,0.33,-0.85,1.1
28.72725200653076,-0.74,0.36,-0.7,1.08
28.728111743927002,-0.82,0.34,-0.28,0.93
28.747078895568848,-0.9,0.32,0.13,0.96
28.748122930526733,-0.76,0.38,0.29,0.89
28.763000965118408,-0.54,0.49,0.27,0.77
28.76398491859436,-0.5,0.51,0.27,0.76
28.779520988464355,-0.6,0.37,0.14,0.71
28.780555725097656,-0.72,0.17,-0.05,0.74
28.795424938201904,-0.75,0.18,-0.13,0.78
28.796895027160645,-0.74,0.38,-0.25,0.86
28.84212303161621,-0.91,0.66,-0.5,1.23
28.8433198928833,-1.35,0.92,-0.46,1.69
28.844308853149414,-1.89,1.21,-0.27,2.26
28.86345100402832,-2.01,1.41,-0.31,2.47
28.864501953125,-1.66,1.65,-0.21,2.34
28.8796329498291,-1.14,2.04,-0.3,2.35
28.880640983581543,-1.19,2.82,-0.11,3.06
28.896909713745117,-1.63,3.05,-0.05,3.45
28.898382902145386,-2.35,3.23,0.26,4.0
28.91235589981079,-2.84,3.38,0.31,4.42
28.94181776046753,-3.11,3.6,0.36,4.77
28.943246841430664,-3.23,3.8,0.16,4.98
28.9441659450531,-3.47,4.0,-0.13,5.29
28.963722944259644,-4.12,4.45,-0.16,6.06
28.96479606628418,-5.15,5.18,0.11,7.3
28.979246854782104,-6.11,6.38,0.68,8.85
28.98030376434326,-6.82,8.14,1.41,10.71
28.99644184112549,-7.54,10.2,1.29,12.74
28.997516870498657,-8.56,11.1,-0.23,14.01
29.010128021240234,-9.65,11.12,-1.31,14.78
29.037287712097168,-10.95,11.38,-1.56,15.86
29.038450717926025,-12.16,12.64,-1.36,17.59
29.039336919784546,-11.47,14.06,-2.85,18.36
29.04222583770752,-6.37,13.72,-7.05,16.68
29.06319785118103,0.46,13.02,-8.61,15.61
29.064260005950928,3.85,10.49,-4.53,12.05
29.07986092567444,2.28,6.42,-1.16,6.91
29.08090877532959,-2.12,1.22,-0.34,2.46
29.095061779022217,-2.84,-2.22,-2.31,4.28
29.0960750579834,2.7,-1.67,-0.97,3.31
29.139702796936035,4.64,-4.22,0.65,6.3
29.140641927719116,-1.42,-2.92,-2.35,4.0
29.141641855239868,-7.66,-1.42,-0.84,7.83
29.143940925598145,-11.13,-1.84,0.36,11.28
29.145237922668457,-12.67,-3.16,0.61,13.07
29.146458864212036,-13.91,-4.47,0.59,14.62
29.15384006500244,-14.53,-5.77,1.11,15.67
29.163899898529053,-14.11,-7.09,1.93,15.9
29.173588752746582,-11.64,-7.16,3.94,14.22
29.183942794799805,-8.0,-5.89,3.96,10.69
29.21795082092285,-6.22,-3.83,1.81,7.52
29.219135761260986,-5.46,-2.03,1.03,5.91
29.219956874847412,-5.34,-1.12,0.92,5.53
29.22861099243164,-5.15,-1.12,0.33,5.28
29.233043909072876,-4.74,-1.27,-1.01,5.01
29.246055841445923,-4.38,-0.84,-1.96,4.87
29.253293991088867,-4.29,0.83,-1.58,4.64
29.26320505142212,-3.62,2.38,-1.86,4.71
29.272957801818848,-1.17,1.78,-3.89,4.43
29.282859802246094,2.13,0.94,-5.15,5.65
29.31951904296875,4.62,1.17,-5.07,6.95
29.320639848709106,5.5,1.68,-3.86,6.92
29.321444034576416,4.59,1.25,-2.69,5.46
29.328033924102783,3.26,0.21,-1.33,3.52
29.33222794532776,3.21,0.09,-0.85,3.32
29.346320867538452,4.29,0.73,-0.97,4.45
29.352155923843384,5.52,1.39,-0.83,5.75
29.363114833831787,6.84,1.64,-0.28,7.03
29.37228775024414,8.29,1.32,-0.13,8.39
29.381991863250732,9.93,1.05,-0.42,9.99
29.419591903686523,11.67,1.05,-1.18,11.77
29.42074990272522,13.33,1.02,-2.14,13.53
29.421634912490845,14.83,0.83,-2.52,15.06
29.42694592475891,15.59,0.6,-3.01,15.88
29.431687831878662,15.86,0.43,-3.41,16.22
29.446616888046265,16.32,-0.36,-3.47,16.68
29.451535940170288,16.84,-1.36,-2.69,17.1
29.46321392059326,17.07,-2.44,-1.51,17.3
29.471340894699097,16.69,-3.45,-0.23,17.04
29.48156499862671,15.96,-3.58,1.1,16.39
29.520578861236572,14.91,-3.24,2.13,15.4
29.521941900253296,9.56,-0.44,4.44,10.54
29.522886753082275,-1.33,4.53,7.55,8.9
