time,ax,ay,az,atotal
0.0072820186614990234,1.29,0.31,0.2,1.34
0.018200159072875977,0.52,0.32,0.1,0.61
0.027467012405395508,-0.28,-0.43,-0.17,0.54
0.06285905838012695,-0.65,-0.8,-0.32,1.07
0.06313490867614746,-0.62,-0.15,-0.42,0.76
0.06340503692626953,-0.32,0.36,-0.19,0.51
0.06717205047607422,0.37,0.34,-0.03,0.5
0.07716107368469238,0.62,0.02,-0.07,0.62
0.08775806427001953,-0.06,-0.02,-0.15,0.16
0.09724807739257812,-0.48,0.05,-0.21,0.52
0.10717415809631348,-0.52,-0.03,-0.18,0.55
0.14469504356384277,-0.39,-0.04,-0.18,0.43
0.1449601650238037,-0.26,-0.01,-0.13,0.29
0.14522099494934082,-0.17,0.01,-0.12,0.2
0.14703106880187988,-0.11,-0.01,-0.04,0.11
0.15706515312194824,-0.04,-0.05,0.11,0.12
0.16734814643859863,0.09,-0.02,0.15,0.17
0.1770341396331787,0.19,-0.01,0.18,0.26
0.18768000602722168,0.24,-0.07,0.15,0.29
0.197005033493042,0.19,-0.07,0.13,0.24
0.20706486701965332,0.08,-0.05,0.01,0.09
0.24672508239746094,0.07,-0.05,0.04,0.09
0.24699091911315918,0.15,-0.02,0.18,0.23
0.24725103378295898,0.22,-0.01,0.29,0.36
0.24750804901123047,0.16,0.01,0.27,0.31
0.25685715675354004,-0.03,-0.01,0.18,0.18
0.26722002029418945,-0.16,0.0,0.06,0.17
0.27684712409973145,-0.1,-0.04,0.01,0.1
0.28755998611450195,-0.11,-0.04,-0.1,0.15
0.29686808586120605,-0.14,-0.04,-0.14,0.2
0.30687403678894043,-0.12,-0.03,-0.1,0.15
0.34662318229675293,-0.15,-0.04,0.0,0.15
0.34687209129333496,-0.18,-0.04,0.01,0.18
0.347135066986084,-0.14,-0.02,-0.08,0.16
0.34739208221435547,-0.06,0.02,-0.15,0.16
0.35671401023864746,-0.02,0.03,-0.23,0.23
0.3667261600494385,0.03,0.03,-0.17,0.17
0.37689805030822754,0.11,0.1,-0.08,0.16
0.3874199390411377,0.12,0.08,-0.02,0.14
0.39674901962280273,0.1,-0.02,0.08,0.12
0.40671300888061523,-0.04,-0.05,0.07,0.09
0.44654297828674316,-0.09,-0.01,-0.01,0.09
0.44681501388549805,-0.03,0.04,-0.11,0.12
0.44707417488098145,0.04,0.0,-0.05,0.06
0.447343111038208,0.09,-0.01,0.02,0.09
0.4566309452056885,0.06,0.01,0.02,0.06
0.4665260314941406,-0.05,-0.07,0.03,0.09
0.4767429828643799,-0.08,-0.11,-0.01,0.13
0.48722004890441895,-0.07,-0.05,-0.03,0.09
0.49656105041503906,-0.07,0.0,0.0,0.07
0.5066049098968506,0.0,-0.01,0.05,0.05
0.546151876449585,0.12,0.0,0.11,0.16
0.546518087387085,0.16,0.02,0.07,0.17
0.5467751026153564,0.1,0.03,0.06,0.12
0.5470340251922607,-0.01,-0.01,0.02,0.02
0.5567619800567627,-0.07,-0.04,0.0,0.08
0.5663900375366211,0.0,0.02,-0.01,0.02
0.5763990879058838,0.07,0.01,0.02,0.07
0.5870380401611328,0.08,-0.04,0.1,0.13
0.5965468883514404,0.0,-0.06,0.14,0.15
0.6065561771392822,-0.06,-0.03,0.06,0.09
0.6461489200592041,-0.06,0.01,-0.04,0.07
0.6463930606842041,-0.1,0.01,-0.14,0.17
0.6466519832611084,-0.26,-0.01,-0.18,0.31
0.6468980312347412,-0.36,-0.01,-0.09,0.37
0.6562950611114502,-0.29,0.02,-0.16,0.33
0.666334867477417,-0.16,0.05,-0.17,0.23
0.6762449741363525,-0.1,0.04,-0.14,0.17
0.6868650913238525,-0.12,0.04,-0.16,0.2
0.6963541507720947,-0.1,0.02,-0.12,0.15
0.7062880992889404,-0.06,-0.01,-0.01,0.06
0.7171509265899658,0.0,-0.03,0.11,0.11
0.7460360527038574,0.02,-0.07,0.09,0.11
0.7463040351867676,-0.02,-0.05,0.11,0.12
0.746567964553833,-0.05,0.01,0.1,0.11
0.7561709880828857,-0.01,-0.03,0.13,0.13
0.7661111354827881,0.09,-0.06,0.23,0.25
0.7761549949645996,0.17,-0.04,0.22,0.28
0.7867879867553711,0.21,-0.02,0.09,0.22
0.7962019443511963,0.24,0.0,-0.02,0.24
0.8061769008636475,0.16,0.03,-0.14,0.21
0.8170530796051025,0.11,-0.01,-0.19,0.21
0.8459820747375488,0.02,-0.05,-0.06,0.08
0.8462450504302979,-0.18,-0.09,0.07,0.21
0.8465039730072021,-0.3,-0.03,0.11,0.32
0.8559460639953613,-0.2,0.03,0.13,0.24
0.865922212600708,0.02,0.04,0.21,0.21
0.8760411739349365,0.17,0.0,0.14,0.22
0.8866488933563232,0.1,-0.01,-0.05,0.11
0.8961300849914551,-0.05,0.0,-0.19,0.19
0.9061329364776611,-0.06,0.07,-0.35,0.36
0.9166848659515381,-0.01,0.06,-0.3,0.3
0.9467918872833252,0.01,0.0,-0.2,0.2
0.9470441341400146,0.03,0.0,-0.11,0.11
0.9473111629486084,0.13,0.01,0.02,0.13
0.9558300971984863,0.31,0.02,0.15,0.34
0.9657959938049316,0.37,-0.02,0.2,0.42
0.9757440090179443,0.41,0.01,0.12,0.42
0.9865520000457764,0.42,0.04,0.08,0.42
0.995812177658081,0.35,-0.02,0.05,0.35
1.0058419704437256,0.22,-0.06,0.01,0.22
1.0165979862213135,0.09,-0.05,0.0,0.1
1.0467870235443115,-0.05,0.03,-0.05,0.07
1.0470390319824219,-0.1,0.03,-0.01,0.1
1.0473082065582275,-0.15,-0.01,0.06,0.16
1.0555899143218994,-0.19,-0.06,0.07,0.21
1.065613031387329,-0.15,0.01,0.02,0.15
1.075571060180664,-0.05,0.05,0.02,0.07
1.0863080024719238,0.11,0.03,0.06,0.12
1.0955889225006104,0.21,0.02,0.06,0.21
1.1056668758392334,0.2,0.0,-0.02,0.2
1.1164891719818115,0.11,-0.02,-0.08,0.13
1.1468279361724854,0.02,0.01,-0.12,0.12
1.147096872329712,0.01,0.0,-0.09,0.09
1.147367000579834,0.03,-0.07,0.03,0.08
1.1554601192474365,0.01,-0.03,0.07,0.07
1.1655728816986084,0.07,0.08,0.06,0.12
1.1756460666656494,0.19,0.1,0.06,0.22
1.1860370635986328,0.22,0.01,0.1,0.24
1.1956679821014404,0.21,-0.04,0.05,0.21
1.2055189609527588,0.21,0.01,-0.11,0.23
1.2163488864898682,0.13,0.06,-0.17,0.22
1.2474560737609863,-0.02,0.06,-0.25,0.25
1.2477362155914307,-0.09,0.03,-0.27,0.28
1.2480089664459229,-0.12,-0.06,-0.2,0.24
1.2553000450134277,-0.14,-0.07,-0.14,0.21
1.2654359340667725,-0.14,0.01,-0.12,0.18
1.2753190994262695,-0.14,0.04,-0.08,0.16
1.2858710289001465,-0.09,0.01,-0.03,0.09
1.2955281734466553,-0.04,-0.05,0.04,0.07
1.3053171634674072,-0.06,-0.05,0.05,0.09
1.316122055053711,-0.14,-0.01,-0.03,0.14
1.3474080562591553,-0.15,0.06,-0.11,0.19
1.3476760387420654,-0.11,0.07,-0.15,0.19
1.3479430675506592,-0.05,-0.03,-0.14,0.15
1.3551781177520752,-0.05,-0.09,-0.09,0.13
1.3652079105377197,-0.05,-0.07,-0.03,0.09
1.3750779628753662,-0.04,0.02,-0.02,0.04
1.385878086090088,0.0,0.05,0.01,0.05
1.3952019214630127,0.06,-0.02,0.04,0.07
1.4051930904388428,0.07,-0.08,0.02,0.1
1.4160048961639404,0.01,-0.04,-0.03,0.05
1.4479050636291504,-0.03,0.09,-0.15,0.17
1.4481661319732666,-0.03,0.15,-0.23,0.27
1.4484341144561768,-0.01,0.1,-0.21,0.23
1.4550821781158447,0.0,0.02,-0.16,0.16
1.464966058731079,-0.03,-0.01,-0.14,0.14
1.4750990867614746,-0.14,-0.04,-0.16,0.21
1.4857409000396729,-0.23,0.0,-0.14,0.26
1.4950568675994873,-0.22,0.07,-0.11,0.25
1.5050830841064453,-0.14,0.03,-0.07,0.15
1.5158710479736328,-0.06,-0.03,0.01,0.06
1.5475308895111084,-0.07,-0.05,0.04,0.09
1.5478050708770752,-0.11,-0.08,0.06,0.14
1.5480670928955078,-0.13,-0.04,0.05,0.14
1.5548069477081299,-0.13,0.03,0.02,0.13
1.5648701190948486,-0.15,0.05,-0.03,0.16
1.574950933456421,-0.13,0.03,-0.1,0.16
1.5856750011444092,-0.15,0.01,-0.1,0.18
1.5948641300201416,-0.17,0.01,-0.15,0.22
1.6049559116363525,-0.17,0.04,-0.2,0.26
1.6157240867614746,-0.14,0.04,-0.16,0.21
1.648380994796753,-0.11,0.0,-0.07,0.13
1.6486539840698242,0.01,-0.05,0.09,0.1
1.6489231586456299,0.1,-0.06,0.17,0.2
1.6546862125396729,0.13,-0.03,0.2,0.24
1.6646811962127686,0.06,0.01,0.14,0.15
1.6747491359710693,0.01,-0.05,0.14,0.14
1.6857750415802002,0.03,-0.07,0.15,0.16
1.6947901248931885,0.09,-0.06,0.16,0.19
1.7047841548919678,0.14,-0.04,0.19,0.23
1.715475082397461,0.19,-0.04,0.21,0.28
1.7476599216461182,0.25,-0.05,0.23,0.34
1.747938871383667,0.28,0.02,0.19,0.33
1.7482049465179443,0.27,0.05,0.12,0.29
1.7546131610870361,0.22,0.01,0.08,0.23
1.764582872390747,0.07,-0.07,0.06,0.11
1.7746078968048096,-0.03,-0.08,0.04,0.09
1.7856309413909912,0.05,-0.02,0.06,0.08
1.7946100234985352,0.13,0.01,0.17,0.21
1.804617166519165,0.18,0.02,0.26,0.31
1.8153550624847412,0.2,0.0,0.24,0.31
1.847825050354004,0.11,-0.07,0.19,0.23
1.8480970859527588,-0.01,-0.04,0.1,0.1
1.8483588695526123,-0.02,-0.01,0.02,0.03
1.8543870449066162,0.02,-0.01,-0.03,0.03
1.8644931316375732,0.1,0.0,0.02,0.1
1.8745110034942627,0.15,-0.02,0.09,0.17
1.8854339122772217,0.19,-0.04,0.16,0.25
1.8944041728973389,0.1,-0.04,0.13,0.16
1.9044129848480225,-0.04,-0.03,0.08,0.09
1.9151852130889893,-0.18,-0.03,0.01,0.18
1.948302984237671,-0.23,-0.03,-0.04,0.23
1.948570966720581,-0.22,-0.01,-0.09,0.23
1.9488329887390137,-0.2,-0.02,-0.13,0.23
1.9543612003326416,-0.13,0.02,-0.12,0.17
1.9642670154571533,-0.02,0.05,-0.1,0.11
1.9742929935455322,0.06,0.03,-0.07,0.09
1.9852890968322754,0.07,0.02,-0.06,0.09
1.9942729473114014,0.07,-0.02,-0.02,0.07
2.004359006881714,0.02,-0.02,-0.01,0.03
2.0150580406188965,-0.06,-0.03,-0.03,0.07
2.048051118850708,-0.08,0.01,-0.08,0.11
2.048319101333618,-0.07,0.04,-0.15,0.17
2.048577070236206,-0.06,-0.02,-0.16,0.17
2.054069995880127,-0.07,-0.04,-0.1,0.12
2.064091920852661,-0.09,-0.01,-0.06,0.1
2.0740959644317627,-0.16,-0.02,-0.04,0.16
2.0846469402313232,-0.21,-0.02,-0.04,0.21
2.094123125076294,-0.14,0.01,-0.05,0.14
2.104145050048828,-0.01,0.05,-0.06,0.07
2.1149089336395264,0.11,0.02,-0.04,0.11
2.1483700275421143,0.18,0.02,-0.02,0.18
2.1486451625823975,0.21,0.03,0.02,0.21
2.1489179134368896,0.24,-0.03,0.04,0.24
2.1539289951324463,0.24,-0.03,0.09,0.25
2.1639420986175537,0.09,-0.01,0.06,0.1
2.1739561557769775,-0.18,-0.06,0.0,0.18
2.18467116355896,-0.28,-0.05,-0.06,0.29
2.1939520835876465,-0.17,0.0,-0.1,0.19
2.2039859294891357,-0.01,0.02,-0.07,0.07
2.214818000793457,0.1,0.01,-0.01,0.1
2.2482900619506836,0.13,0.0,0.01,0.13
2.2485601902008057,0.18,0.01,-0.01,0.18
2.2488229274749756,0.2,-0.01,0.05,0.2
2.253786087036133,0.16,-0.01,0.11,0.19
2.2636959552764893,0.08,-0.02,0.13,0.15
2.2737810611724854,0.01,-0.03,0.09,0.09
2.2844650745391846,-0.06,0.0,0.06,0.08
2.293779134750366,-0.13,-0.01,0.03,0.13
2.3038599491119385,-0.11,-0.03,0.06,0.12
2.3146300315856934,0.01,-0.03,0.03,0.04
2.3482401371002197,0.14,-0.03,0.03,0.14
2.3485100269317627,0.22,-0.01,0.05,0.22
2.3487589359283447,0.24,-0.01,0.08,0.25
2.3537189960479736,0.21,-0.03,0.11,0.23
2.3636040687561035,0.11,0.0,0.11,0.15
2.373671054840088,-0.02,-0.03,0.08,0.08
2.38421893119812,-0.07,-0.02,0.03,0.07
2.393634080886841,0.01,0.0,0.0,0.01
2.403635025024414,0.09,0.0,0.03,0.09
2.414440870285034,0.17,0.0,0.03,0.17
2.448667049407959,0.23,0.01,0.02,0.23
2.4489340782165527,0.25,0.03,0.01,0.25
2.449198007583618,0.22,0.04,0.0,0.22
2.45351505279541,0.18,0.03,-0.02,0.18
2.463608980178833,0.09,0.01,-0.02,0.09
2.4733870029449463,-0.02,0.0,-0.08,0.08
2.4840970039367676,-0.07,0.0,-0.11,0.13
2.493457078933716,-0.12,0.02,-0.13,0.17
2.503416061401367,-0.14,0.04,-0.13,0.19
2.5142550468444824,-0.14,0.02,-0.14,0.19
2.548267126083374,-0.11,0.02,-0.12,0.16
2.548537015914917,-0.08,0.03,-0.1,0.13
2.548799991607666,-0.04,-0.01,-0.05,0.06
2.5532710552215576,0.01,-0.06,-0.01,0.06
2.563390016555786,0.02,-0.04,0.02,0.04
2.573333978652954,-0.02,-0.01,0.02,0.03
2.5840489864349365,-0.1,0.04,-0.03,0.11
2.593440055847168,-0.18,0.01,-0.07,0.19
2.6033098697662354,-0.22,-0.01,-0.12,0.25
2.6142170429229736,-0.24,-0.03,-0.16,0.28
2.6486949920654297,-0.21,-0.05,-0.16,0.26
2.648963212966919,-0.13,0.02,-0.14,0.19
2.649228096008301,-0.1,0.08,-0.18,0.22
2.653132200241089,-0.04,0.01,-0.17,0.17
2.6633260250091553,0.0,-0.01,-0.12,0.12
2.6731770038604736,-0.08,-0.01,-0.08,0.11
2.6837379932403564,-0.18,-0.06,-0.07,0.2
2.6931769847869873,-0.21,-0.05,-0.05,0.22
2.7030699253082275,-0.17,0.0,-0.06,0.18
2.7139790058135986,-0.12,0.03,-0.08,0.14
2.7482521533966064,-0.1,0.03,-0.11,0.15
2.7485239505767822,-0.09,0.0,-0.17,0.19
2.748777151107788,-0.08,-0.03,-0.18,0.19
2.7529900074005127,-0.12,-0.04,-0.14,0.18
2.763068914413452,-0.18,-0.01,-0.13,0.22
2.7730250358581543,-0.13,0.02,-0.06,0.14
2.7835240364074707,-0.08,-0.01,0.03,0.08
2.793006181716919,-0.03,0.01,0.04,0.05
2.802901029586792,0.01,0.01,0.04,0.04
2.81384015083313,0.03,0.02,-0.04,0.05
2.8484790325164795,0.11,0.0,-0.02,0.11
2.848741054534912,0.15,-0.05,0.06,0.16
2.849001169204712,0.12,-0.02,0.04,0.12
2.852797031402588,0.05,0.01,0.04,0.06
2.8628220558166504,0.05,0.0,0.08,0.09
2.8730390071868896,0.12,-0.03,0.16,0.2
2.8834080696105957,0.18,-0.03,0.17,0.24
2.8928658962249756,0.23,-0.02,0.21,0.31
2.902815103530884,0.17,-0.02,0.17,0.24
2.913694143295288,0.19,0.01,0.11,0.21
2.9493038654327393,0.19,-0.02,0.1,0.21
2.949579954147339,0.13,-0.04,0.0,0.13
2.9498441219329834,0.14,0.0,0.01,0.14
2.952672004699707,0.11,0.0,0.05,0.12
2.962881088256836,0.09,0.0,0.09,0.12
2.9726741313934326,0.05,0.0,0.09,0.1
2.983206033706665,-0.04,-0.01,0.02,0.04
2.9927279949188232,-0.04,-0.02,-0.01,0.04
3.0026938915252686,-0.02,-0.04,-0.01,0.04
3.01348614692688,-0.03,-0.03,0.0,0.04
3.04911208152771,-0.05,0.01,-0.02,0.05
3.0493760108947754,-0.06,-0.01,-0.01,0.06
3.0496342182159424,-0.12,0.05,0.01,0.13
3.052793025970459,-0.18,0.15,0.04,0.23
3.0626320838928223,-0.21,0.17,0.09,0.28
3.072611093521118,-0.25,0.1,0.06,0.27
3.0831501483917236,-0.27,0.02,-0.04,0.27
3.092578172683716,-0.07,0.02,0.0,0.07
3.1029040813446045,0.14,0.07,0.02,0.15
3.1134679317474365,0.22,0.1,0.03,0.24
3.1491830348968506,0.22,0.11,0.02,0.24
3.1494429111480713,0.2,0.01,0.08,0.21
3.1497020721435547,0.15,-0.16,0.24,0.32
3.15263295173645,0.14,-0.31,0.53,0.62
3.1623342037200928,0.21,-0.3,0.73,0.81
3.1723380088806152,0.34,-0.12,0.79,0.86
3.1829850673675537,0.5,0.01,0.81,0.95
3.1924679279327393,0.75,0.08,0.76,1.07
3.202766180038452,1.05,0.13,0.67,1.25
3.2132070064544678,1.19,0.18,0.68,1.38
3.2501471042633057,1.15,0.32,0.68,1.37
3.250401020050049,1.09,0.49,0.69,1.37
3.2506439685821533,1.09,0.43,0.81,1.42
3.252436876296997,1.29,0.22,1.1,1.7
3.262237071990967,1.54,0.14,1.33,2.03
3.272284984588623,1.6,0.36,1.34,2.11
3.282809019088745,1.24,0.57,1.45,1.99
3.2922708988189697,0.67,0.97,0.94,1.5
3.302306890487671,0.45,1.27,0.34,1.38
3.313145875930786,0.26,0.94,0.4,1.05
3.3498640060424805,0.09,0.8,0.47,0.93
3.3501250743865967,-0.09,0.78,0.41,0.88
3.350385904312134,-0.28,0.68,0.48,0.87
3.3520901203155518,-0.73,0.69,0.68,1.21
3.3620898723602295,-1.35,0.78,0.89,1.79
3.3720390796661377,-1.61,0.44,1.12,2.01
3.3827149868011475,-1.48,-0.21,1.69,2.25
3.392106056213379,-1.29,-0.63,1.87,2.35
3.4021060466766357,-0.88,-0.82,1.82,2.18
3.412851095199585,-0.37,-0.78,1.74,1.94
3.4494669437408447,0.01,-0.51,1.6,1.67
3.449733018875122,0.28,-0.16,1.49,1.52
3.4499919414520264,0.63,0.02,1.47,1.59
3.4519221782684326,0.92,-0.08,1.54,1.79
3.461859941482544,1.03,-0.27,1.62,1.93
3.4719059467315674,1.07,-0.35,1.65,1.99
3.482477903366089,1.01,-0.34,1.65,1.96
3.4920198917388916,0.97,-0.35,1.62,1.92
3.5021069049835205,0.87,-0.38,1.56,1.82
3.5127780437469482,0.58,-0.45,1.52,1.68
3.549546957015991,0.29,-0.54,1.44,1.56
3.5498111248016357,0.15,-0.57,1.34,1.46
3.5500729084014893,0.14,-0.58,1.21,1.34
3.551920175552368,0.16,-0.66,1.08,1.27
3.561768054962158,0.16,-0.75,1.0,1.26
3.571876049041748,0.08,-0.8,0.92,1.22
3.5823709964752197,0.04,-0.88,0.9,1.25
3.5917789936065674,-0.01,-1.01,0.88,1.33
3.601793050765991,-0.1,-1.09,0.82,1.36
3.612518072128296,-0.25,-1.22,0.86,1.51
3.649893045425415,-0.35,-1.34,0.8,1.59
3.650158166885376,-0.4,-1.44,0.87,1.72
3.650416135787964,-0.5,-1.45,0.85,1.75
3.6516330242156982,-0.59,-1.36,0.8,1.68
3.661675214767456,-0.65,-1.35,0.73,1.66
3.671696901321411,-0.7,-1.38,0.57,1.64
3.682251214981079,-0.77,-1.23,0.24,1.47
3.6916491985321045,-0.8,-0.87,-0.25,1.2
3.7017529010772705,-0.67,-0.63,-0.62,1.1
3.71232008934021,-0.63,-0.63,-0.6,1.07
3.750562906265259,-0.84,-0.65,-0.59,1.21
3.7508561611175537,-1.06,-0.68,-0.72,1.45
3.7512781620025635,-1.09,-0.92,-0.72,1.59
3.751538038253784,-0.93,-1.34,-0.62,1.74
3.7615110874176025,-0.7,-1.71,-0.71,1.97
3.7714669704437256,-0.5,-1.94,-0.82,2.16
3.782029867172241,-0.64,-2.09,-0.9,2.36
3.7915198802948,-1.47,-2.36,-0.91,2.92
3.8014838695526123,-2.93,-2.72,-1.22,4.17
3.8122541904449463,-3.19,-1.92,-1.98,4.21
3.850102186203003,-1.22,-1.32,-1.55,2.37
3.850364923477173,0.52,0.78,0.31,0.98
3.850641965866089,4.04,5.09,3.2,7.24
3.8512918949127197,8.86,9.59,5.37,14.11
3.8613169193267822,7.38,9.15,2.4,11.99
3.87135910987854,0.18,1.84,-1.01,2.1
3.8821280002593994,-1.75,-1.96,-3.01,3.99
3.8913490772247314,-4.16,-2.39,-2.34,5.33
3.90149188041687,-5.33,-1.75,-2.02,5.96
3.9120891094207764,-4.55,-0.79,-1.42,4.83
3.9481780529022217,-3.99,-0.42,-0.98,4.13
3.948456048965454,-3.13,0.06,-0.77,3.22
3.948728084564209,-2.12,0.05,-1.89,2.84
3.9511170387268066,-1.08,0.08,-2.95,3.14
3.961203098297119,0.04,0.64,-3.06,3.12
3.971219062805176,0.76,1.01,-2.09,2.44
3.981779098510742,1.11,0.87,-1.22,1.86
3.991223096847534,0.63,0.5,-0.8,1.13
4.001280069351196,-0.88,0.15,-0.68,1.12
4.012064218521118,-2.21,0.12,-1.08,2.46
4.048405885696411,-2.43,0.43,-1.41,2.84
4.048682928085327,-1.39,0.58,-1.64,2.22
4.048951864242554,-0.08,0.38,-1.74,1.78
4.05099892616272,0.83,0.15,-1.51,1.72
4.061086893081665,0.56,0.08,-1.3,1.41
4.070960998535156,-0.08,-0.04,-0.49,0.49
4.081713914871216,0.04,0.01,0.4,0.4
4.090996026992798,0.21,0.26,1.0,1.05
4.10115909576416,0.13,0.2,1.15,1.17
4.111860036849976,0.13,0.04,1.28,1.28
4.150161027908325,0.08,0.05,1.07,1.07
4.150614976882935,-0.12,0.16,0.64,0.67
4.150869131088257,0.04,0.16,0.45,0.47
4.151134014129639,0.49,0.28,0.55,0.78
4.16093897819519,0.72,0.27,0.69,1.03
4.170819997787476,0.75,0.07,0.73,1.04
4.1815102100372314,0.56,-0.13,0.71,0.91
4.1910560131073,0.38,-0.22,0.66,0.79
4.200989007949829,0.42,-0.23,0.57,0.74
4.211804151535034,0.78,-0.05,0.73,1.06
4.249497175216675,1.07,0.23,0.85,1.38
4.249774217605591,1.19,0.57,0.91,1.6
4.250070095062256,1.37,0.96,1.36,2.15
4.25079607963562,1.86,1.07,1.71,2.74
4.2608349323272705,2.62,0.88,2.12,3.48
4.270637035369873,3.17,0.43,2.14,3.84
4.2813661098480225,3.42,0.24,1.91,3.92
4.290719032287598,3.14,0.64,1.6,3.58
4.300718069076538,2.59,1.39,1.48,3.29
4.311599016189575,2.33,1.98,1.85,3.57
4.349632978439331,2.39,2.32,2.49,4.15
4.349931001663208,2.85,2.61,3.03,4.91
4.350387096405029,3.44,2.84,3.53,5.68
4.350658178329468,4.02,3.01,3.77,6.27
4.360611200332642,4.88,3.39,4.02,7.17
4.370704889297485,5.78,3.77,4.28,8.12
4.3812150955200195,6.48,4.14,4.74,9.03
4.390661001205444,6.76,5.18,5.49,10.13
4.40074896812439,6.69,7.08,6.03,11.45
4.411474943161011,6.35,9.58,6.11,13.01
4.446791887283325,4.99,12.23,6.41,14.68
4.447089910507202,3.6,14.71,7.46,16.88
4.447371006011963,3.25,14.88,7.6,17.02
4.450403928756714,4.03,12.58,5.3,14.23
4.460464000701904,5.38,10.72,3.13,12.39
4.470746994018555,4.67,11.4,2.16,12.5
4.481081008911133,1.69,14.28,-0.1,14.38
4.490509033203125,0.71,15.09,-1.89,15.22
4.50052809715271,0.09,11.85,-1.34,11.92
4.511331081390381,-2.82,7.23,-0.98,7.82
4.547688007354736,-5.42,4.1,-5.55,8.77
4.547978162765503,-4.97,3.57,-4.9,7.83
4.548263072967529,-3.93,5.21,-2.76,7.08
4.5502769947052,-0.33,7.11,-3.02,7.73
4.560326099395752,2.39,5.8,-1.25,6.39
4.570600986480713,3.22,1.63,1.37,3.86
4.580999135971069,3.95,-1.71,2.07,4.77
4.5903661251068115,3.7,-3.56,1.52,5.35
4.6004040241241455,2.83,-4.24,0.6,5.13
4.611185073852539,2.18,-3.7,0.04,4.29
4.64922308921814,2.06,-2.9,-0.19,3.56
4.649564027786255,1.65,-3.46,-0.52,3.86
4.6500489711761475,1.05,-5.08,-0.15,5.18
4.65033221244812,0.83,-6.33,0.47,6.4
4.660143136978149,0.87,-6.85,0.8,6.95
4.670521974563599,1.06,-7.05,0.74,7.16
4.680873155593872,0.96,-7.39,0.36,7.46
4.690136194229126,0.67,-8.04,0.04,8.06
4.700300931930542,0.63,-8.73,-0.21,8.75
4.711112022399902,0.76,-9.3,-0.13,9.33
4.72031307220459,0.57,-9.74,-0.07,9.75
4.747629880905151,0.11,-10.12,-0.03,10.12
4.747951984405518,-0.26,-10.53,0.18,10.53
4.749984979629517,-0.74,-10.82,0.28,10.84
4.759979963302612,-1.46,-10.87,0.1,10.96
4.770108938217163,-2.71,-10.46,-0.44,10.81
4.780689001083374,-4.4,-9.55,-1.81,10.66
4.790036916732788,-6.13,-8.73,-3.61,11.26
4.800141096115112,-6.86,-7.98,-5.48,11.86
4.810971021652222,-6.82,-6.68,-6.68,11.65
4.8201210498809814,-6.8,-4.75,-6.65,10.63
4.848167181015015,-6.99,-1.83,-6.3,9.58
4.8484790325164795,-7.58,2.4,-7.25,10.76
4.849969148635864,-8.63,6.37,-8.56,13.72
4.859907865524292,-9.69,6.87,-8.29,14.48
4.8698570728302,-9.42,3.99,-6.27,11.99
4.880569219589233,-8.03,0.73,-4.81,9.38
4.889911890029907,-6.11,-1.17,-4.25,7.53
4.899947881698608,-4.52,-1.41,-4.63,6.62
4.910846948623657,-2.23,2.15,-5.01,5.89
4.9199059009552,1.38,5.94,-2.79,6.7
4.94996190071106,6.69,8.69,1.26,11.03
4.950403928756714,18.24,22.5,15.79,32.98
4.9507129192352295,13.3,18.07,8.9,24.13
4.9598400592803955,-2.56,0.49,3.52,4.37
4.969714879989624,-6.74,-6.16,1.15,9.2
4.980562925338745,-8.52,-6.91,-0.81,10.99
4.9897119998931885,-8.56,-3.83,-5.81,11.03
4.999780893325806,-7.96,0.23,-9.88,12.68
5.010596036911011,-8.3,2.87,-9.0,12.57
5.019756078720093,-5.81,3.88,-6.44,9.5
5.049793004989624,-3.21,1.18,-6.37,7.23
5.050123929977417,-3.03,-1.74,-5.45,6.47
5.0504539012908936,-3.42,-1.13,-3.66,5.13
5.0596301555633545,-3.3,1.19,-1.85,3.96
5.069648027420044,-2.14,2.47,-1.22,3.48
5.080360174179077,-0.76,1.94,-0.28,2.1
5.089592218399048,0.69,0.88,0.3,1.15
5.099815130233765,2.2,0.28,0.76,2.34
5.110640048980713,3.05,0.08,0.68,3.12
5.119652032852173,2.57,-0.36,-0.69,2.68
5.1504740715026855,0.78,-0.95,-1.94,2.29
5.150803089141846,-0.93,-1.14,-1.72,2.26
5.151128053665161,-1.32,-1.04,-0.68,1.81
5.1593711376190186,-0.28,-0.64,0.24,0.73
5.169339895248413,0.83,-0.08,0.92,1.24
5.180174112319946,0.9,0.35,1.48,1.76
5.189450025558472,0.4,0.6,1.48,1.64
5.199405908584595,-0.01,0.64,1.13,1.29
5.210551977157593,0.01,0.59,1.0,1.16
5.219381093978882,0.31,0.58,0.8,1.03
5.250396013259888,0.68,0.65,0.49,1.06
5.250741004943848,1.16,0.73,0.37,1.41
5.251067876815796,1.47,0.67,0.48,1.68
5.259227991104126,1.66,0.26,0.83,1.87
5.269261121749878,1.91,-0.44,1.22,2.3
5.280058145523071,2.07,-1.02,1.37,2.68
5.289366006851196,2.26,-1.1,1.13,2.75
5.2994911670684814,2.27,-0.52,0.85,2.47
5.310388088226318,2.26,0.24,0.67,2.36
5.3193440437316895,2.36,0.68,0.56,2.51
5.350053071975708,2.25,0.67,0.76,2.46
5.350360155105591,2.14,0.48,1.05,2.43
5.350666046142578,1.82,0.85,1.65,2.59
5.3590850830078125,1.71,1.62,2.37,3.34
5.369105100631714,2.12,2.18,2.56,3.97
5.37987494468689,2.61,2.62,2.62,4.53
5.3890910148620605,3.11,2.81,2.7,4.98
5.3991858959198,3.79,2.8,2.6,5.38
5.410192012786865,4.29,2.8,2.71,5.79
5.419233083724976,4.91,2.76,2.93,6.34
5.450193166732788,5.65,2.76,3.02,6.97
5.450520038604736,6.23,2.88,3.58,7.74
5.450846910476685,6.46,3.19,4.04,8.26
5.458966016769409,6.3,3.94,4.89,8.89
5.468957185745239,6.47,5.49,5.45,10.08
5.479794025421143,7.42,8.52,4.44,12.13
5.489325046539307,8.39,11.91,5.06,15.42
5.49944806098938,8.19,13.75,5.92,17.06
5.51007604598999,6.9,14.38,5.76,16.95
5.518986940383911,4.4,13.75,5.07,15.3
5.549117088317871,2.23,11.98,3.29,12.62
5.549445867538452,1.52,10.47,0.06,10.57
5.5497729778289795,1.76,10.66,-1.45,10.9
5.558788061141968,2.14,11.79,-1.15,12.03
5.568903207778931,1.98,10.88,-1.78,11.2
5.579639196395874,1.67,7.97,-1.65,8.3
5.588740110397339,-0.72,5.47,-0.41,5.53
5.598891019821167,-4.26,3.6,-3.95,6.83
5.609881162643433,-5.12,2.58,-5.2,7.74
5.618836164474487,-3.48,3.43,-3.66,6.1
5.651458978652954,-0.5,4.2,-2.99,5.17
5.651787996292114,1.13,2.66,-1.05,3.07
5.652112007141113,1.23,-0.06,0.94,1.54
5.658643007278442,1.22,-2.43,1.29,3.0
5.668627023696899,1.66,-3.33,0.6,3.76
5.679490089416504,1.59,-2.97,-0.46,3.4
5.688582181930542,0.44,-2.42,-1.91,3.11
5.698712110519409,-0.91,-2.61,-2.32,3.6
5.709728002548218,-1.61,-3.59,-1.5,4.21
5.718857049942017,-1.78,-4.78,-0.92,5.18
5.750699996948242,-1.43,-5.65,-0.78,5.88
5.751042127609253,-0.52,-6.16,-0.44,6.19
5.751368999481201,0.57,-6.5,0.07,6.52
5.758517026901245,1.34,-6.95,0.49,7.09
5.768465995788574,1.57,-7.62,0.69,7.81
5.779340028762817,1.44,-8.43,0.76,8.58
5.788624048233032,1.04,-9.19,0.77,9.28
5.798575162887573,0.54,-10.05,0.85,10.1
5.809702157974243,0.05,-10.86,1.14,10.91
5.818603992462158,-0.47,-11.41,1.5,11.51
5.851696014404297,-0.63,-11.77,1.77,11.91
5.852035999298096,-0.5,-11.99,1.92,12.15
5.852360963821411,-0.52,-11.95,1.72,12.08
5.858403921127319,-1.49,-11.34,0.74,11.46
5.868334054946899,-3.35,-10.33,-0.97,10.9
5.879154920578003,-5.18,-9.41,-2.64,11.06
5.888714075088501,-5.64,-8.45,-4.28,11.02
5.898398160934448,-5.89,-7.76,-4.98,10.94
5.9093711376190186,-6.89,-6.89,-5.1,10.99
5.918406009674072,-8.35,-5.34,-5.57,11.36
5.951504945755005,-9.51,-3.07,-6.43,11.88
5.951843976974487,-10.02,0.16,-6.48,11.93
5.9521849155426025,-10.04,3.91,-6.18,12.42
5.95830512046814,-8.91,6.41,-6.14,12.57
5.96822714805603,-6.85,5.99,-5.83,10.8
5.979003190994263,-6.0,3.41,-5.73,8.97
5.988715887069702,-4.96,0.48,-4.98,7.04
5.998297929763794,-2.15,-0.39,-3.6,4.21
6.0092689990997314,0.21,0.84,-2.99,3.11
6.018296957015991,2.38,4.91,-2.76,6.11
6.051663160324097,9.62,9.25,0.54,13.35
6.052109956741333,20.48,17.7,13.22,30.12
6.05243706703186,20.81,20.71,18.12,34.5
6.058046102523804,4.86,6.65,6.83,10.7
6.0680201053619385,-5.07,-2.07,0.22,5.48
6.078855991363525,-11.17,-5.21,0.76,12.34
6.088473081588745,-13.62,-4.35,0.02,14.29
6.098067045211792,-12.92,-1.83,-3.77,13.58
6.109163045883179,-8.79,-0.18,-7.23,11.38
6.118055105209351,-3.27,2.38,-7.56,8.57
6.150667905807495,0.13,3.84,-9.72,10.45
6.150996923446655,0.7,2.33,-9.68,9.98
6.151328086853027,-0.2,-0.47,-6.74,6.75
6.157851934432983,-2.41,-1.47,-6.15,6.76
6.167910099029541,-3.52,0.29,-4.26,5.53
6.178729057312012,-2.94,2.09,-3.07,4.73
6.188032865524292,-1.48,2.16,-1.98,3.28
6.197951078414917,-0.15,0.89,-0.42,0.99
6.208968877792358,0.04,-0.23,0.81,0.84
6.217974901199341,-0.02,-0.26,0.97,1.0
6.250581979751587,0.4,-0.21,0.75,0.87
6.250900983810425,0.4,-0.47,0.34,0.7
6.251231908798218,-0.05,-0.49,-0.44,0.66
6.257733106613159,-0.71,-0.43,-1.01,1.3
6.267748117446899,-1.32,-0.37,-1.24,1.84
6.278601884841919,-1.45,-0.29,-0.93,1.74
6.287694215774536,-1.16,0.01,-0.49,1.25
6.297800064086914,-0.78,0.33,0.03,0.84
6.3089001178741455,-0.4,0.52,0.45,0.79
6.317858934402466,0.24,0.54,0.77,0.97
6.35056209564209,0.87,0.48,0.96,1.38
6.350894212722778,1.38,0.43,0.83,1.66
6.351215124130249,1.5,0.3,0.63,1.65
6.3574841022491455,0.92,0.13,0.3,0.97
6.367616891860962,0.12,0.03,0.22,0.25
6.37841010093689,-0.16,-0.04,0.56,0.58
6.3876001834869385,0.3,-0.09,1.12,1.16
6.397639036178589,1.57,-0.13,1.39,2.1
6.408688068389893,2.98,-0.22,1.46,3.32
6.417633056640625,4.46,-0.24,1.88,4.84
6.450546026229858,5.61,0.02,1.78,5.88
6.450876951217651,5.86,0.33,1.44,6.04
6.451202154159546,5.3,0.5,1.46,5.52
6.457452058792114,4.31,0.49,1.75,4.67
6.467442989349365,3.17,0.44,1.94,3.74
6.478111028671265,2.32,0.63,1.87,3.04
6.487489938735962,2.18,1.13,1.68,2.97
6.497495889663696,2.22,1.77,1.32,3.13
6.508665084838867,2.11,2.39,1.4,3.48
6.517464876174927,2.26,3.23,2.05,4.44
6.55118203163147,2.85,3.98,3.78,6.18
6.551516056060791,3.64,3.26,3.44,5.97
6.55184006690979,4.31,3.06,3.46,6.31
6.557236909866333,4.65,3.01,3.97,6.81
6.56731390953064,5.47,2.99,3.7,7.24
6.57811713218689,6.03,3.22,3.86,7.85
6.587274074554443,6.25,3.41,4.47,8.4
6.5973241329193115,6.3,3.85,4.86,8.83
6.608318090438843,5.76,5.03,5.15,9.21
6.6174890995025635,6.39,7.4,5.49,11.21
6.650578022003174,8.73,10.5,4.41,14.34
6.65092396736145,8.59,12.5,4.19,15.73
6.651253938674927,5.96,13.64,4.01,15.41
6.657127141952515,3.52,13.75,2.48,14.4
6.6670989990234375,2.16,11.81,0.23,12.0
6.677900075912476,2.18,9.6,-1.53,9.96
6.68709397315979,3.43,9.93,-3.1,10.95
6.6971728801727295,3.79,11.57,-4.35,12.92
6.708353042602539,3.54,11.08,-5.23,12.75
6.717212915420532,1.68,8.11,-4.89,9.61
6.751360177993774,-2.08,5.33,-6.2,8.43
6.751702070236206,-4.4,2.9,-8.78,10.24
6.752009153366089,-4.4,1.88,-6.85,8.35
6.756973028182983,-2.25,2.73,-5.29,6.36
6.766948938369751,-0.05,2.51,-4.35,5.02
6.777698993682861,0.39,0.0,-3.04,3.06
6.786978006362915,0.59,-3.01,-1.51,3.41
6.797015905380249,1.44,-4.76,-0.62,5.01
6.807862043380737,2.14,-5.24,-1.3,5.8
6.817036867141724,2.53,-4.98,-2.28,6.03
6.8513429164886475,2.53,-4.62,-2.5,5.83
6.851662874221802,1.99,-4.9,-1.93,5.62
6.851966142654419,1.73,-5.4,-1.01,5.75
6.856812000274658,1.98,-5.55,-0.86,5.95
6.8667991161346436,2.54,-5.71,-0.88,6.31
6.87747597694397,3.25,-6.12,-0.56,6.95
6.88684606552124,3.74,-6.57,-0.18,7.56
6.896828889846802,3.92,-6.99,0.13,8.01
6.907599210739136,3.92,-7.38,0.18,8.35
6.916828870773315,3.65,-7.78,0.11,8.59
6.951024055480957,2.95,-8.24,-0.16,8.75
6.951355218887329,2.01,-8.83,-0.33,9.06
6.951682090759277,1.14,-9.48,-0.39,9.55
6.956616163253784,0.64,-10.03,-0.3,10.05
6.966667890548706,0.6,-10.34,-0.06,10.35
6.977421998977661,0.77,-10.35,0.21,10.38
6.98666787147522,0.74,-10.26,0.25,10.28
6.996809005737305,0.52,-10.12,-0.02,10.13
7.007611036300659,-0.2,-9.88,-0.66,9.9
7.016897916793823,-1.43,-9.3,-1.64,9.55
7.051689863204956,-2.7,-8.32,-2.69,9.15
7.05202317237854,-3.27,-7.01,-3.88,8.65
7.0523841381073,-3.56,-5.63,-4.35,7.95
7.0563719272613525,-4.09,-4.24,-4.56,7.44
7.066652059555054,-4.44,-2.43,-4.94,7.07
7.077154874801636,-4.73,0.17,-5.46,7.22
7.087615013122559,-5.33,3.81,-6.13,8.97
7.096534013748169,-6.19,7.14,-6.71,11.58
7.10728907585144,-6.66,7.45,-6.21,11.76
7.116564989089966,-6.85,5.45,-5.28,10.22
7.15247106552124,-6.75,3.05,-5.29,9.1
7.1528000831604,-5.53,1.82,-4.99,7.66
7.153126955032349,-3.56,1.6,-5.0,6.34
7.156376123428345,-1.56,3.45,-4.36,5.77
7.166406869888306,1.33,6.92,-1.5,7.2
7.177111864089966,4.78,5.03,2.45,7.35
7.18633508682251,9.1,8.55,8.71,15.22
7.196453094482422,12.71,14.3,15.75,24.78
7.2075159549713135,5.38,5.15,11.85,13.99
7.216448068618774,-3.17,-0.79,5.44,6.34
7.251289129257202,-7.5,-1.96,0.67,7.78
7.251622915267944,-8.76,-2.28,-2.63,9.42
7.251954078674316,-7.63,-2.27,-5.5,9.67
7.256242036819458,-5.57,-0.93,-7.06,9.04
7.266296148300171,-2.84,0.91,-8.87,9.35
7.2770349979400635,-0.67,1.28,-9.13,9.24
7.286405086517334,-0.36,-0.33,-7.72,7.73
7.296331167221069,-0.23,-1.82,-7.38,7.6
7.3074681758880615,-1.28,-0.95,-4.58,4.84
7.316349029541016,-2.25,1.09,-0.34,2.52
7.351696014404297,-0.82,2.58,-0.65,2.78
7.35204005241394,1.47,1.88,-0.52,2.44
7.352368116378784,2.71,0.34,0.41,2.76
7.356304883956909,1.79,-0.09,0.69,1.92
7.366205930709839,-0.14,-0.02,-0.53,0.54
7.376728057861328,-2.22,-0.16,-2.58,3.4
7.3859031200408936,-4.12,-0.14,-3.48,5.39
7.396135091781616,-5.04,0.12,-2.92,5.82
7.4341089725494385,-4.04,0.27,-2.14,4.57
7.434423208236694,-1.87,0.14,-0.76,2.02
7.434729099273682,-0.13,0.13,0.27,0.32
7.4359471797943115,0.45,0.14,0.44,0.64
7.445842027664185,-0.09,0.01,0.34,0.35
7.456312894821167,-0.79,-0.11,0.23,0.83
7.465801954269409,-1.02,-0.15,0.03,1.03
7.478272199630737,-0.84,-0.13,-0.08,0.85
7.485962152481079,-0.5,0.01,-0.14,0.51
7.496885061264038,-0.04,0.23,-0.02,0.23
7.53547215461731,0.42,0.32,0.11,0.53
7.535782098770142,1.03,0.36,0.54,1.21
7.536082983016968,1.42,0.44,0.78,1.67
7.5363850593566895,1.56,0.41,1.13,1.96
7.545769929885864,1.89,0.29,1.4,2.36
7.5561559200286865,2.25,0.19,1.34,2.62
7.565741062164307,2.33,0.0,1.18,2.61
7.576541185379028,2.16,-0.21,1.0,2.38
7.585721015930176,2.06,-0.12,0.69,2.17
7.595830202102661,2.04,0.23,0.13,2.05
7.634231090545654,1.94,0.61,0.11,2.03
7.634538888931274,1.48,0.78,0.67,1.8
7.634860992431641,1.1,0.36,0.89,1.46
7.635585069656372,1.43,0.31,1.28,1.94
7.645582914352417,1.74,0.59,1.55,2.4
7.655557870864868,1.93,0.86,1.83,2.79
7.6656410694122314,2.4,1.04,1.74,3.14
7.676445007324219,2.45,1.29,1.59,3.19
7.685660123825073,2.15,1.46,1.45,2.97
7.6957361698150635,2.13,1.54,1.33,2.94
7.735720872879028,2.32,1.72,1.11,3.09
7.736034154891968,2.73,1.96,1.23,3.57
7.7363340854644775,3.19,2.1,1.53,4.11
7.73663592338562,3.67,2.24,1.79,4.65
7.745460033416748,4.27,2.93,2.19,5.62
7.755439043045044,4.95,4.09,2.98,7.07
7.765491008758545,5.62,5.88,3.2,8.74
7.776236057281494,6.89,8.68,4.11,11.81
7.785545110702515,8.4,10.92,5.51,14.83
7.796022176742554,8.63,11.5,6.66,15.84
7.835095167160034,7.86,11.58,7.89,16.06
7.835530042648315,7.0,11.55,8.56,15.98
7.8358330726623535,6.15,10.45,8.2,14.63
7.836137056350708,5.87,8.78,6.1,12.19
7.845310926437378,5.88,7.55,2.05,9.78
7.855277061462402,4.56,7.23,-1.48,8.67
7.865312099456787,2.19,8.95,-3.68,9.92
7.876073122024536,0.32,11.14,-5.09,12.25
7.885329961776733,-0.38,10.26,-4.58,11.24
7.895302057266235,-1.81,6.64,-2.78,7.42
7.934953927993774,-3.72,3.82,-4.32,6.86
7.935399055480957,-3.71,1.99,-5.08,6.59
7.935702085494995,-2.5,2.36,-3.78,5.1
7.93600606918335,-0.02,4.13,-3.52,5.42
7.9451470375061035,2.06,3.91,-3.19,5.45
7.9551920890808105,3.06,1.5,-2.73,4.36
7.965082883834839,3.89,-0.96,-2.26,4.6
7.9758620262146,4.61,-2.85,-1.68,5.67
7.9852211475372314,4.8,-3.93,-1.18,6.31
7.995174169540405,3.63,-4.09,-1.76,5.74
8.035832166671753,1.93,-3.97,-2.08,4.87
8.036594152450562,0.69,-4.05,-1.5,4.37
8.036904096603394,0.15,-4.17,-0.84,4.25
8.037205934524536,0.31,-4.49,-0.24,4.5
8.044960021972656,1.24,-4.98,0.27,5.13
8.055082082748413,2.45,-5.46,0.53,6.0
8.065032005310059,3.21,-5.81,0.55,6.66
8.075795888900757,3.31,-6.02,0.37,6.87
8.085004091262817,2.97,-6.27,0.17,6.93
8.095002889633179,2.44,-6.69,0.13,7.12
8.10598111152649,1.85,-7.4,0.15,7.62
8.135172128677368,1.27,-8.28,0.04,8.37
8.135483026504517,0.77,-9.2,-0.14,9.23
8.135788202285767,0.26,-10.03,-0.03,10.03
8.144814014434814,-0.27,-10.66,0.15,10.66
8.154821157455444,-0.74,-11.04,0.12,11.06
8.16487193107605,-1.19,-11.19,-0.27,11.25
8.175724983215332,-1.85,-11.02,-0.79,11.2
8.18485713005066,-2.68,-10.44,-1.31,10.85
8.194881200790405,-3.58,-9.45,-2.57,10.42
8.205849885940552,-3.49,-8.1,-4.41,9.86
8.235097169876099,-3.02,-6.65,-5.21,8.97
8.235436201095581,-3.24,-4.75,-5.31,7.82
8.235740900039673,-3.73,-1.97,-5.79,7.16
8.24466609954834,-4.32,1.63,-7.07,8.44
8.25471806526184,-5.22,5.74,-8.26,11.33
8.264700174331665,-6.56,9.06,-8.9,14.29
8.27537989616394,-7.86,8.93,-8.83,14.81
8.28468108177185,-8.2,4.92,-8.25,12.62
8.29472804069519,-7.1,0.46,-7.12,10.06
8.305567979812622,-4.38,-2.12,-5.94,7.67
8.335618019104004,-1.39,-1.36,-4.86,5.23
8.33591604232788,1.9,5.13,-1.42,5.65
8.336206197738647,6.73,8.67,2.92,11.35
8.344492197036743,11.0,15.13,12.9,22.72
8.354509115219116,11.34,12.73,16.89,23.99
8.36456298828125,6.73,0.74,10.16,12.2
8.375098943710327,2.57,-2.13,4.3,5.44
8.384647130966187,-1.64,-1.88,-0.34,2.51
8.394582033157349,-4.92,-0.1,-3.95,6.31
8.40539288520813,-5.62,1.22,-8.16,9.98
8.435744047164917,-5.48,0.39,-9.25,10.75
8.436037063598633,-3.58,-0.88,-6.26,7.26
8.436328172683716,0.03,-0.35,-6.17,6.17
8.44431209564209,2.08,0.64,-9.02,9.27
8.454263925552368,0.77,0.49,-6.93,6.98
8.464359998703003,-0.38,0.21,-4.76,4.77
8.474982023239136,-1.28,0.4,-2.71,3.02
8.484348058700562,-2.06,0.82,-0.22,2.22
8.494371175765991,-1.37,1.24,0.36,1.88
8.505214929580688,-0.25,0.92,0.48,1.06
8.535428047180176,-0.05,0.35,0.55,0.65
8.535719156265259,-0.58,0.13,0.11,0.6
8.536004066467285,-1.36,-0.07,-1.1,1.75
8.544135093688965,-2.05,-0.24,-2.15,2.98
8.554063081741333,-2.6,-0.23,-2.61,3.69
8.564273118972778,-2.88,-0.12,-2.35,3.71
8.574903011322021,-2.58,-0.07,-1.54,3.0
8.584249019622803,-1.69,0.01,-0.43,1.74
8.594238996505737,-0.77,0.12,0.35,0.85
8.605107069015503,-0.12,0.18,0.62,0.65
8.635693073272705,0.23,0.21,0.33,0.45
8.635986089706421,0.16,0.14,-0.05,0.21
8.63627004623413,0.06,0.09,-0.22,0.24
8.643977880477905,0.23,0.1,-0.28,0.37
8.654021978378296,0.4,0.05,-0.18,0.44
8.664034128189087,0.67,0.07,0.17,0.69
8.674740076065063,1.02,0.14,0.45,1.12
8.684051990509033,1.52,0.24,0.58,1.64
8.694067001342773,1.88,0.34,0.53,1.98
8.704928159713745,1.78,0.27,0.68,1.92
8.736409902572632,1.53,0.14,0.64,1.66
8.736690998077393,1.5,0.08,0.72,1.66
8.736974000930786,1.91,0.07,0.69,2.03
8.743851900100708,2.24,0.1,0.33,2.26
8.753958940505981,2.12,0.05,0.45,2.16
8.763926982879639,1.93,0.13,0.25,1.95
8.774935007095337,1.47,0.21,0.21,1.49
8.783886194229126,0.91,0.22,0.23,0.96
8.793883085250854,0.84,0.21,0.18,0.88
8.804814100265503,0.98,0.23,0.45,1.1
8.836365938186646,1.2,0.35,0.56,1.36
8.8366539478302,1.23,0.65,0.62,1.52
8.836940050125122,1.16,0.84,0.89,1.68
8.843705892562866,1.17,1.1,1.33,2.08
8.853949069976807,1.29,0.88,1.45,2.13
8.863682985305786,1.74,1.09,1.48,2.53
8.874741077423096,2.18,1.45,1.58,3.05
8.883857011795044,2.93,1.63,1.62,3.72
8.893774032592773,3.72,1.68,1.73,4.43
8.904686212539673,4.31,1.76,1.85,5.0
8.93602204322815,4.74,2.0,2.03,5.53
8.936316013336182,4.98,2.36,2.25,5.95
8.936608076095581,5.15,3.19,2.38,6.5
8.943525075912476,5.39,4.56,2.8,7.59
8.953570127487183,6.11,6.44,3.08,9.39
8.963540077209473,6.97,8.25,4.13,11.56
8.97460389137268,7.18,9.41,5.07,12.87
8.983561992645264,6.96,9.96,5.9,13.5
8.993613004684448,5.9,10.03,6.23,13.19
9.004534006118774,5.37,9.83,5.68,12.55
9.0363130569458,6.4,10.17,2.35,12.24
9.03659200668335,5.32,9.12,0.1,10.55
9.036864042282104,3.68,6.81,0.19,7.74
9.04345703125,3.17,5.66,-1.93,6.76
9.05337405204773,2.66,7.0,-3.76,8.37
9.063402891159058,0.94,9.26,-3.22,9.84
9.074419021606445,-0.52,8.13,-1.8,8.34
9.083453893661499,-1.94,4.43,-0.56,4.86
9.093409061431885,-3.0,1.48,-2.27,4.04
9.104330062866211,-2.48,0.53,-1.22,2.81
9.136373043060303,-1.2,1.73,-0.56,2.17
9.136644124984741,0.79,2.6,-1.07,2.92
9.136916875839233,1.99,1.7,-0.9,2.76
9.143254041671753,2.69,0.1,-1.09,2.9
9.153269052505493,3.4,-1.0,-1.32,3.78
9.163268089294434,3.62,-1.59,-1.1,4.1
9.174218893051147,2.99,-1.99,-0.9,3.7
9.18338418006897,1.84,-2.49,-0.92,3.22
9.193294048309326,0.88,-3.02,-0.72,3.22
9.204287052154541,0.21,-3.3,-0.49,3.34
9.236692190170288,-0.18,-3.34,-0.42,3.37
9.23697304725647,-0.4,-3.5,-0.43,3.54
9.237251043319702,-0.29,-3.93,-0.48,3.96
9.24323296546936,-0.03,-4.32,-0.43,4.34
9.253109216690063,0.32,-4.54,-0.25,4.55
9.263126134872437,0.71,-4.65,-0.03,4.7
9.273776054382324,0.96,-4.85,0.3,4.95
9.28305697441101,1.03,-5.3,0.57,5.42
9.293125867843628,0.95,-5.9,0.77,6.02
9.304059982299805,0.76,-6.44,0.87,6.54
9.336843013763428,0.48,-6.94,0.85,7.0
9.337118864059448,0.15,-7.44,0.89,7.49
9.337387084960938,-0.19,-7.83,1.18,7.92
9.342920064926147,-0.63,-8.05,1.31,8.18
9.352984189987183,-0.8,-8.06,1.3,8.2
9.362905025482178,-0.95,-7.85,1.46,8.04
9.373479127883911,-1.33,-7.26,1.25,7.48
9.383100986480713,-2.06,-6.59,0.84,6.95
9.393115997314453,-2.97,-6.07,-0.05,6.75
9.403784990310669,-3.65,-5.71,-1.26,6.89
9.437892198562622,-4.29,-5.28,-2.03,7.09
9.438180208206177,-4.86,-4.46,-2.54,7.06
9.438464879989624,-5.05,-3.1,-3.13,6.7
9.442848920822144,-5.29,-1.4,-3.75,6.63
9.452831029891968,-5.82,0.15,-4.18,7.16
9.462827920913696,-6.26,1.43,-4.1,7.61
9.473465204238892,-6.07,2.53,-3.73,7.56
9.48275899887085,-5.21,3.48,-3.39,7.12
9.492840051651001,-4.26,4.52,-3.36,7.06
9.503683090209961,-3.8,5.2,-3.72,7.43
9.53789210319519,-4.03,3.81,-3.91,6.78
9.538179159164429,-4.0,1.16,-3.7,5.57
9.538444995880127,-4.0,-1.0,-3.13,5.17
9.542629957199097,-4.47,-1.88,-2.74,5.56
9.552625894546509,-3.42,0.5,-2.9,4.51
9.562687158584595,-0.36,1.92,-1.59,2.51
9.573289155960083,3.82,2.89,1.04,4.9
9.582706212997437,10.93,9.24,8.41,16.6
9.592665910720825,15.16,12.08,12.57,23.1
9.603470087051392,10.15,7.92,7.27,14.78
9.637808084487915,1.27,3.34,1.36,3.82
9.638083219528198,-4.05,-0.54,-0.93,4.19
9.638350009918213,-6.36,-3.15,-2.09,7.39
9.642507076263428,-7.36,-3.42,-3.65,8.89
9.65245509147644,-6.65,-1.52,-5.39,8.69
9.662499189376831,-5.84,1.07,-6.59,8.87
9.673133134841919,-4.87,2.28,-7.14,8.93
9.682610034942627,-3.99,1.06,-5.55,6.91
9.69258999824524,-3.47,-0.6,-4.62,5.8
9.703325033187866,-4.02,-0.87,-4.21,5.88
9.738936185836792,-3.75,0.33,-3.23,4.96
9.739208936691284,-2.59,1.55,-2.7,4.04
9.739480018615723,-1.3,1.65,-1.51,2.58
9.742383003234863,-0.36,0.72,0.13,0.81
9.752290964126587,-0.12,-0.03,1.06,1.06
9.762306928634644,-0.07,-0.03,0.97,0.97
9.772934198379517,0.05,-0.11,0.59,0.6
9.782330989837646,0.23,-0.17,-0.21,0.35
9.792165040969849,0.28,-0.14,-1.15,1.19
9.803153991699219,-0.07,-0.34,-1.47,1.51
9.83838701248169,-0.47,-0.44,-1.2,1.36
9.838653087615967,-0.67,-0.21,-0.57,0.9
9.838916063308716,-0.82,0.11,-0.15,0.84
9.842182874679565,-0.95,0.2,0.11,0.97
9.852082967758179,-0.68,0.22,0.52,0.88
9.86217188835144,0.18,0.26,0.84,0.89
9.872699975967407,1.2,0.22,0.72,1.41
9.8821861743927,1.87,0.14,0.43,1.92
9.89214015007019,1.95,0.18,0.3,1.98
9.902971982955933,1.51,0.21,0.23,1.54
9.938289880752563,0.84,0.22,0.45,0.97
9.938544988632202,0.5,0.26,0.8,0.97
9.938801050186157,0.75,0.15,1.17,1.39
9.94191598892212,1.33,-0.2,1.38,1.92
9.95193886756897,1.96,-0.53,1.19,2.35
9.961984872817993,2.52,-0.65,1.26,2.89
9.972564935684204,3.05,-0.41,1.3,3.34
9.982022047042847,3.22,-0.03,0.93,3.35
9.99197006225586,2.73,0.14,0.73,2.82
10.002832174301147,1.85,0.2,0.62,1.96
10.038279056549072,1.12,0.22,0.65,1.31
10.038599014282227,0.86,0.28,0.81,1.21
10.03889012336731,0.99,0.43,1.05,1.5
10.041752099990845,1.38,0.65,1.32,2.01
10.05186915397644,1.79,0.82,1.28,2.34
10.061830043792725,2.02,1.1,1.3,2.64
10.072391986846924,2.08,1.53,1.55,3.01
10.0818932056427,2.22,1.95,2.18,3.67
10.091844081878662,2.3,2.22,2.84,4.27
10.102690935134888,2.83,2.27,2.98,4.69
10.1389000415802,3.52,2.34,2.98,5.17
10.139147996902466,4.1,2.34,3.31,5.76
10.139411211013794,4.73,2.46,3.62,6.44
10.141738176345825,5.04,2.8,3.74,6.87
10.15168809890747,5.16,3.87,3.59,7.38
10.161657094955444,5.4,6.04,3.07,8.66
10.172333002090454,5.94,8.76,4.18,11.37
10.181748151779175,5.72,10.16,6.65,13.42
10.191970109939575,6.34,10.75,7.27,14.44
10.202437162399292,7.04,11.38,5.88,14.61
10.239314079284668,5.84,11.27,6.04,14.05
10.239590883255005,3.12,12.49,4.72,13.71
10.239850997924805,1.48,13.49,1.24,13.62
10.24183702468872,0.28,10.19,-2.35,10.46
10.251535177230835,-0.1,6.92,-3.14,7.59
10.261568069458008,0.33,7.53,-3.52,8.31
10.272087097167969,0.66,8.79,-2.83,9.25
10.281550168991089,1.12,7.44,-1.03,7.59
10.291889905929565,-0.07,4.33,1.09,4.46
10.302265882492065,-3.1,1.75,-0.07,3.56
10.339137077331543,-3.82,0.2,-1.9,4.27
10.339399099349976,-3.02,1.41,-0.82,3.43
10.33965802192688,-0.91,3.86,-0.84,4.05
10.341679096221924,0.84,4.23,-0.62,4.35
10.351361989974976,1.32,2.25,0.6,2.67
10.36155104637146,1.6,0.03,1.44,2.15
10.372014045715332,1.64,-1.61,1.36,2.67
10.381446123123169,1.65,-2.82,1.2,3.48
10.391824960708618,1.11,-3.78,0.88,4.03
10.402191877365112,0.07,-4.26,0.75,4.32
10.440222024917603,-0.97,-4.48,0.91,4.67
10.440502882003784,-1.62,-4.69,0.88,5.03
10.440945863723755,-1.61,-4.95,0.76,5.26
10.441263914108276,-1.15,-5.26,0.71,5.43
10.451219081878662,-0.36,-5.66,1.08,5.77
10.461212873458862,0.41,-6.14,1.6,6.35
10.471809148788452,0.94,-6.57,1.99,6.92
10.481276035308838,1.26,-6.98,2.34,7.46
10.491214036941528,1.36,-7.49,2.57,8.03
10.501878023147583,1.36,-8.15,2.72,8.69
10.539391994476318,1.01,-9.09,2.67,9.52
10.539654970169067,0.22,-10.06,2.66,10.4
10.539915084838867,-0.55,-10.81,2.83,11.18
10.540880918502808,-1.17,-11.08,2.89,11.51
10.550961017608643,-1.65,-11.04,2.84,11.51
10.56108021736145,-2.01,-10.77,2.87,11.32
10.57172417640686,-2.55,-10.18,2.22,10.72
10.581119060516357,-3.98,-9.38,1.22,10.26
10.590914011001587,-5.89,-8.6,-0.67,10.44
10.601891994476318,-6.06,-7.77,-2.85,10.25
10.640864133834839,-6.11,-7.05,-3.8,10.07
10.641134977340698,-6.48,-5.76,-4.37,9.7
10.641399145126343,-6.23,-3.54,-4.34,8.37
10.641999959945679,-6.26,-0.36,-4.82,7.9
10.650963068008423,-6.3,3.91,-5.4,9.17
10.661020040512085,-6.53,8.0,-5.92,11.9
10.671560049057007,-6.07,7.88,-5.55,11.39
10.680970907211304,-5.1,3.91,-4.08,7.61
10.690937042236328,-3.65,1.1,-3.67,5.29
10.701794862747192,-1.86,1.49,-3.51,4.24
10.740226984024048,-0.91,3.3,-3.62,4.98
10.740671873092651,-1.0,3.11,-3.79,5.0
10.74093508720398,-0.89,3.39,-2.88,4.53
10.741195917129517,2.07,4.28,-2.48,5.36
10.750818014144897,6.31,4.2,0.37,7.58
10.760775089263916,12.28,11.09,9.47,19.06
10.771313905715942,9.14,12.02,12.53,19.62
10.78097414970398,4.45,6.3,5.09,9.24
10.790777921676636,-1.69,2.13,1.13,2.94
10.801578998565674,-8.38,0.23,0.47,8.39
10.841278076171875,-10.91,-0.38,-1.12,10.97
10.841551065444946,-9.1,-0.06,-1.88,9.29
10.842166185379028,-5.6,0.26,-2.87,6.29
10.842427968978882,-2.25,0.24,-3.05,3.79
10.850608110427856,0.06,-0.07,-3.9,3.9
10.860634088516235,2.48,0.79,-7.07,7.53
10.871232032775879,0.81,1.86,-8.0,8.25
10.880664110183716,-2.94,1.54,-7.0,7.74
10.890783071517944,-3.68,0.2,-3.46,5.05
10.901396036148071,-4.32,-0.43,-2.15,4.84
10.940917015075684,-4.21,0.5,-0.92,4.33
10.941184043884277,-3.51,1.38,0.32,3.78
10.941426038742065,-2.77,1.38,0.62,3.15
10.94168496131897,-1.39,0.82,0.8,1.8
10.950520992279053,0.28,0.35,0.85,0.96
10.960469007492065,1.47,0.16,0.22,1.49
10.971089124679565,2.02,-0.18,-0.48,2.08
10.980826139450073,2.02,-0.49,-0.8,2.22
10.990509033203125,1.66,-0.34,-1.03,1.98
11.001192092895508,1.07,-0.09,-1.21,1.61
11.041823148727417,0.66,-0.06,-0.92,1.13
11.042087078094482,0.54,-0.08,-0.5,0.74
11.042346000671387,0.88,-0.03,0.16,0.89
11.042603015899658,1.69,-0.12,1.16,2.05
11.050339937210083,2.66,-0.3,2.1,3.4
11.060291051864624,3.59,-0.33,2.86,4.6
11.070872068405151,4.19,-0.2,3.2,5.27
11.080339193344116,4.31,-0.14,3.17,5.35
11.0903480052948,4.07,-0.23,2.58,4.82
11.10102915763855,3.19,-0.51,1.54,3.57
11.141824960708618,2.17,-0.72,1.07,2.52
11.142422914505005,1.38,-0.64,0.57,1.62
11.142689943313599,0.99,-0.52,0.38,1.18
11.142954111099243,1.1,-0.46,0.03,1.19
11.150182008743286,1.21,-0.53,-0.21,1.33
11.16015100479126,1.07,-0.47,0.1,1.17
11.17077088356018,0.72,-0.33,0.2,0.81
11.180115938186646,0.36,-0.24,0.4,0.58
11.190154075622559,0.17,-0.08,0.54,0.57
11.200927972793579,0.48,0.08,0.74,0.88
11.24266505241394,0.97,0.12,0.82,1.27
11.24293303489685,1.31,0.11,0.89,1.58
11.243191957473755,1.7,-0.01,0.88,1.91
11.243449926376343,1.87,-0.34,0.65,2.0
11.250043153762817,1.53,-0.3,0.53,1.64
11.259895086288452,1.0,0.1,0.72,1.23
11.270562887191772,0.82,0.69,0.84,1.36
11.279960870742798,0.82,1.1,1.35,1.92
11.290138006210327,1.14,1.29,1.37,2.2
11.30075192451477,1.59,1.52,1.54,2.68
11.342205047607422,2.12,1.9,2.1,3.53
11.342466115951538,3.1,2.12,2.32,4.41
11.342724084854126,3.7,2.11,2.92,5.16
11.34300708770752,4.22,2.27,3.8,6.11
11.349868059158325,4.78,2.82,4.32,7.03
11.359770059585571,5.36,4.17,4.46,8.12
11.370422124862671,6.04,6.51,5.03,10.2
11.37988018989563,6.33,8.98,6.43,12.73
11.389899969100952,5.79,10.71,7.42,14.25
11.400642156600952,4.36,12.42,8.64,15.74
11.443520069122314,3.28,13.62,9.51,16.93
11.44379210472107,4.97,13.06,7.64,15.92
11.44405198097229,5.4,10.36,4.62,12.56
11.444313049316406,4.81,7.73,3.19,9.64
11.449692964553833,4.58,7.51,0.84,8.83
11.459649085998535,2.52,10.51,-1.59,10.92
11.470311880111694,-0.97,14.42,-5.17,15.34
11.479697942733765,-1.85,13.96,-6.33,15.43
11.489699125289917,-1.0,9.18,-4.31,10.19
11.500428915023804,-1.65,4.51,-2.13,5.25
11.543139219284058,-3.48,1.15,-3.91,5.35
11.543402910232544,-3.18,0.26,-4.82,5.78
11.543668985366821,-1.82,2.4,-3.34,4.49
11.543926000595093,1.03,4.16,-2.87,5.15
11.54973292350769,2.57,2.9,-1.66,4.21
11.559537172317505,2.51,-0.26,-0.1,2.52
11.570152044296265,2.38,-3.02,0.61,3.89
11.57959508895874,3.32,-4.07,0.97,5.34
11.589644193649292,3.83,-4.02,0.05,5.55
11.600355863571167,2.91,-4.01,-1.11,5.07
11.643873929977417,1.81,-4.22,-0.74,4.65
11.644154071807861,1.07,-4.42,0.24,4.55
11.644415140151978,0.62,-4.85,0.63,4.92
11.644673109054565,0.71,-5.53,0.65,5.61
11.649374008178711,1.27,-6.09,0.75,6.26
11.659564018249512,1.89,-6.42,0.92,6.75
11.670023202896118,2.24,-6.74,1.14,7.19
11.679359197616577,2.25,-7.27,1.15,7.69
11.68933892250061,2.04,-8.04,1.03,8.35
11.700163125991821,1.72,-8.93,1.06,9.15
11.743805170059204,1.45,-9.69,1.16,9.86
11.74406909942627,1.22,-10.24,1.34,10.39
11.744328022003174,0.85,-10.68,1.54,10.82
11.744587182998657,0.38,-11.03,1.6,11.15
11.749165058135986,-0.36,-11.16,1.66,11.28
11.75965404510498,-1.45,-10.63,0.95,10.77
11.769845008850098,-3.04,-9.65,-0.29,10.12
11.779232025146484,-4.21,-8.7,-2.12,9.89
11.789239168167114,-3.98,-7.99,-3.82,9.7
11.799999952316284,-4.05,-7.73,-3.82,9.52
11.844384908676147,-4.9,-6.8,-3.84,9.21
11.844652891159058,-5.27,-4.8,-4.28,8.31
11.844913005828857,-5.57,-1.89,-4.97,7.7
11.845170021057129,-6.42,1.55,-5.15,8.37
11.849068880081177,-7.12,5.26,-5.64,10.49
11.859490156173706,-7.62,7.6,-6.33,12.48
11.869642972946167,-7.82,6.23,-6.01,11.66
11.879112958908081,-7.43,3.3,-5.6,9.87
11.889110088348389,-6.54,1.38,-6.1,9.04
11.899865865707397,-4.97,0.93,-5.62,7.55
11.943850040435791,-2.61,1.85,-5.04,5.96
11.945029973983765,-0.46,2.53,-4.36,5.06
11.945296049118042,1.09,3.42,-3.12,4.75
11.945555925369263,4.78,5.4,0.24,7.21
11.949023008346558,8.17,5.68,3.73,10.62
11.959015130996704,13.13,9.41,12.23,20.26
11.969511985778809,11.3,8.38,15.73,21.1
11.97896409034729,4.96,3.2,8.44,10.29
11.988861083984375,0.28,0.66,3.08,3.16
11.99971318244934,-4.58,0.85,-0.42,4.67
12.008915185928345,-8.05,1.8,-2.91,8.74
12.044774055480957,-9.23,1.35,-4.34,10.28
12.045047998428345,-7.6,-0.23,-4.71,8.94
12.045309066772461,-4.69,-1.58,-4.95,6.99
12.04892086982727,-1.67,-1.8,-5.9,6.39
12.058931112289429,1.07,0.26,-7.49,7.57
12.069356203079224,0.14,2.55,-8.81,9.17
12.07875108718872,-2.49,2.44,-6.88,7.71
12.088715076446533,-3.01,0.56,-3.13,4.37
12.099517107009888,-3.86,-0.38,-2.24,4.47
12.108815908432007,-4.08,0.43,-1.28,4.29
12.145395994186401,-3.53,1.5,0.02,3.83
12.145662069320679,-2.54,1.6,1.07,3.18
12.145920991897583,-0.71,0.87,1.35,1.75
12.148669958114624,0.78,0.09,0.72,1.06
12.158554077148438,1.42,-0.25,-0.4,1.49
12.169150114059448,1.74,-0.37,-1.27,2.18
12.178729057312012,1.65,-0.54,-1.35,2.19
12.188626050949097,0.87,-0.71,-1.31,1.72
12.199429035186768,-0.3,-0.6,-1.16,1.34
12.208787202835083,-0.95,-0.17,-0.44,1.06
12.246330976486206,-0.68,0.17,0.6,0.92
12.246597051620483,0.42,0.34,1.32,1.42
12.246855020523071,1.62,0.31,1.28,2.08
12.24839186668396,2.11,0.12,0.93,2.3
12.258369207382202,1.98,0.03,0.64,2.08
12.26901888847351,1.62,0.13,0.48,1.69
12.278531074523926,1.28,0.27,0.44,1.38
12.288452863693237,1.18,0.26,0.78,1.43
12.299216985702515,1.25,0.03,1.21,1.73
12.308500051498413,1.71,-0.31,1.72,2.44
12.346069097518921,2.33,-0.65,1.64,2.92
12.346338033676147,2.61,-0.81,1.33,3.03
12.346596002578735,2.7,-0.53,0.74,2.84
12.348361015319824,2.16,-0.02,0.1,2.16
12.358276128768921,1.28,0.36,-0.19,1.34
12.368879079818726,0.74,0.53,-0.17,0.92
12.378314018249512,0.56,0.48,0.26,0.78
12.388321161270142,0.76,0.37,0.79,1.15
12.399111986160278,1.05,0.33,1.11,1.56
12.40836787223816,1.28,0.21,1.37,1.88
12.446229219436646,1.56,0.17,1.41,2.1
12.446490049362183,2.05,0.3,1.68,2.66
12.446747064590454,2.63,0.64,1.83,3.26
12.448188066482544,2.88,1.26,2.21,3.84
12.458117008209229,2.91,1.73,2.74,4.35
12.468780040740967,2.96,1.78,2.32,4.16
12.478097200393677,3.04,2.11,2.32,4.36
12.488142013549805,3.07,2.19,2.49,4.51
12.498908042907715,3.58,2.16,2.38,4.81
12.508122205734253,4.18,2.35,2.66,5.48
12.546623945236206,4.64,2.79,3.11,6.24
12.5468909740448,5.0,3.66,3.41,7.07
12.547148942947388,5.31,5.5,3.74,8.51
12.548026084899902,5.78,8.08,4.83,11.04
12.557972192764282,6.62,10.24,6.94,14.03
12.568631887435913,8.16,11.8,5.97,15.53
12.578577995300293,8.72,12.25,4.81,15.78
12.58846116065979,7.01,12.69,5.52,15.51
12.598669052124023,3.9,13.34,4.46,14.59
12.608160018920898,2.21,11.49,1.87,11.84
12.646667003631592,2.83,8.09,-0.41,8.58
12.646939992904663,3.27,7.29,-2.21,8.28
12.64722990989685,2.23,9.93,-3.73,10.83
12.647886037826538,1.08,11.81,-4.83,12.8
12.657840013504028,0.41,9.49,-3.45,10.1
12.668387174606323,-1.82,5.49,-1.4,5.95
12.677830934524536,-4.32,2.11,-3.88,6.17
12.687798023223877,-4.66,0.19,-4.07,6.19
12.69844102859497,-3.15,1.15,-2.69,4.29
12.707862138748169,-0.34,2.3,-2.12,3.14
12.74758005142212,1.22,1.3,-1.3,2.2
12.747842073440552,1.51,-0.92,-0.34,1.8
12.74810004234314,1.74,-2.9,0.08,3.38
12.748356103897095,2.1,-3.85,0.23,4.39
12.75757908821106,1.9,-3.9,-0.23,4.34
12.768142938613892,0.97,-3.72,-0.9,3.94
12.777566194534302,-0.03,-3.7,-0.54,3.73
12.787622213363647,-0.66,-3.94,0.26,4.0
12.798300981521606,-0.85,-4.63,0.59,4.74
12.807646989822388,-0.54,-5.41,0.63,5.47
12.848176002502441,0.28,-5.89,0.82,5.95
12.848438024520874,1.2,-6.05,1.16,6.27
12.848696947097778,1.72,-6.19,1.31,6.55
12.848953008651733,1.86,-6.52,1.43,6.92
12.857433080673218,1.85,-7.01,1.56,7.41
12.86801791191101,1.66,-7.73,1.69,8.08
12.877413988113403,1.29,-8.65,1.73,8.91
12.887423038482666,0.69,-9.54,1.62,9.7
12.898024082183838,0.06,-10.14,1.52,10.25
12.907572984695435,-0.45,-10.43,1.43,10.53
12.948046922683716,-0.7,-10.48,1.61,10.62
12.948312044143677,-0.87,-10.39,1.71,10.56
12.94858717918396,-1.2,-10.11,1.5,10.29
12.948845148086548,-2.25,-9.37,0.89,9.67
12.957437992095947,-4.15,-8.22,-0.71,9.23
12.96797490119934,-5.04,-6.98,-3.23,9.19
12.977297067642212,-5.33,-6.23,-4.42,9.31
12.987443208694458,-6.04,-5.78,-4.81,9.64
12.998086214065552,-6.66,-4.54,-4.63,9.29
13.007292032241821,-6.83,-2.06,-4.31,8.33
13.04936408996582,-7.18,0.95,-4.4,8.47
13.049628019332886,-7.64,3.63,-4.54,9.59
13.04988694190979,-7.63,4.8,-4.91,10.26
13.050144910812378,-6.92,3.65,-4.55,9.05
13.057250022888184,-6.09,2.4,-3.8,7.56
13.067803144454956,-5.26,1.63,-4.69,7.23
13.077171087265015,-4.32,1.26,-5.86,7.38
13.087313890457153,-3.6,1.37,-6.23,7.32
13.097835063934326,-3.49,2.29,-5.84,7.17
13.107250928878784,-0.84,6.52,-3.59,7.49
13.149363994598389,5.08,8.31,0.19,9.74
13.149633169174194,14.35,15.65,10.97,23.89
13.149894952774048,16.91,17.15,16.69,29.3
13.150153875350952,8.32,5.12,6.41,11.68
13.157034158706665,0.14,-1.64,1.74,2.39
13.167638063430786,-6.56,-3.56,0.25,7.46
13.17729902267456,-9.16,-3.04,-0.5,9.66
13.187036037445068,-9.13,-1.54,-2.84,9.68
13.197789907455444,-7.31,-1.17,-3.61,8.23
13.207143068313599,-3.39,-0.81,-3.02,4.61
13.249939203262329,0.37,0.83,-5.19,5.26
13.250201940536499,0.87,2.03,-9.62,9.87
13.250468015670776,-1.52,1.52,-9.83,10.06
13.25072693824768,-3.17,0.45,-5.71,6.54
13.256821870803833,-3.81,0.29,-4.09,5.59
13.267507076263428,-3.33,0.99,-2.61,4.34
13.27729606628418,-2.17,1.37,-0.07,2.56
13.286965131759644,-1.4,0.94,1.67,2.37
13.297616004943848,-1.0,0.43,1.75,2.06
13.306950092315674,-0.43,0.16,0.95,1.05
13.350577116012573,0.12,0.02,0.14,0.18
13.35084319114685,0.84,0.06,-0.99,1.29
13.351104021072388,0.93,-0.17,-1.56,1.82
13.351361989974976,0.45,-0.64,-1.43,1.63
13.356716871261597,0.02,-0.66,-1.19,1.36
13.367326974868774,-0.74,-0.35,-0.65,1.04
13.377188920974731,-1.23,-0.08,-0.24,1.25
13.386871099472046,-1.06,0.17,0.13,1.08
13.397423028945923,-0.75,0.54,0.42,1.01
13.406842947006226,-0.2,0.67,0.98,1.2
13.450219869613647,0.56,0.67,1.12,1.42
13.450721025466919,1.12,0.64,0.75,1.49
13.450997114181519,1.13,0.51,0.51,1.34
13.45125412940979,0.82,0.33,0.65,1.09
13.45662808418274,0.6,0.1,1.21,1.35
13.467201948165894,0.91,-0.28,1.64,1.89
13.476603031158447,1.82,-0.77,1.9,2.74
13.486613988876343,3.0,-1.19,1.88,3.73
13.497318029403687,4.13,-1.08,1.54,4.53
13.50661587715149,4.58,-0.49,1.04,4.72
13.550734043121338,3.92,-0.02,0.65,3.97
13.550997018814087,2.63,0.12,0.43,2.66
13.551276922225952,1.36,0.15,0.41,1.42
13.551532983779907,0.41,0.19,0.55,0.71
13.556499004364014,0.34,0.29,0.86,0.96
13.567021131515503,0.88,0.31,0.99,1.36
13.576419115066528,1.38,0.17,1.1,1.77
13.586540937423706,1.65,0.07,0.88,1.87
13.597146987915039,1.54,0.24,0.83,1.76
13.606482982635498,0.85,0.75,1.05,1.54
13.651093006134033,0.29,1.35,1.02,1.71
13.65135407447815,0.23,2.12,1.39,2.54
13.65161395072937,0.21,2.71,2.04,3.39
13.651871919631958,0.93,2.52,2.03,3.36
13.656221151351929,1.92,2.22,2.08,3.59
13.666828870773315,2.75,2.17,2.26,4.16
13.676221132278442,3.64,2.51,2.46,5.05
13.686256170272827,4.41,2.84,2.64,5.87
13.696955919265747,5.1,3.8,3.24,7.13
13.70634388923645,5.87,5.68,3.51,8.89
13.751652956008911,6.59,7.7,4.98,11.29
13.75191617012024,6.77,8.68,6.81,12.94
13.75217318534851,7.28,9.47,7.75,14.23
13.752430200576782,7.37,10.72,7.24,14.88
13.756169080734253,5.96,11.13,7.31,14.58
13.766748189926147,3.31,10.75,7.27,13.39
13.7761070728302,1.48,9.21,4.55,10.37
13.786193132400513,3.21,7.08,0.96,7.83
13.796818017959595,5.2,6.87,-0.74,8.64
13.807812929153442,3.28,9.81,-1.81,10.5
13.852164030075073,0.55,12.73,-4.44,13.49
13.852410078048706,-0.03,11.67,-4.44,12.48
13.85266900062561,-0.28,7.42,-1.49,7.57
13.852927923202515,-2.63,3.73,-0.58,4.6
13.855931043624878,-4.44,1.05,-3.72,5.88
13.866445064544678,-4.24,0.48,-3.4,5.45
13.875832080841064,-2.25,1.89,-2.32,3.74
13.88587498664856,0.51,2.49,-1.5,2.95
13.896552085876465,1.67,0.64,-0.19,1.79
13.906063079833984,1.92,-2.03,0.66,2.87
13.952339887619019,2.62,-3.67,0.71,4.56
13.952603101730347,3.73,-4.16,0.67,5.62
13.952862977981567,3.37,-4.25,-0.21,5.42
13.953119993209839,1.73,-4.4,-0.6,4.76
13.955715894699097,0.41,-4.37,-0.06,4.38
13.966248989105225,-0.38,-4.11,0.38,4.14
13.975723028182983,-0.71,-4.09,0.37,4.16
13.985767126083374,-0.13,-4.54,0.31,4.55
13.99665093421936,0.75,-5.08,0.39,5.14
14.00587010383606,1.34,-5.49,0.51,5.67
14.052980184555054,1.71,-5.87,0.61,6.14
14.053253889083862,1.91,-6.37,0.89,6.7
14.05349612236023,1.91,-6.95,1.3,7.32
14.053755044937134,1.68,-7.56,1.58,7.9
14.055712938308716,1.22,-8.27,1.72,8.53
14.06619906425476,0.54,-9.02,1.81,9.21
14.075767993927002,0.11,-9.74,2.07,9.95
14.085737943649292,-0.39,-10.09,2.21,10.33
14.09610915184021,-1.06,-9.99,1.9,10.22
14.105732202529907,-1.63,-9.61,1.31,9.83
14.153409004211426,-2.51,-8.76,0.54,9.12
14.15367603302002,-3.75,-7.8,-0.72,8.68
14.15393614768982,-4.17,-6.7,-2.57,8.29
14.15419888496399,-4.27,-5.91,-3.49,8.08
14.155525922775269,-4.99,-5.19,-3.86,8.16
14.166075944900513,-5.77,-3.88,-4.39,8.22
14.175665140151978,-5.84,-1.99,-4.66,7.73
14.185564994812012,-6.26,0.24,-4.7,7.83
14.19622802734375,-6.94,2.27,-4.6,8.62
14.205583095550537,-6.77,3.73,-4.28,8.83
14.254301071166992,-5.78,4.44,-3.67,8.16
14.254565954208374,-4.89,4.04,-3.25,7.12
14.254868030548096,-4.75,2.66,-3.65,6.55
14.255312204360962,-4.77,0.73,-4.4,6.53
14.25557017326355,-4.68,-0.12,-4.71,6.64
14.265959024429321,-4.89,0.13,-5.56,7.4
14.275386095046997,-4.59,1.74,-5.42,7.31
14.285463094711304,-1.52,5.37,-2.83,6.25
14.296011209487915,2.92,6.01,-0.14,6.68
14.30549693107605,10.7,12.08,8.15,18.07
14.354425191879272,14.97,15.11,14.21,25.58
14.35470986366272,8.14,7.75,7.01,13.24
14.355157136917114,0.96,1.42,1.49,2.27
14.355417013168335,-3.32,-1.98,-0.26,3.87
14.355674028396606,-5.82,-3.43,-0.98,6.82
14.365763902664185,-7.26,-2.95,-2.71,8.29
14.375334024429321,-7.36,-1.87,-3.73,8.46
14.385220050811768,-5.43,-0.07,-4.14,6.82
14.395757913589478,-2.47,1.57,-5.62,6.33
14.40539002418518,-1.27,1.44,-6.87,7.13
14.45448899269104,-1.51,0.56,-6.88,7.06
14.454936027526855,-2.42,-0.1,-5.61,6.11
14.455198049545288,-3.26,-0.03,-3.99,5.15
14.455466985702515,-2.86,1.12,-2.65,4.05
14.455724000930786,-1.83,1.71,-1.05,2.71
14.465579986572266,-0.99,1.06,1.0,1.76
14.475069046020508,-0.75,0.2,2.26,2.38
14.485172033309937,-0.34,-0.06,1.7,1.73
14.49578309059143,0.31,-0.23,1.0,1.07
14.505122900009155,1.07,-0.19,0.21,1.1
14.555620908737183,1.75,-0.09,-0.78,1.91
14.55588412284851,1.29,-0.31,-1.4,1.92
14.556143045425415,0.2,-0.44,-1.36,1.44
14.556400060653687,-0.75,-0.26,-1.07,1.33
14.556656122207642,-1.25,-0.06,-0.38,1.3
14.565495014190674,-1.45,0.02,0.23,1.46
14.574936151504517,-1.25,0.12,0.5,1.35
14.5849449634552,-0.43,0.31,0.7,0.87
14.595830202102661,0.82,0.47,0.68,1.16
14.60509204864502,1.82,0.46,0.51,1.94
14.655027151107788,1.97,0.36,0.21,2.01
14.655288934707642,1.53,0.3,-0.05,1.55
14.655545949935913,0.98,0.27,0.38,1.08
14.655802011489868,0.94,0.15,0.99,1.37
14.656060934066772,1.19,-0.16,1.4,1.84
14.665318012237549,1.64,-0.58,1.75,2.46
14.674784898757935,2.32,-0.82,1.65,2.96
14.684826135635376,2.69,-0.81,1.25,3.07
14.738471031188965,2.7,-0.45,1.01,2.91
14.73873496055603,2.5,0.18,0.52,2.55
14.738996028900146,2.08,0.47,0.24,2.14
14.739257097244263,1.41,0.44,0.3,1.5
14.73951506614685,0.72,0.52,0.41,0.97
14.744965076446533,0.25,0.6,0.58,0.87
14.75465989112854,0.17,0.6,0.81,1.02
14.765236139297485,0.37,0.5,1.13,1.28
14.774688959121704,0.8,0.29,1.14,1.42
14.784633874893188,1.31,0.37,1.34,1.91
14.839830160140991,1.76,0.55,1.62,2.45
14.840094089508057,2.35,1.05,1.69,3.07
14.840335130691528,2.35,1.8,2.36,3.78
14.840590000152588,2.46,2.15,2.54,4.13
14.840846061706543,2.72,2.21,2.55,4.33
14.844836950302124,2.91,2.01,2.71,4.45
14.854649066925049,3.37,1.83,2.88,4.79
14.865040063858032,3.89,2.0,3.34,5.5
14.874633073806763,4.4,2.58,3.74,6.32
14.884496927261353,4.89,3.82,3.78,7.26
14.93987488746643,5.71,6.1,3.5,9.05
14.940139055252075,6.77,8.64,4.77,11.96
14.940397024154663,6.55,9.39,6.35,13.09
14.940654993057251,5.8,9.58,7.29,13.36
14.94091010093689,5.87,10.9,7.95,14.71
14.944288969039917,4.44,11.83,6.92,14.4
14.954276084899902,2.28,11.19,5.71,12.76
14.964821100234985,1.5,9.21,2.27,9.6
14.974330186843872,2.72,7.09,-0.43,7.6
14.984279870986938,2.54,7.23,-1.78,7.86
15.040037870407104,0.78,10.62,-3.28,11.14
15.040300130844116,-0.74,12.02,-4.27,12.77
15.04055905342102,-0.59,8.94,-2.72,9.36
15.040817022323608,-0.36,4.47,-0.24,4.49
15.041073083877563,-2.45,1.3,0.61,2.83
15.044121980667114,-3.8,-1.19,-1.78,4.36
15.054179906845093,-3.25,-1.17,-1.12,3.63
15.06479811668396,-1.75,1.27,-0.57,2.23
15.07464599609375,0.29,2.72,-0.46,2.77
15.084129095077515,1.22,1.36,0.52,1.89
15.140379190444946,1.5,-1.27,1.89,2.72
15.140707015991211,2.02,-2.99,2.24,4.24
15.14096713066101,2.99,-3.15,1.85,4.72
15.141223192214966,3.1,-2.97,0.69,4.34
15.141480207443237,2.24,-3.44,0.08,4.1
15.14418911933899,1.37,-3.88,0.47,4.14
15.153982877731323,0.77,-3.86,0.87,4.03
15.16460919380188,0.47,-3.71,1.04,3.88
15.174010038375854,0.49,-3.71,0.81,3.82
15.184098958969116,0.74,-4.09,0.78,4.22
15.194715023040771,1.04,-4.74,0.93,4.94
15.240659952163696,1.29,-5.45,1.04,5.69
15.240906953811646,1.38,-6.17,1.04,6.4
15.241164922714233,1.37,-6.8,1.07,7.01
15.241422891616821,1.11,-7.39,1.11,7.55
15.243887186050415,0.72,-7.99,0.98,8.08
15.25378704071045,0.24,-8.59,0.95,8.64
15.264549016952515,-0.17,-8.84,1.2,8.92
15.274034023284912,-0.73,-8.63,1.25,8.75
15.283880949020386,-1.39,-8.15,0.75,8.3
15.294531106948853,-2.15,-7.51,0.33,7.81
15.340964078903198,-2.95,-7.12,-0.76,7.74
15.341233968734741,-3.71,-6.91,-2.24,8.15
15.341492891311646,-4.58,-6.52,-3.39,8.65
15.341751098632812,-5.11,-5.24,-4.3,8.48
15.34372591972351,-5.03,-3.11,-4.51,7.43
15.353740930557251,-4.85,-0.41,-4.67,6.74
15.364256143569946,-5.05,2.47,-4.65,7.29
15.373738050460815,-5.48,5.23,-4.64,8.88
15.383738994598389,-6.05,6.22,-5.06,10.04
15.394455194473267,-6.18,4.09,-4.24,8.53
15.44143795967102,-6.26,1.23,-3.22,7.14
15.441699981689453,-6.16,0.08,-3.55,7.11
15.44196105003357,-5.07,0.33,-4.3,6.65
15.44221806526184,-3.83,0.69,-4.47,5.92
15.443700075149536,-3.03,0.28,-3.71,4.79
15.453532934188843,-1.83,1.28,-2.26,3.17
15.464184045791626,0.83,3.23,-0.33,3.35
15.473550081253052,1.65,0.2,0.52,1.74
15.483635187149048,4.49,2.63,2.68,5.85
15.494349002838135,9.45,12.92,11.21,19.54
15.54286003112793,9.72,12.97,10.09,19.09
15.543313026428223,4.73,6.62,2.88,8.63
15.543573141098022,-1.25,2.08,-0.64,2.5
15.54383111000061,-5.04,-1.7,-1.65,5.56
15.544089078903198,-6.96,-3.81,-2.59,8.34
15.553417921066284,-7.42,-3.68,-5.12,9.73
15.564013004302979,-6.74,-1.41,-6.65,9.57
15.57352614402771,-6.24,1.47,-7.63,9.96
15.583383083343506,-5.78,2.7,-7.55,9.88
15.594204187393188,-4.28,1.0,-5.59,7.11
15.644000053405762,-3.67,-0.94,-4.88,6.17
15.64426589012146,-3.46,-0.53,-4.04,5.34
15.644528150558472,-2.61,1.01,-2.5,3.75
15.644789934158325,-1.35,1.78,-0.98,2.43
15.645426988601685,-0.13,1.22,0.19,1.24
15.653295040130615,0.29,0.17,1.15,1.19
15.663785219192505,-0.04,-0.33,1.27,1.31
15.673299074172974,-0.55,-0.33,0.68,0.93
15.68345308303833,-0.32,-0.14,-0.09,0.36
15.693944215774536,-0.04,0.07,-0.62,0.62
15.744477987289429,0.19,0.23,-1.12,1.15
15.74473786354065,0.28,0.14,-1.6,1.63
15.745010137557983,0.25,-0.19,-1.51,1.54
15.745593070983887,0.09,-0.5,-1.29,1.38
15.745854139328003,-0.04,-0.39,-0.88,0.96
15.753196954727173,-0.05,-0.06,-0.27,0.28
15.763451099395752,0.23,0.27,0.3,0.46
15.773113012313843,0.88,0.38,0.48,1.07
15.783087968826294,1.42,0.32,0.22,1.47
15.793742895126343,1.43,0.21,0.3,1.47
15.844784021377563,1.24,0.2,0.52,1.35
15.845054864883423,1.0,0.28,0.56,1.17
15.845664024353027,0.81,0.32,0.57,1.04
15.845918893814087,0.65,0.22,0.79,1.04
15.846174955368042,0.78,0.1,0.99,1.26
15.852924108505249,1.12,-0.1,1.18,1.62
15.86333703994751,1.49,-0.41,1.41,2.09
15.873152017593384,1.78,-0.57,1.27,2.25
15.88301396369934,1.82,-0.43,0.96,2.1
15.893655061721802,1.5,-0.14,0.56,1.6
15.945060014724731,1.07,0.24,0.08,1.09
15.945648908615112,0.71,0.55,-0.05,0.89
15.945910215377808,0.5,0.76,0.0,0.9
15.9461510181427,0.5,0.82,0.51,1.08
15.946407079696655,0.74,0.64,1.01,1.4
15.95274305343628,1.31,0.37,1.61,2.1
15.963317155838013,1.71,0.33,1.71,2.44
15.972760915756226,1.96,0.37,2.19,2.96
15.982823133468628,2.56,0.28,2.46,3.56
15.993494987487793,3.05,0.44,2.39,3.89
16.0453519821167,3.14,0.82,2.14,3.88
16.045613050460815,3.19,1.29,1.77,3.86
16.045871019363403,2.85,1.55,1.64,3.63
16.04616093635559,2.76,1.75,1.87,3.76
16.046420097351074,2.86,1.93,2.28,4.13
16.052634954452515,3.14,2.23,2.89,4.81
16.063079118728638,3.41,2.59,3.77,5.7
16.0725839138031,3.66,3.24,4.37,6.55
16.082451105117798,3.96,4.72,4.7,7.74
16.093218088150024,4.52,7.36,5.12,10.04
16.145529985427856,4.87,10.19,7.05,13.31
16.145798921585083,4.18,11.61,8.52,14.99
16.146061182022095,4.5,12.19,9.45,16.06
16.146351099014282,5.29,11.69,8.32,15.29
16.146610975265503,4.84,9.67,7.44,13.12
16.152520895004272,4.5,7.5,5.44,10.3
16.16318917274475,5.22,6.14,2.07,8.32
16.172494173049927,4.24,7.15,0.66,8.33
16.18249011039734,0.85,11.11,-2.44,11.4
16.19323706626892,-0.95,13.36,-5.37,14.43
16.246115922927856,-0.08,11.07,-4.62,11.99
16.246383905410767,0.43,6.36,-2.7,6.92
16.246647119522095,-1.83,2.79,-1.97,3.87
16.246906042099,-3.4,0.59,-4.58,5.73
16.24716305732727,-3.01,0.84,-3.98,5.06
16.252434015274048,-1.42,2.93,-2.84,4.32
16.263270139694214,0.71,3.99,-2.19,4.6
16.272547960281372,1.38,2.1,-0.72,2.61
16.282549142837524,1.76,-1.01,0.83,2.19
16.29306721687317,2.6,-3.15,1.71,4.42
16.34662699699402,3.36,-4.16,1.93,5.68
16.346903085708618,3.58,-4.48,1.57,5.94
16.347162008285522,3.09,-4.54,1.27,5.63
16.347421884536743,2.32,-4.53,1.35,5.26
16.347678899765015,1.58,-4.58,1.44,5.05
16.352294206619263,1.13,-4.87,1.56,5.23
16.36310601234436,0.91,-5.3,1.73,5.64
16.37216806411743,1.12,-5.64,1.69,5.99
16.38217806816101,1.48,-5.95,1.74,6.37
16.3927481174469,1.62,-6.16,1.67,6.58
16.446719884872437,1.53,-6.38,1.34,6.69
16.446993112564087,1.16,-6.75,0.73,6.88
16.44725489616394,0.51,-7.41,0.1,7.42
16.447516202926636,-0.26,-8.19,-0.31,8.19
16.44778609275818,-0.9,-8.7,-0.51,8.76
16.45202088356018,-1.42,-8.84,-0.46,8.96
16.462976217269897,-2.2,-8.46,-0.46,8.75
16.472087144851685,-3.49,-7.76,-0.99,8.56
16.482041120529175,-4.7,-7.65,-2.5,9.32
16.49273705482483,-4.84,-7.76,-3.61,9.83
16.546900033950806,-4.7,-7.41,-3.25,9.35
16.54717707633972,-4.54,-6.0,-2.85,8.04
16.547436952590942,-4.08,-3.52,-2.66,6.0
16.547699213027954,-4.04,-0.6,-3.44,5.33
16.547955989837646,-4.9,2.2,-4.71,7.14
16.551936864852905,-6.31,4.56,-5.76,9.68
16.562769174575806,-7.88,5.7,-6.48,11.68
16.572057962417603,-8.27,4.57,-6.51,11.47
16.581886053085327,-7.34,2.26,-6.3,9.93
16.59247398376465,-6.44,0.33,-5.99,8.8
16.64736008644104,-5.9,-1.17,-5.57,8.19
16.64762306213379,-5.18,-1.91,-4.77,7.29
16.647884130477905,-4.14,0.49,-3.77,5.62
16.648142099380493,-1.72,4.0,-1.78,4.7
16.64839816093445,2.19,4.01,-0.04,4.56
16.65168309211731,8.15,10.35,7.93,15.37
16.66226601600647,12.57,12.71,13.4,22.34
16.671761989593506,10.43,5.95,7.69,14.25
16.681766986846924,5.79,2.67,1.51,6.55
16.692396879196167,-0.72,0.94,-2.43,2.7
16.74752902984619,-6.44,-1.45,-4.55,8.01
16.747793912887573,-9.62,-2.91,-5.94,11.67
16.748054027557373,-9.98,-3.0,-5.81,11.93
16.74831199645996,-8.09,-1.44,-5.02,9.62
16.748570203781128,-4.47,0.74,-4.71,6.53
16.751496076583862,-1.41,2.85,-5.61,6.44
16.76211404800415,-0.49,3.12,-7.13,7.79
16.771608114242554,-1.19,1.09,-5.27,5.51
16.781630992889404,-2.07,-0.21,-3.53,4.09
16.79228401184082,-2.94,-0.1,-3.58,4.63
16.848016023635864,-2.58,0.46,-2.42,3.56
16.848286867141724,-1.5,0.9,-1.07,2.05
16.848549127578735,-0.38,0.94,-0.15,1.02
16.848838090896606,0.12,0.46,0.75,0.88
16.849095106124878,0.07,0.14,0.78,0.79
16.851441144943237,-0.17,0.09,0.32,0.37
16.861944913864136,-0.36,0.11,-0.01,0.37
16.871412992477417,-0.41,0.21,-0.35,0.57
16.881486177444458,-0.34,0.18,-0.79,0.87
16.892112016677856,-0.07,-0.1,-1.0,1.0
16.94865107536316,0.37,-0.39,-0.79,0.95
16.94891619682312,0.91,-0.47,-0.4,1.09
16.949174165725708,1.32,-0.29,-0.01,1.35
16.94943904876709,1.46,-0.02,0.14,1.46
16.94971013069153,1.51,0.26,0.39,1.58
16.951366186141968,1.51,0.47,0.56,1.67
16.96171498298645,1.41,0.46,0.61,1.6
16.97126603126526,1.24,0.42,0.43,1.37
16.98131799697876,0.74,0.36,0.14,0.83
16.991976976394653,0.42,0.32,0.51,0.73
17.048775911331177,0.77,0.28,0.9,1.21
17.0490460395813,1.43,0.11,1.46,2.04
17.0493061542511,2.79,-0.29,2.23,3.58
17.04956603050232,4.09,-0.74,2.32,4.76
17.049835920333862,4.47,-0.99,2.26,5.1
17.05113196372986,3.82,-0.59,1.68,4.21
17.06165599822998,2.86,0.01,1.02,3.03
17.071145057678223,1.89,0.38,0.38,1.96
17.08114218711853,0.92,0.45,0.35,1.08
17.091822862625122,0.28,0.44,0.42,0.66
17.1480929851532,0.12,0.38,0.62,0.73
17.148357152938843,0.16,0.26,0.9,0.95
17.14862298965454,0.52,0.28,1.03,1.18
17.148882150650024,0.94,0.38,1.48,1.79
17.14914107322693,1.53,0.36,2.09,2.61
17.150969982147217,2.42,0.45,2.38,3.42
17.161455869674683,2.71,1.03,2.46,3.8
17.171003103256226,2.78,1.6,2.04,3.8
17.180938959121704,2.69,1.98,1.73,3.76
17.191702127456665,2.49,2.03,1.7,3.63
17.248448133468628,2.8,2.02,1.9,3.94
17.248708963394165,3.6,2.23,2.17,4.75
17.248964071273804,4.52,3.02,2.75,6.09
17.249219179153442,5.18,4.15,3.47,7.48
17.249473094940186,6.1,5.99,3.54,9.25
17.250818014144897,6.53,8.09,5.1,11.58
17.26134419441223,6.07,9.3,7.45,13.37
17.270814180374146,5.98,9.98,8.38,14.33
17.28079104423523,5.56,10.24,7.61,13.91
17.29147505760193,5.18,10.06,7.03,13.32
17.349138975143433,4.96,10.09,4.41,12.07
17.34940218925476,3.77,9.27,2.28,10.26
17.349663019180298,1.95,7.56,1.46,7.94
17.349948167800903,-0.37,7.59,-0.38,7.6
17.350209951400757,-2.65,9.25,-2.17,9.86
17.350805044174194,-2.33,9.25,-2.09,9.76
17.36121106147766,-0.82,6.77,-2.0,7.1
17.370732069015503,-1.6,3.72,-0.89,4.14
17.380637884140015,-3.59,1.82,-2.22,4.59
17.39134907722473,-2.76,0.8,-3.69,4.67
17.449029207229614,-0.93,1.22,-2.22,2.69
17.44929599761963,1.37,2.59,-2.46,3.82
17.449558973312378,3.13,2.61,-2.37,4.71
17.449841022491455,3.18,0.36,-1.29,3.45
17.450101137161255,3.31,-1.73,-0.2,3.74
17.450525999069214,3.8,-2.53,-0.03,4.56
17.46104598045349,3.78,-2.82,-0.24,4.72
17.470553159713745,3.56,-3.08,-0.34,4.71
17.480470895767212,3.35,-3.12,-0.24,4.58
17.4911789894104,2.96,-3.0,-0.26,4.22
17.55035710334778,2.52,-3.32,-0.29,4.17
17.550634145736694,2.21,-4.1,-0.36,4.67
17.55089807510376,2.09,-4.89,-0.22,5.32
17.551176071166992,1.96,-5.43,-0.19,5.77
17.55143404006958,1.75,-5.89,-0.22,6.14
17.55169415473938,1.43,-6.35,-0.29,6.51
17.56087613105774,0.81,-6.88,-0.4,6.93
17.570394039154053,0.07,-7.51,-0.48,7.52
17.58035898208618,-0.47,-8.14,-0.32,8.15
17.590992212295532,-0.89,-8.53,-0.03,8.57
17.650316953659058,-1.22,-8.63,0.19,8.71
17.65057921409607,-1.51,-8.6,0.34,8.73
17.650838136672974,-2.03,-8.31,0.38,8.56
17.651095151901245,-2.74,-8.03,-0.34,8.49
17.651355028152466,-3.66,-7.75,-1.41,8.68
17.65161395072937,-4.62,-7.35,-2.41,9.0
17.66072392463684,-5.55,-6.5,-3.2,9.12
17.670241117477417,-6.09,-4.94,-3.84,8.73
17.680516004562378,-6.07,-2.71,-4.35,7.94
17.690898180007935,-5.88,-0.15,-4.84,7.61
17.749953985214233,-5.72,2.46,-4.98,7.97
17.750218152999878,-5.95,4.45,-5.17,9.05
17.750460863113403,-6.92,4.45,-5.14,9.7
17.75071692466736,-8.01,2.76,-4.71,9.69
17.75098705291748,-8.3,1.32,-4.92,9.73
17.75126814842224,-6.98,0.06,-4.66,8.39
17.760565996170044,-4.49,-0.42,-3.34,5.61
17.770002126693726,-2.41,0.47,-2.8,3.72
17.780397176742554,-1.44,2.58,-2.43,3.82
17.790701150894165,1.08,4.53,-0.37,4.67
17.850370168685913,1.86,0.87,0.48,2.1
17.85063099861145,6.58,5.55,3.68,9.36
17.850892066955566,10.94,12.82,12.66,21.07
17.851160049438477,7.83,8.01,9.82,14.89
17.851414918899536,5.44,2.3,3.09,6.66
17.85169005393982,1.34,0.53,-0.24,1.46
17.86045002937317,-3.73,-0.19,-1.69,4.09
17.86988401412964,-7.41,-1.25,-3.46,8.27
17.880253076553345,-8.81,-2.15,-4.8,10.26
17.89054799079895,-7.94,-2.1,-5.55,9.91
17.95095705986023,-5.51,0.01,-5.92,8.08
17.951229095458984,-4.52,2.17,-7.51,9.02
17.951492071151733,-4.66,2.23,-7.41,9.03
17.951747179031372,-4.07,1.05,-5.31,6.77
17.952004194259644,-4.23,0.09,-4.86,6.44
17.95227599143982,-3.99,0.35,-3.99,5.65
17.960267066955566,-2.48,1.18,-2.74,3.87
17.969727993011475,-0.63,1.32,-1.32,1.97
17.979762077331543,0.54,0.72,0.04,0.9
17.99042296409607,0.77,0.29,1.03,1.31
18.051189184188843,0.94,0.29,1.29,1.62
18.051481008529663,1.03,0.31,0.36,1.13
18.051743030548096,1.04,0.11,-0.63,1.22
18.052003145217896,0.77,-0.22,-1.44,1.64
18.05225920677185,0.21,-0.56,-1.51,1.62
18.05251908302307,-0.49,-0.66,-1.29,1.52
18.060095071792603,-0.88,-0.35,-0.62,1.13
18.069756031036377,-1.04,-0.05,0.15,1.05
18.07968306541443,-0.95,0.09,0.46,1.05
18.09017014503479,-0.63,0.13,0.6,0.87
18.151735067367554,-0.1,0.18,0.75,0.77
18.15199589729309,0.52,0.23,0.97,1.12
18.15225601196289,1.0,0.29,0.99,1.43
18.152508974075317,1.15,0.42,0.74,1.43
18.152764081954956,0.91,0.47,0.56,1.16
18.153021097183228,0.74,0.43,0.7,1.1
18.159958124160767,1.01,0.26,1.1,1.51
18.16941809654236,1.66,-0.09,1.44,2.19
18.179391145706177,2.28,-0.61,1.7,2.9
18.19001007080078,2.87,-0.98,1.87,3.56
18.252068042755127,3.48,-0.97,1.73,4.0
18.252340078353882,3.59,-0.56,1.26,3.84
18.252599000930786,2.89,-0.03,0.68,2.96
18.252856969833374,1.93,0.23,0.58,2.02
18.253123998641968,1.24,0.28,0.74,1.47
18.253362894058228,1.0,0.28,0.95,1.4
18.259751081466675,1.23,0.15,1.22,1.73
18.269264936447144,1.74,-0.09,1.67,2.41
18.279375076293945,2.38,-0.09,2.02,3.12
18.289884090423584,2.78,0.16,1.95,3.39
18.351711988449097,2.74,0.63,1.64,3.25
18.351999044418335,2.28,1.08,1.39,2.88
18.352256059646606,2.0,1.6,0.96,2.73
18.352521181106567,2.12,2.25,0.89,3.21
18.35277509689331,2.07,2.86,1.56,3.85
18.35302996635437,2.36,2.89,1.82,4.15
18.359813928604126,2.87,2.76,2.18,4.53
18.369330167770386,3.28,2.84,2.6,5.05
18.379246950149536,3.85,3.33,3.03,5.92
18.389769077301025,4.44,4.34,3.03,6.9
18.45189118385315,5.25,6.25,3.23,8.77
18.452152967453003,5.61,8.33,4.84,11.14
18.45241093635559,5.53,9.7,6.56,12.95
18.452670097351074,6.14,10.59,7.33,14.26
18.452930212020874,6.06,10.34,7.55,14.16
18.453190088272095,4.91,9.52,7.86,13.28
18.45951008796692,3.77,9.42,6.57,12.08
18.469032049179077,3.47,8.49,3.09,9.67
18.479055166244507,3.41,6.57,0.21,7.4
18.489507913589478,1.72,5.9,-1.45,6.31
18.552309036254883,-0.49,7.94,-1.88,8.17
18.552571058273315,-1.65,10.25,-2.34,10.64
18.55282998085022,-0.47,9.62,-2.46,9.94
18.55309796333313,1.1,5.64,-0.62,5.77
18.553355932235718,0.79,1.54,0.93,1.96
18.553611993789673,-0.11,-1.0,-0.93,1.37
18.559307098388672,-0.15,-0.77,-2.34,2.46
18.568947076797485,1.1,1.85,-1.64,2.7
18.57876706123352,3.7,4.17,0.16,5.57
18.58946394920349,3.89,4.26,1.3,5.91
18.65268588066101,2.56,2.36,1.2,3.68
18.652950048446655,1.5,0.03,0.73,1.66
18.653209924697876,0.91,-1.44,0.51,1.77
18.653475046157837,0.15,-1.75,0.17,1.76
18.653733015060425,-0.89,-1.56,-0.53,1.87
18.65399193763733,-1.36,-1.59,-0.62,2.18
18.659154176712036,-1.05,-2.02,0.06,2.27
18.66865086555481,-0.77,-2.64,0.38,2.77
18.678637981414795,-0.54,-3.33,0.24,3.38
18.689286947250366,-0.22,-4.14,0.25,4.15
18.752808094024658,0.15,-4.88,0.42,4.9
18.753073930740356,0.35,-5.54,0.59,5.58
18.753334999084473,0.3,-6.28,0.68,6.32
18.753592014312744,-0.07,-7.15,0.82,7.19
18.7538480758667,-0.74,-8.1,0.77,8.17
18.75410509109497,-1.63,-9.09,0.46,9.24
18.758995056152344,-2.46,-10.03,0.39,10.33
18.768489122390747,-3.05,-10.87,0.55,11.3
18.778635025024414,-3.06,-11.47,0.83,11.9
18.78914713859558,-3.01,-11.54,0.78,11.95
18.852878093719482,-3.38,-10.84,0.34,11.35
18.853142023086548,-4.09,-9.46,-0.78,10.33
18.853403091430664,-4.4,-7.74,-2.76,9.32
18.85365891456604,-4.22,-6.15,-4.31,8.61
18.85391902923584,-4.62,-4.54,-5.02,8.19
18.8541738986969,-5.67,-2.37,-5.59,8.3
18.858836889266968,-6.47,0.76,-5.84,8.74
18.868335962295532,-7.52,4.73,-6.22,10.84
18.87830090522766,-9.02,6.7,-6.82,13.14
18.889067888259888,-9.99,3.7,-6.17,12.31
18.954402208328247,-9.64,-0.24,-5.04,10.88
18.954675912857056,-8.97,-1.81,-4.98,10.41
18.9549400806427,-8.08,-1.98,-5.29,9.85
18.95519995689392,-6.1,0.78,-5.07,7.97
18.95546793937683,-1.69,5.33,-2.53,6.13
18.955733060836792,1.98,5.03,-1.58,5.63
18.95870804786682,11.14,14.29,7.94,19.78
18.968169927597046,15.04,22.48,12.77,29.91
18.978267908096313,6.14,8.94,4.63,11.79
18.988826036453247,0.89,-1.12,2.47,2.85
19.053869009017944,-1.41,-4.41,-0.47,4.65
19.054136037826538,-4.83,-5.08,-1.79,7.23
19.054403066635132,-6.74,-3.8,-4.02,8.71
19.05466103553772,-6.41,-1.62,-5.64,8.69
19.05491805076599,-4.12,1.76,-5.83,7.35
19.05517888069153,-3.01,4.83,-6.73,8.81
19.058600187301636,-3.32,3.16,-7.49,8.78
19.068039178848267,-3.31,-0.53,-4.6,5.69
19.078002214431763,-3.83,-1.72,-3.82,5.67
19.088690042495728,-4.36,-0.28,-3.55,5.62
19.1549870967865,-3.8,1.64,-2.86,5.03
19.155261039733887,-2.74,2.02,-1.82,3.86
19.155530214309692,-1.66,1.09,-0.3,2.0
19.15579605102539,-0.37,0.53,1.11,1.28
19.15605902671814,1.15,0.28,1.83,2.17
19.156313180923462,2.38,0.0,1.0,2.58
19.15835404396057,2.72,-0.58,0.08,2.78
19.16784691810608,2.32,-1.21,-0.05,2.61
19.177870988845825,1.64,-1.18,-0.42,2.06
19.188536882400513,0.55,-0.8,-1.02,1.4
19.255645990371704,-0.18,-0.39,-0.94,1.03
19.25591015815735,-0.42,-0.1,-0.3,0.52
19.256171941757202,-0.24,0.21,0.21,0.38
19.256428956985474,0.2,0.55,0.94,1.1
19.25668501853943,0.94,0.76,1.45,1.88
19.256942987442017,1.57,0.7,1.33,2.17
19.258154153823853,1.72,0.49,0.85,1.98
19.26779294013977,1.57,0.33,0.75,1.77
19.277873992919922,1.36,0.27,0.92,1.66
19.288403034210205,1.27,0.05,1.48,1.95
19.355846166610718,1.42,-0.4,1.96,2.45
19.3561110496521,1.85,-0.9,1.97,2.84
19.356376886367798,2.34,-1.09,1.52,2.99
19.356638193130493,2.33,-0.66,0.72,2.52
19.356919050216675,1.61,0.0,0.17,1.61
19.357197999954224,0.85,0.45,-0.17,0.97
19.35813808441162,0.48,0.51,-0.09,0.7
19.367547035217285,0.72,0.28,0.51,0.92
19.377590894699097,1.31,0.1,0.92,1.6
19.38824486732483,1.63,0.06,1.1,1.96
19.454550981521606,1.61,0.12,1.51,2.21
19.45565700531006,1.63,0.52,1.62,2.35
19.45592713356018,1.52,1.08,1.56,2.43
19.4561870098114,1.56,1.54,1.5,2.65
19.456443071365356,1.95,2.31,1.56,3.4
19.456700086593628,2.01,2.98,2.13,4.17
19.45789098739624,2.34,2.86,2.23,4.31
19.467867136001587,3.07,2.62,2.37,4.68
19.477415084838867,3.77,2.4,2.73,5.23
19.4880850315094,4.53,2.5,3.2,6.08
19.497382879257202,5.27,2.86,3.7,7.04
19.5556161403656,5.9,3.9,3.65,7.95
19.555877923965454,6.7,6.43,3.03,9.76
19.556143045425415,7.53,9.72,4.4,13.05
19.55640196800232,7.36,11.26,6.64,15.0
19.556684017181396,7.05,11.11,6.71,14.77
19.557626008987427,6.19,10.68,6.25,13.83
19.567347049713135,4.4,10.73,6.48,13.28
19.577399969100952,2.96,10.84,3.57,11.79
19.58793807029724,4.0,9.38,0.78,10.22
19.597252130508423,4.65,7.92,0.59,9.2
19.656527996063232,2.66,8.79,-0.17,9.18
19.657015085220337,0.08,10.85,-3.02,11.26
19.657274961471558,-0.16,10.34,-3.45,10.9
19.657535076141357,0.32,6.94,-1.21,7.05
19.657793045043945,-1.86,3.19,0.44,3.71
19.658601999282837,-4.0,0.14,-2.04,4.49
19.66717505455017,-3.42,-0.41,-2.64,4.33
19.67717719078064,-1.78,1.48,-1.43,2.72
19.687774896621704,0.93,3.45,-0.94,3.69
19.697158098220825,2.2,2.97,-0.04,3.69
19.757346868515015,2.16,0.32,1.26,2.52
19.757616996765137,2.49,-1.93,1.78,3.61
19.757879972457886,3.08,-2.92,1.66,4.55
19.758143186569214,3.29,-3.05,1.24,4.65
19.758402109146118,2.58,-3.11,0.66,4.09
19.759167909622192,1.48,-3.47,0.52,3.8
19.76694107055664,0.77,-3.97,0.77,4.11
19.77700686454773,0.51,-4.53,1.11,4.69
19.787646055221558,0.41,-5.0,1.29,5.17
19.79693293571472,0.59,-5.4,1.29,5.58
19.857742071151733,0.93,-5.84,1.3,6.05
19.857990980148315,1.15,-6.21,1.3,6.44
19.858251094818115,1.19,-6.49,1.21,6.7
19.858507871627808,1.03,-6.94,1.11,7.1
19.8587749004364,0.66,-7.54,0.89,7.62
19.859556913375854,0.17,-8.2,0.7,8.23
19.866779088974,-0.35,-8.77,0.61,8.79
19.87679409980774,-0.91,-9.07,0.64,9.13
19.887437105178833,-1.68,-9.27,0.78,9.45
19.896825075149536,-2.73,-9.38,0.47,9.78
19.95846390724182,-3.8,-9.09,-0.44,9.86
19.958730936050415,-4.88,-8.65,-1.78,10.08
19.958993196487427,-5.59,-8.05,-3.29,10.33
19.959253072738647,-5.9,-7.2,-4.21,10.21
19.95951008796692,-5.95,-5.84,-4.94,9.69
19.960295915603638,-6.08,-3.63,-5.36,8.88
19.966629028320312,-6.7,-0.56,-6.07,9.05
19.976680994033813,-7.39,3.03,-6.97,10.6
19.98729920387268,-7.78,5.91,-7.51,12.32
19.996661901474,-7.23,6.22,-6.9,11.77
20.058336973190308,-6.7,4.7,-5.59,9.91
20.058600187301636,-6.58,2.46,-5.26,8.77
20.05885910987854,-5.54,0.32,-4.55,7.17
20.05911612510681,-4.34,-0.61,-3.54,5.63
20.059373140335083,-2.64,1.63,-3.31,4.53
20.060158014297485,-1.54,2.37,-2.42,3.72
20.06648898124695,0.28,1.72,-1.52,2.31
20.07654309272766,7.5,11.46,8.55,16.14
20.087141036987305,12.09,16.74,13.35,24.58
20.09654211997986,4.64,6.36,7.0,10.53
20.159125089645386,-1.35,-0.91,2.5,2.98
20.159385919570923,-3.6,-3.56,0.37,5.07
20.159646034240723,-5.48,-4.04,-0.58,6.83
20.159903049468994,-5.0,-1.7,-4.74,7.09
20.160170078277588,-3.94,1.47,-6.93,8.1
20.160948991775513,-3.72,2.84,-7.57,8.89
20.166364908218384,-2.68,1.85,-6.04,6.86
20.176383018493652,-0.88,-0.76,-4.3,4.45
20.186946153640747,-1.4,-1.93,-4.13,4.76
20.19647192955017,-2.5,-0.48,-3.2,4.08
20.25981307029724,-2.53,1.52,-2.39,3.79
20.260084867477417,-2.14,2.24,-1.64,3.5
20.26034712791443,-1.51,1.45,-0.37,2.12
20.260605096817017,-0.9,0.29,0.83,1.25
20.26086688041687,-0.03,-0.16,0.55,0.57
20.26164698600769,0.87,-0.19,-0.33,0.94
20.266273021697998,1.04,-0.24,-0.8,1.33
20.27624821662903,0.51,-0.25,-1.21,1.33
20.286768198013306,-0.34,-0.24,-1.3,1.36
20.296096086502075,-1.11,-0.21,-1.38,1.78
20.360673189163208,-1.73,-0.16,-1.14,2.07
20.360935926437378,-2.04,0.07,-0.3,2.06
20.361212968826294,-1.92,0.28,0.51,2.0
20.361473083496094,-0.98,0.36,0.74,1.27
20.361727952957153,0.33,0.33,0.82,0.94
20.362519025802612,1.47,0.34,0.85,1.73
20.36601710319519,2.2,0.35,0.96,2.42
20.375988006591797,2.34,0.36,0.87,2.52
20.386605978012085,1.95,0.26,0.61,2.05
20.39604687690735,1.49,0.02,0.95,1.76
20.461183071136475,1.48,-0.24,1.42,2.06
20.461464166641235,1.7,-0.54,1.51,2.33
20.461724042892456,1.99,-0.8,1.77,2.78
20.46198010444641,2.16,-0.74,1.5,2.73
20.462236166000366,2.09,-0.43,1.14,2.41
20.463016033172607,1.86,0.0,0.47,1.91
20.46583104133606,1.5,0.27,-0.12,1.52
20.475861072540283,1.08,0.19,-0.35,1.15
20.486404180526733,0.64,0.11,-0.35,0.73
20.496007204055786,0.21,0.09,-0.02,0.22
20.56118416786194,-0.21,0.07,0.31,0.38
20.561444997787476,-0.45,0.08,0.56,0.72
20.56170392036438,-0.54,0.11,0.86,1.02
20.561961889266968,-0.41,0.24,0.99,1.09
20.562217950820923,-0.12,0.44,1.04,1.13
20.562973022460938,0.39,0.7,1.04,1.31
20.56557607650757,0.96,1.12,1.37,2.01
20.57573914527893,1.36,1.5,1.77,2.68
20.58624005317688,2.0,1.64,1.84,3.17
20.595738172531128,2.46,1.74,2.12,3.68
20.662047147750854,2.97,1.86,2.25,4.16
20.662312984466553,3.78,2.23,2.73,5.16
20.66256809234619,4.61,3.04,3.19,6.37
20.662829160690308,5.73,4.66,3.3,8.08
20.663084983825684,7.76,7.54,3.42,11.34
20.663881063461304,9.47,10.22,5.21,14.87
20.665669202804565,8.93,11.11,6.55,15.68
20.675639867782593,6.92,11.09,7.33,14.98
20.68615698814392,5.16,11.33,8.6,15.13
20.695605039596558,3.4,11.58,6.47,13.69
20.76259708404541,2.27,10.5,3.68,11.35
20.76286005973816,3.03,7.55,2.84,8.61
20.763127088546753,4.42,5.95,1.21,7.51
20.763383150100708,3.04,7.64,-0.54,8.24
20.763642072677612,-0.39,10.92,-3.76,11.55
20.764392137527466,-1.36,12.1,-3.87,12.77
20.765640020370483,-1.47,8.89,-1.3,9.1
20.775426149368286,-2.99,4.53,-0.39,5.44
20.786350965499878,-3.05,1.98,-1.96,4.13
20.7954740524292,-1.81,2.45,-0.4,3.07
20.86334800720215,-0.4,4.58,-0.15,4.59
20.863611936569214,1.72,5.3,-0.36,5.58
20.863874197006226,3.44,3.32,0.38,4.79
20.86413598060608,4.51,0.74,0.61,4.61
20.86439299583435,5.22,-0.85,0.33,5.29
20.865763902664185,5.13,-1.75,0.32,5.42
20.866021871566772,4.44,-2.29,0.46,5.01
20.875256061553955,3.85,-2.5,0.6,4.62
20.885864973068237,3.16,-2.57,0.71,4.13
20.895262956619263,2.28,-2.83,0.46,3.66
20.964287996292114,1.4,-3.35,0.27,3.64
20.96457600593567,0.87,-3.9,0.28,4.0
20.965020895004272,0.7,-4.25,0.14,4.3
20.965638875961304,0.88,-4.42,-0.03,4.5
20.965898990631104,1.26,-4.7,-0.02,4.86
20.966717958450317,1.5,-5.13,0.11,5.34
20.96697688102722,1.65,-5.66,0.08,5.89
20.975239992141724,1.76,-6.27,0.07,6.51
20.98572087287903,1.58,-6.91,0.0,7.08
20.99511408805847,1.1,-7.62,0.0,7.69
21.064922094345093,0.54,-8.24,0.08,8.25
21.06519103050232,0.04,-8.57,0.02,8.57
21.06582498550415,-0.6,-8.53,-0.07,8.55
21.0660879611969,-1.46,-8.18,-0.13,8.31
21.066367864608765,-2.61,-7.74,-0.63,8.19
21.067134141921997,-3.76,-7.46,-1.93,8.57
21.067413091659546,-4.62,-7.16,-2.97,9.02
21.07546305656433,-5.27,-6.5,-3.39,9.02
21.086008071899414,-5.9,-5.07,-4.19,8.83
21.09502911567688,-5.96,-2.87,-5.25,8.44
21.16532301902771,-5.88,0.02,-5.75,8.22
21.165585041046143,-5.93,3.85,-6.09,9.33
21.165844202041626,-6.47,6.78,-6.93,11.65
21.166128873825073,-7.3,6.17,-6.58,11.6
21.166388988494873,-8.71,3.3,-5.65,10.89
21.16716504096985,-9.78,0.33,-5.93,11.44
21.167423963546753,-8.29,-2.02,-5.34,10.06
21.17485499382019,-5.53,-1.53,-3.83,6.89
21.185310125350952,-0.87,1.65,-1.96,2.7
21.19486117362976,0.8,1.4,0.8,1.8
21.265393018722534,3.74,0.76,1.35,4.04
21.26566195487976,16.77,15.57,13.66,26.65
21.26592206954956,18.52,25.82,12.49,34.14
21.266180992126465,-0.58,8.22,2.72,8.67
21.266439199447632,-7.09,-4.04,1.58,8.31
21.267192125320435,-8.45,-7.32,-1.41,11.26
21.267452001571655,-9.28,-7.11,-6.1,13.18
21.2747061252594,-8.79,-4.43,-10.5,14.39
21.28539204597473,-8.99,-0.22,-10.8,14.05
21.29455304145813,-8.59,3.43,-7.63,11.99
21.36577296257019,-6.44,3.25,-5.3,8.95
21.36603617668152,-4.29,0.0,-3.84,5.75
21.366307973861694,-2.66,-1.1,-2.92,4.1
21.366564989089966,-1.51,0.03,-1.53,2.14
21.366822957992554,-0.97,1.33,-0.48,1.71
21.36764121055603,-0.07,1.68,0.1,1.68
21.36792302131653,0.35,0.82,0.63,1.09
21.37450909614563,-0.27,-0.31,0.77,0.87
21.385066986083984,-0.6,-0.68,0.41,0.99
21.394500017166138,-0.8,-0.4,-0.35,0.96
21.466610193252563,-0.88,0.02,-1.36,1.62
21.466875076293945,-0.61,0.21,-2.19,2.28
21.467137098312378,-0.37,-0.13,-2.34,2.37
21.46739888191223,-0.05,-0.6,-1.78,1.87
21.467658042907715,0.07,-0.63,-0.91,1.1
21.46845316886902,0.03,-0.09,-0.19,0.21
21.46872115135193,0.02,0.41,0.39,0.56
21.474330186843872,0.13,0.42,0.73,0.85
21.484913110733032,0.47,0.32,0.72,0.91
21.49435591697693,0.73,0.3,0.59,0.98
21.56717300415039,0.7,0.17,0.47,0.86
21.56743597984314,0.47,0.08,0.45,0.65
21.567697048187256,0.48,0.29,0.3,0.63
21.567954063415527,0.58,0.41,0.35,0.79
21.5682110786438,0.59,0.39,0.45,0.83
21.568981885910034,0.59,0.33,0.69,0.96
21.569241046905518,0.69,0.15,1.12,1.32
21.574177980422974,1.05,-0.14,1.46,1.8
21.584793090820312,1.59,-0.5,1.51,2.24
21.5942120552063,1.93,-0.69,1.41,2.48
21.666954040527344,2.05,-0.51,1.03,2.35
21.667218923568726,2.09,0.0,0.58,2.16
21.667475938796997,1.9,0.58,0.47,2.04
21.667736053466797,1.42,0.7,0.72,1.73
21.667990922927856,1.14,0.33,1.23,1.7
21.668788194656372,1.03,-0.01,1.34,1.69
21.66904902458191,0.86,-0.07,1.19,1.46
21.674018144607544,1.14,0.21,1.54,1.92
21.684478998184204,1.87,0.94,1.46,2.55
21.69396209716797,1.96,1.6,1.48,2.93
21.767235040664673,2.08,2.14,1.83,3.5
21.767510175704956,2.73,2.44,2.26,4.3
21.767770051956177,3.35,2.64,2.42,4.9
21.768026113510132,4.06,2.77,2.7,5.6
21.768282175064087,4.84,2.99,3.01,6.43
21.769048929214478,5.17,3.45,3.48,7.12
21.76930594444275,5.39,4.5,3.62,7.89
21.77394413948059,5.92,6.62,2.82,9.31
21.784348011016846,7.28,9.64,4.0,12.72
21.793841123580933,6.79,10.98,6.63,14.51
21.86780309677124,4.98,10.51,7.78,13.99
21.868059873580933,4.98,11.38,8.37,14.97
21.868319034576416,4.62,12.61,6.92,15.1
21.868576049804688,3.58,12.51,5.35,14.06
21.868834018707275,3.34,10.32,2.77,11.19
21.869628190994263,4.13,6.75,1.28,8.01
21.869887113571167,3.81,5.25,0.53,6.5
21.873718976974487,1.53,7.82,-1.15,8.05
21.884124040603638,-0.82,11.1,-3.11,11.55
21.893730878829956,-1.23,10.49,-2.5,10.85
21.968528985977173,-1.18,6.69,0.81,6.84
21.968798875808716,-3.41,3.5,1.87,5.23
21.969064950942993,-4.55,1.38,-1.14,4.88
21.969331979751587,-3.74,1.58,-1.37,4.28
21.969593048095703,-1.94,4.22,-1.35,4.83
21.970412015914917,0.86,5.86,-1.41,6.08
21.97067093849182,2.69,4.34,-0.3,5.11
21.973549127578735,2.91,0.72,1.31,3.27
21.984039068222046,3.07,-2.3,2.06,4.35
21.993540048599243,3.39,-3.92,1.82,5.49
22.069391012191772,3.75,-4.29,1.94,6.01
22.069653034210205,3.2,-3.55,1.74,5.08
22.06991219520569,1.55,-2.92,1.04,3.46
22.07016921043396,0.16,-3.2,0.86,3.31
22.070425033569336,-0.59,-3.7,0.9,3.85
22.071200132369995,-0.68,-3.84,0.69,3.96
22.071449995040894,-0.13,-3.94,0.69,4.0
22.073536157608032,0.71,-4.42,0.97,4.58
22.083829164505005,1.43,-5.29,1.31,5.63
22.093393087387085,1.75,-6.18,1.24,6.54
22.17017102241516,1.74,-6.99,1.03,7.27
22.17043709754944,1.31,-7.69,0.8,7.84
22.17069697380066,0.42,-8.35,0.5,8.37
22.170955896377563,-0.6,-9.05,0.12,9.07
22.171221017837524,-1.38,-9.93,0.28,10.02
22.172022104263306,-2.01,-10.57,0.73,10.78
22.172286987304688,-2.42,-10.61,0.79,10.91
22.17327904701233,-2.87,-10.17,0.58,10.58
22.183932065963745,-4.02,-9.34,-0.6,10.18
22.193259954452515,-4.56,-8.33,-2.75,9.88
22.270783185958862,-4.21,-7.34,-3.41,9.12
22.271051168441772,-4.31,-6.1,-3.86,8.4
22.271313905715942,-4.53,-4.53,-3.99,7.54
22.271573066711426,-5.32,-2.33,-4.27,7.2
22.27183198928833,-6.59,0.46,-5.11,8.35
22.27263307571411,-7.79,2.96,-5.7,10.09
22.273082971572876,-8.71,3.71,-6.41,11.43
22.273339986801147,-8.44,2.19,-6.21,10.7
22.283941984176636,-7.99,-0.23,-5.24,9.55
22.293148040771484,-7.97,-1.67,-4.65,9.37
22.371015071868896,-7.13,-2.32,-4.89,8.95
22.37128186225891,-5.44,-1.07,-4.22,6.96
22.37154507637024,-2.0,4.03,-2.25,5.03
22.37180209159851,3.35,5.33,-1.04,6.38
22.372062921524048,16.01,19.38,11.64,27.7
22.373053073883057,18.8,30.4,8.94,36.84
22.373313188552856,1.66,4.93,2.34,5.7
22.373569011688232,-2.48,-8.45,3.49,9.47
22.45567297935486,-3.59,-7.62,-0.52,8.43
22.455940008163452,-7.79,-3.93,-5.55,10.34
22.456198930740356,-9.92,-0.33,-9.87,13.99
22.456459999084473,-11.15,2.51,-8.42,14.19
22.456719160079956,-8.91,2.61,-7.0,11.62
22.456976175308228,-5.88,0.7,-5.24,7.9
22.457234144210815,-2.44,-0.8,-2.82,3.81
22.458029985427856,0.19,-0.61,-1.81,1.91
22.46277904510498,1.27,0.45,-1.88,2.31
22.472810983657837,0.38,1.27,-1.94,2.34
22.555733919143677,-0.84,1.44,-2.2,2.76
22.555997133255005,-1.17,0.89,-2.08,2.54
22.556257963180542,-1.23,0.23,-1.39,1.87
22.556514978408813,-1.7,-0.25,-0.7,1.85
22.556771993637085,-1.43,-0.21,-0.5,1.52
22.55702805519104,-0.65,0.0,-0.7,0.95
22.557284116744995,-0.09,-0.02,-1.06,1.06
22.55806612968445,0.0,-0.35,-1.2,1.25
22.56259799003601,-0.04,-0.59,-0.85,1.03
22.57257914543152,0.03,-0.53,-0.19,0.56
22.65605902671814,0.02,-0.24,0.58,0.62
22.656325101852417,-0.03,0.06,1.18,1.18
22.656591176986694,0.09,0.34,1.38,1.42
22.656858205795288,0.48,0.49,1.14,1.33
22.657111883163452,0.97,0.4,0.86,1.35
22.657367944717407,1.4,0.23,0.61,1.54
22.657623052597046,1.59,0.16,0.34,1.63
22.65840792655945,1.44,0.11,0.25,1.46
22.662330865859985,1.11,0.06,0.12,1.11
22.672406911849976,0.89,0.06,0.19,0.91
22.7558810710907,0.82,0.04,0.52,0.97
22.756152868270874,0.93,0.1,0.77,1.21
22.75641107559204,1.12,0.14,1.08,1.56
22.756666898727417,1.48,0.04,1.22,1.91
22.75692391395569,1.72,-0.15,0.94,1.96
22.75718092918396,1.68,-0.28,0.93,1.94
22.757436990737915,2.0,-0.13,1.05,2.26
22.758203983306885,2.22,0.13,0.76,2.35
22.76221799850464,2.02,0.19,1.27,2.39
22.77226996421814,2.09,0.32,1.73,2.73
22.78273892402649,2.04,0.42,1.8,2.75
22.856959104537964,1.79,0.42,1.86,2.61
22.8572199344635,1.86,0.59,1.87,2.7
22.857476949691772,2.07,0.98,1.24,2.6
22.85773205757141,1.99,1.41,0.72,2.54
22.85798716545105,1.93,2.1,0.94,3.0
22.858245134353638,2.14,2.79,1.63,3.87
22.8590190410614,2.54,2.87,2.21,4.42
22.86211109161377,3.42,2.76,2.44,5.02
22.8722140789032,4.2,2.91,3.07,5.96
22.882744073867798,4.65,3.07,3.52,6.59
22.957464933395386,5.08,3.92,3.18,7.16
22.957738161087036,5.76,6.46,2.11,8.9
22.958000898361206,7.02,10.29,3.75,13.0
22.958258867263794,6.84,12.16,6.76,15.5
22.95852017402649,6.65,11.77,7.42,15.42
22.958781957626343,7.16,12.3,6.57,15.67
22.95961904525757,6.28,12.96,6.48,15.79
22.96203112602234,4.43,12.47,5.95,14.5
22.97205901145935,4.0,10.2,3.17,11.4
22.98267388343811,5.02,7.42,1.05,9.01
23.05774998664856,4.24,6.32,0.07,7.61
23.058011054992676,1.76,8.04,-2.38,8.56
23.058274030685425,-0.06,9.98,-4.03,10.76
23.05853295326233,-0.79,9.06,-2.89,9.54
23.058789014816284,-1.9,5.52,-0.53,5.86
23.059048891067505,-3.65,2.08,-1.22,4.37
23.05984902381897,-3.34,0.16,-1.77,3.78
23.06198811531067,-2.06,1.06,-0.76,2.43
23.071969985961914,0.35,3.01,-0.75,3.12
23.082540035247803,2.38,3.12,-0.32,3.93
23.159180879592896,2.63,0.77,0.44,2.77
23.159446001052856,2.44,-1.98,0.92,3.27
23.15968918800354,2.44,-3.73,0.83,4.53
23.159947156906128,2.73,-4.33,0.94,5.2
23.160206079483032,2.62,-3.87,0.99,4.77
23.160463094711304,1.68,-3.31,0.68,3.77
23.161307096481323,0.73,-3.5,0.92,3.69
23.161765098571777,0.22,-4.15,1.4,4.38
23.171765089035034,0.02,-4.57,1.48,4.8
23.182321071624756,0.16,-4.63,1.3,4.81
23.25896716117859,0.51,-4.72,1.17,4.88
23.259236097335815,0.75,-5.06,1.18,5.24
23.259505033493042,0.85,-5.43,1.23,5.63
23.259763956069946,0.82,-5.93,1.18,6.1
23.260024070739746,0.75,-6.63,1.24,6.78
23.260284185409546,0.45,-7.49,1.39,7.63
23.26112198829651,-0.06,-8.28,1.51,8.41
23.26157307624817,-0.62,-8.9,1.33,9.02
23.27161717414856,-1.05,-9.2,1.37,9.36
23.282150983810425,-1.7,-9.14,1.52,9.42
23.358829021453857,-2.53,-8.65,1.24,9.09
23.359091997146606,-3.78,-8.17,0.34,9.0
23.359351873397827,-5.13,-7.95,-1.65,9.6
23.35961890220642,-5.89,-7.81,-3.02,10.23
23.35987687110901,-6.45,-7.03,-3.34,10.1
23.360135078430176,-6.7,-5.25,-3.71,9.28
23.360954999923706,-6.45,-2.84,-3.94,8.07
23.361857175827026,-6.36,0.01,-4.58,7.83
23.371491193771362,-6.72,2.92,-5.19,8.97
23.3820059299469,-7.23,4.48,-5.98,10.39
23.459596872329712,-7.56,3.38,-5.69,10.04
23.45986008644104,-7.36,1.3,-4.73,8.84
23.460118055343628,-6.41,0.42,-5.02,8.15
23.46037793159485,-5.33,-0.1,-5.28,7.5
23.46067786216736,-3.57,1.31,-4.44,5.84
23.46110987663269,-0.28,4.57,-2.68,5.3
23.461897134780884,1.09,1.91,-4.01,4.57
23.462156057357788,7.65,8.32,-0.54,11.31
23.471334218978882,14.08,23.12,11.44,29.38
23.48190999031067,8.08,11.66,6.35,15.54
23.557411909103394,1.88,-2.26,4.1,5.04
23.557674169540405,-0.2,-4.19,1.11,4.33
23.55793309211731,-3.79,-2.3,-1.24,4.6
23.55819010734558,-6.92,-0.44,-6.06,9.2
23.558447122573853,-9.87,0.79,-9.23,13.53
23.55870509147644,-10.67,1.08,-8.02,13.39
23.55949306488037,-8.48,-0.09,-5.92,10.34
23.561174154281616,-6.53,-1.38,-4.41,7.99
23.57113814353943,-4.01,-0.79,-3.72,5.52
23.581775903701782,-1.5,0.85,-4.1,4.44
23.658051013946533,-0.43,1.96,-4.14,4.6
23.658299207687378,-0.77,1.96,-2.21,3.05
23.65854001045227,-0.77,1.41,-0.95,1.86
23.65879797935486,0.02,0.61,-0.57,0.83
23.659055948257446,0.53,-0.36,0.26,0.69
23.659321069717407,0.22,-0.76,0.51,0.94
23.66011905670166,0.25,-0.23,0.43,0.54
23.661059141159058,0.47,0.46,0.16,0.67
23.670986890792847,0.61,0.65,-0.58,1.06
23.68159508705139,0.43,0.13,-1.23,1.3
23.758482217788696,0.12,-0.66,-1.2,1.37
23.75875210762024,-0.03,-0.88,-0.74,1.15
23.759018182754517,-0.02,-0.48,-0.01,0.48
23.759276151657104,0.19,0.02,0.81,0.83
23.75953221321106,0.59,0.35,1.21,1.39
23.759802103042603,0.93,0.44,1.09,1.49
23.76079821586609,1.0,0.28,1.02,1.45
23.761054039001465,1.12,0.09,0.95,1.47
23.770891904830933,1.45,0.12,0.73,1.62
23.781423091888428,1.76,0.29,0.67,1.9
23.858440160751343,1.72,0.42,0.65,1.88
23.85870099067688,1.4,0.36,0.99,1.75
23.858964204788208,1.21,0.04,1.46,1.89
23.85922598838806,1.23,-0.39,1.65,2.09
23.859483003616333,1.43,-0.7,1.44,2.14
23.859740018844604,1.62,-0.67,0.93,1.98
23.86073899269104,1.64,-0.26,0.42,1.71
23.860996961593628,1.49,0.33,-0.16,1.53
23.870625019073486,1.28,0.69,-0.18,1.46
23.881269216537476,1.13,0.79,-0.08,1.38
23.958242177963257,1.17,0.8,0.58,1.53
23.95850706100464,1.41,0.6,1.07,1.86
23.958765029907227,1.76,0.3,1.75,2.5
23.959022045135498,2.39,0.22,2.37,3.37
23.959280014038086,3.04,0.63,2.38,3.91
23.959534883499146,3.52,1.25,2.36,4.41
23.960559129714966,3.83,1.87,2.56,4.97
23.960828065872192,4.03,2.24,2.64,5.31
23.97059202194214,4.37,2.35,2.53,5.56
23.981210947036743,4.69,2.58,2.8,6.04
24.059069871902466,5.0,2.91,3.36,6.69
24.0593421459198,5.35,3.33,3.94,7.43
24.059598207473755,5.51,3.91,4.6,8.17
24.059891939163208,5.45,5.19,4.92,8.99
24.060347080230713,5.71,8.35,4.2,10.95
24.060604095458984,6.54,12.66,5.74,15.36
24.061371088027954,6.95,14.3,8.54,18.04
24.061629056930542,7.17,12.92,7.67,16.64
24.070466995239258,5.62,11.47,7.4,14.76
24.08098292350769,4.31,11.54,6.09,13.74
24.15895104408264,4.64,10.76,3.45,12.21
24.15921902656555,5.52,8.86,1.42,10.53
24.159476041793823,4.53,8.33,0.22,9.48
24.1599600315094,2.01,9.87,-2.23,10.31
24.160226106643677,0.36,10.56,-5.01,11.69
24.160482168197632,0.08,7.93,-3.63,8.72
24.161296129226685,-1.45,3.67,-0.76,4.01
24.161553144454956,-4.32,0.02,-1.78,4.67
24.170203924179077,-5.11,-1.98,-3.84,6.69
24.180887937545776,-3.98,-1.05,-2.78,4.96
24.25997519493103,-0.83,0.91,-1.62,2.03
24.260245084762573,1.56,1.16,-0.85,2.12
24.26050305366516,2.44,-0.58,0.1,2.5
24.260762929916382,3.06,-2.47,0.83,4.01
24.261018991470337,4.02,-3.05,0.86,5.11
24.261278867721558,4.51,-2.59,0.17,5.2
24.262099981307983,3.26,-2.46,-0.95,4.19
24.26235795021057,1.62,-2.78,-1.22,3.44
24.270009994506836,0.68,-2.99,-0.55,3.11
24.280662059783936,0.11,-3.02,0.13,3.02
24.3598849773407,-0.24,-3.33,0.01,3.33
24.36015009880066,-0.21,-4.09,-0.5,4.12
24.360409021377563,0.11,-4.95,-0.94,5.03
24.360667943954468,0.4,-5.54,-1.31,5.7
24.360931158065796,0.5,-5.91,-1.64,6.15
24.3611900806427,0.4,-6.17,-1.62,6.39
24.361992120742798,0.12,-6.47,-1.33,6.6
24.362250089645386,-0.36,-7.04,-1.02,7.12
24.36995816230774,-0.88,-7.92,-0.63,7.99
24.380561113357544,-1.24,-8.9,-0.15,8.98
24.460020065307617,-1.43,-9.6,0.07,9.7
24.46028208732605,-1.67,-9.89,-0.06,10.03
24.46054196357727,-2.0,-9.69,-0.54,9.9
24.46079993247986,-2.51,-9.19,-0.95,9.57
24.461064100265503,-3.35,-8.49,-1.79,9.3
24.461323022842407,-4.14,-7.78,-3.3,9.41
24.462131023406982,-4.86,-7.38,-4.3,9.82
24.4623920917511,-5.63,-7.15,-4.41,10.11
24.469778060913086,-6.61,-6.51,-4.51,10.31
24.480454206466675,-7.51,-5.06,-5.3,10.49
24.559650182724,-8.19,-3.04,-5.99,10.59
24.55991816520691,-8.75,-0.8,-6.15,10.72
24.560179948806763,-8.69,1.18,-6.21,10.74
24.560436964035034,-7.89,2.12,-6.01,10.14
24.56069302558899,-6.84,1.72,-5.41,8.88
24.560949087142944,-6.44,1.08,-4.95,8.19
24.56171202659607,-6.63,0.78,-4.82,8.23
24.56196904182434,-6.25,-0.1,-4.41,7.64
24.56969714164734,-4.78,0.94,-3.3,5.88
24.580322980880737,1.3,4.59,-2.07,5.2
24.659789085388184,12.6,10.39,2.23,16.48
24.660067081451416,30.06,28.68,17.81,45.2
24.66033387184143,17.71,19.98,13.97,30.13
24.660592079162598,-1.28,1.71,4.06,4.58
24.660851001739502,-4.82,-4.79,1.42,6.94
24.661112070083618,-8.37,-6.48,0.84,10.61
24.66186809539795,-11.68,-3.96,-2.59,12.6
24.66212821006775,-13.45,-0.7,-6.68,15.03
24.669424057006836,-11.12,1.49,-8.62,14.14
24.68007206916809,-7.82,2.8,-7.42,11.13
24.75958514213562,-4.27,1.66,-6.32,7.8
24.759852170944214,-2.49,-0.48,-6.24,6.73
24.76011300086975,-2.41,-1.29,-6.54,7.08
24.760371923446655,-2.11,-0.03,-5.26,5.66
24.760628938674927,-1.53,1.62,-2.31,3.2
24.760889053344727,-0.39,2.21,0.16,2.24
24.761651039123535,1.13,1.46,1.14,2.16
24.761908054351807,2.21,0.24,1.58,2.72
24.769366979599,1.78,-0.4,1.39,2.29
24.779948949813843,0.88,-0.41,1.04,1.42
24.86039090156555,0.25,-0.26,0.57,0.67
24.860658884048462,-0.27,-0.16,-0.38,0.49
24.860929012298584,-0.81,-0.26,-1.4,1.63
24.861186027526855,-1.59,-0.51,-1.88,2.51
24.861443996429443,-1.97,-0.61,-1.41,2.49
24.861697912216187,-1.45,-0.39,-0.54,1.59
24.862446069717407,-0.16,0.04,0.27,0.31
24.86270809173584,1.23,0.64,0.39,1.44
24.869246006011963,2.14,0.84,0.55,2.36
24.87971806526184,2.27,0.53,0.45,2.37
24.960249185562134,1.92,0.11,0.44,1.97
24.960516214370728,1.4,-0.06,0.62,1.53
24.96077799797058,0.88,0.07,0.73,1.14
24.961034059524536,0.47,0.24,0.91,1.05
24.961289167404175,0.44,0.2,1.13,1.22
24.96154808998108,0.74,-0.05,1.3,1.49
24.9623601436615,1.06,-0.46,1.26,1.7
24.962621927261353,1.16,-0.85,1.03,1.76
24.968980073928833,1.29,-0.79,0.71,1.67
24.979579210281372,1.4,-0.23,0.3,1.45
25.059983015060425,1.19,0.44,0.03,1.26
25.060245990753174,0.85,0.79,0.1,1.16
25.060505151748657,0.91,0.72,0.63,1.32
25.060761213302612,1.4,0.41,1.4,2.02
25.061016082763672,1.98,0.13,1.57,2.53
25.061269998550415,2.4,-0.1,2.3,3.32
25.062031030654907,2.79,-0.1,2.48,3.73
25.062286138534546,3.01,0.31,2.16,3.71
25.068804025650024,2.7,0.82,2.17,3.55
25.079423189163208,2.46,1.33,2.1,3.49
25.160283088684082,2.81,1.83,2.1,3.95
25.160547018051147,3.53,2.38,2.57,4.97
25.16080904006958,4.11,2.64,3.08,5.77
25.16106390953064,4.43,2.67,3.17,6.06
25.161319971084595,4.56,2.84,3.55,6.43
25.16157603263855,4.47,3.38,3.8,6.77
25.16233801841736,4.77,5.26,3.11,7.75
25.162596940994263,6.08,8.77,3.64,11.27
25.168615102767944,6.27,10.72,6.37,13.95
25.17930507659912,5.72,10.0,7.35,13.66
25.260483026504517,5.45,10.12,7.94,13.96
25.260748147964478,4.4,10.89,8.47,14.48
25.261006116867065,2.81,11.43,7.54,13.97
25.261264085769653,1.99,11.17,5.21,12.48
25.26153302192688,2.12,8.93,2.17,9.43
25.261789083480835,2.21,7.37,0.74,7.72
25.262572050094604,0.8,8.69,0.25,8.73
25.262830018997192,-0.51,10.9,-2.78,11.26
25.26856017112732,-0.58,10.32,-4.29,11.19
25.279146909713745,0.2,6.58,-1.58,6.76
25.36030602455139,-0.23,2.76,0.54,2.82
25.360570192337036,-2.2,0.11,-0.89,2.37
25.360836029052734,-1.94,-0.58,-2.16,2.96
25.361099004745483,-0.07,1.32,-1.33,1.87
25.361356019973755,2.27,3.28,-1.12,4.14
25.361621141433716,3.48,2.91,-0.68,4.58
25.362425088882446,3.5,0.27,0.13,3.51
25.362690210342407,3.42,-2.36,0.76,4.22
25.368704080581665,3.75,-3.01,0.82,4.87
25.379029035568237,4.15,-2.03,0.16,4.62
25.46114993095398,3.45,-1.56,-0.76,3.86
25.461424112319946,2.19,-2.31,-0.84,3.29
25.461684942245483,1.84,-2.92,-0.15,3.45
25.461950063705444,1.92,-3.02,0.35,3.59
25.462212085723877,1.95,-3.21,0.13,3.75
25.462472200393677,1.81,-3.82,-0.22,4.23
25.46327519416809,1.6,-4.44,-0.44,4.73
25.46353507041931,1.26,-4.7,-0.73,4.92
25.46848702430725,0.9,-4.83,-0.96,5.0
25.47870898246765,0.66,-5.31,-0.96,5.43
25.5605309009552,0.33,-6.19,-0.78,6.24
25.560801029205322,-0.1,-7.18,-0.65,7.21
25.561064958572388,-0.68,-8.05,-0.59,8.1
25.561322927474976,-1.22,-8.68,-0.51,8.78
25.561583995819092,-1.65,-9.02,-0.54,9.18
25.561845064163208,-2.22,-8.95,-0.9,9.26
25.56260108947754,-2.89,-8.54,-1.33,9.11
25.562859058380127,-3.63,-8.22,-2.22,9.25
25.568451166152954,-4.37,-7.92,-3.73,9.78
25.578742027282715,-4.78,-7.39,-4.69,9.97
25.66038489341736,-4.94,-6.38,-4.92,9.45
25.66065001487732,-5.18,-4.64,-5.34,8.76
25.66091513633728,-5.51,-2.5,-5.91,8.45
25.661175966262817,-6.13,-0.08,-6.03,8.59
25.661437034606934,-7.02,2.48,-5.97,9.54
25.66169810295105,-7.94,4.23,-6.17,10.9
25.662471055984497,-8.67,3.53,-6.13,11.18
25.662729024887085,-8.56,0.86,-5.82,10.38
25.66791796684265,-7.97,-1.29,-5.66,9.86
25.678582906723022,-7.25,-1.74,-5.51,9.27
25.759907960891724,-5.48,0.75,-5.1,7.52
25.76017689704895,-1.01,3.42,-2.47,4.33
25.760436058044434,3.29,2.78,-1.63,4.6
25.760698080062866,14.47,16.24,10.56,24.17
25.760956048965454,21.17,28.51,14.62,38.4
25.761211156845093,3.09,6.86,4.74,8.89
25.762017965316772,-6.53,-5.38,4.92,9.78
25.762274980545044,-7.44,-6.43,-0.91,9.87
25.76775813102722,-10.78,-4.45,-2.15,11.85
25.77839493751526,-13.14,-1.23,-7.6,15.22
25.859968900680542,-12.13,1.38,-10.76,16.27
25.860230207443237,-9.41,3.06,-8.39,12.97
25.860496997833252,-5.29,2.23,-5.9,8.23
25.860760927200317,-1.61,-0.37,-4.48,4.77
25.861016988754272,0.58,-1.72,-3.98,4.37
25.861275911331177,1.17,-0.36,-3.32,3.53
25.86203694343567,0.56,1.6,-2.79,3.26
25.862295866012573,-0.4,2.15,-2.2,3.1
25.867577075958252,-0.85,1.39,-0.92,1.87
25.878278017044067,-0.75,0.25,-0.01,0.79
25.96046209335327,-1.17,-0.46,0.34,1.3
25.960726976394653,-1.67,-0.36,0.42,1.75
25.96099019050598,-1.27,0.11,-0.05,1.27
25.961257219314575,-0.47,0.42,-0.68,0.92
25.96151614189148,0.11,0.27,-1.01,1.05
25.9617760181427,0.5,-0.34,-1.07,1.22
25.962565183639526,0.79,-0.69,-0.88,1.36
25.962826013565063,1.08,-0.55,-0.39,1.27
25.967541933059692,1.02,-0.24,0.09,1.05
25.97807502746582,0.82,0.08,0.42,0.92
26.060267210006714,0.8,0.3,0.78,1.15
26.060516119003296,1.0,0.34,0.78,1.31
26.060770988464355,1.46,0.2,0.63,1.6
26.061026096343994,1.72,0.19,0.47,1.79
26.061280012130737,1.56,0.27,0.42,1.63
26.061537981033325,1.13,0.29,0.46,1.25
26.062417030334473,0.71,0.34,0.63,1.0
26.062676191329956,0.54,0.32,0.97,1.15
26.06742215156555,0.52,0.12,0.94,1.08
26.077956914901733,0.67,-0.2,0.89,1.13
26.160984992980957,0.55,-0.42,0.5,0.85
26.161251068115234,0.35,-0.34,0.09,0.49
26.16151213645935,0.42,-0.02,-0.05,0.42
26.161772966384888,0.62,0.31,0.08,0.69
26.16203999519348,0.99,0.5,0.4,1.17
26.162297010421753,1.82,0.37,1.14,2.17
26.163056135177612,2.67,0.04,1.98,3.32
26.163313150405884,3.41,-0.14,2.35,4.14
26.167112112045288,3.89,-0.1,2.68,4.72
26.177762985229492,4.23,0.01,3.19,5.29
26.26076912879944,4.51,0.33,3.03,5.44
26.26103401184082,4.3,0.6,3.16,5.36
26.261292219161987,4.0,1.05,2.85,5.02
26.261550188064575,3.86,1.86,2.55,4.98
26.26181387901306,3.93,2.68,2.73,5.48
26.26207208633423,4.32,3.33,3.05,6.24
26.26287603378296,4.77,3.42,3.52,6.84
26.26313090324402,5.08,3.26,4.25,7.38
26.267042875289917,5.24,3.54,4.7,7.87
26.277570009231567,5.97,5.46,4.13,9.08
26.36086106300354,7.79,9.19,5.08,13.07
26.36113715171814,7.89,11.97,6.79,15.86
26.361398935317993,5.79,11.88,7.23,15.06
26.36165690422058,3.58,11.26,8.85,14.76
26.361912965774536,2.23,11.98,8.38,14.78
26.36217999458313,2.7,11.84,5.34,13.26
26.362973928451538,4.47,9.79,2.2,10.98
26.36323308944702,4.13,8.04,0.5,9.05
26.366851091384888,2.17,8.29,0.17,8.57
26.377393007278442,-0.02,9.95,-3.39,10.51
26.460615873336792,-1.3,10.47,-4.71,11.55
26.46087908744812,-1.08,7.71,-2.09,8.06
26.46113896369934,-1.69,3.44,-0.61,3.88
26.461395978927612,-2.88,-0.15,-1.98,3.49
26.461652040481567,-2.0,-1.37,-1.82,3.03
26.46190905570984,0.14,0.25,-0.33,0.43
26.462714910507202,2.6,1.72,0.0,3.11
26.46297287940979,4.36,1.22,0.8,4.59
26.46661901473999,4.94,-0.34,1.58,5.19
26.477146863937378,4.51,-1.34,1.05,4.82
26.56114411354065,4.02,-1.11,-0.27,4.17
26.5614070892334,3.92,-0.14,-1.13,4.08
26.561666011810303,3.38,-0.31,-1.6,3.75
26.561922073364258,2.33,-1.82,-1.41,3.27
26.56217908859253,1.93,-2.94,-0.61,3.56
26.562434911727905,2.02,-3.13,0.05,3.72
26.563230991363525,1.93,-2.9,-0.22,3.49
26.563488006591797,1.61,-2.96,-0.85,3.47
26.566471099853516,1.18,-3.43,-1.07,3.78
26.577125072479248,0.65,-3.83,-1.4,4.12
26.661200046539307,0.26,-4.29,-1.85,4.67
26.66147208213806,-0.04,-5.01,-1.99,5.39
26.6617329120636,-0.4,-5.93,-1.8,6.21
26.661994218826294,-0.96,-6.94,-1.54,7.17
26.662258863449097,-1.56,-7.92,-1.41,8.19
26.66251492500305,-2.04,-8.79,-1.15,9.09
26.663283109664917,-2.51,-9.39,-0.97,9.76
26.663549184799194,-3.3,-9.52,-1.29,10.15
26.66643214225769,-4.48,-9.25,-1.96,10.46
26.677004098892212,-5.45,-8.72,-2.7,10.63
26.761101007461548,-5.84,-8.02,-3.84,10.63
26.761367082595825,-6.35,-7.35,-4.63,10.76
26.761632204055786,-6.96,-6.24,-5.3,10.74
26.761890172958374,-7.17,-4.25,-5.51,9.99
26.762147188186646,-7.57,-1.5,-5.92,9.72
26.762404203414917,-8.67,1.47,-6.68,11.04
26.763167142868042,-9.93,3.28,-7.2,12.69
26.76341986656189,-10.24,2.49,-7.08,12.69
26.76651120185852,-9.16,0.52,-6.57,11.28
26.776851892471313,-8.04,-0.49,-6.52,10.36
26.86119294166565,-6.85,-1.47,-6.09,9.28
26.86146306991577,-5.09,-2.34,-4.35,7.09
26.861726999282837,-3.71,-0.15,-3.82,5.32
26.861992120742798,0.51,3.24,-3.36,4.69
26.862255096435547,9.3,7.26,1.79,11.93
26.86251997947693,25.27,24.57,17.97,39.56
26.863301038742065,17.02,20.77,11.15,29.07
26.863563060760498,-2.89,2.08,2.9,4.59
26.866066217422485,-7.35,-5.19,0.88,9.04
26.87669587135315,-10.1,-5.99,-1.05,11.78
26.96168804168701,-13.09,-1.93,-5.25,14.23
26.96195387840271,-13.9,2.49,-10.21,17.42
26.962213039398193,-12.7,4.03,-9.99,16.65
26.962481021881104,-8.05,2.66,-7.83,11.54
26.96274209022522,-3.48,-0.5,-6.26,7.17
26.96299910545349,-1.14,-2.56,-6.34,6.93
26.96379017829895,-0.03,-1.3,-6.21,6.34
26.964057207107544,0.01,1.34,-6.02,6.16
26.965935945510864,-0.85,2.55,-3.14,4.13
26.97648000717163,-1.61,1.96,0.36,2.56
27.061964988708496,-1.42,1.08,1.18,2.13
27.062237977981567,-1.09,0.32,1.54,1.91
27.062502145767212,-0.34,-0.07,1.2,1.24
27.06276798248291,0.76,-0.12,0.72,1.05
27.06302809715271,1.41,-0.03,-0.18,1.42
27.063288927078247,1.35,-0.46,-0.97,1.72
27.064122915267944,0.69,-1.04,-1.24,1.75
27.064385175704956,-0.24,-0.97,-1.56,1.85
27.065818071365356,-0.97,-0.4,-1.29,1.66
27.07641100883484,-1.4,0.26,-0.39,1.47
27.16213297843933,-1.45,0.77,0.44,1.69
27.16239309310913,-0.9,1.06,0.82,1.61
27.162649869918823,0.04,0.94,0.77,1.21
27.162909984588623,0.87,0.54,0.07,1.02
27.163172960281372,1.55,0.12,0.11,1.55
27.163431882858276,2.41,-0.17,0.99,2.61
27.164216995239258,3.36,-0.28,1.76,3.8
27.164478063583374,4.06,-0.36,2.34,4.69
27.165706872940063,4.2,-0.61,2.73,5.04
27.176193952560425,3.85,-0.83,2.54,4.68
27.259829998016357,3.19,-0.61,1.87,3.74
27.261247873306274,2.54,-0.18,1.15,2.79
27.26151704788208,2.31,0.15,0.71,2.42
27.26177716255188,2.55,0.22,0.56,2.62
27.262035131454468,2.8,-0.01,0.9,2.94
27.26229214668274,2.94,-0.22,1.14,3.16
27.263077974319458,2.81,-0.16,1.22,3.06
27.263335943222046,2.29,-0.09,1.63,2.81
27.265475034713745,1.95,0.18,1.74,2.61
27.276045083999634,1.74,0.55,1.88,2.62
27.28547692298889,1.67,0.91,1.78,2.6
27.360820055007935,1.7,1.13,1.62,2.6
27.361083984375,2.03,1.27,1.49,2.82
27.361346006393433,2.54,1.49,1.51,3.3
27.361605882644653,3.12,1.97,1.98,4.18
27.361860990524292,3.56,2.41,2.64,5.04
27.36262011528015,3.96,2.41,3.04,5.54
27.362881898880005,4.37,2.53,3.51,6.14
27.36534094810486,5.11,3.43,3.72,7.19
27.375887155532837,6.87,5.82,3.5,9.66
27.38526701927185,8.67,8.83,4.92,13.31
27.460973978042603,8.43,10.43,6.09,14.72
27.461238145828247,6.63,10.32,6.75,14.0
27.461498022079468,3.3,10.28,7.95,13.4
27.461760997772217,1.02,11.37,7.25,13.52
27.462030172348022,2.31,12.09,3.38,12.76
27.462836027145386,4.52,10.25,0.62,11.21
27.463093996047974,5.37,8.16,0.48,9.78
27.465266942977905,4.65,7.89,0.65,9.18
27.475794076919556,3.15,8.98,-1.32,9.6
27.48513102531433,1.3,9.77,-4.32,10.76
27.561751127243042,-0.03,7.91,-3.27,8.55
27.562021017074585,-1.68,4.18,-0.54,4.53
27.562283992767334,-3.49,0.88,-0.9,3.71
27.562541007995605,-3.39,-0.68,-1.83,3.91
27.562799215316772,-1.86,0.51,-0.22,1.94
27.563589096069336,0.69,2.39,0.58,2.55
27.56384587287903,2.97,2.58,1.02,4.06
27.565064191818237,4.03,0.66,1.72,4.43
27.575637102127075,3.97,-1.53,1.78,4.61
27.585192918777466,3.62,-2.96,1.1,4.8
27.662015199661255,3.41,-3.23,0.69,4.74
27.66228199005127,3.04,-2.64,0.49,4.05
27.662545919418335,1.97,-2.32,0.33,3.06
27.66280198097229,0.87,-2.72,0.47,2.89
27.66305708885193,0.47,-3.09,0.69,3.2
27.663817167282104,0.32,-3.08,0.82,3.2
27.66407608985901,-0.08,-2.8,0.31,2.81
27.664934873580933,-0.3,-2.65,-0.3,2.68
27.675435066223145,-0.38,-2.87,-0.6,2.95
27.68490195274353,-0.44,-3.3,-0.84,3.43
27.76169514656067,-0.48,-3.99,-1.03,4.14
27.761962175369263,-0.58,-4.98,-1.02,5.11
27.762229204177856,-0.82,-6.01,-0.83,6.12
27.76249599456787,-1.22,-6.86,-0.48,6.98
27.762754201889038,-1.7,-7.48,-0.22,7.67
27.763545036315918,-1.98,-7.88,-0.07,8.12
27.7638041973114,-2.19,-7.91,0.01,8.2
27.76480007171631,-2.32,-7.63,0.16,7.97
27.775317907333374,-2.55,-7.36,-0.05,7.78
27.784695863723755,-3.14,-7.22,-1.16,7.95
27.86131501197815,-4.36,-7.22,-2.67,8.84
27.861582040786743,-5.4,-7.05,-3.72,9.62
27.86184287071228,-6.11,-6.23,-4.35,9.75
27.862105131149292,-6.4,-4.69,-5.08,9.42
27.862361192703247,-6.68,-3.02,-5.5,9.16
27.863118886947632,-7.08,-1.53,-5.82,9.29
27.8633770942688,-7.39,-0.25,-6.19,9.64
27.864606142044067,-7.68,0.75,-6.33,9.98
27.875170946121216,-8.02,1.07,-6.08,10.12
27.884616136550903,-8.21,1.0,-5.84,10.12
27.961321115493774,-7.83,0.38,-6.09,9.92
27.96159601211548,-7.09,-0.73,-5.87,9.23
27.961854219436646,-6.06,-1.47,-5.16,8.09
27.962122201919556,-4.48,0.29,-4.28,6.2
27.962382078170776,-0.42,4.07,-2.15,4.62
27.963154077529907,5.14,5.16,-0.34,7.29
27.963414907455444,18.3,19.87,11.99,29.55
27.964492082595825,21.11,25.47,12.24,35.27
27.97496008872986,0.98,4.73,3.45,5.93
27.984459161758423,-4.78,-4.95,2.04,7.17
28.058556079864502,-6.09,-6.55,0.31,8.94
28.058820009231567,-9.22,-4.99,-1.19,10.55
28.05908513069153,-11.04,-1.22,-5.33,12.31
28.059346914291382,-10.11,1.18,-7.99,12.94
28.059609174728394,-7.11,2.32,-6.84,10.13
28.06040596961975,-4.09,1.86,-5.39,7.01
28.060664892196655,-1.81,0.05,-5.62,5.9
28.064287900924683,-1.04,-1.16,-5.49,5.7
28.075359106063843,-0.51,-0.23,-4.51,4.54
28.08422017097473,-0.46,1.62,-2.76,3.23
28.159806966781616,-0.4,2.15,-1.22,2.5
28.160073041915894,-0.13,1.1,-0.04,1.1
28.160335063934326,0.09,-0.08,0.74,0.74
28.16060209274292,-0.52,-0.48,0.6,0.92
28.160863161087036,-1.66,-0.38,0.27,1.72
28.16164803504944,-1.97,-0.08,0.06,1.97
28.161906957626343,-1.53,0.26,-0.53,1.63
28.164148092269897,-0.93,0.35,-1.2,1.55
28.174638986587524,-0.57,-0.11,-1.48,1.58
28.184174060821533,-0.42,-0.57,-1.29,1.47
28.259208917617798,-0.26,-0.52,-0.78,0.97
28.25947904586792,-0.16,-0.21,0.03,0.26
28.259746074676514,0.01,0.16,0.73,0.74
28.260004997253418,0.29,0.43,1.15,1.26
28.260259866714478,0.71,0.5,0.9,1.25
28.261045217514038,1.12,0.38,0.65,1.34
28.261300086975098,1.26,0.26,0.47,1.36
28.264064073562622,1.22,0.16,0.48,1.32
28.274513959884644,1.23,0.09,0.72,1.42
28.284065008163452,1.47,0.11,1.07,1.82
28.358992099761963,1.93,0.09,1.66,2.54
28.35925602912903,2.44,0.01,2.13,3.23
28.359522104263306,2.78,-0.33,2.19,3.55
28.359782934188843,3.02,-0.76,2.01,3.7
28.360038995742798,2.97,-0.84,1.57,3.46
28.3608238697052,2.47,-0.44,0.89,2.66
28.361083984375,1.89,0.2,0.54,1.97
28.363723039627075,1.38,0.61,0.4,1.56
28.374354124069214,1.25,0.64,1.01,1.72
28.383755922317505,1.71,0.54,1.37,2.25
28.458449125289917,2.22,0.28,1.94,2.96
28.45871901512146,2.81,0.02,2.4,3.69
28.458977937698364,3.24,0.16,2.33,3.99
28.459235906600952,3.13,0.68,1.92,3.73
28.45949101448059,2.51,1.43,1.69,3.34
28.460292100906372,2.03,2.3,1.53,3.42
28.460548162460327,2.04,2.99,1.85,4.06
28.463685035705566,2.4,3.11,2.27,4.53
28.47417712211609,2.95,2.89,2.55,4.85
28.483661890029907,3.52,2.76,3.14,5.46
28.558727979660034,3.95,2.8,3.75,6.12
28.558995008468628,4.12,3.46,3.92,6.65
28.55925703048706,4.24,5.36,3.54,7.69
28.559516191482544,5.07,8.67,4.04,10.82
28.559776067733765,5.66,11.23,6.61,14.2
28.56055521965027,6.01,11.54,7.64,15.08
28.560816049575806,5.97,11.24,7.1,14.57
28.56355905532837,4.87,11.16,7.04,14.06
28.57406497001648,3.76,11.23,5.14,12.91
28.583543062210083,3.38,9.81,2.33,10.63
28.65920901298523,2.98,7.43,0.56,8.02
28.65947413444519,1.87,6.58,0.01,6.84
28.659743070602417,0.4,8.07,-0.76,8.11
28.660002946853638,-0.7,9.24,-3.89,10.04
28.660269021987915,-0.21,7.61,-3.78,8.49
28.661070108413696,-0.32,3.89,-1.12,4.06
28.661330938339233,-2.11,0.56,-0.02,2.18
28.663405179977417,-3.26,-1.74,-1.91,4.15
28.67393708229065,-2.13,-1.06,-1.8,2.98
28.683319091796875,0.45,1.55,-0.77,1.78
28.759595155715942,2.81,3.04,-0.07,4.14
28.759859085083008,3.51,2.09,0.82,4.16
28.760118007659912,3.47,-0.32,1.88,3.95
28.760385990142822,3.51,-2.04,2.16,4.59
28.76064109802246,3.6,-2.1,1.74,4.51
28.76141619682312,3.25,-1.51,0.87,3.68
28.76167607307434,1.89,-1.67,0.15,2.52
28.763236045837402,0.64,-2.44,0.24,2.53
28.77372717857361,0.23,-2.86,0.77,2.97
28.783223867416382,0.08,-2.88,0.96,3.03
28.860143899917603,-0.13,-2.64,0.31,2.66
28.860405206680298,-0.14,-2.66,-0.31,2.68
28.860666036605835,-0.12,-2.81,-0.79,2.92
28.860924005508423,-0.26,-2.92,-1.28,3.19
28.861181020736694,-0.39,-3.2,-1.57,3.58
28.861963987350464,-0.54,-3.85,-1.43,4.14
28.86222195625305,-0.72,-4.8,-1.13,4.98
28.86316204071045,-0.99,-5.93,-0.88,6.07
28.873635053634644,-1.39,-6.95,-0.61,7.11
28.883015871047974,-1.74,-7.75,-0.35,7.95
28.960144996643066,-1.91,-8.32,-0.18,8.53
28.9604070186615,-2.01,-8.58,-0.15,8.81
28.96067214012146,-2.2,-8.55,-0.44,8.83
28.960936069488525,-2.62,-8.43,-1.03,8.88
28.9611918926239,-3.15,-8.13,-1.58,8.86
28.961977005004883,-3.84,-7.53,-2.32,8.76
28.96225094795227,-4.28,-6.81,-3.32,8.7
28.962959051132202,-4.61,-6.18,-3.94,8.65
28.973397970199585,-5.08,-5.46,-4.65,8.78
28.982901096343994,-5.8,-4.38,-5.48,9.1
29.059273958206177,-6.66,-2.72,-6.11,9.43
29.059540033340454,-7.53,-0.58,-6.55,9.99
29.059799909591675,-8.33,1.01,-6.79,10.79
29.06006121635437,-8.75,0.91,-6.75,11.08
29.06032109260559,-8.74,-0.14,-6.51,10.89
29.061124086380005,-8.31,-1.26,-6.43,10.58
29.06138300895691,-7.07,-2.06,-5.72,9.32
29.062846899032593,-5.09,-1.2,-4.94,7.19
29.073312044143677,-1.36,4.04,-2.51,4.94
29.082787036895752,5.1,6.95,0.37,8.62
29.159491062164307,17.53,20.65,12.33,29.76
29.15976119041443,24.39,30.68,13.38,41.41
29.16002106666565,3.89,3.99,3.81,6.75
29.16028094291687,-3.48,-8.55,3.01,9.7
29.16053795814514,-5.25,-8.33,-0.32,9.85
29.161325216293335,-9.23,-6.31,-2.12,11.37
29.161583185195923,-9.95,-2.72,-7.65,12.84
29.16261100769043,-8.51,0.63,-10.29,13.36
29.173189878463745,-7.42,2.99,-7.05,10.66
29.1825590133667,-4.23,2.85,-5.2,7.28
29.259441137313843,-1.66,0.26,-5.02,5.29
29.25971293449402,-0.61,-1.19,-4.36,4.56
29.259958028793335,-0.61,-0.03,-2.49,2.56
29.26021909713745,-1.38,1.77,-1.17,2.53
29.260478019714355,-1.42,2.13,-1.37,2.9
29.261245012283325,-1.03,1.12,-1.34,2.02
29.261507034301758,-0.82,0.13,-1.36,1.59
29.26249599456787,-0.91,-0.16,-1.62,1.86
29.272987127304077,-1.41,-0.29,-1.55,2.11
29.28238606452942,-1.88,-0.29,-1.44,2.38
29.35972499847412,-1.76,0.07,-1.55,2.34
29.35998797416687,-1.54,0.29,-1.56,2.21
29.360245943069458,-1.15,0.14,-1.28,1.72
29.360507011413574,-0.55,-0.04,-0.59,0.8
29.360764026641846,-0.03,-0.16,0.43,0.45
29.361590147018433,0.4,-0.18,1.37,1.43
29.361854076385498,0.85,-0.05,1.56,1.77
29.362412214279175,1.24,0.21,1.29,1.8
29.372865915298462,1.4,0.38,0.76,1.63
29.382426977157593,1.28,0.34,0.35,1.36
29.460026025772095,1.09,0.06,0.66,1.27
29.460292100906372,1.1,-0.07,0.79,1.35
29.460553884506226,1.18,0.02,1.0,1.54
29.46081304550171,1.24,0.18,1.11,1.67
29.461068868637085,1.13,0.29,0.87,1.45
29.462069034576416,0.87,0.23,0.94,1.3
29.462308168411255,0.58,0.06,0.94,1.1
29.46256399154663,0.45,-0.15,0.75,0.88
29.472684144973755,0.79,-0.23,0.71,1.08
29.482239961624146,1.62,-0.09,0.58,1.72
29.559006929397583,2.46,0.24,0.71,2.57
29.559272050857544,2.96,0.51,1.11,3.2
29.559531927108765,2.79,0.57,1.42,3.18
29.55978798866272,2.39,0.39,2.09,3.19
29.560042142868042,2.6,0.3,1.99,3.28
29.56083607673645,2.81,0.5,1.82,3.38
29.561092138290405,3.05,1.01,1.87,3.71
29.561907052993774,3.24,1.64,2.11,4.19
29.57247519493103,3.42,2.22,2.08,4.57
29.5819308757782,3.71,2.87,2.07,5.12
29.658881902694702,3.96,3.42,2.21,5.67
29.65914797782898,4.29,3.46,2.74,6.15
29.659411191940308,4.49,3.27,3.25,6.43
29.659670114517212,4.44,3.36,3.6,6.63
29.659924030303955,4.11,4.02,3.72,6.84
29.66070818901062,4.02,5.88,3.22,7.81
29.660966157913208,5.62,9.41,4.13,11.71
29.6618812084198,7.17,12.0,6.28,15.32
29.672252893447876,7.73,11.57,5.99,15.14
29.68179202079773,7.46,10.68,6.4,14.51
29.75913691520691,6.2,10.92,5.95,13.89
29.75940489768982,4.69,11.41,4.36,13.08
29.759668111801147,3.27,10.25,1.59,10.87
29.759927988052368,1.56,8.06,-0.5,8.22
29.76018786430359,-0.39,7.05,-1.41,7.2
29.761010885238647,-1.44,8.01,-1.48,8.27
29.761303186416626,-1.66,9.22,-3.27,9.92
29.7617290019989,-0.86,7.92,-3.71,8.78
29.772099018096924,-0.85,4.03,-1.14,4.27
29.781676054000854,-1.97,0.43,-0.47,2.07
29.85934090614319,-1.74,-1.06,-1.88,2.77
29.859606981277466,-0.44,0.56,-0.43,0.83
29.8598690032959,1.94,2.8,0.89,3.52
29.860130071640015,3.73,3.36,1.69,5.29
29.860388040542603,3.85,1.91,2.06,4.76
29.861348867416382,3.22,-0.17,1.49,3.55
29.861605882644653,2.61,-1.83,0.7,3.26
29.861862897872925,2.3,-2.66,0.68,3.58
29.87193202972412,1.91,-2.76,0.91,3.47
29.88153600692749,1.16,-2.83,1.02,3.22
29.96020007133484,0.19,-3.3,1.2,3.51
29.960469007492065,-0.8,-3.78,0.94,3.97
29.960768938064575,-1.4,-3.87,0.38,4.13
29.961201906204224,-1.58,-3.68,-0.23,4.01
29.961461067199707,-1.45,-3.38,-0.87,3.77
29.962249994277954,-1.16,-3.33,-1.09,3.69
29.962509870529175,-1.05,-3.75,-1.16,4.06
29.962766885757446,-1.13,-4.49,-1.17,4.77
29.9719820022583,-1.11,-5.24,-1.04,5.45
29.98139214515686,-1.11,-5.9,-0.77,6.05
30.060322046279907,-1.19,-6.59,-0.45,6.71
30.060628175735474,-1.33,-7.37,-0.03,7.48
30.061047077178955,-1.39,-8.09,0.48,8.22
30.06130599975586,-1.23,-8.54,1.05,8.69
30.061565160751343,-1.17,-8.47,1.28,8.64
30.062413930892944,-1.41,-8.03,1.06,8.22
30.06267809867859,-1.85,-7.46,0.27,7.69
30.06293797492981,-2.78,-7.05,-0.9,7.63
30.071909189224243,-4.04,-6.94,-2.4,8.38
30.081273078918457,-5.35,-6.73,-3.72,9.36
30.16087317466736,-6.4,-5.76,-4.56,9.74
30.161144018173218,-7.34,-4.36,-5.02,9.9
30.161401987075806,-8.46,-3.03,-5.5,10.53
30.161670923233032,-9.28,-2.13,-6.0,11.25
30.161931037902832,-9.3,-1.74,-5.87,11.13
30.162707090377808,-8.6,-1.75,-5.18,10.19
30.162966012954712,-7.51,-1.69,-4.62,8.97
