time,ax,ay,az,atotal
0.009168863296508789,-0.06,0.11,-0.21,0.24
0.04246115684509277,-0.24,-0.01,0.16,0.28
0.043045997619628906,0.15,-0.07,0.12,0.2
0.04361104965209961,0.07,0.01,-0.08,0.1
0.04908895492553711,-0.27,-0.04,0.02,0.27
0.05907797813415527,-0.34,-0.02,0.05,0.34
0.06894898414611816,-0.26,-0.04,0.01,0.26
0.07903885841369629,-0.31,-0.01,-0.04,0.31
0.08906197547912598,-0.3,0.01,-0.03,0.3
0.09900307655334473,-0.13,0.05,0.02,0.14
0.10900998115539551,0.02,0.02,0.02,0.03
0.14281296730041504,0.07,-0.01,-0.01,0.07
0.1434009075164795,0.1,0.0,0.05,0.11
0.14426589012145996,0.13,-0.02,0.04,0.13
0.14913392066955566,0.11,-0.03,-0.06,0.12
0.15896916389465332,0.07,0.0,-0.1,0.12
0.16903400421142578,0.13,0.03,-0.07,0.15
0.17887496948242188,0.22,0.02,-0.09,0.23
0.18895506858825684,0.23,-0.05,-0.04,0.23
0.19891715049743652,0.1,-0.03,-0.05,0.11
0.20891690254211426,0.03,-0.03,-0.04,0.05
0.24277305603027344,0.01,-0.05,0.07,0.08
0.24335002899169922,-0.02,-0.04,0.15,0.15
0.2442469596862793,-0.13,-0.03,0.14,0.19
0.24875283241271973,-0.15,-0.04,0.15,0.21
0.25876498222351074,-0.1,-0.05,0.18,0.21
0.2689039707183838,-0.17,-0.03,0.14,0.22
0.2785961627960205,-0.17,-0.04,0.08,0.19
0.2888040542602539,-0.12,-0.01,0.04,0.12
0.29875802993774414,-0.14,0.06,-0.1,0.18
0.30864500999450684,-0.09,0.0,-0.13,0.15
0.34215402603149414,0.0,0.0,-0.18,0.18
0.34267497062683105,0.12,-0.02,-0.13,0.17
0.3432319164276123,0.07,-0.01,-0.03,0.07
0.34859490394592285,-0.07,0.02,0.04,0.08
0.35867905616760254,-0.11,0.01,0.1,0.14
0.3688008785247803,-0.01,0.0,0.05,0.05
0.378587007522583,0.12,-0.15,0.16,0.25
0.38863396644592285,0.02,-0.1,0.31,0.32
0.39860987663269043,-0.13,-0.01,0.29,0.31
0.40854406356811523,-0.03,-0.02,0.17,0.17
0.4436981678009033,-0.02,-0.04,0.1,0.1
0.4444558620452881,-0.09,-0.06,0.1,0.14
0.4449641704559326,-0.16,0.0,-0.02,0.16
0.44838404655456543,-0.1,0.0,-0.05,0.11
0.4585089683532715,0.06,-0.06,0.22,0.23
0.46840500831604004,0.0,-0.07,0.11,0.13
0.4783899784088135,-0.39,-0.01,-0.11,0.4
0.48845887184143066,-0.42,0.01,-0.11,0.43
0.49845099449157715,-0.03,-0.02,0.04,0.05
0.5084400177001953,0.28,-0.02,-0.04,0.28
0.5436451435089111,0.25,-0.1,-0.14,0.3
0.5444149971008301,0.04,-0.01,-0.06,0.07
0.5449421405792236,-0.16,0.07,-0.13,0.21
0.54830002784729,-0.09,0.03,-0.07,0.11
0.5582921504974365,0.15,-0.02,-0.14,0.2
0.5683791637420654,0.28,-0.04,-0.04,0.28
0.5782470703125,0.19,-0.04,0.07,0.2
0.5883338451385498,0.03,-0.02,0.22,0.22
0.5982649326324463,-0.03,-0.06,0.31,0.31
0.6083030700683594,-0.06,-0.01,0.09,0.1
0.6440269947052002,0.08,-0.01,-0.17,0.18
0.6445469856262207,0.3,-0.04,-0.08,0.31
0.6450698375701904,0.28,0.05,0.04,0.28
0.6483418941497803,0.08,-0.03,0.08,0.11
0.6582028865814209,-0.12,-0.04,0.04,0.13
0.6681091785430908,-0.22,0.05,-0.11,0.25
0.6783769130706787,-0.12,0.07,-0.2,0.24
0.6881711483001709,0.18,-0.02,0.12,0.21
0.6980869770050049,0.45,-0.08,0.4,0.6
0.7081601619720459,0.49,-0.09,0.61,0.78
0.7440409660339355,0.1,-0.06,0.3,0.32
0.7445740699768066,-0.23,-0.03,-0.19,0.29
0.7450768947601318,-0.19,-0.03,-0.08,0.2
0.7480120658874512,-0.06,-0.05,0.08,0.11
0.758012056350708,0.01,-0.03,0.09,0.09
0.7679340839385986,0.11,-0.05,0.15,0.19
0.7779748439788818,0.2,-0.09,0.36,0.42
0.7880518436431885,0.22,-0.1,0.43,0.49
0.7979381084442139,0.34,-0.11,0.58,0.68
0.8080861568450928,0.17,-0.07,0.44,0.47
0.8435189723968506,-0.19,-0.21,0.54,0.6
0.8440601825714111,-0.1,-0.25,0.48,0.55
0.8445949554443359,-0.07,-0.08,0.26,0.28
0.8479039669036865,-0.17,0.1,0.25,0.31
0.8578989505767822,-0.2,0.14,0.32,0.4
0.8676819801330566,-0.1,0.14,0.37,0.4
0.8778588771820068,0.21,0.01,0.36,0.41
0.8878879547119141,0.55,-0.04,0.06,0.55
0.8976929187774658,0.51,-0.05,0.02,0.51
0.9078860282897949,0.58,0.04,0.07,0.58
0.9435579776763916,1.13,-0.07,0.35,1.18
0.9440939426422119,1.31,-0.22,0.15,1.33
0.9446370601654053,1.0,-0.11,-0.25,1.03
0.9477651119232178,0.69,-0.02,-0.15,0.7
0.9577171802520752,0.53,-0.02,0.0,0.53
0.9677059650421143,0.63,-0.11,0.13,0.65
0.9776690006256104,0.57,-0.1,0.03,0.57
0.9877011775970459,0.42,0.02,-0.3,0.51
0.9976789951324463,0.7,-0.06,0.02,0.7
1.007612943649292,0.88,-0.17,0.34,0.95
1.0439870357513428,0.57,-0.25,0.13,0.63
1.0445201396942139,0.19,-0.01,-0.05,0.19
1.0450408458709717,-0.16,0.05,-0.25,0.3
1.0476469993591309,-0.4,0.04,-0.54,0.67
1.057525873184204,-0.05,0.12,-0.11,0.17
1.0678141117095947,0.52,-0.02,0.47,0.7
1.0775940418243408,0.49,0.0,-0.1,0.5
1.0876660346984863,0.13,0.1,-0.44,0.46
1.0975279808044434,0.17,0.16,-0.48,0.53
1.1075570583343506,0.14,0.12,-0.93,0.94
1.1440379619598389,-0.59,0.01,-1.41,1.52
1.1445810794830322,-1.18,-0.06,-0.83,1.44
1.145110845565796,-1.16,-0.03,-0.49,1.25
1.1473991870880127,-1.28,0.03,-0.76,1.48
1.157466173171997,-1.52,-0.08,-0.87,1.75
1.1673929691314697,-1.51,-0.12,-0.99,1.8
1.1774518489837646,-0.9,-0.15,-0.33,0.97
1.1875941753387451,-0.44,-0.13,0.27,0.53
1.1974408626556396,-0.55,0.02,0.29,0.62
1.2074410915374756,-0.59,-0.01,0.13,0.6
1.2174551486968994,-0.29,-0.03,0.1,0.3
1.244659185409546,-0.28,0.05,-0.24,0.37
1.2451951503753662,-0.25,0.15,-0.49,0.57
1.2472069263458252,0.16,-0.03,-0.02,0.16
1.257323980331421,0.02,-0.17,-0.07,0.18
1.2672431468963623,-0.1,0.02,-0.13,0.16
1.2771179676055908,-0.08,-0.02,0.27,0.28
1.2872169017791748,-0.01,-0.15,0.49,0.51
1.2971580028533936,0.39,-0.03,0.36,0.53
1.3071939945220947,0.49,-0.05,0.53,0.72
1.3171820640563965,-0.13,-0.04,0.12,0.18
1.3443710803985596,-0.4,-0.01,-0.1,0.41
1.3449079990386963,-0.11,-0.08,0.13,0.18
1.347121000289917,-0.06,0.12,0.16,0.2
1.3571641445159912,-0.01,0.22,0.03,0.22
1.3670451641082764,-0.03,-0.08,-0.12,0.14
1.3770849704742432,0.09,-0.15,-0.34,0.38
1.3870570659637451,0.5,0.01,0.27,0.56
1.397057056427002,0.48,0.07,0.15,0.5
1.407052993774414,0.16,0.14,-0.06,0.22
1.4170119762420654,-0.09,0.09,-0.26,0.28
1.4435100555419922,-0.12,0.08,-0.44,0.46
1.4440171718597412,0.19,0.11,-0.32,0.38
1.4469101428985596,0.39,0.09,-0.24,0.46
1.457002878189087,0.41,0.16,-0.2,0.48
1.4667580127716064,0.2,0.19,-0.25,0.37
1.4768459796905518,-0.07,0.1,-0.2,0.23
1.486943006515503,-0.2,0.01,-0.04,0.2
1.4969120025634766,-0.14,-0.04,0.13,0.19
1.5069420337677002,0.03,-0.14,0.18,0.23
1.5168168544769287,0.08,-0.18,0.17,0.26
1.544213056564331,-0.06,-0.14,0.07,0.16
1.5447051525115967,0.04,-0.12,-0.11,0.16
1.546802043914795,0.24,-0.16,-0.15,0.32
1.5567901134490967,0.24,-0.15,-0.27,0.39
1.5667078495025635,0.13,-0.02,-0.38,0.4
1.5767371654510498,0.13,0.01,-0.2,0.23
1.5867409706115723,0.19,0.01,0.12,0.22
1.5967140197753906,0.4,0.08,0.08,0.41
1.6067910194396973,0.53,0.17,0.11,0.56
1.6167759895324707,0.47,0.16,0.15,0.51
1.6450269222259521,0.34,0.17,0.08,0.38
1.645524024963379,0.19,0.16,-0.09,0.26
1.646578073501587,-0.15,0.06,-0.35,0.38
1.6566641330718994,-0.53,-0.08,-0.48,0.71
1.6666290760040283,-0.79,-0.12,-0.49,0.93
1.6765789985656738,-0.83,-0.17,-0.4,0.93
1.6867191791534424,-0.63,-0.22,-0.22,0.7
1.696605920791626,-0.23,-0.16,-0.04,0.28
1.7267670631408691,0.07,-0.08,0.06,0.12
1.727234125137329,0.1,0.04,0.05,0.11
1.7276949882507324,-0.15,0.11,-0.04,0.19
1.736595869064331,-0.34,0.0,0.01,0.34
1.7464568614959717,-0.31,-0.16,0.08,0.35
1.7565209865570068,-0.19,-0.24,0.1,0.32
1.7664380073547363,-0.09,-0.27,0.07,0.29
1.7764561176300049,-0.03,-0.27,0.06,0.27
1.7864940166473389,-0.11,-0.25,-0.03,0.27
1.7964320182800293,-0.15,-0.14,-0.3,0.36
1.8281629085540771,-0.11,-0.03,-0.16,0.19
1.8286640644073486,-0.25,0.06,0.05,0.26
1.8291330337524414,-0.2,0.06,-0.01,0.2
1.8364050388336182,0.01,-0.04,-0.02,0.04
1.8463120460510254,0.2,-0.19,0.25,0.37
1.8563530445098877,0.12,-0.19,0.43,0.48
1.8663108348846436,-0.05,-0.13,0.34,0.36
1.8763349056243896,-0.06,-0.07,0.1,0.13
1.8862578868865967,-0.15,-0.04,-0.09,0.17
1.8962900638580322,-0.47,-0.19,-0.18,0.53
1.9279439449310303,-0.69,-0.09,-0.14,0.7
1.9284510612487793,-0.48,-0.1,-0.06,0.49
1.9289429187774658,-0.22,-0.11,0.31,0.39
1.9362819194793701,0.01,-0.01,0.42,0.42
1.946221113204956,0.11,-0.01,0.05,0.12
1.9562771320343018,-0.18,0.15,-0.26,0.35
1.9661939144134521,-0.71,0.25,-0.36,0.83
1.9762179851531982,-1.0,0.01,-0.41,1.08
1.9861969947814941,-0.9,-0.12,-0.18,0.92
1.996108055114746,-0.6,0.05,-0.1,0.61
2.028532028198242,0.03,0.11,-0.06,0.12
2.0290379524230957,0.32,-0.02,-0.02,0.32
2.0295310020446777,-0.03,0.05,-0.4,0.4
2.0359880924224854,-0.22,0.17,-0.53,0.59
2.045984983444214,-0.08,0.04,-0.1,0.13
2.056095838546753,0.36,-0.1,0.24,0.44
2.0659830570220947,0.91,-0.03,0.16,0.92
2.076035976409912,1.26,0.07,0.02,1.26
2.0859360694885254,1.34,0.08,0.01,1.34
2.0959861278533936,1.31,0.11,-0.04,1.31
2.1284401416778564,1.47,0.14,0.11,1.48
2.128938913345337,1.71,0.08,0.35,1.74
2.1294350624084473,1.99,0.12,0.32,2.01
2.1357860565185547,2.44,0.22,0.04,2.45
2.145901918411255,3.65,-0.14,-0.2,3.65
2.1559040546417236,4.13,0.37,0.41,4.16
2.165868043899536,4.55,0.84,0.21,4.63
2.1757280826568604,5.07,0.91,0.71,5.19
2.185744047164917,5.73,1.1,1.63,6.05
2.1959099769592285,5.49,1.15,1.26,5.74
2.2258388996124268,3.93,1.32,0.4,4.16
2.2263519763946533,2.59,1.64,-0.41,3.09
2.226848840713501,1.76,2.25,-1.03,3.03
2.2356419563293457,0.76,3.97,-1.13,4.19
2.2456791400909424,0.13,6.84,-2.91,7.43
2.2556521892547607,2.35,7.56,-2.84,8.41
2.265552043914795,3.49,6.21,-1.09,7.2
2.2757110595703125,2.54,4.36,-1.3,5.21
2.2856459617614746,1.42,3.3,-1.85,4.04
2.295780897140503,2.02,1.66,-1.6,3.06
2.3270208835601807,4.32,1.12,-0.59,4.5
2.3275558948516846,5.77,1.58,1.13,6.08
2.3280460834503174,5.5,0.69,1.85,5.84
2.3356690406799316,5.24,0.09,1.12,5.35
2.3456051349639893,6.94,0.36,0.7,6.98
2.3555891513824463,7.64,-0.23,1.9,7.87
2.365544080734253,6.96,-0.92,2.47,7.44
2.375563859939575,6.4,-0.88,2.16,6.81
2.3857719898223877,6.23,-0.62,1.97,6.56
2.3955671787261963,5.8,-0.53,2.12,6.19
2.4273929595947266,5.16,-0.44,2.15,5.6
2.427929162979126,4.57,-0.29,1.98,4.98
2.4284608364105225,3.94,-0.06,1.8,4.33
2.435757875442505,3.27,0.28,1.61,3.65
2.4453649520874023,2.44,0.67,1.36,2.87
2.4554669857025146,1.48,0.89,1.16,2.08
2.465398073196411,0.74,1.06,0.97,1.61
2.475404977798462,0.24,1.45,0.64,1.6
2.485807180404663,-0.34,1.71,0.3,1.76
2.495422124862671,-0.96,1.6,0.21,1.87
2.528125047683716,-1.42,1.45,0.22,2.04
2.528662919998169,-1.44,1.4,0.3,2.03
2.5291850566864014,-1.76,1.12,0.65,2.18
2.535264015197754,-2.09,0.9,0.76,2.39
2.5452401638031006,-2.68,0.9,0.59,2.88
2.555328130722046,-3.27,0.8,0.16,3.37
2.565232992172241,-3.59,0.52,-0.15,3.63
2.5753061771392822,-3.85,0.29,-0.21,3.86
2.5851950645446777,-3.93,0.04,-0.26,3.93
2.595136880874634,-3.59,0.04,-0.4,3.61
2.6276299953460693,-3.35,0.14,-0.56,3.39
2.6281769275665283,-3.26,-0.2,-0.66,3.33
2.6287009716033936,-3.18,-0.44,-1.0,3.36
2.6351730823516846,-3.45,-0.68,-1.45,3.8
2.645186185836792,-4.25,-0.74,-1.6,4.6
2.6551389694213867,-5.11,-1.17,-1.84,5.55
2.6650710105895996,-5.28,-1.46,-2.02,5.83
2.6751201152801514,-4.88,-1.17,-2.28,5.51
2.685076951980591,-4.59,-0.87,-2.52,5.3
2.695038080215454,-4.52,-0.95,-2.67,5.33
2.7274169921875,-4.66,-1.16,-2.87,5.59
2.727980852127075,-5.08,-1.09,-3.15,6.07
2.7285211086273193,-5.64,1.23,-3.46,6.73
2.7349789142608643,-2.9,7.83,-3.9,9.21
2.7449891567230225,-1.89,1.13,-2.06,3.01
2.7550151348114014,-0.09,-2.06,-1.23,2.4
2.764940023422241,6.59,0.89,2.8,7.21
2.774946928024292,7.59,1.82,5.52,9.55
2.7849481105804443,3.82,0.82,1.82,4.31
2.794968843460083,-1.76,0.68,-2.46,3.1
2.8289711475372314,-4.79,1.23,-2.64,5.6
2.8295538425445557,-4.29,1.55,-1.31,4.74
2.8305299282073975,-3.2,2.1,-0.73,3.89
2.8348028659820557,-2.69,2.79,-0.39,3.89
2.8448610305786133,-2.65,2.27,0.13,3.49
2.854822874069214,-3.46,1.06,-0.25,3.62
2.8648111820220947,-3.81,0.39,-1.87,4.26
2.8748080730438232,-3.23,1.54,-2.76,4.51
2.8847081661224365,-4.46,2.72,-3.27,6.16
2.894836187362671,-6.15,0.61,-3.73,7.21
2.926947832107544,-4.89,-0.2,-1.61,5.15
2.927525043487549,-3.37,-0.89,1.37,3.74
2.9280731678009033,-2.55,-1.46,1.7,3.39
2.9346730709075928,-1.53,-0.92,0.97,2.03
2.9446918964385986,0.04,-0.27,0.46,0.53
2.954792022705078,0.92,-0.36,0.28,1.02
2.9646520614624023,0.27,-0.37,0.14,0.47
2.9746530055999756,-0.65,0.0,-0.11,0.65
2.984622001647949,-0.97,0.41,-0.42,1.13
2.994520902633667,-0.8,0.39,-0.77,1.17
3.0283968448638916,-0.93,0.2,-0.74,1.2
3.029000997543335,-1.22,0.1,-1.19,1.7
3.029999017715454,-1.5,0.14,-1.37,2.03
3.034494161605835,-1.56,0.02,-1.11,1.91
3.0445501804351807,-1.4,0.18,-1.65,2.17
3.0545871257781982,-0.88,0.13,-1.18,1.47
3.0645248889923096,-0.54,0.06,-0.55,0.77
3.0745770931243896,-0.53,0.14,-0.18,0.57
3.0844671726226807,-0.37,0.16,0.19,0.44
3.0945260524749756,-0.5,0.05,0.37,0.62
3.1283249855041504,-0.92,-0.04,0.41,1.0
3.128901958465576,-1.13,-0.02,0.37,1.18
3.1298580169677734,-1.07,-0.02,0.46,1.16
3.1344568729400635,-0.96,0.05,0.34,1.01
3.1444060802459717,-0.78,0.1,-0.11,0.79
3.1544129848480225,-0.75,-0.04,-0.49,0.89
3.164417028427124,-0.68,0.13,-1.09,1.29
3.174359083175659,-0.25,0.02,-0.87,0.9
3.184340000152588,0.1,-0.17,-0.4,0.44
3.1943559646606445,0.12,0.18,-0.23,0.31
3.2287750244140625,0.38,0.27,-0.57,0.73
3.229763984680176,0.76,-0.03,-1.31,1.51
3.230332136154175,0.58,-0.15,-1.71,1.81
3.234232187271118,0.49,-0.1,-1.23,1.32
3.2442681789398193,0.57,0.1,-0.46,0.73
3.2542169094085693,0.41,0.05,-0.37,0.55
3.2642529010772705,0.18,-0.03,-0.29,0.34
3.2742719650268555,0.06,-0.11,0.16,0.2
3.2841570377349854,0.03,-0.1,0.37,0.38
3.2940709590911865,0.37,-0.03,0.44,0.57
3.3284130096435547,0.92,-0.04,0.38,0.99
3.3294010162353516,1.25,0.02,0.38,1.3
3.3299081325531006,0.78,-0.02,0.05,0.78
3.3340418338775635,0.3,-0.07,-0.2,0.36
3.3440120220184326,0.01,0.02,-0.23,0.23
3.3539421558380127,-0.24,-0.03,-0.25,0.34
3.364060163497925,-0.43,0.06,-0.08,0.44
3.37414288520813,-0.55,0.17,-0.24,0.62
3.384050130844116,-0.16,0.05,-0.22,0.27
3.394052028656006,0.44,-0.04,0.07,0.44
3.4295670986175537,0.72,0.05,-0.02,0.72
3.4303901195526123,0.61,0.07,-0.28,0.67
3.4309439659118652,0.28,0.02,-0.21,0.35
3.4338979721069336,-0.17,-0.06,-0.21,0.27
3.4439380168914795,-0.23,-0.08,0.05,0.24
3.4538309574127197,0.0,-0.13,0.46,0.47
3.4638431072235107,0.3,-0.15,0.83,0.89
3.473921060562134,0.56,-0.16,1.39,1.5
3.4838368892669678,0.78,-0.16,1.63,1.81
3.4937570095062256,1.01,-0.09,1.29,1.64
3.5289928913116455,1.28,0.09,0.5,1.37
3.5297658443450928,1.4,0.07,0.16,1.41
3.530285120010376,1.2,0.07,0.21,1.22
3.5337331295013428,0.79,0.1,0.74,1.08
3.543765068054199,0.39,0.1,1.31,1.37
3.5536749362945557,0.43,0.29,1.4,1.49
3.563768148422241,0.84,0.56,1.03,1.44
3.57378888130188,1.28,0.65,0.41,1.49
3.5836970806121826,1.89,0.73,-0.16,2.03
3.5937259197235107,2.11,1.0,-1.14,2.59
3.6288669109344482,1.44,1.02,-1.12,2.09
3.6296441555023193,1.15,1.11,-0.54,1.68
3.630169153213501,1.12,1.45,-0.43,1.88
3.6335909366607666,0.81,2.18,-1.22,2.62
3.6436359882354736,1.88,4.08,-1.02,4.6
3.653620958328247,3.4,4.59,1.69,5.95
3.6636221408843994,4.0,4.08,2.08,6.08
3.6736340522766113,4.09,3.74,1.39,5.71
3.6835639476776123,3.54,3.62,1.15,5.19
3.6935839653015137,3.17,3.61,0.63,4.84
3.730159044265747,2.59,3.59,0.55,4.46
3.730692148208618,1.56,3.1,0.27,3.48
3.731212854385376,1.07,2.54,-0.4,2.78
3.733475923538208,1.38,1.85,-0.9,2.47
3.743467092514038,1.89,0.73,-1.44,2.48
3.7537190914154053,1.97,-0.53,-1.02,2.28
3.7634189128875732,1.73,-1.04,0.57,2.09
3.773451089859009,0.34,-1.07,1.85,2.16
3.78338885307312,0.64,-0.86,0.87,1.38
3.7934720516204834,4.58,-0.6,-0.31,4.62
3.830172061920166,6.34,-0.29,1.27,6.47
3.8307411670684814,6.12,-1.03,2.25,6.6
3.83127498626709,5.67,-1.68,2.03,6.25
3.833327054977417,5.68,-1.71,1.44,6.1
3.8433868885040283,5.88,-1.48,1.45,6.23
3.853311061859131,5.68,-1.31,1.78,6.09
3.8633310794830322,5.26,-1.22,1.92,5.73
3.8734049797058105,4.88,-0.97,1.89,5.32
3.883216142654419,4.32,-0.58,1.81,4.71
3.893298864364624,3.7,-0.18,1.6,4.03
3.903251886367798,3.15,0.24,1.35,3.43
3.9309890270233154,2.56,0.61,1.17,2.88
3.931540012359619,1.93,0.89,1.04,2.36
3.933089017868042,1.22,1.13,0.89,1.88
3.9431920051574707,0.55,1.34,0.76,1.63
3.953155994415283,-0.22,1.5,0.75,1.69
3.96313214302063,-0.9,1.48,0.64,1.84
3.9731991291046143,-0.62,1.55,0.08,1.67
3.983112096786499,-1.89,1.87,0.4,2.68
3.9932758808135986,-2.77,1.68,0.24,3.24
4.003021001815796,-2.68,1.88,-0.3,3.28
4.030249834060669,-2.36,2.22,-0.81,3.33
4.030792951583862,-2.25,1.95,-0.91,3.11
4.032983064651489,-2.36,1.38,-0.8,2.84
4.043056011199951,-2.56,0.82,-0.72,2.78
4.052999973297119,-2.82,0.68,-0.87,3.02
4.062853097915649,-3.3,0.59,-1.2,3.56
4.073011159896851,-3.59,-0.01,-1.5,3.89
4.08298397064209,-3.84,-0.67,-1.65,4.23
4.093034029006958,-3.95,-1.07,-1.92,4.52
4.102955102920532,-3.57,-1.16,-2.17,4.33
4.129685163497925,-3.12,-1.12,-2.14,3.94
4.130223989486694,-2.82,-1.28,-1.84,3.6
4.132858991622925,-2.73,-1.41,-1.61,3.46
4.1427528858184814,-3.08,-1.54,-1.91,3.93
4.152828931808472,-3.49,-0.02,-2.29,4.17
4.162927865982056,-2.17,3.98,-3.1,5.49
4.172791004180908,-1.96,1.82,-1.67,3.15
4.182811975479126,-3.35,0.07,-0.67,3.41
4.192784070968628,-2.43,-0.88,-0.89,2.73
4.202777147293091,1.16,-0.27,-0.46,1.27
4.229913949966431,4.76,1.01,2.07,5.28
4.230449914932251,3.98,1.25,2.02,4.63
4.232670068740845,0.68,1.33,-1.89,2.4
4.243041038513184,-2.31,1.83,-2.84,4.09
4.252701997756958,-2.4,1.76,-0.95,3.12
4.2627198696136475,-1.57,1.41,-0.47,2.16
4.272660970687866,-1.72,1.83,-0.49,2.55
4.282618999481201,-2.44,2.12,-0.13,3.23
4.292695999145508,-2.87,2.31,-0.15,3.68
4.302654981613159,-2.74,2.42,-0.97,3.78
4.330220937728882,-1.66,1.51,-2.0,3.0
4.330754041671753,-0.34,-0.07,-2.38,2.4
4.332497835159302,-0.17,0.58,-1.3,1.43
4.342597007751465,-3.82,-0.05,-2.45,4.53
4.3525168895721436,-7.09,-0.87,-5.11,8.78
4.362526178359985,-4.61,0.23,-1.94,5.0
4.372546911239624,-1.17,-0.96,2.27,2.72
4.382483959197998,-0.2,-1.66,2.11,2.69
4.392521142959595,-0.43,-1.64,0.79,1.87
4.402518033981323,-0.95,-1.8,-0.52,2.1
4.430191993713379,-1.24,-1.09,-0.68,1.78
4.430729150772095,-1.66,-0.09,-0.41,1.71
4.43279504776001,-2.38,0.7,0.07,2.48
4.4424989223480225,-3.37,1.84,0.58,3.88
4.452422857284546,-3.23,1.48,0.37,3.57
4.46228814125061,-3.15,-0.08,0.72,3.23
4.472409009933472,-2.63,-0.58,0.37,2.71
4.48232102394104,-2.16,-0.28,0.12,2.18
4.492337942123413,-1.8,-0.25,0.06,1.81
4.502311944961548,-1.66,-0.19,-0.06,1.67
4.529308080673218,-1.67,-0.11,-0.22,1.68
4.529813051223755,-1.39,-0.04,-0.3,1.42
4.532197952270508,-1.01,-0.02,-0.52,1.13
4.542259931564331,-0.8,-0.08,-0.8,1.13
4.552199125289917,-0.5,0.11,-0.7,0.86
4.562175035476685,-0.24,0.06,-0.56,0.61
4.572268962860107,-0.14,0.03,-0.44,0.46
4.582223176956177,-0.05,0.05,-0.31,0.31
4.5921900272369385,-0.15,0.14,-0.42,0.46
4.602185964584351,-0.48,0.09,-0.45,0.66
4.6302430629730225,-0.99,0.06,-0.59,1.15
4.63077712059021,-1.38,0.2,-0.3,1.42
4.6320719718933105,-0.94,0.08,0.03,0.94
4.642096042633057,-0.48,-0.06,0.01,0.48
4.652074098587036,-0.26,0.26,-0.07,0.37
4.662085056304932,0.12,0.43,0.29,0.53
4.671931982040405,-0.03,0.26,0.13,0.29
4.682013034820557,-0.23,0.18,-0.24,0.37
4.692046880722046,-0.16,-0.05,-0.58,0.6
4.702067136764526,-0.07,-0.22,-0.76,0.79
4.730790853500366,0.16,0.17,-0.23,0.32
4.731327056884766,0.29,0.5,0.24,0.62
4.731855154037476,0.35,0.43,-0.04,0.55
4.741923093795776,0.41,0.03,-0.4,0.57
4.751907110214233,0.31,-0.54,-0.51,0.8
4.7619359493255615,0.44,-0.58,-0.75,1.04
4.771759033203125,0.5,-0.28,-0.98,1.13
4.78183913230896,0.19,-0.03,-0.85,0.87
4.791980981826782,-0.01,-0.1,-0.74,0.74
4.801939964294434,-0.2,-0.59,-0.96,1.14
4.830512046813965,-0.76,-0.97,-0.94,1.54
4.831017017364502,-0.89,-0.8,-0.64,1.35
4.8316919803619385,-0.57,0.06,-0.57,0.8
4.841796159744263,0.08,0.92,-0.27,0.96
4.851745843887329,0.96,0.94,0.12,1.34
4.861601114273071,1.33,0.35,-0.03,1.37
4.871600866317749,1.52,-0.26,-0.08,1.54
4.88170599937439,1.55,-0.9,-0.26,1.81
4.891824960708618,0.88,-0.7,-0.49,1.22
4.901713132858276,0.71,0.28,-0.75,1.07
4.929877996444702,0.85,0.24,-0.5,1.01
4.930386066436768,0.49,-0.28,-0.57,0.8
4.931548833847046,0.33,-0.64,-0.92,1.16
4.941689968109131,0.22,-0.91,-1.14,1.47
4.951547861099243,-0.68,-0.43,-1.28,1.51
4.96159291267395,-1.16,0.32,-0.06,1.2
4.971503019332886,-0.34,0.5,0.34,0.69
4.981515169143677,0.32,0.52,0.44,0.75
4.991553068161011,0.6,0.54,0.63,1.02
5.0015318393707275,0.52,0.27,0.57,0.81
5.031743049621582,0.33,0.02,0.45,0.55
5.0322511196136475,0.25,-0.03,0.2,0.32
5.032745122909546,0.4,0.14,-0.21,0.47
5.04149317741394,0.32,0.01,-0.48,0.57
5.051401853561401,0.28,-0.04,-0.7,0.75
5.061470985412598,0.37,-0.03,-0.55,0.66
5.071599960327148,0.14,-0.08,-0.33,0.36
5.081398963928223,-0.72,0.35,0.33,0.86
5.091523885726929,-0.93,0.39,1.59,1.88
5.101341962814331,-0.25,0.3,1.51,1.55
5.132158041000366,0.72,0.14,1.08,1.3
5.132694959640503,2.04,0.11,0.97,2.26
5.133180856704712,3.33,0.35,1.24,3.57
5.141281843185425,4.2,0.8,1.11,4.41
5.151309967041016,4.3,1.25,1.2,4.63
5.161265134811401,4.53,1.69,1.33,5.01
5.171655893325806,4.91,2.32,1.08,5.53
5.181257963180542,5.08,2.99,0.68,5.93
5.191341161727905,5.32,3.97,-0.1,6.63
5.201247930526733,5.68,5.17,-0.47,7.69
5.231974840164185,5.96,6.38,0.2,8.73
5.232480049133301,6.03,6.97,0.63,9.23
5.232967138290405,6.18,7.63,-0.04,9.81
5.2412168979644775,6.16,8.22,-0.27,10.27
5.25111985206604,6.25,7.96,-0.75,10.14
5.261128187179565,5.19,6.91,-1.83,8.83
5.271004915237427,3.3,5.54,-3.28,7.23
5.281097173690796,1.96,3.4,-3.06,4.97
5.2911951541900635,-0.12,1.44,-0.95,1.72
5.30103611946106,-0.48,-1.46,-0.57,1.63
5.331856966018677,2.62,-3.08,-0.55,4.08
5.332360029220581,2.92,-3.04,2.13,4.72
5.33285117149353,3.35,-2.3,1.22,4.24
5.3410561084747314,7.33,-2.43,-0.44,7.73
5.350980043411255,9.1,-2.15,1.89,9.53
5.361008882522583,8.94,-2.5,3.71,9.99
5.370981931686401,8.02,-3.29,3.88,9.49
5.380980014801025,7.31,-3.23,3.22,8.61
5.390980958938599,6.64,-2.6,2.74,7.63
5.400822877883911,5.97,-1.92,2.42,6.72
5.43199610710144,5.45,-1.42,2.24,6.06
5.432497978210449,4.75,-0.99,2.38,5.4
5.433018922805786,3.86,-0.53,2.39,4.57
5.440787076950073,2.81,-0.02,2.09,3.5
5.450809001922607,1.97,0.76,1.57,2.63
5.460827112197876,1.51,1.72,0.93,2.47
5.470792055130005,1.07,2.71,0.36,2.93
5.480802059173584,0.3,3.63,0.12,3.64
5.490803003311157,-0.88,4.14,-0.21,4.23
5.500870943069458,-2.04,4.15,-0.91,4.71
5.531885862350464,-3.11,3.49,-1.22,4.83
5.532390832901001,-3.88,2.67,-1.17,4.85
5.532883882522583,-4.29,2.34,-1.29,5.05
5.540753126144409,-4.3,2.33,-1.01,4.99
5.55072283744812,-4.5,2.33,-1.1,5.18
5.560692071914673,-5.33,2.58,-2.07,6.27
5.570605993270874,-6.33,2.8,-3.12,7.59
5.580574035644531,-7.34,2.29,-3.65,8.51
5.590662002563477,-8.41,0.56,-3.58,9.15
5.600609064102173,-9.02,-1.38,-3.18,9.66
5.629765033721924,-9.19,-2.14,-2.95,9.88
5.630290985107422,-9.1,-2.23,-3.04,9.85
5.630780935287476,-8.53,-2.09,-3.12,9.32
5.640527009963989,-7.53,-1.93,-3.21,8.41
5.650454044342041,-6.79,-1.79,-3.02,7.64
5.660523176193237,-6.45,-1.02,-2.88,7.13
5.670444965362549,-3.57,6.07,-3.76,7.98
5.680495023727417,2.35,2.62,-4.12,5.41
5.690593957901001,11.01,1.24,-1.41,11.16
5.700476884841919,14.5,3.4,11.11,18.58
5.730587005615234,5.04,-0.31,4.93,7.05
5.731088876724243,-4.46,-0.55,-5.94,7.44
5.731580972671509,-7.96,-0.17,-4.23,9.01
5.740429162979126,-5.32,1.34,-0.98,5.57
5.7503321170806885,-2.54,2.26,-0.26,3.4
5.760374069213867,-1.73,1.63,0.95,2.55
5.77034592628479,-2.71,-0.33,1.9,3.32
5.780354976654053,-4.13,-1.38,1.5,4.6
5.790402173995972,-5.39,-0.85,0.36,5.46
5.800310850143433,-5.51,1.02,-1.12,5.71
5.831788063049316,-4.54,3.06,-2.01,5.83
5.832296133041382,-3.33,4.28,-2.81,6.1
5.832802057266235,-2.29,2.68,-2.84,4.52
5.840280055999756,-1.47,0.85,-1.72,2.41
5.850230932235718,-1.17,0.48,-2.66,2.94
5.860235929489136,-1.0,-1.34,-4.61,4.9
5.870158910751343,0.37,0.05,-3.75,3.76
5.880163908004761,0.48,1.17,-1.39,1.87
5.890197038650513,-1.0,-0.34,-0.2,1.07
5.9002158641815186,-2.64,-0.81,-0.58,2.82
5.931697130203247,-3.52,0.09,-1.03,3.66
5.932263135910034,-2.59,0.48,-1.36,2.96
5.932785987854004,-1.84,0.05,-0.44,1.89
5.940150022506714,-1.85,-0.19,0.47,1.91
5.950106859207153,-2.16,-0.21,0.86,2.33
5.960106134414673,-2.33,-0.38,1.1,2.6
5.970036029815674,-2.44,-0.38,1.42,2.84
5.980067014694214,-1.71,-0.4,1.72,2.45
5.989955186843872,-1.68,-0.38,2.14,2.74
6.000041961669922,-2.73,-0.36,1.91,3.35
6.031944036483765,-1.92,-0.61,0.95,2.22
6.032464981079102,-0.13,-0.11,0.68,0.7
6.032953977584839,1.2,0.25,0.08,1.22
6.039855003356934,1.3,0.09,-0.56,1.41
6.049882173538208,0.58,0.31,-1.24,1.4
6.0599329471588135,-0.82,0.48,-1.33,1.63
6.0698559284210205,-1.5,0.14,-1.56,2.16
6.07992696762085,-1.23,0.06,-1.67,2.07
6.089864015579224,-0.96,-0.09,-1.47,1.75
6.099779844284058,-0.85,-0.14,-1.42,1.66
6.131320953369141,-0.83,0.07,-1.01,1.3
6.1318199634552,-0.89,0.08,-0.4,0.97
6.132310152053833,-0.81,-0.13,-0.19,0.84
6.139695882797241,-0.4,-0.14,-0.26,0.49
6.1497461795806885,-0.06,-0.15,-0.08,0.18
6.1597740650177,0.37,-0.12,0.06,0.39
6.169752836227417,0.79,-0.06,-0.05,0.79
6.1797521114349365,0.65,-0.16,-0.19,0.69
6.189684152603149,0.05,-0.09,-0.52,0.53
6.199697017669678,-0.45,-0.01,-1.5,1.56
6.232189893722534,-0.52,-0.28,-2.19,2.26
6.2326979637146,0.06,-0.89,-1.36,1.62
6.233190059661865,0.72,-0.69,-1.03,1.43
6.239490032196045,1.39,-0.18,-0.9,1.66
6.249664068222046,1.77,0.07,-0.48,1.83
6.259626150131226,1.55,0.39,0.11,1.6
6.269466161727905,1.01,0.43,0.03,1.09
6.279510021209717,0.24,0.24,-0.19,0.38
6.289469003677368,-0.3,0.17,0.13,0.36
6.299574136734009,-0.69,0.87,0.94,1.45
6.332350015640259,-0.92,0.72,2.25,2.53
6.332890033721924,-0.44,-0.32,1.99,2.06
6.333400011062622,0.21,-0.19,0.36,0.45
6.33947491645813,0.09,-0.03,-0.37,0.38
6.349467039108276,0.3,0.09,-0.58,0.65
6.3595130443573,0.73,0.24,-0.56,0.95
6.369452953338623,0.58,0.05,-0.41,0.71
6.379426002502441,0.2,-0.11,-0.63,0.67
6.389569997787476,-0.22,-0.03,-0.67,0.7
6.399396181106567,-0.45,0.02,-0.03,0.45
6.432378053665161,-0.35,0.33,0.27,0.55
6.432880163192749,0.28,0.31,0.58,0.71
6.4333720207214355,0.64,0.01,0.69,0.94
6.439534902572632,0.43,-0.13,0.28,0.52
6.449314832687378,0.11,-0.05,0.13,0.17
6.459311008453369,-0.48,0.01,0.07,0.48
6.469146013259888,-0.74,0.11,-0.18,0.76
6.479269981384277,-0.39,0.06,-0.43,0.58
6.489640951156616,-0.12,-0.08,-0.61,0.62
6.499289035797119,-0.11,-0.17,-0.56,0.59
6.532186985015869,-0.03,-0.22,-0.22,0.31
6.532693147659302,0.18,-0.06,-0.06,0.19
6.533182859420776,0.38,0.04,-0.24,0.45
6.5395801067352295,0.39,0.04,-0.4,0.56
6.549154996871948,0.14,-0.04,-0.25,0.28
6.559149980545044,-0.1,-0.19,-0.18,0.28
6.5690929889678955,-0.17,-0.28,0.0,0.32
6.579131841659546,-0.06,-0.14,0.31,0.34
6.589046001434326,0.39,0.16,0.5,0.65
6.5991339683532715,0.89,0.28,0.26,0.96
6.631944894790649,0.76,0.25,-0.6,1.0
6.632441997528076,0.54,0.31,-0.89,1.08
6.632933855056763,0.95,0.32,-0.79,1.27
6.639046907424927,1.73,0.27,-0.4,1.79
6.649011850357056,2.36,0.22,0.09,2.37
6.659044027328491,2.9,0.18,0.51,2.95
6.66895318031311,3.42,0.21,0.92,3.54
6.678918123245239,3.95,0.2,1.45,4.21
6.68898606300354,4.53,0.56,1.46,4.79
6.698825120925903,4.68,1.23,1.47,5.05
6.7326979637146,4.48,1.66,1.34,4.96
6.733219861984253,3.78,2.24,0.89,4.48
6.73409104347229,2.76,2.51,0.4,3.75
6.738823175430298,2.22,3.22,0.56,3.95
6.74885106086731,2.12,4.89,0.85,5.39
6.75882887840271,3.3,6.77,-0.49,7.54
6.768887996673584,4.5,6.98,0.93,8.35
6.778855085372925,4.35,6.85,0.2,8.11
6.788757085800171,5.07,7.16,-1.15,8.84
6.798792123794556,6.94,7.57,-0.67,10.29
6.833069086074829,7.81,7.1,-1.27,10.63
6.8339550495147705,6.36,6.01,-2.58,9.12
6.834449052810669,3.44,4.64,-3.22,6.61
6.8387181758880615,0.75,2.54,-2.71,3.78
6.848718881607056,-1.61,0.21,-1.06,1.93
6.858708143234253,-1.2,-1.27,-1.18,2.1
6.868652105331421,3.56,-1.52,-1.03,4.0
6.8786890506744385,6.89,-2.54,1.24,7.44
6.888671159744263,5.66,-2.71,1.32,6.41
6.89864706993103,7.71,-2.42,-1.21,8.17
6.933066129684448,9.0,-1.88,1.42,9.3
6.9339330196380615,8.34,-2.34,3.16,9.22
6.934425115585327,7.1,-3.28,2.6,8.24
6.938555002212524,6.41,-3.55,2.0,7.59
6.948517084121704,6.24,-3.14,2.09,7.29
6.958554983139038,5.86,-2.65,2.25,6.81
6.9684998989105225,4.97,-2.19,2.09,5.81
6.978530168533325,3.97,-1.62,1.76,4.63
6.988502025604248,3.08,-0.97,1.65,3.62
6.998399019241333,2.18,-0.26,1.48,2.64
7.032853841781616,1.58,0.64,1.02,1.98
7.033724069595337,0.88,1.55,0.59,1.87
7.034219980239868,-0.26,2.29,0.21,2.31
7.038420915603638,-1.65,2.78,0.03,3.23
7.048357963562012,-2.77,3.21,0.08,4.24
7.058434963226318,-3.05,3.6,-0.01,4.71
7.068349123001099,-3.2,3.54,-0.06,4.77
7.078415155410767,-3.03,3.1,-0.17,4.33
7.0883660316467285,-2.49,2.97,-0.52,3.91
7.09837794303894,-2.27,2.86,-0.67,3.71
7.134246110916138,-3.49,2.83,-0.81,4.56
7.134752988815308,-3.92,2.93,-1.15,5.02
7.1352410316467285,-3.77,2.94,-1.53,5.01
7.1381471157073975,-3.77,2.41,-1.78,4.81
7.148200988769531,-4.18,1.18,-1.68,4.65
7.158222913742065,-4.97,0.01,-1.46,5.18
7.16825795173645,-6.07,-0.38,-1.54,6.27
7.17831015586853,-6.58,-0.6,-1.89,6.87
7.18818211555481,-6.14,-0.95,-2.2,6.59
7.198171854019165,-5.29,-1.15,-2.11,5.81
7.233949899673462,-4.52,-1.07,-2.15,5.11
7.234450101852417,-4.14,-1.01,-2.29,4.83
7.234940052032471,-4.31,-1.2,-2.42,5.08
7.238073110580444,-4.65,-1.36,-2.52,5.46
7.2480809688568115,-4.77,-1.36,-2.53,5.56
7.2581000328063965,-4.59,-1.31,-2.38,5.33
7.268105983734131,-1.78,4.2,-2.78,5.34
7.278058052062988,2.21,2.69,-1.37,3.74
7.288007974624634,2.2,0.43,0.63,2.32
7.297922849655151,4.31,3.43,3.88,6.73
7.334092855453491,3.98,1.23,7.84,8.87
7.33459997177124,0.65,-1.51,1.51,2.23
7.3350989818573,-3.29,0.25,-4.72,5.75
7.33800196647644,-5.21,2.43,-4.18,7.1
7.347913026809692,-4.2,2.5,-1.78,5.2
7.357938051223755,-2.93,2.7,-0.02,3.98
7.36809515953064,-3.09,1.88,1.42,3.88
7.377908945083618,-3.48,-0.4,1.61,3.85
7.3879148960113525,-4.34,-1.08,-0.19,4.47
7.39775013923645,-5.61,0.51,-2.57,6.19
7.434168100357056,-5.56,2.89,-3.33,7.09
7.434654951095581,-4.33,3.21,-2.86,6.1
7.435119867324829,-2.7,0.82,-1.42,3.15
7.437752962112427,-2.44,1.86,-2.08,3.7
7.447817087173462,-2.67,-0.84,-4.15,5.0
7.457612037658691,-1.82,1.6,-1.55,2.87
7.467681169509888,-0.63,1.23,0.69,1.54
7.4777891635894775,-1.36,-1.27,0.26,1.87
7.4877259731292725,-1.96,-1.27,-0.95,2.52
7.497812032699585,-1.86,-0.2,-1.54,2.42
7.534693956375122,-1.82,0.58,-1.37,2.35
7.535198926925659,-2.15,0.56,-1.6,2.73
7.535659074783325,-2.3,0.22,-1.95,3.02
7.537545919418335,-2.11,0.02,-1.07,2.36
7.547642946243286,-2.18,0.2,0.25,2.2
7.557495832443237,-2.36,0.3,1.18,2.65
7.5676469802856445,-2.07,0.01,1.47,2.53
7.577624082565308,-1.5,-0.22,1.32,2.01
7.587576150894165,-0.8,-0.11,0.84,1.16
7.5975799560546875,-0.26,0.02,0.51,0.57
7.634105920791626,-0.19,0.03,0.23,0.29
7.634565114974976,-0.25,0.03,0.11,0.27
7.635000944137573,-0.27,-0.02,0.06,0.27
7.637436151504517,-0.39,-0.09,-0.27,0.48
7.647473096847534,-0.52,0.04,-0.63,0.81
7.657404184341431,-0.6,0.1,-0.74,0.95
7.667366027832031,-0.83,0.14,-0.84,1.18
7.677366018295288,-0.98,0.1,-0.76,1.24
7.6874401569366455,-0.75,0.01,-0.65,0.99
7.697438955307007,-0.28,0.0,-0.7,0.75
7.734566926956177,-0.2,-0.18,-0.62,0.67
7.735046148300171,-0.24,0.07,-0.49,0.55
7.735509157180786,-0.12,0.36,-0.3,0.48
7.737339019775391,0.0,-0.08,-0.07,0.1
7.7473509311676025,-0.13,-0.19,-0.47,0.52
7.757413148880005,-0.14,0.08,-0.71,0.72
7.7672789096832275,0.01,0.02,-0.55,0.55
7.777260065078735,0.18,-0.19,-0.51,0.57
7.787275075912476,0.5,-0.1,-0.58,0.77
7.797260046005249,0.8,-0.23,-0.53,0.98
7.835041046142578,1.02,-0.28,-0.78,1.31
7.83551812171936,1.01,-0.22,-0.91,1.37
7.835980176925659,0.75,-0.35,-0.54,0.98
7.837248086929321,0.31,-0.34,-0.05,0.46
7.847332000732422,-0.23,0.13,0.53,0.59
7.857419013977051,-0.14,0.23,0.86,0.9
7.8671159744262695,0.25,0.13,0.44,0.52
7.87717604637146,0.46,0.16,-0.25,0.54
7.887132883071899,0.74,0.12,-0.23,0.78
7.897104978561401,0.9,0.14,-0.21,0.93
7.9070470333099365,0.54,0.05,-0.19,0.57
7.935251951217651,0.15,0.1,-0.17,0.24
7.935715913772583,-0.51,-0.13,-0.36,0.63
7.937015056610107,-0.96,-0.03,-0.51,1.08
7.947033166885376,-0.79,0.07,-0.19,0.81
7.957015037536621,-0.72,0.02,-0.15,0.73
7.966829061508179,-0.62,0.14,-0.39,0.74
7.977007150650024,-0.08,0.1,-0.36,0.38
7.987013101577759,0.33,-0.02,-0.47,0.57
7.996912956237793,0.31,0.01,-0.52,0.6
8.006829023361206,0.23,0.07,-0.4,0.46
8.035505056381226,0.17,-0.05,-0.42,0.45
8.036000967025757,0.09,-0.09,-0.6,0.61
8.0368070602417,0.38,-0.08,-0.67,0.77
8.046864986419678,0.84,-0.27,-0.41,0.97
8.056915998458862,1.04,-0.23,-0.19,1.08
8.066734075546265,0.9,-0.03,0.13,0.9
8.076789140701294,0.63,-0.01,0.47,0.78
8.086878061294556,0.35,0.1,0.57,0.67
8.096765041351318,0.08,0.29,0.39,0.49
8.106807947158813,0.0,0.32,0.15,0.35
8.134265184402466,0.49,0.31,0.09,0.58
8.13473916053772,1.31,0.16,0.08,1.32
8.136682033538818,1.99,-0.14,0.38,2.03
8.146680116653442,2.17,-0.36,0.65,2.29
8.156715154647827,1.94,-0.29,0.85,2.13
8.166651964187622,1.35,-0.17,0.84,1.59
8.176676988601685,0.95,-0.12,0.58,1.11
8.186640977859497,0.68,-0.12,0.31,0.75
8.196617841720581,0.26,0.07,-0.07,0.27
8.20649790763855,0.12,0.24,0.0,0.26
8.233389139175415,0.2,0.31,0.1,0.38
8.233856916427612,0.45,0.32,0.14,0.56
8.236471891403198,0.94,0.33,0.12,1.0
8.246616125106812,1.44,0.41,0.04,1.49
8.256371021270752,1.83,0.52,-0.16,1.9
8.26657509803772,1.87,0.72,-0.43,2.04
8.27651596069336,1.92,0.91,-0.56,2.19
8.286452054977417,1.71,1.06,-0.58,2.09
8.296555995941162,1.52,1.25,-0.6,2.05
8.306455850601196,1.52,1.6,-0.2,2.21
8.334648847579956,1.64,2.17,0.31,2.73
8.335150003433228,2.28,2.57,0.47,3.46
8.336429834365845,3.47,3.18,0.57,4.74
8.34642505645752,4.35,3.91,1.03,5.93
8.356459856033325,4.65,4.03,0.81,6.2
8.366402864456177,4.4,4.23,0.87,6.16
8.376389026641846,3.86,4.73,0.3,6.11
8.386321067810059,3.92,5.64,-0.43,6.88
8.396326065063477,4.58,6.74,-0.96,8.2
8.406262159347534,5.33,7.13,-1.7,9.06
8.43506407737732,5.16,6.24,-2.11,8.36
8.43553614616394,4.07,4.89,-1.81,6.61
8.436190843582153,2.5,2.87,-1.53,4.1
8.446255922317505,0.57,1.31,-1.05,1.77
8.456212997436523,-0.64,0.29,-1.31,1.48
8.466091871261597,0.7,-0.6,-1.84,2.05
8.476218938827515,3.8,-0.77,-0.99,4.0
8.486217021942139,5.73,-1.29,0.57,5.9
8.51728892326355,4.79,-1.52,1.23,5.17
8.517765998840332,5.7,-1.71,-0.55,5.97
8.518234014511108,7.86,-1.89,-0.11,8.08
8.526169061660767,9.19,-1.61,2.08,9.55
8.536100149154663,8.83,-2.21,2.97,9.57
8.546146154403687,7.81,-2.89,2.63,8.73
8.556091070175171,7.32,-3.22,2.44,8.36
8.56604790687561,7.28,-3.13,2.45,8.29
8.576092004776001,7.1,-2.67,2.55,8.0
8.58601689338684,6.35,-2.24,2.59,7.21
8.61782717704773,5.11,-1.76,2.24,5.85
8.618295907974243,4.06,-1.01,1.58,4.47
8.61875605583191,3.64,-0.15,1.09,3.8
8.625946998596191,3.44,0.75,0.86,3.62
8.6359121799469,3.07,1.74,0.72,3.6
8.645946979522705,2.11,2.61,0.43,3.38
8.655887842178345,1.22,3.15,-0.45,3.4
8.665946006774902,0.41,3.62,-1.32,3.87
8.675862073898315,-2.84,4.27,-0.84,5.19
8.6858229637146,-5.03,4.61,-1.41,6.96
8.718065977096558,-6.11,5.13,-2.35,8.31
8.718538045883179,-5.77,4.62,-2.45,7.78
8.718983888626099,-4.34,3.29,-1.96,5.78
8.725823163986206,-3.08,1.82,-1.41,3.84
8.735687017440796,-2.9,1.08,-1.3,3.35
8.745725870132446,-3.56,1.22,-1.79,4.16
8.755648851394653,-4.59,1.61,-2.28,5.37
8.765542984008789,-5.45,1.61,-2.65,6.27
8.77559208869934,-5.5,0.7,-2.63,6.13
8.785768032073975,-5.12,-0.46,-2.21,5.59
8.818099975585938,-5.05,-0.83,-1.88,5.45
8.818546056747437,-5.22,-0.95,-2.01,5.67
8.818978071212769,-5.42,-1.24,-2.33,6.02
8.825562953948975,-5.42,-1.54,-2.35,6.1
8.835618019104004,-5.22,-1.9,-2.45,6.07
8.845721960067749,-5.07,-1.53,-2.62,5.9
8.855604887008667,-3.19,3.04,-3.01,5.33
8.865612030029297,-0.01,2.18,-2.02,2.97
8.87551498413086,0.38,-0.87,-0.59,1.11
8.8855299949646,-0.28,0.83,1.53,1.76
8.91840386390686,1.0,2.49,2.37,3.58
8.9188711643219,1.95,2.2,2.98,4.18
8.919312000274658,0.03,0.17,-1.25,1.26
8.925299882888794,-2.67,1.06,-4.61,5.43
8.935331106185913,-4.82,2.51,-3.69,6.56
8.945443868637085,-5.65,2.98,-2.39,6.82
8.955435991287231,-5.3,4.43,-1.65,7.1
8.965476036071777,-5.11,4.9,-0.93,7.14
8.975250959396362,-5.37,3.14,-1.06,6.31
8.98546290397644,-4.76,0.16,-0.75,4.82
9.017884016036987,-3.47,-1.58,0.49,3.84
9.01833200454712,-3.21,-1.57,1.15,3.75
9.018766164779663,-3.79,0.27,-0.92,3.9
9.025269031524658,-5.29,-1.8,-5.0,7.49
9.03531002998352,-4.4,0.85,-5.63,7.19
9.04532504081726,-2.29,1.94,-0.34,3.02
9.055333852767944,-1.57,-0.41,2.72,3.16
9.065219163894653,-1.14,-1.09,1.25,2.01
9.075473070144653,-0.62,-0.5,-1.03,1.3
9.085170030593872,-0.65,0.2,-2.46,2.55
9.118514060974121,-0.71,0.38,-1.66,1.84
9.118988990783691,-1.24,0.39,-0.44,1.37
9.119424104690552,-2.11,0.41,-0.47,2.2
9.125302076339722,-2.87,0.28,-0.54,2.93
9.135202169418335,-3.32,0.29,0.01,3.33
9.14519190788269,-3.04,0.33,0.19,3.06
9.155138969421387,-2.16,0.24,-0.07,2.17
9.165174961090088,-1.21,-0.05,0.14,1.21
9.175520181655884,-0.63,-0.21,0.26,0.71
9.185179948806763,-0.39,-0.06,0.42,0.57
9.21903109550476,-0.47,0.04,0.47,0.66
9.219498872756958,-0.95,0.0,0.31,0.99
9.220245122909546,-1.28,0.0,0.19,1.29
9.225395917892456,-1.09,-0.02,0.49,1.19
9.23487901687622,-0.83,-0.04,0.33,0.89
9.24496603012085,-0.69,-0.01,-0.04,0.69
9.254946947097778,-0.46,-0.03,-0.31,0.55
9.265027046203613,-0.12,-0.01,-0.58,0.59
9.274960994720459,0.09,-0.12,-0.47,0.49
9.284821033477783,0.13,-0.15,-0.47,0.51
9.319196939468384,0.3,0.0,-0.51,0.59
9.319983005523682,0.6,-0.06,-0.72,0.93
9.320422887802124,0.36,-0.31,-0.91,1.02
9.324865102767944,0.21,-0.26,-0.58,0.66
9.334697961807251,0.26,-0.14,0.01,0.29
9.344894170761108,0.31,-0.05,0.06,0.31
9.354792833328247,0.48,-0.02,-0.22,0.52
9.364974975585938,0.66,0.11,-0.87,1.09
9.374819993972778,0.39,-0.13,-1.49,1.54
9.38485598564148,-0.03,-0.62,-0.94,1.12
9.419167041778564,-0.07,-0.77,-0.44,0.88
9.419916868209839,-0.34,-0.28,-0.19,0.47
9.420356035232544,-0.61,0.26,0.32,0.73
9.42467999458313,-0.46,0.34,0.27,0.63
9.434720993041992,-0.24,0.11,0.06,0.27
9.44472599029541,-0.4,-0.24,0.1,0.47
9.454658031463623,-0.75,-0.13,0.06,0.76
9.464697122573853,-0.39,0.45,0.26,0.64
9.474666833877563,0.18,0.66,0.3,0.74
9.48450493812561,0.11,0.31,0.0,0.32
9.51900315284729,-0.05,0.03,-0.37,0.37
9.51976990699768,0.04,0.23,-1.29,1.31
9.520199060440063,0.09,0.05,-1.53,1.53
9.524565935134888,0.2,-0.08,-0.78,0.8
9.534577131271362,0.39,0.32,-0.92,1.04
9.54456901550293,0.21,0.12,-1.12,1.14
9.554524183273315,-0.17,-0.16,-0.96,0.98
9.564544916152954,-0.34,-0.31,-0.5,0.67
9.574542045593262,0.02,-0.13,-0.42,0.44
9.58448600769043,0.64,-0.13,-0.59,0.88
9.619253873825073,0.85,0.07,-0.73,1.12
9.620020151138306,0.39,-0.14,-0.83,0.92
9.620445966720581,-0.15,-0.32,-0.3,0.46
9.62438416481018,-0.44,-0.32,0.1,0.55
9.634444952011108,-0.44,-0.11,0.38,0.59
9.64447283744812,-0.3,0.16,0.85,0.91
9.654327154159546,0.29,0.09,1.36,1.39
9.664371013641357,0.72,-0.02,1.04,1.26
9.674277067184448,0.93,-0.02,0.61,1.11
9.684294939041138,1.08,-0.04,0.49,1.18
9.719379186630249,1.2,0.12,0.46,1.29
9.71998906135559,0.91,0.12,0.26,0.95
9.720376968383789,0.3,-0.03,0.26,0.39
9.724232912063599,0.02,-0.01,0.41,0.41
9.734076976776123,-0.05,-0.02,0.19,0.19
9.744241952896118,-0.07,-0.05,0.03,0.09
9.754186868667603,-0.04,-0.01,-0.05,0.06
9.764220952987671,0.04,0.0,-0.33,0.33
9.774183988571167,-0.06,-0.14,-0.57,0.59
9.78420615196228,-0.55,-0.22,-0.77,0.97
9.81990098953247,-1.3,-0.31,-0.95,1.63
9.820337057113647,-1.69,-0.3,-0.97,1.97
9.820762872695923,-1.02,-0.18,-1.2,1.58
9.824043035507202,0.09,0.3,-0.72,0.78
9.834136009216309,0.61,0.53,0.16,0.82
9.844083070755005,0.61,0.33,0.58,0.9
9.85408902168274,0.63,0.34,0.82,1.08
9.864177942276001,0.94,0.18,0.69,1.17
9.87408709526062,1.16,0.01,0.71,1.36
9.884010076522827,1.42,0.08,0.6,1.54
9.920522928237915,1.72,0.21,0.45,1.79
9.920965909957886,2.04,0.41,0.31,2.1
9.921395063400269,2.35,0.63,0.15,2.43
9.923929929733276,2.74,0.7,0.17,2.83
9.933979034423828,3.13,0.66,0.38,3.22
9.943932056427002,3.21,0.71,0.88,3.4
9.95383596420288,3.13,0.97,0.91,3.4
9.963956117630005,3.0,1.21,0.31,3.24
9.97390604019165,2.64,1.17,-0.21,2.89
9.983893156051636,1.86,1.6,-0.92,2.62
10.020202875137329,1.4,3.75,-1.09,4.14
10.020631074905396,2.09,4.17,0.72,4.71
10.021051168441772,2.45,3.68,1.53,4.67
10.023784875869751,2.1,3.64,1.14,4.35
10.033807039260864,2.05,4.03,0.8,4.59
10.043768167495728,2.72,4.42,0.26,5.19
10.053735971450806,3.63,4.77,-0.23,5.99
10.063772916793823,3.96,4.77,-0.53,6.22
10.07373595237732,3.08,4.1,-0.94,5.21
10.084396123886108,1.85,3.04,-1.04,3.7
10.120171070098877,1.51,1.38,-1.12,2.33
10.120599031448364,2.66,-0.66,-1.35,3.05
10.121020078659058,5.59,-1.3,-1.09,5.84
10.123640060424805,4.94,0.39,1.48,5.17
10.133672952651978,3.74,-0.04,1.09,3.89
10.143522024154663,7.17,-1.26,-0.38,7.28
10.153416872024536,8.62,-0.1,1.02,8.68
10.163650035858154,8.27,-0.69,2.51,8.67
10.173585176467896,6.57,-1.82,2.61,7.29
10.183632135391235,5.87,-1.6,1.93,6.38
10.221045017242432,5.93,-0.99,1.85,6.29
10.221472024917603,5.43,-0.92,2.02,5.86
10.221891164779663,4.49,-0.74,1.96,4.95
10.22350001335144,3.76,-0.48,1.68,4.14
10.23346209526062,3.5,-0.15,1.34,3.75
10.243304967880249,3.07,0.33,1.07,3.26
10.253386974334717,2.41,0.69,0.82,2.63
10.26348614692688,1.75,1.1,0.46,2.11
10.273441076278687,1.08,1.48,0.08,1.83
10.283252000808716,0.38,1.75,-0.02,1.79
10.320831060409546,-0.42,2.0,-0.15,2.04
10.321261167526245,-1.16,2.38,-0.29,2.66
10.321681022644043,-1.82,2.78,-0.47,3.35
10.323328971862793,-2.77,2.84,-0.68,4.02
10.333291053771973,-2.87,2.64,-1.47,4.16
10.343168020248413,-2.76,2.44,-1.72,4.06
10.353271007537842,-3.02,1.6,-1.21,3.62
10.363312005996704,-2.34,0.87,-0.97,2.67
10.373249053955078,-2.25,0.82,-1.15,2.65
10.383270978927612,-2.61,0.7,-1.25,2.97
10.421058893203735,-3.13,0.21,-1.13,3.33
10.42149806022644,-3.55,-0.17,-1.15,3.73
10.421916961669922,-3.95,-0.29,-1.3,4.16
10.423171043395996,-3.97,-0.37,-1.3,4.19
10.433261156082153,-3.72,-0.51,-1.06,3.9
10.443281888961792,-3.4,-0.78,-0.81,3.58
10.453212022781372,-3.06,-1.21,-0.67,3.35
10.4632408618927,-2.79,-1.51,-0.6,3.22
10.473140954971313,-2.75,-1.65,-0.67,3.27
10.483147859573364,-2.75,-1.54,-1.05,3.32
10.520857095718384,-2.55,-1.61,-1.27,3.27
10.521293878555298,-2.39,-1.68,-1.02,3.09
10.521722078323364,-2.58,-1.71,-1.04,3.26
10.522974967956543,-3.22,-1.83,-1.5,3.99
10.532958984375,-4.14,-1.66,-1.66,4.75
10.543038129806519,-1.99,2.92,-2.36,4.24
10.552917957305908,1.78,2.76,-1.72,3.7
10.563029050827026,1.68,-0.17,1.31,2.13
10.572983980178833,2.72,2.46,3.66,5.18
10.58303713798523,2.61,2.47,5.16,6.28
10.592996835708618,-0.21,0.25,0.97,1.02
10.622339010238647,-1.78,0.77,-4.31,4.72
10.62277102470398,-2.57,2.82,-5.16,6.41
10.623195886611938,-2.42,2.7,-3.54,5.06
10.632869005203247,-1.55,2.79,-2.79,4.23
10.64288592338562,-1.92,2.46,-1.13,3.31
10.652815103530884,-3.32,0.07,0.22,3.32
10.662923097610474,-4.75,-1.05,0.55,4.89
10.67288088798523,-5.13,-0.03,0.14,5.13
10.682923078536987,-4.31,-0.46,-0.31,4.34
10.69290804862976,-4.29,-0.13,-2.03,4.74
10.72161602973938,-6.07,-2.39,-5.48,8.51
10.722023963928223,-6.07,-0.48,-7.08,9.33
10.722689867019653,-3.0,3.04,-4.58,6.26
10.732704877853394,-1.74,2.58,-0.26,3.12
10.742624044418335,-1.01,0.26,1.27,1.64
10.752616167068481,-1.21,-0.78,1.04,1.77
10.762666940689087,-2.45,-0.54,0.61,2.58
10.772650003433228,-3.13,-0.25,0.37,3.16
10.782660007476807,-3.9,0.06,-1.39,4.14
10.79259204864502,-3.15,-0.82,-1.27,3.49
10.822025060653687,-2.67,-1.09,0.21,2.89
10.82246994972229,-2.26,-0.73,0.45,2.41
10.8228919506073,-1.97,-0.46,0.5,2.08
10.832605123519897,-1.14,-0.03,0.13,1.14
10.84252405166626,-0.37,0.31,-0.39,0.62
10.8525230884552,-0.22,0.18,-0.93,0.97
10.862658977508545,-0.78,0.19,-1.38,1.59
10.87247896194458,-1.13,0.52,-1.22,1.74
10.882570028305054,-1.17,0.33,-0.93,1.53
10.89244818687439,-1.01,0.07,-1.15,1.53
10.92189908027649,-1.2,0.07,-1.11,1.63
10.922332048416138,-1.63,0.13,-0.71,1.78
10.922751188278198,-1.69,-0.05,-0.07,1.69
10.93241810798645,-1.35,-0.09,0.48,1.43
10.942438840866089,-0.84,-0.02,0.85,1.19
10.95229697227478,-0.28,-0.15,1.23,1.27
10.962460041046143,0.26,-0.15,1.48,1.51
10.972354173660278,0.1,0.01,1.54,1.54
10.982460975646973,-0.47,0.05,1.66,1.72
10.99231505393982,-0.27,-0.09,1.4,1.42
11.02233099937439,-0.24,0.08,0.72,0.76
11.022760152816772,-0.66,0.14,0.42,0.79
11.023179054260254,-1.01,0.21,-0.12,1.03
11.032265901565552,-1.06,0.41,-0.22,1.15
11.042212963104248,-0.79,0.37,-0.2,0.89
11.052119016647339,-0.31,0.05,-0.7,0.76
11.062256097793579,-0.21,-0.28,-1.24,1.28
11.072218179702759,-0.29,-0.27,-1.43,1.48
11.08234190940857,-0.05,-0.01,-0.84,0.84
11.092300176620483,0.27,0.17,-0.05,0.32
11.122370958328247,0.62,0.11,-0.08,0.63
11.122797966003418,1.04,-0.01,-0.58,1.19
11.123215913772583,0.87,-0.45,-1.15,1.51
11.132169008255005,0.03,-0.55,-1.66,1.74
11.142028093338013,-0.5,0.55,-1.26,1.46
11.15209698677063,-0.14,1.24,0.47,1.33
11.162131071090698,0.8,0.68,1.25,1.63
11.172106981277466,1.25,-0.12,0.45,1.33
11.182090044021606,1.3,-0.52,-0.01,1.4
11.192093133926392,1.54,-0.66,-0.35,1.71
11.22347092628479,1.34,-0.47,-0.7,1.58
11.223912000656128,0.97,-0.01,-0.75,1.22
11.224334001541138,0.44,0.1,-0.8,0.91
11.232009172439575,-0.15,-0.3,-1.15,1.19
11.241894006729126,0.02,-0.77,-1.26,1.47
11.251904964447021,0.54,-1.05,-1.32,1.77
11.262026071548462,0.51,-0.44,-1.35,1.5
11.271854162216187,0.04,0.32,-0.73,0.79
11.281922101974487,0.67,0.21,0.21,0.73
11.29184889793396,0.96,-0.05,0.3,1.0
11.322765111923218,0.35,-0.47,0.17,0.61
11.323194026947021,-0.56,-0.42,0.28,0.75
11.323611974716187,-0.66,0.26,0.27,0.75
11.33188509941101,-0.3,0.69,0.47,0.88
11.34176516532898,-0.07,0.39,0.73,0.83
11.351736068725586,-0.15,0.1,0.55,0.57
11.361697912216187,-0.61,0.04,0.42,0.74
11.372153997421265,-0.81,0.15,0.11,0.83
11.381779909133911,-0.87,0.23,-0.19,0.91
11.391754865646362,-0.83,0.39,-0.08,0.92
11.423356056213379,-0.34,0.4,-0.04,0.52
11.423794031143188,0.17,-0.07,-0.3,0.35
11.424216985702515,0.23,-0.45,-0.45,0.67
11.43165397644043,-0.08,-0.26,-0.05,0.27
11.441619157791138,0.07,0.13,0.16,0.21
11.451555967330933,0.23,0.07,-0.23,0.33
11.461490869522095,-0.02,-0.08,-0.34,0.34
11.471601009368896,-0.14,-0.51,-0.6,0.79
11.481585025787354,-0.12,-0.4,-0.58,0.71
11.491445064544678,-0.03,0.04,-0.07,0.08
11.523624181747437,-0.01,0.25,0.22,0.33
11.524060010910034,0.27,0.38,0.81,0.93
11.524477005004883,1.05,0.2,0.91,1.4
11.531541109085083,1.41,-0.17,0.49,1.5
11.541442155838013,1.06,-0.48,0.14,1.17
11.551416158676147,0.5,-0.31,-0.1,0.59
11.561257123947144,0.52,-0.15,-0.49,0.73
11.571449995040894,0.83,-0.15,-0.77,1.14
11.581472158432007,0.74,-0.2,-0.98,1.24
11.591289043426514,-0.27,-0.36,-0.82,0.93
11.623999834060669,-1.2,-0.21,-0.44,1.29
11.624421834945679,-1.26,-0.28,-0.05,1.29
11.624835968017578,-1.55,0.03,0.17,1.55
11.631343126296997,-1.25,0.38,0.64,1.45
11.641291856765747,-0.1,0.26,0.69,0.74
11.651350021362305,0.35,0.38,0.26,0.57
11.661279916763306,0.69,0.4,-0.04,0.79
11.67132306098938,0.57,0.22,-0.41,0.73
11.68133807182312,0.24,-0.18,-0.58,0.65
11.691349029541016,-0.14,-0.55,-0.42,0.7
11.723906993865967,-0.42,-0.25,-0.41,0.63
11.724343061447144,0.21,0.1,-0.24,0.33
11.724764108657837,0.88,0.14,-0.14,0.9
11.731125116348267,0.73,0.11,-0.08,0.74
11.741091012954712,0.31,0.03,0.02,0.31
11.751108884811401,0.34,0.02,0.13,0.36
11.761409044265747,0.53,0.01,-0.1,0.53
11.771093130111694,0.37,0.21,-0.03,0.42
11.781193971633911,0.25,0.14,0.21,0.35
11.791018009185791,-0.17,-0.16,0.4,0.46
11.823798894882202,-0.9,-0.01,0.39,0.98
11.824229955673218,-1.14,0.26,0.62,1.32
11.824647188186646,-0.65,0.16,0.56,0.87
11.831040143966675,-0.41,0.16,0.12,0.45
11.840991973876953,-0.08,0.11,-0.22,0.25
11.851033926010132,0.47,-0.25,-0.57,0.77
11.861307859420776,0.56,-0.41,-0.82,1.07
11.871012926101685,0.46,-0.36,-0.78,0.97
11.880979061126709,0.18,-0.33,-0.36,0.52
11.891071081161499,0.15,-0.24,0.02,0.28
11.92426085472107,0.51,-0.19,0.07,0.54
11.924689054489136,0.4,-0.1,-0.21,0.46
11.925104856491089,0.15,-0.04,-0.27,0.31
11.930947065353394,-0.04,-0.08,-0.28,0.29
11.940888166427612,-0.07,0.07,-0.11,0.14
11.95089316368103,0.05,0.26,0.03,0.26
11.960869073867798,-0.02,0.32,0.06,0.32
11.970829010009766,0.36,0.27,0.09,0.45
11.980878114700317,0.48,0.37,-0.03,0.6
11.990875959396362,0.34,0.4,0.13,0.54
12.023812055587769,0.3,0.31,0.19,0.47
12.024236917495728,0.34,0.21,0.22,0.45
12.024655103683472,0.46,0.15,0.21,0.52
12.030757188796997,0.74,0.17,-0.01,0.75
12.040659189224243,1.08,0.32,0.01,1.12
12.050588846206665,1.39,0.6,0.22,1.52
12.060537099838257,1.64,0.81,0.33,1.85
12.070514917373657,1.9,0.82,0.5,2.12
12.080558061599731,2.28,0.78,0.45,2.45
12.090500116348267,2.44,0.85,0.26,2.59
12.124598026275635,2.32,1.15,0.04,2.58
12.125025033950806,2.14,1.54,-0.02,2.63
12.125757932662964,2.18,2.01,0.09,2.96
12.130393028259277,2.3,2.44,-0.26,3.36
12.140488862991333,3.07,2.83,-0.05,4.17
12.150409936904907,3.69,3.94,1.06,5.5
12.160531044006348,4.16,4.64,0.61,6.26
12.170524835586548,5.07,5.46,0.79,7.49
12.1804358959198,6.04,6.32,0.92,8.79
12.190365076065063,7.37,6.71,1.3,10.05
12.224624872207642,9.05,7.1,1.84,11.64
12.22537112236023,9.42,7.65,1.51,12.22
12.225794076919556,8.09,7.95,0.7,11.36
12.230322122573853,5.31,7.3,-0.41,9.03
12.240430116653442,1.51,6.03,-1.17,6.32
12.250493049621582,-2.02,4.84,-0.83,5.3
12.260370016098022,-3.66,3.37,-0.5,5.0
12.270395994186401,-2.84,0.97,-1.82,3.5
12.280347108840942,1.33,-2.63,-3.73,4.75
12.290383100509644,4.21,-4.02,-0.26,5.82
12.325656175613403,4.43,-1.77,1.79,5.09
12.326087951660156,6.55,-1.76,1.34,6.91
12.326509952545166,6.78,-2.6,2.64,7.72
12.330333948135376,6.72,-3.89,2.57,8.17
12.3402099609375,6.7,-5.35,1.95,8.79
12.35027289390564,7.32,-6.02,2.02,9.69
12.360331058502197,7.4,-5.61,2.46,9.6
12.370240926742554,6.99,-5.02,2.61,8.99
12.380226850509644,5.98,-4.36,2.65,7.86
12.390196084976196,4.74,-3.71,2.49,6.51
12.426056146621704,3.88,-3.15,2.18,5.45
12.426483869552612,3.11,-2.04,2.17,4.3
12.42690110206604,2.73,-0.63,2.34,3.65
12.430155038833618,2.27,0.77,2.07,3.16
12.440091848373413,1.2,1.76,0.88,2.3
12.450103998184204,0.18,2.93,-0.51,2.97
12.460004091262817,-0.39,4.26,-1.22,4.44
12.470083951950073,-1.07,5.11,-0.88,5.29
12.480087041854858,-2.04,5.16,-0.59,5.57
12.490111112594604,-2.87,4.87,-1.0,5.74
12.526971101760864,-4.21,4.42,-1.86,6.38
12.527400970458984,-5.59,3.73,-3.45,7.55
12.527828931808472,-6.09,3.61,-4.38,8.32
12.52992296218872,-5.38,3.22,-3.94,7.4
12.539940118789673,-5.0,2.27,-2.34,5.96
12.549932956695557,-5.47,1.0,-1.08,5.66
12.55991816520691,-5.89,-0.39,-0.61,5.93
12.569969892501831,-5.99,-1.4,-0.78,6.2
12.579823970794678,-5.62,-1.84,-1.3,6.05
12.58992886543274,-4.89,-1.9,-1.7,5.51
12.626296997070312,-3.83,-1.68,-1.69,4.51
12.626725912094116,-3.03,-1.18,-1.51,3.58
12.627148866653442,-2.35,-0.74,-1.48,2.87
12.629786014556885,-2.31,-0.44,-1.81,2.96
12.639778852462769,-3.15,2.28,-2.87,4.83
12.649775981903076,-2.08,3.53,-3.78,5.57
12.659672021865845,-2.31,-0.7,-2.56,3.51
12.669785976409912,-4.8,0.01,-1.78,5.11
12.67962908744812,-1.59,0.48,-1.47,2.21
12.689697980880737,1.28,2.72,1.09,3.19
12.727338075637817,3.14,2.27,2.3,4.5
12.727768182754517,2.14,0.85,-1.34,2.66
12.728188037872314,0.45,0.73,-2.92,3.04
12.729544878005981,-0.64,0.29,-1.68,1.82
12.739665031433105,-0.84,-0.03,-1.08,1.36
12.74966311454773,-0.73,0.3,-1.12,1.37
12.759602069854736,-1.07,0.55,-0.81,1.45
12.769549131393433,-1.88,1.49,-0.24,2.41
12.779452085494995,-2.9,2.58,0.38,3.9
12.789562940597534,-4.43,2.38,0.08,5.02
12.827196836471558,-7.44,5.97,-4.04,10.35
12.827632188796997,-9.19,2.34,-11.05,14.56
12.828052997589111,-5.31,1.15,-7.76,9.47
12.829406023025513,0.89,0.35,1.54,1.81
12.839515924453735,0.69,-3.12,3.33,4.61
12.849530935287476,-1.34,-2.81,0.07,3.11
12.859454870223999,-1.19,-1.66,-0.88,2.22
12.869457960128784,0.16,-0.63,0.26,0.7
12.879223108291626,1.03,0.41,1.02,1.5
12.889405012130737,0.62,1.01,0.44,1.26
12.927334070205688,-0.17,0.05,-0.63,0.65
12.92777395248413,-1.65,-1.01,-0.28,1.95
12.928200006484985,-3.22,-1.51,0.55,3.59
12.929157972335815,-4.83,-1.04,1.16,5.07
12.939275979995728,-5.55,-0.3,1.33,5.71
12.94933795928955,-4.79,-0.13,0.9,4.87
12.959270000457764,-3.6,-0.08,0.54,3.64
12.969218015670776,-2.73,0.16,0.07,2.73
12.979201078414917,-1.07,0.07,-0.32,1.11
12.989248991012573,0.97,0.13,0.52,1.1
13.028069019317627,0.99,0.61,0.5,1.26
13.028498888015747,-1.24,0.35,-0.14,1.29
13.029247045516968,-2.42,-0.01,-1.05,2.63
13.029677152633667,-2.1,-0.23,-1.8,2.77
13.039175033569336,-1.54,-0.2,-1.27,2.0
13.049162149429321,-1.39,-0.22,-0.75,1.59
13.059119939804077,-1.28,-0.14,-1.29,1.82
13.06909704208374,-0.78,-0.09,-2.51,2.62
13.079385042190552,-0.38,-0.13,-2.15,2.18
13.089152097702026,-0.19,-0.09,-1.65,1.66
13.12791395187378,0.36,-0.08,-1.1,1.16
13.128344058990479,0.61,-0.19,-0.84,1.05
13.128798961639404,0.67,-0.3,-1.06,1.28
13.129579067230225,0.75,-0.26,-1.11,1.36
13.139094114303589,0.36,-0.03,-1.17,1.22
13.149054050445557,-0.01,0.32,-1.15,1.19
13.158951997756958,0.13,0.15,-0.42,0.46
13.168962955474854,-0.01,0.19,0.19,0.26
13.178946018218994,-0.42,0.17,0.82,0.93
13.188947916030884,-0.63,-0.05,1.31,1.45
13.228058099746704,-0.83,-0.06,1.48,1.69
13.22851014137268,-0.76,-0.1,1.51,1.69
13.22893214225769,-0.5,-0.05,1.75,1.82
13.229721069335938,-0.78,0.0,1.56,1.74
13.238849878311157,-0.84,-0.02,1.02,1.32
13.248902082443237,-0.38,-0.07,0.7,0.79
13.258790016174316,-0.15,-0.09,0.01,0.17
13.268825054168701,-0.04,0.05,-1.01,1.01
13.278787851333618,0.45,0.19,-1.56,1.63
13.288676023483276,0.64,0.19,-1.53,1.66
13.329028844833374,0.29,0.27,-1.6,1.64
13.32979416847229,0.24,0.18,-1.28,1.31
13.330214977264404,0.45,-0.08,-0.36,0.58
13.330661058425903,-0.33,-0.11,0.42,0.54
13.338734865188599,-1.09,-0.18,0.88,1.41
13.348765134811401,-1.05,-0.19,1.19,1.59
13.358625173568726,-0.5,-0.09,0.87,1.0
13.368787050247192,0.28,-0.1,0.51,0.59
13.378507852554321,0.84,-0.1,0.54,1.0
13.388615846633911,1.04,0.03,0.59,1.19
13.429147005081177,0.89,-0.31,0.55,1.09
13.429916143417358,0.58,-0.19,0.27,0.66
13.430341005325317,0.42,0.14,-0.64,0.77
13.430757999420166,0.6,0.21,-1.11,1.27
13.438618898391724,1.13,0.39,-0.92,1.5
13.448537111282349,1.31,0.17,-0.27,1.34
13.458483934402466,1.01,0.1,0.45,1.11
13.468553066253662,1.08,0.11,0.63,1.25
13.478492975234985,1.3,-0.04,0.3,1.33
13.488517045974731,1.38,-0.01,-0.23,1.39
13.528709173202515,1.02,-0.1,-0.61,1.19
13.529139041900635,0.31,-0.07,-0.9,0.95
13.529913187026978,-0.43,-0.12,-0.96,1.05
13.53033185005188,-1.01,-0.01,-0.92,1.36
13.538426160812378,-1.29,0.14,-0.57,1.41
13.548475980758667,-1.26,0.12,-0.23,1.28
13.558351039886475,-0.67,0.1,0.06,0.68
13.568294048309326,0.29,0.06,0.26,0.39
13.578382015228271,1.15,0.01,0.41,1.22
13.588351964950562,1.59,-0.05,0.29,1.61
13.629032850265503,1.36,-0.07,0.08,1.36
13.629801034927368,0.57,-0.15,-0.13,0.6
13.630228042602539,-0.31,-0.11,-0.22,0.39
13.63064694404602,-0.38,-0.04,-0.33,0.5
13.638211965560913,0.27,0.04,-0.2,0.33
13.64817500114441,0.9,0.04,0.22,0.92
13.658085107803345,1.4,0.03,0.44,1.46
13.668207883834839,1.51,-0.02,0.21,1.52
13.678186178207397,0.84,-0.06,-0.1,0.84
13.688216924667358,0.17,0.15,-0.39,0.45
13.728837013244629,-0.03,0.19,-0.3,0.35
13.729265928268433,-0.34,0.11,0.3,0.46
13.729992151260376,-0.85,0.15,0.87,1.22
13.730409860610962,-0.51,0.16,0.69,0.87
13.73816704750061,0.49,0.2,0.37,0.64
13.748116970062256,1.13,0.33,0.23,1.19
13.758056879043579,0.88,0.24,0.21,0.93
13.768141984939575,0.34,0.15,-0.09,0.38
13.778069019317627,-0.15,0.19,-0.35,0.42
13.788002967834473,-0.27,0.19,-0.46,0.56
13.829027891159058,-0.12,0.13,-0.45,0.48
13.82979702949524,0.0,-0.08,-0.21,0.22
13.83022403717041,0.29,0.01,0.03,0.29
13.830643892288208,0.81,0.37,0.12,0.89
13.837924003601074,1.56,0.68,0.49,1.77
13.847990036010742,2.17,0.99,0.97,2.57
13.85795283317566,2.41,1.26,1.22,2.98
13.867945909500122,1.95,1.9,0.61,2.79
13.877868890762329,1.88,3.6,-0.19,4.06
13.887917041778564,2.92,3.97,0.5,4.95
13.929638147354126,3.53,3.37,1.46,5.09
13.930063962936401,3.56,3.07,1.09,4.82
13.930482149124146,3.72,3.44,0.39,5.08
13.930925130844116,3.86,3.9,0.14,5.48
13.937814950942993,3.43,4.11,0.09,5.35
13.947793006896973,2.45,4.07,0.01,4.75
13.957721948623657,1.54,3.55,-0.2,3.87
13.967803001403809,1.16,2.89,-0.61,3.17
13.977751970291138,1.27,2.38,-0.93,2.85
13.987683057785034,1.61,0.81,-0.76,1.95
14.028836011886597,2.58,-1.18,-0.29,2.85
14.029267072677612,1.8,-0.38,1.55,2.4
14.030055046081543,2.06,0.45,1.39,2.52
14.030478954315186,5.71,-0.72,0.59,5.78
14.037626028060913,6.83,-0.07,1.77,7.05
14.047616004943848,6.47,-0.39,2.42,6.91
14.05759310722351,5.58,-1.07,2.17,6.08
14.067629098892212,5.48,-0.76,1.78,5.81
14.07759690284729,5.69,-0.43,2.15,6.09
14.087584018707275,5.6,-0.17,2.63,6.18
14.129706144332886,5.36,0.01,2.72,6.01
14.130470991134644,5.09,0.02,2.67,5.74
14.130887985229492,4.71,0.01,2.55,5.35
14.131302118301392,4.18,0.02,2.44,4.84
14.137479066848755,3.66,0.15,2.33,4.34
14.147340059280396,3.22,0.34,2.12,3.87
14.157372951507568,2.73,0.67,1.82,3.34
14.167443990707397,2.06,1.04,1.55,2.77
14.177398920059204,1.29,1.38,1.21,2.24
14.187345027923584,0.75,1.83,0.75,2.11
14.229001998901367,0.08,2.25,0.3,2.27
14.229433059692383,-0.74,2.31,-0.02,2.42
14.23018503189087,-1.49,2.09,-0.22,2.57
14.23060917854309,-1.98,1.78,-0.41,2.69
14.237308979034424,-2.09,1.45,-0.62,2.61
14.247143030166626,-2.56,1.3,-0.6,2.93
14.257256984710693,-2.74,1.18,-0.89,3.11
14.267339944839478,-2.82,1.39,-1.53,3.49
14.277153968811035,-2.98,1.81,-2.17,4.1
14.28723406791687,-3.28,1.86,-2.8,4.69
14.329272031784058,-3.9,1.17,-3.02,5.06
14.329702138900757,-4.42,0.19,-2.69,5.17
14.330475091934204,-4.99,-0.87,-2.38,5.59
14.330895185470581,-5.62,-1.91,-2.23,6.34
14.33713698387146,-6.04,-2.52,-2.33,6.94
14.347239971160889,-5.82,-2.65,-2.4,6.83
14.357102155685425,-5.34,-1.97,-2.49,6.21
14.367067098617554,-4.76,-1.19,-2.71,5.6
14.377130031585693,-3.73,0.81,-2.7,4.67
14.387122869491577,-2.49,2.35,-2.32,4.13
14.430531978607178,-2.16,-1.23,-1.78,3.05
14.430959939956665,-2.18,-1.66,-1.11,2.95
14.431432008743286,-2.73,0.61,-0.21,2.8
14.432185888290405,-1.12,2.39,-0.09,2.64
14.436958074569702,2.85,2.44,1.74,4.13
14.447069883346558,3.48,1.07,2.06,4.18
14.456956148147583,2.43,0.94,-1.09,2.82
14.466928958892822,0.64,0.71,-1.32,1.62
14.476891994476318,-0.45,-0.59,0.13,0.75
14.486886024475098,-0.5,-0.58,0.5,0.91
14.496867895126343,0.07,-0.08,0.59,0.59
14.529736995697021,-0.16,0.29,0.86,0.92
14.530472993850708,-1.56,1.21,0.98,2.2
14.530894041061401,-3.22,0.62,0.95,3.41
14.536886930465698,-6.62,5.1,-2.81,8.81
14.546818017959595,-12.07,1.81,-11.64,16.86
14.556904077529907,-10.43,4.16,-13.15,17.29
14.566863059997559,-0.13,4.91,-2.55,5.53
14.576811075210571,2.39,-2.65,3.48,4.98
14.586815118789673,0.34,-4.09,1.25,4.29
14.59679388999939,-1.62,-2.87,-1.37,3.56
14.630676984786987,-2.26,-1.74,-0.27,2.86
14.631103038787842,-1.88,-0.04,0.36,1.91
14.631850004196167,-1.47,2.1,-0.25,2.57
14.636756181716919,-1.59,1.21,-1.73,2.64
14.646708011627197,-3.04,0.01,-0.7,3.11
14.656543016433716,-3.13,-0.27,0.52,3.18
14.666658163070679,-2.45,-0.61,-0.03,2.52
14.67662501335144,-1.75,-0.81,-0.71,2.05
14.686732053756714,-2.0,-0.7,-0.69,2.22
14.696696996688843,-2.72,-0.35,-0.36,2.76
14.73052191734314,-2.45,0.04,-0.2,2.45
14.730947017669678,-1.34,-0.18,-0.37,1.4
14.73171591758728,-0.61,-0.15,-0.23,0.66
14.736618995666504,-0.29,0.02,0.18,0.34
14.746520042419434,-0.58,0.07,0.26,0.63
14.756367921829224,-0.54,-0.01,0.3,0.61
14.766438007354736,0.24,0.0,0.72,0.75
14.776418924331665,0.31,0.1,0.59,0.67
14.786545991897583,-0.22,-0.26,0.14,0.36
14.796455144882202,-1.09,-0.09,0.06,1.09
14.830621004104614,-1.72,0.2,0.44,1.78
14.831056833267212,-1.49,0.07,0.87,1.72
14.831809043884277,-1.04,0.03,0.54,1.17
14.836352109909058,-0.93,0.28,0.39,1.04
14.846322059631348,-0.48,0.09,1.0,1.11
14.856368064880371,-0.12,0.27,1.08,1.11
14.866466045379639,-0.06,0.28,0.41,0.5
14.876343965530396,0.09,0.02,-0.19,0.21
14.88637399673462,-0.2,-0.22,-0.51,0.59
14.89634394645691,-0.77,-0.13,-0.77,1.09
14.93031096458435,-0.99,-0.06,-0.84,1.29
14.931411027908325,-1.03,0.03,-0.67,1.22
14.931867837905884,-0.86,0.24,-0.53,1.03
14.93628191947937,-0.33,0.03,-0.55,0.64
14.946272134780884,0.14,-0.19,-1.09,1.11
14.956274032592773,0.19,-0.26,-1.34,1.37
14.966233968734741,-0.16,-0.2,-1.13,1.15
14.976155042648315,-0.34,-0.11,-0.74,0.82
14.986210107803345,-0.11,-0.1,-0.51,0.53
14.996183156967163,0.03,-0.13,-0.7,0.71
15.03071904182434,0.07,-0.13,-0.92,0.93
15.0314359664917,0.24,-0.37,-0.87,0.97
15.031859159469604,0.25,-0.31,-0.78,0.87
15.036087036132812,0.42,0.05,-0.31,0.52
15.046056985855103,0.67,0.33,0.33,0.81
15.05604600906372,0.58,0.37,0.71,0.98
15.0660879611969,0.48,0.24,0.31,0.61
15.075996160507202,0.61,0.17,-1.1,1.26
15.086076974868774,1.01,-0.42,-1.49,1.84
15.096922159194946,1.13,-1.07,-0.21,1.57
15.130987882614136,1.04,-0.21,0.66,1.24
15.131601095199585,1.15,0.25,0.67,1.35
15.132029056549072,1.01,0.01,-0.54,1.14
15.13593602180481,1.04,-0.19,-1.15,1.56
15.145895957946777,1.14,-0.41,-0.91,1.51
15.155879020690918,0.92,-0.5,-1.02,1.46
15.16603398323059,0.82,-0.38,-1.75,1.96
15.175893068313599,0.76,0.31,-1.59,1.78
15.213340044021606,0.62,0.49,-1.09,1.34
15.213773012161255,0.55,-0.26,-1.07,1.23
15.214521169662476,0.35,-0.51,-1.02,1.19
15.21583604812622,-0.16,0.15,-0.12,0.25
15.225856065750122,-1.02,0.71,1.02,1.6
15.235764980316162,-1.4,0.88,1.7,2.37
15.245773077011108,-0.51,0.33,1.73,1.83
15.255687952041626,0.37,0.0,1.09,1.15
15.265876054763794,0.21,0.05,0.33,0.39
15.275820970535278,0.0,0.03,-0.07,0.07
15.315107107162476,-0.09,-0.11,-0.35,0.37
15.315541982650757,-0.21,-0.07,-0.48,0.52
15.315961122512817,-0.39,-0.04,-0.2,0.44
15.31637692451477,-0.22,-0.06,0.24,0.33
15.325618028640747,0.34,-0.03,0.75,0.82
15.335663080215454,0.84,0.07,1.01,1.31
15.345612049102783,0.68,0.08,1.06,1.26
15.355583906173706,0.09,-0.03,0.41,0.42
15.365671873092651,-0.31,-0.15,0.08,0.35
15.37563705444336,-0.72,-0.05,0.0,0.72
15.413720846176147,-0.94,-0.13,-0.16,0.96
15.414136171340942,-0.82,-0.13,-0.07,0.83
15.4149169921875,-0.18,-0.02,0.05,0.18
15.415353059768677,0.34,0.04,-0.03,0.34
15.425510168075562,0.47,0.08,-0.19,0.51
15.435519933700562,0.39,0.16,-0.34,0.54
15.445448160171509,0.29,0.2,-0.35,0.49
15.455453157424927,0.3,0.26,-0.17,0.43
15.465270042419434,0.46,0.23,0.15,0.53
15.475467920303345,0.92,0.21,0.34,1.0
15.513819932937622,1.54,0.3,0.78,1.75
15.514250993728638,2.04,0.33,1.16,2.36
15.514991998672485,2.59,0.3,1.57,3.04
15.515413045883179,2.93,0.46,1.35,3.25
15.52559494972229,3.11,0.7,1.09,3.36
15.535356998443604,3.45,1.01,0.9,3.7
15.545277833938599,3.85,1.29,0.6,4.1
15.555284976959229,3.49,1.39,0.74,3.82
15.565140008926392,2.73,1.13,0.47,2.99
15.575329065322876,1.51,1.61,-0.48,2.25
15.613999128341675,0.36,4.12,-0.94,4.24
15.614768981933594,1.23,4.37,0.67,4.58
15.615196943283081,1.73,3.64,0.75,4.09
15.615620851516724,1.79,3.77,-0.29,4.18
15.625174045562744,1.4,4.28,-0.35,4.51
15.635158061981201,2.27,5.01,-0.3,5.5
15.645112991333008,4.64,5.82,-0.13,7.44
15.655125856399536,6.74,6.1,-0.16,9.09
15.664958953857422,7.04,6.0,-0.84,9.28
15.675175905227661,5.83,5.6,-1.03,8.14
15.713640928268433,3.56,3.89,-1.09,5.38
15.714072942733765,1.21,2.8,-1.71,3.49
15.714492082595825,-0.59,1.78,-2.23,2.91
15.715237855911255,-1.98,0.16,-1.55,2.51
15.725075960159302,-2.96,-1.04,-0.62,3.19
15.735079050064087,0.21,-1.29,-1.2,1.77
15.744982957839966,4.83,-2.26,-0.31,5.34
15.7549889087677,7.18,-4.61,1.78,8.71
15.76512598991394,6.0,-3.52,0.86,7.0
15.774960041046143,7.42,-2.47,0.54,7.83
15.814398050308228,8.69,-2.18,3.27,9.53
15.815172910690308,9.09,-2.41,3.9,10.18
15.815593957901001,8.15,-2.98,3.45,9.33
15.816022157669067,7.12,-2.74,2.8,8.12
15.824836015701294,6.46,-2.09,2.5,7.23
15.834901094436646,5.64,-1.77,2.29,6.33
15.84481406211853,4.45,-1.48,2.11,5.14
15.85485291481018,3.28,-0.71,1.79,3.8
15.865135908126831,2.28,0.13,1.2,2.57
15.874810934066772,1.35,1.26,0.51,1.91
15.914366006851196,0.48,2.05,-0.25,2.12
15.915105104446411,-0.2,2.4,-0.79,2.53
15.91552996635437,-0.68,2.95,-0.69,3.1
15.915948152542114,-0.76,3.35,-0.31,3.44
15.92474913597107,-1.06,3.66,-0.53,3.84
15.934890031814575,-1.03,3.13,-1.23,3.51
15.944595098495483,-3.29,2.32,-0.87,4.11
15.954682111740112,-4.92,1.44,-1.19,5.26
15.964694023132324,-5.54,1.38,-1.69,5.95
15.974724054336548,-5.33,1.92,-2.04,6.02
16.015158891677856,-4.55,2.49,-2.25,5.65
16.015587091445923,-4.05,2.45,-2.55,5.37
16.016023874282837,-3.88,1.78,-2.69,5.04
16.016443967819214,-4.18,0.45,-2.61,4.94
16.024555921554565,-4.84,-0.86,-2.25,5.4
16.034481048583984,-5.44,-1.88,-1.8,6.03
16.04454493522644,-5.76,-2.42,-1.46,6.41
16.054548025131226,-5.92,-2.31,-1.43,6.51
16.06448483467102,-5.92,-1.86,-1.72,6.43
16.074532985687256,-5.52,-1.55,-1.76,5.99
16.115272045135498,-5.0,-0.92,-1.47,5.29
16.1157009601593,-2.88,4.31,-1.85,5.5
16.116163969039917,0.55,3.62,-1.11,3.82
16.11658215522766,-1.34,-1.26,0.38,1.87
16.124457120895386,0.08,0.21,0.37,0.43
16.13444995880127,3.71,1.55,4.23,5.83
16.1443829536438,2.69,0.82,3.2,4.26
16.15441918373108,-0.97,1.14,-2.08,2.56
16.164374113082886,-3.09,1.95,-2.7,4.54
16.17424511909485,-2.08,1.32,-1.24,2.75
16.214521169662476,-0.82,1.69,-1.06,2.15
16.21495509147644,-0.36,2.89,-0.38,2.93
16.215707063674927,-1.31,2.54,-0.01,2.85
16.216125011444092,-3.33,1.86,-0.52,3.84
16.224190950393677,-5.23,2.39,-1.17,5.86
16.23424196243286,-5.74,2.37,-1.3,6.34
16.244225025177002,-4.93,1.12,-0.89,5.13
16.25420594215393,-3.53,-0.14,-0.58,3.58
16.264209032058716,-2.69,0.53,-1.36,3.06
16.274214029312134,-2.66,0.08,-4.06,4.85
16.31529688835144,-2.51,0.09,-3.55,4.34
16.315726041793823,-1.45,0.95,-1.44,2.25
16.31614398956299,-0.84,-0.37,-0.12,0.92
16.316570043563843,-0.75,-1.24,0.03,1.44
16.324198961257935,-0.67,-0.83,-0.39,1.13
16.334129095077515,-0.38,0.1,-0.93,1.0
16.344125032424927,0.14,0.41,-1.15,1.22
16.354180097579956,0.55,-0.3,-0.45,0.77
16.3641619682312,0.27,-0.59,-0.19,0.67
16.37407088279724,-0.28,0.05,-0.5,0.57
16.415282011032104,-0.63,0.2,-0.24,0.7
16.415709018707275,-1.09,0.01,0.14,1.09
16.4161319732666,-1.23,-0.31,0.42,1.33
16.41657304763794,-1.32,-0.5,0.12,1.41
16.423929929733276,-1.24,-0.51,-0.02,1.34
16.433841943740845,-0.32,-0.33,0.46,0.65
16.44419503211975,0.15,-0.02,0.39,0.41
16.453947067260742,0.18,-0.23,0.09,0.3
16.463881015777588,-0.07,-0.26,-0.24,0.36
16.47390389442444,0.09,-0.29,-0.64,0.7
16.515203952789307,0.27,-0.39,-0.86,0.98
16.515953063964844,0.15,-0.09,-0.9,0.91
16.5163791179657,-0.64,0.37,-0.45,0.86
16.516802072525024,-1.99,0.27,-0.08,2.0
16.52381205558777,-2.57,0.08,-0.47,2.61
16.533857107162476,-2.24,0.15,-0.78,2.37
16.543725967407227,-1.69,0.21,-0.51,1.77
16.5538489818573,-1.36,-0.01,-0.1,1.36
16.563699960708618,-1.25,-0.18,0.18,1.27
16.57376217842102,-1.41,0.04,0.27,1.43
16.615911960601807,-1.35,-0.09,0.12,1.35
16.616339921951294,-0.8,-0.16,0.08,0.81
16.616775035858154,-0.31,-0.17,-0.45,0.57
16.617192029953003,-0.26,-0.33,-0.74,0.85
16.623669862747192,-0.43,-0.28,-0.26,0.57
16.633576154708862,-0.56,0.14,0.05,0.57
16.643578052520752,-0.45,0.22,0.02,0.5
16.65367102622986,-0.24,-0.1,-0.39,0.46
16.663613080978394,0.33,-0.17,-0.92,0.99
16.673474073410034,0.44,0.0,-0.96,1.05
16.715389013290405,-0.06,-0.09,-0.77,0.77
16.71616005897522,-0.19,0.1,-0.45,0.49
16.716588020324707,0.2,0.18,-0.03,0.27
16.71703314781189,0.26,0.01,0.25,0.36
16.723495960235596,0.14,0.24,0.09,0.29
16.733475923538208,-0.05,0.14,0.33,0.36
16.74342703819275,-0.24,-0.01,0.26,0.35
16.75348401069641,-0.21,0.08,0.46,0.51
16.76342511177063,-0.2,0.04,0.88,0.9
16.77335000038147,-0.17,0.03,0.92,0.93
16.81619906425476,-0.23,0.15,0.9,0.94
16.816631078720093,-0.36,0.0,0.36,0.5
16.817074060440063,-0.13,-0.17,0.06,0.22
16.817495107650757,0.09,-0.1,-0.28,0.31
16.823426961898804,0.29,-0.09,-0.84,0.89
16.833224058151245,0.69,0.08,-0.68,0.97
16.8432559967041,1.03,-0.15,-0.73,1.27
16.853374004364014,1.46,-0.19,-0.62,1.59
16.86333394050598,1.36,0.02,-0.01,1.36
16.873318910598755,0.59,0.11,-0.32,0.68
16.915510892868042,0.11,-0.05,-0.59,0.6
16.916309118270874,0.02,0.09,-0.23,0.24
16.916728973388672,0.08,0.0,-0.04,0.08
16.917178869247437,0.29,-0.2,0.19,0.4
16.92322087287903,-0.4,-0.1,0.21,0.46
16.933018922805786,-0.95,-0.01,0.51,1.07
16.943194150924683,-0.43,0.06,0.65,0.78
16.95317006111145,-0.11,-0.09,0.35,0.37
16.963133096694946,-0.47,-0.06,-0.22,0.52
16.97324013710022,-0.44,0.06,-0.49,0.66
17.01575803756714,-0.07,0.0,-0.25,0.25
17.016534090042114,-0.09,-0.01,-0.43,0.43
17.016957998275757,-0.04,-0.03,-0.47,0.47
17.017385959625244,0.2,-0.07,-0.43,0.47
17.02308487892151,0.14,-0.02,-0.57,0.58
17.033136129379272,-0.23,0.13,-0.6,0.65
17.043009996414185,-0.41,0.09,-0.11,0.43
17.05308198928833,-0.28,0.05,0.21,0.35
17.062978982925415,-0.08,-0.04,0.04,0.09
17.072970151901245,0.2,0.0,-0.15,0.25
17.115136861801147,0.64,-0.01,-0.12,0.65
17.115558862686157,0.97,-0.01,-0.07,0.97
17.116299867630005,1.29,0.05,-0.08,1.29
17.11672306060791,1.73,0.04,0.27,1.75
17.122787952423096,1.69,-0.02,0.48,1.75
17.13305687904358,0.97,-0.06,0.47,1.07
17.142735958099365,0.2,-0.04,0.49,0.53
17.15288496017456,-0.34,-0.02,0.45,0.56
17.16285490989685,-0.48,-0.04,0.46,0.66
17.17285704612732,-0.21,-0.05,0.43,0.48
17.21457600593567,0.09,0.01,0.38,0.39
17.21572709083557,0.3,0.06,0.28,0.41
17.216482877731323,0.32,0.05,0.06,0.32
17.216904878616333,0.05,0.03,-0.37,0.37
17.222784996032715,-0.33,0.08,-0.68,0.76
17.233065843582153,-0.6,0.12,-0.55,0.82
17.242702960968018,-0.48,0.19,-0.48,0.7
17.252679109573364,0.07,0.19,-0.51,0.54
17.262693166732788,1.14,0.25,-0.42,1.24
17.272695064544678,2.11,0.36,-0.16,2.14
17.28270697593689,2.42,0.45,0.25,2.47
17.31555485725403,2.4,0.41,0.39,2.46
17.315983057022095,2.33,0.46,0.41,2.41
17.316738843917847,2.09,0.53,0.75,2.28
17.3226158618927,1.42,0.53,0.98,1.8
17.332567930221558,0.65,0.58,1.06,1.37
17.342363119125366,-0.11,0.62,1.21,1.36
17.352540016174316,-0.17,0.46,0.83,0.96
17.3625009059906,0.28,0.43,0.38,0.63
17.372565984725952,0.8,0.57,-0.46,1.08
17.38248085975647,1.18,1.18,-1.52,2.25
17.41645097732544,2.31,2.94,-0.61,3.78
17.416877031326294,2.99,3.41,0.96,4.63
17.41763186454773,2.97,3.55,0.28,4.63
17.422550916671753,3.36,4.08,0.38,5.29
17.432515859603882,4.12,4.54,0.91,6.19
17.4423930644989,4.87,4.74,0.63,6.82
17.452439069747925,5.37,4.8,0.51,7.22
17.462368965148926,4.83,4.44,0.34,6.56
17.472347021102905,3.64,4.53,-0.36,5.82
17.482288122177124,2.49,4.39,-0.8,5.11
17.516196966171265,1.59,3.53,-1.4,4.11
17.517300844192505,0.86,2.09,-1.81,2.89
17.51774501800537,0.56,-0.5,-1.84,1.98
17.5223171710968,1.32,-2.32,-1.57,3.09
17.532233953475952,1.5,-2.59,0.19,2.99
17.54224395751953,-0.09,-1.43,0.75,1.61
17.55227303504944,4.31,-1.39,-1.53,4.78
17.56220507621765,8.33,-1.44,-0.24,8.45
17.57231307029724,8.68,-1.58,2.01,9.04
17.5820369720459,7.44,-2.37,2.48,8.19
17.617758989334106,6.77,-2.58,2.26,7.58
17.618183851242065,6.71,-1.9,1.78,7.19
17.618601083755493,6.26,-1.48,1.33,6.56
17.622079133987427,5.41,-1.36,1.22,5.71
17.632097005844116,4.35,-1.13,1.04,4.61
17.64210605621338,3.21,-0.57,0.62,3.31
17.652146100997925,2.33,-0.08,0.1,2.33
17.662122011184692,1.76,0.24,-0.17,1.78
17.672107934951782,1.19,0.52,-0.14,1.3
17.682070016860962,0.56,0.83,-0.16,1.01
17.717833042144775,-0.14,1.08,-0.28,1.12
17.71825909614563,-1.01,1.16,-0.3,1.56
17.7186758518219,-1.27,1.51,-0.46,2.02
17.721996068954468,-0.91,1.71,-0.47,1.99
17.732007026672363,-0.19,1.61,-0.22,1.63
17.74192500114441,-1.81,1.62,0.66,2.51
17.7520170211792,-2.23,1.33,0.5,2.64
17.761932134628296,-2.83,1.49,0.08,3.19
17.771897077560425,-2.93,1.74,-0.39,3.42
17.78190803527832,-2.39,1.8,-0.5,3.03
17.818000078201294,-1.5,1.98,-0.53,2.53
17.81843590736389,-0.85,2.22,-0.66,2.46
17.8188579082489,-0.92,2.18,-0.67,2.45
17.821833848953247,-1.34,1.7,-0.66,2.26
17.83182692527771,-2.11,1.12,-0.82,2.52
17.841808080673218,-2.75,0.7,-0.93,2.98
17.851749181747437,-3.19,0.3,-0.78,3.29
17.86178994178772,-3.51,-0.21,-0.53,3.55
17.8717679977417,-3.8,-0.58,-0.5,3.87
17.881700038909912,-3.96,-0.75,-0.88,4.12
17.918118000030518,-3.94,-0.55,-1.33,4.19
17.918550968170166,-3.67,-0.48,-1.56,4.01
17.918971061706543,-3.46,-0.73,-1.2,3.73
17.92166304588318,-3.76,-1.2,-0.88,4.04
17.931668043136597,-4.25,-1.58,-0.88,4.61
17.941631078720093,-4.5,-1.9,-1.07,5.0
17.951711893081665,-4.45,-2.32,-1.19,5.15
17.961608171463013,-4.27,-2.46,-1.13,5.05
17.97165083885193,-4.1,-2.4,-0.88,4.83
17.981652975082397,-4.06,-2.68,-0.66,4.9
18.018311977386475,-3.17,0.07,-0.77,3.26
18.01874804496765,1.04,4.66,-1.08,4.89
18.019170999526978,2.54,0.92,0.21,2.7
18.02146005630493,6.27,1.03,3.32,7.16
18.031491994857788,8.17,0.79,9.04,12.21
18.04149317741394,3.92,0.14,5.12,6.44
18.05153799057007,-1.05,0.12,-2.45,2.66
18.06144118309021,-3.41,1.9,-3.39,5.17
18.071485996246338,-2.29,3.02,-1.69,4.14
18.08159303665161,-1.0,4.9,-1.29,5.16
18.118816137313843,-2.19,6.52,-1.6,7.06
18.119248151779175,-3.71,3.87,-1.59,5.59
18.11966586112976,-3.53,0.51,-1.1,3.73
18.121315002441406,-2.87,-0.61,-0.62,2.99
18.131314992904663,-2.27,-1.04,-0.12,2.49
18.141345024108887,-1.81,-1.37,0.0,2.27
18.15123200416565,-1.25,-0.99,-0.02,1.59
18.161260843276978,-1.67,0.0,-0.85,1.87
18.17129683494568,-3.53,-1.67,-3.11,4.99
18.181223154067993,-3.94,0.09,-3.54,5.29
18.218665838241577,-3.42,0.85,-2.15,4.12
18.219096899032593,-2.84,-0.07,-0.87,2.97
18.219518899917603,-1.86,-0.54,-0.57,2.01
18.221111059188843,-1.19,0.15,-0.37,1.25
18.23117995262146,-1.33,1.58,-0.38,2.09
18.24115800857544,-1.17,1.46,-1.5,2.39
18.25096583366394,-0.51,0.26,-1.57,1.67
18.261006116867065,0.92,-0.91,-0.38,1.34
18.271154165267944,1.21,-0.94,0.59,1.64
18.281085968017578,0.04,-0.57,0.1,0.58
18.319113969802856,-1.66,-0.79,-0.51,1.9
18.319544076919556,-2.43,-0.65,-1.06,2.72
18.31996202468872,-1.51,-0.61,-0.82,1.82
18.320985078811646,-0.47,0.09,-0.01,0.47
18.3310329914093,-0.42,0.49,0.54,0.84
18.34099507331848,-0.59,0.22,0.19,0.65
18.35097908973694,-0.34,0.16,-0.4,0.54
18.36097002029419,-0.41,0.2,-0.53,0.69
18.37112593650818,-0.85,0.0,-0.43,0.95
18.380985021591187,-0.91,-0.05,-0.21,0.93
18.418962001800537,-0.81,-0.06,0.28,0.85
18.41940402984619,-0.98,-0.14,0.4,1.06
18.419830083847046,-1.37,-0.12,0.58,1.49
18.42086696624756,-1.54,-0.14,0.91,1.79
18.430877923965454,-1.19,-0.26,1.01,1.58
18.440868139266968,-0.65,-0.13,0.93,1.14
18.451017141342163,-0.39,-0.06,0.95,1.02
18.460829973220825,-0.47,-0.06,1.04,1.14
18.470843076705933,-0.05,-0.11,0.41,0.42
18.480840921401978,0.48,-0.4,-0.6,0.86
18.519551992416382,0.24,-0.04,-0.42,0.48
18.519986867904663,-0.53,0.15,0.05,0.55
18.520427942276,-0.61,-0.06,-0.24,0.65
18.520846128463745,-0.08,-0.02,-0.81,0.81
18.530728101730347,0.0,0.15,-1.07,1.08
18.54080295562744,-0.02,0.06,-0.81,0.81
18.550660848617554,-0.31,0.06,-0.48,0.57
18.56075406074524,-0.65,0.07,-0.06,0.65
18.57069706916809,-0.47,0.01,0.25,0.53
18.580694913864136,-0.16,0.02,-0.1,0.18
18.618824005126953,-0.29,-0.09,-0.19,0.35
18.61925506591797,-0.72,-0.06,-0.01,0.72
18.619673013687134,-0.75,-0.07,0.38,0.84
18.62052297592163,-0.28,-0.02,0.77,0.81
18.63056492805481,0.15,0.02,0.56,0.58
18.64060616493225,-0.52,-0.16,0.33,0.63
18.650429010391235,-1.21,-0.11,-0.11,1.21
18.660589933395386,-1.25,-0.12,0.08,1.25
18.670554876327515,-1.21,-0.11,0.16,1.22
18.68055295944214,-0.85,-0.04,-0.01,0.85
18.718766927719116,0.11,-0.02,0.43,0.44
18.71920609474182,0.64,-0.03,0.45,0.78
18.71960997581482,0.21,-0.03,-0.36,0.41
18.72040104866028,-0.11,0.05,-0.5,0.51
18.73040509223938,0.12,0.07,0.1,0.17
18.740410089492798,0.68,0.01,0.24,0.72
18.750411987304688,0.86,0.02,-0.15,0.87
18.760390996932983,0.55,0.1,-0.54,0.77
18.77040696144104,0.34,0.04,-0.66,0.74
18.78034996986389,0.16,-0.04,-0.76,0.77
18.81937003135681,0.05,-0.07,-0.82,0.82
18.81979489326477,0.04,-0.19,-0.35,0.4
18.820215940475464,-0.52,-0.29,0.06,0.59
18.820631980895996,-0.82,-0.05,0.49,0.95
18.830253839492798,-0.36,0.1,0.67,0.76
18.840243101119995,0.11,-0.07,0.17,0.21
18.850136041641235,0.3,-0.12,-0.27,0.42
18.860242128372192,0.09,-0.13,-0.16,0.22
18.870278120040894,-0.22,-0.04,-0.11,0.24
18.880139112472534,-0.46,0.14,-0.2,0.52
18.91857099533081,-0.68,0.18,-0.37,0.79
18.919026136398315,-0.38,0.03,-0.68,0.77
18.919427156448364,0.02,0.03,-0.69,0.69
18.920120000839233,0.27,-0.01,-0.27,0.38
18.930095911026,0.36,-0.12,0.0,0.37
18.94010305404663,0.55,0.1,0.19,0.59
18.950106859207153,0.68,0.16,0.3,0.76
18.960006952285767,0.78,0.04,0.27,0.82
18.970174074172974,0.97,0.17,-0.17,0.99
18.980127096176147,0.98,0.01,-0.63,1.16
19.019165992736816,0.94,-0.09,-0.82,1.25
19.019610166549683,0.73,0.07,-0.84,1.11
19.020025968551636,0.49,0.01,-0.79,0.92
19.020454168319702,0.3,-0.08,-0.37,0.48
19.02996802330017,0.06,0.02,0.33,0.33
19.039912939071655,-0.6,0.03,0.59,0.84
19.049934148788452,-0.88,0.07,0.05,0.88
19.059847116470337,-0.53,0.1,-0.35,0.64
19.06995701789856,-0.11,0.22,-0.38,0.45
19.07991099357605,0.59,0.24,-0.74,0.97
19.119078874588013,1.03,0.03,-0.88,1.35
19.1195330619812,0.82,-0.08,-0.55,0.99
19.11995005607605,0.45,0.0,-0.07,0.45
19.12036395072937,0.34,0.1,0.22,0.41
19.129827976226807,0.45,0.12,0.31,0.55
19.13987708091736,0.57,0.13,0.05,0.58
19.149728059768677,0.73,0.13,0.05,0.74
19.15980887413025,1.0,0.03,-0.01,1.0
19.169909954071045,1.1,-0.08,-0.04,1.1
19.179793119430542,0.92,0.01,0.13,0.92
19.21877884864807,0.5,-0.01,0.32,0.59
19.2192120552063,-0.08,-0.14,0.43,0.45
19.21966004371643,-0.65,0.11,0.32,0.73
19.220077991485596,-0.77,0.29,-0.02,0.82
19.229668855667114,-0.85,0.09,-0.14,0.86
19.23968815803528,-0.98,-0.06,-0.02,0.98
19.249624013900757,-0.88,-0.21,0.37,0.97
19.259598970413208,-0.7,-0.23,0.8,1.08
19.269625902175903,-0.39,0.01,0.87,0.95
19.27956199645996,0.13,0.28,0.34,0.45
19.318789958953857,0.72,0.31,-0.39,0.87
19.319238901138306,1.3,0.32,-1.07,1.71
19.319643020629883,1.85,0.23,-1.07,2.14
19.32004714012146,2.1,0.21,-0.46,2.16
19.329493045806885,1.99,0.34,0.02,2.01
19.339522123336792,1.94,0.41,0.53,2.05
19.3494770526886,1.9,0.31,0.84,2.1
19.35946011543274,1.74,0.44,0.63,1.9
19.36941409111023,1.82,0.74,0.69,2.08
19.37941288948059,2.42,1.43,0.58,2.87
19.419520139694214,3.34,2.09,1.56,4.23
19.41992497444153,3.34,1.59,2.07,4.23
19.420305967330933,3.3,1.59,1.5,3.95
19.420706033706665,3.44,1.9,1.28,4.13
19.4293429851532,3.38,2.46,0.61,4.22
19.439422845840454,3.17,3.03,0.19,4.38
19.449308156967163,3.13,3.77,0.09,4.9
19.45938801765442,3.16,4.65,-0.03,5.62
19.469253063201904,3.21,5.64,-0.23,6.49
19.479233026504517,4.13,6.54,-0.18,7.73
19.5194308757782,5.22,6.64,-0.44,8.45
19.519860982894897,5.5,6.49,-1.13,8.58
19.52028203010559,4.34,5.94,-1.59,7.52
19.520699977874756,2.52,4.42,-1.72,5.37
19.529152154922485,1.52,2.5,-1.37,3.23
19.53914189338684,0.34,0.19,-0.98,1.05
19.549050092697144,-2.04,-0.58,-0.29,2.14
19.559159994125366,-1.47,-0.64,-1.73,2.35
19.569067001342773,2.83,-1.47,-1.85,3.68
19.57919716835022,5.15,-2.35,1.09,5.76
19.619402170181274,4.19,-1.53,1.41,4.67
19.619832038879395,5.96,-1.99,-0.14,6.28
19.620251893997192,7.03,-1.71,1.44,7.37
19.62067198753357,7.45,-1.43,2.66,8.03
19.62900400161743,7.01,-1.98,2.82,7.81
19.639090061187744,6.24,-2.5,2.41,7.14
19.64898991584778,5.94,-2.43,1.92,6.69
19.659034967422485,5.77,-2.08,1.84,6.4
19.668915033340454,5.4,-1.77,1.96,6.01
19.678977012634277,4.59,-1.47,2.29,5.33
19.71973490715027,3.68,-1.18,2.39,4.54
19.7201669216156,3.08,-0.59,2.01,3.72
19.72058892250061,2.65,0.17,1.6,3.1
19.72101616859436,2.25,0.81,1.41,2.77
19.72890591621399,1.6,1.38,1.22,2.43
19.73883891105652,0.67,1.91,0.84,2.19
19.74885392189026,-0.41,2.34,0.42,2.41
19.758846044540405,-1.38,2.62,0.18,2.96
19.76892900466919,-1.82,2.9,0.09,3.42
19.77889895439148,-1.8,3.12,-0.05,3.6
19.819988012313843,-1.9,3.2,-0.32,3.73
19.820425987243652,-2.06,3.21,-0.73,3.88
19.820849180221558,-2.46,2.98,-1.15,4.03
19.821265935897827,-2.68,2.65,-1.58,4.08
19.828755140304565,-2.47,2.62,-2.0,4.11
19.838757038116455,-2.57,2.55,-1.92,4.09
19.84875798225403,-3.23,2.46,-1.83,4.45
19.858741998672485,-4.02,2.1,-1.93,4.92
19.868902921676636,-4.45,1.37,-1.88,5.02
19.878691911697388,-4.54,0.31,-1.69,4.85
19.920119047164917,-4.54,-0.77,-1.46,4.83
19.920531034469604,-4.62,-1.41,-1.28,4.99
19.920953035354614,-4.74,-1.7,-1.33,5.2
19.92137098312378,-4.72,-1.57,-1.61,5.22
19.928579092025757,-4.57,-1.32,-1.9,5.12
19.938634157180786,-4.18,-1.57,-1.91,4.85
19.948657989501953,-3.76,-1.82,-1.74,4.52
19.958587884902954,-3.56,-1.87,-1.6,4.32
19.968559980392456,-3.63,-2.14,-1.37,4.43
19.978574991226196,-3.75,-2.55,-1.19,4.68
20.020233869552612,-3.84,-2.8,-1.12,4.88
20.020672082901,-3.79,-2.45,-0.99,4.62
20.02111315727234,-2.55,4.25,-1.22,5.1
20.021541833877563,4.0,1.74,-2.36,4.95
20.028433084487915,7.45,0.27,0.41,7.46
20.0384361743927,11.76,4.04,9.26,15.5
20.04845690727234,6.71,1.56,7.86,10.45
20.05841088294983,-3.89,-2.81,-1.94,5.17
20.06833815574646,-7.77,-2.66,-3.91,9.09
20.07837200164795,-6.63,-0.4,-0.97,6.71
20.118669986724854,-3.13,1.53,-0.27,3.49
20.1194908618927,-0.4,2.44,-0.96,2.65
20.11991810798645,-0.32,3.62,-1.06,3.78
20.120347023010254,-1.78,4.49,-1.32,5.0
20.12810206413269,-3.64,3.49,-1.22,5.18
20.13829803466797,-5.94,2.28,-1.57,6.55
20.148266077041626,-8.16,4.55,-5.25,10.71
20.158294916152954,-8.65,1.45,-9.28,12.76
20.16820216178894,-3.64,2.4,-6.45,7.78
20.178076028823853,1.5,-0.59,-0.69,1.75
20.218711137771606,2.06,-3.14,1.13,3.92
20.21950888633728,0.17,-2.2,-1.6,2.72
20.219928979873657,-1.15,-0.86,-3.14,3.45
20.22036600112915,-0.88,-0.26,-1.07,1.4
20.22810697555542,-0.86,0.46,-0.21,0.99
20.23814105987549,-0.17,0.79,-0.95,1.24
20.248078107833862,-0.21,-0.17,-0.06,0.27
20.258092164993286,-1.63,-0.75,1.31,2.22
20.268064975738525,-3.47,-0.61,1.59,3.86
20.2779061794281,-3.77,-0.11,1.17,3.94
20.319012880325317,-2.86,0.01,1.01,3.03
20.319441080093384,-2.06,-0.23,0.49,2.12
20.319862127304077,-2.29,-0.67,-0.3,2.4
20.32029891014099,-2.13,-1.17,-0.33,2.45
20.32789397239685,-1.46,-0.8,-0.08,1.66
20.337947130203247,-0.68,0.09,0.19,0.71
20.34790802001953,-0.32,0.36,0.58,0.75
20.357930898666382,-0.28,0.28,0.31,0.5
20.367877960205078,-0.16,0.16,-0.46,0.51
20.377882957458496,0.27,-0.01,-1.18,1.21
20.41942286491394,0.57,-0.11,-1.5,1.6
20.41985297203064,0.44,-0.15,-1.17,1.25
20.42029595375061,-0.05,0.03,-1.13,1.13
20.42072105407715,-0.49,0.14,-1.49,1.57
20.427783012390137,-0.49,-0.03,-1.33,1.41
20.43779706954956,-0.11,-0.18,-0.84,0.86
20.448091983795166,-0.07,-0.18,-0.17,0.25
20.45771813392639,-0.15,-0.07,0.29,0.33
20.467756032943726,-0.29,0.03,0.85,0.89
20.477731943130493,-0.9,-0.07,0.88,1.26
20.51949191093445,-1.15,0.02,0.62,1.3
20.5199191570282,-1.06,0.21,0.76,1.32
20.520363092422485,-1.22,0.03,0.87,1.49
20.52077889442444,-1.11,-0.11,0.73,1.33
20.52768301963806,-0.79,-0.02,0.55,0.96
20.53764510154724,-1.04,-0.06,0.67,1.23
20.547494173049927,-1.13,-0.18,0.67,1.32
20.557585954666138,-0.92,-0.13,0.71,1.16
20.56792712211609,-0.86,-0.17,0.72,1.13
20.57751202583313,-0.68,-0.21,0.51,0.87
20.61937689781189,-0.6,-0.22,0.4,0.75
20.619806051254272,-0.76,-0.13,0.31,0.83
20.620227098464966,-0.49,-0.12,0.04,0.5
20.62066102027893,-0.11,-0.22,0.02,0.24
20.627444982528687,-0.36,-0.11,0.04,0.37
20.637506008148193,-0.79,0.05,-0.22,0.82
20.647435903549194,-0.8,0.05,-0.47,0.92
20.657575845718384,-0.42,-0.07,-0.91,1.0
20.667476892471313,0.06,-0.12,-1.31,1.31
20.677316904067993,0.31,0.12,-1.35,1.39
20.719227075576782,0.39,0.41,-1.08,1.21
20.72003197669983,-0.26,0.45,-0.39,0.64
20.720454931259155,-0.58,0.12,-0.07,0.59
20.720880031585693,-0.28,-0.15,-0.05,0.32
20.727318048477173,-0.13,-0.15,-0.05,0.2
20.737210988998413,-0.17,-0.15,-0.27,0.35
20.747282028198242,-0.16,-0.13,-0.17,0.26
20.75731110572815,-0.05,-0.17,0.22,0.28
20.7673180103302,-0.14,-0.07,0.35,0.38
20.7772159576416,-0.09,-0.02,-0.11,0.14
20.819670915603638,0.13,-0.17,-0.6,0.63
20.820098161697388,0.35,-0.31,-0.91,1.02
20.820518016815186,0.83,-0.29,-0.97,1.3
20.820954084396362,1.41,-0.22,-0.57,1.53
20.82718586921692,1.66,-0.05,-0.22,1.67
20.837055921554565,1.23,0.07,-0.07,1.23
20.84711194038391,0.49,-0.14,-0.34,0.61
20.857147932052612,0.36,-0.27,-0.57,0.72
20.867122888565063,0.7,-0.21,-0.29,0.78
20.877130031585693,0.64,0.0,-0.04,0.64
20.919602155685425,0.53,0.3,-0.13,0.62
20.920027017593384,0.8,0.41,-0.68,1.12
20.920446157455444,0.74,0.38,-1.39,1.61
20.92088484764099,0.69,-0.02,-0.7,0.98
20.926974058151245,0.93,-0.32,-0.1,0.98
20.937021017074585,1.39,-0.16,-0.26,1.42
20.94688391685486,1.73,0.1,0.11,1.73
20.956998109817505,1.38,0.11,-0.08,1.38
20.966975927352905,0.14,-0.09,-0.35,0.38
20.976842164993286,-0.94,0.04,-0.29,0.98
21.019241094589233,-1.57,0.45,-0.05,1.63
21.020029067993164,-1.05,0.18,0.9,1.39
21.020454168319702,0.18,0.04,1.34,1.35
21.020891904830933,1.15,0.2,1.06,1.57
21.026895999908447,1.37,0.06,0.63,1.5
21.03689408302307,0.59,-0.33,-0.19,0.7
21.04680299758911,-0.37,-0.39,-0.64,0.83
21.056851148605347,-0.55,-0.17,-0.57,0.81
21.066900968551636,-0.26,-0.09,-0.7,0.75
21.076874017715454,-0.17,-0.17,-0.9,0.93
21.11884617805481,-0.36,-0.09,-1.02,1.08
21.119277954101562,-0.3,-0.2,-0.62,0.71
21.11968493461609,0.03,-0.2,-0.2,0.28
21.120439052581787,0.5,0.01,-0.01,0.5
21.12684202194214,0.84,0.07,0.22,0.87
21.136913061141968,0.55,-0.07,0.17,0.57
21.146697998046875,-0.11,0.01,-0.18,0.21
21.156705141067505,-0.41,0.18,-0.41,0.6
21.16665291786194,-0.67,0.14,-0.83,1.07
21.17669415473938,-0.96,0.19,-0.86,1.3
21.21942114830017,-0.85,0.4,-0.49,1.05
21.219853162765503,-0.16,0.38,-0.29,0.5
21.220616102218628,0.76,0.22,-0.03,0.79
21.2210590839386,1.45,0.23,0.77,1.65
21.22660803794861,1.98,0.16,1.17,2.3
21.23656916618347,2.25,0.13,1.06,2.49
21.24655318260193,2.75,0.29,1.1,2.97
21.256597995758057,3.41,0.23,1.26,3.64
21.266561031341553,3.76,0.13,1.39,4.01
21.276535987854004,3.92,0.14,1.22,4.1
21.2865309715271,4.16,0.3,1.11,4.31
21.319409132003784,4.41,0.5,1.41,4.65
21.319833040237427,4.67,0.67,1.7,5.01
21.32060408592224,4.34,1.4,1.42,4.77
21.326525926589966,3.25,2.15,0.94,4.0
21.33644700050354,1.52,2.38,0.6,2.88
21.34627413749695,0.22,4.21,0.4,4.23
21.35647988319397,0.82,5.76,-0.45,5.83
21.366370916366577,2.73,4.97,-0.17,5.67
21.376375913619995,2.01,3.85,0.32,4.35
21.386386156082153,1.41,2.96,-0.53,3.32
21.41956901550293,0.81,2.93,0.25,3.05
21.419997930526733,0.87,2.8,0.35,2.95
21.420746088027954,1.44,2.82,0.26,3.17
21.42628312110901,1.89,3.21,-0.23,3.73
21.436278104782104,2.04,4.06,-0.77,4.6
21.446215867996216,2.24,3.5,-0.82,4.23
21.456207990646362,1.56,2.33,-1.3,3.09
21.46623706817627,0.51,2.04,-1.25,2.44
21.47623896598816,-0.59,1.11,-0.45,1.33
21.486204862594604,-2.31,0.47,0.28,2.37
21.519674062728882,-2.06,-0.31,-0.26,2.09
21.520114183425903,0.43,-0.88,-0.31,1.02
21.521175146102905,2.91,-1.77,0.35,3.42
21.526170015335083,4.57,-3.26,1.37,5.77
21.53609585762024,3.97,-2.55,2.2,5.2
21.546056032180786,3.59,-1.17,0.11,3.77
21.556089162826538,4.91,-1.25,-0.34,5.07
21.567149877548218,6.1,-0.68,0.75,6.18
21.57612109184265,7.16,-0.94,1.38,7.35
21.586055994033813,7.27,-1.67,1.7,7.65
21.620527029037476,6.87,-1.79,1.8,7.32
21.62126898765564,6.46,-1.38,1.72,6.82
21.621700048446655,6.1,-0.83,1.68,6.38
21.625988006591797,5.55,-0.41,1.79,5.84
21.63598608970642,4.72,-0.15,1.86,5.07
21.64591908454895,3.58,0.09,1.84,4.02
21.655976057052612,2.47,0.32,1.51,2.91
21.665956020355225,1.82,0.57,0.99,2.14
21.675973176956177,1.6,0.8,0.55,1.87
21.685904026031494,1.29,1.11,0.09,1.7
21.720237970352173,0.81,1.34,-0.28,1.59
21.721309900283813,0.03,1.37,-0.29,1.4
21.721744060516357,-1.09,1.37,-0.06,1.75
21.725909948349,-2.27,1.2,0.01,2.56
21.73586916923523,-2.9,1.04,-0.03,3.08
21.745841026306152,-3.06,1.13,0.03,3.26
21.75583291053772,-2.55,1.34,0.04,2.88
21.76578116416931,-1.72,1.68,-0.33,2.42
21.775756120681763,-2.04,2.05,-0.22,2.9
21.7857449054718,-3.1,2.44,-0.2,3.95
21.82116198539734,-3.19,2.89,-0.71,4.36
21.821613073349,-2.69,3.12,-1.08,4.25
21.82203197479248,-2.08,2.65,-0.99,3.51
21.825692892074585,-2.05,1.72,-0.68,2.76
21.835644960403442,-2.76,1.07,-0.44,2.99
21.84564518928528,-3.68,0.67,-0.62,3.79
21.855658054351807,-4.23,0.25,-1.0,4.35
21.865577936172485,-4.41,-0.13,-1.12,4.55
21.9024498462677,-4.48,-0.5,-1.35,4.7
21.902876138687134,-4.27,-1.26,-1.62,4.73
21.903298139572144,-3.6,-2.19,-1.72,4.55
21.905730962753296,-2.91,-2.57,-1.67,4.22
21.915740966796875,-2.71,-2.5,-1.51,3.98
21.925585985183716,-3.16,-2.52,-1.81,4.42
21.935468912124634,-3.56,0.74,-2.51,4.41
21.945449113845825,-1.37,3.69,-3.31,5.14
21.95552897453308,-2.45,-1.03,-1.48,3.04
21.965326070785522,-3.26,-1.48,-0.53,3.61
22.004285097122192,1.77,0.15,-0.2,1.78
22.004714965820312,6.15,0.93,3.2,6.99
22.005158185958862,5.88,0.69,2.68,6.49
22.005574941635132,1.61,1.47,-2.31,3.17
22.015146017074585,-2.79,2.02,-3.03,4.58
22.025366067886353,-3.69,2.18,-1.05,4.41
22.035317182540894,-2.78,2.91,-0.12,4.02
22.045438051223755,-2.29,3.11,0.57,3.9
22.05535387992859,-2.68,3.05,0.47,4.08
22.065314054489136,-3.72,2.53,-0.81,4.57
22.103532075881958,-3.22,1.15,-1.69,3.81
22.104284048080444,-1.35,-0.74,-1.26,1.98
22.10470986366272,-0.55,-1.73,-0.71,1.94
22.105138063430786,-1.01,-0.31,-0.11,1.06
22.115164041519165,-3.78,1.53,-1.85,4.47
22.125277996063232,-5.97,-0.8,-4.52,7.53
22.135231971740723,-4.59,0.9,-4.96,6.81
22.14519500732422,-1.87,1.32,-2.76,3.58
22.155081033706665,-0.36,-0.28,-1.18,1.26
22.165102005004883,1.0,-1.1,-0.82,1.69
22.203920125961304,2.02,-1.35,-0.36,2.45
22.204723119735718,1.58,-0.95,0.3,1.86
22.20515203475952,0.28,-0.71,0.13,0.77
22.205600023269653,-0.79,0.31,-0.16,0.86
22.215057134628296,-0.85,0.93,0.11,1.26
22.22509503364563,-1.07,0.43,0.92,1.47
22.23502516746521,-1.43,-0.49,0.54,1.6
22.244894981384277,-2.17,-0.97,-0.39,2.4
22.254886865615845,-2.92,-0.74,-0.28,3.02
22.265012979507446,-3.24,-0.53,0.4,3.3
22.30348801612854,-2.99,-0.59,0.93,3.18
22.303920030593872,-2.91,-0.41,0.92,3.07
22.304682970046997,-2.07,-0.37,0.53,2.16
22.30510401725769,-1.05,-0.14,0.75,1.29
22.314932107925415,-0.72,0.16,0.78,1.07
22.32491397857666,-0.95,0.02,0.6,1.12
22.33487105369568,-1.62,-0.14,-0.07,1.62
22.34486413002014,-1.68,-0.11,-0.26,1.7
22.354779958724976,-1.16,0.11,-0.37,1.22
22.364866971969604,-0.9,0.21,-1.36,1.64
22.403344869613647,-0.4,0.06,-1.92,1.96
22.403784036636353,-0.68,-0.12,-1.91,2.03
22.404206037521362,-0.72,-0.05,-2.45,2.55
22.404973030090332,0.08,-0.3,-1.84,1.86
22.414710998535156,-0.35,-0.17,-1.25,1.3
22.424780130386353,-0.84,0.39,-0.95,1.32
22.43471884727478,-0.53,0.08,-0.58,0.78
22.444766998291016,-0.17,0.03,-0.52,0.54
22.45471215248108,-0.2,0.12,-0.31,0.38
22.46468997001648,-0.54,-0.13,-0.23,0.6
22.503749132156372,-0.63,-0.23,-0.03,0.67
22.504162073135376,-0.63,-0.17,0.48,0.81
22.50490117073059,-0.62,-0.11,0.71,0.94
22.5053231716156,-0.55,-0.24,0.64,0.87
22.514629125595093,-0.52,-0.15,0.6,0.8
22.524643182754517,-0.32,0.1,0.62,0.7
22.534545183181763,-0.15,-0.05,0.63,0.64
22.544564962387085,0.1,-0.1,0.5,0.51
22.55492091178894,0.37,0.07,0.47,0.6
22.5645968914032,0.31,-0.03,0.34,0.46
22.60374402999878,-0.11,-0.19,0.14,0.26
22.604195833206177,-0.21,0.14,0.18,0.31
22.604955911636353,-0.22,0.26,0.29,0.44
22.605375051498413,-0.07,0.0,-0.62,0.62
22.614371061325073,0.48,-0.17,-1.47,1.55
22.624472856521606,1.01,0.08,-1.49,1.8
22.63441491127014,0.87,0.23,-1.14,1.45
22.644412994384766,0.28,-0.02,-0.73,0.78
22.65435004234314,-0.29,-0.06,-0.73,0.78
22.664350032806396,-0.59,0.03,-0.55,0.8
22.703619956970215,-0.62,0.11,-0.07,0.63
22.70406985282898,-0.71,0.04,0.2,0.73
22.704489946365356,-0.5,-0.11,0.23,0.56
22.70525288581848,-0.16,0.03,0.2,0.25
22.71429705619812,-0.08,-0.13,0.05,0.16
22.72429394721985,-0.29,-0.13,-0.34,0.46
22.734325170516968,-0.15,0.07,-0.33,0.36
22.744301080703735,-0.07,0.02,-0.03,0.07
22.75424599647522,-0.2,0.12,-0.34,0.41
22.76416301727295,0.02,0.03,-0.71,0.71
22.803688049316406,0.35,-0.11,-0.5,0.62
22.80412197113037,0.8,-0.11,0.2,0.83
22.804524183273315,1.14,-0.01,0.67,1.32
22.805269956588745,1.2,-0.06,0.48,1.29
22.814218044281006,1.31,0.0,0.19,1.32
22.824207067489624,1.51,0.02,0.12,1.51
22.83415389060974,1.65,-0.08,0.22,1.66
22.844130039215088,1.19,-0.1,0.17,1.2
22.854076147079468,0.54,-0.01,-0.03,0.54
22.864039182662964,0.47,0.03,0.05,0.47
22.90360188484192,0.5,-0.02,0.12,0.51
22.9040310382843,0.3,-0.05,0.03,0.3
22.90445303916931,0.28,0.06,-0.01,0.28
22.90523409843445,0.61,0.12,0.08,0.62
22.913931131362915,0.68,-0.04,0.44,0.81
22.923999071121216,0.3,-0.17,0.61,0.7
22.933971166610718,-0.16,-0.08,0.18,0.25
22.9440438747406,-0.42,0.06,-0.32,0.53
22.953909158706665,-0.64,0.06,-0.49,0.8
22.96395707130432,-0.88,0.08,-0.47,1.0
23.00383687019348,-1.02,0.1,-0.29,1.06
23.00426697731018,-0.98,-0.08,0.1,0.98
23.00468897819519,-0.89,-0.1,0.36,0.96
23.00547504425049,-0.85,0.2,0.29,0.92
23.0137300491333,-0.64,0.29,-0.13,0.71
23.0238778591156,-0.24,0.24,-0.71,0.78
23.033764123916626,0.1,0.21,-0.9,0.92
23.043834924697876,0.27,0.27,-1.02,1.08
23.05371904373169,0.23,0.21,-1.07,1.11
23.06381106376648,0.07,0.1,-0.92,0.92
23.10405707359314,0.02,0.03,-0.61,0.61
23.104485988616943,0.22,-0.07,-0.04,0.23
23.104914903640747,0.77,-0.11,0.53,0.94
23.105695962905884,1.5,-0.02,0.9,1.74
23.11366605758667,2.12,0.03,1.19,2.43
23.123803853988647,2.21,0.12,1.31,2.57
23.13361406326294,1.96,0.26,1.09,2.25
23.143759965896606,1.94,0.14,0.66,2.05
23.153624057769775,2.06,0.08,0.07,2.06
23.163604021072388,1.95,0.25,-0.6,2.05
23.20352816581726,1.92,0.38,-0.89,2.15
23.20393705368042,2.09,0.38,-0.56,2.19
23.20433497428894,2.34,0.26,0.01,2.35
23.204746961593628,2.52,0.27,0.63,2.61
23.213567972183228,2.78,0.5,1.06,3.01
23.223618030548096,3.06,1.0,1.32,3.47
23.233582973480225,3.29,1.51,1.34,3.86
23.243615865707397,3.17,1.89,1.03,3.83
23.25356888771057,2.77,3.64,0.07,4.57
23.263502836227417,4.0,4.9,0.67,6.36
23.304538011550903,3.82,4.15,1.76,5.9
23.304960012435913,3.41,4.32,0.36,5.51
23.30568814277649,2.96,5.02,-0.1,5.82
23.30610704421997,2.86,5.17,-0.22,5.91
23.313206911087036,3.15,5.16,-0.53,6.06
23.323230028152466,3.44,5.18,-1.17,6.32
23.333165884017944,3.79,5.53,-1.73,6.92
23.343257188796997,3.91,4.41,-1.65,6.12
23.35330295562744,2.5,1.79,-1.54,3.43
23.363166093826294,1.28,-0.25,-1.34,1.86
23.404536962509155,2.64,-0.42,-1.04,2.86
23.40496516227722,3.7,0.12,0.33,3.71
23.405625104904175,3.14,-0.27,1.33,3.42
23.406047105789185,6.38,-1.17,-0.52,6.5
23.41314387321472,8.19,-0.79,0.38,8.23
23.4232280254364,7.8,-1.01,2.19,8.16
23.43308997154236,7.03,-1.52,2.58,7.64
23.443258047103882,6.71,-1.51,2.04,7.17
23.453181982040405,6.39,-1.11,1.9,6.75
23.4632408618927,5.3,-1.03,2.14,5.8
23.504915952682495,4.09,-1.26,2.16,4.79
23.50567889213562,3.59,-1.37,1.87,4.27
23.506103038787842,3.52,-1.1,1.7,4.06
23.506519079208374,3.23,-0.63,1.57,3.64
23.513041019439697,2.76,0.04,1.26,3.03
23.522927045822144,2.29,0.69,0.86,2.54
23.53313183784485,1.18,1.2,0.66,1.8
23.543087005615234,-0.42,1.6,0.43,1.7
23.553056001663208,-1.38,2.33,-0.03,2.7
23.56303095817566,-2.16,3.2,-0.5,3.89
23.60539197921753,-2.63,3.54,-0.89,4.49
23.606163024902344,-1.98,2.96,-1.44,3.84
23.606587171554565,-2.59,2.35,-0.9,3.61
23.607022047042847,-3.49,1.57,-0.39,3.84
23.612967014312744,-3.21,1.28,-0.55,3.49
23.622822999954224,-3.03,1.73,-1.48,3.79
23.63288402557373,-2.99,1.79,-2.13,4.08
23.642924070358276,-3.4,1.32,-2.39,4.36
23.6528480052948,-4.22,0.55,-2.37,4.87
23.662739038467407,-4.95,-0.18,-1.84,5.28
23.70515203475952,-5.17,-0.45,-1.14,5.31
23.705918073654175,-4.98,-0.12,-0.82,5.04
23.706342935562134,-4.57,0.03,-0.89,4.65
23.706762075424194,-4.28,-0.12,-0.99,4.39
23.71280002593994,-4.03,-0.43,-0.79,4.12
23.722684144973755,-3.66,-0.94,-0.53,3.81
23.732728958129883,-3.39,-1.37,-0.38,3.67
23.74279808998108,-3.1,-1.5,-0.31,3.45
23.752766847610474,-2.97,-1.46,-0.45,3.33
23.762728929519653,-3.02,-1.58,-0.7,3.47
23.806354999542236,-3.16,-1.66,-0.98,3.7
23.806782007217407,-3.38,-1.93,-1.34,4.11
23.807225942611694,-3.43,-0.46,-1.6,3.81
23.80794906616211,-1.18,5.34,-2.66,6.08
23.812592029571533,-2.64,1.0,-2.19,3.57
23.822756052017212,-3.6,-2.8,-1.71,4.87
23.83258318901062,1.16,-1.06,0.15,1.57
23.842644929885864,2.95,1.41,3.13,4.52
23.85256314277649,1.18,1.62,1.04,2.25
23.86255192756653,-1.57,2.43,-2.05,3.54
23.905441999435425,-1.95,3.18,-1.27,3.94
23.906779050827026,-0.21,3.88,0.65,3.93
23.907531023025513,0.98,5.28,0.49,5.39
23.907968997955322,-0.34,6.22,-0.15,6.23
23.912523984909058,-3.57,4.56,-0.9,5.86
23.922463178634644,-4.05,1.15,-0.74,4.27
23.932486057281494,-3.27,-1.24,-0.16,3.5
23.942461013793945,-2.17,-2.76,0.16,3.51
23.95243501663208,-1.02,-2.09,0.31,2.34
23.962390184402466,-1.86,0.73,-1.5,2.49
23.972348928451538,-3.95,-0.35,-3.95,5.59
24.006422996520996,-3.51,1.26,-3.7,5.25
24.006848096847534,-2.86,0.83,-1.89,3.52
24.00760817527771,-3.17,-0.68,-1.57,3.6
24.012262105941772,-2.64,-0.7,-2.26,3.54
24.022161960601807,-0.47,-0.43,-1.43,1.56
24.03224015235901,0.89,-0.23,0.11,0.92
24.042271852493286,0.95,-0.06,0.31,1.0
24.052268028259277,0.23,-0.09,-0.31,0.39
24.06228995323181,-0.63,0.22,-0.81,1.04
24.07227396965027,-0.95,0.46,-0.85,1.35
24.105780839920044,-1.13,0.28,-0.34,1.21
24.106588125228882,-1.36,0.33,0.04,1.4
24.10735011100769,-1.21,0.2,-0.16,1.23
24.11212706565857,-1.16,-0.34,-0.05,1.2
24.12202501296997,-1.26,-0.56,0.19,1.39
24.132139921188354,-1.27,-0.61,0.58,1.52
24.142121076583862,-1.18,-0.48,0.77,1.48
24.152124166488647,-1.25,-0.18,0.98,1.59
24.16210103034973,-1.36,-0.16,0.94,1.66
24.17201805114746,-1.59,-0.41,0.86,1.85
24.205054998397827,-1.2,-0.31,0.71,1.42
24.20548987388611,-0.28,-0.19,0.34,0.47
24.205911874771118,-0.43,-0.16,0.77,0.89
24.212083101272583,-1.17,-0.18,0.79,1.42
24.221999883651733,-1.3,-0.02,0.36,1.34
24.232013940811157,-1.05,0.03,-0.2,1.06
24.24235510826111,-0.77,0.16,-0.6,0.98
24.25187611579895,-0.07,0.02,-0.66,0.66
24.261942148208618,0.23,0.06,-0.8,0.83
24.271934032440186,-0.36,0.3,-1.04,1.14
24.30629301071167,-0.91,0.32,-0.93,1.33
24.307044982910156,-0.51,0.06,-0.58,0.77
24.307476043701172,-0.15,0.13,-0.97,0.99
24.311853170394897,-0.56,-0.02,-1.37,1.48
24.32189393043518,-1.04,-0.15,-1.14,1.55
24.3318350315094,-1.17,-0.15,-0.88,1.47
24.341830015182495,-0.94,-0.12,-1.09,1.44
24.351760149002075,-0.65,-0.1,-1.92,2.02
24.361839056015015,-0.1,-0.35,-1.31,1.35
24.371814012527466,-0.19,-0.17,-0.53,0.58
24.405688047409058,-0.09,0.04,-0.78,0.78
24.406134843826294,0.37,-0.4,-0.82,0.98
24.40722393989563,0.65,-0.59,-1.28,1.55
24.41171908378601,1.1,-0.31,-1.62,1.98
24.4216468334198,1.27,0.07,-1.58,2.02
24.431681871414185,1.16,-0.03,-0.95,1.49
24.44169306755066,0.92,0.37,-0.44,1.08
24.45194983482361,0.38,0.46,-0.09,0.6
24.461663007736206,-0.13,0.2,0.27,0.36
24.471734046936035,-0.37,0.15,0.73,0.83
24.50564217567444,-0.42,0.24,1.28,1.36
24.50608801841736,-0.65,0.03,1.97,2.07
24.507147073745728,-0.75,-0.09,2.0,2.13
24.51153302192688,-0.21,-0.12,1.65,1.66
24.521461963653564,0.61,-0.24,1.44,1.58
24.53147292137146,0.77,-0.15,1.14,1.38
24.541488885879517,0.19,-0.18,0.65,0.7
24.551383018493652,-0.3,0.04,0.47,0.55
24.56149196624756,-0.42,0.31,0.16,0.54
24.57149910926819,-0.02,0.04,-0.64,0.64
24.605347871780396,0.59,-0.08,-0.82,1.01
24.605793952941895,0.58,-0.12,-0.56,0.81
24.606894969940186,0.34,-0.04,0.04,0.34
24.611389875411987,0.3,0.17,0.77,0.84
24.621320009231567,0.67,-0.07,1.36,1.51
24.631365060806274,1.06,-0.33,0.88,1.41
24.641321897506714,1.15,-0.15,-0.13,1.16
24.651334047317505,1.01,0.13,-0.76,1.27
24.661306142807007,1.01,0.15,-0.98,1.41
24.67131996154785,0.89,0.07,-0.96,1.31
24.705666065216064,0.28,-0.13,-0.5,0.58
24.706400156021118,-0.47,-0.08,-0.17,0.5
24.70714783668518,-0.86,0.03,0.03,0.86
24.711254835128784,-0.81,0.07,0.32,0.87
24.721212148666382,-0.38,0.12,0.18,0.43
24.73117995262146,-0.24,0.13,-0.2,0.33
24.741034030914307,-0.33,0.13,-0.49,0.6
24.751176118850708,-0.26,0.06,-0.6,0.65
24.761229991912842,-0.25,-0.01,-0.62,0.66
24.771144151687622,-0.31,0.1,-0.57,0.65
24.80568289756775,-0.32,0.14,-0.41,0.53
24.806421041488647,-0.54,0.0,-0.45,0.7
24.80714702606201,-0.65,0.0,-0.16,0.66
24.81109595298767,-0.56,0.07,0.36,0.66
24.821035146713257,-0.56,0.11,0.38,0.68
24.831043004989624,-0.37,0.05,0.12,0.39
24.840898990631104,0.09,-0.02,0.02,0.09
24.85107111930847,0.55,0.0,-0.31,0.63
24.86100196838379,0.99,-0.1,-0.38,1.06
24.870864152908325,1.22,-0.1,-0.2,1.24
24.906357049942017,1.16,0.02,0.05,1.16
24.907160997390747,0.75,-0.02,0.42,0.85
24.907580137252808,0.06,0.11,0.85,0.85
24.910889863967896,-0.5,0.03,1.37,1.45
24.920879125595093,-0.84,-0.07,1.44,1.66
24.9308500289917,-0.78,-0.06,1.0,1.26
24.940787076950073,-0.23,-0.05,0.32,0.39
24.950777053833008,0.58,0.02,-0.41,0.71
24.961017847061157,1.1,0.14,-1.18,1.61
24.970911026000977,1.22,0.26,-0.89,1.53
25.00583004951477,1.01,0.45,-0.94,1.45
25.006438970565796,0.47,0.45,-1.21,1.37
25.007215976715088,0.38,0.15,-0.77,0.87
25.010776042938232,0.74,-0.12,-0.44,0.86
25.02077603340149,1.16,-0.08,-0.2,1.17
25.030768156051636,1.36,0.26,0.17,1.39
25.040842056274414,1.48,0.61,0.56,1.69
25.0506751537323,1.62,0.69,0.58,1.85
25.060688972473145,1.74,0.61,0.33,1.87
25.070657968521118,1.66,0.6,0.07,1.76
25.106762170791626,1.7,0.72,-0.27,1.86
25.10753607749939,1.76,0.94,-0.44,2.04
25.10795497894287,1.91,1.27,-0.54,2.35
25.110620975494385,2.5,2.0,-0.15,3.2
25.120659112930298,3.43,2.82,0.37,4.45
25.130625009536743,4.55,3.52,0.71,5.79
25.140774965286255,4.32,3.69,1.32,5.83
25.150588035583496,4.37,3.98,1.1,6.01
25.160599946975708,4.32,4.77,0.95,6.5
25.17054295539856,4.83,5.55,0.53,7.37
25.206714868545532,5.82,6.3,0.25,8.58
25.207519054412842,6.39,6.88,-0.25,9.39
25.20794415473938,6.11,6.6,-0.86,9.03
25.21042513847351,5.0,4.82,-1.06,7.02
25.22049117088318,3.04,3.52,-0.6,4.68
25.230457067489624,0.46,2.11,-0.81,2.3
25.24077010154724,-1.56,0.3,-1.32,2.06
25.25039315223694,-2.17,-0.54,-1.21,2.54
25.260443925857544,-0.87,-0.34,-1.06,1.41
25.27039098739624,3.43,-0.63,-0.5,3.52
25.306570053100586,7.16,-1.85,1.02,7.46
25.30731701850891,6.81,-1.63,2.28,7.36
25.307742834091187,7.39,-0.99,0.37,7.46
25.310404062271118,8.29,-1.52,1.77,8.61
25.320348978042603,8.66,-1.58,3.19,9.36
25.33030915260315,7.85,-2.46,3.01,8.75
25.34029507637024,6.24,-2.97,2.36,7.3
25.35026502609253,5.4,-2.68,1.87,6.31
25.36041498184204,4.93,-2.16,1.66,5.63
25.370310068130493,4.32,-1.75,1.66,4.94
25.407793045043945,3.63,-1.46,1.59,4.22
25.408223867416382,3.08,-0.82,1.56,3.54
25.408672094345093,2.77,0.1,1.41,3.1
25.410184144973755,2.34,0.91,0.98,2.69
25.42001986503601,1.53,1.7,0.45,2.33
25.430103063583374,0.55,2.43,-0.14,2.49
25.440041065216064,-0.53,2.96,-0.5,3.04
25.450077056884766,-1.56,3.23,-0.34,3.6
25.460179090499878,-1.44,3.58,-0.2,3.86
25.47006392478943,-0.57,3.59,-0.33,3.64
25.507856130599976,-2.58,3.42,0.4,4.3
25.50829815864563,-4.34,3.02,-0.25,5.29
25.50872492790222,-4.7,3.24,-1.27,5.84
25.509989976882935,-4.5,3.34,-1.81,5.88
25.519996881484985,-3.93,3.17,-2.04,5.44
25.529969930648804,-3.29,2.74,-2.14,4.78
25.53997302055359,-3.59,2.2,-1.98,4.65
25.549988985061646,-4.84,1.04,-1.71,5.23
25.560027837753296,-5.7,-0.47,-1.57,5.93
25.569875955581665,-6.66,-1.64,-1.95,7.13
25.607614040374756,-7.06,-2.31,-2.38,7.8
25.60804009437561,-6.65,-2.28,-2.33,7.4
25.608458995819092,-5.7,-1.78,-2.13,6.33
25.60985803604126,-4.89,-1.31,-2.44,5.61
25.619750022888184,-5.53,-1.46,-3.34,6.62
25.629750967025757,-7.6,-1.66,-3.9,8.7
25.639729022979736,-5.24,3.34,-4.14,7.46
25.649844884872437,-1.07,2.81,-2.07,3.65
25.659868001937866,-0.35,-0.28,-0.27,0.52
25.66972303390503,6.78,1.47,4.16,8.08
25.708587884902954,9.64,0.91,9.06,13.26
25.70901894569397,4.36,-0.25,2.32,4.94
25.709439992904663,-1.62,0.52,-2.96,3.41
25.709859132766724,-3.65,1.05,-2.17,4.37
25.719631910324097,-2.98,1.19,-1.23,3.43
25.729667901992798,-2.42,2.3,-1.02,3.49
25.73960304260254,-2.8,2.59,-0.17,3.81
25.74958896636963,-3.43,2.42,-0.07,4.19
25.759677171707153,-4.34,2.07,-0.95,4.9
25.76944899559021,-4.88,2.62,-2.21,5.96
25.808686017990112,-4.18,2.28,-2.76,5.5
25.809130907058716,-2.89,0.31,-2.14,3.6
25.80955696105957,-1.48,-0.27,-1.71,2.27
25.809980154037476,-1.23,0.79,-2.51,2.9
25.8194739818573,-3.08,-0.95,-5.21,6.12
25.829481840133667,-3.32,0.57,-5.41,6.37
25.839432954788208,-1.51,1.58,-1.9,2.89
25.849411010742188,0.02,0.08,0.67,0.67
25.859533071517944,0.34,-1.25,1.61,2.06
25.869433164596558,-0.72,-1.75,1.32,2.3
25.90887188911438,-2.21,-1.25,-0.03,2.53
25.90932011604309,-2.31,-0.59,-0.15,2.38
25.909743070602417,-1.29,0.12,0.51,1.39
25.910163164138794,-0.33,0.4,0.01,0.51
25.919379949569702,-0.26,-0.06,-0.89,0.92
25.929442167282104,-0.71,0.05,-0.85,1.1
25.93932795524597,-0.96,0.36,-0.43,1.11
25.949290990829468,-0.97,0.0,0.12,0.97
25.959439992904663,-1.33,-0.55,0.53,1.53
25.969244956970215,-1.86,-0.24,0.27,1.89
26.008527994155884,-2.16,-0.11,0.26,2.17
26.00898289680481,-1.75,-0.06,0.27,1.77
26.00939917564392,-1.1,-0.27,0.38,1.19
26.009816884994507,-0.49,-0.31,0.74,0.94
26.019196033477783,-0.21,-0.16,0.68,0.72
26.029232025146484,-0.17,0.06,0.48,0.51
26.03915500640869,-0.73,-0.1,-0.18,0.75
26.049163103103638,-1.0,-0.27,-0.32,1.08
26.059133052825928,-1.11,-0.13,0.02,1.11
26.06916117668152,-1.04,-0.05,0.08,1.04
26.10873007774353,-0.81,-0.06,-0.11,0.81
26.10916805267334,-1.05,0.03,-0.46,1.14
26.109580039978027,-1.04,0.1,-0.47,1.14
26.1099750995636,-0.5,0.1,-0.23,0.55
26.119073152542114,-0.31,0.15,-0.33,0.47
26.129151105880737,-0.9,0.18,-0.38,0.99
26.139052152633667,-1.54,0.19,-0.16,1.55
26.14902400970459,-1.54,0.01,0.2,1.55
26.15903401374817,-0.88,-0.17,0.14,0.9
26.169088125228882,-0.09,-0.06,-0.01,0.1
26.208050966262817,-0.51,-0.03,0.21,0.55
26.208481073379517,-1.18,-0.23,0.22,1.22
26.208903074264526,-1.13,-0.21,0.01,1.14
26.20932102203369,-0.72,-0.11,-0.99,1.22
26.218880891799927,-0.27,-0.41,-1.45,1.53
26.228881120681763,-0.36,-0.33,-0.72,0.87
26.23889708518982,-0.27,-0.01,-0.24,0.36
26.248902082443237,0.1,-0.06,-0.14,0.18
26.258782148361206,0.16,-0.1,-0.86,0.88
26.2688570022583,0.33,-0.14,-1.47,1.51
26.307934999465942,0.69,-0.08,-1.28,1.45
26.30873703956604,0.73,0.16,-0.61,0.96
26.309160947799683,0.52,0.24,-0.47,0.74
26.30957818031311,0.39,-0.01,-0.72,0.81
26.31876015663147,0.37,-0.11,-0.88,0.96
26.32878303527832,0.0,0.02,-0.57,0.57
26.338757038116455,-0.37,0.14,0.05,0.39
26.34875988960266,-0.7,0.15,0.84,1.1
26.358572959899902,-0.59,0.11,1.22,1.35
26.368690967559814,-0.48,-0.09,1.17,1.26
26.40765690803528,-0.32,-0.15,0.48,0.59
26.408458948135376,0.09,-0.2,0.12,0.25
26.40888285636902,0.31,-0.17,0.38,0.51
26.40930485725403,0.44,0.01,0.56,0.71
26.418604135513306,0.37,-0.03,0.55,0.66
26.42860198020935,0.17,-0.1,0.12,0.23
26.438519954681396,0.47,-0.01,-0.43,0.63
26.448571920394897,0.86,-0.04,-0.36,0.93
26.458646059036255,0.94,0.0,-0.06,0.94
26.468546152114868,0.66,0.04,0.07,0.66
26.50754189491272,0.45,0.04,0.06,0.45
26.50795292854309,0.25,-0.06,0.11,0.27
26.508673906326294,0.14,0.01,-0.04,0.14
26.509092092514038,0.22,0.02,0.03,0.22
26.518460035324097,0.21,0.01,0.03,0.21
26.5284640789032,0.4,-0.01,-0.09,0.41
26.538387060165405,0.85,0.08,-0.04,0.85
26.54836916923523,1.16,0.06,0.1,1.16
26.55869698524475,0.89,-0.04,0.12,0.89
26.568382024765015,0.29,-0.12,-0.14,0.34
26.60821509361267,-0.18,-0.02,-0.57,0.59
26.608990907669067,-0.43,0.14,-0.66,0.8
26.609419107437134,-0.58,0.15,-0.46,0.75
26.6098370552063,-0.46,0.07,-0.23,0.51
26.618306875228882,0.01,0.08,-0.16,0.17
26.628259897232056,0.71,0.08,0.01,0.71
26.638246059417725,1.2,0.0,0.2,1.21
26.648282051086426,0.82,-0.14,0.13,0.84
26.65825605392456,-0.05,-0.11,-0.52,0.53
26.66812014579773,-0.58,0.06,-0.75,0.95
26.70827317237854,-0.67,0.07,-0.39,0.77
26.709038972854614,-0.6,0.01,0.13,0.61
26.709444999694824,-0.45,0.01,0.24,0.51
26.709842920303345,-0.14,0.01,0.16,0.21
26.718157052993774,0.34,0.02,0.11,0.35
26.728203058242798,0.8,0.0,0.18,0.82
26.738113164901733,0.91,-0.01,0.21,0.93
26.748131036758423,0.79,-0.03,-0.01,0.79
26.758128881454468,0.43,-0.05,-0.09,0.44
26.76799988746643,0.17,-0.03,0.11,0.2
26.808130979537964,0.06,0.03,0.28,0.28
26.808897972106934,0.03,0.09,0.04,0.1
26.80930495262146,0.22,0.09,-0.38,0.44
26.809712171554565,0.65,0.1,-0.54,0.85
26.818060159683228,1.06,0.16,-0.73,1.29
26.8279709815979,1.1,0.18,-0.85,1.4
26.837948083877563,1.02,0.24,-0.77,1.3
26.848005056381226,0.83,0.21,-0.46,0.97
26.8579580783844,0.59,0.12,0.05,0.6
26.867944955825806,0.48,0.05,0.59,0.76
26.90828585624695,0.52,-0.01,0.9,1.03
26.90906596183777,0.8,0.06,0.85,1.16
26.909482955932617,1.25,0.22,0.65,1.42
26.909906148910522,1.6,0.29,0.45,1.68
26.917866945266724,1.84,0.21,0.13,1.85
26.92788290977478,1.77,0.26,-0.13,1.79
26.937891960144043,1.56,0.52,-0.19,1.65
26.947901964187622,1.35,0.67,-0.03,1.5
26.957774877548218,1.19,0.75,0.27,1.43
26.96780300140381,1.11,0.85,0.71,1.56
27.007882833480835,1.15,0.86,0.74,1.61
27.0083110332489,0.83,1.04,-0.03,1.33
27.009093046188354,1.12,2.93,-0.85,3.24
27.00951600074768,3.13,4.4,0.35,5.41
27.017646074295044,3.2,3.78,1.76,5.25
27.02786087989807,2.96,3.66,0.2,4.71
27.037628889083862,2.79,4.06,-0.44,4.94
27.047714948654175,2.96,4.42,-0.39,5.33
27.05763602256775,3.55,4.78,-0.47,5.97
27.067651987075806,4.04,5.05,-1.04,6.55
27.10884404182434,4.1,4.92,-1.49,6.57
27.109266996383667,3.95,4.87,-2.01,6.58
27.1096830368042,3.09,4.88,-2.45,6.27
27.11012291908264,2.04,4.23,-2.34,5.24
27.117541074752808,1.61,2.87,-2.28,4.0
27.127436876296997,1.3,0.85,-1.8,2.37
27.137497186660767,0.37,-0.56,-0.75,1.0
27.14755892753601,0.63,-1.09,-1.55,1.99
27.15754008293152,3.61,-1.75,-2.17,4.56
27.167575120925903,5.15,-1.79,-0.19,5.45
27.208452939987183,3.56,-1.3,0.27,3.79
27.209249019622803,5.0,-1.93,-1.59,5.59
27.209673166275024,7.69,-1.97,-0.42,7.94
27.210120916366577,9.25,-1.7,1.48,9.52
27.217391967773438,8.75,-2.19,2.47,9.35
27.227433919906616,7.39,-2.76,2.49,8.27
27.23742413520813,6.43,-2.81,2.09,7.32
27.247449159622192,5.92,-2.48,1.85,6.67
27.257380962371826,5.51,-2.12,1.73,6.15
27.267158031463623,4.76,-1.77,1.68,5.34
27.308510065078735,3.89,-1.31,1.64,4.42
27.30927300453186,3.23,-0.87,1.52,3.67
27.30970001220703,2.74,-0.39,1.53,3.16
27.310121059417725,2.34,0.32,1.44,2.76
27.31723713874817,1.73,1.22,1.09,2.38
27.327274084091187,0.79,2.07,0.23,2.22
27.3372540473938,-0.5,2.67,-0.77,2.82
27.3472158908844,-1.76,2.77,-1.17,3.48
27.357096910476685,-2.6,2.59,-0.88,3.77
27.36719799041748,-2.25,2.46,-0.52,3.37
27.40944790840149,-2.39,2.4,0.36,3.4
27.40988302230835,-4.03,1.92,1.14,4.6
27.410328149795532,-3.76,1.68,0.47,4.14
27.410747051239014,-3.17,2.37,-0.25,3.96
27.41709017753601,-2.55,2.8,-0.66,3.84
27.42704701423645,-2.11,2.57,-0.65,3.38
27.437000036239624,-2.1,2.33,-0.6,3.19
27.447041988372803,-2.43,1.72,-0.39,3.0
27.457084894180298,-2.63,1.14,-0.2,2.87
27.466924905776978,-3.12,1.1,-0.28,3.32
27.509176015853882,-3.72,0.8,-0.47,3.83
27.50960087776184,-4.12,0.2,-0.43,4.14
27.51001811027527,-4.27,-0.46,-0.52,4.32
27.510464906692505,-4.38,-0.98,-0.69,4.54
27.51701807975769,-4.24,-1.15,-1.01,4.5
27.526905059814453,-4.14,-1.17,-1.11,4.44
27.536897897720337,-4.41,-1.39,-1.18,4.77
27.54697012901306,-5.2,-1.95,-1.82,5.84
27.55691409111023,-6.09,-2.31,-2.61,7.01
27.567833185195923,-5.97,-1.9,-2.87,6.89
27.609474897384644,-3.14,3.21,-2.79,5.28
27.60990309715271,-0.32,3.62,-2.54,4.43
27.610350847244263,-1.48,-1.26,-1.79,2.64
27.610766172409058,4.7,-0.03,-0.13,4.7
27.616854906082153,7.58,0.55,4.5,8.83
27.626572847366333,4.04,0.56,2.33,4.69
27.636687994003296,-0.19,1.03,-2.07,2.31
27.646715879440308,-1.68,1.66,-1.85,3.0
27.6566059589386,-0.88,1.51,-1.23,2.13
27.666677951812744,-0.19,2.8,-1.73,3.29
27.70925998687744,-1.33,3.98,-1.43,4.43
27.71000599861145,-3.78,3.79,-1.15,5.47
27.710426092147827,-5.58,2.22,-1.33,6.15
27.710842847824097,-5.35,0.5,-1.03,5.47
27.71661686897278,-4.66,0.0,-0.84,4.73
27.726671934127808,-5.03,2.38,-3.71,6.68
27.73646092414856,-5.84,0.36,-6.74,8.92
27.746618032455444,-4.97,1.8,-4.2,6.75
27.75649905204773,-2.74,1.09,-0.32,2.96
27.766536951065063,-1.79,-1.66,1.33,2.78
27.809799909591675,-1.75,-2.06,0.62,2.77
27.810229063034058,-1.46,-1.12,-0.28,1.86
27.810659170150757,-1.34,-0.64,-0.39,1.53
27.811076879501343,-1.74,-0.07,-0.93,1.97
27.81647300720215,-1.54,0.62,-0.98,1.92
27.82646918296814,-0.91,0.45,0.02,1.01
27.83632493019104,-0.59,0.03,0.61,0.84
27.84646701812744,-0.65,-0.22,0.48,0.83
27.856448888778687,-0.58,-0.25,0.75,0.98
27.86641812324524,-0.06,-0.31,0.91,0.96
27.90968918800354,-0.24,-0.48,0.91,1.05
27.910096883773804,-0.99,-0.54,0.45,1.21
27.9105441570282,-1.48,-0.27,-0.12,1.5
27.910982847213745,-1.44,-0.07,0.0,1.44
27.91632103919983,-1.3,-0.03,0.12,1.3
27.926280975341797,-1.35,-0.16,0.16,1.36
27.9362850189209,-1.16,-0.1,0.3,1.2
27.946290969848633,-0.64,-0.01,0.46,0.78
27.956258058547974,-0.1,-0.04,0.3,0.31
27.96628499031067,-0.38,0.0,-0.43,0.57
27.976253032684326,-0.87,0.25,-1.01,1.35
28.01013207435608,-1.19,0.38,-0.97,1.58
28.010571002960205,-1.23,0.23,-0.72,1.44
28.01132106781006,-1.05,0.14,-0.71,1.27
28.016143083572388,-0.64,0.06,-0.72,0.96
28.025971174240112,-0.41,0.07,-0.67,0.78
28.036076068878174,-0.51,0.01,-0.51,0.72
28.046133041381836,-0.44,-0.09,-0.38,0.58
28.056101083755493,-0.23,-0.1,-0.27,0.36
28.06614089012146,-0.08,-0.07,-0.17,0.2
28.076096057891846,0.17,0.07,-0.88,0.89
28.109022855758667,0.02,-0.18,-0.9,0.91
28.10944700241089,-0.57,-0.19,-0.7,0.92
28.109873056411743,-0.4,-0.1,-0.81,0.9
28.116031885147095,0.05,-0.28,0.24,0.37
28.126042127609253,-0.1,0.09,0.44,0.46
28.1359760761261,-0.17,0.11,0.15,0.25
28.146008014678955,0.29,-0.14,-0.46,0.56
28.155954122543335,0.64,-0.19,-0.57,0.87
28.165942907333374,0.55,0.0,-0.38,0.66
28.175881147384644,0.07,-0.03,-0.06,0.09
28.209463834762573,-0.11,0.15,0.09,0.2
28.210185050964355,0.08,0.35,-0.07,0.36
28.21093201637268,0.09,-0.03,-0.19,0.21
28.215912103652954,-0.11,-0.11,-0.32,0.35
28.225705862045288,-0.28,-0.08,-0.1,0.3
28.23574995994568,-0.38,0.14,0.2,0.45
28.24584197998047,0.03,0.13,0.47,0.48
28.25580596923828,0.26,0.16,0.82,0.87
28.265869855880737,0.29,-0.23,0.05,0.37
28.275646924972534,0.22,-0.1,-0.97,0.99
28.309507131576538,0.0,-0.04,-1.03,1.03
28.3102970123291,-0.26,0.01,-0.74,0.78
28.31103014945984,-0.46,0.13,-0.41,0.62
28.315935850143433,-0.19,0.1,-0.23,0.31
28.32562804222107,0.32,-0.1,-0.12,0.35
28.335511922836304,0.48,-0.01,0.18,0.51
28.345699071884155,0.31,0.12,0.4,0.52
28.355632066726685,0.57,0.07,0.63,0.85
28.365673065185547,1.01,0.02,0.57,1.15
28.375614881515503,1.01,-0.03,0.27,1.04
28.40931010246277,0.77,-0.04,-0.13,0.78
28.409741163253784,0.22,-0.13,-0.49,0.55
28.41046690940857,-0.26,-0.03,-0.46,0.52
28.415602922439575,-0.19,0.06,-0.08,0.21
28.42551016807556,-0.03,-0.03,0.05,0.06
28.435538053512573,-0.01,-0.1,0.06,0.11
28.44545602798462,0.04,-0.07,-0.07,0.1
28.45571494102478,0.03,-0.11,-0.07,0.13
28.46552014350891,0.0,-0.02,-0.2,0.2
28.475446939468384,0.18,0.15,-0.15,0.27
28.509428024291992,0.4,0.09,0.05,0.41
28.509884119033813,0.42,0.04,-0.11,0.43
28.51092505455017,0.52,0.04,-0.2,0.55
28.515401124954224,0.6,0.04,-0.13,0.61
28.525316953659058,0.45,0.04,-0.34,0.56
28.535241842269897,0.17,0.04,-0.55,0.57
28.54536199569702,0.11,0.05,-0.43,0.44
28.555325984954834,0.2,0.04,-0.34,0.39
28.591837167739868,0.46,0.03,-0.25,0.52
28.592262029647827,0.45,0.05,-0.39,0.59
28.592684030532837,-0.06,0.06,-0.6,0.6
28.59528398513794,-0.69,0.13,-0.65,0.95
28.605239152908325,-0.88,0.15,-0.44,0.99
28.615298986434937,-0.86,0.07,-0.42,0.95
28.625205993652344,-0.77,0.01,-0.41,0.87
28.63519310951233,-0.57,0.09,-0.31,0.65
28.645238161087036,-0.23,0.11,-0.28,0.37
28.65520215034485,0.17,0.13,-0.2,0.29
28.69331192970276,0.57,0.08,0.23,0.61
28.69411301612854,0.9,0.01,0.82,1.21
28.694536924362183,1.33,0.15,1.16,1.77
28.69499897956848,1.97,0.3,0.89,2.18
28.705118894577026,2.55,0.36,0.56,2.63
28.71512007713318,2.86,0.34,0.67,2.95
28.72505497932434,3.12,0.29,0.93,3.26
28.73490309715271,3.54,0.36,1.06,3.71
28.744887113571167,4.22,0.66,1.37,4.48
28.755033016204834,4.45,1.11,1.09,4.71
28.792864084243774,3.42,1.41,0.85,3.79
28.7932870388031,2.21,1.4,-0.34,2.63
28.793712854385376,1.71,3.11,-1.81,3.98
28.794880151748657,2.97,4.39,0.21,5.3
28.804903030395508,3.61,3.44,1.97,5.36
28.814985036849976,2.81,3.09,0.17,4.18
28.824841022491455,2.31,3.12,-0.39,3.9
28.83476996421814,2.35,3.01,-0.05,3.81
28.844763040542603,2.33,3.0,0.06,3.79
28.854874849319458,2.42,3.87,-0.46,4.58
28.893157958984375,3.0,4.79,-1.16,5.76
28.893585920333862,3.84,5.15,-1.66,6.63
28.894304037094116,3.76,4.7,-1.54,6.21
28.894726991653442,2.58,3.6,-1.56,4.69
28.904775857925415,1.08,2.76,-1.98,3.56
28.914801836013794,0.56,1.52,-2.58,3.04
28.924697160720825,0.75,0.67,-2.13,2.35
28.93475890159607,2.16,1.57,-1.34,2.98
28.944637060165405,5.61,-0.42,-0.45,5.64
28.954812049865723,3.16,-1.09,1.28,3.57
28.992809057235718,2.52,-1.33,-0.46,2.88
28.993239164352417,6.83,-1.25,-1.58,7.12
28.993659019470215,9.62,-0.32,0.3,9.62
28.994521856307983,9.24,-0.85,1.88,9.46
29.004565954208374,7.46,-2.11,2.27,8.07
29.014570951461792,6.52,-2.78,2.23,7.43
29.024577856063843,5.94,-2.81,2.29,6.95
29.03461503982544,5.14,-2.74,2.22,6.23
29.044445991516113,4.27,-2.42,1.99,5.29
29.054505109786987,3.53,-1.94,1.7,4.37
29.093857049942017,2.85,-1.44,1.36,3.47
29.094638109207153,2.41,-0.66,1.08,2.72
29.09505605697632,2.04,0.07,1.02,2.28
29.095494985580444,1.66,0.73,0.91,2.02
29.104403018951416,1.1,1.25,0.54,1.75
29.114501953125,0.42,1.62,0.19,1.68
29.12442183494568,-0.5,2.0,0.08,2.06
29.134443998336792,-1.3,2.43,0.16,2.76
29.144593000411987,-1.81,2.85,0.12,3.37
29.154420137405396,-1.66,3.52,-0.09,3.89
29.19407606124878,-0.79,4.09,-0.78,4.23
29.194828987121582,-1.99,4.33,-0.39,4.78
29.195250988006592,-3.87,3.78,-0.45,5.42
29.195683002471924,-4.49,2.89,-1.01,5.43
29.20437216758728,-4.48,2.48,-1.37,5.3
29.21431612968445,-3.93,2.2,-1.43,4.72
29.224297046661377,-3.91,1.84,-1.5,4.57
29.234319925308228,-3.73,1.2,-1.61,4.23
29.24460506439209,-3.37,0.72,-1.52,3.76
29.25424599647522,-3.55,0.63,-1.66,3.96
29.293855905532837,-3.84,0.41,-1.76,4.24
29.294668912887573,-3.94,0.08,-1.75,4.31
29.295099020004272,-4.16,-0.21,-1.93,4.59
29.295526027679443,-4.7,-0.4,-2.3,5.24
29.304217100143433,-5.2,-0.77,-2.29,5.73
29.314211130142212,-5.59,-1.4,-1.85,6.05
29.324225187301636,-6.31,-1.79,-1.22,6.67
29.33418917655945,-7.1,-1.98,-1.21,7.46
29.3441379070282,-7.51,-2.08,-1.55,7.94
29.354098081588745,-7.56,-2.25,-1.64,8.05
29.393274068832397,-6.96,-2.33,-1.24,7.44
29.393730878829956,-6.2,-1.76,-0.93,6.51
29.394158124923706,-2.39,6.76,-2.3,7.52
29.39490008354187,7.01,5.62,-1.91,9.18
29.404064893722534,16.86,-0.24,6.87,18.2
29.413996934890747,15.97,-2.16,11.56,19.83
29.424041032791138,3.87,0.72,3.57,5.31
29.434033155441284,-6.94,0.56,-1.94,7.22
29.443977117538452,-8.44,-0.78,-1.85,8.67
29.454035997390747,-2.93,0.98,-0.57,3.14
29.49354910850525,0.29,2.85,-0.16,2.86
29.493985891342163,-0.1,3.5,-0.43,3.52
29.49440312385559,-1.6,4.06,-0.58,4.4
29.49515700340271,-3.44,2.38,-0.45,4.2
29.50389003753662,-4.59,0.91,-1.0,4.78
29.51391100883484,-4.28,0.87,-1.87,4.75
29.523777961730957,-3.04,-0.55,-1.35,3.37
29.533864974975586,-2.65,-0.04,-1.14,2.88
29.5438289642334,-3.57,-0.61,-3.61,5.11
29.553735971450806,-4.37,0.24,-4.6,6.34
29.593499898910522,-3.41,1.86,-2.83,4.8
29.593955039978027,-2.23,-0.13,0.07,2.23
29.594377994537354,-1.55,-1.66,1.03,2.49
29.595135927200317,-1.32,-1.15,0.91,1.97
29.603795051574707,-1.81,-0.06,0.76,1.96
29.613807916641235,-2.14,0.79,0.54,2.34
29.623761892318726,-1.51,1.07,0.15,1.85
29.633769989013672,-0.31,0.09,-0.4,0.51
29.643728971481323,-0.18,-0.89,-0.21,0.93
29.65367603302002,-1.22,-1.01,-0.09,1.58
29.69418501853943,-2.85,-0.77,-0.63,3.01
29.69461417198181,-3.16,-0.25,-1.39,3.46
29.695379972457886,-1.89,0.32,-1.56,2.47
29.695799112319946,-0.75,0.28,-1.6,1.78
29.703598022460938,0.06,-0.19,-1.04,1.05
29.71361994743347,-0.25,-0.31,0.07,0.4
29.723531007766724,-1.33,0.01,0.2,1.34
29.733723878860474,-2.0,0.28,-0.32,2.04
29.743501901626587,-1.32,-0.06,-0.82,1.55
29.753517866134644,-0.15,-0.27,-0.27,0.41
29.79407811164856,0.85,-0.34,0.33,0.97
29.79451012611389,1.32,-0.29,0.66,1.5
29.795282125473022,0.29,-0.11,0.84,0.89
29.795713186264038,-0.54,0.05,0.24,0.59
29.8034451007843,-0.41,0.12,-0.29,0.51
29.813430070877075,-0.02,0.2,-0.47,0.51
29.823376893997192,0.22,0.1,-0.94,0.97
29.833423852920532,0.35,0.0,-1.19,1.24
29.84335207939148,0.33,0.19,-1.37,1.42
29.85335397720337,-0.19,0.21,-1.28,1.31
29.89458203315735,-0.84,0.27,-1.21,1.49
29.89538884162903,-0.89,0.15,-1.08,1.4
29.895808935165405,-0.38,-0.04,-0.85,0.93
29.896251916885376,-0.18,-0.06,-0.63,0.65
29.90328598022461,-0.77,0.14,-0.02,0.78
29.913256883621216,-1.26,0.11,0.45,1.34
29.92324709892273,-0.9,-0.19,1.01,1.36
29.933252096176147,-0.34,-0.22,1.48,1.53
29.943236112594604,0.28,-0.2,1.85,1.88
29.953078031539917,0.11,-0.14,1.79,1.79
29.99408793449402,-1.15,-0.06,1.1,1.59
29.99451994895935,-1.48,0.19,0.87,1.72
29.995283842086792,-0.81,0.04,0.9,1.21
29.9957058429718,-0.84,-0.22,0.47,0.98
30.003031969070435,-1.31,-0.05,-0.15,1.31
30.013000965118408,-1.27,-0.11,0.06,1.27
30.023128032684326,-1.2,-0.2,0.3,1.25
30.033149003982544,-0.95,0.01,0.03,0.95
30.043056964874268,-0.82,0.07,-0.31,0.87
30.05305790901184,-0.93,0.09,-0.47,1.04
30.093952894210815,-0.67,0.08,-0.82,1.06
30.094383001327515,0.15,-0.14,-0.94,0.96
30.09478783607483,0.99,-0.11,-0.94,1.36
30.09547209739685,1.67,-0.11,-0.83,1.86
30.10291600227356,1.7,-0.29,-1.04,2.01
30.11281991004944,0.94,-0.45,-1.2,1.58
30.122761011123657,-0.27,-0.63,-0.51,0.85
30.132981061935425,-1.12,-0.14,0.47,1.22
30.142863035202026,-1.03,0.51,0.6,1.29
30.152912855148315,0.11,0.39,0.06,0.4
30.194711923599243,1.5,0.02,-0.81,1.7
30.195462942123413,2.21,0.0,-1.16,2.49
30.19588804244995,2.11,0.02,-0.87,2.28
30.196304082870483,1.68,0.01,-0.77,1.84
30.20283603668213,0.95,0.03,-0.38,1.02
