time,ax,ay,az,atotal
0.0029768943786621094,0.11,-0.34,-0.52,0.63
0.004600048065185547,-0.07,-0.35,-0.38,0.52
0.007373809814453125,0.31,0.1,0.07,0.33
0.017405033111572266,0.03,0.2,0.24,0.31
0.02750682830810547,-0.33,0.07,0.47,0.57
0.037419795989990234,-0.48,-0.06,0.42,0.64
0.04725074768066406,-0.49,-0.02,0.16,0.51
0.05708503723144531,-0.37,0.12,-0.13,0.41
0.06754398345947266,0.2,0.1,-0.3,0.37
0.07947587966918945,0.67,0.05,-0.23,0.71
0.10398292541503906,0.55,0.03,-0.19,0.58
0.10586285591125488,0.14,0.08,-0.14,0.21
0.10730290412902832,-0.11,-0.54,-0.22,0.59
0.125396728515625,-0.26,-0.28,0.02,0.38
0.12687206268310547,-0.13,0.1,0.12,0.2
0.1407480239868164,-0.21,0.26,0.09,0.34
0.14637279510498047,-0.32,-0.03,0.06,0.32
0.1574850082397461,-0.26,-0.13,0.08,0.3
0.1666269302368164,-0.06,0.05,0.11,0.13
0.17914986610412598,0.11,-0.01,-0.07,0.13
0.20925688743591309,0.01,0.03,-0.33,0.33
0.21104693412780762,-0.04,0.11,-0.41,0.42
0.21244478225708008,0.0,0.08,-0.26,0.27
0.22401905059814453,-0.17,0.06,-0.05,0.18
0.2256159782409668,-0.32,0.04,0.13,0.34
0.24067187309265137,-0.23,-0.04,0.09,0.25
0.24553894996643066,0.12,-0.03,0.09,0.15
0.2568197250366211,0.44,0.0,0.2,0.48
0.266157865524292,0.34,-0.05,0.19,0.39
0.27771997451782227,0.03,-0.03,0.1,0.1
0.3099238872528076,-0.15,0.02,-0.01,0.15
0.3117039203643799,-0.08,0.03,0.07,0.11
0.31316685676574707,0.15,-0.02,0.2,0.25
0.32466888427734375,0.19,-0.06,0.21,0.28
0.32615184783935547,0.08,-0.02,0.09,0.12
0.34058690071105957,0.14,0.0,-0.07,0.15
0.344937801361084,0.22,-0.03,-0.11,0.24
0.3575408458709717,0.31,-0.02,-0.15,0.34
0.36475706100463867,0.41,0.03,-0.16,0.44
0.37676477432250977,0.43,0.03,-0.06,0.43
0.40793490409851074,0.33,-0.02,0.06,0.33
0.40977907180786133,-0.13,-0.11,-0.1,0.19
0.41121482849121094,-0.42,-0.09,-0.03,0.43
0.4248678684234619,-0.56,0.12,0.22,0.61
0.4263138771057129,-0.61,0.04,0.09,0.61
0.4406869411468506,-0.51,0.0,0.19,0.54
0.44394874572753906,0.08,-0.03,0.25,0.26
0.4574859142303467,0.67,-0.07,0.11,0.68
0.4641399383544922,0.62,-0.04,-0.11,0.63
0.47681474685668945,0.26,0.0,-0.07,0.26
0.5013689994812012,0.14,0.04,0.07,0.16
0.5031228065490723,0.16,-0.01,0.13,0.2
0.5045037269592285,0.07,-0.01,0.05,0.08
0.524669885635376,-0.03,0.01,-0.07,0.07
0.5260577201843262,-0.15,0.01,-0.13,0.19
0.5405769348144531,-0.29,0.01,-0.06,0.29
0.5434308052062988,-0.46,0.0,0.01,0.46
0.5577108860015869,-0.46,0.04,0.13,0.47
0.5636739730834961,-0.14,0.06,0.18,0.23
0.5754227638244629,0.26,0.01,0.01,0.26
0.5862917900085449,0.3,0.0,-0.2,0.36
0.6090288162231445,0.14,0.06,-0.18,0.23
0.61061692237854,0.04,0.06,-0.09,0.11
0.6124489307403564,0.01,0.03,-0.05,0.05
0.6254549026489258,-0.01,0.04,-0.07,0.08
0.6327009201049805,-0.02,-0.01,-0.1,0.1
0.642927885055542,-0.03,-0.05,-0.04,0.07
0.6526708602905273,-0.16,-0.01,0.04,0.16
0.6624438762664795,-0.34,0.02,0.03,0.34
0.6725378036499023,-0.26,0.0,0.14,0.29
0.6855208873748779,0.01,0.0,0.28,0.28
0.7081198692321777,0.09,-0.03,0.15,0.17
0.7097139358520508,0.04,-0.03,-0.02,0.05
0.7118289470672607,0.09,-0.01,-0.06,0.1
0.7257368564605713,0.15,0.0,-0.02,0.15
0.7321457862854004,0.09,0.02,-0.03,0.09
0.7419028282165527,-0.13,0.05,-0.15,0.2
0.75193190574646,-0.32,0.08,-0.21,0.39
0.7619378566741943,-0.34,0.06,-0.25,0.42
0.7718610763549805,-0.25,0.05,-0.19,0.31
0.7848410606384277,-0.13,0.03,-0.04,0.13
0.8046517372131348,-0.12,-0.01,0.05,0.13
0.8061118125915527,-0.19,-0.02,0.08,0.2
0.8113138675689697,-0.22,0.02,0.09,0.23
0.825347900390625,-0.09,0.04,0.11,0.14
0.8311710357666016,-0.06,0.0,0.18,0.18
0.8411538600921631,-0.09,-0.02,0.29,0.3
0.8510138988494873,0.02,-0.06,0.4,0.4
0.8609099388122559,0.03,-0.06,0.34,0.34
0.8716528415679932,0.06,0.01,0.01,0.06
0.8843328952789307,0.21,0.04,-0.1,0.23
0.9091808795928955,0.25,0.01,-0.04,0.25
0.9107728004455566,0.14,0.0,-0.07,0.15
0.9124059677124023,0.13,0.0,-0.01,0.13
0.9257197380065918,0.32,-0.04,0.02,0.32
0.9304380416870117,0.52,-0.03,0.0,0.52
0.9405560493469238,0.57,-0.06,-0.06,0.57
0.9505000114440918,0.44,-0.04,-0.1,0.45
0.9602108001708984,0.29,0.07,-0.06,0.3
0.9707937240600586,0.16,0.07,-0.03,0.17
0.9832277297973633,0.14,0.06,-0.04,0.15
1.0098788738250732,0.1,0.12,-0.11,0.19
1.011497974395752,-0.16,0.13,-0.25,0.32
1.013260841369629,-0.39,0.18,-0.5,0.65
1.025989055633545,-0.51,0.34,-0.78,0.99
1.0296950340270996,-0.53,0.45,-0.92,1.15
1.0406570434570312,-0.53,0.29,-0.68,0.9
1.0497827529907227,-0.61,0.26,-0.49,0.82
1.059640884399414,-0.65,0.29,-0.38,0.8
1.0700798034667969,-0.58,0.26,-0.24,0.67
1.0822110176086426,-0.67,0.14,-0.25,0.72
1.1127469539642334,-0.87,-0.09,0.15,0.88
1.1143498420715332,-0.52,-0.33,0.47,0.77
1.1161017417907715,-0.09,-0.39,0.52,0.65
1.1251099109649658,-0.01,-0.38,0.97,1.04
1.1289987564086914,0.19,-0.55,1.46,1.57
1.1409168243408203,0.73,-0.87,1.65,2.0
1.148906946182251,0.86,-0.85,1.95,2.29
1.1585659980773926,0.67,-0.49,2.61,2.73
1.168771743774414,0.58,-0.71,2.78,2.92
1.1813750267028809,0.37,-0.67,1.94,2.08
1.2073440551757812,0.17,-0.11,0.72,0.74
1.208967924118042,-0.21,0.31,-0.21,0.42
1.2107388973236084,-0.59,0.46,-0.87,1.14
1.226050853729248,-0.63,0.51,-1.07,1.34
1.2282419204711914,-0.4,0.35,-0.87,1.01
1.2408618927001953,-0.17,0.15,-0.45,0.5
1.2483248710632324,-0.03,0.05,-0.19,0.19
1.2580957412719727,-0.19,0.07,-0.18,0.27
1.2683968544006348,-0.52,0.09,-0.21,0.56
1.2803640365600586,-0.43,0.02,-0.01,0.43
1.3096790313720703,0.29,-0.12,0.12,0.33
1.311471939086914,0.84,-0.23,-0.03,0.87
1.312917947769165,0.66,-0.17,-0.13,0.69
1.3253178596496582,0.58,-0.11,0.07,0.59
1.3274459838867188,0.29,-0.02,0.3,0.41
1.3411388397216797,-0.31,0.08,0.09,0.33
1.3476428985595703,-0.56,0.13,-0.21,0.61
1.357848882675171,-0.36,0.11,-0.33,0.5
1.3676738739013672,-0.07,0.13,-0.32,0.35
1.3798208236694336,0.01,0.18,-0.27,0.32
1.389894962310791,-0.15,0.22,-0.43,0.5
1.4133238792419434,-0.36,0.25,-0.62,0.75
1.4149549007415771,-0.41,0.27,-0.73,0.87
1.4165229797363281,-0.18,0.16,-0.75,0.78
1.4268040657043457,0.07,0.05,-0.73,0.73
1.4366998672485352,0.09,0.05,-0.52,0.53
1.4464550018310547,0.02,0.0,-0.23,0.23
1.4567160606384277,0.25,-0.12,-0.13,0.3
1.4666967391967773,0.63,-0.1,-0.15,0.65
1.476484775543213,0.75,-0.06,-0.02,0.75
1.4869780540466309,0.79,-0.1,0.16,0.81
1.5136127471923828,0.62,-0.17,0.37,0.74
1.515260934829712,0.28,-0.14,0.44,0.54
1.5170097351074219,0.01,-0.01,0.2,0.2
1.5260038375854492,-0.18,0.05,-0.01,0.18
1.5360617637634277,-0.34,-0.03,-0.06,0.34
1.5461087226867676,-0.44,0.03,-0.17,0.47
1.5560150146484375,-0.47,0.09,-0.4,0.62
1.565901756286621,-0.36,0.07,-0.3,0.47
1.5762357711791992,-0.2,0.14,-0.17,0.29
1.5884127616882324,-0.05,0.14,-0.21,0.25
1.6138219833374023,0.07,0.12,-0.13,0.19
1.6155390739440918,0.1,0.14,-0.08,0.18
1.6168889999389648,-0.03,0.12,0.06,0.13
1.6251099109649658,-0.16,0.2,0.09,0.27
1.6351947784423828,-0.34,0.23,0.02,0.41
1.6449737548828125,-0.67,0.16,0.07,0.69
1.655228853225708,-0.59,0.19,-0.09,0.62
1.6651477813720703,-0.01,0.23,0.04,0.23
1.6749768257141113,0.09,0.09,-0.19,0.22
1.6850738525390625,-0.17,0.0,-0.38,0.41
1.7130208015441895,-0.35,0.2,-0.38,0.55
1.7146048545837402,-0.27,0.29,-0.84,0.92
1.716303825378418,-0.15,0.31,-0.65,0.73
1.7246308326721191,0.0,0.45,-0.23,0.5
1.7345378398895264,0.03,0.53,-0.3,0.6
1.744338035583496,0.05,0.5,-0.58,0.76
1.75455904006958,-0.16,0.4,-0.76,0.87
1.7643458843231201,-0.57,0.38,-0.8,1.05
1.774724006652832,-0.79,0.64,-1.0,1.42
1.7874679565429688,-0.66,0.83,-0.9,1.39
1.8202729225158691,-0.35,0.86,-0.81,1.23
1.8219990730285645,-0.19,0.65,-1.19,1.36
1.823014736175537,-0.43,0.41,-1.38,1.5
1.8415937423706055,-0.88,0.37,-0.95,1.34
1.8430728912353516,-1.35,0.94,-0.54,1.73
1.857996940612793,-1.91,1.83,-0.75,2.74
1.8595068454742432,-2.43,2.22,-0.9,3.41
1.8747730255126953,-3.17,2.55,-2.07,4.56
1.8762760162353516,-3.71,3.2,-3.21,5.85
1.8941650390625,-3.29,3.55,-2.47,5.43
1.9192800521850586,-3.32,3.43,-1.82,5.1
1.9206838607788086,-3.91,3.74,-2.3,5.87
1.921726942062378,-4.34,4.11,-2.58,6.51
1.9416909217834473,-4.66,4.7,-2.98,7.25
1.9431078433990479,-5.04,5.26,-3.36,8.02
1.95819091796875,-5.34,5.46,-3.37,8.34
1.9596548080444336,-5.55,5.47,-3.36,8.48
1.974639892578125,-5.57,5.43,-3.2,8.41
1.9761147499084473,-5.0,5.09,-2.92,7.7
1.9909708499908447,-4.87,4.6,-3.44,7.53
2.0171139240264893,-4.02,4.19,-4.0,7.05
2.018735885620117,-2.7,4.53,-4.84,7.15
2.019784927368164,-2.23,6.0,-4.91,8.06
2.0218968391418457,-2.03,6.74,-3.64,7.92
2.0319857597351074,1.14,8.51,-1.17,8.66
2.0424139499664307,3.7,8.65,-0.42,9.41
2.0520389080047607,1.27,4.44,-2.37,5.19
2.0621209144592285,-2.08,1.96,-4.27,5.13
2.072103977203369,-4.71,-0.41,-4.81,6.74
2.0818369388580322,-7.01,-3.3,-4.83,9.13
2.115675926208496,-4.71,-4.83,-3.88,7.78
2.1171698570251465,-1.42,-5.04,-2.75,5.91
2.118140935897827,-5.25,-4.4,-3.16,7.54
2.1210460662841797,-9.66,-3.78,-3.86,11.06
2.141772747039795,-11.58,-3.59,-2.87,12.45
2.1432619094848633,-10.47,-4.46,-0.95,11.41
2.1583738327026367,-8.53,-5.61,0.12,10.21
2.16133189201355,-7.38,-6.36,0.19,9.74
2.172362804412842,-7.12,-6.51,-0.15,9.64
2.181187868118286,-7.08,-6.37,-0.42,9.53
2.1933770179748535,-6.9,-5.82,-0.26,9.03
2.2182979583740234,-6.6,-5.23,0.37,8.42
2.220090866088867,-6.48,-4.78,0.96,8.1
2.2211689949035645,-6.46,-4.19,1.2,7.79
2.2304799556732178,-6.32,-3.18,1.02,7.14
2.2408039569854736,-5.82,-1.97,0.28,6.15
2.2506089210510254,-4.73,-0.48,-0.31,4.76
2.2606778144836426,-2.66,0.92,-0.14,2.81
2.2706289291381836,0.1,1.61,0.09,1.61
2.280317783355713,2.56,2.04,-0.07,3.27
2.29020094871521,3.87,2.65,-0.53,4.72
2.3195037841796875,4.26,3.67,-0.73,5.67
2.3206498622894287,4.87,4.67,-0.53,6.76
2.321629047393799,6.2,5.08,-0.17,8.01
2.3419690132141113,7.84,4.71,0.13,9.14
2.343430995941162,8.92,4.26,0.29,9.88
2.3584537506103516,9.43,4.11,0.12,10.28
2.3599538803100586,9.61,3.92,-0.09,10.37
2.3751299381256104,9.65,3.81,0.59,10.39
2.3800859451293945,9.66,4.4,1.74,10.75
2.3941879272460938,7.32,10.56,2.29,13.05
2.421149730682373,8.76,6.98,1.96,11.37
2.4226038455963135,11.98,3.0,3.97,12.97
2.423614978790283,11.09,2.86,6.01,12.93
2.4420437812805176,9.46,3.34,6.9,12.17
2.4435510635375977,9.19,4.23,7.94,12.86
2.4584670066833496,10.51,3.5,8.4,13.9
2.4599709510803223,10.37,-1.06,4.94,11.53
2.4751477241516113,4.42,-4.59,-2.66,6.9
2.478822946548462,-2.48,2.51,-5.53,6.55
2.4904768466949463,-4.0,14.06,0.47,14.62
2.5199239253997803,2.21,14.6,5.59,15.78
2.521436929702759,7.36,0.96,3.81,8.34
2.522459030151367,6.32,-5.78,1.81,8.75
2.542048931121826,4.31,-2.94,1.39,5.39
2.543531894683838,2.39,0.04,0.38,2.42
2.5584259033203125,1.38,0.1,0.3,1.41
2.559898853302002,1.45,-0.21,0.69,1.61
2.575212001800537,2.24,-0.15,1.04,2.47
2.578054904937744,2.57,-0.05,1.44,2.94
2.5945088863372803,1.89,-0.18,1.38,2.34
2.62185001373291,0.67,-0.19,0.72,1.0
2.623115062713623,-0.4,-0.02,0.0,0.4
2.6241159439086914,-0.75,0.52,-0.51,1.04
2.6422438621520996,-0.85,0.76,-0.56,1.27
2.6437387466430664,-1.01,-0.14,0.11,1.02
2.658447742462158,0.01,-0.91,0.75,1.17
2.6599197387695312,1.26,-0.65,0.52,1.51
2.675260066986084,1.2,-0.23,-0.79,1.45
2.6772780418395996,0.41,-0.24,-1.62,1.68
2.6904377937316895,0.1,-0.2,-1.44,1.45
2.722522735595703,0.3,-0.15,-0.94,0.99
2.7241320610046387,0.51,-0.23,-0.48,0.73
2.725146770477295,0.31,-0.08,-0.28,0.42
2.7426528930664062,-0.36,0.0,-0.35,0.5
2.744105815887451,-0.79,-0.25,-0.72,1.09
2.7585299015045166,-0.38,-0.24,-0.48,0.65
2.7600107192993164,0.08,-0.06,-0.17,0.19
2.775174856185913,0.14,0.01,-0.03,0.14
2.776668071746826,0.25,0.05,0.09,0.27
2.791226863861084,0.23,0.03,-0.06,0.23
2.824093818664551,0.08,0.02,-0.24,0.25
2.8255648612976074,0.5,0.15,-0.08,0.52
2.826551914215088,0.81,0.15,0.1,0.82
2.84236478805542,0.39,0.24,-0.03,0.45
2.8438289165496826,-0.03,0.17,0.09,0.19
2.8585147857666016,-0.4,0.04,-0.04,0.4
2.8599789142608643,-0.83,0.0,-0.31,0.88
2.875488758087158,-0.92,0.0,-0.37,0.99
2.8768749237060547,-0.8,-0.09,-0.48,0.93
2.8913350105285645,-0.77,-0.08,-0.5,0.92
2.923470973968506,-0.44,-0.01,-0.47,0.64
2.9249157905578613,-0.02,-0.15,-0.46,0.48
2.925938844680786,0.37,0.15,-0.41,0.57
2.9425618648529053,0.79,0.6,0.06,0.99
2.9440958499908447,0.45,0.5,0.22,0.7
2.958798885345459,0.23,0.6,0.04,0.64
2.9602909088134766,-0.04,0.48,-0.13,0.49
2.9754369258880615,-0.34,0.19,-0.34,0.51
2.976907730102539,-0.53,0.02,-0.52,0.74
2.994187831878662,-0.61,-0.07,-0.76,0.97
2.996079921722412,-0.57,-0.21,-0.95,1.12
3.0308589935302734,-0.67,-0.21,-1.09,1.29
3.0323238372802734,-0.96,-0.09,-1.3,1.61
3.0335917472839355,-1.22,0.0,-1.51,1.94
3.0390520095825195,-1.01,0.41,-1.19,1.61
3.0441129207611084,-0.82,0.87,-0.84,1.46
3.05856990814209,-1.03,0.92,-0.91,1.65
3.0643198490142822,-1.74,0.89,-0.98,2.18
3.0745749473571777,-2.25,0.76,-0.97,2.56
3.0844268798828125,-2.48,0.68,-1.04,2.77
3.0943470001220703,-2.54,0.83,-1.39,3.01
3.1236178874969482,-2.5,0.96,-1.87,3.26
3.1254959106445312,-2.48,1.26,-2.16,3.52
3.1269397735595703,-2.43,2.15,-2.3,3.97
3.1425678730010986,-2.36,3.27,-2.37,4.67
3.1440930366516113,-2.48,4.11,-2.93,5.62
3.158773899078369,-3.87,5.32,-4.06,7.73
3.163606882095337,-4.5,6.14,-2.7,8.07
3.175394058227539,-4.71,5.09,-2.38,7.33
3.1836180686950684,-4.98,5.4,-2.77,7.85
3.193635940551758,-4.72,5.58,-2.88,7.85
3.2258999347686768,-4.76,5.09,-3.05,7.6
3.2275989055633545,-4.85,4.89,-3.65,7.79
3.2286300659179688,-4.16,3.86,-3.69,6.76
3.2430739402770996,-2.99,3.47,-3.75,5.91
3.2445850372314453,-2.64,4.12,-4.35,6.54
3.2589149475097656,-3.53,5.79,-4.94,8.38
3.2630319595336914,-4.29,6.99,-5.06,9.63
3.275510787963867,-3.89,7.57,-4.46,9.6
3.28281307220459,-0.58,9.03,-1.96,9.25
3.293299913406372,2.08,7.25,-0.9,7.59
3.324810028076172,0.49,2.72,-2.01,3.41
3.326265811920166,-2.76,0.77,-3.82,4.77
3.327270030975342,-5.8,-1.08,-4.7,7.54
3.342373847961426,-6.82,-3.04,-4.03,8.48
3.3438777923583984,-1.81,-3.35,-2.82,4.73
3.359100818634033,-1.9,-3.69,-2.5,4.84
3.362259864807129,-6.36,-3.39,-2.46,7.61
3.375572919845581,-9.77,-2.9,-2.56,10.5
3.3823719024658203,-10.55,-3.18,-1.93,11.18
3.3927907943725586,-9.51,-3.92,-1.01,10.33
3.430561065673828,-8.1,-4.68,-0.58,9.37
3.431924819946289,-7.16,-4.99,-0.63,8.75
3.432968854904175,-6.75,-4.87,-0.81,8.36
3.4403069019317627,-6.44,-4.63,-1.01,7.99
3.4413747787475586,-6.04,-4.41,-1.1,7.55
3.459066867828369,-5.43,-4.31,-0.86,6.98
3.4615039825439453,-4.79,-4.35,-0.46,6.48
3.4758238792419434,-4.48,-4.27,-0.09,6.18
3.481353759765625,-4.51,-3.94,0.13,5.99
3.491117000579834,-4.72,-3.42,0.42,5.84
3.524962902069092,-4.88,-2.56,0.76,5.56
3.5267789363861084,-4.68,-1.65,0.78,5.02
3.5282509326934814,-4.04,-0.82,0.89,4.21
3.542685031890869,-3.0,-0.02,1.24,3.24
3.5441718101501465,-1.35,0.82,1.5,2.17
3.5589349269866943,0.16,1.65,1.52,2.24
3.5605578422546387,1.25,2.65,1.61,3.34
3.575432777404785,2.23,3.71,1.63,4.62
3.580821990966797,3.64,4.82,1.48,6.21
3.5945987701416016,5.46,5.71,1.34,8.01
3.629333972930908,7.08,6.22,1.06,9.48
3.630910873413086,8.07,6.59,0.5,10.43
3.6319327354431152,9.04,6.67,-0.15,11.23
3.6422739028930664,6.03,13.14,0.45,14.46
3.6436190605163574,10.53,11.27,-2.1,15.56
3.658939838409424,19.88,3.6,-1.71,20.27
3.660429000854492,22.92,4.92,1.29,23.47
3.675610065460205,21.87,6.49,2.03,22.9
3.6798768043518066,19.21,5.14,1.73,19.96
3.6904029846191406,16.76,2.97,2.3,17.17
3.725511074066162,13.08,-0.38,1.2,13.14
3.727320909500122,4.27,-3.05,-2.89,5.99
3.7288718223571777,-4.88,2.49,-4.31,6.97
3.742837905883789,-6.23,9.17,1.13,11.14
3.7443089485168457,-0.16,7.11,4.38,8.35
3.7589879035949707,6.35,-0.54,2.48,6.83
3.760457992553711,7.26,-5.35,0.31,9.02
3.7755069732666016,5.31,-2.2,0.64,5.78
3.779000759124756,3.89,1.76,2.59,4.99
3.790280818939209,2.28,1.15,2.29,3.43
3.8024888038635254,0.89,-0.78,1.75,2.11
3.832298755645752,0.48,-1.17,1.56,2.0
3.8334639072418213,0.78,-0.67,1.48,1.8
3.83481502532959,1.25,0.01,1.16,1.7
3.84027099609375,1.63,0.06,0.89,1.85
3.848710060119629,1.75,-0.19,0.82,1.94
3.858431816101074,1.58,-0.14,0.35,1.62
3.8685150146484375,1.26,0.04,-0.15,1.26
3.8783297538757324,0.87,-0.04,-0.65,1.08
3.8884639739990234,0.56,-0.18,-0.92,1.09
3.898289918899536,0.92,-0.13,-0.53,1.06
3.930370807647705,1.38,-0.03,0.01,1.38
3.9317688941955566,1.11,0.0,-0.09,1.11
3.932788848876953,0.46,-0.03,-0.51,0.68
3.942546844482422,-0.04,0.02,-0.57,0.57
3.947845935821533,-0.13,0.09,-0.37,0.4
3.95815372467041,0.08,0.25,-0.34,0.42
3.9679038524627686,-0.06,0.36,-0.46,0.58
3.9777679443359375,-0.37,0.35,-0.52,0.72
3.9876458644866943,-0.26,0.25,-0.46,0.58
3.997501850128174,0.13,0.12,-0.33,0.37
4.028196811676025,0.37,0.15,0.12,0.41
4.02960205078125,0.09,0.16,0.33,0.37
4.030617952346802,-0.46,0.22,0.41,0.65
4.04267692565918,-0.63,0.27,0.55,0.87
4.046968936920166,-0.62,0.18,0.53,0.83
4.0600879192352295,-0.51,0.13,0.07,0.53
4.067152976989746,-0.3,0.13,-0.45,0.55
4.076789855957031,-0.13,0.09,-0.65,0.66
4.0868377685546875,-0.07,0.04,-0.75,0.75
4.096796035766602,0.11,-0.09,-0.58,0.59
4.127557754516602,0.19,-0.14,-0.21,0.31
4.1288628578186035,0.03,-0.02,-0.05,0.06
4.129878044128418,-0.05,0.06,-0.13,0.15
4.142818927764893,-0.01,0.07,-0.14,0.15
4.146310806274414,0.03,0.16,-0.17,0.23
4.156699895858765,0.14,0.11,-0.2,0.26
4.166236877441406,0.31,0.01,-0.25,0.39
4.176055908203125,0.54,-0.12,-0.42,0.69
4.186083793640137,0.8,-0.21,-0.37,0.9
4.195821762084961,0.84,-0.04,-0.26,0.88
4.234712839126587,0.6,0.16,-0.25,0.66
4.235984802246094,0.39,0.23,-0.25,0.51
4.236921787261963,0.13,0.29,-0.09,0.33
4.239073753356934,-0.22,0.25,-0.05,0.33
4.245255947113037,-0.55,0.13,-0.08,0.57
4.255706787109375,-0.77,0.18,-0.19,0.81
4.265655994415283,-0.99,0.26,-0.33,1.07
4.275505065917969,-1.08,0.38,-0.49,1.24
4.285295009613037,-1.1,0.4,-0.65,1.33
4.295362949371338,-1.23,0.46,-0.79,1.53
4.32926607131958,-1.46,0.6,-1.08,1.91
4.33052396774292,-1.68,0.89,-1.36,2.33
4.331545829772949,-1.89,1.18,-1.27,2.56
4.342787742614746,-1.9,1.27,-1.27,2.61
4.344459056854248,-1.95,1.29,-1.6,2.83
4.3591790199279785,-2.29,1.69,-2.0,3.47
4.3645758628845215,-1.78,2.46,-1.56,3.41
4.375665903091431,-1.56,2.78,-1.63,3.58
4.384928941726685,-2.05,3.36,-2.19,4.5
4.394353866577148,-2.66,3.73,-2.69,5.31
4.4302239418029785,-3.08,3.88,-2.77,5.67
4.431809902191162,-3.47,4.09,-2.91,6.1
4.432827949523926,-3.97,4.32,-3.23,6.69
4.442259788513184,-4.21,4.42,-3.22,6.9
4.443758964538574,-4.24,4.63,-3.21,7.05
4.459517955780029,-4.48,4.78,-3.44,7.39
4.463974952697754,-4.9,4.65,-3.42,7.57
4.473817825317383,-4.61,3.89,-3.31,6.88
4.483897924423218,-3.66,2.92,-3.47,5.82
4.493588924407959,-2.75,2.38,-3.6,5.11
4.5309388637542725,-2.09,2.78,-3.51,4.94
4.5324530601501465,-2.04,3.86,-3.58,5.64
4.533507823944092,-2.65,5.21,-3.91,7.03
4.542858839035034,-2.84,6.81,-2.87,7.91
4.544149875640869,-0.06,8.61,-1.11,8.68
4.559542894363403,0.69,7.05,-2.03,7.36
4.563149929046631,-1.24,4.4,-3.06,5.5
4.575705051422119,-3.12,3.28,-3.38,5.64
4.582942962646484,-4.85,1.63,-3.01,5.93
4.592897891998291,-6.35,-0.9,-2.4,6.84
4.60333776473999,-6.4,-3.37,-2.12,7.53
4.634690761566162,-1.51,-4.39,-1.96,5.03
4.635842800140381,0.29,-2.13,-1.2,2.46
4.6370909214019775,-3.74,-2.58,-1.51,4.78
4.6423540115356445,-7.65,-2.41,-2.14,8.3
4.652123928070068,-9.99,-2.34,-1.8,10.41
4.6627397537231445,-10.36,-2.84,-0.61,10.75
4.672842025756836,-9.39,-3.37,0.44,9.98
4.682491779327393,-7.89,-4.33,0.82,9.03
4.692330837249756,-6.63,-4.99,0.67,8.32
4.7021708488464355,-5.88,-4.74,0.32,7.55
4.732411861419678,-5.49,-4.12,0.01,6.86
4.733592987060547,-5.17,-3.56,-0.16,6.27
4.734817028045654,-4.89,-3.22,-0.25,5.86
4.741604804992676,-4.76,-3.07,-0.3,5.67
4.751751899719238,-4.68,-2.95,-0.2,5.53
4.761898994445801,-4.64,-2.92,-0.01,5.48
4.77183985710144,-4.66,-2.69,0.56,5.4
4.781555891036987,-4.78,-2.24,1.25,5.42
4.791581869125366,-4.71,-1.53,1.18,5.09
4.801476955413818,-4.23,-0.83,0.24,4.31
4.831728935241699,-3.19,-0.19,-0.79,3.29
4.832918882369995,-1.69,0.67,-1.29,2.22
4.834074020385742,-0.4,1.59,-1.04,1.94
4.840719938278198,0.54,2.3,-0.15,2.36
4.850985050201416,1.52,3.01,0.92,3.49
4.860939025878906,2.23,3.52,1.79,4.53
4.871077060699463,2.25,3.72,2.2,4.87
4.880794048309326,2.15,4.47,2.84,5.71
4.890946865081787,2.6,5.81,3.24,7.14
4.9008469581604,4.08,6.55,2.82,8.21
4.93061089515686,6.27,6.7,2.28,9.45
4.931980848312378,8.37,6.96,1.86,11.04
4.933013916015625,6.52,13.06,2.01,14.73
4.943059921264648,9.17,11.06,0.17,14.36
4.9505908489227295,17.04,2.81,0.15,17.27
4.960155010223389,18.66,1.28,2.1,18.82
4.970144748687744,16.45,2.73,2.08,16.8
4.9802117347717285,15.96,3.79,1.7,16.49
4.990139007568359,17.47,3.41,2.08,17.92
5.0000319480896,18.04,2.05,1.76,18.24
5.036705017089844,11.99,-2.04,-1.86,12.3
5.038095951080322,0.2,-2.66,-5.25,5.88
5.039095878601074,-7.9,4.28,-4.03,9.84
5.060702800750732,-5.02,9.72,2.16,11.15
5.062183856964111,0.77,6.46,3.84,7.55
5.0762529373168945,3.45,-0.26,2.28,4.14
5.07773494720459,5.7,-0.29,1.61,5.93
5.092833042144775,6.43,-1.91,0.19,6.71
5.094274997711182,4.46,-0.15,0.87,4.54
5.108211994171143,2.71,1.16,2.58,3.91
5.137310028076172,1.46,-0.47,2.4,2.84
5.138641834259033,1.39,-1.57,2.3,3.11
5.139648914337158,1.89,-1.1,2.27,3.15
5.1595189571380615,2.47,0.02,2.15,3.27
5.161035060882568,2.75,0.65,1.84,3.37
5.176735877990723,2.28,0.24,1.12,2.55
5.178215980529785,1.6,-0.24,0.32,1.64
5.192763805389404,0.98,-0.19,-0.24,1.02
5.194162845611572,0.67,0.09,-0.26,0.72
5.208065986633301,0.73,0.43,0.37,0.92
5.23422384262085,0.34,0.32,0.78,0.9
5.235607862472534,-0.5,-0.1,0.04,0.51
5.236631870269775,-0.76,-0.24,-0.84,1.15
5.239354848861694,-0.35,-0.11,-1.03,1.09
5.260226726531982,0.27,0.0,-1.15,1.18
5.261707782745361,0.69,-0.1,-1.11,1.31
5.276811838150024,0.59,-0.09,-0.78,0.98
5.278290748596191,0.15,-0.04,-0.51,0.53
5.292145729064941,-0.27,0.08,-0.52,0.59
5.2976648807525635,-0.81,0.04,-0.7,1.07
5.335414886474609,-1.09,0.12,-0.89,1.41
5.336538791656494,-0.7,0.32,-0.74,1.06
5.337694883346558,-0.58,0.44,-0.57,0.92
5.3391947746276855,-0.54,0.35,-0.63,0.9
5.34702205657959,-0.01,0.18,-0.54,0.56
5.357330799102783,0.43,-0.05,-0.36,0.56
5.367401838302612,0.61,-0.04,0.26,0.66
5.377280950546265,0.56,0.23,0.47,0.76
5.386906862258911,0.12,0.29,0.24,0.39
5.397047996520996,-0.26,0.22,-0.16,0.37
5.40717887878418,-0.24,0.18,-0.25,0.39
5.438156843185425,0.03,0.08,-0.16,0.18
5.439384937286377,0.21,0.06,-0.43,0.48
5.440392971038818,0.23,0.1,-0.69,0.73
5.460761070251465,0.24,0.01,-0.76,0.79
5.462262868881226,0.36,-0.06,-0.65,0.74
5.476799011230469,0.31,-0.02,-0.66,0.72
5.478280067443848,0.24,0.17,-0.5,0.58
5.4929869174957275,0.24,0.33,-0.28,0.49
5.4961090087890625,0.02,0.34,-0.27,0.43
5.508364915847778,-0.14,0.46,-0.34,0.58
5.53682804107666,-0.27,0.39,-0.41,0.62
5.538190841674805,-0.61,0.43,-0.65,0.98
5.53919792175293,-0.84,0.75,-1.02,1.51
5.560409069061279,-1.16,1.21,-1.18,2.04
5.5618767738342285,-1.72,1.18,-1.26,2.43
5.576510906219482,-1.91,0.83,-0.89,2.26
5.578001022338867,-2.05,0.63,-0.24,2.15
5.593010902404785,-2.31,0.86,0.09,2.46
5.5954060554504395,-2.44,1.35,0.2,2.79
5.60910701751709,-2.57,1.61,-0.13,3.03
5.639660835266113,-2.97,1.84,-0.45,3.52
5.640958786010742,-2.6,2.18,-0.72,3.46
5.641984939575195,-2.53,1.8,-1.25,3.34
5.660331726074219,-2.97,1.6,-1.46,3.67
5.661826848983765,-3.38,1.69,-1.95,4.25
5.67616605758667,-3.47,2.02,-2.24,4.59
5.677603721618652,-3.34,2.36,-2.1,4.59
5.693062782287598,-3.49,2.39,-2.14,4.74
5.694536924362183,-3.9,2.74,-2.37,5.32
5.7084479331970215,-4.51,3.67,-2.86,6.47
5.7367329597473145,-4.78,4.23,-3.62,7.33
5.738117933273315,-4.81,4.46,-3.85,7.6
5.739119052886963,-4.87,4.48,-3.95,7.7
5.760560035705566,-5.09,4.25,-3.97,7.72
5.7620530128479,-5.44,4.06,-4.2,7.98
5.776211738586426,-4.82,3.52,-3.88,7.11
5.777681827545166,-3.87,3.24,-3.21,5.98
5.793024063110352,-3.95,4.06,-3.41,6.61
5.794522762298584,-4.37,5.43,-3.88,7.97
5.808575868606567,-3.92,6.19,-3.88,8.29
5.840460777282715,-1.54,7.54,-2.57,8.11
5.8417277336120605,0.88,8.66,-1.26,8.79
5.842714786529541,-0.34,6.25,-0.95,6.33
5.859003067016602,-2.63,4.08,-1.92,5.22
5.86002779006958,-3.81,3.58,-2.8,5.93
5.874488830566406,-3.89,2.87,-2.7,5.53
5.875907897949219,-3.93,0.62,-2.91,4.92
5.889698028564453,-3.7,-4.31,-3.51,6.67
5.893147945404053,0.29,-4.84,-2.76,5.57
5.908840894699097,3.5,-1.33,-1.51,4.03
5.940180778503418,-0.55,-1.03,-2.01,2.32
5.941503047943115,-5.69,-1.47,-3.18,6.68
5.942538738250732,-8.72,-1.74,-3.06,9.4
5.960611820220947,-9.49,-2.26,-1.7,9.9
5.962065935134888,-8.93,-3.0,-0.23,9.42
5.976413726806641,-7.89,-3.88,0.73,8.82
5.977818965911865,-6.98,-4.97,0.84,8.6
5.993084907531738,-6.65,-5.57,0.53,8.69
5.994568824768066,-6.67,-5.51,0.24,8.65
6.008542060852051,-6.9,-4.79,0.1,8.4
6.040427923202515,-7.24,-4.03,0.29,8.29
6.041810035705566,-7.48,-3.85,0.7,8.44
6.042821884155273,-7.3,-3.81,1.28,8.33
6.060276985168457,-6.94,-3.76,1.74,8.08
6.061319828033447,-6.63,-3.53,2.34,7.86
6.076450824737549,-6.4,-2.66,2.96,7.53
6.077939987182617,-6.07,-1.44,2.28,6.64
6.093096733093262,-5.01,-0.15,0.44,5.03
6.094559907913208,-3.14,0.7,-1.26,3.45
6.108676910400391,-1.05,1.81,-1.47,2.55
6.139297962188721,0.56,2.85,-0.75,2.99
6.14073371887207,1.19,2.98,0.1,3.21
6.14175271987915,1.24,3.2,1.05,3.58
6.160236835479736,1.59,3.98,1.39,4.5
6.1612489223480225,2.49,4.87,1.24,5.6
6.176660060882568,3.55,5.63,1.03,6.73
6.178138732910156,4.51,5.91,0.44,7.44
6.193250894546509,5.61,5.92,-0.26,8.16
6.194738864898682,6.29,6.69,-0.87,9.22
6.208806991577148,3.04,13.21,0.15,13.55
6.210730075836182,9.3,11.9,-2.91,15.38
6.259678840637207,18.31,6.43,-3.12,19.65
6.260869026184082,20.81,3.37,-2.24,21.19
6.261890888214111,18.26,3.13,-1.78,18.61
6.277206897735596,15.5,2.38,-1.0,15.71
6.278275966644287,14.53,1.97,-0.02,14.66
6.293025970458984,14.42,2.14,0.67,14.59
6.294491767883301,13.86,2.53,1.33,14.15
6.310062885284424,12.85,1.79,2.05,13.13
6.311543941497803,10.56,-0.86,1.36,10.68
6.325647830963135,3.72,-1.93,-1.5,4.45
6.354753017425537,-2.87,3.69,-2.39,5.25
6.3563079833984375,-2.26,8.29,0.51,8.6
6.357324838638306,4.29,8.18,1.87,9.42
6.376628875732422,7.55,-0.61,-0.2,7.57
6.377657890319824,4.53,-2.6,-0.38,5.23
6.393305778503418,2.76,-0.9,1.95,3.49
6.394768953323364,2.38,-0.47,2.98,3.84
6.409920930862427,2.51,-0.82,2.69,3.76
6.411399841308594,2.06,-0.57,1.64,2.69
6.425747871398926,1.23,-0.02,0.72,1.42
6.455981731414795,0.53,0.0,-0.08,0.53
6.457258939743042,0.46,-0.25,-0.3,0.6
6.458291053771973,1.21,-0.32,0.62,1.39
6.477108001708984,1.86,-0.37,0.86,2.08
6.478148937225342,1.88,-0.18,-0.54,1.96
6.492913722991943,1.08,0.19,-1.58,1.92
6.494312763214111,0.13,0.19,-1.46,1.47
6.509965896606445,-0.58,0.05,-0.92,1.08
6.511298894882202,-0.85,0.05,-0.07,0.85
6.525691986083984,-0.68,0.05,0.71,0.98
6.554611921310425,-0.66,-0.04,1.08,1.26
6.555949926376343,-0.79,-0.02,1.0,1.27
6.556994915008545,-0.78,0.02,0.87,1.16
6.576648950576782,-0.48,0.14,0.3,0.58
6.577707767486572,-0.04,0.18,-0.36,0.4
6.592002868652344,0.17,0.08,-0.82,0.84
6.593432903289795,0.37,0.08,-0.99,1.05
6.610020875930786,0.72,0.1,-0.76,1.05
6.611333847045898,1.15,0.13,-0.79,1.4
6.625579833984375,1.36,0.03,-0.45,1.43
6.653791904449463,1.0,-0.06,-0.03,1.0
6.655122756958008,0.31,-0.01,0.11,0.32
6.656126022338867,0.02,0.07,0.1,0.12
6.677077770233154,0.03,0.18,0.01,0.18
6.678102016448975,0.07,0.38,-0.21,0.43
6.693029880523682,0.02,0.28,-0.47,0.54
6.694004058837891,-0.09,-0.03,-0.47,0.47
6.7098548412323,-0.13,-0.25,-0.47,0.54
6.711251735687256,-0.05,-0.24,-0.66,0.7
6.725802898406982,-0.06,-0.11,-0.67,0.68
6.753586769104004,0.0,0.1,-0.54,0.54
6.754844903945923,0.06,0.05,-0.41,0.41
6.755831956863403,-0.14,0.02,-0.35,0.37
6.777392864227295,-0.41,0.07,-0.38,0.56
6.778471946716309,-0.42,0.18,-0.4,0.6
6.79345178604126,-0.32,0.31,-0.22,0.49
6.79450798034668,-0.38,0.53,-0.3,0.71
6.810611724853516,-0.45,0.7,-0.6,1.02
6.812070846557617,-0.22,0.78,-0.59,1.0
6.825932025909424,-0.28,0.66,-0.55,0.9
6.852937936782837,-0.73,0.67,-0.68,1.2
6.8543479442596436,-1.08,0.78,-0.8,1.55
6.855443000793457,-1.48,0.98,-0.78,1.93
6.857560873031616,-2.29,1.51,-0.75,2.84
6.858911991119385,-2.73,1.86,-0.96,3.44
6.865716934204102,-2.86,1.94,-0.77,3.54
6.875763893127441,-3.03,2.1,-0.78,3.76
6.885601997375488,-3.06,2.39,-0.84,3.97
6.895798921585083,-2.74,2.7,-1.07,3.99
6.9056620597839355,-2.14,2.8,-1.2,3.72
6.940331935882568,-1.92,2.72,-1.56,3.67
6.941521883010864,-2.0,2.77,-1.9,3.9
6.942519903182983,-2.17,3.06,-2.1,4.29
6.960590839385986,-2.71,3.53,-2.86,5.29
6.961672782897949,-3.55,4.23,-3.69,6.64
6.976249933242798,-4.42,4.89,-4.21,7.82
6.977290868759155,-5.21,5.04,-4.31,8.43
6.993631839752197,-5.65,4.75,-4.23,8.5
6.995077848434448,-5.72,4.0,-3.86,7.97
7.010324001312256,-5.63,3.66,-3.5,7.57
7.014955997467041,-5.22,3.41,-3.72,7.26
7.0521559715271,-4.13,2.8,-3.95,6.36
7.05333685874939,-3.09,3.28,-4.11,6.09
7.0543317794799805,-3.25,4.48,-4.5,7.13
7.056996822357178,-3.44,5.82,-4.61,8.18
7.0641028881073,-2.68,7.51,-4.06,8.94
7.074364900588989,0.37,10.26,-2.22,10.5
7.084208965301514,1.57,9.86,-2.34,10.25
7.094381809234619,-0.05,6.73,-3.85,7.75
7.104114055633545,-2.27,4.69,-5.35,7.46
7.113862991333008,-4.07,2.44,-6.03,7.67
7.145664930343628,-5.36,-2.0,-6.14,8.39
7.147059917449951,-4.39,-5.58,-5.74,9.12
7.148071765899658,1.03,-2.44,-3.53,4.41
7.1610188484191895,2.85,-0.3,-1.91,3.44
7.163287878036499,-1.23,-1.8,-3.33,3.98
7.176692962646484,-5.9,-2.41,-4.89,8.03
7.183212757110596,-8.83,-2.82,-4.67,10.37
7.193521976470947,-9.95,-3.29,-3.19,10.95
7.20334005355835,-10.24,-3.65,-1.32,10.95
7.213217735290527,-10.01,-4.19,0.33,10.85
7.245696067810059,-9.46,-4.84,1.45,10.72
7.247006893157959,-8.96,-5.13,1.86,10.49
7.248003005981445,-8.49,-5.0,1.83,10.02
7.261013984680176,-8.11,-4.84,1.51,9.56
7.262588977813721,-7.98,-4.63,1.39,9.33
7.276339054107666,-8.06,-4.3,1.66,9.28
7.282466888427734,-8.12,-3.83,1.74,9.14
7.293310880661011,-8.14,-3.56,1.5,9.01
7.302785873413086,-8.03,-3.1,0.76,8.64
7.312495946884155,-7.76,-2.33,-0.3,8.1
7.343859910964966,-6.9,-1.06,-1.12,7.07
7.345285892486572,-5.19,0.12,-1.6,5.43
7.346322059631348,-2.94,0.61,-2.05,3.63
7.360889911651611,-0.67,0.64,-2.15,2.34
7.361979961395264,0.95,0.74,-1.57,1.97
7.376753807067871,1.85,1.03,-0.73,2.23
7.381720066070557,2.94,1.91,-0.25,3.51
7.393820762634277,4.21,2.95,-0.47,5.16
7.402047872543335,5.01,3.8,-0.85,6.34
7.411637783050537,5.3,4.79,-0.58,7.16
7.450231075286865,5.78,6.13,0.03,8.42
7.451582908630371,6.65,7.24,0.37,9.83
7.452642917633057,7.23,8.62,0.12,11.25
7.457227945327759,4.84,17.69,0.42,18.34
7.461208820343018,9.2,15.15,-2.19,17.85
7.477264881134033,17.98,6.77,0.46,19.21
7.481053829193115,19.1,2.73,2.09,19.4
7.491333961486816,16.47,5.29,2.71,17.5
7.501256942749023,15.56,5.27,2.93,16.68
7.511062860488892,15.47,4.33,2.9,16.32
7.549599885940552,15.03,3.56,2.63,15.66
7.550934791564941,14.43,2.34,2.12,14.77
7.55195689201355,11.39,-0.47,1.12,11.45
7.5530548095703125,4.81,-3.06,-0.89,5.76
7.560375928878784,-1.56,-1.59,-2.62,3.43
7.577255725860596,-1.84,4.56,-0.17,4.92
7.580241918563843,3.33,7.68,3.26,8.98
7.594035863876343,8.26,1.62,1.8,8.6
7.600520849227905,7.06,-2.42,-0.2,7.46
7.610209941864014,4.64,-0.14,0.77,4.7
7.648067951202393,3.89,0.19,2.35,4.54
7.649435043334961,3.4,-0.42,2.68,4.34
7.650448799133301,2.58,-0.46,2.57,3.67
7.66095495223999,1.07,-0.55,2.11,2.42
7.662027835845947,-0.21,-0.72,1.61,1.77
7.676854848861694,-0.75,-0.57,1.19,1.51
7.679532051086426,-0.4,0.04,1.18,1.24
7.693051815032959,0.13,-0.01,0.7,0.71
7.699792861938477,0.34,-0.29,0.15,0.47
7.709526062011719,0.72,-0.22,-0.09,0.75
7.747268915176392,1.14,0.01,-0.45,1.22
7.748583793640137,1.01,0.12,-1.06,1.46
7.749577045440674,0.4,0.07,-1.67,1.71
7.760666847229004,0.14,0.18,-1.73,1.74
7.761731863021851,0.26,0.28,-1.42,1.47
7.776963949203491,0.37,0.17,-0.99,1.07
7.778576850891113,0.32,0.05,-0.71,0.78
7.793964862823486,0.2,-0.01,-0.48,0.52
7.798830032348633,-0.01,-0.01,-0.32,0.32
7.809301853179932,-0.09,0.09,0.01,0.12
7.818928956985474,-0.04,0.22,0.47,0.52
7.85100793838501,0.06,0.27,0.76,0.8
7.852228879928589,0.17,0.19,0.59,0.64
7.853477954864502,0.33,0.04,0.28,0.43
7.858129024505615,0.56,0.04,0.25,0.61
7.877119064331055,0.64,0.12,-0.11,0.66
7.878139972686768,0.45,0.23,-0.57,0.76
7.893977880477905,0.08,0.23,-0.71,0.75
7.898108005523682,0.0,0.08,-0.79,0.79
7.909128904342651,0.24,0.01,-0.67,0.71
7.918117046356201,0.45,-0.06,-0.04,0.45
7.94865083694458,0.44,0.03,0.13,0.45
7.949694871902466,0.01,0.08,-0.07,0.1
7.951353073120117,-0.38,0.11,-0.06,0.4
7.958913803100586,-0.33,0.11,0.05,0.35
7.967525959014893,0.05,0.06,0.04,0.08
7.977381944656372,0.34,-0.06,-0.14,0.37
7.987555027008057,0.31,-0.12,-0.22,0.39
7.9973907470703125,0.06,0.03,-0.22,0.23
8.007437944412231,-0.09,0.21,-0.17,0.28
8.01738691329956,-0.18,0.34,-0.37,0.53
8.049129009246826,-0.24,0.43,-0.67,0.83
8.050379753112793,-0.27,0.5,-0.79,0.97
8.05142879486084,-0.51,0.49,-0.84,1.09
8.056777000427246,-0.88,0.48,-1.01,1.42
8.066848754882812,-1.19,0.49,-1.14,1.71
8.07663893699646,-1.4,0.5,-1.19,1.9
8.086618900299072,-1.59,0.64,-1.06,2.01
8.096881866455078,-1.93,0.88,-1.04,2.36
8.106873035430908,-2.33,1.45,-1.18,2.98
8.116602897644043,-3.14,2.04,-1.22,3.93
8.147757053375244,-3.36,2.5,-0.93,4.29
8.14909291267395,-3.43,2.46,-1.09,4.35
8.150083065032959,-3.64,2.7,-1.27,4.7
8.161513805389404,-3.24,3.1,-1.26,4.65
8.165746927261353,-2.57,3.11,-1.34,4.25
8.177125930786133,-2.0,3.06,-1.44,3.92
8.186072826385498,-1.97,3.02,-1.54,3.92
8.19611406326294,-2.43,3.34,-2.01,4.59
8.205935001373291,-3.04,3.94,-2.7,5.66
8.215677738189697,-3.55,4.17,-3.04,6.26
8.253705024719238,-4.14,4.32,-3.1,6.73
8.255178928375244,-4.93,4.4,-3.22,7.35
8.256211757659912,-5.53,4.15,-3.48,7.74
8.258423805236816,-5.6,3.5,-3.42,7.43
8.265161991119385,-5.21,3.09,-3.53,7.01
8.275357723236084,-4.44,2.81,-3.98,6.59
8.28523874282837,-3.32,3.01,-4.23,6.16
8.295427799224854,-3.26,3.56,-4.64,6.69
8.30515193939209,-4.54,4.99,-4.67,8.2
8.31509780883789,-4.23,6.02,-3.98,8.36
8.352348804473877,-2.21,7.44,-2.3,8.09
8.353641986846924,2.08,10.07,-0.2,10.28
8.354619026184082,2.42,8.08,-1.43,8.55
8.35696291923523,-1.03,4.91,-3.93,6.37
8.377278804779053,-3.67,4.0,-5.52,7.74
8.378328800201416,-5.09,1.36,-5.49,7.6
8.393746852874756,-5.9,-2.92,-4.86,8.18
8.394789934158325,-4.53,-6.67,-4.08,9.03
8.409786939620972,1.66,-2.9,-2.1,3.94
8.41422176361084,0.94,-1.23,-1.75,2.33
8.453971862792969,-4.4,-2.16,-3.36,5.94
8.455111980438232,-8.25,-1.97,-4.46,9.58
8.45605182647705,-10.03,-1.96,-3.89,10.93
8.457727909088135,-10.16,-2.23,-2.64,10.73
8.463534832000732,-9.23,-2.72,-1.31,9.71
8.473789930343628,-7.93,-3.58,-0.39,8.7
8.483775854110718,-6.9,-4.28,-0.05,8.11
8.493667840957642,-6.34,-4.36,-0.22,7.69
8.503777980804443,-6.05,-4.1,-0.58,7.33
8.513694763183594,-5.72,-3.62,-0.76,6.81
8.548480033874512,-5.29,-3.39,-0.79,6.33
8.549850940704346,-4.98,-3.37,-0.41,6.02
8.55086374282837,-4.92,-3.19,0.24,5.86
8.552947044372559,-5.23,-2.95,0.77,6.05
8.563273906707764,-5.55,-2.51,0.74,6.13
8.573029041290283,-5.71,-1.74,-0.08,5.96
8.583040952682495,-5.43,-0.74,-1.03,5.57
8.592682838439941,-4.17,0.07,-1.63,4.47
8.603006839752197,-1.7,0.51,-1.65,2.42
8.612926959991455,0.81,0.53,-0.89,1.31
8.622818946838379,2.06,0.71,0.1,2.18
8.654769897460938,1.77,0.9,0.53,2.05
8.655962944030762,0.79,1.41,1.17,1.99
8.656944751739502,0.37,2.42,2.27,3.33
8.678065776824951,1.05,3.49,3.52,5.06
8.679080963134766,2.24,4.02,3.93,6.05
8.69392991065979,3.34,4.45,2.82,6.23
8.695240020751953,4.6,5.75,1.82,7.58
8.711118936538696,5.91,6.76,0.74,9.0
8.712585926055908,7.11,8.6,0.2,11.16
8.7267427444458,6.55,16.1,0.32,17.38
8.755672931671143,13.84,13.25,-1.95,19.25
8.756937980651855,22.04,6.69,-0.45,23.03
8.757942914962769,20.73,2.8,2.05,21.01
8.773982048034668,15.86,2.28,2.95,16.29
8.775022029876709,13.13,2.77,3.79,13.94
8.794790744781494,12.64,3.8,3.96,13.78
8.79643201828003,13.01,3.51,3.57,13.94
8.811542987823486,13.41,1.95,2.42,13.76
8.81303071975708,9.76,-1.09,-0.41,9.82
8.827199935913086,0.65,-2.58,-3.16,4.13
8.856942892074585,-5.89,1.47,-2.96,6.75
8.858215808868408,-1.61,7.63,1.53,7.94
8.859225749969482,4.59,8.58,3.08,10.2
8.877885818481445,7.93,5.41,1.96,9.79
8.87898302078247,8.76,-1.67,-0.97,8.97
8.892643928527832,5.29,-1.9,-1.17,5.74
8.893718719482422,3.45,-0.02,1.74,3.86
8.911198854446411,2.6,-1.04,2.46,3.72
8.912672996520996,2.02,-1.92,1.98,3.41
8.926617860794067,1.34,-1.32,1.79,2.59
8.95452094078064,0.65,-0.49,1.41,1.62
8.95588493347168,0.15,-0.02,0.9,0.91
8.95686674118042,0.09,0.09,0.37,0.39
8.979472875595093,0.48,-0.07,-0.21,0.52
8.980520725250244,0.84,-0.18,-0.4,0.94
8.991875886917114,0.6,0.04,-0.6,0.84
8.992901802062988,0.1,0.17,-0.49,0.52
9.011283874511719,-0.04,0.27,0.01,0.27
9.01277494430542,-0.02,0.24,-0.04,0.24
9.026880741119385,-0.19,0.1,-0.71,0.74
9.057478904724121,-0.32,0.11,-1.36,1.4
9.058897972106934,0.09,0.15,-1.13,1.14
9.059931755065918,0.79,0.03,-0.36,0.86
9.078157901763916,1.28,-0.09,-0.05,1.28
9.079227924346924,1.23,-0.15,-0.08,1.24
9.094372749328613,0.89,-0.05,0.33,0.95
9.09544587135315,0.4,0.07,0.68,0.79
9.111313819885254,0.13,0.09,1.06,1.07
9.112794876098633,0.08,0.05,1.36,1.36
9.126862049102783,0.24,-0.02,0.96,0.98
9.156524896621704,0.53,-0.06,0.33,0.62
9.1578688621521,0.89,-0.19,-0.02,0.91
9.15888500213623,1.02,-0.15,-0.19,1.04
9.17796277999878,0.88,-0.06,-0.36,0.95
9.179024934768677,0.55,0.04,-0.46,0.71
9.194254875183105,0.15,0.17,-0.44,0.49
9.195313930511475,-0.17,0.24,-0.42,0.51
9.211164951324463,-0.26,0.21,-0.48,0.58
9.212660789489746,-0.08,0.05,-0.19,0.21
9.226839065551758,0.14,0.04,0.05,0.15
9.254612922668457,0.26,0.08,-0.01,0.27
9.256096839904785,0.25,-0.06,-0.13,0.28
9.257184028625488,0.13,-0.1,-0.2,0.25
9.27811884880066,0.05,0.08,-0.23,0.24
9.27921199798584,-0.03,0.18,-0.59,0.61
9.294786930084229,-0.07,0.13,-0.6,0.61
9.296103954315186,-0.13,0.18,-0.24,0.32
9.311468839645386,-0.31,0.29,-0.2,0.46
9.312952995300293,-0.48,0.45,-0.35,0.74
9.325785875320435,-0.52,0.5,-0.51,0.88
9.35469675064087,-0.36,0.55,-0.63,0.91
9.35606575012207,-0.27,0.57,-0.83,1.04
9.357061862945557,-0.32,0.53,-1.18,1.33
9.37812089920044,-0.46,0.67,-1.26,1.49
9.379148006439209,-1.14,1.02,-1.25,1.97
9.39459490776062,-2.16,1.67,-0.98,2.9
9.395673751831055,-2.75,2.24,-1.16,3.73
9.411370754241943,-2.94,2.07,-1.39,3.85
9.412839889526367,-3.24,2.32,-1.15,4.14
9.42734694480896,-3.63,2.38,-1.67,4.65
9.428830862045288,-3.85,2.29,-2.14,4.96
9.471551895141602,-4.15,2.59,-2.93,5.7
9.47271990776062,-4.14,3.49,-3.29,6.33
9.473712921142578,-3.97,4.67,-3.49,7.05
9.495368003845215,-3.94,5.43,-4.23,7.93
9.496379852294922,-4.19,5.76,-4.63,8.49
9.511703968048096,-4.99,6.51,-4.84,9.52
9.51318073272705,-5.82,6.75,-4.77,10.1
9.52821683883667,-6.32,6.65,-4.34,10.14
9.529775857925415,-6.5,5.92,-3.96,9.64
9.543479919433594,-6.17,4.7,-3.92,8.69
9.572289943695068,-5.36,3.48,-4.02,7.54
9.573671817779541,-3.85,2.47,-3.91,6.01
9.574711799621582,-2.63,2.52,-4.16,5.52
9.595029830932617,-2.07,3.91,-4.13,6.05
9.596078872680664,-0.96,6.89,-2.81,7.5
9.611639976501465,2.52,10.36,-1.19,10.72
9.613155841827393,2.41,8.02,-2.67,8.78
9.628198862075806,-0.96,3.47,-4.47,5.73
9.629706859588623,-4.1,1.22,-5.29,6.8
9.643624782562256,-5.92,-0.97,-5.22,7.95
9.673158884048462,-6.76,-4.77,-5.29,9.82
9.674513816833496,-5.15,-6.36,-4.06,9.13
9.675534725189209,-0.36,-3.04,-1.54,3.42
9.694999933242798,0.76,-1.58,-0.7,1.88
9.6960608959198,-1.87,-2.16,-1.75,3.35
9.711699962615967,-4.65,-2.08,-2.89,5.85
9.71313190460205,-6.66,-2.51,-2.94,7.7
9.728314876556396,-7.8,-3.02,-2.36,8.69
9.729846954345703,-8.13,-3.24,-1.51,8.88
9.743595838546753,-7.89,-3.44,-0.74,8.63
9.775369882583618,-7.44,-3.67,-0.23,8.29
9.776659965515137,-7.02,-3.71,0.07,7.94
9.777674913406372,-6.68,-3.6,0.18,7.59
9.795450925827026,-6.28,-3.59,0.16,7.23
9.796467781066895,-5.96,-3.73,0.08,7.03
9.811659812927246,-5.81,-3.91,-0.09,7.0
9.813116073608398,-5.78,-3.87,-0.2,6.95
9.828457832336426,-6.01,-3.73,-0.13,7.07
9.829936027526855,-6.41,-3.3,0.35,7.21
9.84368371963501,-7.02,-2.44,1.0,7.49
9.876469850540161,-7.5,-1.55,0.89,7.71
9.87775182723999,-6.89,-0.72,-0.27,6.93
9.878768920898438,-4.95,0.02,-1.83,5.27
9.895273923873901,-2.15,0.75,-2.83,3.63
9.896339893341064,0.53,1.6,-2.64,3.13
9.911274909973145,1.99,2.33,-1.6,3.45
9.912730932235718,1.75,2.15,-0.35,2.79
9.928287982940674,1.39,2.29,0.52,2.72
9.929714918136597,2.32,3.46,0.77,4.23
9.943464756011963,3.91,4.65,0.85,6.13
9.974009037017822,5.18,5.25,1.05,7.44
9.97542691230774,5.92,5.65,1.17,8.26
9.976470947265625,6.51,6.52,1.01,9.26
9.995239734649658,6.14,10.41,0.56,12.09
9.99632978439331,6.11,15.27,-0.8,16.46
10.011579036712646,14.26,10.78,-1.08,17.9
10.013053894042969,20.43,6.01,2.23,21.41
10.028365850448608,18.81,3.18,3.32,19.36
10.029836893081665,15.34,4.52,3.64,16.4
10.043920993804932,14.62,4.73,4.41,15.98
10.073128938674927,14.88,4.36,4.76,16.21
10.074789047241211,14.18,3.92,4.97,15.52
10.075812816619873,12.33,2.38,4.8,13.44
10.094976902008057,8.23,-2.42,2.3,8.88
10.096007823944092,0.3,-5.65,-1.59,5.87
10.111825942993164,-4.31,-0.03,-2.44,4.95
10.113279819488525,-0.98,8.39,2.19,8.72
10.128448009490967,4.04,9.84,4.59,11.58
10.129931926727295,8.44,4.01,2.9,9.78
10.143809795379639,8.32,-1.46,0.33,8.45
10.1729097366333,5.44,-0.78,1.43,5.67
10.174351930618286,3.2,-0.23,2.65,4.16
10.17535400390625,1.64,-0.87,1.97,2.7
10.195458889007568,1.2,-0.96,1.54,2.17
10.196497917175293,1.22,-0.56,1.36,1.91
10.21160078048706,1.14,-0.33,1.09,1.61
10.213013887405396,0.76,-0.37,0.87,1.21
10.228630065917969,0.67,-0.21,0.79,1.05
10.230102062225342,0.57,-0.13,0.42,0.71
10.243868827819824,-0.03,-0.02,-0.15,0.15
10.24531078338623,-0.8,0.05,-0.63,1.01
10.289859771728516,-1.13,-0.06,-0.95,1.47
10.291029930114746,-0.86,-0.06,-1.11,1.4
10.291930913925171,-0.3,0.01,-1.11,1.14
10.31185793876648,0.24,-0.01,-1.09,1.11
10.31289792060852,0.58,-0.11,-1.16,1.3
10.32844877243042,0.77,-0.27,-1.33,1.56
10.329834938049316,0.93,-0.27,-1.23,1.56
10.344648838043213,0.93,-0.01,-0.61,1.11
10.345983982086182,0.58,0.13,0.14,0.61
10.360116004943848,0.06,0.14,0.53,0.55
10.392191886901855,-0.14,0.13,0.78,0.8
10.393465042114258,0.13,0.13,1.11,1.12
10.394361972808838,0.49,0.13,0.93,1.05
10.412118911743164,0.66,-0.01,0.56,0.86
10.413173913955688,0.7,-0.12,0.07,0.71
10.428300857543945,0.94,-0.12,-0.05,0.94
10.429579734802246,1.18,0.0,-0.05,1.18
10.444798946380615,1.08,0.13,-0.21,1.1
10.446208000183105,0.79,0.26,-0.43,0.93
10.460375785827637,0.46,0.3,-0.42,0.69
10.489138841629028,0.14,0.28,-0.32,0.44
10.490567922592163,0.0,0.21,-0.33,0.39
10.491552829742432,-0.09,0.01,-0.59,0.59
10.512052059173584,-0.31,-0.08,-0.71,0.77
10.51311206817627,-0.43,0.02,-0.73,0.84
10.52882695198059,-0.5,0.18,-0.83,0.98
10.530266761779785,-0.45,0.11,-0.89,1.0
10.545287847518921,-0.28,0.17,-0.66,0.73
10.546782970428467,-0.07,0.35,-0.3,0.46
10.56078290939331,-0.1,0.36,-0.23,0.43
10.590360879898071,-0.35,0.35,-0.24,0.55
10.592220783233643,-0.76,0.33,-0.36,0.9
10.593245029449463,-1.24,0.4,-0.53,1.4
10.612009048461914,-1.44,0.53,-0.54,1.62
10.613030910491943,-1.41,0.51,-0.6,1.61
10.62862777709961,-1.13,0.6,-0.79,1.5
10.630076885223389,-0.76,0.62,-0.8,1.26
10.64529800415039,-0.67,0.66,-1.1,1.44
10.646715879440308,-0.95,0.66,-1.31,1.74
10.66087293624878,-1.47,0.74,-1.05,1.95
10.690937042236328,-2.08,0.96,-0.85,2.44
10.692278861999512,-2.78,1.32,-1.26,3.32
10.69329285621643,-4.2,1.86,-1.88,4.96
10.712265014648438,-4.76,2.87,-1.67,5.8
10.713310956954956,-4.26,3.15,-1.74,5.57
10.72855806350708,-3.81,3.27,-1.76,5.32
10.730020999908447,-3.67,3.65,-1.9,5.51
10.745380878448486,-3.81,4.22,-2.39,6.16
10.746862888336182,-3.99,4.87,-3.21,7.06
10.760802745819092,-4.34,5.49,-3.96,8.04
10.791753768920898,-4.54,5.81,-4.2,8.48
10.793073892593384,-4.97,6.19,-4.23,8.99
10.79408884048462,-5.84,6.63,-4.28,9.81
10.8126220703125,-6.27,5.94,-3.91,9.48
10.813662052154541,-5.94,4.72,-3.69,8.43
10.828651905059814,-5.0,3.66,-3.86,7.3
10.830137729644775,-3.49,2.81,-4.06,6.04
10.845383882522583,-2.68,3.46,-4.92,6.58
10.846834897994995,-3.04,5.32,-5.8,8.43
10.860910892486572,-3.25,7.51,-5.65,9.94
10.892333984375,-1.28,10.45,-2.99,10.94
10.893625736236572,1.48,10.93,-0.67,11.05
10.894714832305908,0.47,5.97,-1.08,6.08
10.91235876083374,-2.64,2.83,-3.32,5.09
10.913392066955566,-5.48,1.77,-4.87,7.54
10.928606986999512,-7.47,-0.74,-5.55,9.33
10.930055856704712,-6.93,-4.99,-5.48,10.14
10.946532726287842,-0.49,-3.19,-2.59,4.13
10.94799280166626,2.31,-0.9,-0.49,2.52
10.961108922958374,-1.7,-1.91,-1.48,2.95
10.991864919662476,-6.1,-2.3,-3.03,7.18
10.993185997009277,-8.96,-2.51,-3.03,9.78
10.994142055511475,-10.07,-2.6,-1.93,10.57
11.012402057647705,-9.67,-2.6,-0.57,10.02
11.01341199874878,-8.32,-3.43,0.45,9.01
11.028394937515259,-6.95,-4.62,0.83,8.38
11.029440879821777,-6.27,-5.11,0.58,8.1
11.045385837554932,-6.13,-4.92,0.19,7.86
11.046858787536621,-5.95,-4.42,-0.18,7.41
11.060910940170288,-5.57,-4.01,-0.41,6.87
11.062376976013184,-5.06,-3.9,-0.45,6.4
11.1092209815979,-4.74,-3.98,-0.27,6.19
11.110387802124023,-4.73,-3.94,0.3,6.16
11.111352920532227,-5.08,-3.78,0.82,6.38
11.12929391860962,-5.59,-3.44,1.14,6.66
11.130290031433105,-5.84,-2.57,0.96,6.45
11.145006895065308,-5.38,-1.41,-0.25,5.56
11.146483898162842,-3.71,-0.51,-1.56,4.05
11.162325859069824,-1.41,0.23,-1.84,2.32
11.163732051849365,0.72,1.0,-1.0,1.58
11.176819801330566,1.84,1.26,0.15,2.23
11.208736896514893,2.11,1.38,1.24,2.8
11.210043907165527,2.39,2.11,2.05,3.79
11.211050033569336,2.66,3.06,2.43,4.72
11.229400873184204,3.12,4.32,2.5,5.88
11.230453968048096,4.18,5.57,1.85,7.2
11.243829727172852,5.96,6.5,0.98,8.87
11.245320796966553,7.93,7.2,0.23,10.71
11.262486934661865,9.7,7.53,-0.15,12.28
11.263965845108032,10.78,7.99,-0.03,13.41
11.2779860496521,7.98,14.19,0.5,16.28
11.309453964233398,12.22,9.92,-0.52,15.74
11.310672760009766,17.4,5.3,0.87,18.21
11.311660766601562,16.86,3.68,2.29,17.4
11.32946491241455,15.09,4.07,2.9,15.89
11.330530881881714,14.69,5.97,3.99,16.35
11.343907833099365,14.85,6.83,5.21,17.15
11.344953060150146,13.2,3.96,4.3,14.43
11.362324953079224,5.21,-1.05,-0.46,5.33
11.363794803619385,-5.06,-0.15,-3.38,6.08
11.377817869186401,-6.88,2.47,-1.55,7.47
11.407992839813232,0.49,3.47,1.24,3.71
11.4093017578125,5.9,3.65,1.57,7.11
11.410306930541992,7.29,2.87,2.03,8.09
11.429105758666992,7.57,2.23,1.77,8.08
11.430135726928711,8.31,-1.24,-0.78,8.43
11.445169925689697,5.74,-0.8,-1.35,5.95
11.446220874786377,3.51,1.16,1.37,3.94
11.462215900421143,2.34,0.54,2.35,3.36
11.463640928268433,2.5,-0.47,2.24,3.38
11.477746963500977,2.62,-0.7,2.17,3.47
11.507861852645874,2.1,-0.7,2.07,3.03
11.509091854095459,1.53,-0.31,1.77,2.36
11.510119915008545,0.77,-0.19,1.11,1.36
11.52929401397705,-0.05,-0.34,0.39,0.51
11.53030776977539,-0.76,-0.25,-0.07,0.8
11.545315742492676,-1.0,-0.04,-0.37,1.06
11.546329975128174,-0.91,0.14,-0.44,1.02
11.561889886856079,-0.71,0.02,-0.38,0.8
11.563211917877197,-0.62,-0.26,-0.43,0.79
11.577662944793701,-0.46,-0.31,-0.53,0.76
11.605845928192139,-0.35,-0.03,-1.04,1.09
11.607229948043823,-0.09,0.16,-1.69,1.69
11.608176946640015,0.6,0.01,-1.95,2.04
11.629546880722046,1.47,-0.02,-1.6,2.17
11.630575895309448,1.91,0.24,-1.08,2.2
11.645313739776611,1.46,0.35,-0.45,1.56
11.646368980407715,0.69,0.18,0.22,0.74
11.662440776824951,0.29,0.02,0.91,0.95
11.66392993927002,0.16,-0.03,1.24,1.25
11.677879810333252,-0.01,0.03,1.24,1.24
11.706560850143433,-0.25,0.04,0.96,0.99
11.707973003387451,-0.43,0.0,0.19,0.47
11.70902395248413,-0.34,0.14,-0.58,0.68
11.729306936264038,0.05,0.22,-0.96,0.98
11.730341911315918,0.74,-0.02,-1.1,1.32
11.745532989501953,1.13,-0.35,-0.77,1.41
11.746562957763672,0.83,-0.36,-0.02,0.9
11.762472867965698,0.11,-0.06,0.17,0.21
11.76391887664795,-0.46,0.03,0.1,0.47
11.777934074401855,-0.59,0.02,0.23,0.63
11.806068897247314,-0.32,0.2,0.06,0.38
11.807395935058594,0.1,0.41,-0.34,0.54
11.808356761932373,0.31,0.35,-0.54,0.71
11.829410076141357,0.16,0.35,-0.69,0.79
11.830411911010742,-0.16,0.34,-0.7,0.79
11.845072746276855,-0.51,0.34,-0.46,0.76
11.845954895019531,-0.88,0.4,-0.48,1.07
11.862489938735962,-1.16,0.45,-0.63,1.39
11.863955020904541,-1.32,0.5,-0.78,1.61
11.87776803970337,-1.42,0.67,-1.02,1.87
11.879193782806396,-1.48,0.78,-1.31,2.12
11.92316484451294,-1.45,0.84,-1.48,2.23
11.924338817596436,-1.28,0.84,-1.66,2.25
11.925209045410156,-1.23,0.84,-1.45,2.07
11.94692587852478,-1.33,1.05,-1.52,2.27
11.947951793670654,-1.46,1.24,-1.47,2.41
11.962491989135742,-2.1,1.37,-1.4,2.87
11.96395206451416,-3.07,2.43,-1.02,4.04
11.97914981842041,-3.49,3.23,-0.91,4.84
11.980597019195557,-3.55,3.17,-1.18,4.9
11.994744777679443,-3.5,3.42,-1.27,5.05
12.025057792663574,-3.34,3.57,-1.59,5.14
12.026373863220215,-3.2,3.79,-2.09,5.38
12.027424812316895,-3.37,4.03,-2.58,5.85
12.046117782592773,-3.79,4.35,-2.89,6.45
12.047177791595459,-4.42,4.7,-3.23,7.21
12.062193870544434,-4.93,4.95,-3.61,7.86
12.063275814056396,-5.4,5.27,-3.68,8.39
12.079113960266113,-5.92,5.3,-3.79,8.8
12.080581903457642,-5.93,4.72,-3.77,8.46
12.094653844833374,-5.41,3.96,-3.97,7.79
12.124384880065918,-4.37,2.92,-4.37,6.83
12.12584400177002,-3.13,2.76,-4.64,6.24
12.126856803894043,-3.23,4.04,-5.29,7.39
12.14593505859375,-3.8,5.94,-5.65,9.03
12.147022724151611,-3.52,7.85,-5.18,10.04
12.162456035614014,-0.31,10.95,-2.5,11.23
12.163506984710693,2.14,11.71,-1.39,11.98
12.17938494682312,0.13,6.8,-2.57,7.27
12.1808500289917,-3.05,3.6,-4.12,6.26
12.194916725158691,-5.24,1.66,-4.96,7.4
12.224012851715088,-6.55,-2.24,-5.71,8.97
12.22534990310669,-6.42,-5.84,-5.62,10.33
12.226390838623047,-0.62,-3.8,-2.79,4.75
12.245902061462402,3.38,-1.76,-0.51,3.84
12.246945858001709,0.12,-2.56,-1.3,2.87
12.26267695426941,-4.29,-3.06,-3.13,6.12
12.264177799224854,-7.38,-3.3,-3.51,8.81
12.279238939285278,-8.66,-3.7,-2.68,9.79
12.280695915222168,-8.71,-4.0,-1.54,9.7
12.294705867767334,-8.2,-4.44,-0.52,9.33
12.3258638381958,-7.46,-5.16,0.0,9.07
12.327149868011475,-6.84,-5.53,0.02,8.79
12.328224897384644,-6.62,-5.49,-0.27,8.6
12.346231937408447,-6.44,-5.08,-0.62,8.22
12.347254753112793,-6.04,-4.62,-0.85,7.65
12.362542867660522,-5.51,-4.22,-1.04,7.01
12.363615036010742,-5.23,-3.95,-0.98,6.62
12.379148006439209,-5.33,-3.57,-0.66,6.44
12.38058090209961,-5.52,-3.04,-0.34,6.31
12.394690990447998,-5.43,-2.41,-0.29,5.94
12.423693895339966,-4.88,-1.75,-0.86,5.25
12.425096988677979,-3.94,-1.07,-1.77,4.44
12.42610502243042,-2.28,-0.23,-2.26,3.21
12.445962905883789,-0.37,0.53,-2.09,2.18
12.446956872940063,0.93,0.97,-1.37,1.91
12.462656021118164,1.22,1.08,-0.22,1.64
12.463677883148193,0.92,1.34,0.88,1.84
12.479491949081421,0.87,2.36,1.53,2.94
12.480978965759277,0.86,3.47,1.93,4.06
12.49472188949585,1.21,4.67,2.53,5.44
12.522305965423584,2.11,5.63,2.85,6.65
12.523679733276367,3.28,6.37,2.66,7.64
12.524632930755615,4.86,7.39,2.28,9.13
12.526717901229858,7.1,8.27,1.64,11.02
12.527901887893677,9.56,8.45,1.03,12.8
12.529090881347656,9.54,11.15,0.69,14.69
12.530279874801636,9.18,13.7,-0.1,16.49
12.531429767608643,15.4,6.49,-0.57,16.72
12.532643795013428,17.57,4.3,2.32,18.23
12.533954858779907,15.3,3.19,3.26,15.96
12.562535762786865,13.15,3.2,3.07,13.87
12.563621997833252,11.76,4.04,3.65,12.95
12.564367771148682,11.11,5.88,4.86,13.47
12.578173875808716,10.27,5.83,5.42,12.99
12.582650899887085,7.21,1.65,3.07,8.0
12.595062732696533,-0.2,-1.94,-1.23,2.3
12.602272987365723,-6.05,-1.34,-2.91,6.84
12.612514019012451,-3.16,0.96,-0.07,3.3
12.622472763061523,3.97,3.33,1.74,5.46
12.632197856903076,7.04,4.8,2.11,8.77
12.642602920532227,8.41,5.36,2.14,10.19
12.670622825622559,10.19,-0.1,-0.09,10.19
12.671469926834106,7.11,-0.67,-1.23,7.24
12.67238998413086,4.3,1.81,1.19,4.81
12.682264804840088,3.08,0.66,2.46,3.99
12.69591474533081,2.71,-1.39,2.34,3.84
12.701989889144897,2.48,-1.55,2.14,3.62
12.712281942367554,1.6,-0.88,1.48,2.35
12.721813917160034,0.68,-0.3,0.84,1.12
12.731752872467041,-0.14,0.02,0.61,0.62
12.742044925689697,-1.17,0.22,-0.15,1.19
12.77226185798645,-1.92,0.17,-0.91,2.13
12.773194789886475,-1.5,0.13,-0.46,1.57
12.774182796478271,-0.52,-0.01,-0.09,0.52
12.781171798706055,0.23,-0.03,-0.43,0.48
12.791339874267578,0.69,0.04,-0.56,0.88
12.801403045654297,0.81,0.18,-0.54,0.99
12.81120777130127,0.74,0.08,-0.48,0.88
12.821148872375488,1.0,-0.12,-0.48,1.11
12.8309907913208,1.41,-0.15,-0.5,1.5
12.841184854507446,1.52,-0.09,-0.14,1.52
12.871088981628418,1.07,-0.11,0.44,1.16
12.87209701538086,0.49,0.01,0.8,0.93
12.87314486503601,0.18,0.12,0.75,0.78
12.880374908447266,0.12,0.1,0.34,0.37
12.896169900894165,0.32,0.1,-0.11,0.35
12.900181770324707,0.52,0.05,-0.28,0.59
12.913441896438599,0.58,-0.09,-0.23,0.63
12.92039680480957,0.49,-0.14,-0.05,0.51
12.930266857147217,0.28,-0.02,-0.15,0.31
12.940513849258423,0.19,0.18,-0.45,0.52
12.972694873809814,0.11,0.2,-0.51,0.55
12.973825931549072,-0.02,0.12,-0.41,0.42
12.974945068359375,-0.18,-0.01,-0.39,0.42
12.97980785369873,-0.35,-0.1,-0.46,0.58
12.989634037017822,-0.51,0.03,-0.49,0.7
13.000043869018555,-0.62,0.2,-0.53,0.83
13.009747982025146,-0.55,0.25,-0.3,0.67
13.01966905593872,-0.37,0.22,-0.13,0.44
13.02980899810791,0.02,0.16,-0.05,0.16
13.039670944213867,0.37,0.15,0.17,0.43
13.07794189453125,0.5,0.09,0.14,0.52
13.079319953918457,0.47,0.0,-0.05,0.47
13.080307006835938,0.37,-0.02,-0.16,0.4
13.096606731414795,0.16,0.08,-0.29,0.34
13.097630977630615,-0.14,0.06,-0.48,0.5
13.112548828125,-0.36,0.13,-0.57,0.68
13.113588809967041,-0.52,0.28,-0.59,0.83
13.129868984222412,-0.58,0.42,-0.68,0.98
13.131324768066406,-0.62,0.53,-0.83,1.16
13.145071029663086,-0.86,0.61,-0.88,1.37
13.177196979522705,-1.17,0.74,-0.91,1.65
13.17909574508667,-1.53,0.98,-1.12,2.13
13.180075883865356,-2.03,1.2,-1.29,2.68
13.196630001068115,-2.66,1.55,-1.63,3.48
13.1977379322052,-3.6,2.04,-2.01,4.6
13.212586879730225,-3.52,2.69,-1.82,4.78
13.213658809661865,-3.17,2.85,-1.77,4.61
13.229819774627686,-3.16,2.93,-1.97,4.73
13.231289863586426,-3.19,3.02,-2.03,4.83
13.245218753814697,-3.33,3.39,-2.12,5.2
13.276227951049805,-3.42,3.87,-2.37,5.68
13.277627944946289,-3.66,4.3,-2.73,6.27
13.278648853302002,-3.97,4.75,-3.15,6.94
13.296669960021973,-4.19,4.99,-3.23,7.27
13.297692775726318,-4.84,5.3,-3.3,7.89
13.31321382522583,-5.64,5.55,-3.67,8.72
13.314642906188965,-5.98,5.08,-3.67,8.66
13.329670906066895,-5.69,4.1,-3.45,7.81
13.331141948699951,-5.37,3.71,-3.73,7.51
13.345200061798096,-4.37,2.94,-3.92,6.56
13.375621795654297,-3.26,2.9,-3.92,5.86
13.376932859420776,-3.05,4.0,-4.33,6.63
13.377914905548096,-3.13,5.68,-4.91,8.13
13.396852016448975,-2.35,8.14,-4.13,9.42
13.397929906845093,0.39,11.42,-2.11,11.61
13.41281795501709,0.58,9.85,-1.62,9.99
13.413851737976074,-1.89,5.44,-2.75,6.38
13.429865837097168,-4.59,3.32,-4.28,7.09
13.431355953216553,-6.08,2.02,-4.76,7.98
13.445525884628296,-6.9,-1.63,-5.39,8.9
13.446996927261353,-5.94,-5.32,-5.25,9.54
13.491017818450928,0.06,-2.78,-2.77,3.92
13.492179870605469,3.11,-0.69,-1.11,3.37
13.49317193031311,-0.6,-1.7,-1.99,2.68
13.51374888420105,-5.27,-2.27,-3.48,6.71
13.514838933944702,-8.67,-2.69,-3.68,9.79
13.529922008514404,-10.12,-3.2,-2.74,10.96
13.53139591217041,-9.95,-3.46,-1.34,10.61
13.546446800231934,-8.78,-3.89,-0.18,9.6
13.547904968261719,-7.31,-4.36,0.42,8.52
13.56232500076294,-6.06,-4.52,0.52,7.57
13.593217849731445,-5.19,-4.43,0.26,6.82
13.594533920288086,-4.62,-4.22,-0.08,6.25
13.595505952835083,-4.27,-4.03,-0.38,5.88
13.613341808319092,-3.96,-4.09,-0.54,5.71
13.614392757415771,-3.77,-4.35,-0.7,5.79
13.629715919494629,-3.64,-4.47,-0.83,5.82
13.630756855010986,-3.58,-4.5,-0.75,5.79
13.645344734191895,-3.8,-4.43,-0.5,5.85
13.646745920181274,-4.44,-3.81,0.15,5.85
13.662173748016357,-5.61,-2.56,1.18,6.27
13.690663814544678,-6.61,-0.75,0.98,6.72
13.692625999450684,-5.53,0.22,-1.22,5.66
13.693733930587769,-2.02,0.62,-3.22,3.85
13.713480949401855,2.26,2.33,-2.76,4.26
13.714509010314941,5.42,4.29,-1.09,6.99
13.729613780975342,5.6,3.69,0.64,6.73
13.730628967285156,4.23,2.73,2.27,5.52
13.746443748474121,4.39,3.59,3.58,6.7
13.747951984405518,5.41,4.85,3.37,8.0
13.762431859970093,6.25,5.42,1.74,8.45
13.79208493232727,7.19,6.12,0.44,9.45
13.79345989227295,9.12,6.84,0.29,11.4
13.794441938400269,8.95,10.18,0.89,13.58
13.814160823822021,8.75,13.97,0.77,16.5
13.815209865570068,15.92,8.25,1.34,17.98
13.82913088798523,17.92,4.71,3.15,18.79
13.830156803131104,15.19,5.1,3.73,16.45
13.8464937210083,14.6,8.15,3.94,17.17
13.84793472290039,15.54,8.95,5.34,18.71
13.862281799316406,14.79,6.28,5.77,17.07
13.88954782485962,9.44,-0.42,1.67,9.59
13.891077041625977,-1.18,-2.64,-2.66,3.92
13.892049789428711,-6.74,2.59,-2.15,7.53
13.894139766693115,-1.5,6.61,3.22,7.5
13.895313739776611,4.19,4.09,4.53,7.4
13.902637958526611,7.61,0.73,3.59,8.44
13.91288685798645,9.73,-3.92,0.03,10.49
13.922729969024658,7.98,-0.61,-0.29,8.0
13.932831764221191,5.81,2.81,2.19,6.81
13.942831039428711,4.14,0.25,1.52,4.41
13.9772310256958,2.68,-1.71,0.92,3.3
13.978213787078857,1.68,-1.14,1.19,2.35
13.979030847549438,1.25,-0.22,1.39,1.88
13.997169017791748,1.01,0.2,1.36,1.7
13.99823784828186,0.46,0.08,0.97,1.07
14.01279878616333,0.09,-0.09,0.29,0.31
14.013851881027222,-0.13,0.04,0.11,0.17
14.029757976531982,-0.06,0.13,0.0,0.14
14.031919956207275,0.09,0.04,-0.4,0.41
14.045336723327637,0.2,-0.06,-0.75,0.77
14.079344749450684,0.42,0.01,-0.8,0.9
14.080760955810547,0.49,0.07,-0.6,0.77
14.081796884536743,0.47,-0.03,-0.7,0.84
14.09728193283081,0.45,-0.06,-0.75,0.87
14.098350048065186,0.5,0.02,-0.58,0.76
14.113105773925781,0.39,0.05,-0.03,0.39
14.114146947860718,0.16,0.18,0.55,0.6
14.130108833312988,-0.19,0.28,0.56,0.65
14.131602764129639,-0.29,0.32,0.16,0.46
14.145620822906494,0.07,0.25,-0.1,0.27
14.179743766784668,0.39,0.09,-0.45,0.6
14.181123733520508,0.37,-0.03,-0.77,0.85
14.18215799331665,0.29,-0.02,-0.78,0.83
14.197386741638184,0.17,0.11,-0.56,0.59
14.198408842086792,-0.02,0.25,-0.55,0.6
14.2132248878479,0.01,0.36,-0.58,0.68
14.214293956756592,0.08,0.34,-0.49,0.6
14.23065996170044,-0.03,0.2,-0.5,0.53
14.232094764709473,-0.11,-0.01,-0.35,0.36
14.24577784538269,-0.25,-0.22,-0.11,0.35
14.250423908233643,-0.25,-0.14,-0.01,0.28
14.29038381576538,-0.02,0.1,-0.11,0.15
14.291557788848877,0.03,0.05,-0.41,0.41
14.292536735534668,-0.18,-0.17,-0.5,0.55
14.313860893249512,-0.18,-0.3,-0.12,0.36
14.31483793258667,-0.07,-0.23,0.22,0.32
14.330166816711426,-0.02,0.07,0.4,0.4
14.331584930419922,0.05,0.32,0.54,0.62
14.347026824951172,-0.01,0.44,0.47,0.64
14.348438739776611,-0.14,0.4,0.11,0.43
14.362721920013428,-0.18,0.29,-0.35,0.48
14.390889883041382,-0.18,0.16,-0.68,0.72
14.392262935638428,-0.32,0.26,-0.92,1.0
14.39323091506958,-0.42,0.48,-1.03,1.21
14.414031028747559,-0.68,0.63,-1.21,1.52
14.415066719055176,-1.18,0.76,-1.3,1.91
14.430081844329834,-1.7,1.11,-1.18,2.34
14.431135892868042,-2.31,1.43,-1.54,3.12
14.44712495803833,-3.12,1.92,-1.44,3.93
14.448569774627686,-3.01,2.21,-1.25,3.93
14.462399005889893,-3.27,2.12,-1.54,4.19
14.490947723388672,-3.68,2.63,-1.85,4.88
14.49233102798462,-3.77,2.97,-2.07,5.22
14.493358850479126,-3.48,3.21,-2.02,5.14
14.513895034790039,-3.14,3.63,-1.89,5.15
14.514883995056152,-3.14,4.23,-1.99,5.63
14.530202865600586,-3.73,4.7,-2.55,6.51
14.531664848327637,-4.31,4.99,-3.18,7.32
14.54696273803711,-4.57,5.09,-3.45,7.66
14.548426866531372,-5.12,5.24,-3.86,8.28
14.562708854675293,-5.9,5.34,-4.36,9.07
14.592681884765625,-6.33,4.86,-4.41,9.11
14.593958854675293,-6.33,4.15,-4.29,8.7
14.59491777420044,-6.07,3.21,-4.39,8.14
14.614035844802856,-4.86,2.58,-4.45,7.07
14.615083932876587,-3.37,2.37,-4.1,5.81
14.630075931549072,-2.99,3.56,-3.91,6.07
14.631451845169067,-3.31,5.53,-4.21,7.69
14.647026062011719,-2.43,8.82,-3.07,9.64
14.648473739624023,0.45,12.25,-1.9,12.4
14.662567853927612,-0.41,9.77,-2.64,10.12
14.692258834838867,-3.33,5.72,-3.86,7.66
14.693662881851196,-5.56,4.3,-4.44,8.31
14.694679737091064,-6.38,2.39,-4.38,8.09
14.713706970214844,-6.69,-1.84,-4.67,8.36
14.714722871780396,-4.9,-4.55,-3.96,7.77
14.730487823486328,1.19,-1.13,-1.64,2.32
14.731998920440674,1.85,-0.1,0.22,1.86
14.746955871582031,-2.74,-1.24,-1.14,3.21
14.748425960540771,-7.26,-1.75,-2.76,7.96
14.762570858001709,-10.04,-2.28,-2.14,10.51
14.792877912521362,-10.55,-2.84,-0.56,10.93
14.794246912002563,-9.49,-3.48,0.92,10.14
14.79527997970581,-7.91,-4.2,1.62,9.1
14.814129829406738,-6.62,-4.68,1.66,8.27
14.815211772918701,-5.84,-4.91,1.41,7.75
14.829975843429565,-5.4,-4.93,1.0,7.38
14.830979824066162,-5.08,-4.85,0.76,7.06
14.846717834472656,-4.78,-4.79,0.76,6.8
14.848082065582275,-4.51,-4.69,0.88,6.56
14.862767934799194,-4.39,-4.6,1.01,6.43
14.891196727752686,-4.61,-4.61,1.18,6.62
14.89265489578247,-5.03,-4.45,1.57,6.89
14.893656730651855,-5.4,-3.98,2.23,7.06
14.914216995239258,-5.46,-3.15,3.04,6.99
14.915251731872559,-5.51,-2.27,2.85,6.6
14.928997039794922,-5.23,-1.35,1.55,5.61
14.93049693107605,-3.95,-0.29,0.23,3.96
14.947032928466797,-1.86,1.01,0.15,2.12
14.948503971099854,0.21,2.16,1.46,2.61
14.962677955627441,1.34,2.09,2.92,3.83
14.992446899414062,2.13,2.67,4.1,5.33
14.993860721588135,3.4,4.01,4.23,6.74
14.994863033294678,5.06,5.43,3.47,8.19
15.014013767242432,6.84,6.49,2.36,9.71
15.01505994796753,8.13,7.26,0.89,10.93
15.030405044555664,9.19,7.39,-0.63,11.8
15.031466960906982,6.51,10.89,-0.89,12.71
15.045325756072998,7.98,15.19,-2.03,17.27
15.046833992004395,19.73,10.97,-3.1,22.78
15.060669898986816,25.7,5.77,-1.38,26.37
15.0621657371521,24.94,5.6,-0.39,25.56
15.104702949523926,23.54,6.55,1.27,24.46
15.105924844741821,22.92,5.23,2.09,23.6
15.107059001922607,15.49,0.68,-1.08,15.54
15.110015869140625,1.06,-1.09,-4.65,4.89
15.130695819854736,-8.65,5.64,-3.07,10.77
15.131752014160156,-6.74,7.53,3.78,10.78
15.14704704284668,-0.09,2.17,4.28,4.79
15.148547887802124,5.71,0.71,2.61,6.31
15.162847995758057,8.78,-2.47,1.08,9.18
15.164323806762695,7.51,-1.89,0.3,7.74
15.20845079421997,5.01,0.66,1.85,5.38
15.209694862365723,3.02,0.15,1.8,3.51
15.210684776306152,1.67,-1.28,1.11,2.37
15.230971813201904,1.2,-1.08,1.02,1.9
15.232431888580322,1.03,-0.21,1.07,1.49
15.247096061706543,0.97,0.27,1.26,1.61
15.248556852340698,0.96,0.1,1.2,1.54
15.264168739318848,0.93,-0.11,0.97,1.34
15.265594959259033,0.61,-0.13,0.62,0.87
15.279501914978027,0.06,-0.07,0.16,0.18
15.309916019439697,-0.22,-0.07,-0.1,0.25
15.311200857162476,-0.24,-0.12,-0.27,0.38
15.312273025512695,-0.1,0.02,-0.46,0.47
15.330986022949219,0.06,0.24,-0.39,0.46
15.33207082748413,0.0,0.34,-0.13,0.36
15.3471839427948,-0.12,0.39,-0.29,0.5
15.348686933517456,0.03,0.2,-0.77,0.79
15.364085912704468,0.19,-0.03,-0.94,0.95
15.365560054779053,0.4,0.08,-1.29,1.35
15.379631996154785,0.61,0.19,-1.23,1.38
15.409469842910767,0.75,0.23,-0.69,1.04
15.410761833190918,0.81,0.11,-0.21,0.84
15.411780834197998,0.52,-0.12,0.08,0.53
15.431059837341309,0.42,-0.21,0.44,0.64
15.432129859924316,0.53,-0.14,1.01,1.14
15.447175025939941,0.4,0.18,0.95,1.04
15.448637962341309,0.12,0.52,0.67,0.85
15.464365005493164,0.01,0.53,-0.06,0.53
15.465788841247559,0.03,0.16,-0.7,0.71
15.479740858078003,0.28,-0.2,-0.99,1.04
15.50907278060913,0.58,-0.31,-0.87,1.09
15.510470867156982,0.49,-0.23,-0.79,0.95
15.511548042297363,0.08,0.01,-0.86,0.86
15.531118869781494,-0.37,0.05,-0.7,0.79
15.53217601776123,-0.65,0.04,-0.36,0.74
15.547436952590942,-0.86,0.08,-0.29,0.91
15.548835754394531,-0.87,0.08,-0.36,0.94
15.56417179107666,-0.56,0.09,-0.26,0.62
15.565618991851807,-0.39,0.04,-0.34,0.51
15.579428911209106,-0.35,-0.03,-0.53,0.63
15.60773491859436,-0.22,-0.04,-0.45,0.5
15.609155893325806,-0.06,0.14,-0.18,0.23
15.610150814056396,-0.04,0.3,-0.21,0.36
15.631342887878418,-0.09,0.37,-0.15,0.4
15.632396936416626,-0.21,0.46,-0.1,0.51
15.647461891174316,-0.35,0.53,-0.37,0.73
15.648982048034668,-0.37,0.59,-0.66,0.95
15.664587020874023,-0.62,0.51,-0.96,1.25
15.666056871414185,-0.86,0.37,-1.28,1.58
15.679707050323486,-0.98,0.3,-1.29,1.64
15.71100902557373,-1.31,0.57,-1.2,1.86
15.712283849716187,-2.05,1.09,-1.39,2.7
15.713305950164795,-2.65,1.41,-1.33,3.28
15.731474876403809,-3.5,1.68,-1.72,4.24
15.732912063598633,-4.13,2.42,-1.81,5.11
15.746111869812012,-3.82,2.94,-1.61,5.08
15.747599840164185,-3.77,3.35,-1.87,5.37
15.764541864395142,-3.57,3.93,-1.86,5.62
15.766002893447876,-3.5,4.37,-1.88,5.9
15.779790878295898,-3.64,4.99,-2.41,6.63
15.811373949050903,-3.99,5.51,-3.38,7.59
15.81269884109497,-4.66,5.81,-4.14,8.52
15.813718795776367,-5.27,6.09,-4.26,9.11
15.831347942352295,-5.77,6.51,-4.2,9.65
15.832754850387573,-6.23,6.21,-4.26,9.77
15.847275733947754,-6.23,5.18,-4.31,9.17
15.848628997802734,-5.62,4.28,-4.4,8.32
15.865354061126709,-4.63,3.45,-4.37,7.24
15.866782903671265,-3.51,3.28,-4.74,6.74
15.879642009735107,-3.52,4.86,-5.59,8.2
15.881079912185669,-3.85,7.04,-6.06,10.05
15.928891897201538,-3.19,9.12,-5.05,10.9
15.930048942565918,0.24,11.77,-1.76,11.9
15.93105697631836,1.42,9.27,-0.75,9.4
15.94802188873291,-0.42,4.52,-2.44,5.15
15.949075937271118,-3.51,2.71,-5.01,6.69
15.964372873306274,-5.81,0.93,-6.35,8.65
15.965851783752441,-6.96,-3.48,-7.0,10.46
15.981061935424805,-4.9,-4.38,-4.94,8.22
15.982548952102661,1.12,-1.74,-1.51,2.56
15.9965238571167,1.35,-2.0,-0.09,2.41
16.028920888900757,-2.33,-3.21,-1.3,4.17
16.030245780944824,-5.49,-3.8,-2.69,7.19
16.031239986419678,-7.21,-4.17,-2.81,8.79
16.047852993011475,-7.76,-4.49,-2.12,9.21
16.048895835876465,-7.7,-4.87,-1.13,9.18
16.0643630027771,-7.36,-5.36,-0.45,9.11
16.065863847732544,-6.95,-5.72,-0.3,9.0
16.081058979034424,-6.59,-5.57,-0.45,8.64
16.08254384994507,-6.2,-5.26,-0.61,8.15
16.09652090072632,-5.83,-4.99,-0.56,7.69
16.126145839691162,-5.56,-4.8,-0.55,7.36
16.127586841583252,-5.17,-4.53,-0.54,6.89
16.12861680984497,-4.82,-4.33,-0.5,6.49
16.147549867630005,-4.62,-4.03,-0.54,6.15
16.14859104156494,-4.7,-3.79,-0.39,6.05
16.163538932800293,-5.05,-3.4,0.09,6.08
16.165035724639893,-5.7,-2.46,0.99,6.28
16.18126106262207,-6.27,-1.07,1.01,6.44
16.182723999023438,-5.51,0.09,-0.43,5.52
16.196523904800415,-3.13,0.39,-2.05,3.76
16.225246906280518,-0.09,0.96,-2.15,2.35
16.226606845855713,2.26,2.21,-0.97,3.3
16.22759199142456,3.14,2.67,-0.12,4.12
16.247890949249268,2.65,2.47,0.77,3.7
16.248939037322998,2.53,3.12,1.49,4.28
16.264662742614746,3.56,4.17,1.8,5.77
16.266156911849976,5.18,5.05,2.16,7.54
16.281256914138794,6.47,5.21,2.0,8.54
16.282702922821045,7.16,5.68,1.15,9.21
16.296559810638428,7.67,6.22,0.41,9.88
16.32496690750122,8.58,6.87,0.43,10.99
16.32633090019226,6.78,14.63,0.78,16.14
16.327369928359985,11.15,12.94,-1.08,17.11
16.348175048828125,19.0,6.04,0.57,19.94
16.349236965179443,19.09,0.87,1.92,19.2
16.364202976226807,16.27,3.47,2.89,16.88
16.365264892578125,16.77,6.2,2.98,18.12
16.38100790977478,18.53,6.95,3.66,20.12
16.382511854171753,18.27,4.26,2.87,18.97
16.396759033203125,10.17,-1.39,-2.49,10.56
16.42446279525757,-2.79,3.19,-4.96,6.52
16.425870895385742,-6.78,11.99,0.41,13.78
16.42688274383545,-1.7,9.53,5.12,10.95
16.447837829589844,3.84,2.34,3.79,5.88
16.448915004730225,8.23,-1.48,1.94,8.58
16.464354038238525,8.0,-3.82,-0.12,8.86
16.4654598236084,5.63,-0.32,1.1,5.74
16.481477737426758,3.71,1.01,2.31,4.48
16.48299789428711,2.57,-0.32,2.13,3.35
16.496710777282715,2.11,-0.82,1.53,2.73
16.525150775909424,1.98,-0.78,1.1,2.39
16.526484966278076,1.59,-0.43,0.84,1.84
16.527466773986816,0.84,0.07,0.7,1.09
16.548125743865967,0.05,0.3,0.55,0.62
16.54917287826538,-0.67,0.09,0.27,0.72
16.564966917037964,-1.01,-0.17,-0.2,1.04
16.56643581390381,-0.82,-0.07,-0.72,1.09
16.581559896469116,-0.38,0.04,-1.0,1.07
16.58302092552185,-0.13,-0.04,-1.2,1.2
16.596871852874756,-0.05,-0.09,-1.53,1.53
16.625186920166016,0.02,0.0,-1.69,1.69
16.626486778259277,0.11,0.03,-1.49,1.49
16.627503871917725,0.03,-0.06,-1.45,1.45
16.648255825042725,0.06,-0.19,-1.2,1.21
16.649322986602783,0.21,-0.21,-0.91,0.95
16.66440200805664,0.22,-0.06,-0.57,0.61
16.66542673110962,-0.06,0.11,-0.36,0.38
16.681351900100708,-0.31,0.12,0.07,0.33
16.682756900787354,-0.32,0.12,0.42,0.54
16.696892738342285,-0.01,0.12,0.57,0.58
16.69820499420166,0.43,0.05,0.64,0.77
16.741461753845215,0.9,0.02,0.51,1.03
16.74261999130249,1.1,0.04,0.23,1.12
16.743602752685547,0.79,-0.01,-0.4,0.88
16.765310764312744,0.25,0.0,-0.68,0.72
16.76642894744873,-0.08,0.05,-0.83,0.83
16.781336784362793,-0.03,-0.05,-0.64,0.64
16.7827787399292,0.01,-0.24,-0.66,0.7
16.78451681137085,-0.05,-0.2,-0.69,0.72
16.785923957824707,-0.03,0.09,-0.23,0.24
16.787131786346436,0.02,0.24,0.02,0.24
16.80640172958374,0.04,0.25,-0.07,0.26
16.80740976333618,0.07,0.2,-0.1,0.23
16.808191776275635,0.09,0.13,-0.16,0.22
16.81019401550293,-0.06,0.15,-0.4,0.43
16.811638832092285,-0.32,0.29,-0.49,0.65
16.82117986679077,-0.47,0.38,-0.45,0.75
16.831100940704346,-0.61,0.37,-0.43,0.83
16.841431856155396,-0.87,0.33,-0.55,1.08
16.851024866104126,-0.9,0.47,-0.5,1.13
16.861000061035156,-0.91,0.57,-0.6,1.23
16.887016773223877,-1.2,0.7,-0.86,1.63
16.888165950775146,-1.48,0.81,-1.03,1.97
16.89012098312378,-1.62,0.87,-1.21,2.2
16.900726795196533,-2.12,1.11,-1.41,2.77
16.910517930984497,-2.66,1.4,-1.87,3.54
16.92047095298767,-2.94,1.63,-2.23,4.03
16.930404901504517,-3.23,2.42,-2.16,4.57
16.940168857574463,-3.68,3.85,-1.9,5.65
16.950067043304443,-3.3,3.89,-2.0,5.47
16.960487842559814,-3.23,3.82,-1.94,5.36
16.98913288116455,-3.64,4.13,-2.38,5.99
16.990298748016357,-3.9,4.56,-2.59,6.53
16.991498947143555,-4.29,5.07,-3.06,7.31
16.999562740325928,-4.93,5.52,-3.78,8.31
17.014834880828857,-5.4,5.66,-3.93,8.75
17.019446849822998,-5.86,5.66,-3.82,8.99
17.03107786178589,-6.35,5.6,-3.9,9.32
17.039625883102417,-6.43,4.9,-3.88,8.96
17.049736976623535,-5.97,4.22,-3.89,8.28
17.059602737426758,-5.22,3.72,-4.25,7.69
17.09520673751831,-4.03,3.56,-4.56,7.05
17.09639072418213,-3.67,4.28,-5.17,7.64
17.097410917282104,-4.06,5.76,-5.65,9.03
17.115378856658936,-3.24,8.02,-5.01,9.99
17.11645793914795,0.61,11.68,-2.49,11.95
17.131117820739746,1.73,10.08,-1.77,10.37
17.132128953933716,-0.7,4.82,-3.06,5.75
17.14799690246582,-3.39,2.61,-4.86,6.47
17.14951992034912,-4.86,0.38,-6.07,7.78
17.163774013519287,-5.51,-4.27,-6.53,9.55
17.195913791656494,-3.32,-5.2,-4.99,7.93
17.197417736053467,2.79,-1.65,-1.94,3.77
17.19844388961792,3.01,-1.68,-0.72,3.52
17.215662002563477,-1.12,-2.87,-2.28,3.83
17.216709852218628,-4.82,-3.35,-3.86,7.02
17.229465007781982,-7.33,-3.63,-3.97,9.09
17.230802059173584,-8.2,-3.86,-3.2,9.61
17.24825096130371,-7.89,-4.12,-1.93,9.1
17.249725818634033,-7.17,-4.58,-0.77,8.54
17.263858795166016,-6.61,-5.22,-0.07,8.42
17.295386791229248,-6.57,-5.47,0.11,8.54
17.297098875045776,-6.8,-5.3,-0.11,8.62
17.29811692237854,-6.75,-4.99,-0.4,8.4
17.315598964691162,-6.36,-4.67,-0.5,7.9
17.31710386276245,-5.87,-4.54,-0.39,7.43
17.331542015075684,-5.49,-4.52,-0.36,7.12
17.333016872406006,-5.28,-4.26,-0.29,6.79
17.34790802001953,-5.2,-4.0,-0.2,6.56
17.349348068237305,-5.0,-3.62,-0.07,6.17
17.363770008087158,-4.98,-3.12,0.09,5.87
17.396094799041748,-5.06,-2.35,0.12,5.58
17.397483825683594,-4.92,-1.46,-0.29,5.14
17.39851474761963,-4.12,-0.75,-1.3,4.38
17.41576886177063,-2.43,-0.09,-2.02,3.16
17.41724395751953,-0.39,0.75,-1.96,2.13
17.43112277984619,1.36,1.63,-1.19,2.43
17.43258285522461,2.84,2.52,-0.16,3.8
17.4478440284729,4.53,3.41,0.71,5.71
17.44930601119995,5.84,3.68,0.96,6.96
17.4631929397583,6.1,4.06,1.27,7.43
17.4663667678833,6.13,5.53,2.26,8.55
17.511571884155273,6.8,6.62,2.52,9.81
17.512765884399414,8.28,7.08,1.82,11.04
17.513787746429443,9.67,8.15,1.26,12.7
17.532832860946655,7.75,15.22,0.53,17.08
17.534379959106445,11.66,13.22,-1.23,17.67
17.548435926437378,19.13,8.31,1.6,20.91
17.549917936325073,18.39,3.89,3.68,19.15
17.564939975738525,14.71,4.15,4.57,15.95
17.566417932510376,13.75,6.44,5.21,16.05
17.580564975738525,14.58,8.26,6.65,18.02
17.611910820007324,14.21,6.46,7.15,17.16
17.613362789154053,7.93,-0.43,2.34,8.27
17.614457845687866,-3.29,-0.73,-1.99,3.91
17.63207483291626,-7.0,5.52,0.2,8.91
17.633136749267578,-0.99,7.54,4.4,8.78
17.648143768310547,2.69,3.04,4.08,5.75
17.649638891220093,5.65,1.61,3.37,6.77
17.665196895599365,8.91,-0.13,1.22,8.99
17.666679859161377,7.89,-0.71,-0.12,7.92
17.680494785308838,4.52,0.77,1.45,4.8
17.711366891860962,2.24,-0.05,1.4,2.64
17.71268892288208,2.02,-0.89,0.8,2.34
17.71372890472412,2.35,-0.69,0.71,2.55
17.732118844985962,2.23,-0.19,0.54,2.3
17.733287811279297,1.73,-0.03,0.41,1.77
17.747925758361816,0.99,-0.06,0.33,1.04
17.74937677383423,0.16,0.05,0.35,0.38
17.764883041381836,-0.57,0.26,0.26,0.67
17.766337871551514,-1.1,0.29,-0.09,1.14
17.780603885650635,-1.24,0.13,-0.39,1.3
17.80864691734314,-0.72,-0.15,-0.31,0.79
17.81070375442505,0.01,-0.17,-0.11,0.2
17.81171488761902,0.5,0.04,-0.39,0.63
17.833645820617676,0.35,0.24,-1.03,1.11
17.834674835205078,0.08,0.31,-0.89,0.94
17.846759796142578,0.08,0.1,-0.83,0.83
17.848148822784424,0.32,0.07,-1.34,1.37
17.865325927734375,0.24,0.0,-1.58,1.59
17.866786003112793,0.04,0.01,-1.3,1.3
17.88074493408203,0.13,-0.09,-0.72,0.73
17.911592960357666,0.29,-0.13,0.4,0.51
17.912921905517578,0.28,0.03,0.98,1.01
17.913930892944336,0.21,0.14,0.59,0.64
17.932520866394043,0.43,-0.03,0.3,0.52
17.933509826660156,0.71,-0.17,0.15,0.74
17.948750972747803,0.74,-0.16,-0.39,0.85
17.950215816497803,0.49,-0.17,-0.9,1.03
17.96499490737915,0.21,-0.17,-0.66,0.71
17.96635890007019,0.04,0.04,-0.49,0.49
17.98074197769165,0.08,0.18,-0.22,0.29
18.0107319355011,-0.09,0.07,0.06,0.12
18.012106895446777,-0.14,-0.01,0.19,0.23
18.013120889663696,-0.09,0.02,0.32,0.33
18.032002925872803,-0.12,0.05,0.26,0.29
18.033024787902832,-0.13,0.14,0.19,0.26
18.048362731933594,-0.19,0.19,0.07,0.27
18.049829959869385,-0.27,0.18,0.0,0.32
18.065320014953613,-0.24,0.26,0.01,0.35
18.066734790802002,-0.24,0.35,-0.26,0.49
18.080700874328613,-0.26,0.38,-0.52,0.69
18.109059810638428,-0.28,0.61,-0.63,0.92
18.11046600341797,-0.48,0.65,-0.87,1.18
18.111454010009766,-0.73,0.56,-1.37,1.65
18.13209104537964,-0.82,0.44,-1.59,1.84
18.13313102722168,-0.79,0.61,-1.47,1.77
18.14860773086548,-0.99,0.9,-1.19,1.79
18.150102853775024,-1.5,1.13,-1.08,2.16
18.16574001312256,-2.25,1.2,-0.99,2.73
18.16720485687256,-3.13,1.13,-0.79,3.42
18.181095838546753,-3.98,1.24,-1.44,4.41
18.20857572555542,-4.83,1.48,-2.78,5.76
18.21000099182129,-4.77,2.48,-2.38,5.87
18.210980892181396,-3.79,3.27,-2.17,5.45
18.213207721710205,-3.2,3.2,-2.33,5.09
18.214563846588135,-3.17,3.46,-1.72,4.99
18.22034788131714,-3.47,3.75,-1.48,5.31
18.230527877807617,-3.96,4.02,-2.07,6.01
18.24056386947632,-4.46,4.33,-2.7,6.77
18.250439882278442,-4.68,4.93,-3.09,7.46
18.260623931884766,-5.07,5.28,-3.7,8.2
18.270229816436768,-5.69,5.47,-3.89,8.79
18.30013084411621,-5.89,5.25,-3.96,8.82
18.301455974578857,-5.69,4.37,-4.05,8.23
18.30242085456848,-4.75,3.48,-4.12,7.18
18.315817832946777,-3.71,3.33,-4.34,6.6
18.319589853286743,-3.9,4.45,-5.27,7.92
18.330604076385498,-4.64,6.72,-6.25,10.28
18.34000587463379,-4.99,8.19,-6.65,11.67
18.349785804748535,-2.68,10.38,-3.73,11.35
18.359878063201904,0.64,11.99,-0.66,12.02
18.369464874267578,0.23,8.47,-0.36,8.48
18.401028871536255,-2.05,5.14,-2.24,5.96
18.40236473083496,-4.08,3.35,-3.84,6.52
18.403378009796143,-5.51,1.15,-4.79,7.39
18.41590690612793,-5.87,-4.37,-5.38,9.08
18.419003009796143,-1.03,-5.16,-3.58,6.36
18.42967700958252,4.12,-1.99,-0.72,4.63
18.4388689994812,0.74,-2.34,-1.06,2.67
18.44908905029297,-4.39,-2.82,-2.8,5.92
18.45893383026123,-7.52,-3.05,-3.22,8.73
18.468780994415283,-8.59,-3.28,-2.25,9.46
18.499374866485596,-8.52,-3.67,-0.91,9.32
18.50066590309143,-7.58,-4.85,0.11,8.99
18.501739978790283,-6.72,-6.25,0.51,9.19
18.516031742095947,-6.56,-6.74,0.37,9.41
18.518177032470703,-6.57,-6.5,-0.06,9.24
18.531922817230225,-6.6,-5.79,-0.32,8.78
18.53816294670105,-6.46,-4.96,-0.34,8.15
18.548696994781494,-6.36,-4.63,-0.36,7.87
18.558305740356445,-6.2,-4.71,-0.52,7.8
18.568291902542114,-6.14,-4.7,-0.59,7.75
18.601152896881104,-6.02,-4.39,-0.27,7.45
18.602558851242065,-5.57,-3.83,0.41,6.77
18.60356903076172,-5.09,-3.28,1.35,6.2
18.61600089073181,-4.86,-2.82,1.98,5.95
18.617270946502686,-4.99,-2.24,1.38,5.64
18.631897926330566,-4.5,-1.2,-0.23,4.66
18.637451887130737,-2.98,-0.12,-1.27,3.24
18.648756980895996,-0.92,1.04,-0.48,1.46
18.65778875350952,1.08,1.52,0.68,1.98
18.667192935943604,2.66,1.8,1.23,3.43
18.70513677597046,3.78,2.73,1.61,4.93
18.706416845321655,4.56,4.22,2.0,6.52
18.707478046417236,5.2,6.15,1.88,8.27
18.711885929107666,6.15,7.9,1.44,10.11
18.732422828674316,7.54,8.62,0.79,11.47
18.7339289188385,7.45,11.64,0.33,13.82
18.747117042541504,6.3,17.95,-0.35,19.02
18.748552799224854,16.35,13.44,-2.67,21.33
18.76179790496826,25.01,8.18,-1.07,26.33
18.766811847686768,25.41,6.65,1.02,26.28
18.805264949798584,21.54,6.25,1.66,22.48
18.806509971618652,18.59,5.13,2.55,19.45
18.807734966278076,15.89,3.3,2.68,16.44
18.814146041870117,9.62,-0.77,-0.42,9.65
18.815900802612305,-0.15,-2.39,-3.64,4.35
18.832211017608643,-5.58,2.11,-2.68,6.53
18.835742950439453,-2.31,6.96,3.46,8.1
18.848886966705322,3.31,4.62,4.68,7.36
18.856201887130737,8.18,-1.64,2.61,8.74
18.86579990386963,8.62,-4.02,0.28,9.51
18.902849912643433,6.2,-0.36,0.89,6.27
18.904181957244873,4.59,1.67,2.51,5.49
18.905248880386353,2.41,-0.1,2.27,3.31
18.915717840194702,0.98,-1.06,2.13,2.57
18.91678476333618,0.4,-0.41,2.07,2.14
18.932109832763672,0.26,-0.03,1.42,1.44
18.9350368976593,0.25,0.01,0.08,0.26
18.948784828186035,0.37,0.03,-0.44,0.57
18.955111026763916,0.7,-0.2,-0.11,0.73
18.965155839920044,0.83,-0.27,-0.55,1.03
19.004013061523438,0.63,-0.06,-1.39,1.52
19.00542402267456,0.39,0.02,-1.38,1.43
19.006443977355957,0.41,0.13,-0.72,0.83
19.015764951705933,0.33,0.26,-0.25,0.48
19.016840934753418,0.13,0.15,-0.23,0.3
19.03214406967163,0.17,0.03,-0.27,0.32
19.034287929534912,0.41,0.05,-0.01,0.41
19.048751831054688,0.48,0.08,0.06,0.49
19.054621934890747,0.39,0.09,0.18,0.43
19.064940929412842,0.31,0.15,0.39,0.52
19.074349880218506,0.14,0.27,0.27,0.4
19.10666584968567,0.0,0.28,-0.34,0.44
19.10788106918335,0.12,0.05,-0.8,0.81
19.109057903289795,0.43,-0.14,-0.7,0.83
19.113658905029297,0.78,-0.18,0.03,0.8
19.13229489326477,0.81,-0.12,0.05,0.82
19.133377075195312,0.48,0.09,-0.2,0.52
19.148911952972412,0.16,0.16,-0.11,0.25
19.153689861297607,0.07,0.04,0.14,0.16
19.16459083557129,0.18,-0.16,0.16,0.28
19.173678874969482,0.35,-0.26,0.13,0.45
19.205487728118896,0.37,-0.08,0.13,0.4
19.206617832183838,0.29,0.06,-0.09,0.3
19.207854747772217,0.2,0.12,-0.07,0.24
19.21295404434204,0.11,0.28,-0.08,0.31
19.222973823547363,0.12,0.34,-0.35,0.5
19.23285675048828,0.05,0.3,-0.61,0.68
19.242759943008423,-0.03,0.22,-0.67,0.7
19.252644062042236,-0.06,0.24,-0.69,0.73
19.262983798980713,-0.09,0.37,-0.81,0.89
19.27281379699707,-0.12,0.41,-0.76,0.87
19.304951906204224,-0.39,0.47,-0.78,0.99
19.306292057037354,-0.84,0.59,-1.17,1.55
19.307381868362427,-1.31,0.57,-1.59,2.13
19.313354969024658,-1.66,0.51,-2.03,2.67
19.322389841079712,-1.92,0.74,-2.15,2.97
19.332324981689453,-1.82,0.97,-1.85,2.77
19.342212915420532,-1.99,1.12,-1.65,2.81
19.352426052093506,-2.39,1.26,-1.51,3.09
19.362375736236572,-3.15,1.56,-1.17,3.7
19.372159957885742,-4.38,2.03,-1.05,4.94
19.403532028198242,-4.84,2.46,-1.05,5.52
19.40484094619751,-4.53,2.8,-0.97,5.41
19.40587282180786,-4.04,3.34,-0.72,5.29
19.41665291786194,-3.83,3.75,-0.87,5.43
19.421363830566406,-3.83,4.07,-1.08,5.69
19.431625843048096,-4.02,4.35,-1.32,6.06
19.44139289855957,-4.17,4.8,-1.93,6.64
19.45174288749695,-4.35,5.3,-2.64,7.34
19.461610794067383,-4.81,5.94,-3.5,8.4
19.47149896621704,-5.58,6.26,-4.41,9.47
19.508517742156982,-6.27,6.3,-4.83,10.11
19.50991988182068,-6.42,6.03,-5.08,10.16
19.510902881622314,-5.86,5.43,-5.3,9.58
19.51325273513794,-4.77,4.79,-5.73,8.86
19.520930767059326,-3.63,4.62,-6.1,8.46
19.530855894088745,-2.98,4.74,-6.55,8.61
19.540771007537842,-3.15,5.93,-6.41,9.28
19.550705909729004,-2.13,8.11,-4.56,9.54
19.56083393096924,2.0,12.75,-1.35,12.97
19.57073974609375,2.27,11.39,-1.58,11.72
19.606765747070312,-1.34,5.78,-3.86,7.07
19.60816478729248,-4.67,2.66,-4.88,7.25
19.609158992767334,-6.55,-1.38,-5.73,8.81
19.61223292350769,-6.43,-5.5,-5.71,10.2
19.632489919662476,0.19,-2.35,-2.08,3.14
19.63354992866516,3.84,-0.17,0.59,3.88
19.648945808410645,-0.08,-1.43,-1.03,1.76
19.650424003601074,-4.76,-1.69,-3.17,5.96
19.66488790512085,-7.93,-2.11,-3.18,8.8
19.669883728027344,-9.09,-2.61,-2.08,9.68
19.707576751708984,-8.84,-3.01,-0.83,9.37
19.708751916885376,-7.9,-3.92,0.36,8.82
19.709959030151367,-6.98,-5.17,1.0,8.74
19.71210479736328,-6.52,-5.79,1.08,8.78
19.732383728027344,-6.44,-5.72,0.76,8.64
19.733434915542603,-6.41,-5.45,0.33,8.42
19.74914789199829,-6.2,-5.31,-0.03,8.16
19.750548839569092,-5.81,-5.31,-0.22,7.87
19.764803886413574,-5.41,-5.29,-0.24,7.57
19.768988847732544,-5.11,-5.28,-0.29,7.35
19.809237957000732,-4.89,-5.21,-0.42,7.15
19.810410022735596,-4.77,-4.99,-0.51,6.92
19.81142807006836,-4.72,-4.51,-0.32,6.53
19.83338189125061,-4.74,-3.94,0.22,6.16
19.83444881439209,-4.87,-3.08,0.74,5.8
19.848866939544678,-4.71,-1.99,0.4,5.12
19.849901914596558,-3.76,-1.31,-0.93,4.08
19.866294860839844,-2.13,-0.65,-1.88,2.91
19.867759943008423,-0.34,0.16,-1.52,1.56
19.881414890289307,1.15,0.87,-0.44,1.5
19.88294291496277,2.03,1.38,0.65,2.53
19.92668390274048,2.92,2.4,1.59,4.1
19.92781686782837,3.63,3.38,1.94,5.32
19.928842067718506,4.06,4.75,2.05,6.57
19.949455738067627,4.53,6.49,1.73,8.1
19.950507879257202,5.42,7.7,0.65,9.43
19.965457916259766,7.31,8.4,-0.39,11.14
19.96696901321411,9.7,9.37,-1.01,13.52
19.98302984237671,8.74,16.13,-1.5,18.4
19.98451590538025,13.37,14.36,-4.29,20.08
19.99812602996826,20.66,8.56,-2.41,22.49
20.02953004837036,19.62,5.22,1.38,20.34
20.030961990356445,15.86,6.39,3.7,17.49
20.031945943832397,13.73,7.5,4.97,16.41
20.04962992668152,11.89,6.9,6.63,15.26
20.050705909729004,9.3,5.45,8.2,13.54
20.0662260055542,5.35,1.24,6.34,8.38
20.0676908493042,-2.15,-3.46,1.63,4.38
20.082807064056396,-7.18,-4.5,-0.97,8.52
20.084259033203125,-2.96,-0.73,-0.34,3.06
20.098169803619385,3.08,4.54,0.86,5.55
20.127647876739502,8.74,7.07,1.83,11.38
20.129052877426147,13.01,1.07,0.25,13.05
20.130079746246338,10.22,2.03,-0.41,10.42
20.149353981018066,6.11,3.02,0.88,6.87
20.150421857833862,2.98,-0.73,1.34,3.34
20.165942907333374,2.3,-2.67,1.57,3.85
20.16722583770752,2.92,-1.99,1.65,3.89
20.182950019836426,2.94,-0.58,1.53,3.36
20.18437385559082,2.08,-0.03,2.1,2.95
20.198237895965576,0.8,-0.46,2.89,3.03
20.226255893707275,-0.35,-0.38,2.56,2.61
20.227624893188477,-1.23,0.0,0.83,1.48
20.228632926940918,-1.17,0.09,-0.18,1.18
20.24964690208435,-0.24,0.17,-0.58,0.65
20.25073790550232,0.56,0.2,-0.9,1.07
20.26616382598877,0.58,0.34,-0.99,1.19
20.26723289489746,-0.08,0.31,-1.31,1.34
20.28298592567444,-0.43,0.18,-1.54,1.6
20.284420013427734,0.08,0.05,-1.74,1.74
20.297959804534912,1.01,-0.06,-2.0,2.24
20.326426029205322,1.41,-0.07,-1.58,2.11
20.327704906463623,0.76,-0.05,-0.34,0.83
20.328521728515625,-0.55,0.16,0.77,0.95
20.349854946136475,-1.66,0.5,1.14,2.07
20.35090684890747,-1.99,0.66,0.89,2.27
20.365921020507812,-1.38,0.38,0.19,1.44
20.36695885658264,-0.07,0.07,-0.41,0.42
20.38314390182495,1.08,-0.12,-0.61,1.24
20.384767055511475,1.53,-0.23,-0.42,1.6
20.398648738861084,1.37,-0.17,-0.51,1.47
20.425371885299683,0.88,-0.09,-0.58,1.05
20.426729917526245,0.39,-0.03,-0.32,0.5
20.42769193649292,0.17,0.0,0.13,0.21
20.429725885391235,0.07,-0.1,0.52,0.53
20.43087100982666,-0.01,-0.11,0.44,0.45
20.43373203277588,-0.04,-0.11,0.12,0.16
20.443862915039062,0.05,-0.17,0.05,0.18
20.453643798828125,0.27,-0.13,0.0,0.29
20.463823795318604,0.5,-0.09,-0.16,0.53
20.473755836486816,0.69,-0.06,-0.17,0.71
20.506595849990845,0.77,0.06,-0.22,0.8
20.507983922958374,0.65,0.08,-0.3,0.72
20.50896978378296,0.41,0.07,-0.33,0.53
20.51314401626587,0.14,0.14,-0.28,0.34
20.532643795013428,-0.1,0.25,-0.43,0.5
20.533686876296997,-0.32,0.29,-0.54,0.69
20.549190998077393,-0.54,0.37,-0.58,0.87
20.552904844284058,-0.7,0.56,-0.75,1.16
20.563591957092285,-0.9,0.65,-1.42,1.8
20.573219776153564,-1.36,0.55,-2.11,2.56
20.610312938690186,-1.83,0.38,-2.17,2.86
20.611445903778076,-2.25,0.41,-1.84,2.93
20.612410068511963,-2.83,0.78,-1.76,3.42
20.633461952209473,-3.24,1.28,-1.68,3.86
20.634544849395752,-3.31,1.63,-1.81,4.1
20.649715900421143,-3.45,1.7,-2.39,4.52
20.651229858398438,-3.94,1.97,-3.03,5.34
20.665611743927002,-4.6,3.48,-2.75,6.39
20.667068004608154,-4.08,4.87,-1.55,6.53
20.68194890022278,-3.59,5.09,-1.5,6.4
20.6834077835083,-3.6,5.49,-1.88,6.82
20.728111743927002,-3.81,5.63,-2.2,7.14
20.729328870773315,-3.97,5.62,-2.58,7.34
20.730334758758545,-4.15,5.6,-2.63,7.44
20.750179767608643,-4.43,5.27,-2.29,7.25
20.751661777496338,-4.56,4.6,-2.41,6.91
20.766310930252075,-5.03,4.17,-2.76,7.09
20.767777919769287,-5.09,3.56,-2.88,6.84
20.78408694267273,-4.16,2.47,-3.21,5.8
20.78565287590027,-3.24,2.4,-3.75,5.5
20.79886794090271,-2.74,3.05,-4.75,6.27
20.829215049743652,-3.4,4.8,-5.58,8.1
20.830641746520996,-4.6,6.52,-6.01,9.98
20.831681728363037,-4.11,7.74,-4.31,9.76
20.85011577606201,0.14,10.68,-0.66,10.7
20.85118579864502,1.86,9.81,-0.71,10.0
20.86613392829895,-0.62,5.47,-3.06,6.29
20.867625951766968,-3.78,2.93,-4.59,6.62
20.883121967315674,-5.56,1.08,-4.72,7.37
20.884646892547607,-6.68,-2.48,-5.24,8.84
20.897321939468384,-6.12,-5.61,-4.84,9.61
20.927546977996826,-0.24,-3.29,-2.46,4.11
20.928932905197144,3.72,-1.74,-0.53,4.14
20.929965019226074,0.89,-2.87,-0.89,3.13
20.949713945388794,-3.51,-3.64,-2.6,5.68
20.950779914855957,-6.87,-3.98,-3.17,8.54
20.966563940048218,-8.6,-4.29,-2.42,9.91
20.968029022216797,-8.71,-4.23,-1.3,9.76
20.983099937438965,-7.72,-4.34,-0.27,8.86
20.98462200164795,-6.55,-5.08,0.32,8.29
20.998775959014893,-5.73,-5.75,0.36,8.12
21.028995037078857,-5.54,-5.69,0.08,7.94
21.030305862426758,-5.56,-5.4,-0.35,7.75
21.031327724456787,-5.48,-5.01,-0.65,7.45
21.049747943878174,-5.22,-4.63,-0.8,7.02
21.050822734832764,-4.82,-4.21,-0.86,6.45
21.066733837127686,-4.27,-3.77,-0.88,5.76
21.068220853805542,-3.95,-3.46,-0.6,5.28
21.083220958709717,-4.16,-3.01,0.13,5.13
21.08466100692749,-4.84,-2.3,0.85,5.42
21.098642826080322,-5.29,-1.3,0.52,5.47
21.128527879714966,-4.55,-0.33,-0.74,4.62
21.12987995147705,-2.86,0.29,-2.17,3.6
21.130902767181396,-0.85,1.49,-2.37,2.92
21.149744033813477,0.62,2.7,-1.31,3.06
21.150752067565918,1.48,2.98,-0.12,3.32
21.16552972793579,1.94,2.97,1.12,3.72
21.166940927505493,2.35,3.29,1.86,4.45
21.183516025543213,2.52,3.75,2.04,4.95
21.18489980697632,2.82,4.75,2.24,5.96
21.1993088722229,3.87,5.91,2.17,7.39
21.228339910507202,5.75,6.3,1.59,8.67
21.229703903198242,7.99,6.16,1.0,10.13
21.230692863464355,9.53,5.95,0.51,11.24
21.250062942504883,9.53,6.0,-0.21,11.26
21.25105905532837,7.06,13.83,0.41,15.53
21.26629400253296,11.91,10.39,-1.18,15.84
21.267305850982666,17.58,6.2,0.88,18.66
21.28341007232666,16.36,2.57,2.62,16.76
21.284870862960815,13.17,1.52,3.02,13.59
21.29912495613098,11.21,3.53,3.8,12.35
21.329460859298706,11.09,6.2,4.4,13.44
21.33073592185974,11.07,7.04,4.57,13.89
21.331753730773926,8.22,2.95,2.31,9.03
21.350045919418335,0.61,-0.71,-1.11,1.45
21.351099014282227,-5.39,-1.08,-2.52,6.04
21.366429805755615,-3.46,0.21,-0.8,3.55
21.367883920669556,2.85,1.04,0.38,3.05
21.383489847183228,5.21,1.71,1.38,5.65
21.384925842285156,6.87,2.29,1.49,7.39
21.398777961730957,8.66,-1.71,-0.62,8.84
21.430068016052246,6.49,-0.64,-1.03,6.6
21.431364059448242,5.76,0.91,0.86,5.89
21.432381868362427,5.34,0.36,2.28,5.81
21.450236797332764,3.74,-0.89,2.89,4.8
21.45128583908081,1.86,-1.17,3.3,3.96
21.466954946517944,-0.01,-0.81,2.38,2.51
21.4683837890625,-0.64,0.39,0.92,1.18
21.48245096206665,-0.1,0.75,1.01,1.26
21.48386001586914,0.6,0.04,1.61,1.71
21.49904489517212,1.02,-0.33,1.38,1.74
21.500537872314453,0.76,-0.29,0.53,0.97
21.544490814208984,0.4,-0.17,-0.26,0.5
21.545655727386475,0.55,-0.09,-0.65,0.85
21.54670476913452,0.9,-0.01,-0.98,1.33
21.56716775894165,0.7,0.07,-1.36,1.53
21.56818675994873,0.3,0.1,-1.25,1.28
21.583432912826538,0.18,0.09,-0.56,0.59
21.584917068481445,0.16,0.15,-0.06,0.22
21.599970817565918,0.13,0.15,0.11,0.22
21.601179838180542,0.18,0.05,-0.09,0.2
21.615309953689575,0.37,0.09,-0.2,0.43
21.64793086051941,0.47,0.17,-0.16,0.52
21.649213790893555,0.29,0.15,-0.44,0.54
21.65019702911377,0.11,0.15,-0.59,0.61
21.667459964752197,0.19,0.21,-0.21,0.35
21.66893196105957,0.25,0.11,0.03,0.27
21.683507919311523,0.31,-0.05,0.11,0.33
21.684979915618896,0.28,0.07,0.22,0.36
21.70034885406494,0.2,0.19,-0.04,0.27
21.701788902282715,0.09,0.2,-0.43,0.48
21.71555995941162,0.01,0.12,-0.44,0.45
21.74492597579956,0.03,-0.06,-0.39,0.39
21.74625587463379,-0.02,-0.35,-0.28,0.44
21.747276782989502,-0.2,-0.36,-0.09,0.42
21.768823862075806,-0.15,-0.08,-0.04,0.17
21.76986074447632,0.13,0.27,-0.1,0.31
21.783199787139893,0.31,0.31,-0.09,0.44
21.784689903259277,0.22,0.15,-0.21,0.33
21.799701929092407,0.05,0.09,-0.24,0.26
21.801140785217285,-0.03,0.1,-0.17,0.19
21.815523862838745,-0.07,0.23,-0.37,0.44
21.844258785247803,-0.15,0.4,-0.54,0.68
21.845684051513672,-0.32,0.52,-0.55,0.82
21.846673011779785,-0.57,0.54,-0.71,1.05
21.86729884147644,-0.94,0.49,-0.98,1.44
21.868340969085693,-1.25,0.45,-1.28,1.84
21.88378381729126,-1.38,0.33,-1.6,2.13
21.885243892669678,-1.33,0.23,-1.81,2.25
21.900460720062256,-1.38,0.46,-1.82,2.32
21.901862859725952,-1.69,0.56,-1.82,2.54
21.915823936462402,-2.21,0.79,-1.73,2.91
21.946541786193848,-2.71,1.29,-1.44,3.32
21.948030948638916,-3.01,2.2,-1.33,3.95
21.94905996322632,-3.34,3.15,-0.91,4.68
21.967200756072998,-3.17,3.26,-0.45,4.56
21.968241930007935,-3.08,3.23,-0.34,4.47
21.98367190361023,-3.26,3.31,-0.31,4.65
21.98514175415039,-3.45,3.25,-0.64,4.78
22.00053596496582,-3.62,3.43,-1.28,5.14
22.00200891494751,-3.66,4.02,-2.04,5.8
22.015597820281982,-3.79,4.51,-2.96,6.59
22.046446800231934,-4.14,4.75,-3.86,7.38
22.04782485961914,-4.42,4.92,-4.37,7.92
22.048856735229492,-4.78,4.9,-4.76,8.33
22.06808090209961,-5.25,4.91,-4.92,8.71
22.06955099105835,-5.3,4.83,-4.52,8.47
22.083468914031982,-5.04,4.41,-4.27,7.94
22.08492684364319,-4.49,3.8,-4.43,7.36
22.100427865982056,-3.57,3.34,-4.71,6.78
22.10188388824463,-3.17,3.74,-5.28,7.2
22.115907907485962,-4.42,5.6,-5.73,9.15
22.14657688140869,-4.86,7.43,-5.37,10.37
22.147939920425415,-1.7,10.34,-2.23,10.71
22.148948907852173,2.35,12.12,-0.72,12.36
22.167954921722412,1.0,7.99,-2.49,8.42
22.169456005096436,-2.72,4.3,-4.71,6.93
22.184298992156982,-5.46,2.06,-5.14,7.77
22.185763835906982,-6.98,-1.95,-5.68,9.2
22.200016975402832,-6.99,-5.51,-5.41,10.41
22.201509952545166,-1.23,-3.19,-2.53,4.25
22.21585488319397,4.23,-0.72,0.05,4.29
22.2457058429718,1.91,-1.89,-0.06,2.68
22.246978759765625,-2.8,-2.9,-2.32,4.65
22.247966766357422,-6.53,-3.35,-3.32,8.05
22.26749587059021,-8.6,-3.91,-2.67,9.81
22.268558979034424,-9.0,-4.27,-1.4,10.05
22.2839138507843,-8.13,-4.57,-0.25,9.32
22.285420894622803,-6.88,-5.11,0.57,8.58
22.300703048706055,-5.78,-5.41,1.0,7.97
22.302212953567505,-4.92,-5.3,0.92,7.28
22.315846920013428,-4.33,-5.13,0.6,6.73
22.317340850830078,-4.03,-4.87,0.48,6.33
22.363239765167236,-4.04,-4.75,0.5,6.25
22.364381790161133,-4.36,-4.78,0.59,6.49
22.36536979675293,-5.04,-4.76,0.5,6.95
22.384387969970703,-5.84,-4.47,0.55,7.37
22.3854238986969,-6.53,-3.88,0.89,7.64
22.400596857070923,-6.95,-2.96,1.22,7.65
22.40200185775757,-7.01,-1.68,1.22,7.31
22.41715097427368,-6.73,-0.41,0.48,6.75
22.418640851974487,-5.53,0.53,-0.67,5.59
22.432596921920776,-3.44,1.12,-1.47,3.9
22.462876796722412,-0.95,1.74,-0.9,2.17
22.464152812957764,1.32,2.39,0.67,2.81
22.46517276763916,2.65,2.36,1.65,3.91
22.484068870544434,3.27,2.37,1.59,4.34
22.485113859176636,3.97,3.06,1.12,5.13
22.500398874282837,4.75,3.98,0.9,6.26
22.50184679031372,5.26,4.46,0.42,6.9
22.517573833465576,5.4,4.51,0.26,7.04
22.51899790763855,6.47,4.37,0.84,7.85
22.53296685218811,8.39,3.87,1.6,9.37
22.564427852630615,9.52,3.05,2.06,10.2
22.565712928771973,9.58,2.9,2.44,10.3
22.56673002243042,6.97,7.72,2.75,10.75
22.58430290222168,5.59,11.37,1.97,12.82
22.58536672592163,11.86,6.75,0.68,13.66
22.600629806518555,16.4,4.68,0.55,17.06
22.602110862731934,16.63,5.85,0.87,17.65
22.6159930229187,16.33,8.15,1.82,18.34
22.61748194694519,17.38,8.65,3.74,19.77
22.632802963256836,14.83,4.07,2.88,15.64
22.661553859710693,4.82,-1.35,-1.91,5.35
22.662925720214844,-5.84,0.09,-4.2,7.19
22.663928031921387,-7.8,5.28,-0.32,9.42
22.683937072753906,-1.37,5.96,3.8,7.19
22.68498992919922,3.97,1.39,2.59,4.93
22.700684070587158,7.64,-0.8,2.12,7.96
22.702131748199463,8.85,-1.34,1.52,9.07
22.717171907424927,7.05,0.39,2.34,7.43
22.71860980987549,4.7,-0.76,3.08,5.67
22.733067989349365,2.26,-1.94,2.71,4.02
22.76273488998413,1.14,-1.54,2.86,3.44
22.764134883880615,1.16,-0.9,2.34,2.76
22.76514482498169,1.07,-0.09,1.33,1.7
22.784114837646484,0.85,0.65,0.56,1.2
22.785205841064453,0.93,0.68,0.13,1.15
22.800246953964233,1.06,0.08,-0.36,1.12
22.801286935806274,0.75,-0.28,-0.91,1.21
22.817489862442017,0.23,-0.23,-1.0,1.05
22.818971872329712,-0.11,0.01,-0.95,0.95
22.832982063293457,-0.17,0.09,-0.99,1.0
22.861559867858887,0.19,0.12,-0.84,0.86
22.86301279067993,0.32,0.26,-0.95,1.03
22.86402988433838,0.35,0.12,-1.0,1.06
22.884443759918213,0.7,0.04,-0.54,0.88
22.88548183441162,0.83,0.16,-0.12,0.85
22.900836944580078,0.61,0.21,0.19,0.67
22.902320861816406,0.65,0.18,0.55,0.87
22.917404890060425,0.6,0.08,0.58,0.83
22.91886281967163,0.43,-0.04,0.26,0.5
22.933297872543335,0.47,0.04,0.09,0.48
22.96177577972412,0.8,0.0,-0.01,0.8
22.963050842285156,1.01,-0.15,-0.01,1.02
22.96401882171631,0.96,-0.06,-0.21,0.98
22.984952926635742,0.81,-0.05,-0.49,0.94
22.985990047454834,0.6,0.0,-0.5,0.78
23.000382900238037,0.32,0.07,-0.37,0.49
23.001415729522705,-0.07,0.16,-0.39,0.42
23.017704010009766,-0.45,0.1,-0.48,0.66
23.019202947616577,-0.77,-0.01,-0.52,0.92
23.033079862594604,-0.97,-0.04,-0.65,1.16
23.062970876693726,-1.14,-0.01,-0.84,1.41
23.064352989196777,-1.26,0.09,-0.8,1.49
23.06534695625305,-1.12,0.27,-0.75,1.37
23.08437991142273,-0.6,0.26,-0.41,0.77
23.085447788238525,-0.14,0.28,-0.18,0.36
23.10072088241577,-0.04,0.37,-0.11,0.38
23.102121829986572,-0.13,0.47,0.02,0.48
23.11741590499878,-0.11,0.51,0.18,0.55
23.118881940841675,-0.13,0.48,0.27,0.56
23.133223056793213,-0.33,0.43,0.21,0.58
23.13465404510498,-0.6,0.35,-0.01,0.69
23.179763793945312,-0.77,0.24,-0.24,0.84
23.18088674545288,-0.78,0.22,-0.55,0.97
23.181891918182373,-0.54,0.26,-0.68,0.9
23.201632976531982,-0.39,0.39,-0.57,0.79
23.203136920928955,-0.41,0.59,-0.75,1.03
23.21763801574707,-0.56,0.76,-1.16,1.49
23.219128847122192,-1.17,1.0,-1.61,2.22
23.234134912490845,-1.38,1.62,-1.41,2.55
23.235590934753418,-1.7,1.76,-1.36,2.79
23.2494797706604,-2.28,1.76,-1.26,3.14
23.27957582473755,-2.8,1.85,-1.21,3.56
23.280937910079956,-3.1,2.1,-1.22,3.93
23.28191375732422,-2.97,2.45,-1.09,4.0
23.301334857940674,-2.54,2.65,-1.01,3.8
23.302334785461426,-2.33,2.68,-0.93,3.67
23.31746196746826,-2.58,2.72,-1.16,3.92
23.318939924240112,-2.99,3.12,-1.68,4.63
23.33433198928833,-3.29,3.74,-2.53,5.58
23.335776805877686,-3.54,4.33,-3.34,6.51
23.349740028381348,-3.98,4.66,-3.72,7.16
23.379838943481445,-4.45,4.78,-3.89,7.6
23.381170749664307,-5.04,4.81,-4.0,8.03
23.382168769836426,-5.49,4.62,-3.89,8.16
23.401156902313232,-5.42,4.12,-3.6,7.7
23.40220284461975,-4.95,3.87,-3.77,7.32
23.41761088371277,-3.96,3.18,-4.2,6.59
23.419076919555664,-3.15,2.99,-4.92,6.56
23.43431806564331,-3.82,5.0,-5.39,8.28
23.43574094772339,-4.47,7.2,-5.49,10.09
23.449676990509033,-3.52,9.39,-4.21,10.87
23.478309869766235,0.57,12.72,-0.77,12.75
23.48035478591919,1.79,10.62,-0.72,10.79
23.481364727020264,-0.71,5.91,-3.2,6.75
23.501372814178467,-3.86,4.25,-5.18,7.73
23.502445936203003,-5.83,2.35,-5.61,8.42
23.517759799957275,-6.79,-1.96,-5.83,9.16
23.519206047058105,-4.68,-4.77,-4.84,8.25
23.53461194038391,2.52,-1.63,-1.64,3.42
23.536032915115356,4.58,-0.49,0.01,4.6
23.549733877182007,0.15,-1.79,-2.23,2.86
23.581081867218018,-4.66,-2.11,-4.18,6.6
23.582331895828247,-7.52,-2.47,-4.18,8.95
23.583295822143555,-8.41,-3.02,-2.99,9.42
23.601905822753906,-8.07,-3.59,-1.58,8.97
23.602949857711792,-7.41,-4.17,-0.31,8.5
23.617592811584473,-6.9,-4.84,0.52,8.44
23.61912775039673,-6.8,-5.3,0.64,8.64
23.634368896484375,-6.8,-5.33,0.45,8.65
23.635762929916382,-6.73,-5.23,0.42,8.53
23.649548053741455,-6.43,-5.12,0.52,8.23
23.67805790901184,-6.05,-5.0,0.67,7.87
23.679529905319214,-5.85,-4.82,0.82,7.62
23.68053674697876,-5.92,-4.36,0.88,7.4
23.701076984405518,-6.23,-3.9,0.88,7.4
23.70198106765747,-6.63,-3.39,0.98,7.51
23.717299938201904,-6.89,-2.64,0.79,7.42
23.71837592124939,-6.7,-1.69,0.34,6.91
23.735705852508545,-5.66,-0.76,-0.18,5.71
23.73714303970337,-3.47,-0.14,-0.54,3.51
23.74813485145569,-0.66,0.53,-0.22,0.87
23.778647899627686,1.35,1.32,0.35,1.92
23.77997398376465,1.99,1.58,0.58,2.6
23.780941009521484,2.0,1.7,0.57,2.68
23.80057382583618,2.5,2.51,0.59,3.59
23.801598072052002,3.84,3.6,0.77,5.31
23.818339824676514,5.86,4.43,0.79,7.38
23.819822788238525,7.56,4.95,0.5,9.05
23.834557056427002,8.55,5.48,0.29,10.15
23.836031913757324,9.45,5.92,0.23,11.15
23.84990692138672,10.52,6.27,0.09,12.24
23.880509853363037,10.43,7.42,0.02,12.8
23.881922721862793,6.4,12.67,-0.14,14.19
23.882948875427246,10.67,9.66,-0.55,14.4
23.901296854019165,16.61,7.41,2.57,18.36
23.902381896972656,17.99,5.89,5.0,19.57
23.917895793914795,16.51,5.07,6.07,18.3
23.91934585571289,15.13,4.61,7.16,17.36
23.93460702896118,14.48,3.0,6.94,16.33
23.936084747314453,11.71,-1.31,2.37,12.01
23.949880838394165,2.69,-3.5,-3.87,5.87
23.951355934143066,-4.15,3.6,-4.38,7.02
23.996095895767212,-1.82,11.39,2.17,11.73
23.997285842895508,4.64,9.05,5.49,11.55
23.998307943344116,8.67,-0.37,2.97,9.17
24.01826572418213,7.24,-4.63,-0.61,8.61
24.019309997558594,4.04,-2.3,-0.49,4.67
24.034555912017822,3.19,0.04,0.64,3.25
24.036043882369995,3.22,-0.31,0.7,3.3
24.050615787506104,3.14,-0.2,1.43,3.45
24.052090883255005,2.69,0.18,2.21,3.48
24.06678295135498,1.46,-0.2,2.02,2.5
24.09821605682373,-0.26,-0.75,1.51,1.7
24.09958791732788,-0.79,-0.39,1.49,1.73
24.100671768188477,-0.74,0.1,1.25,1.45
24.118109941482544,-0.98,0.08,0.36,1.04
24.119144916534424,-1.03,-0.04,-0.36,1.09
24.134805917739868,-0.66,0.11,-0.48,0.82
24.136291980743408,-0.12,0.35,-0.57,0.67
24.151272773742676,0.31,0.23,-0.82,0.9
24.15272092819214,0.34,0.06,-0.96,1.02
24.166831970214844,0.27,0.01,-1.15,1.18
24.19621706008911,0.54,-0.1,-1.18,1.3
24.197568893432617,0.81,-0.13,-1.17,1.42
24.198567867279053,0.63,0.14,-0.95,1.14
24.218496799468994,0.2,0.44,-0.34,0.59
24.219566822052002,-0.21,0.42,0.16,0.49
24.234932899475098,-0.53,0.23,0.41,0.7
24.236416816711426,-0.44,0.26,0.47,0.69
24.25113296508789,-0.11,0.12,0.35,0.38
24.252542972564697,0.35,-0.05,0.1,0.36
24.266682863235474,0.76,-0.09,-0.31,0.82
24.295794010162354,0.92,-0.1,-0.71,1.16
24.297212839126587,0.8,-0.15,-0.72,1.08
24.298213005065918,0.53,-0.08,-0.44,0.69
24.318174839019775,0.23,0.06,-0.25,0.34
24.3191819190979,0.1,-0.02,-0.21,0.23
24.334458827972412,0.08,-0.11,-0.06,0.14
24.33548879623413,0.06,-0.05,0.16,0.17
24.35149383544922,0.0,-0.06,0.23,0.23
24.35293197631836,0.0,-0.08,0.21,0.22
24.366759777069092,0.13,-0.01,-0.01,0.13
24.393833875656128,0.12,0.06,-0.24,0.27
24.395206928253174,0.12,0.15,-0.33,0.38
24.39613103866577,0.08,0.12,-0.48,0.5
24.398334980010986,-0.11,0.05,-0.61,0.62
24.399884939193726,-0.17,0.08,-0.55,0.58
24.40126895904541,-0.16,0.28,-0.41,0.52
24.40267276763916,-0.33,0.43,-0.36,0.65
24.40422773361206,-0.47,0.54,-0.39,0.81
24.40541696548462,-0.59,0.49,-0.51,0.92
24.406583786010742,-0.79,0.32,-0.87,1.21
24.425600051879883,-0.94,0.21,-1.18,1.52
24.426701068878174,-1.04,0.2,-1.31,1.68
24.427368879318237,-1.04,0.45,-1.43,1.82
24.433619022369385,-1.23,0.66,-1.41,1.98
24.450954914093018,-1.61,0.76,-1.16,2.12
24.45357394218445,-1.83,0.87,-1.09,2.3
24.46792507171631,-2.02,1.02,-1.08,2.5
24.473496913909912,-2.37,1.39,-1.31,3.04
24.483332872390747,-2.74,2.12,-1.45,3.75
24.49349594116211,-3.07,2.68,-1.68,4.4
24.523464918136597,-3.25,2.79,-1.6,4.57
24.524446964263916,-3.47,2.97,-1.76,4.89
24.52539587020874,-3.75,3.29,-1.91,5.34
24.53306007385254,-3.6,3.83,-1.96,5.6
24.54297685623169,-3.54,4.29,-2.48,6.08
24.553140878677368,-3.5,4.4,-3.11,6.42
24.563061952590942,-3.56,4.5,-3.5,6.72
24.573025941848755,-3.71,4.86,-3.73,7.16
24.58296489715576,-4.15,5.59,-4.03,8.04
24.59275484085083,-4.69,5.91,-4.19,8.63
24.626356840133667,-4.99,5.56,-4.39,8.66
24.62766194343567,-4.9,5.1,-4.37,8.31
24.628644943237305,-4.52,4.62,-4.95,8.14
24.63230276107788,-4.1,3.97,-6.03,8.3
24.642287731170654,-3.73,4.32,-6.74,8.83
24.652365922927856,-4.38,5.54,-7.78,10.5
24.66220474243164,-4.7,7.02,-6.65,10.75
24.672218799591064,-0.86,10.01,-2.13,10.27
24.68204092979431,4.91,11.77,0.24,12.75
24.692203044891357,3.74,7.0,-1.71,8.11
24.70209503173828,-0.54,2.8,-4.65,5.45
24.735036849975586,-3.78,0.5,-5.5,6.69
24.7362060546875,-5.77,-3.83,-5.62,8.91
24.737209796905518,-4.47,-5.65,-3.31,7.92
24.751678943634033,2.28,-3.32,0.19,4.03
24.752758026123047,2.34,-3.76,1.23,4.59
24.768059730529785,-1.76,-4.16,-0.74,4.57
24.771270751953125,-5.28,-4.56,-2.35,7.36
24.785011768341064,-7.19,-4.94,-2.2,8.99
24.791416883468628,-7.63,-4.95,-1.29,9.18
24.801291942596436,-7.27,-5.36,-0.32,9.03
24.833405017852783,-6.6,-6.37,0.14,9.17
24.83473491668701,-6.2,-6.9,0.2,9.27
24.835816860198975,-6.17,-6.73,0.1,9.13
24.851799964904785,-6.11,-6.21,-0.11,8.71
24.852844953536987,-5.89,-5.62,-0.4,8.15
24.868178844451904,-5.56,-5.03,-0.57,7.51
24.87057399749756,-5.23,-4.42,-0.76,6.88
24.88456892967224,-5.05,-3.83,-0.82,6.39
24.890854835510254,-4.91,-3.19,-0.65,5.89
24.90048885345459,-4.82,-2.57,-0.32,5.47
24.93191695213318,-4.72,-1.91,-0.2,5.09
24.933189868927002,-4.49,-1.2,-0.62,4.68
24.934199810028076,-3.95,-0.44,-1.29,4.17
24.951815843582153,-3.0,0.33,-1.76,3.49
24.95289707183838,-1.94,1.05,-1.88,2.89
24.96815776824951,-1.07,1.6,-1.42,2.39
24.969768047332764,-0.64,1.82,-0.67,2.04
24.984903812408447,-0.27,2.07,-0.2,2.09
24.990185737609863,0.22,2.49,-0.17,2.5
25.000431060791016,0.5,3.06,-0.18,3.1
25.032983779907227,0.63,3.73,0.07,3.78
25.03467893600464,0.81,4.18,0.56,4.29
25.035655975341797,1.38,4.44,1.18,4.79
25.0520920753479,2.27,4.32,1.92,5.24
25.053159952163696,3.06,4.2,2.44,5.74
25.06825876235962,3.92,4.3,2.48,6.32
25.069307804107666,5.06,4.43,2.22,7.08
25.085232734680176,6.49,4.59,1.66,8.12
25.089186906814575,7.77,4.88,0.93,9.22
25.100472927093506,6.89,10.56,0.74,12.63
25.139668941497803,8.94,9.98,-0.54,13.4
25.14103603363037,14.91,5.26,-0.04,15.81
25.14204692840576,16.55,3.03,2.16,16.96
25.151977062225342,14.64,1.8,2.99,15.05
25.15302586555481,13.04,2.76,3.54,13.79
25.169038772583008,13.08,4.95,4.29,14.62
25.170121908187866,14.0,6.33,4.55,16.02
25.18461275100708,13.67,4.78,3.64,14.93
25.18845796585083,7.22,-0.26,-0.45,7.23
25.200655937194824,-3.33,-1.07,-3.86,5.2
25.237282752990723,-8.96,2.9,-2.92,9.85
25.238676071166992,-4.53,6.37,2.3,8.14
25.23969602584839,1.62,4.23,3.39,5.65
25.25204086303711,6.98,0.86,2.1,7.33
25.253093719482422,9.51,-2.19,0.58,9.77
25.268181800842285,7.71,0.12,0.91,7.76
25.26920485496521,5.44,0.52,2.25,5.9
25.285258769989014,3.54,-0.76,2.06,4.16
25.2877779006958,2.71,-1.41,1.99,3.64
25.300606727600098,1.99,-1.32,2.13,3.19
25.336528778076172,1.1,-0.69,2.2,2.55
25.337904930114746,0.62,0.02,2.09,2.18
25.33890199661255,0.77,0.52,1.66,1.9
25.352214813232422,1.05,0.16,0.85,1.36
25.353270053863525,0.61,-0.25,-0.06,0.66
25.36688494682312,0.31,-0.18,-0.32,0.48
25.36794686317444,0.43,0.12,0.0,0.44
25.38530206680298,0.28,0.09,0.09,0.3
25.38685894012451,-0.05,-0.09,-0.59,0.59
25.400771856307983,-0.05,-0.08,-1.44,1.44
25.43559193611145,0.6,-0.06,-1.72,1.82
25.436975955963135,1.35,-0.21,-1.3,1.88
25.437981843948364,1.41,-0.31,-0.92,1.71
25.452194929122925,0.82,-0.17,-0.73,1.11
25.453238010406494,0.17,0.1,-0.5,0.53
25.468310832977295,-0.15,0.28,-0.14,0.34
25.46937584877014,-0.14,0.3,0.19,0.38
25.485238075256348,0.01,0.3,0.21,0.36
25.486567974090576,0.29,0.28,-0.03,0.4
25.500484943389893,0.67,0.2,-0.13,0.71
25.505981922149658,0.77,0.04,-0.28,0.82
25.54549503326416,0.46,0.05,-0.48,0.66
25.54662585258484,0.23,0.12,-0.6,0.65
25.547636032104492,0.26,0.17,-0.48,0.57
25.54989790916443,0.21,0.16,-0.59,0.64
25.555434942245483,0.05,0.1,-0.63,0.63
25.565622806549072,-0.1,-0.04,-0.29,0.3
25.575531005859375,-0.38,-0.36,0.05,0.52
25.58534002304077,-0.79,-0.53,0.41,1.03
25.59535503387451,-0.94,-0.13,0.61,1.12
25.60547399520874,-0.74,0.3,0.3,0.85
25.63926076889038,-0.39,0.31,-0.05,0.5
25.640554904937744,-0.05,0.09,-0.19,0.21
25.641575813293457,0.25,-0.11,-0.24,0.36
25.65201187133789,0.47,-0.15,-0.19,0.52
25.654648780822754,0.67,-0.07,-0.04,0.67
25.66831684112549,0.7,0.11,0.14,0.72
25.67443084716797,0.42,0.31,0.13,0.53
25.685144901275635,0.13,0.48,0.0,0.49
25.694873809814453,-0.11,0.48,-0.19,0.52
25.704679012298584,-0.46,0.42,-0.44,0.76
25.73700475692749,-0.7,0.47,-0.59,1.02
25.73831272125244,-0.87,0.49,-1.06,1.45
25.73933172225952,-1.05,0.56,-1.67,2.05
25.752079010009766,-1.3,0.67,-1.86,2.36
25.753921031951904,-1.89,0.68,-2.15,2.94
25.768380880355835,-2.66,0.86,-2.35,3.65
25.773822784423828,-3.4,1.0,-2.19,4.16
25.784916877746582,-4.08,1.28,-1.99,4.71
25.794147968292236,-4.12,2.18,-2.14,5.12
25.803988933563232,-4.49,3.47,-2.13,6.06
25.83795690536499,-4.06,4.14,-1.59,6.01
25.83928680419922,-3.51,3.91,-1.87,5.57
25.84031891822815,-3.48,4.16,-2.23,5.86
25.851512908935547,-3.83,4.65,-2.8,6.64
25.853102922439575,-4.24,5.36,-3.46,7.66
25.868494987487793,-4.57,5.77,-4.01,8.38
25.873021841049194,-5.05,5.9,-4.35,8.9
25.88386297225952,-5.66,6.48,-4.41,9.66
25.8933367729187,-6.34,6.55,-4.5,10.16
25.903127908706665,-6.66,5.93,-3.82,9.7
25.94330072402954,-5.89,4.79,-3.28,8.27
25.944764852523804,-4.41,3.57,-3.45,6.64
25.94574284553528,-3.06,3.04,-3.88,5.8
25.948225021362305,-2.47,4.08,-4.75,6.73
25.96861696243286,-3.01,6.36,-5.28,8.79
25.969666004180908,-2.4,9.45,-3.93,10.51
25.985103845596313,1.21,12.59,-1.54,12.74
25.986097812652588,1.44,9.95,-1.73,10.2
26.00105905532837,-1.67,5.05,-3.7,6.47
26.00256586074829,-4.78,2.37,-5.04,7.33
26.0466628074646,-6.48,0.15,-5.01,8.19
26.047854900360107,-7.23,-3.21,-5.57,9.67
26.048954010009766,-3.49,-4.43,-4.28,7.07
26.069092750549316,3.32,-1.72,-1.33,3.96
26.070151805877686,3.35,-2.05,-0.44,3.95
26.084914922714233,-1.16,-2.76,-1.97,3.58
26.085938930511475,-5.5,-3.08,-3.54,7.22
26.10214900970459,-8.11,-3.38,-3.61,9.49
26.103612899780273,-9.0,-3.64,-2.5,10.02
26.117602825164795,-8.63,-3.99,-1.18,9.58
26.147305965423584,-7.83,-4.43,-0.26,9.0
26.148696899414062,-7.03,-4.93,0.22,8.58
26.149715900421143,-6.5,-5.3,0.15,8.38
26.16911292076111,-6.18,-5.4,-0.12,8.2
26.17019486427307,-6.05,-5.42,-0.25,8.12
26.18498992919922,-5.88,-5.3,-0.29,7.92
26.186001777648926,-5.46,-5.06,-0.34,7.45
26.202033042907715,-4.79,-4.69,-0.24,6.7
26.20352077484131,-4.27,-4.42,0.12,6.14
26.217741012573242,-4.36,-4.25,0.46,6.1
26.248668909072876,-5.18,-3.98,0.5,6.55
26.25000286102295,-6.19,-3.07,0.17,6.91
26.251023769378662,-6.31,-1.4,-0.57,6.48
26.26933789253235,-4.75,0.01,-1.62,5.01
26.270352840423584,-1.93,0.4,-2.4,3.1
26.28507685661316,0.6,0.45,-2.18,2.3
26.286056995391846,2.1,1.12,-1.21,2.66
26.30228281021118,2.25,1.66,-0.1,2.79
26.303689002990723,1.03,1.24,0.77,1.78
26.31783103942871,0.26,1.79,1.49,2.34
26.319315910339355,0.75,2.98,2.08,3.71
26.365941047668457,1.8,3.91,2.61,5.03
26.36709690093994,2.94,4.48,2.9,6.09
26.368088722229004,3.8,4.86,2.67,6.72
26.38623285293579,4.51,5.36,2.12,7.31
26.387261867523193,5.9,5.88,1.38,8.44
26.401561737060547,8.09,6.21,0.52,10.21
26.40260076522827,9.3,8.84,-0.22,12.83
26.419060945510864,8.36,15.49,-1.39,17.65
26.420565843582153,15.27,9.46,-4.02,18.4
26.434753894805908,21.12,5.11,-2.5,21.87
26.464550018310547,19.78,3.82,-0.2,20.14
26.465872764587402,17.26,5.14,1.09,18.04
26.4668869972229,16.41,6.11,2.17,17.64
26.486262798309326,15.52,5.67,3.31,16.85
26.48730707168579,12.71,2.34,2.88,13.24
26.50224494934082,4.03,-1.61,-0.27,4.34
26.50373077392578,-5.68,-1.44,-2.14,6.23
26.519248962402344,-8.1,0.22,-0.07,8.1
26.52077889442444,-1.09,2.92,2.93,4.27
26.53476095199585,4.68,3.88,3.03,6.79
26.56471586227417,8.01,3.49,1.77,8.91
26.566048860549927,10.75,-0.7,-0.51,10.78
26.56710195541382,8.12,0.26,-0.6,8.14
26.586095809936523,5.01,3.09,2.44,6.37
26.58709478378296,3.06,0.41,2.89,4.22
26.602319955825806,2.29,-1.65,2.45,3.73
26.603374004364014,1.61,-1.19,2.33,3.07
26.61909580230713,0.9,-0.08,1.69,1.91
26.620543956756592,0.31,0.3,0.53,0.68
26.634654998779297,-0.03,-0.07,-0.8,0.8
26.6635959148407,0.11,-0.27,-1.16,1.19
26.664927005767822,0.22,-0.21,-0.67,0.73
26.66590976715088,0.06,-0.18,-0.12,0.22
26.68772602081299,0.02,0.02,0.22,0.22
26.688644886016846,0.05,0.13,0.1,0.17
26.70192289352417,0.11,-0.02,-0.64,0.64
26.702932834625244,0.21,-0.02,-1.34,1.35
26.718688011169434,0.44,0.04,-1.22,1.29
26.720101833343506,0.55,0.1,-0.48,0.73
26.73420286178589,0.25,-0.01,-0.16,0.29
26.76276397705078,0.08,0.04,0.13,0.15
26.764145851135254,0.17,0.26,0.27,0.41
26.765167951583862,0.23,0.37,0.02,0.43
26.786241054534912,0.17,0.24,-0.24,0.37
26.78723907470703,0.17,0.14,-0.29,0.36
26.802278995513916,0.28,0.09,-0.16,0.33
26.803297996520996,0.31,-0.05,0.02,0.31
26.819448947906494,0.25,-0.03,-0.08,0.26
26.820916891098022,0.19,0.11,-0.24,0.32
26.834974765777588,0.14,0.19,-0.44,0.49
26.864680767059326,-0.02,0.15,-0.54,0.56
26.865967750549316,-0.05,0.08,-0.48,0.48
26.866904735565186,-0.05,0.0,-0.44,0.44
26.88610601425171,-0.14,-0.05,-0.38,0.4
26.887147903442383,-0.35,-0.04,-0.41,0.54
26.90220594406128,-0.32,-0.05,-0.23,0.39
26.90325093269348,-0.11,-0.01,0.2,0.22
26.919332027435303,0.07,0.11,0.3,0.32
26.920814037322998,0.26,0.22,0.2,0.39
26.93476104736328,0.4,0.22,0.18,0.49
26.96304488182068,0.5,0.14,0.14,0.53
26.964348793029785,0.48,0.07,-0.03,0.48
26.96534299850464,0.51,0.04,-0.32,0.6
26.986021041870117,0.53,0.06,-0.5,0.73
26.987098932266235,0.38,0.09,-0.57,0.69
27.002377033233643,0.13,0.04,-0.45,0.47
27.003422737121582,-0.21,0.18,-0.37,0.46
27.019278049468994,-0.56,0.37,-0.5,0.83
27.020750045776367,-0.83,0.54,-0.72,1.22
27.035001754760742,-1.06,0.68,-1.03,1.62
27.06348705291748,-1.18,0.75,-1.12,1.79
27.064769744873047,-1.36,0.75,-1.25,1.99
27.06571102142334,-1.84,0.74,-1.48,2.47
27.085798740386963,-2.6,0.96,-1.74,3.27
27.08685874938965,-3.38,1.5,-1.9,4.15
27.101614952087402,-3.28,2.31,-1.43,4.25
27.102653980255127,-3.2,2.51,-1.37,4.29
27.119436740875244,-3.46,2.72,-1.57,4.67
27.120898723602295,-3.42,3.09,-1.75,4.93
27.13489294052124,-3.22,3.28,-1.77,4.92
27.136335849761963,-3.19,3.53,-1.8,5.08
27.180306911468506,-3.41,3.79,-2.29,5.58
27.181464910507202,-3.94,4.09,-3.23,6.53
27.182440757751465,-4.45,4.54,-3.79,7.4
27.20278286933899,-4.99,5.21,-4.18,8.33
27.20385503768921,-5.7,5.79,-4.5,9.28
27.219193935394287,-6.44,5.99,-4.51,9.88
27.220688819885254,-6.92,5.79,-4.47,10.06
27.236480951309204,-6.78,4.89,-4.28,9.39
27.23795795440674,-6.29,4.08,-4.1,8.54
27.25130796432495,-5.02,3.34,-4.26,7.38
27.281228065490723,-3.18,2.92,-4.29,6.08
27.28260087966919,-2.75,4.04,-4.43,6.59
27.283591747283936,-3.05,6.16,-4.39,8.15
27.30284094810486,-0.89,9.85,-2.42,10.18
27.303902864456177,2.65,12.5,-1.35,12.84
27.31890106201172,1.35,8.82,-2.43,9.24
27.31988787651062,-2.31,5.06,-4.4,7.09
27.336612939834595,-4.97,3.03,-5.22,7.81
27.338078022003174,-6.2,0.28,-5.4,8.22
27.35142993927002,-6.52,-4.35,-6.02,9.88
27.381464958190918,-3.43,-5.48,-4.61,7.94
27.382783889770508,3.1,-1.95,-1.57,3.98
27.383780002593994,3.79,-1.45,-0.34,4.07
27.402894973754883,-0.57,-2.23,-1.7,2.86
27.403944969177246,-5.11,-2.61,-3.11,6.52
27.419293880462646,-8.31,-2.85,-3.08,9.3
27.420317888259888,-9.52,-3.2,-2.0,10.24
27.436189889907837,-8.99,-3.6,-0.66,9.7
27.437678813934326,-7.85,-4.13,0.29,8.87
27.451417922973633,-6.82,-4.64,0.63,8.27
27.48092293739319,-6.21,-4.67,0.52,7.78
27.482279777526855,-5.94,-4.35,0.33,7.36
27.483290910720825,-5.62,-3.96,0.2,6.87
27.50289487838745,-5.2,-3.85,0.12,6.47
27.503973960876465,-4.89,-4.1,0.04,6.38
27.519548892974854,-4.81,-4.36,-0.08,6.49
27.521031856536865,-4.92,-4.44,-0.3,6.63
27.53632688522339,-5.08,-4.3,-0.45,6.67
27.53785991668701,-4.92,-3.69,-0.49,6.16
27.551372051239014,-4.35,-2.94,-0.44,5.26
27.581357955932617,-3.78,-2.35,-0.34,4.46
27.58268404006958,-3.56,-1.76,-0.78,4.04
27.583664894104004,-3.12,-1.04,-1.65,3.67
27.602712869644165,-1.91,-0.3,-2.26,2.97
27.603761911392212,-0.08,0.43,-2.09,2.13
27.619157791137695,2.04,1.27,-1.62,2.89
27.620215892791748,3.22,2.04,-0.97,3.93
27.636291027069092,2.57,2.47,0.15,3.56
27.637688875198364,1.74,3.34,1.31,3.98
27.651440858840942,2.27,4.65,2.02,5.55
27.679643869400024,3.56,5.57,2.17,6.95
27.68094491958618,4.91,6.08,2.17,8.11
27.6818790435791,6.17,6.46,1.96,9.14
27.703375816345215,7.45,6.86,1.53,10.24
27.70442485809326,8.26,6.48,0.72,10.52
27.719425916671753,8.37,6.2,0.18,10.41
27.72046685218811,5.95,13.05,0.72,14.36
27.73670482635498,10.17,9.18,-0.59,13.71
27.73817491531372,16.69,4.57,0.8,17.32
27.751718044281006,16.39,3.5,1.84,16.86
27.780302047729492,13.36,2.56,1.58,13.69
27.781635761260986,11.53,3.9,2.47,12.41
27.782620906829834,11.24,6.11,3.6,13.29
27.80319881439209,11.12,7.48,4.56,14.15
27.804255962371826,10.22,5.69,4.8,12.64
27.81938886642456,5.78,0.52,2.04,6.15
27.82043194770813,-1.84,-1.63,-1.24,2.75
27.836633920669556,-5.64,-1.54,-1.72,6.09
27.83812189102173,-1.5,-1.22,0.67,2.04
27.8505277633667,4.5,-0.03,1.56,4.76
27.878192901611328,6.56,2.81,2.19,7.46
27.879467010498047,7.61,5.27,1.76,9.42
27.88050889968872,9.09,0.64,-1.21,9.19
27.883020877838135,5.97,0.79,-2.02,6.35
27.88441276550293,3.3,3.09,0.63,4.56
27.885913848876953,1.78,0.17,1.94,2.63
27.887166023254395,1.56,-1.96,1.83,3.1
27.888336896896362,1.17,-1.52,1.05,2.18
27.89802885055542,0.18,-0.12,0.55,0.59
27.908071041107178,-0.24,0.57,0.36,0.71
27.917911052703857,-0.35,0.0,0.04,0.35
27.944421768188477,-0.24,-0.39,0.21,0.5
27.945401906967163,0.31,-0.31,0.61,0.75
27.947341918945312,0.85,-0.25,0.58,1.05
27.95756483078003,1.05,-0.22,0.51,1.18
27.969111919403076,1.16,-0.03,0.55,1.28
27.97750473022461,1.1,0.04,0.19,1.11
27.987181901931763,0.94,0.08,-0.31,0.99
27.997292041778564,0.63,0.02,-0.62,0.88
28.007149934768677,0.29,0.03,-0.53,0.6
28.017184734344482,0.04,0.14,-0.11,0.18
28.045321941375732,-0.09,0.17,-0.19,0.27
28.046295881271362,-0.01,0.14,-0.36,0.38
28.047276973724365,0.28,0.2,-0.65,0.73
28.056714057922363,0.7,0.13,-0.54,0.89
28.067018032073975,0.92,-0.05,-0.2,0.94
28.076794862747192,0.84,-0.07,-0.04,0.84
28.086626052856445,0.63,-0.13,0.03,0.64
28.09632396697998,0.5,-0.17,0.16,0.55
28.106392860412598,0.4,-0.05,0.29,0.49
28.11680793762207,0.3,0.01,0.14,0.33
28.147827863693237,0.21,0.01,-0.07,0.22
28.148980855941772,0.17,0.06,-0.11,0.21
28.14997673034668,0.24,0.0,-0.03,0.24
28.169880867004395,0.28,-0.14,-0.03,0.31
28.17087697982788,0.24,0.03,-0.09,0.25
28.18578577041626,0.14,0.16,-0.19,0.28
28.186832904815674,0.09,0.17,-0.24,0.3
28.203266859054565,0.12,0.07,-0.2,0.24
28.20579481124878,0.17,-0.1,-0.25,0.31
28.218499898910522,0.18,-0.18,-0.3,0.39
28.2467679977417,0.21,-0.07,-0.36,0.42
28.24805188179016,0.19,0.2,-0.36,0.45
28.24900984764099,0.07,0.43,-0.39,0.58
28.27034282684326,-0.08,0.61,-0.48,0.78
28.271379947662354,-0.32,0.69,-0.76,1.07
28.286218881607056,-0.65,0.62,-0.86,1.24
28.28727102279663,-1.06,0.44,-0.98,1.5
28.303324937820435,-1.28,0.21,-1.15,1.73
28.305026054382324,-1.22,0.16,-1.32,1.8
28.31873393058777,-1.17,0.47,-1.52,1.97
28.35230588912964,-1.32,0.9,-1.56,2.23
28.353684902191162,-1.65,1.47,-1.45,2.64
28.354695796966553,-2.02,1.87,-1.16,2.98
28.370548725128174,-2.58,2.0,-1.08,3.43
28.371567726135254,-3.39,2.12,-1.29,4.2
28.386131763458252,-3.92,2.35,-1.46,4.79
28.387184858322144,-3.84,2.74,-1.44,4.93
28.403278827667236,-3.5,3.08,-1.38,4.86
28.40475082397461,-3.1,3.19,-1.48,4.68
28.418652057647705,-2.85,3.38,-1.42,4.64
28.452600955963135,-2.79,3.63,-1.87,4.94
28.45386290550232,-3.11,3.86,-2.36,5.49
28.4548978805542,-3.67,4.24,-2.63,6.19
28.470651865005493,-4.27,4.57,-3.19,7.02
28.47169589996338,-4.87,4.72,-3.62,7.68
28.485983848571777,-5.44,4.69,-3.76,8.1
28.486988067626953,-5.58,4.38,-3.65,7.97
28.503423929214478,-5.35,3.63,-3.66,7.42
28.50491690635681,-4.79,3.27,-3.98,7.03
28.518798828125,-3.68,2.99,-4.21,6.34
28.55127191543579,-2.58,3.04,-4.53,6.03
28.552618980407715,-2.68,4.15,-4.75,6.85
28.553640842437744,-2.99,5.9,-4.5,8.0
28.570340871810913,-2.28,7.96,-3.42,8.95
28.571425914764404,0.85,11.03,-1.95,11.23
28.584877014160156,0.74,9.83,-3.19,10.36
28.585919857025146,-1.88,6.41,-5.11,8.41
28.603399753570557,-4.49,4.48,-5.79,8.58
28.604843854904175,-6.09,2.24,-5.53,8.52
28.61876106262207,-7.06,-1.52,-5.57,9.12
28.650099754333496,-6.33,-4.74,-5.48,9.62
28.652418851852417,-0.8,-2.65,-3.42,4.39
28.65342688560486,4.45,-0.19,-1.01,4.56
28.67107892036438,2.89,-1.33,-1.25,3.41
28.672088861465454,-1.76,-2.62,-3.33,4.58
28.685543060302734,-5.95,-3.07,-4.42,8.02
28.687005043029785,-8.4,-3.42,-3.79,9.82
28.703470945358276,-9.09,-3.64,-2.22,10.04
28.704960823059082,-8.43,-3.86,-0.57,9.28
28.718966960906982,-7.34,-4.34,0.66,8.55
28.721911907196045,-6.56,-4.77,1.3,8.21
28.767786026000977,-6.39,-4.89,1.39,8.16
28.768974781036377,-6.42,-4.82,1.08,8.1
28.769981861114502,-6.22,-4.67,0.79,7.81
28.786438941955566,-5.71,-4.53,0.87,7.34
28.787598848342896,-5.17,-4.78,0.94,7.1
28.802013874053955,-4.94,-5.24,1.16,7.29
28.803510904312134,-5.04,-5.12,1.75,7.39
28.82010507583618,-5.56,-4.59,2.21,7.54
28.82156276702881,-6.61,-3.6,2.19,7.83
28.83554697036743,-7.5,-2.44,1.55,8.03
28.86631989479065,-7.47,-1.05,0.27,7.54
28.867703914642334,-6.01,-0.01,-1.44,6.18
28.86871576309204,-3.09,0.84,-2.64,4.15
28.886909008026123,0.51,1.66,-2.23,2.82
28.887972831726074,3.25,2.33,-0.76,4.07
28.903323888778687,4.46,2.19,0.46,4.98
28.904791831970215,4.47,1.78,0.8,4.87
28.920177936553955,4.65,2.61,0.68,5.37
28.92165994644165,4.74,4.15,0.77,6.34
28.935815811157227,4.66,5.65,1.17,7.41
28.964853763580322,4.56,6.49,1.25,8.02
28.966201782226562,5.17,7.03,1.18,8.8
28.967205047607422,6.9,7.23,1.25,10.07
28.987053871154785,8.99,6.89,1.47,11.42
28.988086938858032,10.43,6.07,1.65,12.17
29.000762939453125,10.13,6.18,1.57,11.96
29.001750946044922,7.16,10.51,1.02,12.75
29.02033281326294,10.42,5.44,0.04,11.75
29.021803855895996,14.07,3.53,1.17,14.55
29.0357449054718,14.91,2.62,1.99,15.26
29.065557956695557,14.15,2.59,1.29,14.44
29.066887855529785,12.42,4.56,1.55,13.32
29.067924976348877,11.19,7.31,2.82,13.66
29.08684992790222,8.49,5.15,2.77,10.3
29.087936878204346,0.21,0.94,-0.02,0.96
29.103214740753174,-7.07,1.83,-1.15,7.39
29.1042537689209,-4.61,2.28,1.87,5.47
29.1202449798584,1.91,1.37,2.72,3.59
29.121710777282715,5.75,2.0,1.65,6.3
29.135823726654053,5.74,3.27,1.32,6.73
29.16427993774414,4.06,2.61,0.88,4.9
29.166117906570435,4.88,1.97,0.3,5.27
29.167139053344727,5.61,-0.46,-0.43,5.64
29.187419891357422,3.7,-0.02,0.49,3.73
29.18843698501587,2.67,0.94,2.25,3.61
29.203383922576904,2.31,-0.35,1.67,2.87
29.204864978790283,2.47,-1.36,0.91,2.96
29.220229864120483,2.46,-0.88,0.65,2.69
29.221658945083618,2.05,0.01,0.46,2.1
29.236018896102905,1.52,0.45,0.35,1.62
29.264694929122925,0.81,0.3,0.04,0.86
29.266048908233643,0.06,0.01,-0.16,0.17
29.267077922821045,-0.31,-0.07,0.03,0.31
29.286946773529053,-0.2,-0.15,0.38,0.45
29.288036823272705,0.03,-0.3,0.71,0.77
29.303663730621338,0.22,-0.28,0.91,0.97
29.305126905441284,0.2,-0.09,0.57,0.61
29.320168018341064,0.21,0.07,-0.18,0.28
29.321635723114014,0.39,0.1,-0.82,0.91
29.335824012756348,0.77,0.09,-0.87,1.16
29.36513590812683,1.0,0.1,-0.82,1.29
29.36641502380371,0.97,0.1,-0.92,1.34
29.367365837097168,0.82,0.03,-0.85,1.18
29.38748073577881,0.75,-0.05,-0.69,1.02
29.388978004455566,0.68,-0.06,-0.57,0.88
29.403512001037598,0.55,-0.09,-0.3,0.63
29.404968738555908,0.34,-0.06,0.01,0.34
29.42014789581299,0.09,-0.07,0.23,0.25
29.42161989212036,-0.08,-0.14,0.55,0.57
29.435834884643555,-0.09,-0.11,0.48,0.5
29.467617988586426,-0.04,-0.04,-0.11,0.12
29.468896865844727,0.11,-0.03,-0.51,0.52
29.469894886016846,0.29,-0.04,-0.62,0.68
29.487197875976562,0.31,0.02,-0.62,0.69
29.488147735595703,0.2,0.13,-0.46,0.51
29.50376272201538,-0.14,0.15,-0.4,0.44
29.50527286529541,-0.4,0.12,-0.28,0.5
29.51900887489319,-0.3,0.19,-0.09,0.36
29.520428895950317,-0.06,0.19,0.02,0.2
29.535568952560425,-0.05,0.16,-0.12,0.2
29.53683376312256,-0.12,0.11,-0.23,0.28
29.582650899887085,-0.22,0.17,-0.16,0.32
29.58384895324707,-0.31,0.23,-0.21,0.43
29.58485698699951,-0.33,0.22,-0.38,0.54
29.604623794555664,-0.54,0.21,-0.7,0.9
29.60609006881714,-0.75,0.3,-0.82,1.15
29.62026882171631,-0.89,0.45,-0.7,1.21
29.621720790863037,-1.09,0.55,-0.89,1.51
29.638125896453857,-1.26,0.76,-1.38,2.01
29.639622926712036,-1.46,0.85,-1.92,2.55
29.652628898620605,-1.76,0.8,-2.14,2.88
29.68217706680298,-2.02,0.85,-2.0,2.96
29.68409776687622,-2.36,1.0,-1.9,3.19
29.685134887695312,-2.66,1.17,-2.15,3.61
29.704179763793945,-2.98,1.34,-2.25,3.96
29.705667972564697,-3.28,1.85,-2.6,4.57
29.720452785491943,-3.65,3.22,-2.44,5.44
29.721922874450684,-3.99,4.75,-1.98,6.51
29.737310886383057,-3.53,5.1,-1.78,6.45
29.738776922225952,-2.83,5.56,-1.44,6.4
29.75250792503357,-2.97,5.44,-2.11,6.54
29.781678915023804,-3.77,5.32,-2.73,7.06
29.78310990333557,-4.49,5.63,-2.86,7.74
29.78412389755249,-5.04,5.77,-2.94,8.2
29.804094791412354,-5.38,5.35,-3.18,8.22
29.805182933807373,-5.82,4.9,-3.65,8.43
29.820414066314697,-5.93,4.24,-3.84,8.23
29.821874856948853,-5.26,3.55,-4.02,7.51
29.837218761444092,-4.33,2.78,-4.91,7.11
29.83869695663452,-3.77,3.13,-5.51,7.37
29.8524649143219,-4.05,5.03,-5.73,8.63
29.8820538520813,-4.42,6.85,-5.89,10.05
29.883408069610596,-3.04,8.46,-4.44,10.02
