time,ax,ay,az,atotal
0.003844738006591797,1.12,-1.23,-0.22,1.67
0.013865947723388672,0.85,0.11,-0.91,1.25
0.023830890655517578,0.22,0.33,-0.07,0.4
0.03392386436462402,0.15,-0.21,0.19,0.32
0.04371500015258789,0.09,0.07,-0.31,0.33
0.07619786262512207,0.21,-0.01,-0.15,0.25
0.07670092582702637,0.18,0.0,0.13,0.22
0.07716989517211914,0.03,0.0,0.24,0.24
0.08379483222961426,-0.07,-0.07,0.34,0.35
0.0936269760131836,-0.19,-0.08,0.34,0.39
0.10361790657043457,-0.44,-0.08,0.16,0.47
0.11368989944458008,-0.45,-0.07,-0.08,0.46
0.12364006042480469,-0.28,-0.02,-0.07,0.28
0.13400983810424805,-0.15,-0.02,0.01,0.15
0.14362692832946777,-0.01,-0.03,0.02,0.03
0.1766219139099121,0.02,0.0,-0.06,0.06
0.1771249771118164,0.01,-0.02,-0.11,0.11
0.17759370803833008,0.03,0.0,-0.11,0.11
0.1835470199584961,0.04,0.02,-0.12,0.12
0.19351673126220703,0.18,0.01,-0.06,0.19
0.2034778594970703,0.36,-0.01,0.0,0.36
0.21344900131225586,0.41,0.04,-0.05,0.41
0.22347497940063477,0.32,0.02,-0.19,0.37
0.2334609031677246,0.29,0.0,-0.15,0.32
0.2433178424835205,0.16,-0.01,-0.06,0.17
0.27673983573913574,-0.02,-0.05,0.01,0.05
0.27727484703063965,-0.06,-0.06,-0.04,0.09
0.2777979373931885,-0.11,-0.06,0.02,0.12
0.2833290100097656,-0.31,-0.03,0.0,0.31
0.2933478355407715,-0.35,-0.02,0.02,0.35
0.30335187911987305,-0.25,-0.01,0.05,0.25
0.31332874298095703,-0.13,-0.01,0.01,0.13
0.3233070373535156,-0.02,0.02,-0.03,0.04
0.3332638740539551,0.09,0.01,-0.09,0.12
0.3431587219238281,0.13,-0.05,-0.11,0.17
0.3770637512207031,0.0,-0.01,-0.08,0.08
0.37761783599853516,-0.06,-0.03,-0.05,0.08
0.37853002548217773,0.0,-0.07,0.03,0.07
0.3832108974456787,-0.12,-0.02,-0.04,0.12
0.39308595657348633,-0.22,-0.06,0.05,0.23
0.40320491790771484,-0.18,-0.07,0.28,0.34
0.4132089614868164,-0.07,-0.09,0.47,0.48
0.42316102981567383,-0.15,-0.05,0.63,0.64
0.43315887451171875,-0.46,-0.08,0.49,0.67
0.4431147575378418,-0.47,-0.07,0.4,0.62
0.47842979431152344,-0.65,-0.02,0.48,0.8
0.4791538715362549,-0.58,-0.1,0.34,0.67
0.4796438217163086,-0.16,-0.05,0.07,0.18
0.4830029010772705,0.15,-0.04,-0.22,0.26
0.4929847717285156,0.25,-0.04,-0.26,0.36
0.5030429363250732,0.04,0.01,-0.12,0.12
0.5129327774047852,-0.17,-0.03,0.02,0.17
0.5232639312744141,-0.13,-0.03,0.08,0.15
0.5330748558044434,-0.19,-0.05,0.05,0.2
0.5430178642272949,-0.05,-0.1,0.29,0.31
0.5770378112792969,0.05,0.02,0.32,0.32
0.5775659084320068,-0.05,0.01,0.07,0.08
0.578427791595459,0.02,-0.06,-0.19,0.2
0.5829048156738281,0.44,0.03,-0.3,0.53
0.5928740501403809,0.44,0.01,-0.38,0.58
0.6029148101806641,0.36,0.03,-0.38,0.52
0.6126859188079834,0.39,0.08,-0.31,0.5
0.6228868961334229,0.51,-0.01,-0.22,0.55
0.6328518390655518,0.59,0.04,-0.28,0.65
0.6428158283233643,0.54,-0.03,-0.29,0.61
0.6771538257598877,0.46,-0.02,-0.09,0.46
0.6780290603637695,0.18,-0.01,0.0,0.18
0.6785218715667725,-0.2,-0.08,0.11,0.24
0.6826720237731934,-0.15,-0.05,0.41,0.43
0.6927309036254883,0.08,-0.04,0.39,0.4
0.703819751739502,0.17,-0.03,0.09,0.19
0.7126479148864746,0.41,0.08,-0.11,0.43
0.7227368354797363,0.61,0.07,-0.25,0.66
0.732684850692749,0.62,-0.06,-0.15,0.64
0.7425408363342285,0.47,-0.08,0.01,0.47
0.776655912399292,0.3,-0.12,0.32,0.45
0.7774920463562012,0.03,-0.07,0.43,0.43
0.77799391746521,-0.01,-0.04,0.3,0.3
0.7825298309326172,0.15,-0.01,0.05,0.15
0.7926230430603027,0.24,0.08,-0.36,0.44
0.8026189804077148,0.29,0.09,-0.61,0.68
0.8124527931213379,0.27,0.12,-0.5,0.58
0.8225398063659668,0.28,0.09,-0.22,0.36
0.832589864730835,0.3,-0.04,-0.11,0.32
0.8425109386444092,0.08,-0.01,-0.38,0.38
0.8776018619537354,0.06,0.05,-0.49,0.49
0.8783707618713379,0.25,0.03,-0.22,0.33
0.8788628578186035,0.48,0.01,-0.02,0.48
0.8823769092559814,0.48,-0.04,-0.11,0.49
0.8923978805541992,0.05,-0.04,-0.18,0.19
0.902400016784668,-0.41,0.08,-0.45,0.61
0.9122278690338135,-0.4,0.13,-0.61,0.74
0.9223878383636475,0.09,0.01,-0.05,0.1
0.9323477745056152,0.86,-0.26,0.71,1.14
0.9424300193786621,1.11,-0.13,0.38,1.18
0.9783139228820801,0.32,0.02,-0.15,0.35
0.9788007736206055,-0.57,0.02,-0.6,0.82
0.9792718887329102,-1.01,0.03,-0.69,1.22
0.9822838306427002,-0.95,0.03,-0.27,0.98
0.9923148155212402,-0.93,-0.01,-0.1,0.93
1.0022130012512207,-0.89,0.02,-0.25,0.92
1.0121989250183105,-0.82,0.02,-0.34,0.88
1.0222668647766113,-0.48,-0.02,-0.21,0.52
1.0322208404541016,-0.11,0.03,-0.34,0.35
1.0422430038452148,-0.02,0.15,-0.65,0.66
1.0785858631134033,-0.11,0.12,-0.59,0.61
1.0790998935699463,-0.17,0.02,-0.34,0.38
1.0795960426330566,-0.04,-0.06,-0.05,0.08
1.0820918083190918,0.17,0.01,0.08,0.18
1.0921099185943604,0.29,0.13,0.0,0.31
1.101973056793213,0.16,0.15,-0.18,0.28
1.1120519638061523,-0.14,0.04,-0.12,0.18
1.1220648288726807,-0.27,-0.04,0.06,0.27
1.13201904296875,-0.08,-0.02,0.2,0.21
1.1420388221740723,0.19,0.05,0.19,0.27
1.1789817810058594,0.46,0.04,0.16,0.48
1.179460048675537,0.53,0.04,0.21,0.57
1.1799249649047852,0.4,0.18,0.11,0.45
1.1819257736206055,0.24,0.14,-0.01,0.27
1.1920199394226074,0.13,0.05,0.02,0.14
1.2017650604248047,0.24,0.08,-0.12,0.27
1.2119438648223877,0.52,0.25,-0.29,0.64
1.2219147682189941,0.7,0.39,-0.4,0.89
1.2318577766418457,0.69,0.34,-0.29,0.82
1.242074966430664,0.7,0.16,-0.17,0.73
1.278398036956787,0.95,0.0,-0.17,0.96
1.278878927230835,1.05,-0.26,-0.27,1.11
1.2793729305267334,0.6,-0.44,-0.72,1.03
1.2817308902740479,-0.32,-0.54,-1.33,1.47
1.291785717010498,-1.3,-0.11,-1.78,2.2
1.3016257286071777,-1.11,0.27,-1.44,1.83
1.3117198944091797,-0.28,0.19,-0.59,0.68
1.3217759132385254,1.04,-0.25,0.08,1.07
1.331615924835205,2.03,-0.26,0.49,2.1
1.3417088985443115,2.26,-0.07,0.23,2.27
1.3790419101715088,2.75,-0.11,0.05,2.75
1.3795409202575684,3.48,-0.27,0.47,3.52
1.380033016204834,3.35,-0.61,1.21,3.61
1.381612777709961,2.67,-0.84,1.39,3.12
1.3916659355163574,2.06,-1.0,1.09,2.53
1.401803970336914,1.65,-1.3,1.1,2.37
1.411592960357666,1.56,-1.8,1.22,2.67
1.4216468334197998,0.99,-1.0,0.99,1.72
1.431593894958496,-0.88,0.97,-0.59,1.43
1.441619873046875,-4.8,0.59,-1.01,4.94
1.4791839122772217,-8.55,1.29,0.8,8.68
1.4796829223632812,-8.68,0.03,1.2,8.76
1.480177879333496,-7.88,-0.94,0.12,7.93
1.4813737869262695,-2.46,0.18,0.08,2.46
1.491447925567627,1.92,0.0,2.1,2.84
1.5013837814331055,1.31,-1.2,2.09,2.74
1.5112929344177246,-0.48,-0.62,0.8,1.12
1.5214948654174805,-0.04,0.52,0.09,0.52
1.5313758850097656,1.07,0.33,-0.7,1.32
1.5414378643035889,0.18,-0.21,-1.66,1.68
1.551316738128662,-1.57,0.03,-1.55,2.2
1.579704761505127,-1.82,0.51,-0.36,1.92
1.580209732055664,-0.83,0.53,0.25,1.01
1.5812249183654785,-0.26,0.27,-0.12,0.39
1.591315746307373,-0.25,0.18,-0.48,0.57
1.6013028621673584,-0.1,0.29,-0.29,0.42
1.6113338470458984,0.27,0.4,-0.27,0.55
1.621284008026123,0.76,0.51,-0.66,1.12
1.6312668323516846,1.11,0.47,-1.11,1.63
1.6412439346313477,1.1,0.39,-1.07,1.58
1.6513447761535645,1.07,0.31,-0.77,1.35
1.679257869720459,1.06,0.15,-0.49,1.17
1.6797528266906738,1.21,0.12,-0.28,1.24
1.6811647415161133,1.71,0.2,0.11,1.72
1.6917190551757812,2.21,0.23,0.57,2.29
1.701352834701538,2.58,0.35,0.68,2.69
1.7111308574676514,3.04,0.38,0.8,3.16
1.72114896774292,3.68,0.34,1.11,3.85
1.7310779094696045,4.6,0.33,1.4,4.81
1.7410888671875,4.76,0.68,1.53,5.04
1.7510509490966797,4.94,0.95,1.23,5.17
1.7779419422149658,4.98,1.62,0.78,5.29
1.778437852859497,5.32,2.55,-0.22,5.9
1.7809710502624512,5.28,3.05,-0.52,6.11
1.7910127639770508,2.61,7.68,-0.71,8.14
1.80098295211792,3.37,9.71,-2.49,10.57
1.8109538555145264,4.19,7.48,-0.73,8.6
1.8209679126739502,4.12,6.15,-0.9,7.45
1.8308939933776855,3.95,5.31,-1.89,6.88
1.8409719467163086,3.07,3.7,-1.53,5.04
1.8509397506713867,2.14,1.46,-1.07,2.8
1.8769898414611816,2.06,-0.04,-0.09,2.06
1.877497911453247,0.41,1.15,1.74,2.12
1.8808197975158691,2.77,-0.43,-0.01,2.8
1.8908109664916992,7.09,-0.64,0.17,7.12
1.9007649421691895,9.28,-1.21,2.36,9.65
1.9108457565307617,7.66,-2.28,3.13,8.58
1.9208707809448242,5.84,-2.32,2.44,6.74
1.9307947158813477,5.88,-1.85,1.82,6.42
1.9408340454101562,6.17,-1.49,1.96,6.64
1.9507479667663574,5.6,-1.49,2.33,6.24
1.9774079322814941,4.68,-1.37,2.26,5.37
1.9779109954833984,3.88,-1.09,2.0,4.49
1.9806900024414062,3.33,-0.83,1.74,3.84
1.990750789642334,2.89,-0.44,1.45,3.26
2.0006790161132812,2.51,-0.01,1.2,2.78
2.0105278491973877,1.99,0.4,0.94,2.23
2.020689010620117,1.24,0.74,0.58,1.55
2.0306408405303955,0.22,0.95,0.25,1.0
2.060317039489746,-0.54,1.23,-0.17,1.35
2.060795783996582,-1.09,1.68,-0.51,2.06
2.0612597465515137,-1.68,1.94,-0.53,2.62
2.070535898208618,-2.36,1.86,-0.59,3.06
2.08058500289917,-2.91,1.69,-0.8,3.45
2.0905258655548096,-3.22,1.57,-1.1,3.74
2.1003479957580566,-3.19,1.43,-1.33,3.74
2.1104187965393066,-3.19,1.28,-1.38,3.7
2.1204378604888916,-3.57,1.14,-1.38,3.99
2.130459785461426,-4.27,0.34,-1.35,4.49
2.1606428623199463,-4.67,-0.64,-1.15,4.85
2.1611528396606445,-4.46,-1.17,-1.0,4.71
2.1616477966308594,-4.22,-1.28,-0.84,4.48
2.171409845352173,-4.17,-1.37,-0.91,4.48
2.1804049015045166,-4.12,-1.26,-1.11,4.44
2.1904120445251465,-3.86,-0.87,-1.41,4.2
2.200345039367676,-3.49,-0.34,-1.78,3.93
2.2102417945861816,-3.28,-0.16,-2.0,3.84
2.220308780670166,-3.3,-0.37,-1.98,3.86
2.2304129600524902,-3.84,-1.01,-2.04,4.46
2.261847972869873,-4.75,-1.46,-2.42,5.52
2.2623519897460938,-5.21,-1.57,-2.71,6.07
2.2628419399261475,-5.74,-1.33,-2.9,6.56
2.270277976989746,-5.58,-1.57,-2.92,6.49
2.280202865600586,-4.92,-1.04,-2.5,5.61
2.2901968955993652,-1.89,6.54,-2.88,7.39
2.3002467155456543,1.31,4.65,-1.51,5.06
2.310184955596924,5.77,1.29,2.46,6.4
2.3201217651367188,8.96,0.28,7.99,12.0
2.3301587104797363,4.99,-0.81,3.95,6.41
2.363163948059082,-0.63,-0.7,-3.12,3.25
2.3636717796325684,-3.71,0.79,-4.2,5.65
2.364165782928467,-3.05,1.69,-1.71,3.88
2.369980812072754,-1.97,2.37,-1.11,3.27
2.3800508975982666,-1.72,4.34,-1.12,4.8
2.390082836151123,-3.29,5.77,-1.24,6.75
2.400023937225342,-5.84,4.04,-2.48,7.52
2.4098899364471436,-5.44,1.38,-2.61,6.18
2.4199490547180176,-5.57,2.79,-2.48,6.7
2.4299728870391846,-6.59,0.78,-4.13,7.81
2.460951805114746,-4.17,0.4,-2.76,5.01
2.461493968963623,-1.73,-0.08,-0.36,1.76
2.4620180130004883,-1.3,-1.78,0.47,2.25
2.469810962677002,-2.01,-1.74,0.43,2.69
2.479918956756592,-2.76,-0.69,1.01,3.01
2.489961862564087,-3.48,-0.02,1.23,3.69
2.4999117851257324,-3.32,0.27,1.15,3.52
2.509950876235962,-1.91,0.11,0.79,2.06
2.5197219848632812,-0.76,-0.09,0.28,0.81
2.529780864715576,0.04,0.15,-0.39,0.41
2.5611958503723145,0.38,0.39,-0.87,1.02
2.5617427825927734,-0.02,0.35,-1.25,1.29
2.5622429847717285,-0.68,0.04,-1.7,1.83
2.569671869277954,-1.08,0.1,-2.08,2.34
2.5797648429870605,-0.91,0.28,-2.12,2.32
2.589776039123535,-0.76,0.27,-1.86,2.02
2.5996909141540527,-0.49,0.12,-1.66,1.73
2.6096649169921875,-0.11,0.04,-1.26,1.26
2.6197867393493652,-0.29,-0.11,-0.28,0.41
2.6296589374542236,-0.58,-0.2,0.36,0.71
2.661283016204834,-0.42,-0.15,0.69,0.82
2.661785840988159,-0.09,-0.11,0.9,0.91
2.6622798442840576,0.12,-0.28,1.23,1.26
2.669757843017578,0.07,-0.24,1.26,1.28
2.679724931716919,-0.23,0.03,0.2,0.3
2.6896467208862305,-0.41,-0.16,-0.28,0.52
2.6996397972106934,-0.42,-0.16,-0.24,0.5
2.7095470428466797,-0.04,0.11,-0.49,0.5
2.719796895980835,0.67,0.13,-0.34,0.76
2.729552745819092,0.91,-0.15,-0.59,1.09
2.761577844619751,0.64,0.0,-0.59,0.87
2.7620608806610107,0.63,0.2,-0.33,0.73
2.762557029724121,0.64,0.11,-0.41,0.76
2.769836902618408,0.26,0.07,-0.74,0.78
2.779456853866577,0.03,0.1,-0.53,0.54
2.78952693939209,-0.16,-0.05,-0.52,0.54
2.799956798553467,-0.39,-0.08,-0.49,0.63
2.809414863586426,-0.54,0.11,-0.09,0.55
2.8194029331207275,-0.49,0.06,-0.23,0.54
2.8293919563293457,-0.14,0.07,-0.42,0.44
2.8621697425842285,0.11,0.1,-0.73,0.74
2.8626699447631836,0.16,0.05,-1.35,1.36
2.8631577491760254,0.0,-0.23,-1.3,1.32
2.8692269325256348,-0.36,-0.23,-1.05,1.13
2.8792619705200195,-0.63,-0.01,-0.89,1.09
2.889291763305664,-0.53,0.09,-0.45,0.7
2.8992679119110107,-0.26,0.03,-0.31,0.4
2.9092397689819336,0.02,-0.13,-0.26,0.29
2.9192190170288086,0.21,-0.25,-0.26,0.41
2.9292519092559814,0.39,-0.09,-0.56,0.68
2.9624109268188477,0.44,-0.01,-0.66,0.79
2.9629130363464355,0.25,0.02,-0.54,0.59
2.9634058475494385,0.01,-0.01,-0.07,0.07
2.969085931777954,-0.12,-0.01,0.44,0.45
2.979142904281616,-0.08,-0.02,0.64,0.64
2.9891138076782227,0.14,-0.05,0.64,0.65
2.9990530014038086,0.29,-0.09,0.27,0.4
3.0090818405151367,0.38,-0.06,-0.15,0.41
3.0190720558166504,0.43,0.01,-0.16,0.45
3.0290169715881348,0.43,-0.03,0.23,0.48
3.062314033508301,0.35,-0.11,0.89,0.96
3.062819004058838,0.02,-0.14,1.24,1.24
3.063300848007202,0.19,-0.14,1.23,1.25
3.068950891494751,0.91,-0.05,1.32,1.6
3.078997850418091,1.77,0.09,1.14,2.1
3.089000940322876,2.47,0.16,0.88,2.62
3.0988917350769043,2.95,0.3,0.81,3.07
3.108944892883301,3.06,0.41,0.52,3.13
3.1189239025115967,3.12,0.62,0.17,3.18
3.1288418769836426,3.13,0.79,0.13,3.23
3.1621358394622803,2.71,0.65,0.16,2.79
3.1626410484313965,2.16,0.56,0.38,2.26
3.16314697265625,2.0,0.78,0.53,2.21
3.1688380241394043,2.05,1.42,0.52,2.54
3.178834915161133,2.25,2.13,0.69,3.17
3.1888508796691895,2.18,2.62,0.33,3.42
3.1987338066101074,2.03,4.86,-1.52,5.48
3.2087440490722656,3.6,6.77,-1.29,7.77
3.2187418937683105,3.57,6.03,1.08,7.09
3.22865891456604,3.76,5.18,-0.33,6.4
3.262685775756836,3.64,5.17,-1.05,6.4
3.2632088661193848,3.32,4.64,-0.6,5.73
3.2640600204467773,2.63,3.62,-0.42,4.49
3.268669843673706,1.68,3.2,-0.5,3.64
3.278618812561035,1.45,2.82,-0.53,3.21
3.2885899543762207,1.36,1.79,-0.64,2.33
3.298689842224121,1.04,-0.2,-0.51,1.17
3.3086469173431396,1.1,-0.99,-0.11,1.48
3.318492889404297,1.47,-0.77,1.01,1.94
3.3285269737243652,1.22,-0.8,2.07,2.53
3.362978935241699,4.29,0.05,0.47,4.31
3.3638648986816406,7.48,-0.37,1.02,7.55
3.364332914352417,6.98,-1.14,3.59,7.93
3.3684897422790527,5.66,-2.16,4.17,7.35
3.378513813018799,5.35,-2.52,3.23,6.73
3.388484001159668,5.78,-2.1,2.51,6.64
3.3984758853912354,5.84,-1.61,2.64,6.6
3.408512830734253,5.51,-1.37,2.91,6.38
3.418437957763672,5.02,-1.24,2.93,5.94
3.4283647537231445,4.52,-1.01,2.8,5.41
3.4629738330841064,3.99,-0.75,2.55,4.79
3.463848829269409,3.43,-0.47,2.18,4.09
3.4643330574035645,2.96,-0.11,1.88,3.5
3.468397855758667,2.22,0.09,1.81,2.86
3.4783599376678467,1.23,0.25,1.81,2.2
3.4884729385375977,0.07,0.32,1.47,1.5
3.498318910598755,-0.22,0.58,0.93,1.11
3.5083138942718506,0.51,1.23,0.34,1.37
3.5182290077209473,-0.93,1.82,0.77,2.18
3.528289794921875,-2.2,1.88,0.3,2.9
3.5634608268737793,-2.47,2.33,-0.46,3.42
3.5641870498657227,-2.41,2.6,-0.83,3.64
3.5646798610687256,-2.01,2.51,-0.92,3.34
3.5681889057159424,-1.82,2.24,-0.83,3.0
3.5782618522644043,-1.99,1.93,-0.78,2.87
3.5881810188293457,-2.66,1.43,-1.02,3.18
3.5981030464172363,-3.41,1.16,-1.46,3.88
3.608132839202881,-3.79,1.1,-1.94,4.39
3.617922782897949,-4.1,1.12,-2.44,4.9
3.6281237602233887,-4.45,1.04,-3.08,5.51
3.6643428802490234,-5.17,0.64,-3.55,6.3
3.664844036102295,-6.0,-0.27,-3.91,7.16
3.665313720703125,-6.75,-1.33,-4.41,8.17
3.6680498123168945,-7.11,-2.32,-4.44,8.69
3.678079843521118,-6.75,-2.98,-4.41,8.59
3.6879258155822754,-6.61,-2.65,-4.52,8.43
3.6980648040771484,-6.61,-0.6,-4.57,8.05
3.708127975463867,-3.08,5.35,-5.25,8.1
3.7179880142211914,0.06,2.21,-2.81,3.57
3.727975845336914,2.84,3.07,0.23,4.18
3.7648377418518066,8.19,3.33,7.52,11.6
3.7653379440307617,6.53,-1.64,8.07,10.5
3.7658278942108154,1.19,-1.86,-2.43,3.28
3.767835855484009,-2.75,-0.1,-5.14,5.83
3.7779018878936768,-2.97,0.58,-2.64,4.01
3.7877378463745117,-0.94,1.08,-1.32,1.94
3.7979469299316406,-0.14,2.37,-0.95,2.55
3.8080458641052246,-1.08,2.85,-0.51,3.09
3.8178799152374268,-2.97,3.05,-0.82,4.33
3.8278398513793945,-5.49,3.0,-1.61,6.46
3.8648178577423096,-6.73,2.65,-2.79,7.75
3.8653228282928467,-4.47,1.29,-3.17,5.62
3.865783929824829,-0.89,-0.2,-2.09,2.28
3.8676319122314453,-0.17,1.23,-1.32,1.81
3.8776397705078125,-3.42,0.47,-2.44,4.22
3.8876190185546875,-5.34,0.02,-3.08,6.16
3.8976550102233887,-4.78,0.6,-1.11,4.94
3.9077110290527344,-4.06,-0.33,-0.21,4.07
3.9176549911499023,-2.8,-0.7,-0.53,2.93
3.927609920501709,-0.45,-0.38,0.21,0.62
3.9652419090270996,1.18,-0.63,1.06,1.7
3.9657158851623535,1.01,-1.11,1.26,1.95
3.9661760330200195,0.03,-1.12,0.86,1.41
3.967498779296875,-1.21,-0.5,0.48,1.39
3.9775209426879883,-2.27,0.31,0.03,2.29
3.9877068996429443,-3.01,0.63,-0.14,3.07
3.9974827766418457,-3.34,0.57,-0.27,3.39
4.00752592086792,-3.47,0.19,-0.27,3.48
4.017502784729004,-3.37,0.11,0.08,3.37
4.0274999141693115,-2.38,-0.15,0.61,2.46
4.065231800079346,-1.03,-0.19,0.45,1.13
4.065725803375244,-0.32,-0.16,0.0,0.35
4.066188812255859,-0.63,-0.13,-0.58,0.86
4.067383766174316,-0.99,0.05,-0.88,1.32
4.077452898025513,-0.74,0.07,-1.01,1.25
4.087293863296509,-0.58,0.14,-1.88,1.97
4.097373008728027,-0.5,0.28,-2.52,2.58
4.107410907745361,-0.35,0.0,-2.21,2.23
4.11735987663269,-0.21,-0.15,-1.49,1.51
4.127344846725464,0.0,-0.13,-0.66,0.67
4.137301921844482,0.25,-0.06,-0.56,0.61
4.165448904037476,0.43,0.06,-0.92,1.01
4.165914058685303,0.47,-0.18,-0.53,0.73
4.167181968688965,0.44,-0.18,-0.02,0.47
4.1772589683532715,0.57,-0.06,0.32,0.65
4.187203884124756,0.59,-0.22,0.19,0.65
4.197207927703857,0.51,-0.06,-0.21,0.55
4.207266807556152,0.53,0.12,-0.14,0.56
4.217193841934204,0.5,0.15,-0.21,0.56
4.22720193862915,0.33,0.07,-0.36,0.49
4.237181901931763,0.29,0.04,-0.35,0.45
4.265763759613037,0.49,0.04,0.0,0.49
4.266207933425903,0.56,0.33,0.63,0.9
4.266988754272461,0.44,0.05,1.27,1.34
4.277132987976074,0.57,-0.23,1.03,1.19
4.287123918533325,0.58,-0.09,0.4,0.71
4.297064781188965,0.09,0.0,0.15,0.17
4.306980848312378,-0.3,-0.02,0.1,0.31
4.317046880722046,-0.1,0.08,-0.42,0.43
4.327013969421387,0.47,0.1,-1.7,1.76
4.336972713470459,0.56,-0.29,-1.55,1.67
4.3653528690338135,0.25,-0.11,-0.75,0.79
4.365822792053223,-0.02,-0.03,-0.16,0.16
4.366880893707275,-0.19,0.09,0.12,0.24
4.376955986022949,0.09,0.14,0.31,0.35
4.386898040771484,0.29,0.17,-0.01,0.33
4.396914005279541,0.36,-0.05,-0.58,0.68
4.406904935836792,0.24,-0.06,-0.84,0.87
4.416874885559082,-0.12,-0.07,-0.98,0.98
4.427000999450684,-0.75,-0.08,-0.79,1.09
4.436858892440796,-1.09,-0.05,-0.43,1.17
4.465542793273926,-0.9,-0.03,0.2,0.92
4.466012001037598,-0.47,0.06,0.58,0.74
4.466681003570557,-0.32,0.12,0.48,0.58
4.476815938949585,-0.1,0.08,0.37,0.39
4.486766815185547,-0.14,-0.05,-0.06,0.16
4.496729850769043,-0.45,-0.1,-0.64,0.78
4.506814956665039,-0.5,-0.13,-0.48,0.7
4.516747951507568,-0.56,-0.22,-0.02,0.6
4.526744842529297,-0.83,-0.29,0.45,0.98
4.536654949188232,-1.02,-0.27,0.84,1.34
4.565733909606934,-0.95,-0.32,0.71,1.22
4.566222906112671,-0.58,-0.07,-0.01,0.58
4.5666868686676025,0.12,0.28,-0.35,0.46
4.576615810394287,0.51,0.26,-0.3,0.64
4.586561918258667,0.81,0.2,-0.53,0.98
4.59656286239624,0.77,0.18,-0.21,0.81
4.606581926345825,0.48,0.16,-0.01,0.5
4.61647891998291,0.5,0.13,-0.06,0.52
4.626561880111694,0.68,0.14,0.23,0.73
4.636490821838379,0.91,0.07,0.17,0.92
4.6653828620910645,1.42,0.09,-0.26,1.44
4.665860891342163,2.12,0.2,-0.13,2.13
4.666391849517822,3.0,0.3,0.19,3.02
4.676508903503418,3.74,0.31,0.34,3.76
4.6864259243011475,3.96,0.43,0.89,4.08
4.69646692276001,3.89,0.87,0.86,4.07
4.70649790763855,4.15,1.43,0.27,4.39
4.71638298034668,4.69,1.61,0.22,4.96
4.726414918899536,5.14,1.23,-0.02,5.28
4.736302852630615,4.6,1.29,-0.81,4.84
4.7652907371521,2.84,1.46,-0.59,3.24
4.765762805938721,1.53,2.44,0.29,2.89
4.766368865966797,1.39,4.21,0.35,4.44
4.776206016540527,2.81,5.12,-0.42,5.85
4.786241054534912,2.99,5.7,1.43,6.59
4.796181917190552,4.33,5.87,0.4,7.3
4.806380748748779,5.34,6.43,0.62,8.38
4.816279888153076,4.91,5.95,0.33,7.72
4.8262858390808105,4.17,5.67,-0.78,7.08
4.836207866668701,3.38,5.44,-0.88,6.46
4.864535808563232,2.67,4.63,-0.61,5.37
4.865001916885376,1.41,3.68,-0.81,4.02
4.866144895553589,0.7,2.94,-1.49,3.36
4.876173973083496,-0.39,1.65,-1.22,2.08
4.886105060577393,-3.0,0.99,0.32,3.17
4.89608097076416,-3.11,-0.73,-0.57,3.24
4.906085968017578,0.82,-1.25,-0.56,1.59
4.916024923324585,4.71,-2.27,1.86,5.54
4.926142930984497,2.61,-2.26,2.84,4.47
4.936011791229248,2.11,-2.79,0.53,3.53
4.964673042297363,5.37,-2.52,1.38,6.09
4.965145826339722,7.88,-2.21,3.26,8.8
4.965963840484619,8.24,-2.69,4.04,9.56
4.975956916809082,7.32,-3.18,3.96,8.9
4.986004829406738,6.76,-3.09,3.26,8.11
4.995977878570557,6.74,-2.81,2.8,7.82
5.0058088302612305,6.71,-2.57,2.75,7.69
5.015933036804199,6.09,-2.36,2.78,7.09
5.025970935821533,4.78,-2.13,2.84,5.95
5.035933971405029,3.62,-1.77,2.54,4.76
5.064671039581299,3.03,-0.9,1.84,3.65
5.065135955810547,2.62,0.24,1.2,2.89
5.06570291519165,1.83,1.21,0.49,2.24
5.075835943222046,0.88,2.03,-0.81,2.35
5.085775852203369,-0.31,2.45,-1.8,3.05
5.0959367752075195,-1.13,2.31,-2.08,3.3
5.105640888214111,-3.03,2.16,-1.39,3.97
5.115721940994263,-5.72,1.49,-1.39,6.07
5.125772953033447,-6.17,1.03,-2.26,6.65
5.13575291633606,-5.34,1.19,-2.5,6.01
5.164906024932861,-4.18,1.41,-2.26,4.95
5.165374755859375,-3.91,1.51,-2.16,4.71
5.165832996368408,-4.22,1.72,-2.41,5.15
5.175624847412109,-4.58,2.13,-2.96,5.85
5.185629844665527,-4.46,2.28,-2.9,5.78
5.195629835128784,-3.99,2.04,-2.49,5.12
5.205485820770264,-3.99,1.35,-2.3,4.79
5.215666770935059,-4.26,0.25,-2.01,4.71
5.225570917129517,-4.38,-1.07,-1.75,4.83
5.235541820526123,-4.37,-1.76,-1.76,5.02
5.2653608322143555,-4.25,-1.37,-2.15,4.95
5.265828847885132,-4.09,-0.76,-2.82,5.02
5.266288757324219,-4.15,-0.7,-3.0,5.16
5.275506019592285,-4.25,-0.89,-3.08,5.32
5.285452842712402,-3.77,4.21,-4.09,6.97
5.2954418659210205,-1.08,4.43,-4.04,6.09
5.3056418895721436,0.28,-1.68,-2.23,2.8
5.315515995025635,2.26,2.5,1.38,3.64
5.325494766235352,5.17,2.58,7.61,9.55
5.335458755493164,2.72,-1.37,3.6,4.71
5.365180015563965,-1.29,-0.66,-1.89,2.38
5.365654945373535,-3.41,0.89,-1.82,3.96
5.366128921508789,-2.52,0.78,-0.48,2.68
5.375366926193237,-1.48,0.7,-0.34,1.67
5.38528299331665,-0.87,0.9,-0.24,1.27
5.3953118324279785,-0.46,0.67,-0.21,0.83
5.405696868896484,-0.86,0.67,-1.16,1.59
5.415318012237549,-1.85,2.16,-2.19,3.58
5.425364017486572,-3.62,4.21,-2.99,6.3
5.435232877731323,-5.16,5.39,-3.44,8.21
5.4656829833984375,-4.61,2.64,-2.2,5.74
5.466153860092163,-2.73,-0.19,-0.12,2.73
5.46661376953125,-1.53,-0.55,0.17,1.63
5.475317001342773,-1.76,0.39,-1.2,2.16
5.485222816467285,-3.0,-0.43,-3.23,4.42
5.495203018188477,-2.33,1.19,-2.78,3.81
5.505022048950195,-0.57,1.04,-0.9,1.48
5.515216827392578,0.13,-0.69,0.43,0.82
5.5252227783203125,-0.33,-1.21,0.75,1.46
5.535191059112549,-1.02,-1.24,1.03,1.9
5.565722942352295,-1.31,-1.37,1.4,2.35
5.566191911697388,-1.34,-0.38,1.11,1.78
5.566654920578003,-0.84,0.33,-0.15,0.91
5.574985027313232,-0.66,-0.11,-0.67,0.94
5.584897994995117,-0.41,-0.56,-0.81,1.06
5.594894886016846,-0.07,-0.89,-0.9,1.26
5.6048407554626465,-0.32,-0.56,-0.85,1.06
5.614811897277832,-1.51,0.24,-0.76,1.7
5.6250269412994385,-2.51,0.59,-1.14,2.81
5.634925842285156,-2.44,0.42,-1.19,2.74
5.666812896728516,-1.96,0.06,-1.08,2.23
5.667280912399292,-1.53,0.0,-0.95,1.8
5.6677398681640625,-1.54,-0.19,-0.57,1.65
5.674909830093384,-1.63,-0.15,-0.29,1.66
5.684813976287842,-1.07,0.13,-0.58,1.22
5.694890975952148,-0.38,-0.07,-0.9,0.97
5.704771041870117,0.11,-0.22,-0.68,0.72
5.714889049530029,0.35,-0.32,-0.23,0.52
5.724854946136475,0.21,-0.3,0.15,0.39
5.734811782836914,-0.07,-0.08,0.03,0.11
5.766948938369751,-0.28,0.02,-0.56,0.62
5.767417907714844,-0.01,-0.16,-1.18,1.19
5.767876863479614,0.32,-0.35,-1.28,1.36
5.77477502822876,0.45,-0.09,-1.31,1.38
5.784672737121582,0.66,0.08,-1.23,1.39
5.794724941253662,0.71,0.1,-0.81,1.08
5.804680824279785,0.63,0.19,-0.72,0.97
5.814669847488403,0.48,0.08,-0.84,0.97
5.8246660232543945,0.54,-0.09,-0.5,0.74
5.834691047668457,0.6,-0.24,0.01,0.64
5.866724014282227,0.03,-0.14,0.24,0.27
5.867198944091797,-1.01,0.06,0.15,1.02
5.867660999298096,-1.17,0.08,-0.01,1.17
5.874608993530273,-0.37,-0.06,0.52,0.64
5.884598731994629,-0.37,0.01,1.2,1.25
5.894575834274292,-1.2,0.24,1.11,1.65
5.9045538902282715,-1.76,0.23,0.88,1.98
5.914471864700317,-1.52,-0.09,0.84,1.73
5.924569845199585,-0.43,-0.1,0.73,0.85
5.93438196182251,0.15,0.0,0.68,0.69
5.967397928237915,-0.38,0.01,0.54,0.66
5.96787691116333,-0.85,0.16,0.2,0.88
5.968335866928101,-0.8,0.05,-0.18,0.82
5.974437713623047,-0.34,0.0,-0.74,0.81
5.984453916549683,0.33,0.12,-1.08,1.13
5.994433879852295,0.56,-0.02,-0.63,0.84
6.004326820373535,-0.04,-0.11,-0.32,0.34
6.014382839202881,-0.36,0.08,-0.55,0.66
6.024374008178711,-0.01,0.08,-0.58,0.58
6.034331798553467,0.8,0.02,-0.51,0.94
6.067144870758057,1.19,-0.01,-0.32,1.23
6.067613840103149,0.92,0.01,-0.24,0.95
6.068076848983765,0.98,0.05,-0.07,0.98
6.074270725250244,1.5,0.03,0.08,1.5
6.084213733673096,2.04,0.05,-0.04,2.04
6.0942277908325195,2.13,-0.19,0.28,2.15
6.104170799255371,1.2,-0.24,0.3,1.26
6.114274024963379,-0.29,-0.2,0.24,0.42
6.124234914779663,-1.47,-0.25,0.3,1.52
6.134243011474609,-1.96,-0.14,0.08,1.96
6.166398048400879,-1.46,-0.02,-0.16,1.46
6.166866779327393,-0.58,-0.03,-0.09,0.58
6.167327880859375,0.04,0.14,-0.28,0.31
6.1740429401397705,0.34,0.17,-0.43,0.57
6.1840598583221436,0.53,0.01,-0.41,0.67
6.193967819213867,0.19,0.01,-0.65,0.67
6.203950881958008,0.16,0.25,-0.6,0.66
6.213954925537109,0.33,0.26,-0.49,0.64
6.224020957946777,0.11,0.18,-0.35,0.4
6.233985900878906,-0.41,0.12,-0.12,0.44
6.267148971557617,-0.58,0.08,0.01,0.58
6.267615795135498,-0.38,0.1,0.03,0.39
6.268072843551636,-0.02,0.09,0.1,0.13
6.273874759674072,0.32,0.13,0.28,0.44
6.283938884735107,0.6,0.32,0.33,0.75
6.293876886367798,0.79,0.35,0.27,0.9
6.303846836090088,0.92,0.17,0.3,0.98
6.3137969970703125,0.68,0.09,0.63,0.93
6.323730945587158,0.29,0.29,1.17,1.23
6.333734035491943,0.19,0.53,1.11,1.24
6.367009878158569,0.77,0.65,0.4,1.08
6.367476940155029,1.74,0.55,0.01,1.82
6.367934942245483,2.6,0.53,-0.08,2.65
6.373656749725342,3.19,0.86,-0.25,3.31
6.383709907531738,3.65,1.16,0.05,3.83
6.393702983856201,3.81,1.35,0.31,4.05
6.40369176864624,3.07,2.12,0.15,3.73
6.413726806640625,2.97,3.34,0.49,4.49
6.42352294921875,2.79,3.41,1.63,4.69
6.433611869812012,2.57,3.21,1.27,4.3
6.466570854187012,2.82,3.41,0.72,4.48
6.467010021209717,3.13,3.96,0.64,5.08
6.4674389362335205,3.8,4.4,0.3,5.82
6.473414897918701,4.49,4.47,0.24,6.34
6.483592987060547,4.86,4.46,-0.26,6.6
6.493600845336914,4.63,4.2,-1.0,6.33
6.50353479385376,3.65,3.73,-1.68,5.48
6.5134289264678955,2.27,3.1,-2.4,4.53
6.5234479904174805,1.07,2.09,-2.65,3.54
6.533500909805298,0.62,0.44,-1.8,1.95
6.566871881484985,1.01,-0.26,-0.28,1.07
6.56732177734375,0.84,-1.08,1.51,2.03
6.567754745483398,1.1,-2.03,1.02,2.52
6.5734968185424805,5.06,-1.85,-1.16,5.51
6.583405017852783,8.11,-1.26,0.33,8.21
6.593422889709473,8.54,-1.8,2.02,8.95
6.603317737579346,7.73,-3.03,2.42,8.64
6.613280773162842,7.17,-3.63,2.25,8.34
6.623592853546143,7.03,-3.32,2.29,8.1
6.6333417892456055,6.76,-2.88,2.5,7.76
6.667702913284302,5.95,-2.43,2.23,6.8
6.668486833572388,5.11,-1.67,1.82,5.67
6.668920040130615,4.56,-0.59,1.61,4.87
6.673731803894043,3.7,0.49,1.37,3.97
6.6833178997039795,2.76,1.29,1.04,3.21
6.693291902542114,2.19,1.92,0.83,3.02
6.70319390296936,1.63,2.55,0.58,3.08
6.7132768630981445,1.52,3.16,-0.2,3.51
6.723129749298096,1.14,3.85,-0.72,4.07
6.733246803283691,-1.68,4.15,-0.45,4.49
6.767838001251221,-3.63,3.84,-1.01,5.37
6.768634796142578,-4.23,3.53,-1.32,5.66
6.769067764282227,-3.79,3.23,-1.09,5.09
6.773124933242798,-3.22,2.81,-0.88,4.36
6.783143997192383,-2.9,2.37,-0.91,3.85
6.79315185546875,-3.16,2.16,-1.07,3.97
6.803086757659912,-3.28,1.91,-1.54,4.09
6.8130340576171875,-3.27,1.51,-1.73,3.99
6.823030948638916,-3.51,0.9,-1.82,4.05
6.83305287361145,-4.18,0.31,-1.89,4.59
6.868000030517578,-5.22,-0.08,-1.88,5.54
6.868638038635254,-6.09,-0.55,-1.85,6.38
6.869065761566162,-6.32,-0.89,-1.77,6.62
6.872951030731201,-5.98,-1.05,-1.89,6.35
6.882920742034912,-5.43,-1.51,-2.1,6.01
6.892889022827148,-4.99,-1.77,-2.06,5.68
6.902856826782227,-5.01,-1.89,-2.08,5.74
6.912879943847656,-4.99,-2.1,-1.91,5.74
6.922919750213623,-4.87,-1.83,-2.14,5.62
6.9328649044036865,-4.9,-1.42,-2.75,5.79
6.96727991104126,-5.07,-1.52,-3.18,6.17
6.968051910400391,-5.03,-1.59,-3.24,6.19
6.968477725982666,-2.77,4.72,-3.25,6.36
6.972792863845825,-0.97,4.46,-2.33,5.12
6.982748031616211,3.22,0.09,-1.04,3.38
6.992769718170166,10.02,0.28,5.82,11.59
7.00279688835144,9.05,-0.45,7.42,11.71
7.012829780578613,3.14,0.11,0.98,3.29
7.022780895233154,-2.15,0.59,-2.4,3.27
7.032721042633057,-2.59,1.35,-1.77,3.41
7.069015979766846,-0.55,2.0,-0.94,2.27
7.069478988647461,0.06,2.56,-1.09,2.78
7.069953918457031,-0.93,1.98,-0.74,2.3
7.072653770446777,-2.31,0.04,-0.4,2.34
7.082612991333008,-3.03,-0.85,-0.27,3.15
7.092617988586426,-3.48,0.12,-0.48,3.51
7.102504730224609,-3.58,1.05,-1.43,3.99
7.112576007843018,-2.32,0.97,-2.17,3.32
7.122521877288818,-1.3,0.69,-1.08,1.82
7.132577896118164,-3.51,2.02,-1.47,4.3
7.168177843093872,-6.1,-0.1,-4.05,7.32
7.1686177253723145,-5.27,0.87,-4.23,6.81
7.1690449714660645,-2.51,1.12,-1.9,3.34
7.172430038452148,-1.15,-0.58,-0.71,1.47
7.182525873184204,-0.5,-1.01,-1.06,1.54
7.1924920082092285,0.28,-0.26,-0.99,1.06
7.202494859695435,0.05,-0.05,-0.13,0.14
7.212467908859253,-0.94,0.12,0.36,1.01
7.222418785095215,-1.45,0.35,-0.73,1.66
7.232447862625122,-1.86,0.04,-1.15,2.18
7.268054962158203,-1.63,-0.35,-0.54,1.75
7.268502712249756,-1.47,-0.45,0.16,1.54
7.268928050994873,-1.8,-0.41,-0.04,1.84
7.272328853607178,-2.05,-0.34,-0.17,2.08
7.2823710441589355,-2.08,-0.37,0.12,2.11
7.292265892028809,-1.5,-0.31,0.09,1.53
7.302275896072388,-1.17,-0.26,0.87,1.48
7.312279939651489,-1.05,-0.19,1.31,1.68
7.322230815887451,-0.87,-0.21,1.31,1.58
7.332278728485107,-0.85,-0.24,1.39,1.64
7.368700981140137,-1.07,-0.18,1.09,1.53
7.369144916534424,-1.04,-0.13,0.78,1.3
7.369569778442383,-1.14,0.06,0.05,1.14
7.372166872024536,-1.36,0.21,-0.79,1.58
7.382205009460449,-1.16,0.34,-1.48,1.91
7.3921308517456055,-0.87,0.16,-2.15,2.32
7.402186870574951,-0.49,-0.16,-1.83,1.9
7.412209987640381,-0.27,0.03,-1.11,1.14
7.422131061553955,-0.12,0.2,-0.58,0.62
7.431993007659912,0.22,0.18,-0.67,0.72
7.46922492980957,0.79,0.08,-0.86,1.17
7.469672918319702,1.23,-0.06,-0.55,1.34
7.470099925994873,1.22,-0.19,-0.17,1.24
7.4719789028167725,0.71,-0.12,0.25,0.76
7.482094764709473,0.04,0.21,0.46,0.5
7.492057800292969,-0.22,0.27,0.43,0.55
7.502037048339844,-0.06,0.03,0.25,0.25
7.5120038986206055,0.25,-0.08,-0.1,0.28
7.522003889083862,0.45,-0.16,-0.29,0.55
7.532043933868408,0.36,-0.17,-0.15,0.42
7.568726062774658,0.58,0.18,-0.01,0.6
7.569162845611572,0.67,0.24,-0.22,0.74
7.5695788860321045,0.56,0.05,-0.92,1.07
7.571869850158691,0.67,-0.15,-1.05,1.25
7.581944942474365,0.59,0.04,-0.78,0.97
7.5918638706207275,0.34,0.13,-0.57,0.67
7.601860046386719,0.41,0.2,-0.43,0.62
7.6117730140686035,0.62,0.17,-0.41,0.76
7.6217360496521,0.16,-0.07,-0.66,0.68
7.631746768951416,-0.64,-0.32,-0.84,1.1
7.668697834014893,-1.03,-0.28,-0.35,1.12
7.669131755828857,-0.79,-0.01,0.09,0.79
7.669549942016602,-0.16,0.0,0.26,0.3
7.671738862991333,0.3,0.04,0.34,0.45
7.681721925735474,0.45,0.07,0.37,0.58
7.692483901977539,0.31,-0.01,0.31,0.43
7.701976776123047,0.11,-0.08,0.14,0.19
7.711664915084839,-0.01,-0.08,-0.11,0.13
7.721683979034424,0.04,-0.07,-0.26,0.27
7.731657028198242,-0.19,-0.16,-0.61,0.65
7.768791913986206,-0.52,-0.19,-0.68,0.87
7.769217014312744,-0.81,-0.27,-0.41,0.94
7.769633769989014,-0.97,-0.26,0.01,1.0
7.7715630531311035,-0.59,-0.07,0.13,0.6
7.781548976898193,0.08,0.11,-0.05,0.14
7.791476726531982,0.7,0.25,-0.1,0.75
7.801459789276123,0.94,0.27,-0.29,1.02
7.811530828475952,0.64,0.09,-0.71,0.96
7.821497917175293,0.1,-0.08,-0.93,0.93
7.831564903259277,-0.27,-0.16,-0.85,0.9
7.869024753570557,-0.34,-0.12,-0.65,0.74
7.869466781616211,-0.26,-0.04,-0.33,0.42
7.869884014129639,-0.08,0.01,-0.02,0.08
7.87139892578125,0.15,0.03,0.09,0.17
7.881458759307861,0.44,0.0,0.21,0.48
7.891453742980957,0.35,-0.21,0.51,0.65
7.90139102935791,-0.16,-0.4,0.24,0.49
7.9114508628845215,-0.57,-0.25,-0.08,0.62
7.921288013458252,-0.56,0.16,-0.17,0.6
7.931336879730225,-0.19,0.44,-0.39,0.61
7.9698567390441895,0.06,0.3,-0.36,0.47
7.970297813415527,0.07,0.19,-0.2,0.28
7.97072172164917,0.22,0.22,-0.02,0.31
7.971168041229248,0.32,0.25,0.14,0.42
7.981227874755859,0.19,0.32,0.2,0.42
7.991487979888916,-0.17,0.34,0.24,0.44
8.001275062561035,-0.38,0.3,0.15,0.5
8.011318922042847,-0.02,0.09,0.17,0.19
8.021275043487549,0.91,-0.19,0.05,0.93
8.031181812286377,2.15,-0.14,0.07,2.15
8.041220903396606,3.37,0.19,0.64,3.43
8.069602966308594,4.08,0.54,0.74,4.18
8.07002592086792,3.83,0.85,0.52,3.95
8.071057796478271,3.4,0.99,0.46,3.57
8.081093788146973,3.25,0.9,0.2,3.37
8.091035842895508,2.8,0.55,0.19,2.85
8.101017951965332,2.01,0.35,-0.21,2.05
8.111066818237305,1.69,1.44,-0.6,2.29
8.121103763580322,2.12,2.81,-0.08,3.52
8.131066799163818,3.14,2.76,0.87,4.27
8.14100193977356,3.52,2.83,0.83,4.59
8.169513940811157,3.45,3.36,0.82,4.88
8.169939041137695,3.43,4.31,0.95,5.58
8.170849800109863,3.44,5.07,0.81,6.18
8.18098783493042,3.46,5.39,0.27,6.41
8.190917015075684,3.07,5.31,-0.41,6.14
8.200922966003418,2.69,4.79,-1.18,5.61
8.21087384223938,2.58,4.4,-2.22,5.56
8.220852851867676,2.55,3.58,-2.85,5.23
8.230868816375732,1.74,2.02,-2.56,3.69
8.240822792053223,0.34,-0.29,-1.79,1.84
8.269528865814209,0.75,-1.31,-1.14,1.89
8.269954919815063,2.09,-1.44,0.1,2.54
8.270699977874756,1.97,-2.16,1.62,3.34
8.280829906463623,4.23,-1.99,0.24,4.68
8.290745735168457,7.57,-1.64,-0.32,7.75
8.300632953643799,8.51,-1.43,1.56,8.76
8.310762882232666,8.01,-1.72,2.81,8.66
8.320696830749512,7.01,-2.19,2.93,7.9
8.330720901489258,6.41,-1.78,2.34,7.05
8.340608835220337,5.93,-0.96,2.02,6.33
8.370213985443115,5.29,-0.68,2.06,5.71
8.370649814605713,4.75,-0.65,2.07,5.22
8.371068000793457,4.46,-0.35,2.16,4.96
8.380699872970581,4.17,0.2,2.17,4.7
8.390583992004395,3.42,0.69,2.05,4.04
8.40051794052124,2.58,1.15,1.65,3.27
8.410648822784424,1.99,1.67,1.02,2.79
8.420567989349365,1.6,2.15,0.63,2.75
8.430524826049805,1.3,2.6,0.65,2.97
8.44049882888794,0.69,2.99,0.76,3.16
8.470598936080933,-0.05,3.29,0.66,3.35
8.471027851104736,0.14,3.59,-0.03,3.59
8.471450805664062,-0.14,3.61,-0.13,3.61
8.48046875,-2.01,3.14,0.31,3.74
8.490380764007568,-2.59,2.56,-0.05,3.64
8.500388860702515,-3.11,2.39,-0.6,3.96
8.510348796844482,-3.99,2.43,-1.44,4.88
8.520384788513184,-4.47,2.43,-2.43,5.63
8.530377864837646,-4.26,2.3,-2.95,5.66
8.540359020233154,-3.92,1.88,-3.18,5.38
8.570513725280762,-4.2,1.06,-3.59,5.62
8.570937871932983,-5.36,0.16,-3.88,6.61
8.571353912353516,-6.51,-0.62,-4.06,7.69
8.580392837524414,-7.54,-1.32,-4.49,8.87
8.590126991271973,-8.11,-2.25,-4.56,9.57
8.600276947021484,-7.86,-3.05,-4.25,9.44
8.61034083366394,-7.21,-3.17,-4.07,8.86
8.620237827301025,-6.17,-3.27,-3.97,8.03
8.65251088142395,-5.44,-3.19,-4.13,7.53
8.652935028076172,-5.13,-2.78,-4.41,7.31
8.653357982635498,-4.84,-1.82,-4.35,6.75
8.660173892974854,-1.6,6.05,-4.49,7.7
8.6700758934021,2.55,4.28,-2.24,5.46
8.680162906646729,9.66,2.84,1.89,10.24
8.69009780883789,14.94,-0.13,14.85,21.06
8.70038390159607,8.16,-1.68,8.6,11.97
8.710132837295532,-1.16,-0.73,-3.12,3.4
8.720088958740234,-5.64,-0.3,-4.06,6.95
8.754243850708008,-4.43,0.84,-1.37,4.71
8.755009889602661,-2.41,1.54,-0.83,2.97
8.75541877746582,-1.42,2.46,-0.83,2.95
8.759933948516846,-1.4,3.61,-0.32,3.88
8.769993782043457,-2.75,3.76,-1.07,4.77
8.780083894729614,-4.45,2.24,-2.56,5.6
8.789886951446533,-3.77,-0.17,-2.99,4.81
8.799793720245361,-3.11,0.08,-2.04,3.72
8.809910774230957,-4.75,3.44,-3.17,6.66
8.819918870925903,-7.0,1.4,-5.57,9.05
8.853662967681885,-5.33,1.48,-4.96,7.42
8.854095935821533,-2.08,0.51,-1.97,2.9
8.854837894439697,-1.29,-1.76,-0.47,2.23
8.859745979309082,-1.88,-2.1,-1.23,3.07
8.869764804840088,-1.82,-1.11,-1.71,2.73
8.879837989807129,-1.41,-0.02,-0.91,1.67
8.889808893203735,-1.16,0.5,0.11,1.26
8.899634838104248,-0.92,0.29,0.47,1.07
8.909639835357666,-1.04,-0.35,0.37,1.15
8.919777870178223,-1.23,-0.53,0.07,1.34
8.954131841659546,-1.44,-0.08,-0.12,1.44
8.954885959625244,-1.34,0.08,-0.04,1.34
8.955304861068726,-1.31,0.07,0.16,1.32
8.959601879119873,-1.15,-0.01,-0.04,1.15
8.969630718231201,-0.87,-0.28,-0.35,0.97
8.979737758636475,-0.96,-0.37,-0.53,1.15
8.98962688446045,-1.41,-0.14,-0.47,1.49
8.999619960784912,-1.78,0.17,-0.13,1.79
9.009533882141113,-1.74,0.24,0.21,1.76
9.019696712493896,-1.28,0.1,0.43,1.35
9.053969860076904,-0.62,-0.04,0.32,0.69
9.054738998413086,-0.15,-0.17,0.31,0.38
9.055154800415039,0.05,-0.32,0.52,0.61
9.059322834014893,-0.22,-0.12,-0.15,0.29
9.069633960723877,-0.64,0.07,-0.91,1.11
9.079604864120483,-0.6,0.05,-0.77,0.97
9.08958387374878,-0.37,-0.07,-0.59,0.69
9.099531888961792,-0.45,-0.04,-0.83,0.94
9.109349727630615,-0.74,0.1,-1.01,1.25
9.119547843933105,-0.93,0.23,-1.45,1.73
9.154440879821777,-0.63,0.26,-2.27,2.37
9.155057907104492,-0.02,-0.17,-1.28,1.29
9.155481815338135,0.24,-0.05,-0.48,0.53
9.159259796142578,0.19,0.19,-0.52,0.58
9.16929578781128,0.16,-0.2,-0.42,0.49
9.179368019104004,0.33,-0.35,0.06,0.48
9.189323902130127,0.41,-0.07,0.42,0.59
9.19930386543274,0.41,-0.08,0.71,0.82
9.209337711334229,0.52,0.01,0.48,0.7
9.219296932220459,0.82,0.1,-0.16,0.84
9.254435062408447,1.08,0.01,-0.66,1.26
9.255053997039795,1.18,0.08,-0.69,1.36
9.255475997924805,1.14,0.1,-0.68,1.33
9.259407997131348,0.81,0.0,-0.81,1.14
9.269186973571777,0.39,0.17,-0.71,0.82
9.279311895370483,0.04,0.1,-0.33,0.34
9.289200782775879,-0.43,-0.08,0.01,0.43
9.299192905426025,-0.71,-0.04,0.29,0.76
9.309412956237793,-0.48,-0.07,0.56,0.74
9.319103717803955,-0.15,-0.16,0.58,0.62
9.355361938476562,-0.43,-0.06,0.33,0.54
9.355796813964844,-0.74,0.02,0.08,0.74
9.356217861175537,-0.57,-0.05,-0.24,0.62
9.359052896499634,-0.36,-0.03,-0.54,0.64
9.368883848190308,-0.42,0.06,-0.41,0.59
9.379063844680786,-0.57,-0.08,-0.17,0.6
9.389015913009644,-0.42,-0.12,-0.1,0.44
9.399008750915527,-0.15,0.05,0.04,0.16
9.408992767333984,0.06,-0.01,0.19,0.19
9.41891098022461,0.23,-0.08,0.07,0.25
9.455643892288208,0.32,-0.02,-0.04,0.32
9.456078052520752,0.4,-0.05,-0.14,0.42
9.456495761871338,0.42,-0.02,-0.39,0.57
9.458879947662354,0.65,0.0,-0.24,0.69
9.468684911727905,0.65,-0.05,-0.27,0.7
9.478871822357178,0.42,0.01,-0.53,0.67
9.48879098892212,0.3,-0.04,-0.35,0.46
9.498837947845459,0.16,0.03,-0.37,0.4
9.508831977844238,0.18,0.15,-0.33,0.4
9.51885986328125,0.5,0.12,-0.19,0.54
9.555459976196289,0.53,0.06,-0.22,0.57
9.555898904800415,0.4,0.02,-0.28,0.48
9.556315898895264,0.64,-0.04,-0.17,0.66
9.558711051940918,0.83,-0.06,0.04,0.83
9.568720817565918,0.63,-0.06,0.3,0.7
9.578749895095825,0.24,-0.04,0.64,0.68
9.588680744171143,-0.11,-0.03,0.81,0.81
9.598724842071533,-0.26,-0.04,1.04,1.07
9.608656883239746,-0.26,0.1,1.11,1.14
9.618553876876831,-0.3,0.0,0.69,0.75
9.655892848968506,-0.55,0.02,-0.01,0.55
9.656319856643677,-0.51,0.16,-0.89,1.03
9.656738758087158,-0.24,0.14,-1.31,1.33
9.658627986907959,0.01,0.19,-1.21,1.22
9.668550968170166,0.43,0.23,-0.53,0.72
9.678653717041016,1.11,0.17,0.44,1.2
9.688532829284668,2.07,0.09,1.56,2.59
9.698631763458252,3.21,0.13,2.1,3.83
9.708412885665894,3.82,0.42,1.65,4.18
9.718455791473389,3.92,0.62,1.85,4.37
9.756272792816162,3.93,0.81,1.5,4.28
9.756706714630127,3.36,1.0,0.46,3.53
9.757126808166504,2.57,0.71,0.04,2.66
9.758436918258667,1.6,0.6,-0.96,1.96
9.768335819244385,0.44,2.07,-1.44,2.55
9.778487920761108,0.21,3.49,-0.09,3.49
9.788465023040771,0.91,2.88,1.64,3.43
9.798396825790405,1.14,2.77,0.62,3.05
9.808269023895264,1.5,3.74,-0.02,4.02
9.818277835845947,2.58,5.03,-0.6,5.68
9.856880903244019,4.54,6.01,-1.24,7.63
9.857306003570557,5.84,5.97,-1.86,8.55
9.857722759246826,5.87,5.29,-2.27,8.22
9.85840892791748,5.26,5.42,-2.66,8.0
9.868342876434326,4.1,4.86,-2.52,6.83
9.878310918807983,2.28,2.77,-1.8,4.01
9.888144969940186,0.4,1.4,-1.47,2.06
9.898242950439453,-0.71,0.32,-1.32,1.53
9.908228874206543,-1.62,-0.42,-1.1,2.0
9.918258905410767,-1.5,-0.87,-1.32,2.17
9.957582950592041,1.48,-1.27,-1.06,2.21
9.958014011383057,4.56,-1.88,0.62,4.97
9.958431720733643,3.68,-1.09,1.59,4.15
9.958849906921387,6.45,-1.36,-0.23,6.59
9.968219757080078,10.59,-1.34,1.5,10.77
9.978142738342285,11.43,-1.25,4.09,12.2
9.988095760345459,10.03,-2.08,4.91,11.35
9.998106002807617,8.03,-2.97,4.28,9.57
10.008041858673096,7.08,-2.78,3.45,8.35
10.017905712127686,6.83,-2.06,2.94,7.71
10.057600021362305,6.27,-1.43,2.59,6.93
10.05803394317627,5.15,-1.11,2.31,5.75
10.058452844619751,4.03,-1.02,2.22,4.71
10.058873891830444,3.32,-0.46,2.12,3.96
10.067968845367432,2.87,0.46,1.98,3.51
10.077952861785889,2.59,1.49,1.81,3.49
10.08788776397705,2.48,2.33,0.98,3.54
10.097830772399902,1.83,2.77,-0.52,3.36
10.107831954956055,-0.41,3.36,-1.33,3.63
10.117782831192017,-4.68,3.22,-1.35,5.83
10.158365726470947,-6.96,2.55,-1.59,7.58
10.158799886703491,-6.78,2.26,-1.66,7.33
10.159217834472656,-5.13,2.04,-1.56,5.73
10.1596360206604,-3.64,1.83,-1.62,4.38
10.167809963226318,-2.68,1.76,-2.08,3.82
10.177865982055664,-2.68,1.97,-2.92,4.42
10.18776798248291,-3.62,2.17,-3.62,5.56
10.197810888290405,-4.38,1.88,-3.83,6.11
10.20772385597229,-4.76,1.36,-3.54,6.08
10.217633724212646,-5.2,0.65,-3.24,6.16
10.25830078125,-5.85,-0.57,-3.13,6.65
10.25872802734375,-6.48,-1.91,-2.97,7.37
10.259145736694336,-6.83,-2.76,-2.92,7.92
10.25956106185913,-6.53,-2.38,-3.02,7.57
10.267628908157349,-4.39,2.57,-3.49,6.16
10.277469873428345,-2.58,0.65,-2.88,3.92
10.287590026855469,-2.61,-1.82,-2.06,3.79
10.297554969787598,-3.52,0.65,-0.83,3.67
10.307500839233398,-3.32,2.26,-0.36,4.03
10.317637920379639,1.82,1.8,1.9,3.18
10.358880996704102,4.93,-0.46,3.34,5.97
10.359314918518066,3.67,-0.11,-1.42,3.93
10.359731912612915,0.13,1.31,-2.87,3.15
10.36048173904419,-1.17,1.36,-1.03,2.06
10.367491722106934,-0.82,1.45,-0.13,1.67
10.377321720123291,-1.33,2.1,-0.58,2.55
10.387487888336182,-2.22,3.79,-0.35,4.4
10.397506713867188,-5.13,4.12,-0.55,6.6
10.407519817352295,-7.22,2.05,-1.57,7.66
10.417504787445068,-6.96,0.0,-0.73,6.99
10.45959997177124,-7.57,2.37,-1.9,8.15
10.460031986236572,-8.14,0.29,-5.38,9.76
10.46079683303833,-5.22,1.57,-4.15,6.85
10.46121883392334,-1.85,2.08,-1.71,3.26
10.467382907867432,-0.15,-0.24,-1.21,1.24
10.477275848388672,1.02,-1.29,-1.29,2.09
10.487324714660645,1.75,-1.54,-0.47,2.37
10.497339725494385,0.93,-1.29,-0.22,1.6
10.507301807403564,0.1,-0.55,-0.3,0.63
10.517247915267944,-0.55,0.13,-0.18,0.59
10.55944299697876,-1.23,0.62,-0.7,1.54
10.559874057769775,-1.24,0.46,-0.87,1.58
10.560290813446045,-0.67,0.04,-0.38,0.77
10.561065912246704,0.3,-0.36,0.43,0.63
10.567200899124146,0.99,-0.6,0.6,1.3
10.577402830123901,1.33,-0.37,-0.7,1.54
10.587185859680176,1.27,-0.1,-1.38,1.87
10.59715986251831,0.61,-0.02,-1.34,1.47
10.607116937637329,-0.33,0.06,-0.52,0.61
10.617084980010986,-0.89,-0.03,0.69,1.12
10.659955024719238,-0.64,-0.25,0.93,1.15
10.660727977752686,-0.69,-0.44,0.29,0.86
10.661151885986328,-1.16,-0.39,-0.2,1.24
10.661571025848389,-1.73,-0.04,-0.04,1.73
10.667006015777588,-1.95,0.16,0.35,1.98
10.677332878112793,-1.99,0.0,0.84,2.16
10.686885833740234,-2.14,-0.06,0.98,2.35
10.69702672958374,-2.51,0.15,0.77,2.62
10.706877708435059,-2.4,-0.05,0.81,2.53
10.716968059539795,-1.66,-0.23,0.51,1.75
10.726959943771362,-0.56,-0.32,0.02,0.64
10.760004997253418,0.07,-0.13,-0.6,0.61
10.760783910751343,-0.28,-0.01,-0.98,1.01
10.761229038238525,-0.83,-0.03,-0.76,1.12
10.766934871673584,-0.9,0.01,-0.83,1.22
10.776825904846191,-0.9,-0.05,-1.12,1.43
10.786832809448242,-1.0,-0.03,-1.46,1.76
10.796802043914795,-0.8,0.06,-1.57,1.76
10.806784868240356,-0.29,-0.11,-1.02,1.06
10.81679105758667,0.11,-0.09,-0.74,0.75
10.826774835586548,0.35,-0.06,-0.53,0.63
10.860078811645508,0.11,0.15,-0.53,0.56
10.860813856124878,-0.12,0.06,-0.14,0.19
10.861248016357422,-0.09,-0.22,0.0,0.23
10.86676287651062,-0.14,-0.23,-0.24,0.36
10.876644849777222,-0.09,-0.14,-0.14,0.21
10.886509895324707,-0.34,-0.14,0.02,0.36
10.896702766418457,-0.59,-0.13,0.05,0.6
10.90663194656372,-0.45,0.08,0.25,0.52
10.916615009307861,-0.14,-0.02,0.14,0.19
10.926572799682617,-0.23,-0.15,-0.25,0.37
10.959909915924072,-0.42,-0.04,-0.21,0.47
10.96034288406372,-0.26,0.0,-0.05,0.26
10.961143016815186,-0.1,0.12,0.0,0.15
10.966546058654785,0.16,-0.06,-0.24,0.29
10.976517915725708,0.2,0.07,-0.61,0.64
10.986508846282959,-0.04,-0.19,-0.51,0.54
10.996521949768066,-0.2,0.01,-0.38,0.42
11.00647783279419,0.04,0.15,-0.45,0.47
11.016440868377686,0.36,-0.09,-0.26,0.45
11.026412010192871,0.42,-0.22,-0.12,0.48
11.060775756835938,0.45,-0.17,-0.38,0.61
11.061526775360107,0.14,0.1,-0.76,0.77
11.061954021453857,-0.04,-0.04,-0.92,0.92
11.06636095046997,0.32,-0.09,-0.66,0.73
11.076364994049072,0.51,-0.01,-0.32,0.6
11.0863037109375,0.56,0.22,-0.13,0.61
11.096305847167969,0.63,0.26,0.06,0.68
11.106354713439941,0.28,-0.04,-0.3,0.41
11.116297721862793,-0.35,-0.15,-0.63,0.73
11.126291751861572,-0.64,-0.08,-0.44,0.78
11.160510063171387,-0.68,-0.18,-0.21,0.73
11.161617755889893,-0.64,-0.07,-0.13,0.65
11.16206979751587,-0.36,0.05,-0.39,0.53
11.166108846664429,-0.1,0.05,-1.04,1.04
11.176159858703613,-0.18,-0.23,-0.95,0.99
11.186213970184326,-0.2,-0.19,-0.74,0.78
11.196171760559082,-0.04,-0.25,-0.62,0.66
11.20616888999939,0.31,-0.38,-0.43,0.65
11.216232776641846,0.78,-0.41,-0.63,1.08
11.226155757904053,0.92,-0.28,-0.97,1.36
11.260516881942749,0.78,-0.18,-1.03,1.3
11.261595726013184,0.63,-0.29,-0.23,0.73
11.262020826339722,0.49,-0.19,0.33,0.62
11.26600193977356,0.32,0.16,0.69,0.77
11.275993824005127,0.16,0.34,0.69,0.78
11.285938739776611,-0.15,0.14,0.34,0.39
11.296130895614624,-0.37,0.02,0.22,0.43
11.306018829345703,-0.23,0.12,0.36,0.44
11.316019058227539,0.19,0.12,0.53,0.57
11.32579493522644,0.34,0.08,0.34,0.48
11.361279010772705,0.11,0.03,0.35,0.36
11.361701965332031,0.1,0.06,0.41,0.42
11.362145900726318,0.25,0.03,0.39,0.46
11.365933895111084,0.02,0.08,0.16,0.18
11.375874042510986,-0.46,0.15,-0.25,0.54
11.385852813720703,-0.78,0.21,-0.49,0.94
11.395848751068115,-0.75,0.17,-0.49,0.91
11.405881881713867,-0.49,0.02,-0.36,0.6
11.415857791900635,-0.2,-0.04,-0.07,0.21
11.425830841064453,0.17,0.01,0.13,0.21
11.461309909820557,0.71,0.07,0.43,0.83
11.46173095703125,1.65,0.12,0.67,1.78
11.46216893196106,2.48,0.17,0.78,2.6
11.465734958648682,2.78,0.17,0.83,2.9
11.475697994232178,2.87,-0.03,0.67,2.94
11.485681056976318,3.06,-0.2,0.65,3.13
11.49558687210083,3.32,-0.09,0.73,3.4
11.50573992729187,3.48,0.09,0.76,3.56
11.515707015991211,3.47,0.33,0.68,3.55
11.525730848312378,3.42,0.56,0.54,3.5
11.561684846878052,3.44,0.75,0.64,3.57
11.562108039855957,3.48,1.27,0.43,3.72
11.562551975250244,3.03,1.76,-0.18,3.5
11.565685749053955,1.87,1.7,-0.58,2.59
11.575593948364258,0.46,2.69,-0.71,2.81
11.585577964782715,-0.54,4.73,-0.54,4.79
11.595438003540039,1.07,5.37,-1.08,5.58
11.605570793151855,2.67,5.34,0.66,6.0
11.615514755249023,3.71,5.12,0.59,6.35
11.625524997711182,3.89,5.04,-0.48,6.38
11.661244869232178,2.95,4.36,-0.88,5.33
11.661993026733398,2.04,3.09,-1.34,3.93
11.662415027618408,1.36,2.5,-1.62,3.27
11.665462017059326,1.12,2.0,-1.73,2.87
11.675436973571777,1.06,0.86,-1.52,2.04
11.685569763183594,1.22,0.11,-0.76,1.44
11.695519924163818,2.23,-0.67,0.27,2.34
11.705379962921143,1.74,-1.41,1.87,2.91
11.715443849563599,1.78,-1.02,1.27,2.41
11.72533392906189,4.58,-1.26,0.02,4.75
11.76265573501587,6.39,-0.74,1.56,6.61
11.763085842132568,7.1,-1.37,3.09,7.86
11.763507843017578,6.69,-2.31,3.17,7.75
11.765275955200195,6.09,-2.43,2.46,7.0
11.775328874588013,5.76,-2.11,2.08,6.47
11.785284042358398,5.29,-1.91,2.08,5.99
11.795171737670898,4.63,-1.69,2.03,5.33
11.805210828781128,4.18,-1.3,1.67,4.68
11.81529188156128,4.02,-0.8,1.28,4.29
11.825160026550293,3.87,-0.21,0.97,3.99
11.862265825271606,3.16,0.38,0.83,3.28
11.862706899642944,1.94,0.92,0.65,2.24
11.863143920898438,0.81,1.61,0.03,1.8
11.865176916122437,-0.39,2.23,-0.56,2.33
11.875098943710327,-1.45,2.63,-0.91,3.13
11.885051727294922,-2.34,3.03,-1.34,4.05
11.895311832427979,-2.72,3.24,-1.63,4.53
11.905078887939453,-2.49,2.79,-1.87,4.18
11.915035724639893,-2.86,2.08,-1.49,3.83
11.925034999847412,-3.97,1.18,-1.01,4.26
11.962715864181519,-3.66,0.41,-1.03,3.82
11.963148832321167,-3.06,0.38,-1.26,3.33
11.963566780090332,-2.86,0.65,-1.62,3.35
11.965008735656738,-3.18,0.76,-1.87,3.76
11.975008010864258,-3.5,0.45,-2.02,4.06
11.984973907470703,-3.63,0.03,-1.95,4.12
11.994930744171143,-3.61,-0.27,-1.85,4.06
12.004876852035522,-3.79,-0.4,-1.75,4.19
12.014936923980713,-4.16,-0.45,-1.58,4.47
12.024953842163086,-4.37,-0.63,-1.61,4.69
12.06299877166748,-4.4,-1.08,-1.84,4.88
12.063427925109863,-3.93,-1.55,-1.97,4.66
12.063844919204712,-3.41,-1.78,-2.06,4.36
12.06480884552002,-3.03,-1.42,-2.08,3.94
12.074774742126465,-3.28,-0.58,-2.13,3.95
12.084763050079346,-3.73,-0.62,-1.97,4.26
12.09473991394043,-3.96,-1.26,-1.89,4.56
12.104787826538086,-4.27,-1.69,-1.97,4.99
12.114831924438477,-4.19,-1.5,-1.94,4.85
12.124722957611084,-1.74,2.54,-2.32,3.85
12.163256883621216,1.77,2.74,-1.36,3.53
12.163683891296387,4.17,1.84,1.24,4.72
12.164098739624023,7.2,3.41,5.33,9.58
12.16461706161499,7.11,0.77,8.99,11.48
12.17466688156128,3.23,-1.05,4.68,5.78
12.18461275100708,-1.28,-0.65,-1.42,2.01
12.194607734680176,-3.14,0.51,-3.91,5.04
12.204608917236328,-1.47,1.25,-3.05,3.6
12.214566707611084,0.65,1.03,-2.03,2.36
12.224536895751953,1.01,0.78,-1.36,1.86
12.263044834136963,0.2,0.14,-0.68,0.72
12.263476848602295,-0.5,-0.1,-0.47,0.69
12.263892889022827,-1.73,0.21,-0.77,1.9
12.264448881149292,-3.21,1.06,-1.9,3.87
12.274512767791748,-3.55,2.02,-2.78,4.94
12.284612894058228,-2.86,0.41,-2.08,3.56
12.294611930847168,-2.15,0.48,-0.37,2.23
12.304450988769531,-4.24,0.11,-2.02,4.69
12.314486026763916,-7.59,-1.0,-5.71,9.55
12.324432849884033,-5.06,1.78,-3.65,6.48
12.363173007965088,-0.39,0.57,0.92,1.15
12.363608837127686,2.0,-1.72,2.22,3.44
12.364049911499023,2.46,-1.65,0.87,3.08
12.36447286605835,0.5,-0.34,0.41,0.73
12.374309062957764,-2.16,0.49,-0.29,2.23
12.384370803833008,-3.46,0.48,-1.17,3.68
12.39433479309082,-3.59,0.18,-0.84,3.69
12.404284954071045,-3.82,-0.68,-0.1,3.88
12.414319038391113,-3.81,-0.95,0.58,3.96
12.424253940582275,-2.7,-0.29,0.56,2.77
12.463659763336182,-1.66,-0.22,0.37,1.71
12.464122772216797,-1.31,-0.36,0.59,1.48
12.464547872543335,-1.53,-0.09,0.5,1.61
12.464976787567139,-1.75,-0.16,-0.11,1.76
12.47414779663086,-1.29,-0.33,-0.3,1.36
12.484238862991333,-0.89,-0.26,-0.21,0.95
12.494128942489624,-0.73,-0.24,-0.07,0.77
12.504142761230469,-1.04,-0.06,-0.12,1.04
12.514160871505737,-1.17,0.02,-0.74,1.38
12.524244785308838,-0.79,-0.06,-0.93,1.22
12.564458847045898,-0.53,0.09,-1.07,1.19
12.564889907836914,-0.63,0.06,-1.11,1.27
12.565307855606079,-0.85,-0.01,-1.13,1.41
12.565725803375244,-0.98,0.03,-1.08,1.45
12.573986053466797,-0.92,0.08,-1.03,1.38
12.583999872207642,-0.75,0.05,-0.95,1.21
12.593955039978027,-0.61,-0.04,-0.79,0.99
12.603951930999756,-0.49,0.02,-0.51,0.7
12.613746881484985,-0.41,0.05,-0.09,0.42
12.62395191192627,-0.45,-0.01,0.05,0.45
12.663538932800293,-0.28,-0.07,0.2,0.35
12.663977861404419,-0.3,-0.06,0.41,0.51
12.664397716522217,-0.11,-0.01,0.56,0.57
12.664813995361328,-0.16,0.0,0.76,0.77
12.673816919326782,-0.22,0.0,0.54,0.58
12.683871746063232,-0.25,0.0,0.34,0.42
12.693886756896973,-0.33,-0.18,0.51,0.63
12.703742980957031,-0.34,-0.23,0.45,0.6
12.713665962219238,-0.61,-0.21,0.21,0.67
12.723793983459473,-0.8,-0.03,-0.01,0.8
12.763457775115967,-0.88,0.04,-0.23,0.91
12.763896942138672,-1.02,-0.02,-0.58,1.17
12.764319896697998,-0.9,-0.11,-0.76,1.18
12.764739990234375,-0.48,-0.26,-0.63,0.83
12.773659706115723,-0.04,-0.2,-0.47,0.51
12.783683776855469,0.39,0.15,-0.7,0.81
12.793639898300171,0.74,0.41,-1.75,1.94
12.803668975830078,0.89,-0.04,-1.57,1.8
12.81360387802124,1.1,-0.4,-1.45,1.86
12.823591709136963,1.44,-0.27,-1.04,1.79
12.86426591873169,1.48,-0.07,-0.23,1.49
12.864699840545654,1.28,0.04,0.18,1.29
12.865115880966187,0.99,-0.04,0.24,1.01
12.865532875061035,0.69,-0.27,0.21,0.77
12.873418807983398,0.69,-0.09,0.39,0.79
12.883533954620361,0.76,-0.07,0.33,0.83
12.893496036529541,0.73,-0.09,-0.15,0.75
12.90349292755127,0.58,0.03,-0.47,0.74
12.91345500946045,0.06,0.18,-0.6,0.62
12.923460006713867,-0.25,0.15,-0.27,0.39
12.964148998260498,0.07,-0.08,0.38,0.39
12.964568853378296,0.34,0.03,0.32,0.46
12.964982986450195,0.12,0.04,0.08,0.14
12.965402841567993,-0.53,-0.09,-0.43,0.68
12.97357177734375,-1.06,-0.1,-0.69,1.26
12.983343839645386,-0.87,0.01,-0.67,1.09
12.993334770202637,-0.56,-0.04,-0.79,0.96
13.003345966339111,-0.61,-0.07,-0.87,1.06
13.013214826583862,-0.81,-0.11,-0.83,1.16
13.023260831832886,-0.58,-0.12,-0.63,0.86
13.064302921295166,0.09,-0.08,-0.15,0.19
13.064730882644653,0.72,0.05,0.45,0.85
13.065146923065186,1.06,0.17,0.49,1.18
13.065562725067139,1.02,0.05,0.12,1.02
13.073163032531738,0.43,-0.04,-0.14,0.45
13.083212852478027,-0.23,-0.1,-0.2,0.32
13.09313678741455,-0.7,-0.17,-0.34,0.79
13.103214740753174,-0.77,-0.16,-0.52,0.94
13.113121032714844,-0.69,-0.08,-0.27,0.74
13.123147010803223,-0.53,0.11,0.01,0.54
13.163899898529053,-0.08,0.07,-0.14,0.17
13.164329051971436,0.42,-0.03,-0.05,0.42
13.164745807647705,0.55,0.0,0.12,0.56
13.165168762207031,0.48,0.06,0.19,0.51
13.173050880432129,0.42,0.1,-0.01,0.43
13.18307089805603,0.17,0.09,-0.25,0.31
13.192961931228638,-0.17,0.15,-0.26,0.34
13.203006744384766,-0.14,0.23,-0.2,0.33
13.213051795959473,0.14,0.1,-0.08,0.18
13.223022937774658,0.49,0.06,-0.15,0.51
13.264683723449707,1.05,0.03,-0.05,1.05
13.265111923217773,1.68,-0.02,0.25,1.69
13.265527725219727,1.82,0.04,0.34,1.85
13.265944004058838,1.73,0.12,0.48,1.79
13.27285885810852,1.97,0.11,0.17,1.98
13.28286600112915,2.36,-0.11,0.16,2.36
13.29289984703064,2.63,-0.1,0.76,2.73
13.302854061126709,2.74,-0.03,0.73,2.83
13.313110828399658,2.85,-0.09,0.51,2.89
13.322804927825928,2.97,-0.01,0.78,3.07
13.364788055419922,3.33,0.29,0.83,3.44
13.365222930908203,3.36,0.6,0.71,3.48
13.36563777923584,3.41,0.66,0.85,3.57
13.366050720214844,3.15,0.88,0.53,3.31
13.37270975112915,2.37,1.37,0.26,2.74
13.38284182548523,1.5,1.99,0.53,2.54
13.39271593093872,0.97,3.03,0.38,3.2
13.40276575088501,0.37,4.29,0.3,4.31
13.41272783279419,0.64,5.42,-1.18,5.58
13.422728061676025,2.7,6.04,-0.27,6.62
13.464700937271118,4.29,5.98,1.9,7.6
13.465128898620605,5.68,6.42,0.64,8.59
13.465544939041138,5.19,6.62,-0.18,8.41
13.465960025787354,4.12,5.93,-0.86,7.27
13.472601890563965,3.51,4.89,-1.29,6.15
13.482565879821777,2.2,3.68,-1.31,4.48
13.492537021636963,0.12,2.3,-1.15,2.57
13.502554893493652,-2.08,1.25,-0.64,2.5
13.51252293586731,-3.73,0.33,-0.43,3.76
13.522407054901123,-2.47,-1.6,-0.85,3.06
13.565684795379639,0.89,-2.28,-0.12,2.45
13.56611680984497,3.4,-3.07,1.92,4.96
13.566534996032715,4.49,-2.02,0.6,4.95
13.566979885101318,5.93,-1.59,-1.78,6.39
13.57240891456604,6.58,-1.55,0.96,6.82
13.582385063171387,6.89,-2.25,2.91,7.81
13.592373847961426,6.46,-3.54,3.01,7.95
13.602396011352539,6.15,-3.94,2.61,7.75
13.612313747406006,6.08,-3.71,2.47,7.53
13.622288942337036,6.2,-3.1,2.44,7.34
13.665503978729248,6.27,-2.39,2.38,7.11
13.66593074798584,5.92,-1.76,2.35,6.6
13.666347026824951,5.05,-1.16,2.53,5.76
13.666783809661865,4.02,-0.57,2.43,4.73
13.672252893447876,3.11,0.02,1.85,3.61
13.68223786354065,2.41,0.49,1.32,2.79
13.692225933074951,1.62,0.93,1.21,2.22
13.702330827713013,0.5,1.32,1.23,1.87
13.712244987487793,-0.73,1.62,1.1,2.08
13.722239017486572,-1.57,2.0,0.66,2.62
13.765174865722656,-1.85,2.64,0.02,3.22
13.765605926513672,-1.67,3.49,-0.78,3.94
13.76602292060852,-1.44,4.55,-1.59,5.03
13.766441822052002,-1.3,5.4,-2.44,6.06
13.7721848487854,-1.85,5.31,-3.0,6.37
13.782211780548096,-2.56,5.28,-3.71,6.94
13.792047023773193,-3.05,5.31,-4.39,7.53
13.802053928375244,-3.52,4.61,-4.83,7.54
13.812070846557617,-4.17,3.15,-4.72,7.04
13.821962833404541,-6.09,0.79,-4.42,7.56
13.865299940109253,-8.31,-1.76,-4.38,9.55
13.865726947784424,-9.9,-3.5,-4.19,11.3
13.866143941879272,-9.91,-4.7,-3.5,11.51
13.866559028625488,-8.3,-4.67,-3.2,10.04
13.871924877166748,-6.49,-3.28,-3.56,8.09
13.882030010223389,-4.64,-1.96,-4.12,6.5
13.891908884048462,-3.36,-1.35,-4.26,5.59
13.901957988739014,-2.59,-0.99,-3.94,4.81
13.911901950836182,-2.27,-1.18,-3.64,4.44
13.921820878982544,-2.8,-0.98,-3.52,4.6
13.965479850769043,-1.31,5.04,-3.48,6.26
13.965909004211426,4.86,3.52,-1.61,6.21
13.966327905654907,11.62,3.85,4.53,13.05
13.96706485748291,13.89,1.14,14.62,20.19
13.971766948699951,6.75,-1.72,7.96,10.57
13.981787919998169,-1.17,-1.84,-1.42,2.6
13.991773843765259,-4.63,-1.74,-2.8,5.68
14.001800060272217,-2.98,0.35,-1.31,3.27
14.011705875396729,-1.03,1.01,-0.98,1.74
14.021724939346313,-0.87,1.11,-0.9,1.67
14.065488815307617,-1.54,1.18,-0.06,1.94
14.065918922424316,-2.21,1.67,-0.08,2.77
14.066672801971436,-3.36,2.26,-0.79,4.12
14.067094802856445,-5.36,2.15,-2.55,6.31
14.071728706359863,-5.72,2.21,-4.47,7.58
14.081670761108398,-3.77,1.83,-4.41,6.08
14.091632843017578,-3.26,2.94,-3.2,5.43
14.10167384147644,-5.13,1.11,-4.65,7.01
14.111580848693848,-5.09,0.24,-5.09,7.2
14.121466875076294,-2.86,0.83,-2.95,4.19
14.165367841720581,-1.06,-0.69,-0.5,1.36
14.165794849395752,-0.08,-1.78,0.24,1.79
14.166522979736328,0.34,-1.43,0.17,1.47
14.166944980621338,0.4,-0.73,0.56,1.0
14.17143988609314,-0.05,-0.6,0.59,0.84
14.18148684501648,0.13,-0.45,0.16,0.49
14.191434860229492,0.77,-0.21,0.17,0.81
14.2014799118042,0.75,0.0,-0.28,0.8
14.211447715759277,-0.16,-0.08,-0.16,0.24
14.221431732177734,-1.53,0.07,0.55,1.62
14.265377044677734,-2.13,0.08,0.72,2.24
14.265816926956177,-2.21,-0.2,0.46,2.26
14.266514778137207,-2.27,-0.49,0.25,2.33
14.266936779022217,-2.75,-0.71,0.17,2.84
14.271309852600098,-3.35,-0.5,0.0,3.38
14.28118085861206,-3.22,0.02,0.06,3.22
14.291250944137573,-2.05,0.25,0.18,2.07
14.301300048828125,-0.75,0.17,-0.21,0.79
14.311243057250977,-0.25,0.0,-0.83,0.86
14.321287870407104,-0.33,-0.27,-0.97,1.05
14.36600399017334,-0.63,-0.26,-1.16,1.34
14.366682052612305,-1.03,-0.05,-1.35,1.69
14.367102861404419,-1.17,0.03,-1.12,1.61
14.367526054382324,-1.14,0.04,-1.04,1.54
14.371171951293945,-1.09,0.21,-1.35,1.74
14.381069898605347,-0.8,0.08,-1.47,1.67
14.391053915023804,-0.44,-0.04,-1.27,1.34
14.401118755340576,-0.12,0.13,-0.76,0.78
14.411139965057373,-0.04,0.08,-0.2,0.21
14.421188831329346,-0.14,-0.04,-0.06,0.15
14.465707778930664,-0.32,-0.06,-0.14,0.35
14.466448783874512,-0.28,-0.08,0.0,0.29
14.466865062713623,-0.41,-0.14,0.31,0.53
14.467278957366943,-0.76,-0.1,0.52,0.92
14.471040725708008,-0.83,0.05,0.77,1.13
14.480885028839111,-0.68,-0.13,0.77,1.03
14.490926742553711,-0.37,-0.23,0.39,0.58
14.501102924346924,-0.12,-0.15,0.32,0.37
14.51094675064087,-0.14,-0.1,0.38,0.41
14.520984888076782,-0.4,-0.12,0.22,0.47
14.566823959350586,-0.23,-0.05,0.05,0.24
14.567266941070557,-0.28,-0.13,0.03,0.31
14.567685842514038,-0.44,0.07,-0.12,0.46
14.568099975585938,-0.44,0.03,-0.25,0.5
14.570848941802979,-0.54,-0.03,-0.63,0.83
14.581078052520752,-0.32,-0.02,-1.16,1.2
14.590771913528442,0.35,-0.02,-0.92,0.98
14.600860834121704,0.7,0.01,-0.37,0.79
14.61074686050415,0.67,-0.07,-0.22,0.7
14.620689868927002,0.64,-0.05,-0.14,0.65
14.630712985992432,0.34,-0.04,-0.13,0.36
14.666316986083984,-0.15,-0.08,-0.46,0.49
14.666738986968994,-0.09,-0.02,-0.56,0.56
14.667163848876953,0.21,-0.03,-0.03,0.21
14.670699834823608,0.29,-0.13,0.14,0.34
14.680613994598389,0.29,0.01,0.0,0.29
14.690633773803711,0.39,0.07,0.02,0.39
14.700650930404663,0.56,-0.14,0.29,0.64
14.710595846176147,0.64,-0.19,0.35,0.75
14.720702886581421,0.49,-0.1,0.12,0.51
14.730551719665527,0.2,-0.05,0.01,0.2
14.76667594909668,0.29,0.09,0.18,0.35
14.767110824584961,0.49,0.02,0.28,0.56
14.767528057098389,0.37,-0.1,0.14,0.4
14.770525932312012,0.31,-0.03,-0.1,0.32
14.78037691116333,0.49,0.03,-0.23,0.54
14.790511846542358,0.57,-0.04,-0.34,0.66
14.800501823425293,0.49,-0.05,-0.47,0.68
14.810520887374878,0.52,0.11,-0.56,0.77
14.820557832717896,0.65,0.12,-0.41,0.77
14.830504894256592,0.58,0.04,-0.18,0.6
14.866029739379883,0.24,-0.01,-0.12,0.26
14.866453886032104,-0.12,0.03,-0.02,0.12
14.866879940032959,-0.58,0.0,0.1,0.58
14.870405912399292,-1.03,-0.07,-0.18,1.04
14.880358934402466,-1.39,-0.08,-0.56,1.5
14.890251874923706,-1.44,0.04,-0.67,1.58
14.900353908538818,-1.45,0.27,-0.63,1.6
14.910306930541992,-1.41,0.27,-0.53,1.53
14.920287847518921,-1.32,0.13,-0.36,1.37
14.930311918258667,-1.26,0.02,-0.06,1.26
14.966043949127197,-1.12,0.32,0.0,1.16
14.966476917266846,-0.89,0.38,-0.24,0.99
14.966896057128906,-0.64,0.12,-0.32,0.72
14.970197916030884,-0.18,0.02,-0.58,0.6
14.980252742767334,0.39,-0.02,-0.93,1.0
14.990100860595703,0.98,-0.11,-1.04,1.43
15.000103950500488,1.65,-0.09,-0.93,1.89
15.010197877883911,2.16,-0.06,-0.73,2.28
15.02018690109253,2.52,-0.08,-0.53,2.57
15.030197858810425,2.71,-0.1,-0.27,2.72
15.065753936767578,2.77,-0.28,0.04,2.78
15.066182851791382,2.69,-0.34,0.31,2.72
15.066600799560547,2.54,-0.39,0.49,2.61
15.070058822631836,2.39,-0.27,0.59,2.47
15.080028057098389,2.31,-0.19,0.61,2.39
15.090034008026123,2.46,-0.18,0.87,2.61
15.100028038024902,2.85,-0.22,1.35,3.16
15.110013008117676,2.99,-0.22,1.54,3.37
15.120018005371094,3.01,-0.06,1.18,3.23
15.13000202178955,3.29,0.18,0.82,3.39
15.16626787185669,3.48,0.59,0.9,3.64
15.166698932647705,3.35,1.04,0.77,3.59
15.167122840881348,3.19,1.39,0.32,3.49
15.169865846633911,2.95,1.94,0.33,3.54
15.179868936538696,2.59,2.77,0.43,3.81
15.18988585472107,2.2,3.71,0.82,4.39
15.199923038482666,1.35,4.45,1.68,4.94
15.209881782531738,1.4,5.74,1.23,6.03
15.219897747039795,3.86,6.99,-0.02,7.98
15.229846000671387,4.17,7.7,0.58,8.77
15.265913963317871,4.0,7.11,-0.55,8.17
15.266343832015991,3.77,6.56,-2.18,7.87
15.266761779785156,3.54,5.31,-2.53,6.86
15.269777774810791,1.99,2.83,-2.14,4.06
15.279738903045654,-0.25,1.01,-1.25,1.62
15.289679050445557,0.03,-0.64,-0.76,0.99
15.299777030944824,0.66,-2.54,1.24,2.9
15.309624910354614,1.0,-2.59,1.98,3.41
15.348382949829102,4.15,-1.31,-0.46,4.37
15.348811864852905,6.7,-0.36,0.48,6.72
15.349259853363037,7.55,-0.75,2.62,8.02
15.349681854248047,7.37,-2.06,3.28,8.32
15.359714031219482,6.83,-2.53,2.86,7.82
15.3695707321167,6.37,-2.58,2.48,7.3
15.379580974578857,5.94,-2.53,2.47,6.91
15.389595031738281,5.4,-2.54,2.61,6.51
15.399665832519531,4.79,-2.48,2.53,5.95
15.409576892852783,4.06,-2.33,2.19,5.16
15.449326992034912,3.35,-2.08,1.66,4.27
15.449760913848877,2.92,-1.55,1.28,3.54
15.450178861618042,2.71,-0.88,1.1,3.05
15.450596809387207,2.26,-0.11,1.05,2.49
15.459403038024902,0.7,0.71,0.91,1.34
15.46952199935913,-1.21,1.5,0.32,1.95
15.4794340133667,-2.26,2.36,-0.64,3.32
15.489514827728271,-2.55,3.28,-1.44,4.39
15.49937105178833,-2.51,4.08,-1.74,5.09
15.509474754333496,-2.1,4.57,-1.83,5.35
15.549081802368164,-1.84,4.3,-1.73,4.98
15.549530982971191,-3.71,3.45,-1.29,5.22
15.54995083808899,-5.24,2.25,-1.7,5.95
15.550384044647217,-5.45,1.47,-2.2,6.05
15.559308052062988,-4.57,1.4,-2.61,5.44
15.569270849227905,-3.77,1.78,-2.84,5.04
15.579226016998291,-3.52,1.88,-2.84,4.89
15.589263916015625,-4.55,1.92,-3.19,5.87
15.599119901657104,-6.2,1.58,-4.0,7.54
15.609242916107178,-6.98,-0.05,-3.8,7.94
15.648807048797607,-6.16,-2.0,-2.57,6.96
15.64923906326294,-4.96,-2.83,-1.79,5.98
15.649674892425537,-4.25,-2.41,-2.04,5.29
15.650109767913818,-4.14,-1.54,-2.93,5.3
15.659156799316406,-4.08,-1.35,-3.34,5.44
15.669126987457275,-3.82,-1.61,-2.85,5.03
15.679172992706299,-3.33,-1.9,-2.2,4.42
15.689085006713867,-2.77,-2.0,-1.64,3.78
15.698970794677734,-2.43,-2.07,-1.41,3.48
15.709047794342041,-2.41,-2.06,-1.46,3.49
15.749201774597168,-2.76,-1.98,-1.54,3.72
15.749639987945557,-1.24,2.98,-2.18,3.89
15.75006103515625,4.43,3.93,-0.88,5.98
15.750475883483887,9.58,3.05,2.89,10.46
15.759029865264893,11.85,2.82,9.7,15.57
15.769015789031982,6.61,-1.0,7.88,10.33
15.778943061828613,-0.21,-2.21,-0.04,2.22
15.788996934890747,-3.77,-1.9,-3.59,5.54
15.798923015594482,-3.18,0.42,-3.29,4.59
15.80892276763916,-1.07,1.55,-2.41,3.05
15.849678039550781,0.16,2.0,-1.97,2.81
15.850106716156006,-0.28,1.96,-1.09,2.26
15.8505277633667,-1.8,1.76,-1.17,2.77
15.850952863693237,-3.35,2.65,-1.41,4.49
15.858739852905273,-4.66,3.31,-1.73,5.97
15.868794918060303,-4.52,2.83,-2.28,5.79
15.878727912902832,-2.63,0.86,-1.57,3.18
15.888790845870972,-1.55,0.72,-0.23,1.72
15.898784875869751,-3.15,1.7,-0.97,3.7
15.908843994140625,-4.61,-1.33,-2.25,5.29
15.949738025665283,-3.45,-1.07,-2.5,4.39
15.950166940689087,-1.71,0.21,-0.9,1.94
15.950585842132568,-1.08,-0.28,0.08,1.11
15.951004981994629,-1.33,-1.18,-0.24,1.79
15.958622932434082,-0.8,-1.7,-0.59,1.96
15.968657970428467,-0.24,-1.22,-0.94,1.55
15.978628873825073,0.04,0.29,-0.94,0.98
15.988678932189941,0.6,1.2,-1.5,2.01
15.998875856399536,0.49,0.51,-1.38,1.55
16.008708000183105,-0.54,-0.17,-0.93,1.08
16.049603939056396,-1.81,-0.32,-1.0,2.09
16.05004072189331,-2.61,-0.5,-1.06,2.86
16.05045795440674,-2.92,-0.44,-0.73,3.04
16.050872802734375,-3.07,-0.25,-0.34,3.09
16.058509826660156,-3.21,0.0,-0.08,3.21
16.068572998046875,-2.89,-0.1,-0.08,2.89
16.07847285270691,-2.14,0.03,-0.14,2.14
16.088515758514404,-1.0,-0.17,-0.09,1.01
16.098500728607178,0.0,-0.18,0.17,0.24
16.108450889587402,0.05,-0.07,0.59,0.59
16.150136947631836,-0.55,-0.02,0.68,0.87
16.150567054748535,-0.51,-0.17,0.48,0.72
16.150983810424805,-0.14,-0.12,0.49,0.52
16.151404857635498,-0.64,-0.02,0.51,0.81
16.15832281112671,-1.41,-0.11,0.24,1.43
16.16837191581726,-1.7,-0.2,-0.13,1.71
16.178387880325317,-1.75,-0.24,-0.17,1.77
16.18830680847168,-1.67,-0.08,-0.25,1.69
16.19829273223877,-1.32,0.03,-0.33,1.36
16.208323001861572,-1.17,-0.04,-0.7,1.36
16.249698877334595,-1.48,-0.04,-1.24,1.93
16.25011682510376,-1.75,0.11,-1.68,2.42
16.250537872314453,-1.43,0.16,-1.76,2.27
16.250953912734985,-0.85,0.06,-1.45,1.68
16.258217811584473,-0.56,-0.05,-1.13,1.26
16.26815700531006,-0.36,-0.03,-0.93,0.99
16.278077840805054,-0.12,0.12,-0.79,0.8
16.288235902786255,0.19,0.11,-0.47,0.51
16.29815983772278,0.57,0.0,-0.03,0.57
16.308043003082275,1.01,0.05,0.1,1.01
16.350435733795166,1.28,0.08,-0.27,1.31
16.350868940353394,1.03,-0.08,-0.73,1.26
16.35128688812256,0.61,-0.22,-0.84,1.06
16.351704835891724,0.53,-0.13,-0.83,0.99
16.357993841171265,0.63,-0.09,-0.69,0.93
16.368059873580933,0.85,0.02,-0.55,1.01
16.378000736236572,1.15,-0.12,-0.22,1.17
16.387999057769775,1.43,-0.39,0.49,1.56
16.39796495437622,2.03,-0.36,0.71,2.18
16.40798282623291,2.49,-0.03,-0.23,2.5
16.45030188560486,2.07,0.0,-0.9,2.25
16.45072889328003,1.07,-0.26,-1.09,1.54
16.451146841049194,-0.03,-0.22,-1.11,1.13
16.451568841934204,-0.92,-0.18,-0.99,1.36
16.457844734191895,-1.24,-0.11,-0.4,1.3
16.46796488761902,-0.99,-0.04,0.43,1.08
16.477884769439697,-0.44,0.06,0.77,0.88
16.487862825393677,0.11,-0.04,1.16,1.16
16.49782085418701,0.56,-0.03,1.13,1.26
16.507715940475464,0.62,0.07,0.61,0.87
16.550100803375244,0.34,-0.04,0.13,0.36
16.550532817840576,-0.3,-0.06,-0.28,0.41
16.55095100402832,-0.19,-0.08,-0.53,0.56
16.551368713378906,0.0,-0.25,-0.78,0.81
16.557731866836548,-0.27,-0.29,-0.6,0.71
16.5678608417511,-0.21,-0.05,-0.17,0.27
16.57777690887451,0.28,0.04,0.12,0.3
16.587749004364014,0.76,0.04,0.47,0.89
16.597671031951904,0.88,0.04,0.36,0.95
16.607629776000977,0.45,0.01,-0.1,0.46
16.65005874633789,-0.23,-0.12,-0.4,0.47
16.650490760803223,-0.64,-0.16,-0.59,0.88
16.650908946990967,-0.82,-0.13,-0.9,1.22
16.651323795318604,-0.77,0.06,-1.12,1.36
16.657583713531494,-0.47,0.21,-0.52,0.73
16.667553901672363,-0.08,0.08,-0.31,0.33
16.67752194404602,0.0,0.04,-0.6,0.6
16.687586784362793,0.07,0.01,-0.56,0.56
16.69758176803589,0.04,-0.05,-0.44,0.44
16.707502841949463,0.1,-0.02,-0.39,0.4
16.750229835510254,0.01,0.03,-0.41,0.41
16.750662803649902,-0.29,0.04,-0.38,0.47
16.751080989837646,-0.41,-0.04,-0.42,0.58
16.751505851745605,-0.59,-0.07,-0.59,0.83
16.75737190246582,-0.85,-0.04,-0.54,1.0
16.76734972000122,-0.97,0.04,-0.46,1.07
16.77734684944153,-0.73,0.06,-0.4,0.83
16.787457942962646,-0.38,-0.06,-0.23,0.44
16.797382831573486,-0.08,-0.07,-0.12,0.16
16.807384967803955,0.36,-0.01,-0.08,0.36
16.849848747253418,0.97,0.01,0.0,0.97
16.850271940231323,1.42,0.06,0.17,1.43
16.8506817817688,1.8,0.06,0.43,1.85
16.85107684135437,2.25,0.12,0.69,2.35
16.85724186897278,2.77,0.12,0.88,2.9
16.867135047912598,3.13,-0.05,0.89,3.25
16.87718105316162,3.27,-0.25,0.73,3.35
16.887253761291504,3.47,-0.29,0.66,3.54
16.8971529006958,3.84,-0.28,0.89,3.95
16.907193899154663,4.11,-0.16,0.7,4.17
16.95031976699829,4.01,0.02,0.38,4.02
16.950743913650513,3.43,0.23,0.18,3.44
16.951158046722412,2.85,0.48,0.28,2.9
16.951594829559326,2.16,0.78,0.58,2.36
16.95708703994751,1.86,1.22,0.49,2.27
16.966999053955078,1.69,1.67,0.2,2.38
16.977194786071777,1.15,2.19,-0.22,2.48
16.98710870742798,0.14,2.79,0.01,2.79
16.997087955474854,-0.52,3.53,0.78,3.65
17.007030963897705,0.53,4.67,-0.4,4.71
17.049867868423462,3.55,5.59,-0.08,6.62
17.050292015075684,4.56,6.05,2.1,7.86
17.050732851028442,5.96,5.87,0.87,8.41
17.051143884658813,6.36,5.91,0.44,8.69
17.05697989463806,5.24,5.77,0.25,7.79
17.066740036010742,3.79,5.21,-0.58,6.46
17.0769100189209,3.04,4.57,-0.95,5.57
17.08690071105957,1.79,3.33,-0.52,3.81
17.096852779388428,-0.5,1.82,-0.38,1.92
17.106860876083374,-1.95,1.03,-0.38,2.23
17.150222778320312,-0.03,0.32,-0.34,0.46
17.15065288543701,3.11,-0.6,1.38,3.45
17.151078939437866,3.07,-2.5,3.42,5.23
17.15180206298828,4.07,-1.6,0.47,4.39
17.15686273574829,5.95,-0.87,-0.18,6.01
17.166876792907715,6.28,-1.23,3.07,7.09
17.1767578125,5.5,-2.56,4.43,7.51
17.186802864074707,4.75,-3.54,3.71,6.98
17.19673991203308,4.73,-3.35,2.58,6.34
17.206771850585938,5.01,-2.75,2.51,6.24
17.24959683418274,4.96,-2.5,2.85,6.24
17.25032901763916,4.35,-2.36,2.98,5.77
17.250752925872803,3.66,-2.05,2.86,5.07
17.251198768615723,3.27,-1.66,2.67,4.53
17.256607055664062,3.1,-1.16,2.34,4.05
17.266928911209106,2.99,-0.42,1.98,3.61
17.27651286125183,2.43,0.42,1.48,2.87
17.286686897277832,1.3,1.39,0.89,2.1
17.29668688774109,-0.21,2.27,0.19,2.28
17.3065767288208,-1.73,2.64,-0.58,3.2
17.316536903381348,-2.26,3.25,-1.3,4.16
17.350958824157715,-1.47,4.29,-1.84,4.89
17.351688861846924,-1.24,5.18,-1.8,5.62
17.3521089553833,-3.97,4.72,-1.31,6.3
17.35647201538086,-5.16,3.01,-2.12,6.33
17.36633586883545,-6.29,0.77,-2.47,6.8
17.376413822174072,-7.34,-0.29,-2.93,7.9
17.38645076751709,-7.55,0.19,-3.55,8.34
17.396384716033936,-6.76,0.73,-4.24,8.01
17.40639591217041,-5.74,1.63,-4.98,7.77
17.416374921798706,-4.27,0.48,-4.92,6.53
17.45010805130005,-4.52,-1.22,-4.14,6.24
17.450531005859375,-5.74,-2.32,-3.35,7.03
17.450950860977173,-6.98,-3.77,-3.13,8.52
17.45634698867798,-7.61,-4.43,-3.16,9.35
17.466217041015625,-7.26,-3.03,-3.47,8.59
17.476268768310547,-3.93,2.29,-3.96,6.03
17.486258029937744,-0.72,2.17,-1.99,3.03
17.4962420463562,1.76,1.04,-0.67,2.15
17.50627899169922,8.3,3.7,2.81,9.51
17.51622986793518,11.03,0.64,10.83,15.47
17.55050802230835,5.35,-2.53,1.55,6.11
17.551272869110107,-0.95,-1.08,-5.45,5.63
17.551697731018066,-2.94,0.54,-3.59,4.67
17.556103706359863,-2.22,0.72,-1.84,2.97
17.566146850585938,-1.91,1.93,-1.8,3.25
17.576045989990234,-2.41,4.28,-0.93,4.99
17.586145877838135,-4.11,5.46,-0.63,6.86
17.596028804779053,-5.51,3.87,-1.92,7.0
17.60619592666626,-5.43,1.21,-3.16,6.39
17.61597990989685,-5.1,2.23,-3.47,6.55
17.651350021362305,-5.45,2.84,-5.43,8.2
17.651774883270264,-4.81,0.57,-5.0,6.96
17.65219283103943,-2.94,1.03,-2.35,3.9
17.655972003936768,-1.68,0.08,0.1,1.68
17.665973901748657,-1.84,-1.45,0.51,2.39
17.67594885826111,-1.8,-1.46,-0.25,2.33
17.68601894378662,-1.47,-0.71,-0.83,1.83
17.696022987365723,-0.87,-0.01,-1.06,1.37
17.705931901931763,-0.34,0.08,-1.21,1.25
17.715967893600464,-0.16,0.06,-0.99,1.0
17.75154185295105,-0.07,0.38,-0.8,0.88
17.751970767974854,0.08,0.31,-1.14,1.18
17.75239086151123,0.39,0.05,-1.23,1.29
17.755830764770508,0.87,-0.33,-0.89,1.28
17.765727996826172,1.27,-0.75,-0.41,1.53
17.7757568359375,1.05,-0.68,-0.35,1.29
17.785910844802856,0.53,-0.23,-0.53,0.78
17.795835971832275,0.1,-0.03,-0.36,0.37
17.80578589439392,-0.18,-0.2,0.07,0.27
17.815719842910767,-0.64,-0.31,0.5,0.86
17.851574897766113,-1.0,-0.27,0.59,1.19
17.8520028591156,-1.23,-0.31,0.56,1.38
17.852406978607178,-1.23,-0.13,0.45,1.31
17.855742931365967,-1.03,-0.13,0.31,1.08
17.865777015686035,-0.67,-0.47,0.52,0.96
17.875751972198486,-0.73,-0.48,0.65,1.08
17.885756015777588,-1.06,-0.07,-0.02,1.06
17.895731925964355,-0.95,-0.05,-0.2,0.97
17.905659914016724,-0.92,-0.54,0.79,1.32
17.915588855743408,-0.97,-0.58,1.04,1.53
17.952199935913086,-0.46,0.01,0.99,1.09
17.952696800231934,-0.47,0.09,1.48,1.55
17.95311188697815,-1.45,-0.1,1.38,2.0
17.955476760864258,-1.73,-0.06,0.75,1.88
17.965500831604004,-1.81,0.02,0.41,1.85
17.975451946258545,-1.45,-0.09,-0.06,1.45
17.98554491996765,-1.14,-0.2,-0.45,1.24
17.99546480178833,-0.99,-0.12,-1.09,1.47
18.005481719970703,-0.82,0.1,-1.49,1.7
18.015328884124756,-0.51,0.0,-1.26,1.35
18.05142092704773,-0.31,-0.03,-1.3,1.33
18.051864862442017,-0.63,0.33,-1.3,1.48
18.052276849746704,-1.23,0.32,-0.94,1.58
18.05534601211548,-1.31,0.11,-0.76,1.51
18.06531572341919,-1.06,-0.11,-0.54,1.19
18.07531976699829,-0.74,-0.14,-0.52,0.91
18.085367918014526,-0.59,0.2,-0.38,0.72
18.095290899276733,-0.65,0.32,0.52,0.89
18.105414867401123,-0.73,-0.09,0.83,1.1
18.11532187461853,-0.61,-0.26,0.35,0.74
18.15198278427124,-0.31,-0.35,0.01,0.46
18.152411937713623,-0.2,-0.13,0.2,0.31
18.152830839157104,-0.25,0.56,0.41,0.73
18.155160903930664,-0.33,0.65,-0.07,0.73
18.165206909179688,-0.29,0.25,-0.95,1.02
18.175277709960938,0.0,-0.13,-1.58,1.58
18.185160875320435,0.49,-0.27,-1.99,2.06
18.195127964019775,0.82,-0.23,-1.98,2.15
18.205152988433838,0.88,-0.19,-1.8,2.01
18.215107917785645,1.0,-0.16,-1.58,1.87
18.25161385536194,0.9,-0.47,-1.3,1.64
18.252041816711426,0.46,-0.76,-0.9,1.26
18.252466917037964,0.3,-0.48,-0.34,0.66
18.255071878433228,0.59,-0.16,-0.01,0.61
18.26499080657959,0.97,0.0,0.08,0.97
18.275056838989258,1.33,0.02,0.16,1.33
18.28488302230835,1.46,-0.09,-0.11,1.46
18.295012950897217,1.39,-0.28,-0.46,1.49
18.305027961730957,1.26,-0.22,-0.57,1.4
18.31496286392212,1.02,-0.04,-0.48,1.12
18.352064847946167,1.04,-0.12,-0.37,1.11
18.352492809295654,1.45,-0.15,-0.56,1.56
18.35291290283203,1.82,-0.05,-0.89,2.02
18.354893922805786,1.81,-0.33,-0.47,1.89
18.36483883857727,1.39,-0.63,-0.7,1.67
18.374860763549805,0.87,-0.37,-1.07,1.42
18.384729862213135,0.43,-0.31,-0.95,1.08
18.39484405517578,0.12,-0.15,-0.88,0.9
18.404866933822632,-0.07,0.51,-1.0,1.12
18.414718866348267,-0.08,0.42,-0.45,0.62
18.45143175125122,-0.06,-0.12,0.06,0.14
18.451860904693604,-0.4,-0.02,-0.03,0.4
18.452292919158936,-0.95,0.3,0.19,1.01
18.454731941223145,-1.42,0.41,0.11,1.48
18.46469497680664,-1.3,0.31,0.01,1.33
18.47472381591797,-0.43,0.0,0.43,0.6
18.484741926193237,0.5,-0.14,0.52,0.73
18.494717836380005,0.79,0.04,0.39,0.88
18.504719734191895,0.66,0.04,0.46,0.8
18.514643907546997,0.2,-0.14,0.38,0.45
18.551068782806396,-0.4,-0.03,0.14,0.42
18.551493883132935,-0.87,0.05,0.15,0.88
18.551912784576416,-1.05,0.0,0.27,1.08
18.554641723632812,-1.01,-0.06,0.41,1.09
18.564558029174805,-0.92,-0.11,0.43,1.02
18.574601888656616,-0.8,-0.09,0.39,0.89
18.584842920303345,-0.43,0.03,0.36,0.56
18.594581842422485,-0.02,0.1,0.28,0.29
18.604562759399414,-0.02,0.11,0.15,0.18
18.614378929138184,0.22,0.15,-0.13,0.29
18.65110993385315,0.62,0.15,-0.43,0.76
18.65151882171631,0.9,0.18,-0.36,0.98
18.651937007904053,1.26,0.32,-0.22,1.31
18.654440879821777,1.57,0.3,-0.11,1.6
18.664435863494873,1.71,0.21,0.1,1.72
18.674328804016113,1.76,0.14,0.17,1.77
18.684934854507446,1.81,0.12,0.25,1.83
18.694408893585205,1.72,0.27,0.21,1.75
18.704356908798218,1.8,0.36,0.17,1.84
18.714439868927002,1.99,0.27,0.16,2.01
18.75149893760681,2.24,0.4,0.02,2.27
18.75192403793335,2.68,1.02,-0.16,2.87
18.75233483314514,2.89,1.68,-0.16,3.34
18.754294872283936,3.24,1.85,0.05,3.73
18.76425790786743,3.3,1.6,0.4,3.68
18.77424693107605,3.02,2.4,0.08,3.85
18.784245014190674,3.84,4.2,-0.68,5.73
18.794211864471436,3.99,4.81,0.89,6.31
18.8042049407959,2.76,4.23,0.82,5.11
18.814157962799072,1.95,3.82,-0.61,4.33
18.851346015930176,1.44,4.09,-0.99,4.44
18.85176706314087,1.15,3.78,-0.9,4.05
18.85218381881714,0.84,3.18,-0.64,3.35
18.854110717773438,1.02,2.27,-0.59,2.55
18.86407470703125,1.91,1.36,-0.51,2.39
18.874032020568848,1.79,1.92,0.22,2.63
18.88395404815674,-0.25,2.33,0.58,2.41
18.894048929214478,1.08,0.67,-0.39,1.32
18.9041109085083,3.03,0.6,0.85,3.2
18.914023876190186,4.25,-0.19,2.32,4.84
18.951327800750732,4.43,-0.92,2.66,5.24
18.952086925506592,4.09,-1.11,2.41,4.87
18.95250701904297,3.74,-1.17,2.13,4.46
18.95401382446289,3.58,-1.34,2.12,4.37
18.963889837265015,3.55,-1.71,2.19,4.5
18.97395896911621,3.5,-1.89,2.1,4.49
18.983967781066895,3.34,-1.98,1.93,4.33
18.99390172958374,2.97,-2.08,1.84,4.06
19.003864765167236,2.33,-2.14,1.83,3.65
19.01386785507202,1.84,-1.99,1.63,3.16
19.05207085609436,1.74,-1.72,1.38,2.8
19.052495002746582,1.76,-1.51,1.2,2.61
19.052950859069824,1.64,-1.29,1.11,2.36
19.053765773773193,1.38,-1.03,1.05,2.01
19.06376600265503,1.13,-0.79,0.94,1.66
19.073733806610107,0.83,-0.62,0.78,1.29
19.083735942840576,0.54,-0.42,0.58,0.89
19.093713760375977,0.25,-0.23,0.41,0.53
19.103715896606445,-0.05,0.05,0.23,0.24
19.113720893859863,-0.39,0.36,0.05,0.53
19.152309894561768,-0.74,0.63,-0.12,0.97
19.152740955352783,-0.97,0.98,-0.29,1.4
19.15317392349243,-1.27,1.38,-0.48,1.93
19.153703927993774,-1.6,1.63,-0.7,2.38
19.163789749145508,-1.78,1.71,-0.91,2.63
19.173725843429565,-2.01,1.58,-0.99,2.74
19.183591842651367,-2.3,1.27,-0.96,2.79
19.193657875061035,-2.26,1.14,-1.02,2.72
19.203574895858765,-2.13,0.96,-0.89,2.5
19.213599920272827,-1.8,0.82,-0.78,2.12
19.251827716827393,-1.39,0.83,-0.84,1.82
19.25225305557251,-0.84,0.69,-0.94,1.43
19.252668857574463,-0.27,0.5,-1.12,1.25
19.25340986251831,-0.75,0.49,-0.86,1.24
19.263453006744385,-2.39,0.02,-0.7,2.49
19.273432731628418,-3.55,-0.28,-1.16,3.74
19.283390045166016,-3.83,-0.39,-1.51,4.13
19.29328989982605,-3.35,-0.53,-1.58,3.74
19.30353093147278,-2.9,-0.71,-1.38,3.28
19.313405990600586,-2.75,-0.8,-1.43,3.2
19.35213804244995,-2.95,-0.97,-1.58,3.48
19.352581024169922,-3.46,-1.52,-1.68,4.13
19.352998733520508,-4.65,-2.18,-1.92,5.48
19.35341787338257,-5.83,0.32,-2.51,6.35
19.36331605911255,-5.06,3.12,-3.67,6.98
19.373290061950684,-3.5,-1.56,-3.25,5.02
19.3831467628479,-0.24,0.05,-0.69,0.73
19.393295764923096,4.99,2.03,3.49,6.41
19.40331482887268,5.92,0.08,2.99,6.63
19.413200855255127,3.21,0.28,-0.2,3.22
19.453251838684082,1.28,0.95,-0.95,1.85
19.45368003845215,0.96,0.92,-0.7,1.5
19.45410394668579,1.65,0.94,-0.33,1.92
19.454522848129272,1.85,1.17,-0.66,2.28
19.463127851486206,1.39,1.82,-1.28,2.62
19.47322988510132,-0.25,2.47,-1.8,3.06
19.483146905899048,-1.78,2.53,-2.26,3.83
19.493125915527344,-2.34,2.02,-2.15,3.76
19.50313901901245,-1.89,0.24,-0.99,2.14
19.513109922409058,-1.16,-1.47,0.44,1.92
19.55300998687744,-1.53,-1.73,0.96,2.5
19.55343985557556,-3.44,-0.39,-0.53,3.5
19.55385971069336,-5.46,-1.99,-4.1,7.11
19.554276943206787,-5.98,-0.4,-6.04,8.5
19.562987804412842,-2.89,2.49,-4.32,5.76
19.573030948638916,-0.28,1.31,-1.3,1.86
19.582958936691284,0.27,-0.03,-0.28,0.39
19.592936038970947,0.67,0.22,-1.25,1.43
19.60277485847473,0.6,0.06,-1.02,1.18
19.61286497116089,0.47,-0.76,0.41,0.98
19.653419971466064,-0.4,-0.88,0.52,1.09
19.65385389328003,-1.98,-0.33,0.0,2.0
19.65427589416504,-2.92,-0.23,-0.04,2.92
19.65469789505005,-3.32,-0.16,-0.41,3.34
19.662829875946045,-2.83,-0.24,-0.71,2.92
19.67282772064209,-2.18,-1.0,0.34,2.42
19.682844877243042,-1.68,-1.39,0.88,2.35
19.692906856536865,-1.72,-0.7,1.02,2.11
19.70347499847412,-1.58,-0.26,1.42,2.14
19.712821006774902,-0.93,0.04,1.75,1.98
19.753479957580566,-0.08,0.28,1.41,1.43
19.753909826278687,0.12,-0.23,1.0,1.03
19.754326820373535,-0.42,-0.34,0.87,1.02
19.754746913909912,-1.53,-0.36,0.91,1.81
19.76263999938965,-2.68,-0.1,0.8,2.79
19.77277898788452,-2.65,-0.12,0.23,2.66
19.78276491165161,-2.1,0.0,-0.14,2.1
19.792778968811035,-1.04,-0.27,-0.43,1.15
19.802605867385864,-0.42,-0.29,-0.87,1.0
19.81269073486328,-0.57,-0.22,-1.21,1.35
19.853088855743408,-0.88,0.17,-2.1,2.28
19.853518962860107,-0.51,0.21,-1.79,1.87
19.85393786430359,-0.2,-0.07,-0.99,1.01
19.854355812072754,-0.19,0.02,-0.95,0.96
19.86255979537964,-0.31,0.12,-0.98,1.03
19.872514724731445,-0.6,0.23,-0.95,1.14
19.88252305984497,-0.9,0.3,-0.76,1.21
19.892537832260132,-0.82,0.1,-0.36,0.9
19.902511835098267,-0.49,-0.12,-0.1,0.51
19.912471771240234,-0.52,-0.01,-0.04,0.52
19.95355796813965,-0.51,-0.03,0.15,0.53
19.953990936279297,-0.38,-0.14,0.45,0.6
19.95440983772278,-0.16,-0.2,0.4,0.47
19.954833030700684,-0.27,-0.17,0.16,0.35
19.96244192123413,-0.4,-0.18,-0.09,0.44
19.972428798675537,-0.59,0.04,-0.09,0.59
19.982309818267822,-0.82,-0.09,0.1,0.83
19.992308855056763,-0.44,-0.01,-0.13,0.45
20.002254009246826,-0.16,-0.05,-0.4,0.43
20.012229919433594,-0.09,-0.22,-0.65,0.69
20.05359983444214,-0.13,-0.16,-0.66,0.69
20.05402374267578,-0.17,0.06,-0.55,0.57
20.054446935653687,-0.24,0.03,-0.6,0.64
20.054868936538696,-0.15,-0.05,-0.92,0.93
20.062201023101807,0.09,-0.14,-0.97,0.98
20.072267055511475,0.09,-0.31,-0.63,0.7
20.082173824310303,-0.36,-0.01,-0.37,0.51
20.092193841934204,-0.68,0.3,-0.13,0.75
20.102128982543945,-0.68,-0.01,0.12,0.69
20.11208486557007,-0.88,-0.25,0.06,0.91
20.15292978286743,-0.79,-0.04,-0.07,0.79
20.153379917144775,-0.2,0.07,-0.3,0.36
20.153800010681152,0.61,-0.04,-0.63,0.87
20.15423083305359,1.48,-0.12,-0.62,1.6
20.162068843841553,2.16,-0.35,-0.4,2.22
20.172070026397705,2.24,-0.46,-0.58,2.35
20.182018756866455,1.83,-0.37,-0.81,2.03
20.192014932632446,1.22,-0.25,-0.82,1.49
20.20194387435913,0.87,-0.02,-0.59,1.05
20.211960792541504,0.72,0.06,-0.27,0.77
20.25263500213623,0.68,0.01,-0.22,0.71
20.253061771392822,0.88,0.0,-0.6,1.06
20.253496885299683,0.74,-0.04,-0.94,1.19
20.253896713256836,0.26,-0.04,-0.85,0.88
20.26192593574524,-0.03,-0.08,-0.46,0.46
20.271910905838013,-0.01,0.06,-0.39,0.39
20.281869888305664,0.3,0.24,-0.41,0.56
20.291858911514282,0.33,0.12,-0.46,0.57
20.301848888397217,0.07,-0.02,-0.16,0.17
20.31168293952942,-0.14,-0.05,0.16,0.21
20.35263991355896,-0.44,0.04,0.18,0.47
20.353065013885498,-0.7,0.12,0.32,0.77
20.353481769561768,-0.66,0.09,0.53,0.85
20.353901863098145,-0.46,0.05,0.53,0.7
20.361743927001953,-0.23,0.04,0.34,0.41
20.371721744537354,0.12,-0.01,0.13,0.17
20.381714820861816,0.66,-0.01,-0.08,0.66
20.39173698425293,1.13,-0.01,-0.3,1.16
20.401718854904175,1.24,-0.05,-0.33,1.28
20.41167974472046,1.02,-0.03,-0.18,1.03
20.45316505432129,0.65,0.07,-0.12,0.66
20.453606843948364,0.09,0.0,-0.22,0.23
20.454025745391846,-0.36,-0.05,0.05,0.36
20.454442024230957,-0.28,-0.01,0.27,0.38
20.4615638256073,0.22,0.06,0.08,0.24
20.471571922302246,0.76,0.07,-0.07,0.76
20.481510877609253,1.37,0.08,-0.01,1.37
20.491580963134766,1.58,0.09,-0.03,1.58
20.50151777267456,1.22,0.07,-0.25,1.24
20.51158094406128,0.73,0.09,-0.12,0.74
20.553412914276123,0.32,0.24,-0.23,0.46
20.553846836090088,0.17,0.27,-0.4,0.51
20.55426597595215,0.37,0.19,-0.48,0.63
20.5546817779541,0.42,0.12,-0.44,0.62
20.561424732208252,0.51,0.06,-0.34,0.61
20.571439743041992,0.66,-0.02,-0.1,0.66
20.58138084411621,0.69,-0.04,0.03,0.69
20.591426849365234,0.69,0.03,0.06,0.69
20.601390838623047,0.71,0.1,0.02,0.71
20.61119294166565,1.03,0.0,-0.03,1.03
20.652434825897217,1.18,-0.2,-0.04,1.19
20.653236865997314,1.11,-0.3,0.03,1.15
20.653660774230957,1.21,-0.29,0.23,1.26
20.65409278869629,1.63,-0.22,0.56,1.73
20.661338806152344,2.14,0.04,0.35,2.16
20.671339988708496,2.47,0.17,0.52,2.52
20.681249856948853,2.46,0.35,0.18,2.49
20.692172050476074,2.05,0.55,-0.13,2.12
20.701287746429443,1.38,0.69,-0.05,1.54
20.71118974685669,0.89,0.98,-0.16,1.33
20.753267765045166,0.53,1.38,-0.47,1.55
20.753692865371704,0.31,1.45,-0.54,1.57
20.754113912582397,0.13,1.35,-0.42,1.41
20.754528045654297,0.04,1.4,-0.56,1.5
20.761101722717285,0.18,1.51,-0.29,1.54
20.771086931228638,0.53,1.76,-0.11,1.84
20.781041860580444,0.89,2.47,-0.2,2.63
20.791082859039307,1.64,3.27,-0.3,3.67
20.801071882247925,2.51,3.7,-0.06,4.47
20.8110408782959,3.18,4.07,0.29,5.17
20.852897882461548,3.96,4.56,0.32,6.04
20.853641986846924,4.66,5.07,0.31,6.89
20.854074954986572,5.12,5.75,0.08,7.69
20.854487895965576,4.4,4.84,0.39,6.55
20.86098885536194,2.71,3.58,0.19,4.49
20.8708279132843,1.84,3.71,-0.48,4.16
20.88089084625244,1.72,3.79,-0.61,4.2
20.890902042388916,1.42,3.06,-0.53,3.41
20.90087080001831,1.96,1.88,-0.77,2.82
20.910905838012695,4.12,0.86,0.3,4.21
20.95307493209839,5.61,-0.66,2.29,6.09
20.95350193977356,4.04,-0.36,2.3,4.66
20.953918933868408,5.36,-0.22,0.15,5.36
20.954336881637573,7.15,-0.17,1.61,7.33
20.96085286140442,8.09,-0.9,2.93,8.65
20.970725059509277,7.48,-2.09,2.89,8.28
20.980798721313477,6.63,-2.4,2.29,7.41
20.990816831588745,6.33,-2.1,2.01,6.96
21.000720024108887,5.96,-1.76,1.96,6.51
21.010787963867188,5.18,-1.66,1.69,5.69
21.053706884384155,4.39,-1.47,1.44,4.84
21.054136753082275,3.58,-1.05,1.32,3.95
21.054574012756348,2.9,-0.51,1.1,3.14
21.05501699447632,2.64,0.2,0.75,2.75
21.06070899963379,2.37,1.14,0.45,2.66
21.07045888900757,1.56,2.19,0.03,2.68
21.08061194419861,0.11,2.7,-0.45,2.73
21.09065580368042,-1.28,2.19,-0.84,2.67
21.100586891174316,-1.76,1.76,-1.12,2.72
21.11066198348999,-1.44,2.15,-1.13,2.82
21.153751850128174,-1.19,2.44,-0.84,2.84
21.154181003570557,-1.43,2.39,-0.93,2.93
21.154619932174683,-2.42,2.17,-1.67,3.65
21.15506076812744,-3.39,2.09,-2.74,4.83
21.16050100326538,-4.13,2.41,-3.8,6.1
21.170411825180054,-5.39,2.89,-4.25,7.44
21.180469036102295,-7.13,2.93,-4.47,8.91
21.190480709075928,-8.18,2.09,-4.92,9.77
21.20044183731079,-8.0,0.56,-4.99,9.44
21.21044683456421,-7.35,-1.03,-4.48,8.66
21.254308938980103,-6.98,-2.3,-3.89,8.31
21.25477170944214,-7.15,-3.18,-3.77,8.68
21.255513906478882,-7.47,-3.55,-4.09,9.22
21.255929946899414,-7.0,-3.57,-4.31,8.96
21.260358810424805,-6.01,-3.01,-4.24,7.94
21.270497798919678,-4.27,1.82,-4.08,6.17
21.280284881591797,-1.32,2.19,-2.89,3.85
21.2903048992157,0.24,-1.26,-1.07,1.67
21.300262928009033,1.73,1.0,1.19,2.32
21.310290813446045,6.57,5.66,4.14,9.6
21.320152759552002,9.45,1.92,8.08,12.58
21.354548931121826,6.16,-2.29,1.79,6.81
21.35529899597168,1.07,-1.36,-3.21,3.64
21.355714797973633,-2.61,-1.1,-3.19,4.26
21.36012601852417,-3.76,-1.04,-1.95,4.36
21.370112895965576,-2.88,0.48,-1.12,3.12
21.380026817321777,-1.79,2.08,-0.28,2.75
21.390198707580566,-1.98,3.43,0.58,4.0
21.400101900100708,-4.84,3.34,-0.55,5.9
21.410045862197876,-7.15,2.64,-3.13,8.23
21.42005681991577,-6.64,5.58,-4.41,9.73
21.45546293258667,-8.66,2.45,-5.74,10.67
21.455885887145996,-5.84,0.51,-4.66,7.48
21.456305027008057,-0.54,-0.08,0.23,0.59
21.459994792938232,1.57,-2.79,3.1,4.45
21.4699969291687,0.27,-3.62,1.21,3.82
21.480037927627563,-1.81,-2.15,-1.82,3.34
21.490018844604492,-2.26,-0.82,-1.8,3.0
21.499915838241577,-2.12,1.01,-0.44,2.38
21.50993299484253,-1.33,1.94,-0.91,2.52
21.519914865493774,-0.9,0.44,-0.87,1.32
21.554286003112793,-0.66,-0.58,-0.78,1.17
21.55502986907959,-0.8,-0.43,-0.61,1.09
21.555455923080444,-1.47,0.02,-0.67,1.61
21.55982494354248,-1.8,0.15,-0.62,1.9
21.569787979125977,-1.75,-0.11,-0.06,1.75
21.57986092567444,-1.89,-0.31,0.04,1.91
21.589829921722412,-2.18,-0.22,0.12,2.19
21.599781036376953,-1.96,-0.09,0.14,1.96
21.609794855117798,-1.29,-0.07,-0.21,1.3
21.619755744934082,-0.82,-0.22,-0.71,1.1
21.65387773513794,0.02,-0.04,-0.88,0.88
21.65430974960327,0.65,0.15,-0.56,0.87
21.65507173538208,0.09,0.11,-0.46,0.48
21.65974187850952,-0.66,0.1,-0.98,1.18
21.66969394683838,-0.89,0.03,-1.16,1.46
21.679704904556274,-0.93,0.08,-1.47,1.74
21.689636707305908,-0.61,-0.05,-1.41,1.53
21.699736833572388,-0.62,-0.13,-1.12,1.28
21.7096209526062,-0.89,0.06,-1.26,1.54
21.719867706298828,-0.77,-0.04,-0.54,0.94
21.75408697128296,-0.86,-0.03,0.02,0.86
21.754835844039917,-0.98,0.08,0.22,1.0
21.75525689125061,-0.67,0.02,0.4,0.78
21.759599924087524,-0.28,-0.1,0.15,0.33
21.769569873809814,-0.24,-0.21,-0.04,0.32
21.779491901397705,-0.34,-0.23,0.23,0.47
21.789531707763672,-0.17,-0.17,0.47,0.52
21.79947805404663,-0.14,-0.17,0.54,0.58
21.809529781341553,-0.1,-0.1,0.27,0.3
21.819471836090088,-0.03,-0.11,-0.17,0.2
21.853466987609863,-0.17,-0.13,-0.43,0.48
21.854244709014893,-0.27,0.02,-0.32,0.41
21.85500693321228,-0.18,0.17,0.14,0.28
21.859333038330078,-0.17,-0.01,0.12,0.2
21.869314908981323,-0.19,-0.02,-0.4,0.44
21.879223823547363,0.1,0.14,-0.89,0.9
21.88929796218872,0.4,-0.12,-1.09,1.16
21.899322986602783,0.65,-0.08,-1.04,1.22
21.909411907196045,0.84,0.24,-0.7,1.11
21.919359922409058,0.62,0.14,-0.41,0.75
21.954007863998413,0.3,0.14,-0.44,0.55
21.954731941223145,0.23,0.16,-0.74,0.79
21.95518398284912,0.58,0.05,-0.97,1.13
21.959319829940796,0.67,0.04,-0.97,1.17
21.9692120552063,0.47,0.01,-0.9,1.01
21.979261875152588,0.38,-0.19,-0.29,0.51
21.98921298980713,0.08,-0.35,0.36,0.5
21.999197006225586,-0.34,-0.24,0.36,0.55
22.036090850830078,-0.22,-0.19,0.72,0.77
22.03652286529541,0.16,-0.13,1.04,1.06
22.036938905715942,0.58,-0.15,1.01,1.17
22.039214849472046,0.79,-0.08,0.74,1.08
22.04910182952881,0.84,-0.05,0.3,0.89
22.059095859527588,0.8,-0.05,-0.29,0.85
22.06902503967285,0.85,-0.06,-0.66,1.07
22.07903480529785,0.39,-0.07,-0.69,0.79
22.089091777801514,-0.12,0.01,-0.49,0.5
22.09904670715332,-0.18,0.04,0.19,0.26
22.137332916259766,-0.1,-0.02,0.32,0.33
22.138086795806885,0.26,0.02,0.01,0.26
22.1385018825531,0.93,0.1,-0.1,0.94
22.13891291618347,1.05,-0.08,-0.1,1.05
22.14897584915161,0.42,-0.05,-0.49,0.64
22.159010887145996,-0.07,0.03,-0.77,0.77
22.16892385482788,-0.27,0.07,-0.78,0.82
22.178889751434326,-0.21,0.07,-0.51,0.55
22.188905715942383,0.08,0.07,-0.12,0.16
22.198725938796997,0.16,0.02,-0.05,0.16
22.236461877822876,0.16,-0.03,0.1,0.19
22.23686981201172,0.36,0.1,0.09,0.38
22.23730182647705,0.7,0.08,-0.07,0.7
22.23885488510132,1.05,0.16,-0.1,1.06
22.248817920684814,1.45,0.26,-0.13,1.47
22.258785724639893,1.62,0.24,0.02,1.63
22.2687509059906,1.37,0.11,-0.14,1.38
22.278734922409058,0.82,0.14,-0.44,0.94
22.288614749908447,0.67,0.23,-0.13,0.72
22.298743724822998,0.33,-0.02,0.67,0.74
22.33739471435547,-0.39,-0.26,1.3,1.38
22.338178873062134,-0.93,-0.25,1.47,1.75
22.338603019714355,-1.01,-0.13,1.18,1.55
22.339037895202637,-0.39,-0.12,0.77,0.87
22.348684787750244,0.14,-0.06,0.21,0.25
22.358656883239746,0.27,0.1,-0.2,0.35
22.368590831756592,0.44,0.28,-0.59,0.78
22.378487825393677,0.61,0.61,-0.81,1.18
22.388497829437256,0.81,0.79,-0.9,1.44
22.398523807525635,1.01,0.89,-0.97,1.65
22.43662691116333,1.24,1.02,-0.89,1.83
22.437049865722656,1.56,1.33,-0.36,2.08
22.437464714050293,1.97,2.15,0.2,2.92
22.438370943069458,3.44,3.12,0.08,4.64
22.448508739471436,4.36,3.13,1.03,5.46
22.4584698677063,3.49,3.08,1.75,4.97
22.4684898853302,2.63,2.68,1.01,3.88
22.47853684425354,1.95,2.47,0.77,3.23
22.488261938095093,1.5,2.21,0.59,2.73
22.498406887054443,0.88,1.92,0.15,2.11
22.53660488128662,0.6,1.63,-0.59,1.83
22.53703284263611,1.56,1.29,-1.58,2.56
22.537447929382324,3.26,1.26,-2.24,4.15
22.5382137298584,3.4,0.77,-2.15,4.09
22.54833984375,2.22,0.36,-0.65,2.34
22.558356761932373,0.17,0.35,1.15,1.21
22.568289756774902,-0.65,-0.29,1.06,1.27
22.57827591896057,1.18,-1.18,-0.09,1.67
22.588148832321167,4.17,-0.78,0.74,4.3
22.59829092025757,6.29,-0.56,2.1,6.65
22.636988878250122,6.58,-1.31,2.67,7.22
22.637420892715454,6.57,-1.67,2.87,7.36
22.638160943984985,6.92,-1.4,3.01,7.67
22.6385817527771,6.93,-1.13,3.12,7.68
22.64819097518921,6.27,-0.9,3.07,7.03
22.658240795135498,5.73,-0.48,2.74,6.36
22.66806983947754,5.35,0.1,2.23,5.79
22.678141832351685,4.81,0.55,1.84,5.17
22.688313961029053,4.05,0.9,1.43,4.38
22.698181867599487,2.96,1.29,0.9,3.35
22.737518787384033,2.16,1.65,0.14,2.72
22.73827886581421,1.63,2.23,-0.53,2.81
22.73870086669922,-1.06,2.35,-0.37,2.6
22.739120960235596,-2.65,1.82,-0.85,3.32
22.748081922531128,-3.2,1.99,-1.16,3.94
22.758007049560547,-3.2,1.69,-1.12,3.78
22.767996788024902,-2.93,1.49,-0.97,3.42
22.777994871139526,-2.54,1.48,-1.11,3.14
22.78834891319275,-2.25,1.38,-1.32,2.95
22.797959804534912,-1.9,1.24,-1.54,2.74
22.838088035583496,-1.89,1.09,-1.67,2.74
22.838504791259766,-2.36,0.91,-1.6,2.99
22.838922023773193,-2.83,0.47,-1.52,3.24
22.83934783935547,-2.59,0.22,-1.54,3.02
22.847842931747437,-2.16,0.06,-1.52,2.64
22.857810974121094,-2.03,-0.11,-1.29,2.4
22.86780071258545,-2.11,-0.23,-1.08,2.38
22.877819061279297,-2.25,-0.35,-1.04,2.5
22.88759994506836,-2.31,-0.29,-1.19,2.61
22.897682905197144,-2.2,-0.13,-1.49,2.66
22.937726974487305,-1.92,-0.1,-1.37,2.36
22.938474893569946,-1.69,-0.43,-1.02,2.02
22.938896894454956,-1.68,-1.02,-0.95,2.18
22.939313888549805,-2.16,-1.39,-1.22,2.84
22.947619915008545,-2.71,-1.63,-1.46,3.48
22.95768094062805,-2.95,-1.63,-1.53,3.7
22.967655897140503,-2.9,-1.27,-1.54,3.52
22.978087902069092,-2.95,-0.8,-1.54,3.42
22.98771095275879,-3.08,-0.76,-1.7,3.59
22.997724056243896,-3.21,-1.12,-1.78,3.83
23.037757873535156,-3.28,-1.47,-1.86,4.04
23.03852891921997,-2.8,-1.15,-1.86,3.55
23.038933753967285,-1.0,3.0,-2.14,3.81
23.03935480117798,1.17,1.45,-1.66,2.49
23.047508716583252,3.38,0.78,0.02,3.46
23.05751085281372,6.07,1.69,3.08,7.01
23.06747794151306,5.2,-0.16,5.04,7.24
23.077497005462646,1.87,-0.66,1.94,2.77
23.087450981140137,-1.03,0.25,-1.55,1.87
23.0974760055542,-2.18,1.19,-2.13,3.27
23.138214826583862,-0.83,1.13,-1.0,1.72
23.13900089263916,0.43,0.28,-0.34,0.61
23.13942289352417,0.48,-0.19,-0.01,0.51
23.13984489440918,-0.01,-0.39,0.41,0.56
23.147407054901123,-0.72,-0.17,0.32,0.8
23.157454013824463,-1.29,0.74,-0.1,1.49
23.167325973510742,-1.96,1.79,-0.28,2.66
23.177361011505127,-3.13,1.78,-0.64,3.65
23.1873779296875,-2.21,-0.2,-1.49,2.67
23.19737195968628,-0.71,0.49,-0.89,1.23
23.23775005340576,-3.34,2.05,-2.1,4.44
23.238181829452515,-6.76,-1.44,-6.13,9.23
23.23894500732422,-4.34,0.76,-4.89,6.58
23.239366054534912,-0.46,1.03,0.1,1.13
23.247253894805908,-0.01,-1.23,0.84,1.48
23.257187843322754,-0.54,-0.83,-0.99,1.4
23.26715898513794,-0.43,0.03,-1.99,2.03
23.277194023132324,-1.44,0.11,-0.8,1.65
23.28719687461853,-2.04,-0.17,0.21,2.05
23.2970290184021,-2.12,-0.45,0.11,2.17
23.33803391456604,-2.31,-0.16,-0.01,2.31
23.338778972625732,-2.23,-0.27,-0.02,2.24
23.339212894439697,-1.81,-0.65,0.22,1.93
23.33963394165039,-1.42,-0.37,0.19,1.47
23.34707498550415,-0.83,0.0,0.17,0.84
23.35709571838379,-0.42,0.05,0.35,0.54
23.366973876953125,-0.1,-0.02,0.28,0.29
23.377007961273193,-0.22,-0.16,-0.18,0.32
23.386947870254517,-0.24,-0.16,-0.36,0.46
23.39686894416809,-0.07,-0.17,-0.39,0.43
23.437926769256592,0.09,-0.12,-0.57,0.58
23.438353061676025,-0.9,-0.26,-1.02,1.38
23.43908977508545,-0.59,-0.15,-1.13,1.28
23.43950891494751,-0.37,0.01,-0.94,1.01
23.446959972381592,-0.36,-0.02,-0.93,0.99
23.456902027130127,-0.54,-0.1,-0.73,0.91
23.466783046722412,-1.07,0.07,-0.64,1.24
23.47693681716919,-1.13,0.17,-0.6,1.29
23.486832857131958,-0.88,-0.08,-0.47,1.0
23.49683904647827,-0.88,-0.08,-0.76,1.16
23.53826379776001,-0.78,-0.14,-0.49,0.93
23.53902792930603,-1.01,-0.11,0.12,1.02
23.53945302963257,-1.12,0.02,0.27,1.15
23.53987193107605,-0.82,-0.13,0.2,0.85
23.546796798706055,-0.91,-0.13,-0.15,0.93
23.556735038757324,-1.17,-0.03,-0.68,1.35
23.566579818725586,-0.8,-0.26,-0.49,0.97
23.576786994934082,-0.53,-0.2,-0.08,0.57
23.58670473098755,-0.59,0.04,-0.01,0.59
23.596690893173218,-0.67,-0.05,-0.3,0.73
23.63798999786377,-0.62,-0.25,-0.91,1.12
23.638413906097412,-0.32,-0.18,-0.95,1.01
23.639177799224854,-0.05,0.17,-0.54,0.56
23.63960075378418,-0.21,0.05,-0.15,0.26
23.646615982055664,-0.26,-0.01,-0.17,0.31
23.656649827957153,-0.2,0.02,-0.29,0.35
23.66651201248169,-0.17,-0.01,-0.53,0.55
23.676501750946045,0.05,-0.14,-0.53,0.55
23.686401844024658,0.26,-0.04,-0.24,0.35
23.696544885635376,0.01,-0.04,-0.05,0.06
23.738024711608887,-0.27,-0.06,-0.33,0.43
23.73845386505127,-0.37,-0.05,-0.79,0.87
23.7392418384552,-0.34,-0.01,-1.15,1.19
23.739665985107422,-0.03,-0.16,-0.82,0.83
23.746432781219482,-0.06,-0.12,-0.01,0.13
23.756309032440186,-0.34,0.02,0.4,0.52
23.766438961029053,-0.45,-0.06,-0.06,0.45
23.77641487121582,-0.22,-0.18,-0.74,0.79
23.78632092475891,0.11,-0.19,-0.67,0.7
23.796445846557617,0.31,-0.03,0.1,0.32
23.838668823242188,0.23,0.09,0.49,0.54
23.83944082260132,0.34,0.02,0.17,0.38
23.839860916137695,0.58,-0.13,-0.2,0.62
23.840285778045654,0.51,-0.13,-0.65,0.83
23.846302032470703,0.56,0.02,-0.65,0.85
23.85607385635376,0.54,0.07,-0.1,0.55
23.866254806518555,0.21,0.05,0.12,0.24
23.876259803771973,0.24,-0.01,-0.11,0.26
23.886204719543457,0.56,-0.09,-0.19,0.59
23.896277904510498,0.73,-0.03,-0.35,0.81
23.93840789794922,0.77,0.04,-0.11,0.77
23.938862800598145,0.5,-0.04,0.22,0.54
23.939644813537598,0.02,-0.03,0.15,0.15
23.940064907073975,-0.24,0.03,-0.06,0.24
23.9460928440094,-0.2,0.02,-0.23,0.3
23.956223011016846,-0.1,-0.01,-0.09,0.13
23.96611189842224,0.01,0.05,0.01,0.05
23.97615885734558,0.25,-0.03,-0.13,0.28
23.986116886138916,0.57,-0.1,-0.06,0.58
23.996054887771606,0.78,-0.11,0.34,0.85
24.038166046142578,0.7,0.03,0.34,0.77
24.038578033447266,0.4,0.01,-0.11,0.41
24.038997888565063,-0.34,-0.03,0.0,0.34
24.03974676132202,-1.06,0.03,0.63,1.23
24.046048879623413,-1.46,0.05,0.81,1.67
24.056288719177246,-1.7,0.02,0.49,1.76
24.065934896469116,-1.54,0.11,-0.01,1.54
24.07596492767334,-0.67,0.22,-0.95,1.18
24.085959911346436,0.82,0.31,-2.01,2.19
24.09594488143921,2.17,0.25,-2.44,3.27
24.105876922607422,2.85,0.08,-2.03,3.49
24.138360023498535,2.92,-0.16,-1.27,3.18
24.13877773284912,2.74,-0.18,-0.35,2.76
24.13950490951538,2.28,-0.18,0.56,2.35
24.145800828933716,2.04,-0.18,1.38,2.46
24.155730724334717,1.93,-0.2,2.0,2.78
24.165627002716064,1.82,-0.25,2.13,2.81
24.17569088935852,1.82,-0.22,1.86,2.61
24.18569803237915,2.31,-0.1,1.56,2.78
24.19579291343689,3.21,0.02,1.0,3.36
24.205731868743896,3.49,0.13,0.31,3.5
24.237792015075684,3.28,0.28,0.24,3.3
24.23821187019348,3.01,0.6,0.1,3.07
24.238627910614014,2.66,0.76,-0.23,2.77
24.245680809020996,1.95,0.8,-0.23,2.12
24.255506992340088,1.01,0.74,0.12,1.25
24.265601873397827,0.15,0.8,0.11,0.82
24.27576780319214,-0.46,1.96,-0.45,2.06
24.28557300567627,0.07,3.26,-0.1,3.26
24.295647859573364,1.05,2.93,1.53,3.46
24.30557680130005,1.36,2.89,0.98,3.34
24.33797287940979,1.74,3.38,0.63,3.85
24.338392734527588,2.38,4.19,0.84,4.89
24.3388090133667,3.35,4.62,0.93,5.78
24.3455069065094,3.64,4.46,0.74,5.8
24.35533094406128,3.06,4.07,-0.37,5.1
24.365423917770386,2.74,4.02,-1.69,5.15
24.375459909439087,2.65,4.06,-2.42,5.41
24.385406017303467,2.11,3.04,-2.37,4.39
24.395421028137207,1.46,1.5,-1.82,2.77
24.405428886413574,1.39,0.4,-1.06,1.79
24.43696880340576,1.92,0.28,-0.2,1.95
24.437391757965088,2.51,-0.99,0.73,2.79
24.437803745269775,1.5,-1.56,1.77,2.79
24.445315837860107,3.67,-1.31,-0.14,3.89
24.45532488822937,6.25,-1.0,0.05,6.32
24.46525001525879,7.14,-0.67,2.02,7.45
24.475355863571167,7.14,-1.57,2.99,7.89
24.485313892364502,6.34,-2.25,2.76,7.27
24.495365858078003,5.77,-2.21,2.37,6.61
24.505300045013428,5.32,-1.97,2.4,6.15
24.538743019104004,4.53,-1.66,2.48,5.42
24.539169788360596,3.78,-1.38,2.24,4.6
24.53959083557129,3.43,-1.07,1.97,4.09
24.545241832733154,3.33,-0.62,1.81,3.84
24.555165767669678,3.11,0.0,1.62,3.5
24.565124988555908,2.37,0.68,1.42,2.84
24.575212955474854,1.2,1.41,0.88,2.04
24.585068941116333,0.35,1.96,-0.06,1.99
24.59511685371399,0.59,2.31,-0.83,2.52
24.605134963989258,-0.75,2.84,-0.47,2.97
24.63864278793335,-3.16,2.56,-0.35,4.08
24.63908576965332,-4.46,2.45,-0.91,5.16
24.639526844024658,-5.27,2.72,-1.6,6.14
24.645066738128662,-5.01,2.77,-2.19,6.12
24.655088901519775,-4.28,2.64,-2.32,5.53
24.664976835250854,-3.6,2.4,-2.49,4.99
24.67499089241028,-3.33,2.31,-2.86,4.96
24.684988021850586,-3.66,2.1,-2.89,5.11
24.694970846176147,-4.55,1.6,-2.71,5.53
24.70491075515747,-5.63,0.96,-2.64,6.29
24.739094734191895,-6.32,0.02,-2.75,6.89
24.739545822143555,-6.27,-0.83,-2.79,6.91
24.740623950958252,-5.57,-1.47,-2.54,6.29
24.744866847991943,-4.41,-1.87,-2.3,5.31
24.754817008972168,-3.41,-1.83,-2.31,4.5
24.764716863632202,-2.77,-1.6,-2.45,4.02
24.774930000305176,-2.63,-1.12,-2.59,3.85
24.784787893295288,-2.69,-1.06,-2.52,3.83
24.79487371444702,-2.59,-1.47,-2.11,3.64
24.80475687980652,-2.62,-1.93,-1.63,3.63
24.839087963104248,-2.71,-2.36,-1.37,3.84
24.83983588218689,-2.76,-2.45,-1.18,3.87
24.84062886238098,-2.88,-2.38,-1.2,3.92
24.844701766967773,-1.77,1.81,-2.06,3.26
24.85464096069336,3.49,4.11,-1.47,5.58
24.864682912826538,8.13,2.88,2.31,8.92
24.87463903427124,11.84,1.56,8.01,14.37
24.884650707244873,9.39,-1.28,9.04,13.09
24.894640922546387,3.14,-1.77,2.48,4.37
24.90456771850586,-2.0,-1.74,-2.54,3.67
24.939268827438354,-3.85,-0.66,-4.22,5.75
24.940358877182007,-2.5,0.53,-3.84,4.61
24.940785884857178,-0.46,1.43,-2.48,2.89
24.94458293914795,0.41,2.0,-0.74,2.17
24.95458173751831,-0.5,1.64,0.55,1.8
24.964539051055908,-2.79,1.61,0.73,3.3
24.97446298599243,-5.41,2.77,-0.05,6.07
24.984511852264404,-7.72,3.5,-1.54,8.61
24.99455189704895,-6.89,2.92,-3.01,8.06
25.004435062408447,-3.28,1.51,-2.49,4.38
25.040331840515137,-1.89,1.54,-2.05,3.18
25.04075574874878,-2.51,-0.68,-2.41,3.54
25.04117202758789,-1.65,-0.74,-2.36,2.97
25.04443073272705,-0.6,-0.63,-1.29,1.55
25.054365873336792,-0.47,-1.3,-0.16,1.39
25.06429672241211,-0.87,-1.48,-0.01,1.71
25.074227809906006,-0.78,-0.89,-0.52,1.29
25.084531784057617,-0.5,-0.38,-0.46,0.77
25.094302892684937,-0.27,-0.26,-0.16,0.4
25.10425901412964,-0.36,0.15,-0.26,0.46
25.1400249004364,-0.16,0.63,-0.46,0.79
25.140774726867676,-0.01,0.24,-0.09,0.25
25.141198873519897,-0.72,-0.32,0.49,0.92
25.144181728363037,-1.73,-0.42,0.29,1.8
25.154155731201172,-2.57,-0.28,-0.19,2.59
25.16414189338684,-2.92,0.01,-0.46,2.95
25.17398190498352,-2.75,0.01,-0.85,2.87
25.184197902679443,-2.2,-0.25,-1.58,2.72
25.194238901138306,-1.67,-0.35,-1.32,2.15
25.204169750213623,-1.3,-0.49,-0.65,1.53
25.240258932113647,-1.21,-0.37,-0.16,1.27
25.240684032440186,-0.6,0.06,0.1,0.61
25.241102933883667,0.24,0.39,-0.07,0.46
25.244082927703857,0.6,0.47,-0.75,1.06
25.253999710083008,0.21,0.16,-0.95,0.98
25.264025926589966,-0.27,-0.13,-0.98,1.02
25.274075984954834,-0.43,-0.14,-0.92,1.02
25.284005880355835,-0.68,0.0,-0.82,1.06
25.294042825698853,-0.81,0.24,-1.21,1.47
25.304000854492188,-0.56,0.03,-1.42,1.52
25.339439868927002,-0.39,-0.17,-1.22,1.29
25.33986473083496,-0.5,0.04,-0.91,1.03
25.3405818939209,-0.5,0.07,-0.55,0.74
25.343979835510254,-0.4,0.0,-0.92,1.0
25.353806972503662,-0.19,-0.15,-1.28,1.3
25.363985061645508,0.27,-0.11,-0.73,0.78
25.374125957489014,0.24,0.04,0.05,0.24
25.383898735046387,-0.54,0.09,0.55,0.77
25.39389991760254,-0.97,0.02,0.77,1.23
25.40383291244507,-0.76,-0.14,0.31,0.83
25.439769744873047,-0.49,-0.21,0.14,0.55
25.44020175933838,-0.53,-0.1,0.37,0.65
25.440958976745605,-0.69,-0.04,0.68,0.96
25.44379997253418,-0.67,-0.09,0.77,1.02
25.45375680923462,-0.58,-0.08,0.58,0.82
25.463762760162354,-0.38,-0.04,0.38,0.53
25.47371792793274,-0.21,-0.06,0.11,0.24
25.483702898025513,0.1,0.05,-0.3,0.32
25.49374485015869,0.54,0.02,-0.07,0.54
25.503689765930176,0.56,0.01,0.19,0.59
25.539599895477295,0.61,0.14,-0.39,0.73
25.540026903152466,0.49,0.07,-1.35,1.43
25.54078984260559,0.36,-0.03,-2.31,2.33
25.543566942214966,0.56,0.1,-2.14,2.21
25.553590774536133,0.66,0.14,-1.36,1.51
25.563532829284668,0.85,0.01,-0.62,1.05
25.57353687286377,0.84,-0.15,-0.1,0.85
25.583499908447266,0.25,-0.14,0.26,0.38
25.593536853790283,0.06,-0.18,0.79,0.81
25.60339879989624,-0.23,-0.2,0.73,0.79
25.640079021453857,-0.44,-0.04,0.47,0.64
25.640511989593506,-0.04,-0.08,0.52,0.52
25.64131188392639,0.01,-0.12,-0.06,0.13
25.643515825271606,-0.15,0.07,-0.7,0.71
25.653443813323975,-0.02,-0.05,-0.56,0.56
25.66340184211731,0.1,-0.09,-0.48,0.49
25.673375844955444,0.31,-0.02,-0.45,0.54
25.683414936065674,0.58,0.07,-0.26,0.63
25.69343900680542,0.74,0.02,-0.28,0.79
25.703289031982422,0.74,0.01,-0.26,0.78
25.73973274230957,0.62,0.04,-0.11,0.63
25.74015784263611,0.0,-0.12,-0.31,0.33
25.740575790405273,-0.79,-0.08,-0.54,0.96
25.743310928344727,-1.27,0.04,-0.25,1.29
25.753301858901978,-1.14,0.03,-0.46,1.22
25.76328992843628,-0.43,0.04,-0.69,0.81
25.773156881332397,0.16,0.03,-0.21,0.26
25.783267974853516,0.7,-0.02,0.65,0.95
25.793243885040283,1.08,0.02,0.92,1.41
25.80307388305664,0.87,0.13,0.54,1.03
25.839930057525635,0.62,0.16,0.16,0.66
25.840356826782227,0.51,0.24,0.22,0.6
25.841137886047363,0.54,0.38,0.12,0.67
25.843135833740234,0.94,0.35,-0.13,1.01
25.85313391685486,1.49,0.21,-0.29,1.53
25.86307191848755,1.67,0.11,-0.29,1.69
25.873072862625122,1.49,0.21,-0.18,1.51
25.883067846298218,1.36,0.33,0.23,1.41
25.893094062805176,1.17,0.4,0.71,1.42
25.903024911880493,1.13,0.4,0.91,1.5
25.938792943954468,1.21,0.1,0.84,1.47
25.93921995162964,1.51,-0.07,0.64,1.64
25.939637899398804,1.86,0.02,0.32,1.88
25.94304370880127,1.94,0.11,0.19,1.95
25.952991008758545,1.77,0.19,-0.02,1.78
25.963018894195557,1.75,0.42,-0.19,1.8
25.97293472290039,1.52,1.19,-0.38,1.96
25.9829158782959,1.61,2.14,-0.13,2.68
25.9929678440094,1.94,2.43,0.61,3.16
26.00292992591858,1.86,2.22,0.91,3.03
26.039824962615967,1.39,2.07,0.38,2.52
26.04024600982666,1.04,2.22,-0.2,2.45
26.040667057037354,1.0,2.04,-0.36,2.3
26.042860984802246,1.3,1.71,-0.05,2.14
26.05281972885132,1.56,1.64,0.35,2.29
26.062882900238037,1.69,1.79,-0.1,2.46
26.072722911834717,1.7,1.78,-0.77,2.57
26.08277177810669,2.29,1.29,-1.03,2.82
26.092805862426758,3.18,0.94,-0.67,3.38
26.102770805358887,3.18,1.59,0.37,3.57
26.139185905456543,3.49,2.14,-0.06,4.09
26.13962173461914,4.54,1.04,-0.37,4.67
26.140041828155518,4.49,0.92,0.75,4.64
26.142640829086304,4.57,0.67,1.43,4.83
26.15257501602173,4.48,0.01,1.32,4.67
26.162741899490356,4.22,-0.28,0.93,4.33
26.172754764556885,3.97,-0.33,0.7,4.04
26.182811737060547,3.51,-0.47,0.75,3.61
26.19275689125061,3.08,-0.47,0.72,3.19
26.20276689529419,2.86,-0.31,0.59,2.93
26.24000597000122,2.76,-0.18,0.49,2.8
26.240417957305908,2.63,-0.17,0.49,2.68
26.240822792053223,2.49,-0.2,0.47,2.54
26.242475032806396,2.31,-0.38,0.57,2.4
26.25247097015381,1.99,-0.46,0.75,2.17
26.26253080368042,1.69,-0.29,0.72,1.85
26.27241587638855,1.72,-0.01,0.53,1.79
26.282418727874756,1.95,0.18,0.41,2.0
26.29234790802002,1.99,0.34,0.4,2.05
26.302398920059204,1.77,0.47,0.43,1.88
26.33940601348877,1.39,0.55,0.41,1.55
26.339828968048096,0.99,0.63,0.38,1.23
26.340242862701416,0.51,0.79,0.37,1.01
26.34232473373413,-0.07,0.84,0.25,0.87
26.35235595703125,-0.52,0.77,0.13,0.93
26.362380981445312,-0.7,0.75,-0.14,1.03
26.372262954711914,-0.5,0.89,-0.43,1.1
26.382282733917236,-1.85,0.85,-0.01,2.03
26.39213490486145,-2.59,0.52,-0.12,2.64
26.402245044708252,-2.55,0.59,-0.57,2.67
26.44009780883789,-2.49,0.71,-0.85,2.72
26.440521717071533,-2.44,0.55,-0.71,2.6
26.440929889678955,-2.44,0.48,-0.49,2.53
26.442031860351562,-2.64,0.66,-0.48,2.76
26.452173709869385,-2.93,0.82,-0.68,3.11
26.46215581893921,-2.78,0.92,-1.04,3.1
26.472134828567505,-2.31,0.84,-1.32,2.79
26.48210382461548,-2.03,0.41,-1.32,2.45
26.491986751556396,-2.07,-0.09,-1.25,2.41
26.502099990844727,-2.47,-0.53,-1.37,2.87
26.539856910705566,-3.19,-0.99,-1.47,3.64
26.540284872055054,-3.62,-1.12,-1.56,4.09
26.540700912475586,-3.84,-0.75,-1.75,4.28
26.541878938674927,-4.04,-0.55,-1.96,4.52
26.552157878875732,-4.31,-0.94,-2.05,4.86
26.561991930007935,-4.86,-1.52,-2.14,5.52
26.57201886177063,-5.13,-1.95,-2.34,5.96
26.581965923309326,-4.4,-1.56,-2.43,5.26
26.591930866241455,-3.36,-1.24,-2.28,4.24
26.601905822753906,-3.01,-1.5,-1.85,3.83
26.640636920928955,-3.18,1.31,-2.04,3.99
26.641060829162598,-0.35,4.07,-2.24,4.65
26.641901969909668,2.19,1.81,-0.27,2.85
26.64232301712036,6.39,1.84,2.97,7.28
26.651949882507324,8.99,-0.18,7.12,11.46
26.661865711212158,6.65,-1.32,5.4,8.66
26.671823024749756,2.14,-1.04,0.27,2.39
26.681789875030518,-1.44,0.25,-2.49,2.88
26.692025899887085,-1.84,1.27,-2.09,3.06
26.701761722564697,0.24,1.71,-0.97,1.98
26.740097999572754,1.66,1.84,-0.52,2.53
26.740525722503662,1.51,1.16,-0.36,1.93
26.740948915481567,0.05,0.25,-0.04,0.25
26.741933822631836,-2.29,0.7,0.11,2.39
26.751699924468994,-4.53,1.68,-0.32,4.84
26.761716842651367,-4.96,1.83,-1.07,5.39
26.771667003631592,-3.51,1.1,-1.21,3.87
26.781633853912354,-1.5,-0.47,-0.69,1.71
26.7916579246521,-0.59,-0.57,-0.4,0.91
26.801631927490234,-2.26,-1.4,-2.33,3.53
26.84046983718872,-4.09,-1.55,-5.3,6.87
26.840898036956787,-2.74,1.44,-4.89,5.78
26.841344833374023,-1.5,0.92,-0.11,1.76
26.842108726501465,-2.27,-1.8,2.02,3.53
26.851562976837158,-2.25,-2.02,0.58,3.07
26.861571788787842,-1.29,-0.45,-1.6,2.1
26.87141180038452,-0.41,0.99,-2.53,2.74
26.881513833999634,0.44,1.67,-2.38,2.94
26.89150094985962,0.83,0.75,-1.72,2.05
26.901381969451904,-0.36,-0.26,-0.52,0.68
26.941243886947632,-2.14,-0.42,0.24,2.19
26.94167470932007,-3.12,-0.3,-0.15,3.13
26.942433834075928,-3.13,-0.36,-0.66,3.21
26.942839860916138,-2.8,-0.18,-0.66,2.88
26.951226711273193,-2.27,-0.21,-0.17,2.28
26.961362838745117,-1.61,-0.29,-0.03,1.63
26.97134304046631,-0.69,-0.44,0.07,0.82
26.981342792510986,-0.2,-0.52,0.5,0.74
26.99134397506714,-0.43,-0.4,0.48,0.75
27.001197814941406,-0.69,-0.22,0.21,0.75
27.042367935180664,-0.97,-0.25,0.55,1.14
27.042794942855835,-1.49,-0.1,1.49,2.1
27.043254852294922,-1.41,0.24,2.08,2.52
27.043675899505615,-0.91,0.14,1.28,1.57
27.05122470855713,-0.31,-0.13,-0.05,0.33
27.061133861541748,-0.18,-0.17,-0.94,0.97
27.07110285758972,-0.72,-0.06,-1.26,1.45
27.081100940704346,-0.83,0.03,-1.11,1.38
27.091071844100952,-0.6,0.07,-1.05,1.21
27.101054906845093,-0.27,0.18,-1.1,1.14
27.140703916549683,0.03,0.2,-1.11,1.12
27.141133785247803,-0.08,0.0,-0.79,0.79
27.14154577255249,-0.52,0.02,-0.6,0.79
27.14228892326355,-0.8,0.13,-0.31,0.86
27.150979042053223,-0.94,0.11,-0.01,0.94
27.161118984222412,-0.97,0.29,0.16,1.02
27.17203688621521,-1.01,0.2,0.42,1.11
27.181102752685547,-0.82,-0.04,-0.21,0.84
27.19103479385376,-0.55,-0.21,-0.82,1.0
27.200877904891968,-0.19,-0.26,-0.49,0.58
27.240399837493896,-0.13,-0.14,-0.34,0.39
27.240849018096924,-0.05,-0.07,-0.22,0.23
27.24126887321472,0.02,-0.1,-0.82,0.82
27.241689920425415,-0.01,-0.22,-1.84,1.85
27.250972747802734,-0.05,-0.39,-1.6,1.64
27.260977745056152,0.16,-0.49,-0.89,1.02
27.27085304260254,0.21,-0.38,-0.58,0.72
27.28092885017395,0.23,-0.2,-0.36,0.47
27.290873050689697,0.32,-0.06,-0.23,0.39
27.300909996032715,0.37,-0.19,-0.52,0.66
27.340569019317627,0.53,-0.17,-0.65,0.85
27.340999841690063,0.82,-0.01,-0.42,0.92
27.341416835784912,1.15,0.09,-0.18,1.16
27.341831922531128,0.78,-0.03,-0.26,0.82
27.350703716278076,0.31,-0.01,-0.29,0.42
27.360793828964233,0.28,-0.04,0.02,0.28
27.370712757110596,0.48,-0.04,0.04,0.48
27.38077402114868,0.83,0.14,-0.12,0.85
27.390610933303833,1.03,0.17,0.01,1.04
27.400715827941895,0.75,0.03,-0.06,0.75
27.440910816192627,0.28,0.1,-0.24,0.38
27.441339015960693,0.08,0.17,0.02,0.18
27.44175672531128,0.06,0.03,0.21,0.22
27.44217300415039,0.04,-0.05,-0.03,0.07
27.450636863708496,0.21,0.04,0.04,0.21
27.460688829421997,0.17,-0.05,0.16,0.23
27.470565795898438,-0.2,-0.18,-0.06,0.27
27.480615854263306,-0.31,-0.04,-0.39,0.49
27.490540981292725,-0.32,-0.01,-0.41,0.52
27.500524044036865,-0.28,-0.04,-0.33,0.43
27.540857791900635,-0.22,-0.04,-0.08,0.23
27.54124879837036,-0.22,0.0,0.17,0.27
27.541648864746094,-0.09,0.08,0.11,0.16
27.542065858840942,0.1,0.06,0.17,0.2
27.55048704147339,0.4,-0.04,0.19,0.44
27.56044292449951,0.68,0.01,0.1,0.68
27.570420742034912,0.74,-0.06,0.15,0.75
27.58045482635498,0.23,-0.09,-0.21,0.32
27.590390920639038,-0.55,0.02,-0.77,0.94
27.600396871566772,-0.97,0.13,-0.78,1.25
27.641061782836914,-1.02,0.12,-0.82,1.31
27.641486883163452,-1.04,0.14,-0.91,1.38
27.641902923583984,-1.06,0.26,-1.08,1.53
27.64231777191162,-0.83,0.32,-1.19,1.48
27.650364875793457,-0.39,0.36,-1.07,1.19
27.66034483909607,0.16,0.3,-0.74,0.81
27.670273780822754,0.85,0.17,-0.3,0.91
27.680282831192017,1.6,0.02,-0.06,1.6
27.690229892730713,2.43,-0.12,-0.08,2.43
27.70053482055664,3.27,-0.22,0.21,3.28
27.74071979522705,3.81,-0.13,0.82,3.89
27.741147994995117,3.84,-0.07,1.29,4.05
27.741562843322754,3.5,-0.39,1.44,3.8
27.741992950439453,3.09,-0.47,1.54,3.48
27.750192880630493,3.02,-0.13,1.72,3.47
27.75999879837036,3.15,0.31,2.01,3.74
27.770083904266357,3.71,0.56,2.25,4.37
27.780057907104492,4.29,0.76,1.92,4.76
27.7901029586792,4.21,1.43,0.88,4.53
27.800103902816772,3.42,2.11,-0.23,4.02
27.840662956237793,1.91,2.32,-0.54,3.05
27.841091871261597,-0.06,2.64,-0.34,2.66
27.841508865356445,-0.94,2.94,-0.57,3.13
27.841923713684082,0.04,2.8,-0.04,2.8
27.849989891052246,0.31,3.08,0.71,3.17
27.85987377166748,1.43,3.15,0.39,3.48
27.86997389793396,2.7,3.85,0.08,4.7
27.879976749420166,3.22,3.83,-0.27,5.01
27.889955043792725,3.42,3.5,-0.68,4.94
27.899972915649414,3.39,3.34,-0.92,4.84
27.9405779838562,3.02,3.18,-1.06,4.51
27.941006898880005,1.72,2.7,-1.42,3.5
27.94142484664917,0.72,2.01,-1.94,2.88
27.941837787628174,0.12,1.51,-1.84,2.38
27.94982886314392,0.03,0.99,-1.46,1.76
27.95970582962036,1.01,0.54,-0.99,1.51
27.969799995422363,2.03,-0.7,0.22,2.15
27.979783058166504,1.66,-1.66,1.1,2.59
27.98988389968872,1.75,-1.95,0.23,2.63
27.999783039093018,4.31,-2.3,-0.73,4.93
28.041372776031494,7.52,-1.54,0.53,7.69
28.041807889938354,8.82,-1.77,2.24,9.27
28.042228937149048,8.39,-2.58,2.83,9.22
28.042646884918213,7.64,-2.71,2.5,8.48
28.049787044525146,7.04,-2.28,2.21,7.72
28.05982780456543,6.59,-1.67,2.4,7.2
28.069475889205933,6.01,-1.13,2.47,6.59
28.07969379425049,5.23,-0.74,2.23,5.73
28.089545726776123,4.36,-0.42,1.86,4.75
28.09962487220764,3.42,-0.07,1.49,3.73
28.141319751739502,2.39,0.24,1.08,2.63
28.14174485206604,1.17,0.63,0.58,1.44
28.142160892486572,-0.08,1.05,-0.08,1.05
28.142576932907104,-1.04,1.45,-0.75,1.93
28.14955472946167,-1.39,1.95,-1.24,2.69
28.159857749938965,-0.65,2.54,-1.82,3.19
28.16944193840027,-2.06,3.31,-1.0,4.02
28.179503917694092,-3.17,2.99,-1.11,4.49
28.189482927322388,-3.11,3.33,-1.77,4.88
28.199480056762695,-2.76,3.67,-2.03,5.02
28.209486961364746,-2.74,3.75,-2.22,5.14
28.242265939712524,-2.93,3.08,-2.26,4.81
28.242689847946167,-3.05,2.0,-2.07,4.19
28.2434298992157,-3.42,1.14,-2.06,4.15
28.249477863311768,-3.79,0.56,-2.08,4.35
28.259373903274536,-3.97,0.38,-2.22,4.56
28.26934790611267,-4.07,0.15,-2.36,4.7
28.279380798339844,-4.07,-0.07,-2.6,4.83
28.28939390182495,-4.0,-0.37,-3.18,5.12
28.29927396774292,-3.86,-0.47,-3.36,5.13
28.309269905090332,-3.58,-0.78,-2.65,4.52
28.34143090248108,-3.6,-1.42,-1.97,4.34
28.341858863830566,-4.22,-1.82,-1.86,4.95
28.342278003692627,-4.99,-2.08,-1.96,5.75
28.34922695159912,-6.0,-2.02,-2.16,6.68
28.359149932861328,-7.08,-2.11,-2.47,7.78
28.369122982025146,-6.51,0.47,-2.6,7.02
28.37920093536377,-2.36,5.01,-1.91,5.85
28.38913083076477,-0.76,0.26,-0.38,0.88
28.39913582801819,2.15,-0.85,0.74,2.42
28.40908193588257,7.52,-0.33,5.27,9.18
28.441428899765015,7.81,-1.67,7.6,11.02
28.441860914230347,3.81,-1.23,2.42,4.67
28.44229292869568,-1.14,0.23,-1.67,2.03
28.44905996322632,-3.74,0.42,-1.72,4.13
28.459028720855713,-3.03,1.02,-0.69,3.27
28.46902585029602,-1.34,2.37,-0.56,2.77
28.478993892669678,-0.2,3.09,-0.68,3.17
28.488956928253174,0.33,3.31,-0.79,3.41
28.499053955078125,-1.12,2.52,-1.75,3.26
28.508960723876953,-2.3,0.57,-2.38,3.35
28.54246473312378,-1.94,-0.44,-1.73,2.63
28.542892932891846,-2.94,2.47,-0.81,3.92
28.54397988319397,-7.21,1.36,-3.28,8.03
28.54891085624695,-8.67,-0.07,-4.53,9.78
28.55881977081299,-4.71,0.58,-0.88,4.82
28.568927764892578,-1.29,-1.33,0.86,2.04
28.57892394065857,0.48,-1.87,0.2,1.94
28.5888569355011,2.06,-1.91,-0.62,2.87
28.5989089012146,1.61,-2.03,-1.32,2.9
28.608773708343506,0.71,-1.06,-1.07,1.66
28.642475843429565,0.25,0.54,-0.98,1.14
28.642903804779053,-0.03,1.61,-0.88,1.83
28.643643856048584,-0.63,1.56,-1.38,2.17
28.64874291419983,-0.58,0.29,-1.81,1.92
28.65867805480957,-1.31,-0.77,-0.69,1.66
28.66874885559082,-2.08,-0.94,0.17,2.28
28.678691864013672,-2.71,-0.58,0.85,2.89
28.688730716705322,-3.12,-0.2,0.94,3.26
28.698789834976196,-2.49,0.23,0.73,2.6
28.708611965179443,-1.06,0.22,0.15,1.09
28.74248504638672,-0.12,-0.22,-0.5,0.55
28.742909908294678,0.07,-0.24,-0.42,0.48
28.743993759155273,-0.39,-0.01,-0.22,0.44
28.748653888702393,-0.72,0.05,-0.34,0.79
28.75854778289795,-0.84,-0.07,-0.31,0.89
28.768540859222412,-0.84,-0.24,-0.22,0.9
28.77858877182007,-0.96,-0.22,-0.27,1.02
28.78856086730957,-1.06,-0.2,-0.3,1.11
28.82496690750122,-1.2,-0.08,-0.34,1.24
28.825394868850708,-1.15,-0.06,-0.1,1.15
28.825800895690918,-1.11,-0.06,-0.16,1.12
28.828503847122192,-1.17,-0.02,-0.56,1.29
28.83847999572754,-1.1,-0.01,-0.63,1.26
28.848461866378784,-0.85,-0.01,-0.8,1.16
28.858431816101074,-0.98,-0.14,-0.76,1.24
28.86839199066162,-1.27,-0.04,-0.63,1.41
28.87836503982544,-1.24,-0.01,-0.57,1.36
28.888291835784912,-1.02,-0.15,-0.47,1.13
28.925874710083008,-0.88,-0.18,-0.37,0.97
28.926304817199707,-0.8,0.0,-0.13,0.81
28.926723957061768,-0.82,0.05,0.06,0.82
28.92837905883789,-0.65,-0.05,0.05,0.65
28.93830680847168,-0.4,0.01,0.08,0.4
28.948309898376465,-0.17,-0.09,0.09,0.21
28.958202838897705,-0.11,-0.19,-0.12,0.25
28.968283891677856,-0.24,-0.21,-0.34,0.46
28.978211879730225,-0.36,-0.07,-0.28,0.46
28.988277912139893,-0.3,0.05,-0.11,0.32
29.025352001190186,-0.16,0.0,-0.19,0.24
29.025781869888306,0.13,-0.09,-0.41,0.43
29.026200771331787,0.45,-0.03,-0.83,0.94
29.028130054473877,0.93,-0.02,-1.33,1.62
29.038161754608154,1.47,-0.24,-1.42,2.05
29.048182010650635,1.77,-0.34,-1.68,2.46
29.058146953582764,1.75,-0.35,-1.44,2.29
29.068113803863525,1.03,-0.17,-0.61,1.2
29.077977895736694,0.29,-0.04,-0.25,0.38
29.088054895401,0.18,-0.24,0.04,0.3
29.125360012054443,0.42,-0.18,0.27,0.53
29.12579083442688,0.91,-0.08,0.15,0.92
29.12620973587036,1.17,0.01,-0.28,1.2
29.127822875976562,1.07,0.14,-0.39,1.14
29.137924909591675,0.66,0.08,-0.34,0.74
29.147995948791504,0.1,0.01,-0.34,0.35
29.157927989959717,-0.38,0.09,-0.39,0.55
29.167825937271118,-0.7,0.19,-0.13,0.73
29.17782688140869,-0.79,0.28,0.21,0.86
29.18796992301941,-0.36,0.19,0.22,0.46
29.2250657081604,0.36,0.05,-0.04,0.36
29.225488901138306,0.94,0.1,-0.2,0.96
29.225903034210205,1.06,-0.03,-0.07,1.06
29.227691888809204,0.42,-0.09,-0.03,0.43
29.237812042236328,-0.4,-0.03,-0.24,0.46
29.24785089492798,-0.68,0.02,-0.22,0.71
29.257751941680908,-0.58,-0.06,-0.09,0.59
29.267788887023926,-0.42,-0.07,-0.06,0.42
29.27765393257141,-0.15,-0.09,0.02,0.17
29.28775405883789,0.33,-0.06,0.16,0.37
29.32434892654419,0.93,0.0,0.21,0.95
29.32477378845215,1.33,-0.05,0.46,1.4
29.325174808502197,1.33,-0.04,0.68,1.49
29.327754020690918,1.18,-0.16,0.63,1.34
29.33767080307007,0.64,-0.15,0.44,0.79
29.347625732421875,0.14,-0.1,0.12,0.2
29.357624053955078,0.19,-0.15,0.18,0.3
29.367619037628174,0.39,-0.14,0.13,0.43
29.377768993377686,0.47,-0.08,-0.02,0.47
29.387528896331787,0.46,0.03,-0.19,0.49
29.424566745758057,0.57,0.1,-0.39,0.69
29.42499303817749,0.85,0.11,-0.44,0.96
29.425426959991455,1.17,0.13,-0.38,1.23
29.427731037139893,1.42,0.04,-0.28,1.44
29.437532901763916,1.48,-0.03,-0.06,1.48
29.447495937347412,1.46,0.06,-0.04,1.46
29.45732283592224,1.65,0.08,0.1,1.65
29.467464923858643,1.84,0.1,0.18,1.85
29.477767944335938,1.82,0.18,0.42,1.87
29.487431049346924,1.97,0.2,0.77,2.12
29.524839878082275,1.61,0.37,0.71,1.79
29.5252628326416,0.79,0.68,0.59,1.19
29.525677919387817,0.04,0.89,0.38,0.96
29.527352809906006,0.03,1.06,0.16,1.07
29.537359714508057,0.39,1.29,-0.14,1.35
29.547319889068604,0.58,1.57,-0.35,1.7
29.557305812835693,0.59,2.27,-0.39,2.37
29.567299842834473,2.03,4.97,-1.02,5.46
29.57730793952942,5.07,5.97,0.65,7.85
29.58732271194458,4.82,5.39,2.11,7.53
29.625216007232666,3.83,4.54,0.27,5.94
29.625638961791992,2.68,4.16,0.33,4.95
29.62605381011963,2.22,3.55,0.7,4.24
29.627135753631592,2.31,3.13,-0.18,3.89
29.63714075088501,2.45,3.26,-0.89,4.17
29.64724087715149,2.78,2.94,-1.57,4.34
29.657177925109863,2.55,2.26,-2.26,4.08
29.667208909988403,1.67,1.28,-2.22,3.05
29.677138805389404,1.1,0.08,-1.29,1.69
29.687084913253784,1.31,-0.68,0.02,1.47
29.725390911102295,0.17,-1.2,1.32,1.79
29.72582197189331,-0.23,-1.16,0.86,1.46
29.726237773895264,2.56,-1.12,0.2,2.8
29.72692084312439,5.41,-0.84,2.3,5.93
29.73696279525757,6.6,-0.96,3.24,7.41
29.747025966644287,6.28,-1.65,2.7,7.03
29.757001876831055,6.13,-1.85,2.06,6.72
29.766997814178467,6.31,-1.67,2.06,6.84
29.77697992324829,6.22,-1.61,2.13,6.76
29.787019729614258,5.66,-1.66,1.93,6.2
29.825615882873535,4.85,-1.8,1.72,5.45
29.826045989990234,4.16,-1.76,1.44,4.74
29.826469898223877,3.61,-1.39,1.12,4.02
29.82691478729248,3.22,-0.91,0.89,3.46
29.836875915527344,2.65,-0.42,0.69,2.77
29.84691095352173,1.75,0.03,0.44,1.8
29.856833934783936,0.81,0.48,-0.23,0.96
29.866862773895264,0.14,0.98,-1.07,1.45
29.876811981201172,0.96,1.26,-2.08,2.61
29.886679887771606,-0.65,2.21,-1.35,2.67
29.925718784332275,-2.75,2.12,-1.27,3.69
29.926151752471924,-3.66,2.36,-1.75,4.69
29.92660093307495,-3.87,2.54,-1.96,5.02
29.927018880844116,-3.5,2.31,-1.87,4.59
29.93672490119934,-2.8,2.14,-1.91,4.0
29.94668483734131,-1.94,2.0,-2.09,3.48
29.956652879714966,-1.25,1.82,-2.35,3.22
29.96670889854431,-0.91,1.63,-2.37,3.01
29.97688889503479,-1.14,1.84,-2.38,3.21
29.986705780029297,-2.59,2.01,-2.55,4.15
30.02586078643799,-3.3,1.21,-2.38,4.24
30.02630591392517,-3.18,0.11,-1.89,3.7
30.026723861694336,-2.92,-0.76,-1.32,3.29
30.027143001556396,-3.1,-1.33,-1.01,3.52
30.03654670715332,-3.67,-1.54,-1.16,4.14
30.046570777893066,-4.02,-1.45,-1.6,4.56
30.05654287338257,-3.71,-1.08,-1.97,4.33
30.066576957702637,-3.13,-0.88,-1.75,3.69
30.07654905319214,-2.75,-1.24,-1.42,3.33
30.0865159034729,-2.81,-1.83,-1.39,3.63
30.126303911209106,-3.51,-1.57,-1.83,4.25
