time,ax,ay,az,atotal
0.016164064407348633,1.99,0.33,-0.33,2.04
0.0164339542388916,0.58,-1.39,0.55,1.6
0.031507015228271484,-0.38,0.13,-0.09,0.41
0.0317690372467041,-0.2,0.15,-0.3,0.39
0.04793906211853027,-0.08,-0.09,-0.16,0.2
0.06478595733642578,0.01,0.03,-0.17,0.17
0.06505298614501953,-0.2,0.01,-0.09,0.21
0.08207106590270996,-0.25,0.0,-0.15,0.29
0.0823371410369873,-0.15,0.01,-0.12,0.19
0.09804987907409668,-0.01,0.03,-0.04,0.05
0.11531496047973633,0.02,-0.01,-0.01,0.02
0.11557602882385254,0.0,-0.02,-0.03,0.03
0.13146710395812988,0.01,-0.04,-0.02,0.04
0.131727933883667,0.03,-0.03,0.02,0.04
0.1478888988494873,0.12,-0.01,0.08,0.14
0.16474199295043945,0.2,-0.03,0.13,0.24
0.16500496864318848,0.15,0.0,0.12,0.19
0.18190312385559082,0.06,0.01,0.06,0.08
0.18214797973632812,0.06,0.0,0.02,0.06
0.19791007041931152,0.06,0.0,-0.02,0.06
0.21505498886108398,0.03,-0.01,-0.07,0.07
0.21532702445983887,-0.04,-0.01,-0.08,0.09
0.231428861618042,-0.09,-0.03,-0.1,0.13
0.23169207572937012,-0.11,-0.01,-0.09,0.14
0.2479231357574463,-0.1,-0.01,-0.07,0.12
0.2645418643951416,-0.04,0.0,-0.04,0.05
0.2647969722747803,0.0,0.0,-0.02,0.02
0.2819998264312744,0.04,0.01,-0.01,0.04
0.28226804733276367,0.07,0.0,-0.02,0.07
0.2979910373687744,0.05,-0.03,0.02,0.06
0.31506896018981934,-0.07,-0.01,-0.01,0.07
0.3153109550476074,-0.07,-0.03,0.01,0.07
0.3314809799194336,-0.06,-0.05,0.08,0.11
0.33173108100891113,-0.13,-0.05,0.11,0.17
0.3479878902435303,-0.15,-0.04,0.13,0.2
0.3500220775604248,-0.09,-0.04,0.19,0.21
0.36469006538391113,-0.03,-0.02,0.2,0.2
0.38201308250427246,-0.04,0.08,0.26,0.27
0.382274866104126,0.09,0.04,0.47,0.48
0.3980591297149658,0.12,-0.08,0.44,0.46
0.4147379398345947,-0.11,-0.15,0.37,0.41
0.41500401496887207,-0.2,-0.18,0.26,0.37
0.43133091926574707,-0.24,-0.11,-0.06,0.27
0.4315941333770752,-0.27,-0.03,-0.25,0.36
0.447983980178833,-0.2,-0.02,-0.36,0.41
0.4499061107635498,-0.07,-0.02,-0.33,0.33
0.46474289894104004,0.02,0.01,-0.28,0.28
0.4820539951324463,0.14,-0.04,-0.08,0.16
0.4823191165924072,0.08,-0.09,0.17,0.2
0.49814701080322266,-0.08,-0.02,0.27,0.28
0.5144751071929932,-0.01,0.05,0.22,0.22
0.5147421360015869,0.18,0.02,0.33,0.37
0.5313980579376221,0.27,-0.04,0.39,0.47
0.5316629409790039,0.33,-0.05,0.38,0.5
0.5479838848114014,0.41,-0.04,0.39,0.56
0.5496881008148193,0.41,-0.06,0.37,0.55
0.5645530223846436,0.41,-0.08,0.31,0.52
0.5819129943847656,0.42,-0.16,0.4,0.6
0.5821599960327148,0.43,-0.16,0.51,0.68
0.5983278751373291,0.39,-0.11,0.66,0.77
0.6001918315887451,0.37,-0.14,0.58,0.7
0.6145651340484619,0.37,-0.15,0.45,0.6
0.6313989162445068,0.29,-0.12,0.33,0.45
0.6316640377044678,0.32,-0.02,0.14,0.34
0.6480228900909424,0.4,0.05,0.04,0.4
0.6495859622955322,0.4,0.04,-0.09,0.41
0.6647319793701172,0.3,-0.02,-0.1,0.31
0.6820838451385498,0.09,-0.05,-0.11,0.15
0.6823499202728271,-0.1,-0.02,-0.17,0.19
0.6980929374694824,-0.13,0.04,-0.15,0.2
0.7000148296356201,-0.08,0.02,-0.13,0.15
0.7146399021148682,0.0,-0.01,-0.1,0.1
0.7316710948944092,0.07,-0.04,0.0,0.08
0.7319381237030029,0.04,-0.09,0.09,0.13
0.7481579780578613,0.0,-0.07,0.17,0.18
0.7493669986724854,0.0,-0.01,0.19,0.19
0.7647550106048584,0.1,0.03,0.15,0.18
0.7820529937744141,0.16,0.02,0.33,0.36
0.7823159694671631,0.1,-0.04,0.65,0.65
0.79811692237854,0.12,-0.08,0.79,0.8
0.7999651432037354,0.27,-0.12,0.83,0.88
0.814777135848999,0.33,-0.23,0.65,0.76
0.8316569328308105,0.44,-0.17,0.57,0.73
0.8319199085235596,0.57,-0.19,0.75,0.96
0.8480319976806641,0.55,-0.27,0.86,1.05
0.8492758274078369,0.56,-0.3,0.77,0.99
0.8648331165313721,0.71,-0.34,0.73,1.07
0.8821079730987549,0.88,-0.3,0.74,1.18
0.8823740482330322,0.89,-0.21,0.73,1.17
0.8981940746307373,0.78,-0.2,0.56,0.98
0.8996319770812988,0.79,-0.34,0.73,1.12
0.9147508144378662,0.77,-0.41,0.76,1.15
0.9317290782928467,0.76,-0.46,0.71,1.13
0.9319930076599121,0.58,-0.41,0.5,0.86
0.9479601383209229,0.66,-0.37,0.31,0.81
0.950019121170044,0.57,-0.43,0.02,0.71
0.964663028717041,0.26,-0.31,-0.05,0.4
0.9821240901947021,-0.12,-0.38,-0.03,0.39
0.9823710918426514,-0.29,-0.52,-0.03,0.59
0.9980628490447998,-0.25,-0.56,0.35,0.7
0.9994571208953857,-0.41,-0.45,-0.11,0.61
1.0146901607513428,-0.84,-0.3,-1.07,1.39
1.0315029621124268,-1.3,-0.14,-1.09,1.7
1.0317749977111816,-1.55,-0.11,-0.96,1.82
1.0479459762573242,-1.7,-0.09,-0.94,1.94
1.0490758419036865,-1.94,-0.11,-0.86,2.12
1.0590050220489502,-1.91,0.1,-0.7,2.03
1.0695488452911377,-1.63,0.24,-0.42,1.7
1.0790479183197021,-1.18,0.13,-0.34,1.23
1.089097023010254,-0.49,0.08,-0.25,0.55
1.0997910499572754,0.1,0.11,-0.03,0.15
1.117811918258667,0.48,0.18,-0.29,0.58
1.1189701557159424,0.55,0.25,-0.82,1.01
1.1289489269256592,0.32,0.27,-1.0,1.08
1.1389400959014893,0.12,0.23,-1.13,1.15
1.1489040851593018,0.22,0.15,-1.1,1.13
1.158879041671753,0.11,0.03,-0.75,0.75
1.1695139408111572,0.07,0.11,-0.39,0.41
1.1790149211883545,0.26,0.21,-0.01,0.33
1.1889710426330566,0.34,0.21,0.15,0.42
1.2000579833984375,0.37,0.28,0.05,0.46
1.2229831218719482,0.37,0.31,-0.1,0.49
1.2233431339263916,0.21,0.25,-0.11,0.34
1.2287919521331787,0.04,0.07,-0.19,0.2
1.2388379573822021,0.2,-0.02,-0.23,0.3
1.2488019466400146,0.39,-0.07,-0.18,0.43
1.2588441371917725,0.48,-0.09,-0.26,0.55
1.2696678638458252,0.57,0.0,-0.36,0.67
1.2789700031280518,0.5,0.0,-0.47,0.68
1.2889831066131592,0.28,-0.09,-0.53,0.6
1.300062894821167,-0.03,-0.1,-0.41,0.42
1.3255469799041748,0.03,-0.09,-0.39,0.4
1.3259198665618896,0.21,-0.11,-0.36,0.43
1.3286540508270264,0.06,-0.05,-0.49,0.49
1.3387539386749268,-0.12,-0.01,-0.54,0.55
1.3486931324005127,-0.31,-0.04,-0.39,0.49
1.358788013458252,-0.5,-0.11,-0.46,0.68
1.3695390224456787,-0.5,-0.12,-0.43,0.67
1.3788840770721436,-0.36,0.01,-0.28,0.45
1.3888838291168213,0.06,0.07,-0.03,0.09
1.4002511501312256,0.48,0.15,0.27,0.57
1.428346872329712,0.73,0.19,0.4,0.85
1.4287350177764893,0.76,0.15,0.22,0.8
1.4291160106658936,0.53,0.13,0.21,0.58
1.438598871231079,0.26,0.1,0.16,0.32
1.4487099647521973,0.22,0.06,0.14,0.26
1.4585540294647217,0.26,0.06,0.14,0.3
1.4694740772247314,0.4,0.08,0.15,0.43
1.4787230491638184,0.62,0.11,0.15,0.64
1.4886739253997803,0.71,0.18,0.16,0.74
1.5000970363616943,0.53,0.27,0.22,0.63
1.5281050205230713,0.43,0.22,0.33,0.58
1.5284910202026367,0.51,0.12,0.29,0.59
1.5288679599761963,0.82,0.06,0.26,0.86
1.53843092918396,1.16,0.18,0.36,1.22
1.5484709739685059,1.31,0.43,0.39,1.43
1.5584628582000732,1.22,0.69,0.34,1.44
1.5696351528167725,1.19,0.82,0.41,1.5
1.5785391330718994,1.07,0.97,0.49,1.52
1.5886080265045166,0.66,1.21,0.55,1.48
1.5998709201812744,0.48,1.34,0.6,1.54
1.628382921218872,0.83,1.59,0.65,1.9
1.6287410259246826,1.63,1.78,0.65,2.49
1.6291170120239258,1.56,1.92,0.85,2.61
1.6382768154144287,1.15,2.37,1.47,3.01
1.6482820510864258,1.44,2.5,1.59,3.29
1.6583199501037598,1.49,2.62,1.94,3.58
1.6699740886688232,1.55,2.9,2.36,4.04
1.6784040927886963,2.13,4.87,2.38,5.82
1.68845796585083,5.36,7.34,2.62,9.45
1.6997668743133545,5.9,6.25,5.28,10.08
1.7297251224517822,4.41,5.67,4.7,8.58
1.7301161289215088,4.47,6.3,4.13,8.75
1.7304918766021729,4.13,6.39,4.81,9.0
1.7381551265716553,3.91,6.66,4.3,8.83
1.7481968402862549,3.95,7.52,3.58,9.21
1.7581918239593506,4.37,8.73,4.06,10.57
1.7695670127868652,5.38,9.88,3.68,11.83
1.7782599925994873,6.18,9.81,1.54,11.69
1.788214921951294,6.41,8.84,0.12,10.92
1.7996020317077637,5.97,7.64,-0.07,9.69
1.8270790576934814,4.26,6.89,-0.55,8.11
1.827711820602417,1.29,8.15,-1.2,8.33
1.8281028270721436,-0.3,7.91,0.74,7.95
1.837934970855713,1.63,5.6,2.41,6.31
1.84791898727417,3.46,3.92,3.0,6.02
1.8581509590148926,0.52,2.4,-0.79,2.57
1.8692939281463623,-1.28,4.83,-5.04,7.09
1.8781499862670898,2.78,6.08,-1.57,6.86
1.8881449699401855,6.13,3.87,1.84,7.47
1.899554967880249,6.95,1.92,2.56,7.65
1.9290521144866943,5.49,0.37,1.95,5.83
1.9294440746307373,4.14,-0.68,1.48,4.44
1.929826021194458,3.44,-1.34,1.72,4.07
1.9378290176391602,2.93,-1.68,1.91,3.88
1.9478719234466553,2.38,-1.87,2.06,3.66
1.9579219818115234,1.75,-1.91,2.07,3.31
1.969099998474121,1.26,-1.83,1.68,2.78
1.9780051708221436,0.86,-1.63,1.15,2.17
1.9879260063171387,0.46,-1.5,0.9,1.8
1.9993088245391846,0.25,-1.52,0.65,1.67
2.029021978378296,0.41,-1.75,0.61,1.89
2.029407024383545,0.64,-2.15,0.65,2.33
2.029784917831421,0.8,-2.55,0.53,2.72
2.037635087966919,0.91,-2.95,0.37,3.1
2.0478079319000244,0.87,-3.4,0.39,3.53
2.057713031768799,0.57,-3.74,0.5,3.81
2.068984031677246,-0.06,-3.74,0.79,3.82
2.0777428150177,-0.57,-3.58,0.59,3.67
2.0877959728240967,-1.49,-3.01,-0.84,3.46
2.099210023880005,-2.35,-2.65,-1.86,4.0
2.132750988006592,-3.54,-2.67,-2.9,5.29
2.1331088542938232,-4.93,-2.43,-3.7,6.62
2.13346004486084,-5.42,-2.18,-3.03,6.58
2.1373839378356934,-5.24,-2.06,-2.82,6.29
2.147372007369995,-5.18,-2.1,-3.56,6.62
2.1574671268463135,-5.94,-2.31,-4.72,7.93
2.1687700748443604,-7.41,-2.34,-6.0,9.81
2.1774351596832275,-8.87,-2.23,-6.61,11.28
2.187596082687378,-8.63,-2.46,-6.43,11.03
2.1986939907073975,-6.7,-3.05,-5.58,9.23
2.2289159297943115,-6.34,-3.06,-5.74,9.08
2.229300022125244,-7.87,-2.31,-7.18,10.9
2.229685068130493,-7.96,-2.4,-6.56,10.59
2.237321138381958,-6.51,-2.94,-5.65,9.1
2.2473881244659424,-5.6,-2.83,-5.29,8.2
2.257377862930298,-5.61,-2.67,-4.63,7.74
2.2682290077209473,-5.79,-2.83,-4.26,7.72
2.2774078845977783,-5.81,-3.17,-4.2,7.83
2.2874770164489746,-6.06,-3.7,-4.28,8.29
2.2985599040985107,-6.97,-2.72,-4.31,8.63
2.329669952392578,-6.67,2.44,-4.69,8.51
2.33005690574646,6.92,-0.29,-0.16,6.92
2.3304431438446045,18.68,9.49,12.49,24.39
2.3378970623016357,25.41,24.9,19.56,40.59
2.347132921218872,1.18,30.4,-11.92,32.67
2.3572280406951904,-5.73,6.09,-20.22,21.88
2.3681039810180664,-10.99,-9.72,-1.43,14.74
2.377254009246826,-15.54,-11.9,7.9,21.1
2.3873488903045654,-13.53,-7.24,-2.45,15.53
2.39837908744812,-11.51,-2.83,-6.56,13.54
2.4259321689605713,-7.0,-0.05,-3.36,7.76
2.426321029663086,-2.84,0.96,-0.7,3.07
2.4269540309906006,0.28,1.15,-1.66,2.03
2.4370968341827393,3.14,1.44,-3.33,4.79
2.447037935256958,4.31,1.52,-3.67,5.86
2.4570820331573486,2.28,1.14,-2.31,3.44
2.4680559635162354,-0.85,0.65,-1.79,2.08
2.4771649837493896,-1.72,0.19,-2.28,2.86
2.487107038497925,-0.92,-0.02,-2.49,2.65
2.498476982116699,-0.55,-0.03,-1.78,1.86
2.5279791355133057,-0.5,0.07,-0.9,1.03
2.528402090072632,-0.71,0.04,-0.4,0.81
2.5288188457489014,-0.97,-0.02,-0.04,0.97
2.5368690490722656,-0.82,-0.01,0.08,0.82
2.5468618869781494,-0.6,0.15,-0.11,0.62
2.556920051574707,-0.26,0.23,-0.39,0.52
2.5680501461029053,0.25,0.14,-0.56,0.62
2.577036142349243,0.62,-0.05,-0.41,0.74
2.587083101272583,0.49,-0.14,0.18,0.54
2.5983221530914307,-0.12,-0.08,0.65,0.66
2.6296329498291016,-0.7,-0.02,0.38,0.79
2.6300570964813232,-0.78,0.08,0.24,0.82
2.6304759979248047,-0.35,0.01,0.34,0.48
2.636744976043701,0.37,0.03,0.54,0.65
2.646777868270874,0.99,0.21,0.71,1.23
2.65677809715271,1.36,0.36,0.75,1.59
2.66784405708313,1.12,0.36,0.77,1.4
2.6768758296966553,0.59,0.28,1.02,1.21
2.6868410110473633,0.27,0.22,1.35,1.39
2.6982100009918213,0.25,0.1,1.37,1.39
2.7299749851226807,0.67,-0.03,1.47,1.61
2.730397939682007,1.64,0.02,1.52,2.23
2.7308130264282227,2.39,0.18,1.39,2.77
2.7365400791168213,2.33,0.3,1.12,2.6
2.746649980545044,1.87,0.47,0.73,2.06
2.7568728923797607,1.61,0.64,0.65,1.85
2.767728090286255,1.58,0.76,0.9,1.97
2.776792049407959,1.86,0.74,1.52,2.51
2.7867519855499268,2.52,0.84,1.66,3.13
2.7983548641204834,3.07,1.51,1.37,3.68
2.8299269676208496,2.59,2.04,1.51,3.62
2.830345869064331,2.3,2.06,1.63,3.49
2.8307621479034424,2.2,2.16,2.08,3.71
2.8364861011505127,2.3,2.26,2.68,4.19
2.8466241359710693,2.85,2.63,2.94,4.86
2.856487989425659,3.54,3.05,3.12,5.61
2.8676440715789795,4.04,3.46,3.22,6.21
2.876595973968506,4.38,3.73,3.42,6.69
2.886765956878662,4.39,4.16,3.68,7.07
2.8979849815368652,3.94,5.62,3.82,7.85
2.9307668209075928,4.12,8.01,4.14,9.91
2.9312000274658203,5.52,9.58,5.59,12.38
2.93162202835083,5.87,10.02,6.82,13.46
2.936547040939331,5.85,10.48,6.98,13.88
2.9464261531829834,7.25,11.75,6.28,15.16
2.9563381671905518,8.63,11.52,4.43,15.06
2.9674010276794434,8.32,10.48,1.22,13.43
2.9765050411224365,6.24,10.26,-2.78,12.32
2.9868760108947754,3.11,11.71,-6.23,13.62
2.997722864151001,0.76,14.37,-4.72,15.14
3.0305540561676025,-1.01,13.15,1.28,13.25
3.030975103378296,-0.25,7.18,1.19,7.28
3.0313940048217773,2.26,2.8,-0.04,3.59
3.0365819931030273,-0.79,-0.23,-1.72,1.9
3.0462348461151123,-4.47,0.26,-6.36,7.77
3.056201934814453,-0.36,3.53,-2.18,4.16
3.067291021347046,4.54,2.51,2.03,5.57
3.0762939453125,7.43,0.21,3.63,8.27
3.0869219303131104,7.83,-1.3,5.11,9.43
3.097669839859009,6.74,-2.14,5.21,8.78
3.1310830116271973,5.07,-2.32,4.01,6.86
3.1315081119537354,3.49,-2.08,2.72,4.88
3.131927967071533,2.48,-2.01,2.28,3.92
3.136418104171753,2.05,-2.41,2.69,4.15
3.146003007888794,1.86,-2.96,3.08,4.65
3.1559841632843018,1.32,-3.45,2.96,4.73
3.167259931564331,0.59,-3.85,2.53,4.64
3.1761109828948975,0.11,-4.07,2.33,4.69
3.1867289543151855,0.11,-3.91,2.21,4.49
3.1975929737091064,0.77,-3.63,2.32,4.37
3.2306931018829346,1.05,-3.36,2.33,4.22
3.2311198711395264,0.62,-2.78,1.66,3.29
3.2315428256988525,-0.25,-2.76,1.21,3.02
3.236354112625122,-1.12,-2.76,0.37,3.0
3.245820999145508,-1.58,-2.33,-1.31,3.1
3.2558791637420654,-2.15,-1.79,-2.83,3.97
3.2668850421905518,-3.41,-1.22,-3.39,4.96
3.2759599685668945,-4.86,-1.02,-3.01,5.8
3.2866199016571045,-5.75,-1.06,-2.69,6.43
3.2972450256347656,-6.1,-0.83,-3.23,6.95
3.3311069011688232,-6.52,-0.29,-4.21,7.76
3.331531047821045,-7.52,0.57,-5.43,9.29
3.331939935684204,-8.45,1.15,-6.55,10.75
3.3361451625823975,-8.83,0.98,-7.24,11.46
3.345712900161743,-8.91,0.43,-7.8,11.84
3.3558380603790283,-8.46,-0.45,-7.64,11.4
3.366910934448242,-7.8,-1.09,-7.01,10.54
3.3758339881896973,-7.43,-1.5,-6.75,10.14
3.3858439922332764,-7.64,-2.2,-6.77,10.44
3.397272825241089,-8.18,-3.15,-7.24,11.36
3.4307169914245605,-8.54,-3.62,-7.24,11.76
3.431107997894287,-8.77,-3.76,-7.12,11.9
3.4314939975738525,-9.31,-2.04,-7.9,12.37
3.4355180263519287,-7.32,2.23,-7.02,10.38
3.445561170578003,-3.95,-2.35,-7.97,9.2
3.4556119441986084,0.07,6.96,1.54,7.12
3.4665329456329346,12.58,11.42,19.58,25.92
3.4757001399993896,12.98,15.26,0.39,20.03
3.4855549335479736,4.37,20.18,-11.99,23.87
3.4971110820770264,-1.25,2.44,-6.87,7.39
3.5281660556793213,-8.59,-6.29,1.64,10.77
3.52856183052063,-10.34,-7.06,0.77,12.54
3.528944969177246,-10.55,-5.16,-6.0,13.18
3.5354158878326416,-9.83,-3.24,-6.24,12.08
3.545384168624878,-6.32,-0.49,-4.59,7.82
3.55548095703125,-2.47,0.79,-2.84,3.84
3.566257953643799,-0.12,0.8,-2.98,3.08
3.5755131244659424,1.62,0.81,-3.12,3.6
3.5855259895324707,2.55,0.95,-2.51,3.7
3.5969178676605225,1.03,1.13,-2.11,2.6
3.6300790309906006,-1.27,0.79,-1.83,2.36
3.6305060386657715,-1.98,0.15,-1.4,2.42
3.6309220790863037,-1.61,-0.15,-1.37,2.11
3.6351969242095947,-1.56,-0.18,-1.36,2.07
3.6452109813690186,-1.59,-0.1,-1.28,2.04
3.6552789211273193,-1.2,-0.08,-1.02,1.57
3.66629695892334,-0.68,-0.06,-0.59,0.9
3.6753170490264893,-0.41,0.02,-0.17,0.44
3.6854729652404785,-0.27,0.12,0.06,0.3
3.6967849731445312,-0.14,0.14,0.17,0.26
3.7325551509857178,-0.06,0.11,0.36,0.38
3.7329771518707275,0.16,0.06,0.37,0.4
3.7333970069885254,0.56,-0.02,0.44,0.71
3.735208034515381,0.87,-0.04,0.52,1.01
3.745223045349121,1.13,-0.02,0.28,1.16
3.7551310062408447,1.38,0.06,-0.07,1.38
3.768394947052002,1.57,0.19,0.11,1.58
3.7752878665924072,1.68,0.17,0.36,1.72
3.7852628231048584,1.69,0.14,0.91,1.92
3.796686887741089,1.52,0.09,1.76,2.32
3.8322269916534424,1.35,-0.01,1.96,2.37
3.832664966583252,1.06,0.0,1.68,1.98
3.8330800533294678,0.8,0.01,1.3,1.52
3.834980010986328,0.75,-0.03,0.97,1.22
3.844993829727173,0.89,-0.03,0.85,1.23
3.8549230098724365,1.0,0.01,0.52,1.12
3.8660969734191895,1.01,0.15,0.25,1.05
3.8750150203704834,0.86,0.39,0.16,0.95
3.885056972503662,0.56,0.65,-0.18,0.87
3.896399974822998,0.12,0.82,-0.35,0.89
3.932847023010254,-0.22,0.9,-0.07,0.92
3.933274984359741,-0.37,0.86,-0.02,0.93
3.933696985244751,-0.27,0.91,0.26,0.98
3.9348208904266357,-0.12,0.92,1.01,1.37
3.9447009563446045,0.65,1.14,1.79,2.21
3.9548709392547607,1.06,1.56,1.96,2.72
3.965963125228882,1.07,1.82,1.59,2.64
3.9748971462249756,1.12,1.71,1.63,2.61
3.9849259853363037,1.34,1.36,1.75,2.58
3.996361017227173,1.89,1.28,1.77,2.88
4.030818939208984,2.46,1.51,1.67,3.33
4.031239986419678,3.0,1.9,1.64,3.91
4.03165602684021,3.31,2.25,1.87,4.41
4.034634828567505,3.42,2.63,2.39,4.93
4.044667959213257,3.35,3.37,2.98,5.6
4.05458402633667,3.58,5.36,3.02,7.11
4.065508127212524,5.19,7.13,4.04,9.7
4.074694871902466,5.91,7.21,5.83,10.99
4.0847108364105225,5.37,7.46,6.73,11.39
4.096161127090454,5.18,8.33,7.46,12.32
4.131392955780029,5.44,9.04,7.27,12.81
4.131813049316406,5.16,8.96,6.16,12.03
4.132228136062622,4.53,8.2,3.62,10.04
4.134575128555298,4.76,7.83,0.15,9.16
4.144485950469971,4.67,8.32,-3.51,10.16
4.1543779373168945,2.45,10.62,-5.27,12.1
4.165653944015503,-1.59,11.75,-2.02,12.02
4.174584150314331,-2.46,10.25,1.41,10.63
4.184653997421265,-0.61,8.2,1.17,8.3
4.195991039276123,2.58,4.76,0.13,5.41
4.232351064682007,2.53,1.51,1.32,3.22
4.23275899887085,-1.75,-0.31,-1.06,2.06
4.23314905166626,-2.51,1.47,-5.41,6.14
4.234351873397827,2.37,3.94,-1.69,4.89
4.2442920207977295,6.31,2.35,2.13,7.06
4.2541868686676025,9.05,-0.29,4.04,9.91
4.2652199268341064,9.71,-2.01,5.24,11.21
4.27435302734375,8.53,-2.75,5.08,10.3
4.284328937530518,6.84,-2.99,4.37,8.65
4.295877933502197,5.17,-2.85,3.78,7.0
4.331849813461304,4.32,-2.59,3.41,6.08
4.332273006439209,3.73,-2.31,3.14,5.39
4.332671880722046,2.91,-2.13,2.79,4.55
4.334146976470947,1.79,-2.21,2.59,3.84
4.34412407875061,0.5,-2.19,2.15,3.1
4.354223966598511,-0.29,-1.91,1.7,2.57
4.364970922470093,-0.34,-1.59,1.78,2.41
4.374262094497681,0.26,-1.21,1.44,1.89
4.384171009063721,0.97,-0.88,1.51,1.99
4.39555287361145,0.72,-0.43,1.37,1.6
4.431473016738892,-0.22,0.37,0.66,0.78
4.431859970092773,-2.04,0.91,-0.45,2.27
4.43224310874939,-3.48,2.09,-2.73,4.89
4.433944940567017,-3.7,3.11,-5.33,7.19
4.443992853164673,-3.97,3.41,-5.22,7.39
4.454240083694458,-4.54,2.93,-3.23,6.29
4.4649951457977295,-4.56,2.36,-1.84,5.45
4.474041938781738,-4.63,2.47,-2.4,5.77
4.484061002731323,-5.3,2.57,-3.89,7.05
4.495463132858276,-6.71,2.79,-5.51,9.11
4.531977891921997,-7.96,3.18,-6.67,10.86
4.532367944717407,-8.68,3.59,-8.02,12.35
4.532749891281128,-8.62,3.8,-8.99,13.02
4.533679008483887,-7.74,2.49,-8.26,11.59
4.543752908706665,-6.77,-0.32,-7.17,9.86
4.554220914840698,-6.32,-2.71,-6.25,9.29
4.564740896224976,-7.02,-4.02,-5.51,9.78
4.573927164077759,-8.67,-4.8,-5.9,11.53
4.584009885787964,-9.67,-4.56,-6.39,12.45
4.595016956329346,-9.38,-3.88,-6.54,12.07
4.631273031234741,-8.58,-3.18,-7.04,11.54
4.631659984588623,-7.03,-2.64,-7.27,10.45
4.632042169570923,-6.02,-2.51,-6.92,9.5
4.633522987365723,-6.82,-2.7,-7.0,10.13
4.6436309814453125,-8.1,-3.65,-7.5,11.62
4.65398907661438,-9.36,-4.69,-7.55,12.9
4.664608955383301,-9.81,-4.69,-7.25,13.06
4.673692941665649,-9.3,3.19,-5.43,11.23
4.683789968490601,2.28,4.38,2.99,5.77
4.694836854934692,18.8,7.78,19.53,28.2
4.733273983001709,32.99,14.57,28.15,45.74
4.7336790561676025,6.85,21.14,-13.51,26.0
4.73406195640564,1.67,18.0,-23.96,30.01
4.734450101852417,-1.48,-0.7,-11.98,12.09
4.743505001068115,-10.37,-7.03,15.7,20.08
4.754009008407593,-15.07,-8.04,6.58,18.3
4.764416933059692,-13.66,-5.12,-8.96,17.11
4.7735350131988525,-9.67,-2.28,-6.08,11.64
4.7836689949035645,-2.47,0.18,-2.98,3.87
4.794781923294067,0.77,1.65,-2.46,3.06
4.831302881240845,1.99,1.61,-0.94,2.72
4.832105875015259,2.86,0.69,-1.64,3.36
4.832520961761475,2.52,0.19,-2.33,3.43
4.833300828933716,1.23,0.34,-2.03,2.39
4.843346834182739,-0.28,0.42,-2.04,2.1
4.853332042694092,-1.14,-0.02,-1.38,1.79
4.864309072494507,-1.15,-0.35,-0.19,1.21
4.873368978500366,-0.85,-0.22,0.22,0.9
4.883313894271851,-0.83,-0.05,0.2,0.85
4.894611120223999,-0.94,0.04,0.28,0.98
4.903479814529419,-0.55,0.07,0.45,0.71
4.931063890457153,0.28,0.01,0.59,0.65
4.9314210414886475,1.3,-0.02,0.38,1.35
4.9331018924713135,1.8,0.08,-0.13,1.8
4.943192958831787,1.62,0.07,-0.49,1.69
4.953118085861206,0.91,0.03,-0.43,1.0
4.964217901229858,0.08,0.0,-0.42,0.42
4.973278999328613,-0.65,-0.03,-0.4,0.76
4.983366012573242,-0.93,-0.04,-0.14,0.94
4.99443507194519,-0.58,0.01,0.3,0.65
5.003365993499756,0.47,0.18,0.63,0.8
5.031430959701538,1.76,0.33,0.72,1.93
5.031781911849976,2.23,0.4,0.65,2.35
5.033082008361816,1.83,0.33,0.36,1.89
5.0430238246917725,1.18,0.16,0.33,1.23
5.053012132644653,0.72,0.04,0.56,0.91
5.063894987106323,0.44,0.03,0.77,0.88
5.0731141567230225,0.31,0.08,0.86,0.91
5.083130121231079,0.27,0.08,0.81,0.85
5.094206094741821,0.42,0.04,0.66,0.78
5.1031529903411865,0.77,0.05,0.61,0.98
5.133299112319946,1.01,0.11,0.64,1.2
5.133687973022461,0.96,0.09,0.56,1.11
5.134070158004761,0.73,0.08,0.55,0.91
5.142944097518921,0.51,0.15,0.62,0.81
5.153033018112183,0.49,0.22,0.69,0.87
5.163891077041626,0.55,0.27,0.95,1.13
5.172919034957886,0.73,0.27,1.36,1.56
5.184754133224487,0.88,0.33,1.87,2.09
5.1941258907318115,1.3,0.6,2.15,2.58
5.203028917312622,1.55,1.04,1.98,2.72
5.233381032943726,1.42,1.61,1.2,2.45
5.233741998672485,1.45,2.15,0.79,2.71
5.234101057052612,1.46,2.12,1.06,2.78
5.24275803565979,1.65,1.96,1.32,2.88
5.252715826034546,2.33,2.0,1.6,3.46
5.263572931289673,2.92,2.23,2.06,4.21
5.272742986679077,3.22,2.52,2.57,4.82
5.282746076583862,3.38,3.12,2.85,5.41
5.29397988319397,3.6,4.64,2.78,6.49
5.302780866622925,4.5,6.45,3.14,8.46
5.332988023757935,5.3,7.2,4.73,10.11
5.333360910415649,5.12,7.54,6.18,11.01
5.333712816238403,5.43,8.21,7.34,12.27
5.342640161514282,6.64,9.25,7.69,13.74
5.35247802734375,7.69,9.66,7.09,14.23
5.363394021987915,8.06,8.81,5.74,13.24
5.372548818588257,6.97,7.38,3.13,10.62
5.382606029510498,5.63,6.92,-1.3,9.01
5.393769979476929,3.94,7.92,-5.24,10.28
5.402680158615112,1.35,10.34,-5.99,12.02
5.432995080947876,-1.67,10.93,-1.98,11.23
5.433354139328003,-2.77,9.75,0.85,10.17
5.433706045150757,-2.42,6.34,0.71,6.82
5.442409038543701,0.01,2.05,0.14,2.05
5.45248007774353,1.19,-0.76,0.99,1.72
5.463236093521118,-2.33,-2.25,-2.8,4.28
5.472334146499634,-1.77,0.61,-5.29,5.61
5.482375860214233,2.69,2.44,-0.24,3.63
5.493727922439575,6.5,0.8,2.62,7.05
5.502514123916626,8.88,-1.15,4.1,9.84
5.533674955368042,7.98,-2.92,4.57,9.64
5.5340540409088135,5.75,-3.61,3.94,7.84
5.534404039382935,4.03,-3.28,3.22,6.11
5.542263984680176,2.95,-2.75,3.05,5.05
5.55221700668335,2.43,-2.57,3.61,5.05
5.563153982162476,2.11,-2.67,3.85,5.13
5.572240114212036,1.58,-2.42,2.89,4.08
5.582258939743042,0.89,-1.87,1.74,2.7
5.593469858169556,0.84,-1.52,1.95,2.61
5.602367162704468,1.38,-1.24,2.61,3.2
5.634397983551025,1.51,-0.68,2.87,3.31
5.634757995605469,0.53,-0.48,2.16,2.27
5.635120153427124,-0.87,-0.19,-0.3,0.93
5.64202094078064,-1.45,-0.06,-3.08,3.4
5.652056932449341,-2.08,-0.39,-2.64,3.38
5.6629860401153564,-1.86,-1.27,-0.27,2.26
5.67188286781311,-1.13,-1.69,0.1,2.03
5.68208384513855,-0.77,-1.54,-1.12,2.05
5.693366050720215,-0.83,-1.37,-1.9,2.48
5.702265024185181,-1.49,-1.15,-2.13,2.84
5.733763933181763,-2.69,-0.93,-2.46,3.76
5.734135866165161,-4.4,-0.68,-3.44,5.62
5.734484910964966,-5.56,-0.65,-4.56,7.22
5.741940975189209,-6.26,-0.54,-5.93,8.63
5.751853942871094,-6.89,-0.46,-6.85,9.72
5.762800931930542,-6.83,-0.74,-6.77,9.64
5.77190899848938,-6.59,-0.99,-6.7,9.44
5.7820470333099365,-7.02,-1.15,-6.75,9.8
5.793205976486206,-7.57,-1.17,-6.63,10.13
5.8020408153533936,-7.17,-1.41,-6.08,9.5
5.833300828933716,-6.81,-1.76,-5.74,9.07
5.833658933639526,-6.85,-2.09,-5.8,9.21
5.834006071090698,-6.66,-2.49,-5.62,9.06
5.841728925704956,-6.38,-3.02,-4.99,8.64
5.8518760204315186,-6.48,-3.47,-4.77,8.76
5.862524032592773,-6.56,-3.55,-4.59,8.75
5.871917963027954,-7.06,-2.7,-4.67,8.88
5.881953954696655,-5.38,1.53,-5.24,7.66
5.892879009246826,-0.04,-2.74,-4.81,5.53
5.9018800258636475,-0.77,-0.62,-2.03,2.25
5.9340550899505615,10.26,11.4,13.05,20.13
5.934437036514282,18.07,13.88,18.31,29.23
5.934797048568726,2.42,14.11,-5.7,15.4
5.941553831100464,-6.96,7.75,-3.56,11.0
5.9526519775390625,-6.14,-0.37,-8.11,10.17
5.962558031082153,-9.5,-0.37,-4.67,10.59
5.972002983093262,-10.97,-1.59,4.52,11.97
5.981655836105347,-10.03,-4.12,-1.49,10.94
5.992494821548462,-8.46,-3.63,-5.65,10.8
6.001700162887573,-5.83,-1.34,-5.66,8.23
6.033769845962524,-2.59,-0.09,-3.83,4.62
6.034106016159058,0.02,0.26,-2.69,2.7
6.03444504737854,1.87,0.6,-2.04,2.83
6.041424989700317,2.55,1.08,-1.74,3.27
6.051408052444458,1.04,0.98,-1.44,2.02
6.062269926071167,-1.13,0.64,-2.04,2.41
6.071804046630859,-2.13,0.55,-2.09,3.03
6.081456899642944,-2.1,0.29,-1.72,2.72
6.09260106086731,-1.5,0.03,-1.49,2.11
6.1014978885650635,-1.0,-0.08,-1.39,1.71
6.134202003479004,-0.63,-0.08,-1.37,1.51
6.134539842605591,-0.22,-0.02,-1.0,1.02
6.134875059127808,-0.11,0.06,-0.78,0.79
6.141473054885864,-0.27,0.14,-0.84,0.89
6.151232004165649,-0.55,0.09,-0.71,0.9
6.162049055099487,-0.84,-0.05,-0.29,0.89
6.171767950057983,-0.97,-0.16,0.18,0.99
6.181349992752075,-0.84,-0.22,0.35,0.93
6.192385911941528,-0.55,-0.21,0.28,0.65
6.201403856277466,-0.04,-0.06,0.15,0.16
6.234745025634766,0.62,0.13,0.17,0.65
6.235074996948242,0.94,0.19,0.46,1.06
6.235399961471558,0.89,0.22,0.78,1.2
6.24117112159729,0.74,0.19,0.77,1.08
6.251033067703247,0.56,0.1,0.66,0.87
6.261898040771484,0.38,-0.06,0.61,0.72
6.271651983261108,0.28,-0.14,0.67,0.73
6.281203031539917,0.21,-0.17,0.81,0.85
6.292236089706421,0.28,-0.18,0.87,0.93
6.301181077957153,0.62,-0.09,0.8,1.01
6.333544969558716,1.26,-0.04,0.9,1.54
6.333876848220825,2.0,-0.02,1.07,2.26
6.334203004837036,2.38,-0.01,0.74,2.49
6.340985059738159,2.2,0.03,0.88,2.36
6.3509180545806885,1.97,0.1,0.92,2.17
6.361769914627075,1.69,0.05,1.16,2.05
6.370944023132324,1.5,0.05,1.55,2.15
6.3810389041900635,1.68,0.23,1.44,2.22
6.392032861709595,1.82,0.54,1.25,2.27
6.401024103164673,1.8,0.78,1.1,2.24
6.4334938526153564,1.87,0.93,0.96,2.29
6.433822870254517,1.77,1.03,0.82,2.2
6.43415093421936,1.47,1.27,0.55,2.01
6.440824031829834,1.45,1.79,0.41,2.33
6.450767993927002,1.79,2.22,0.85,2.97
6.46159291267395,1.73,2.33,1.12,3.11
6.470853090286255,1.9,2.68,1.77,3.73
6.4808290004730225,2.17,3.1,1.98,4.27
6.491905927658081,2.09,4.3,2.04,5.19
6.500848054885864,2.88,6.18,1.95,7.09
6.534562826156616,4.44,6.72,3.36,8.72
6.534891843795776,4.38,6.46,4.42,8.96
6.535217046737671,3.85,6.94,4.8,9.27
6.540699005126953,3.88,7.85,5.95,10.58
6.550632953643799,4.6,8.88,6.46,11.9
6.561388969421387,5.96,9.25,6.21,12.63
6.570646047592163,6.98,9.35,5.11,12.73
6.580715894699097,6.91,9.33,4.36,12.4
6.5917651653289795,6.45,8.08,2.69,10.68
6.600749969482422,5.53,7.34,-1.33,9.28
6.634415864944458,3.03,7.69,-4.22,9.28
6.634760141372681,-0.95,9.18,-4.49,10.26
6.635094881057739,-3.79,10.0,-1.5,10.79
6.640412092208862,-2.67,6.98,-0.16,7.47
6.650475978851318,1.44,3.53,0.29,3.82
6.661319017410278,2.57,0.34,1.77,3.13
6.6705639362335205,-0.32,-0.75,-2.32,2.45
6.680541038513184,1.23,2.72,-3.47,4.57
6.6915929317474365,5.08,2.47,0.14,5.65
6.700556039810181,6.97,0.45,1.99,7.26
6.734761953353882,7.17,-0.7,3.0,7.8
6.735092878341675,6.45,-1.47,3.17,7.33
6.73542594909668,5.79,-1.71,2.91,6.7
6.7403318881988525,4.91,-1.83,3.25,6.16
6.750442981719971,3.91,-1.98,3.65,5.7
6.761103868484497,2.98,-2.06,3.46,5.0
6.770267009735107,2.25,-2.19,3.0,4.34
6.780390977859497,1.58,-2.47,2.7,3.98
6.7915120124816895,0.95,-2.81,2.34,3.77
6.80038595199585,0.7,-2.67,2.09,3.46
6.834251165390015,0.87,-2.33,2.43,3.47
6.834582090377808,1.34,-2.0,2.96,3.81
6.834912061691284,1.55,-1.61,3.27,3.96
6.840140104293823,0.96,-1.31,2.78,3.21
6.850121974945068,-0.11,-1.27,1.17,1.73
6.860893964767456,-1.01,-1.11,-0.84,1.71
6.870179891586304,-1.71,-0.93,-1.98,2.77
6.880237817764282,-2.11,-1.1,-1.63,2.88
6.8911778926849365,-2.08,-1.4,-0.99,2.69
6.900187015533447,-1.95,-1.58,-0.94,2.68
6.934319972991943,-2.07,-1.34,-1.4,2.83
6.9346301555633545,-2.58,-0.88,-2.02,3.39
6.934941053390503,-3.48,-0.5,-2.61,4.37
6.939968824386597,-4.2,-0.24,-2.86,5.08
6.9500720500946045,-4.68,0.1,-3.06,5.59
6.960642099380493,-5.62,0.9,-4.11,7.02
6.970016956329346,-6.85,1.96,-6.14,9.4
6.980048894882202,-8.14,3.03,-8.63,12.24
6.990847826004028,-9.22,3.7,-10.69,14.59
7.0001020431518555,-9.91,3.03,-11.44,15.43
7.034597158432007,-9.79,0.34,-9.87,13.9
7.034930944442749,-9.64,-3.3,-7.35,12.56
7.035243034362793,-8.63,-4.85,-6.3,11.73
7.039813041687012,-6.51,-3.98,-6.36,9.93
7.049839019775391,-5.3,-3.22,-6.35,8.87
7.06057596206665,-5.43,-3.42,-5.54,8.47
7.069791078567505,-5.8,-1.38,-5.14,7.87
7.079957962036133,-1.88,1.12,-5.6,6.01
7.0906219482421875,-0.31,0.85,-3.74,3.84
7.100022077560425,-1.45,5.11,3.19,6.19
7.134263038635254,6.68,8.88,12.08,16.41
7.134605169296265,6.27,15.63,3.65,17.23
7.13493800163269,-0.41,14.39,-14.05,20.11
7.139599084854126,-0.55,1.86,-3.93,4.38
7.149744033813477,-6.48,-8.24,4.54,11.42
7.160344839096069,-8.6,-7.77,-2.38,11.83
7.169790983200073,-9.66,-4.6,-5.46,12.01
7.179818868637085,-9.18,-2.75,-3.97,10.37
7.190539121627808,-5.5,0.03,-2.93,6.23
7.199805974960327,-2.27,1.28,-1.28,2.9
7.235757112503052,-0.72,0.75,-1.12,1.52
7.23609185218811,0.86,0.59,-2.87,3.05
7.236418962478638,1.26,0.71,-2.83,3.17
7.2394068241119385,0.22,0.82,-1.35,1.59
7.249656915664673,-0.95,0.77,-0.79,1.45
7.260204076766968,-1.34,0.36,-0.96,1.68
7.269536018371582,-1.17,0.08,-1.33,1.77
7.279655933380127,-0.99,0.07,-1.67,1.94
7.290725946426392,-0.81,0.21,-1.74,1.93
7.299649953842163,-0.56,0.2,-1.68,1.78
7.334885835647583,-0.58,0.11,-1.25,1.38
7.335224866867065,-0.82,0.06,-0.77,1.12
7.3355560302734375,-0.84,0.05,-0.59,1.02
7.339494943618774,-0.57,0.11,-0.51,0.77
7.349383115768433,-0.28,0.07,-0.26,0.38
7.361891984939575,-0.04,0.06,0.02,0.07
7.369411945343018,0.2,0.05,0.08,0.22
7.379456996917725,0.15,-0.02,-0.06,0.16
7.390808820724487,-0.16,-0.11,-0.11,0.22
7.399456024169922,-0.26,-0.08,-0.05,0.27
7.4357750415802,-0.02,0.02,0.17,0.17
7.43612003326416,0.39,0.08,0.59,0.71
7.436444997787476,0.91,0.14,0.78,1.2
7.43953800201416,1.04,0.14,0.7,1.26
7.44936203956604,0.71,0.13,0.67,0.98
7.459906816482544,0.39,0.18,0.82,0.92
7.469581842422485,0.09,0.15,0.86,0.87
7.479224920272827,-0.15,0.02,0.8,0.81
7.517110109329224,0.27,-0.11,1.07,1.1
7.517421007156372,1.4,-0.12,1.45,2.01
7.5177319049835205,2.34,0.05,1.34,2.69
7.519071817398071,2.39,0.1,1.16,2.65
7.5292298793792725,2.03,0.1,0.99,2.26
7.539357900619507,1.73,0.25,0.82,1.93
7.549055814743042,1.74,0.37,0.88,1.98
7.559852838516235,1.94,0.35,1.18,2.29
7.569166898727417,2.33,0.28,1.63,2.85
7.579139947891235,2.49,0.46,1.85,3.13
7.617619037628174,2.12,0.79,1.52,2.72
7.617923021316528,1.5,1.3,1.0,2.22
7.618233919143677,1.25,1.83,1.0,2.43
7.618902921676636,1.26,1.71,1.2,2.43
7.628865003585815,1.33,1.85,1.39,2.66
7.639262914657593,1.82,1.83,1.54,3.0
7.64891791343689,2.23,2.05,1.67,3.45
7.659693956375122,2.63,2.25,1.74,3.87
7.669001817703247,2.84,2.57,1.81,4.23
7.678987979888916,2.91,3.2,1.94,4.74
7.717716932296753,3.12,4.57,2.16,5.94
7.71806001663208,4.21,6.43,2.57,8.1
7.718365907669067,5.54,6.92,4.17,9.79
7.718861818313599,4.94,7.2,4.87,9.99
7.728923082351685,4.56,8.04,5.62,10.81
7.738811016082764,4.93,8.81,7.08,12.33
7.748748064041138,5.93,9.23,6.53,12.76
7.759662866592407,6.67,9.39,4.73,12.45
7.769070863723755,6.72,9.06,3.63,11.84
7.778872013092041,6.92,8.41,1.45,10.98
7.818348169326782,5.81,7.92,-2.01,10.02
7.818662881851196,2.96,8.61,-4.77,10.27
7.818968057632446,0.15,11.32,-4.83,12.3
7.819275140762329,-1.27,11.87,-0.67,11.95
7.828680992126465,-0.93,7.77,1.33,7.93
7.838651895523071,0.97,3.92,0.07,4.03
7.848697900772095,1.39,1.07,0.51,1.82
7.859424829483032,-1.95,-0.73,-2.51,3.26
7.868704080581665,-0.67,2.23,-4.03,4.65
7.878705024719238,3.88,3.16,1.08,5.11
7.917778968811035,6.78,0.9,3.78,7.81
7.918290853500366,7.9,-1.03,5.1,9.45
7.918596982955933,7.12,-2.27,5.23,9.12
7.918903112411499,5.97,-2.62,4.35,7.83
7.928545951843262,4.78,-2.41,3.64,6.47
7.938482999801636,3.83,-2.07,3.58,5.63
7.948421955108643,3.27,-1.96,3.84,5.41
7.959241151809692,2.91,-2.15,3.94,5.34
7.968451976776123,2.6,-2.59,3.85,5.31
7.978501081466675,2.08,-2.92,3.53,5.03
8.017048120498657,1.41,-3.0,3.15,4.57
8.017359018325806,0.58,-2.88,2.48,3.84
8.01766300201416,0.05,-2.74,2.07,3.43
8.018286943435669,-0.48,-2.45,1.46,2.89
8.028409957885742,-0.52,-1.88,1.03,2.2
8.038393020629883,-0.31,-1.42,0.71,1.61
8.048258066177368,0.05,-1.06,0.46,1.15
8.05911898612976,0.33,-0.85,0.32,0.96
8.06833291053772,-0.09,-0.15,-0.19,0.25
8.078396081924438,-0.99,1.17,-1.34,2.03
8.116913080215454,-2.13,2.68,-2.77,4.4
8.117573022842407,-3.84,4.22,-4.41,7.21
8.118088960647583,-4.86,5.28,-6.02,9.36
8.118396043777466,-4.76,5.56,-5.93,9.41
8.128337144851685,-5.36,5.02,-4.78,8.76
8.138126134872437,-6.85,4.49,-4.84,9.51
8.148285150527954,-7.99,4.88,-6.38,11.32
8.158899068832397,-8.36,5.92,-8.6,13.37
8.168258905410767,-7.77,5.37,-9.35,13.29
8.178207159042358,-6.09,1.49,-6.92,9.33
8.189205884933472,-2.74,-2.73,-4.12,5.65
8.217793941497803,-2.53,-3.58,-5.73,7.21
8.218109846115112,-6.6,-3.77,-6.61,10.07
8.218414068222046,-9.11,-5.2,-4.35,11.35
8.227972030639648,-8.42,-4.61,-5.02,10.83
8.238025903701782,-6.51,-2.78,-6.79,9.8
8.24800705909729,-4.18,-1.32,-7.31,8.52
8.25884199142456,-3.34,-0.98,-6.89,7.71
8.268111944198608,-5.1,2.25,-6.41,8.49
8.278131008148193,1.11,5.72,-0.2,5.83
8.289135932922363,5.43,1.97,5.1,7.7
8.31800103187561,3.68,0.91,7.75,8.62
8.318310022354126,0.76,-0.97,5.99,6.11
8.318614959716797,-2.37,-1.38,2.11,3.46
8.327954053878784,-3.47,2.19,-3.1,5.14
8.33791184425354,-5.31,10.6,-7.55,14.05
8.347875833511353,-7.94,14.78,-5.29,17.59
8.358682870864868,-5.87,5.89,-4.7,9.55
8.367910146713257,-1.95,1.72,-5.35,5.94
8.377869844436646,-6.08,-1.41,-0.97,6.31
8.388806104660034,-7.38,-4.97,-2.87,9.34
8.41897988319397,-6.1,-4.32,-6.96,10.21
8.419302940368652,-5.84,-2.9,-6.24,9.02
8.419606924057007,-5.72,-0.79,-4.77,7.48
8.427794933319092,-3.69,0.83,-4.27,5.7
8.437702894210815,-0.27,1.59,-3.45,3.8
8.447663068771362,2.6,1.83,-1.46,3.49
8.458364963531494,2.63,1.38,0.27,2.98
8.467712163925171,0.06,0.55,0.2,0.58
8.477712869644165,-2.33,-0.16,-1.1,2.58
8.488713026046753,-3.2,-0.49,-1.48,3.55
8.518823862075806,-2.59,-0.46,-1.17,2.87
8.519134998321533,-1.47,-0.23,-0.98,1.78
8.519439935684204,-0.54,-0.01,-1.26,1.37
8.52768588066101,-0.09,-0.04,-1.56,1.56
8.537534952163696,0.0,-0.07,-1.51,1.51
8.547579050064087,0.11,-0.01,-1.19,1.19
8.55829405784607,0.18,0.0,-0.62,0.64
8.5676429271698,0.08,0.01,-0.09,0.12
8.57762885093689,0.07,0.03,0.35,0.35
8.588628053665161,-0.01,0.06,0.73,0.73
8.61932897567749,0.09,0.1,0.8,0.81
8.619640111923218,0.45,0.15,0.76,0.89
8.619946002960205,0.82,0.14,0.66,1.06
8.62737488746643,1.22,0.14,0.45,1.3
8.63722014427185,1.32,0.14,0.38,1.38
8.647418022155762,1.07,0.09,0.47,1.17
8.657973051071167,0.85,0.0,0.57,1.02
8.667387008666992,0.81,-0.01,0.62,1.02
8.677443027496338,0.9,0.01,0.7,1.14
8.688431024551392,0.9,0.05,0.87,1.25
8.720062971115112,0.82,0.02,1.03,1.31
8.720376014709473,0.92,-0.11,1.24,1.54
8.720680952072144,1.4,-0.27,1.14,1.82
8.727365016937256,2.0,-0.28,0.69,2.13
8.737208127975464,2.07,-0.25,0.36,2.11
8.747278928756714,1.73,-0.09,0.28,1.75
8.758072137832642,1.48,0.04,0.56,1.58
8.767371892929077,1.65,0.18,0.95,1.91
8.77726697921753,2.23,0.09,1.55,2.71
8.788275957107544,3.02,0.06,2.44,3.88
8.819738149642944,3.55,0.44,1.83,4.01
8.82005000114441,3.28,0.83,1.14,3.57
8.82035493850708,2.56,1.13,0.88,2.93
8.827140092849731,1.85,1.34,0.53,2.34
8.837002992630005,1.45,1.74,0.62,2.34
8.847074031829834,1.73,2.57,0.63,3.16
8.858011960983276,2.72,4.83,0.98,5.62
8.86704707145691,3.58,6.81,1.98,7.94
8.877110004425049,4.24,7.23,3.58,9.11
8.88808798789978,4.84,7.24,4.22,9.67
8.920176029205322,4.34,7.66,4.75,10.0
8.920480012893677,3.46,8.15,5.05,10.19
8.920783996582031,2.96,9.02,5.1,10.77
8.927073001861572,3.11,10.19,5.31,11.9
8.936872959136963,3.82,11.03,4.3,12.43
8.946863889694214,5.21,10.48,2.98,12.07
8.957895040512085,6.32,9.23,2.21,11.4
8.966938018798828,6.41,7.91,0.52,10.19
8.97896695137024,5.42,7.04,-1.47,9.0
8.988054037094116,3.37,7.36,-2.2,8.38
9.019619941711426,0.93,8.81,-3.02,9.35
9.019922971725464,0.25,7.89,-0.02,7.89
9.020211935043335,1.36,5.06,1.29,5.39
9.026841878890991,2.32,2.01,1.07,3.25
9.036781072616577,0.0,-0.46,0.2,0.5
9.046720027923584,-2.15,0.54,-3.72,4.33
9.057821989059448,2.46,3.03,-1.39,4.14
9.066787004470825,7.21,1.65,2.87,7.93
9.076935052871704,9.92,-0.14,4.66,10.96
9.087705850601196,9.69,-1.09,5.66,11.27
9.11930799484253,7.58,-1.56,5.31,9.38
9.119598150253296,5.34,-1.62,4.31,7.05
9.119889974594116,3.62,-1.52,3.6,5.32
9.126592874526978,2.54,-1.53,3.45,4.54
9.136538982391357,1.87,-1.76,3.55,4.38
9.14664912223816,1.5,-2.03,3.58,4.38
9.157551050186157,1.13,-2.23,3.21,4.06
9.166718006134033,0.85,-2.42,2.73,3.74
9.17668890953064,0.56,-2.63,2.56,3.71
9.187551021575928,0.17,-2.85,2.47,3.77
9.219265937805176,0.13,-2.8,2.16,3.53
9.219558954238892,0.29,-2.64,2.07,3.36
9.219833135604858,0.29,-2.59,1.63,3.07
9.226614952087402,0.06,-2.75,1.49,3.12
9.236389875411987,-0.44,-2.71,1.3,3.03
9.246451139450073,-0.82,-2.2,0.97,2.54
9.257528066635132,-1.39,-1.41,0.04,1.98
9.266443967819214,-2.18,-0.36,-1.68,2.77
9.276468992233276,-3.24,0.73,-3.85,5.08
9.287286043167114,-4.18,1.33,-4.62,6.37
9.320278882980347,-4.39,1.64,-3.42,5.8
9.32056999206543,-4.21,2.11,-2.39,5.28
9.320861101150513,-4.4,3.12,-3.21,6.27
9.326399087905884,-5.01,4.09,-4.89,8.1
9.33634901046753,-5.9,4.78,-6.14,9.76
9.34630799293518,-7.35,5.79,-7.53,12.01
9.357351064682007,-7.88,5.93,-8.61,13.09
9.366292953491211,-7.07,3.74,-6.86,10.53
9.376302003860474,-4.86,0.1,-5.68,7.47
9.387236833572388,-3.12,-3.72,-7.48,8.91
9.420493841171265,-5.28,-6.02,-8.44,11.63
9.420794010162354,-8.75,-4.19,-7.1,12.02
9.421082019805908,-8.67,-3.26,-5.49,10.76
9.426252126693726,-6.76,-1.64,-5.35,8.77
9.436086893081665,-4.75,-0.57,-4.95,6.88
9.446123838424683,-3.52,1.18,-3.56,5.14
9.457061052322388,0.7,6.22,4.34,7.61
9.466166973114014,6.79,6.05,13.08,15.93
9.476215124130249,3.7,3.82,0.37,5.33
9.48705792427063,-6.34,11.34,-10.46,16.67
9.521347045898438,-5.67,10.28,-14.54,18.68
9.52164101600647,-7.19,5.43,-3.16,9.54
9.521930932998657,-8.96,-5.83,4.21,11.48
9.526056051254272,-7.85,-7.58,-3.43,11.43
9.536064863204956,-8.12,-5.08,-7.83,12.37
9.546067953109741,-6.92,-2.85,-6.16,9.69
9.556679010391235,-4.71,-0.38,-2.65,5.41
9.566057920455933,-3.0,0.77,-1.4,3.39
9.57613205909729,-0.67,1.13,-2.31,2.65
9.586920022964478,2.11,1.68,-2.52,3.69
9.620360136032104,2.49,1.44,-1.62,3.3
9.620651006698608,0.16,1.1,-0.87,1.41
9.620944023132324,-1.52,0.64,-1.31,2.1
9.626103162765503,-1.88,-0.02,-1.67,2.51
9.63578486442566,-1.48,-0.22,-1.86,2.38
9.645839929580688,-1.26,-0.12,-1.83,2.22
9.65650486946106,-1.18,0.01,-1.83,2.17
9.665881872177124,-1.04,0.06,-1.86,2.13
9.675883054733276,-0.76,-0.03,-1.44,1.62
9.686792135238647,-0.45,-0.1,-0.79,0.91
9.720796823501587,-0.14,-0.01,-0.09,0.16
9.72108793258667,0.13,0.03,0.27,0.3
9.72137713432312,0.44,0.06,0.51,0.67
9.725703001022339,0.46,0.1,0.4,0.61
9.735671997070312,0.13,0.05,-0.03,0.14
9.74573802947998,-0.03,0.01,-0.35,0.35
9.756397008895874,0.21,0.06,-0.44,0.49
9.76564908027649,0.88,0.21,-0.18,0.92
9.775675058364868,1.38,0.29,0.16,1.41
9.786654949188232,1.22,0.27,0.43,1.32
9.820942163467407,1.06,0.18,0.57,1.21
9.821232080459595,0.95,0.07,0.94,1.33
9.82151484489441,0.75,0.08,1.2,1.41
9.825603008270264,0.6,0.1,1.13,1.28
9.835716009140015,0.3,0.14,1.1,1.14
9.8454749584198,0.2,0.15,1.15,1.17
9.856205940246582,0.31,0.18,1.16,1.21
9.865489959716797,0.52,0.2,1.01,1.15
9.875540971755981,0.7,0.19,0.73,1.02
9.886504888534546,0.68,0.12,0.43,0.81
9.920918941497803,0.65,0.05,0.14,0.66
9.92120909690857,0.58,-0.03,0.25,0.63
9.921496152877808,0.56,-0.04,0.51,0.75
9.925420999526978,1.05,0.19,0.93,1.41
9.935324907302856,1.5,0.61,1.62,2.29
9.945327997207642,1.87,1.08,2.25,3.11
9.956054925918579,2.16,1.48,2.47,3.59
9.96545696258545,2.11,1.9,2.67,3.89
9.975324869155884,2.14,1.99,2.75,4.01
9.986320972442627,2.32,2.15,2.56,4.06
10.020562887191772,2.63,2.23,2.25,4.11
10.020848989486694,3.0,2.45,2.13,4.42
10.021132946014404,3.36,2.83,2.14,4.88
10.025094032287598,3.46,3.52,2.17,5.39
10.035216093063354,3.71,4.78,2.22,6.44
10.0452721118927,4.38,5.81,2.77,7.78
10.055938959121704,4.69,6.3,3.62,8.64
10.06532597541809,4.44,6.71,4.58,9.25
10.075184106826782,3.74,7.29,5.48,9.85
10.086220979690552,3.32,8.28,5.86,10.67
10.121508836746216,3.88,9.18,6.08,11.67
10.12179684638977,3.98,9.42,5.92,11.81
10.122080087661743,4.15,8.38,3.92,10.13
10.12493896484375,4.74,7.26,0.43,8.68
10.13509488105774,4.28,7.52,-2.83,9.1
10.145066022872925,1.77,9.27,-4.85,10.61
10.15563702583313,-1.85,11.12,-3.08,11.68
10.165095090866089,-1.91,10.49,0.06,10.66
10.174953937530518,1.23,7.39,0.43,7.5
10.186002016067505,2.65,3.39,0.19,4.3
10.221709966659546,1.8,0.0,1.27,2.2
10.221994161605835,-0.79,-1.42,-0.99,1.9
10.22226881980896,-0.55,1.2,-4.45,4.64
10.224768877029419,3.76,3.57,-1.14,5.3
10.234827041625977,7.35,1.58,2.01,7.78
10.244822025299072,9.33,-0.24,3.56,9.98
10.25550389289856,9.08,-1.14,3.96,9.97
10.265106916427612,7.59,-1.63,3.59,8.55
10.274969816207886,5.95,-1.52,2.93,6.8
10.285748958587646,4.71,-1.16,2.77,5.58
10.321189165115356,3.89,-1.16,3.38,5.28
10.321461915969849,3.34,-1.42,3.51,5.04
10.321730852127075,2.85,-1.66,2.87,4.37
10.324774980545044,2.15,-1.83,2.04,3.48
10.334749937057495,1.16,-1.93,1.52,2.71
10.344676971435547,0.5,-1.76,1.14,2.15
10.355333089828491,0.77,-1.59,1.23,2.15
10.364915132522583,1.28,-1.43,1.84,2.65
10.375037908554077,1.32,-1.13,1.75,2.46
10.385591983795166,0.63,-0.84,1.33,1.69
10.421337842941284,-0.29,-0.79,0.71,1.1
10.421611070632935,-1.15,-0.76,-0.29,1.4
10.421880006790161,-1.81,-0.4,-1.77,2.56
10.424816846847534,-2.46,-0.13,-2.76,3.69
10.43458604812622,-2.94,0.06,-2.89,4.12
10.444530963897705,-2.96,0.18,-2.59,3.93
10.455199956893921,-2.61,0.4,-2.17,3.41
10.464661836624146,-2.28,0.87,-1.91,3.09
10.474969148635864,-2.5,1.58,-2.0,3.57
10.485387086868286,-3.24,2.52,-2.29,4.7
10.521525144577026,-4.31,3.5,-3.19,6.4
10.521806001663208,-5.26,4.68,-5.02,8.64
10.522079944610596,-5.88,5.69,-6.82,10.65
10.524741888046265,-6.85,6.58,-8.76,12.92
10.534379005432129,-7.98,6.73,-9.47,14.09
10.544373035430908,-8.72,3.79,-7.7,12.23
10.555000066757202,-8.6,-1.11,-5.19,10.1
10.564456939697266,-9.01,-4.52,-4.71,11.12
10.574780941009521,-10.65,-5.64,-6.21,13.55
10.585251092910767,-12.17,-5.59,-7.0,15.11
10.621811151504517,-11.76,-4.41,-7.13,14.44
10.622083902359009,-8.17,-2.47,-7.18,11.15
10.622355937957764,-4.01,-1.32,-6.66,7.88
10.624582052230835,-2.8,-1.16,-5.98,6.7
10.634206056594849,-4.46,-1.61,-5.26,7.08
10.644232034683228,-6.45,-2.06,-5.59,8.78
10.654860019683838,-7.51,-2.22,-6.31,10.05
10.664322137832642,-8.1,1.58,-6.02,10.21
10.674314975738525,-0.87,3.47,-0.81,3.66
10.685046911239624,4.81,1.87,4.17,6.63
10.721101999282837,15.14,8.02,20.2,26.48
10.721374034881592,15.08,12.76,6.85,20.9
10.721636056900024,2.68,21.21,-20.15,29.37
10.724108934402466,1.67,13.91,-16.66,21.76
10.734104871749878,-6.77,-3.88,4.3,8.9
10.744071006774902,-13.69,-10.28,6.75,18.4
10.755038976669312,-14.02,-7.42,-1.53,15.93
10.764126062393188,-12.68,-5.29,-4.11,14.34
10.774104833602905,-7.74,-2.3,-3.49,8.79
10.784796953201294,-2.22,0.88,-2.48,3.44
10.821272134780884,0.48,1.93,-1.43,2.44
10.821542024612427,2.24,1.53,-2.44,3.64
10.821805000305176,3.05,0.92,-3.14,4.47
10.82396388053894,2.15,0.97,-2.22,3.23
10.833919048309326,0.36,0.89,-1.29,1.6
10.843939065933228,-0.79,0.46,-2.05,2.24
10.854480028152466,-1.22,0.22,-2.75,3.01
10.863963842391968,-1.38,0.1,-1.74,2.22
10.873953104019165,-1.23,0.0,-0.6,1.36
10.88478398323059,-0.86,-0.06,-0.37,0.93
10.921447038650513,-0.62,-0.19,-0.22,0.68
10.921710968017578,-0.36,-0.25,0.36,0.56
10.921970129013062,0.12,-0.18,0.94,0.96
10.923849821090698,0.61,-0.1,1.11,1.27
10.933790922164917,0.91,-0.03,0.85,1.24
10.943828821182251,1.12,0.07,0.65,1.29
10.954355001449585,1.14,0.14,0.61,1.3
10.963830947875977,0.8,0.12,0.46,0.93
10.97382402420044,0.48,0.02,0.12,0.49
10.984549045562744,0.45,-0.08,-0.24,0.51
11.021538019180298,0.59,-0.05,-0.27,0.65
11.021798849105835,0.97,0.0,0.22,0.99
11.022058010101318,1.65,0.01,0.94,1.89
11.023674011230469,2.15,0.1,1.45,2.59
11.033625841140747,1.97,0.19,1.4,2.42
11.043645143508911,1.28,0.17,1.14,1.72
11.054188966751099,0.37,-0.02,0.89,0.96
11.063684940338135,-0.12,-0.17,0.72,0.74
11.073647022247314,-0.03,-0.26,0.72,0.76
11.084449052810669,0.48,-0.15,0.74,0.89
11.122570037841797,0.91,-0.01,0.74,1.17
11.122838020324707,0.91,0.1,0.35,0.98
11.123099088668823,0.64,0.13,0.19,0.68
11.123521089553833,0.48,0.13,0.41,0.64
11.133518934249878,0.64,0.1,0.69,0.94
11.143537998199463,0.98,0.14,0.96,1.37
11.154022932052612,1.27,0.29,1.17,1.75
11.163519144058228,1.12,0.52,1.4,1.86
11.173629999160767,0.78,0.67,1.41,1.74
11.184198141098022,0.66,0.88,1.52,1.87
11.222685098648071,0.89,1.32,1.33,2.07
11.22313404083252,1.21,1.89,1.01,2.46
11.223397970199585,1.19,2.13,0.73,2.54
11.223659992218018,1.37,2.5,0.99,3.01
11.233394861221313,1.81,2.5,1.32,3.35
11.243338823318481,1.91,2.53,1.8,3.64
11.253965139389038,2.02,2.6,2.18,3.94
11.263309955596924,2.29,3.12,2.4,4.55
11.273457050323486,2.66,3.79,2.57,5.29
11.284104108810425,2.96,4.84,2.66,6.26
11.323007822036743,3.66,6.1,3.02,7.72
11.323267936706543,4.09,7.0,4.3,9.17
11.32352614402771,4.27,7.73,6.06,10.71
11.323784112930298,4.87,8.71,7.25,12.33
11.333132982254028,6.4,10.18,7.22,14.02
11.343117952346802,7.63,10.41,7.14,14.75
11.35372805595398,6.53,8.92,6.71,12.93
11.363238096237183,5.53,7.17,4.09,9.93
11.373287916183472,5.02,6.68,-0.42,8.36
11.383929967880249,3.84,7.51,-4.94,9.77
11.423030138015747,1.82,9.97,-6.06,11.8
11.423292875289917,-0.54,11.3,-1.31,11.38
11.42355990409851,-1.85,9.96,2.08,10.34
11.423822164535522,-1.02,5.82,1.58,6.11
11.433005094528198,1.62,1.67,1.32,2.67
11.442965984344482,0.95,-0.74,2.06,2.38
11.45360803604126,-3.2,-1.48,-2.59,4.37
11.463008165359497,-2.64,1.93,-4.12,5.26
11.473047018051147,2.0,3.5,1.42,4.27
11.48369288444519,5.47,1.79,3.95,6.98
11.52405595779419,7.56,-0.4,5.33,9.25
11.524318933486938,7.29,-2.13,6.16,9.77
11.524582147598267,5.52,-2.66,5.23,8.05
11.524837970733643,3.84,-2.28,3.89,5.92
11.532921075820923,2.94,-1.91,3.37,4.86
11.54284405708313,2.3,-1.95,3.7,4.77
11.553396940231323,1.64,-2.12,4.08,4.88
11.562862157821655,0.78,-2.05,3.34,3.99
11.57292914390564,0.05,-1.87,2.02,2.75
11.583647012710571,-0.35,-1.84,1.69,2.52
11.623586893081665,-0.21,-1.93,1.63,2.53
11.623849153518677,0.37,-2.04,1.51,2.56
11.624106168746948,1.18,-2.1,1.8,3.0
11.624364137649536,1.65,-2.17,1.9,3.32
11.632843971252441,1.52,-2.09,1.9,3.2
11.642780065536499,0.25,-2.1,1.44,2.55
11.653288125991821,-1.33,-1.89,0.09,2.31
11.66270899772644,-2.26,-1.04,-2.32,3.4
11.67276406288147,-2.79,-0.27,-4.28,5.11
11.683479070663452,-3.17,-0.05,-3.67,4.84
11.723838090896606,-3.41,-0.11,-2.35,4.14
11.724117040634155,-3.84,0.2,-2.28,4.47
11.72437596321106,-4.46,0.88,-2.78,5.32
11.724633932113647,-5.39,1.51,-3.83,6.78
11.732560873031616,-6.6,2.21,-5.23,8.7
11.742514848709106,-7.67,2.85,-6.33,10.34
11.753155946731567,-8.59,3.41,-7.71,12.03
11.762608051300049,-9.05,3.61,-9.21,13.4
11.772526979446411,-8.83,2.78,-9.7,13.4
11.783403158187866,-7.91,0.21,-9.02,11.99
11.82395601272583,-6.95,-3.23,-7.82,10.94
11.824219942092896,-6.72,-5.2,-7.01,11.01
11.824479818344116,-7.82,-3.72,-7.36,11.36
11.824736833572388,-6.92,-1.91,-6.88,9.94
11.832444906234741,-5.26,-4.21,-7.34,9.96
11.84252405166626,-6.15,-3.53,-7.95,10.65
11.853001832962036,-3.88,0.63,-6.28,7.4
11.86238408088684,4.62,9.94,9.98,14.82
11.872390031814575,10.89,7.5,16.22,20.92
11.883242845535278,4.5,5.69,-4.82,8.7
11.924125909805298,-2.95,10.27,-7.05,12.8
11.924391031265259,-6.03,5.49,-7.19,10.87
11.924649953842163,-4.36,0.87,-7.45,8.67
11.924906969070435,-6.55,-0.04,-1.41,6.7
11.932316064834595,-9.24,-3.83,-2.78,10.38
11.942529916763306,-9.34,-3.11,-7.1,12.13
11.952823877334595,-7.39,-1.58,-5.6,9.4
11.962248086929321,-5.15,-0.61,-2.33,5.68
11.972249984741211,-2.79,0.13,-1.4,3.12
11.983091115951538,-0.64,0.64,-1.66,1.89
12.02421498298645,1.24,0.89,-1.06,1.85
12.024483919143677,1.69,0.72,-0.98,2.08
12.024747133255005,0.67,0.52,-1.93,2.1
12.025008916854858,-0.36,0.55,-2.54,2.62
12.032124042510986,-0.92,0.5,-2.09,2.33
12.042404890060425,-0.9,0.3,-1.55,1.81
12.05264687538147,-0.62,0.2,-1.28,1.43
12.062099933624268,-0.54,0.09,-1.64,1.72
12.072082996368408,-0.66,-0.07,-1.71,1.83
12.082825899124146,-0.86,-0.17,-1.14,1.43
12.12421703338623,-0.98,-0.17,-0.41,1.07
12.124866008758545,-0.84,-0.16,0.18,0.87
12.125137090682983,-0.61,-0.09,0.31,0.69
12.125738859176636,-0.24,0.01,0.3,0.38
12.131937026977539,0.13,0.06,0.49,0.51
12.142029047012329,0.31,0.09,0.73,0.79
12.152619123458862,0.27,0.11,0.59,0.65
12.161900043487549,0.31,0.08,0.1,0.33
12.171918153762817,0.45,0.06,-0.22,0.5
12.182699918746948,0.61,0.08,-0.42,0.74
12.191956996917725,0.88,0.09,-0.36,0.95
12.225035905838013,0.94,0.12,0.07,0.95
12.225298166275024,0.77,0.08,0.46,0.9
12.22586989402771,0.58,0.03,0.55,0.79
12.231826066970825,0.33,0.03,0.49,0.59
12.241693019866943,0.13,-0.01,0.53,0.54
12.252328157424927,0.22,-0.12,0.8,0.83
12.261811017990112,0.61,-0.2,1.03,1.21
12.271719932556152,1.13,-0.2,1.26,1.7
12.282515048980713,1.73,-0.12,1.29,2.16
12.291807889938354,2.14,0.09,1.36,2.53
12.32495403289795,2.26,0.16,1.54,2.73
12.325217008590698,2.23,0.05,1.47,2.67
12.325476884841919,2.35,-0.06,1.6,2.84
12.33164381980896,2.58,-0.04,1.76,3.12
12.341617822647095,2.69,0.07,1.67,3.16
12.352216958999634,2.56,0.2,1.62,3.03
12.361598014831543,2.26,0.3,1.73,2.86
12.371618032455444,2.09,0.49,1.56,2.65
12.382364988327026,2.06,0.76,1.57,2.69
12.391732931137085,2.14,1.2,1.45,2.84
12.425885915756226,2.05,1.76,1.1,2.91
12.426147937774658,1.93,2.53,0.68,3.25
12.426406145095825,2.01,3.71,0.96,4.32
12.431424856185913,1.38,4.23,1.93,4.84
12.441663980484009,1.8,5.39,1.95,6.0
12.451884984970093,3.14,6.59,2.74,7.79
12.461534023284912,3.92,6.81,3.81,8.73
12.471560001373291,4.16,6.96,4.59,9.31
12.482303857803345,4.06,7.07,5.08,9.6
12.491523027420044,3.38,7.17,5.56,9.68
12.525677919387817,2.89,7.66,6.33,10.34
12.526278018951416,3.53,8.36,7.0,11.46
12.526539087295532,4.23,7.56,6.13,10.61
12.531353950500488,4.39,5.98,4.36,8.6
12.541302919387817,4.56,4.77,2.74,7.14
12.551854848861694,4.5,4.39,-0.45,6.3
12.561269044876099,2.66,5.87,-3.94,7.55
12.571463823318481,-0.94,8.45,-3.88,9.34
12.582061052322388,-2.72,9.49,-1.12,9.93
12.591479063034058,-1.08,7.88,-0.31,7.95
12.626249074935913,1.79,5.03,-1.04,5.43
12.626516103744507,3.43,2.01,-0.08,3.97
12.626778841018677,2.27,-0.65,0.24,2.37
12.631196975708008,0.99,0.07,-3.72,3.85
12.641061067581177,3.54,3.16,-2.73,5.47
12.651749849319458,6.53,2.57,-0.16,7.01
12.661157846450806,8.34,0.3,1.38,8.45
12.671205043792725,8.94,-1.22,2.31,9.31
12.681959867477417,8.14,-1.93,2.2,8.65
12.691244840621948,7.14,-2.05,1.99,7.69
12.726729154586792,6.27,-2.06,2.23,6.96
12.727001905441284,5.47,-2.14,2.27,6.29
12.727259874343872,4.52,-2.16,1.94,5.37
12.730992078781128,3.6,-2.09,1.6,4.45
12.740970849990845,2.84,-2.06,1.35,3.75
12.7515549659729,2.38,-1.9,1.13,3.24
12.761039972305298,2.34,-1.64,0.92,3.0
12.771004915237427,2.5,-1.33,1.19,3.07
12.781859159469604,3.06,-0.99,1.53,3.56
12.791123151779175,2.89,-0.68,1.51,3.33
12.827533960342407,1.73,-0.46,0.58,1.88
12.827800035476685,0.37,-0.16,-1.51,1.56
12.828059911727905,-0.92,-0.01,-3.51,3.62
12.83086609840393,-2.12,-0.36,-3.5,4.1
12.84085488319397,-2.69,-1.03,-2.44,3.77
12.851435899734497,-2.65,-1.34,-2.11,3.64
12.860860109329224,-2.38,-1.21,-2.23,3.47
12.870995044708252,-1.99,-0.94,-2.19,3.1
12.8816659450531,-1.91,-0.64,-2.11,2.91
12.890882968902588,-2.72,-0.03,-2.21,3.5
12.92716097831726,-3.94,0.7,-2.71,4.83
12.927427053451538,-4.98,1.41,-3.43,6.2
12.927686929702759,-6.12,2.1,-4.17,7.69
12.930708169937134,-7.26,2.52,-4.84,9.08
12.940662145614624,-8.04,2.86,-5.53,10.16
12.951430082321167,-8.13,3.08,-6.41,10.8
12.960694074630737,-7.59,2.62,-7.59,11.04
12.970688104629517,-7.03,1.57,-8.12,10.85
12.981498003005981,-6.57,0.38,-5.88,8.82
12.990705013275146,-7.09,-1.15,-4.59,8.52
13.027853012084961,-7.87,-1.12,-4.87,9.32
13.028120040893555,-6.09,-3.46,-4.98,8.59
13.028381109237671,-7.84,-4.88,-5.09,10.54
13.03054404258728,-10.75,-4.21,-6.48,13.23
13.040555953979492,-10.94,-3.45,-7.66,13.79
13.051115989685059,-5.87,3.17,-3.38,7.47
13.060441017150879,3.92,8.96,11.04,14.74
13.070600986480713,6.26,5.65,6.24,10.49
13.081362962722778,1.52,9.03,-7.28,11.69
13.09055209159851,-3.51,10.69,-8.67,14.2
13.12769603729248,-1.07,3.33,-10.6,11.16
13.127964973449707,-2.55,-0.35,-1.54,2.99
13.128228902816772,-6.44,-5.13,0.67,8.26
13.130383968353271,-8.11,-4.7,-5.57,10.9
13.140312910079956,-8.48,-2.83,-6.0,10.76
13.150951147079468,-6.74,-0.99,-3.06,7.46
13.160248041152954,-3.98,0.31,-1.93,4.43
13.170439958572388,-1.79,0.72,-1.38,2.37
13.181227922439575,-0.06,0.66,-0.9,1.11
13.190438985824585,0.8,0.45,-0.32,0.97
13.228060960769653,-0.06,0.42,-0.73,0.84
13.228322982788086,-1.27,0.39,-1.34,1.88
13.228580951690674,-1.59,0.13,-1.63,2.28
13.230201005935669,-1.4,0.0,-1.65,2.16
13.24021315574646,-1.35,-0.02,-1.33,1.89
13.250693082809448,-1.59,-0.04,-0.93,1.84
13.260345935821533,-1.59,0.0,-0.86,1.8
13.270283937454224,-1.48,0.07,-0.78,1.67
13.281018018722534,-0.89,0.12,-1.17,1.47
13.290228128433228,0.37,0.2,-1.46,1.51
13.328675985336304,1.24,0.1,-0.94,1.55
13.328952074050903,0.95,-0.08,0.11,0.95
13.329210996627808,-0.03,-0.11,0.7,0.7
13.330074071884155,-0.57,-0.02,0.7,0.9
13.340049982070923,-0.39,0.1,0.54,0.67
13.350619077682495,0.1,0.07,0.27,0.29
13.360435009002686,0.58,0.02,0.05,0.58
13.370103120803833,1.07,0.1,0.01,1.07
13.380812883377075,1.23,0.24,0.3,1.28
13.390156984329224,1.06,0.29,0.64,1.27
13.428629159927368,0.97,0.18,0.92,1.34
13.42889404296875,1.04,0.09,1.25,1.62
13.429152965545654,1.17,-0.01,1.28,1.73
13.429936170578003,1.22,-0.1,1.34,1.81
13.439908981323242,1.35,-0.16,1.32,1.89
13.450507879257202,1.3,-0.3,1.09,1.72
13.460292100906372,1.27,-0.34,1.01,1.65
13.469940900802612,1.66,-0.2,0.8,1.85
13.481173038482666,1.84,0.04,0.66,1.95
13.489979982376099,1.46,0.3,0.59,1.6
13.52880311012268,0.77,0.33,0.51,0.98
13.529093027114868,0.29,0.22,0.7,0.78
13.529538869857788,0.25,0.04,1.14,1.16
13.529804944992065,0.64,0.01,1.55,1.67
13.539726972579956,1.05,0.01,1.51,1.83
13.550296068191528,1.14,-0.03,1.51,1.89
13.559869050979614,1.29,0.28,1.41,1.93
13.569821119308472,1.44,0.84,1.04,1.96
13.580567121505737,1.3,1.46,0.62,2.05
13.58989405632019,1.26,1.97,0.66,2.42
13.629348993301392,1.22,2.05,0.89,2.54
13.62961196899414,1.65,2.53,0.82,3.12
13.629868030548096,1.67,2.84,1.2,3.5
13.630122900009155,1.73,3.07,1.43,3.8
13.639548063278198,1.77,3.7,1.62,4.4
13.650187969207764,2.56,4.91,1.86,5.84
13.659601926803589,3.45,5.35,2.9,6.99
13.669718027114868,3.44,6.03,3.69,7.86
13.680308103561401,3.84,7.23,4.32,9.25
13.689622163772583,4.18,7.99,5.27,10.44
13.730162858963013,3.85,8.26,6.49,11.18
13.730422019958496,3.49,8.79,7.56,12.1
13.730677843093872,4.54,9.83,7.51,13.17
13.730933904647827,5.06,9.52,6.55,12.61
13.739632844924927,5.13,8.37,4.69,10.87
13.750062942504883,6.01,7.81,1.22,9.92
13.759533166885376,5.93,8.51,-2.96,10.78
13.769552946090698,3.24,11.07,-4.93,12.54
13.78019905090332,-1.12,13.16,-1.64,13.3
13.789532899856567,-2.05,11.41,1.17,11.65
13.829952001571655,0.74,7.15,0.71,7.22
13.830214977264404,2.65,3.3,0.79,4.3
13.830471992492676,0.76,0.36,1.44,1.66
13.830736875534058,-3.37,-0.63,-3.1,4.62
13.839270830154419,-1.59,2.49,-3.95,4.93
13.849907159805298,3.24,2.96,1.22,4.55
13.859320878982544,6.66,0.46,4.08,7.82
13.86931300163269,8.61,-1.73,5.68,10.45
13.880023002624512,8.11,-3.13,6.1,10.61
13.889335870742798,6.52,-3.37,5.22,9.0
13.931105852127075,4.39,-3.04,4.01,6.67
13.931368112564087,2.67,-2.49,3.3,4.92
13.931632041931152,2.02,-2.09,3.51,4.55
13.931888818740845,2.0,-2.0,3.95,4.85
13.939149141311646,1.75,-2.15,3.58,4.52
13.949826955795288,1.26,-2.19,2.4,3.48
13.959229946136475,1.06,-1.96,1.48,2.67
13.969135999679565,1.42,-1.91,1.47,2.79
13.979912996292114,1.98,-1.97,1.46,3.15
13.989166975021362,2.35,-1.98,1.08,3.25
14.031399011611938,2.03,-2.4,1.11,3.33
14.031665086746216,1.04,-2.96,1.06,3.31
14.03192687034607,0.2,-2.97,0.74,3.06
14.032189130783081,-0.76,-2.73,-0.35,2.85
14.039016962051392,-2.2,-2.46,-1.75,3.73
14.049623966217041,-3.54,-1.96,-3.38,5.27
14.05894684791565,-4.32,-1.17,-4.17,6.11
14.06898808479309,-4.87,-0.51,-3.89,6.25
14.079777956008911,-5.81,0.26,-3.8,6.94
14.089190006256104,-7.57,1.63,-4.24,8.82
14.131788969039917,-9.26,3.34,-5.09,11.08
14.132050037384033,-9.25,3.94,-5.51,11.46
14.132314920425415,-8.21,4.4,-5.81,10.97
14.13257098197937,-7.74,5.51,-6.96,11.77
14.13876986503601,-7.99,6.25,-8.0,12.91
14.149380922317505,-7.6,3.74,-6.74,10.82
14.158786058425903,-6.84,-1.05,-4.76,8.39
14.168851137161255,-7.35,-4.39,-4.75,9.79
14.179497003555298,-9.56,-5.8,-5.5,12.46
14.188873052597046,-12.36,-5.92,-5.2,14.65
14.231950998306274,-12.13,-4.11,-4.14,13.45
14.232220888137817,-8.02,-1.8,-5.21,9.73
14.232484102249146,-3.65,0.23,-6.85,7.76
14.232744932174683,-3.13,5.35,-5.6,8.35
14.238692998886108,0.9,4.51,0.12,4.6
14.24924111366272,5.81,2.67,-0.49,6.41
14.258683919906616,7.17,5.14,5.5,10.39
14.26869511604309,5.36,2.27,6.89,9.01
14.27933382987976,4.02,0.21,-2.63,4.8
14.28866696357727,1.37,13.24,-7.12,15.09
14.332345962524414,-4.32,14.32,-13.75,20.31
14.332612991333008,-4.93,7.14,-7.18,11.26
14.332880973815918,-7.69,-3.03,4.3,9.31
14.333148002624512,-7.97,-6.3,-0.23,10.16
14.338520050048828,-8.42,-4.43,-5.22,10.85
14.349055051803589,-7.45,-3.49,-3.89,9.1
14.358647108078003,-4.3,-1.15,-3.13,5.44
14.368510007858276,-2.24,0.99,-1.86,3.07
14.37914490699768,-0.9,1.37,-1.07,1.95
14.388571977615356,0.83,0.93,-1.83,2.21
14.432555913925171,1.99,0.74,-2.16,3.02
14.432823896408081,1.39,0.65,-1.55,2.18
14.433084964752197,0.21,0.48,-1.14,1.25
14.433351039886475,-0.43,0.26,-1.19,1.29
14.438362836837769,-0.77,0.1,-1.07,1.32
14.44895601272583,-1.07,0.0,-0.75,1.3
14.458378076553345,-1.08,-0.07,-0.45,1.17
14.46926498413086,-0.76,-0.05,-0.1,0.76
14.47888994216919,0.06,-0.03,-0.03,0.07
14.488363027572632,0.77,0.07,0.02,0.77
14.533439874649048,1.2,0.13,-0.1,1.21
14.533704996109009,1.28,0.09,-0.13,1.28
14.533962965011597,0.93,0.01,0.26,0.96
14.534220933914185,0.58,-0.15,0.42,0.73
14.53821587562561,0.33,-0.19,0.21,0.43
14.548671960830688,0.36,-0.04,0.26,0.44
14.558220148086548,0.49,0.02,0.43,0.65
14.568249940872192,0.69,0.08,0.41,0.8
14.578853845596313,0.96,0.2,0.39,1.05
14.588284015655518,1.18,0.23,0.55,1.32
14.63313889503479,1.29,0.24,0.67,1.47
14.633403062820435,1.26,0.23,0.81,1.51
14.633669137954712,1.07,0.17,0.98,1.46
14.633924961090088,0.65,0.07,0.84,1.06
14.638065099716187,0.34,-0.06,0.73,0.8
14.648561954498291,0.33,-0.09,0.7,0.77
14.658175945281982,0.43,0.0,0.43,0.6
14.66831088066101,0.29,0.1,0.24,0.38
14.678951025009155,0.24,0.36,0.15,0.45
14.688179016113281,0.24,0.6,0.02,0.64
14.733493089675903,0.0,0.71,0.05,0.71
14.73375916481018,-0.15,0.7,0.31,0.78
14.734015941619873,0.08,0.71,0.91,1.15
14.734279870986938,0.62,0.87,1.61,1.93
14.73792290687561,1.42,0.92,2.32,2.87
14.748409986495972,1.26,1.12,2.37,2.9
14.757910966873169,1.35,1.23,1.8,2.56
14.767904996871948,0.86,0.99,1.18,1.76
14.81634783744812,0.47,0.69,0.8,1.15
14.816613912582397,0.98,0.85,0.58,1.42
14.816878080368042,1.92,1.44,0.67,2.49
14.817172050476074,2.62,2.09,0.9,3.47
14.8178551197052,3.09,2.66,1.31,4.28
14.8281409740448,3.47,2.93,2.0,4.96
14.83786416053772,3.58,3.41,2.5,5.54
14.848399877548218,3.94,4.82,2.63,6.75
14.857748985290527,5.25,6.22,3.32,8.79
14.867778062820435,6.11,6.82,4.55,10.22
14.918149948120117,6.45,7.69,5.65,11.51
14.918416023254395,6.69,8.6,7.34,13.13
14.918674945831299,6.49,9.33,7.87,13.82
14.918933153152466,6.64,9.71,6.79,13.58
14.91919207572937,6.67,9.1,5.53,12.56
14.927621126174927,6.14,7.71,3.22,10.36
14.937626123428345,5.53,7.01,-0.97,8.98
14.948148012161255,3.83,8.1,-5.49,10.5
14.957679033279419,1.09,10.8,-6.34,12.57
14.967644929885864,-0.41,12.17,-1.98,12.33
15.018233060836792,-1.7,9.91,1.54,10.17
15.018501996994019,-0.88,5.53,1.07,5.7
15.01876711845398,2.15,2.37,0.41,3.22
15.019025087356567,0.78,-0.04,0.54,0.94
15.019283056259155,-2.29,-0.66,-4.79,5.35
15.027415990829468,0.77,2.7,-4.56,5.35
15.03749394416809,5.52,3.03,-0.36,6.3
15.048068046569824,8.62,0.85,1.72,8.83
15.05762505531311,9.89,-1.06,3.25,10.46
15.067506074905396,8.87,-2.2,3.77,9.88
15.119115114212036,6.79,-2.66,3.35,8.02
15.119394063949585,4.99,-2.64,2.83,6.31
15.119654893875122,3.86,-2.48,2.36,5.15
15.11991286277771,2.93,-2.32,2.19,4.33
15.120170831680298,2.07,-2.33,2.18,3.8
15.127357959747314,1.26,-2.65,2.0,3.55
15.137344121932983,0.45,-2.72,1.47,3.12
15.147933006286621,0.47,-2.52,1.09,2.78
15.157341957092285,1.07,-2.48,1.2,2.95
15.167284965515137,1.94,-2.45,1.59,3.5
15.218507051467896,2.56,-2.17,1.82,3.81
15.219765901565552,2.23,-1.75,1.62,3.26
15.22003698348999,1.24,-1.67,1.07,2.33
15.22029995918274,-0.13,-1.55,-0.29,1.58
15.220566987991333,-1.5,-0.95,-2.4,2.98
15.227272033691406,-2.39,-0.35,-4.18,4.82
15.237202882766724,-3.04,-0.1,-4.29,5.25
15.24774694442749,-3.55,-0.41,-3.43,4.95
15.257223844528198,-3.84,-0.55,-3.12,4.97
15.267165899276733,-3.9,-0.12,-3.28,5.09
15.277842044830322,-4.21,0.49,-3.73,5.64
15.319441080093384,-4.88,1.32,-4.67,6.88
15.31971001625061,-6.02,2.24,-6.03,8.81
15.319978952407837,-7.81,3.19,-7.54,11.31
15.320240020751953,-9.56,3.48,-8.6,13.32
15.327033042907715,-9.52,2.76,-8.65,13.15
15.337057828903198,-8.02,1.62,-8.01,11.45
15.34763503074646,-6.76,0.3,-7.23,9.9
15.357059001922607,-6.63,-1.22,-6.28,9.21
15.36706805229187,-6.86,-2.88,-5.25,9.1
15.377810001373291,-6.97,-4.03,-4.29,9.12
15.42021107673645,-7.27,-4.27,-4.32,9.47
15.42047381401062,-7.56,-3.53,-5.42,9.94
15.420740842819214,-7.37,-2.96,-6.02,9.96
15.42100214958191,-6.78,0.06,-6.15,9.15
15.427036046981812,-2.67,2.31,-4.51,5.72
15.43696403503418,-1.62,-0.11,-4.39,4.68
15.447489976882935,-0.29,5.31,2.85,6.03
15.458954095840454,5.2,4.37,8.38,10.78
15.46692705154419,4.85,3.02,6.16,8.4
15.47766399383545,1.6,4.76,-0.53,5.04
15.520501852035522,-0.9,8.97,-5.3,10.45
15.5207679271698,-2.75,7.41,-3.81,8.77
15.521031141281128,-4.67,3.07,0.09,5.58
15.521291971206665,-6.28,0.13,-2.87,6.9
15.526749849319458,-3.15,-1.0,-4.31,5.43
15.536715984344482,-3.97,-0.23,-3.39,5.22
15.547220945358276,-3.97,-1.47,-3.99,5.81
15.55678391456604,-3.41,-1.41,-5.56,6.67
15.566758871078491,-3.39,-0.85,-5.48,6.49
15.577502965927124,-3.55,-0.07,-3.22,4.79
15.620638132095337,-2.66,0.27,-1.66,3.14
15.620913028717041,-0.87,0.53,-1.39,1.72
15.62117600440979,0.49,0.71,-0.87,1.22
15.621438980102539,0.8,0.48,-0.23,0.96
15.626681089401245,0.19,0.17,-0.37,0.44
15.636539936065674,-0.69,0.02,-0.83,1.07
15.647007942199707,-1.24,-0.06,-0.77,1.46
15.656638860702515,-1.43,-0.18,-0.56,1.54
15.666604042053223,-1.28,-0.23,-0.54,1.4
15.677335977554321,-0.98,-0.14,-0.89,1.33
15.72121000289917,-0.6,-0.11,-1.12,1.27
15.721475839614868,-0.29,-0.04,-0.99,1.03
15.721740007400513,-0.17,0.04,-0.73,0.75
15.72200083732605,0.0,0.09,-0.48,0.48
15.726421117782593,0.32,0.12,-0.15,0.37
15.736348867416382,0.54,0.15,0.18,0.58
15.746877908706665,0.75,0.17,0.38,0.85
15.756592988967896,0.99,0.19,0.42,1.09
15.766566038131714,1.24,0.18,0.31,1.29
15.777110815048218,1.28,0.13,0.2,1.3
15.822234869003296,1.09,0.06,0.07,1.09
15.822499990463257,0.95,0.03,0.35,1.01
15.822759866714478,0.8,0.07,0.76,1.1
15.8230299949646,0.54,0.11,0.99,1.13
15.82624888420105,0.42,0.08,1.18,1.25
15.836460828781128,0.35,0.09,1.16,1.21
15.846701860427856,0.2,0.06,1.14,1.15
15.856387853622437,0.04,-0.07,1.14,1.14
15.866338968276978,-0.07,-0.15,0.65,0.67
15.877034902572632,-0.12,-0.2,0.23,0.32
15.921961069107056,0.04,-0.13,0.01,0.13
15.922230958938599,0.24,0.03,-0.21,0.32
15.922476053237915,0.41,0.12,-0.21,0.47
15.92273497581482,0.59,0.07,0.15,0.61
15.926017045974731,0.76,0.02,0.66,1.0
15.936190843582153,1.08,0.07,0.9,1.4
15.946522951126099,1.45,0.06,1.68,2.22
15.956109046936035,1.6,0.39,2.03,2.61
15.966111898422241,1.53,0.75,1.26,2.11
15.97683310508728,0.9,0.98,0.8,1.55
16.022587060928345,0.62,1.02,0.83,1.45
16.022855043411255,1.03,1.16,0.7,1.7
16.023115873336792,1.61,1.92,0.87,2.65
16.023375988006592,2.03,2.31,0.98,3.22
16.02591586112976,2.18,2.62,1.29,3.64
16.035912036895752,2.19,2.65,1.67,3.82
16.046509981155396,2.12,2.75,1.95,3.98
16.055976152420044,2.08,3.13,2.18,4.34
16.065932989120483,2.13,4.01,2.31,5.09
16.076640844345093,2.59,5.48,2.37,6.5
16.12337613105774,3.58,6.39,3.58,8.15
16.123641967773438,3.87,6.87,5.18,9.43
16.123902082443237,4.56,7.89,6.39,11.13
16.124166011810303,5.64,8.98,7.13,12.77
16.125767946243286,5.54,9.28,7.23,13.0
16.135936975479126,4.84,8.85,7.26,12.42
16.146559953689575,4.53,7.52,6.96,11.2
16.155771017074585,4.27,6.2,4.57,8.8
16.16586399078369,4.58,5.55,-0.17,7.19
16.176533937454224,3.92,6.53,-5.35,9.3
16.22354793548584,0.57,10.18,-6.67,12.18
16.223811864852905,-3.02,11.41,-1.93,11.95
16.224071979522705,-1.78,9.19,1.21,9.43
16.22433304786682,2.11,5.9,0.64,6.29
16.225629091262817,3.75,2.51,0.79,4.58
16.235705137252808,2.51,-0.32,1.79,3.09
16.246533155441284,-0.85,-1.86,-1.22,2.38
16.255605936050415,-1.86,-0.34,-5.71,6.01
16.2656991481781,2.26,2.35,-3.0,4.43
16.27642297744751,6.68,1.79,0.66,6.94
16.324219942092896,8.72,-0.33,2.64,9.11
16.324501037597656,9.07,-2.27,4.17,10.23
16.324762105941772,7.86,-3.22,4.14,9.44
16.325023889541626,6.15,-3.14,3.24,7.62
16.325446844100952,5.15,-2.9,2.66,6.48
16.33547806739807,4.52,-2.66,2.65,5.87
16.34643292427063,3.67,-2.39,2.56,5.07
16.35552191734314,2.45,-2.14,2.08,3.86
16.365523099899292,1.26,-1.76,1.12,2.43
16.37630295753479,0.62,-1.19,0.44,1.41
16.42530608177185,0.78,-0.79,0.66,1.29
16.425572156906128,1.75,-0.89,1.4,2.41
16.425831079483032,2.56,-1.05,1.75,3.27
16.426088094711304,2.77,-0.46,1.23,3.06
16.426342964172363,1.98,-0.15,1.07,2.25
16.435354948043823,-0.18,-0.42,0.13,0.47
16.446111917495728,-1.52,-0.05,-2.5,2.92
16.455359935760498,-2.19,0.64,-5.15,5.63
16.465333938598633,-3.49,0.6,-5.02,6.14
16.476027011871338,-4.18,-0.33,-3.31,5.34
16.525173902511597,-3.81,-1.01,-2.41,4.61
16.525439023971558,-3.76,-0.95,-2.94,4.86
16.525699853897095,-4.02,-0.58,-3.55,5.39
16.525959014892578,-4.73,-0.11,-4.22,6.33
16.526232957839966,-5.2,0.42,-5.13,7.31
16.535178899765015,-5.29,0.66,-4.98,7.29
16.546088933944702,-6.53,1.63,-5.88,8.93
16.555206060409546,-7.81,2.71,-7.8,11.36
16.56520915031433,-8.02,2.97,-8.35,11.95
16.575902938842773,-7.52,1.9,-7.53,10.81
16.625792026519775,-7.16,-0.14,-6.61,9.74
16.626057863235474,-6.97,-2.29,-5.66,9.26
16.626328945159912,-6.61,-3.54,-4.59,8.79
16.626590967178345,-6.71,-3.61,-4.65,8.92
16.626848936080933,-7.36,-3.58,-4.83,9.5
16.634955167770386,-8.04,-3.68,-4.63,9.98
16.645610094070435,-8.54,-1.82,-5.02,10.07
16.655068159103394,-4.87,0.07,-5.43,7.29
16.665043115615845,-3.42,-2.49,-5.69,7.09
16.67568302154541,-3.15,2.31,-0.48,3.93
16.72544002532959,4.98,6.61,7.88,11.42
16.725703954696655,8.42,5.6,11.19,15.08
16.725963830947876,2.56,4.91,0.11,5.53
16.72622799873352,-1.56,7.78,-5.24,9.5
16.726485013961792,-3.1,7.41,-3.13,8.62
16.73483896255493,-5.73,5.87,-3.1,8.76
16.74539804458618,-6.09,1.8,-3.31,7.16
16.755264043807983,-6.59,0.24,0.77,6.63
16.76496386528015,-6.19,-2.13,-1.27,6.66
16.77551293373108,-4.79,-2.93,-3.91,6.84
16.82657504081726,-3.75,-2.3,-4.87,6.56
16.826842069625854,-2.71,-0.97,-4.66,5.47
16.827103853225708,-2.11,0.2,-3.06,3.72
16.82736086845398,-1.53,0.77,-2.41,2.95
16.82761788368225,-0.08,0.81,-2.0,2.15
16.834627866744995,1.42,0.66,-1.27,2.01
16.845242977142334,1.14,0.39,-1.01,1.57
16.85470986366272,-0.45,0.23,-1.25,1.34
16.86471199989319,-1.51,0.07,-1.13,1.88
16.87541890144348,-1.92,-0.09,-0.71,2.04
16.926450967788696,-1.94,-0.15,-0.42,1.99
16.926713943481445,-1.43,-0.06,-0.58,1.54
16.926982164382935,-0.65,0.11,-0.96,1.16
16.927250146865845,0.14,0.18,-1.2,1.22
16.927507162094116,0.73,0.19,-1.27,1.47
16.934556007385254,0.65,0.2,-1.01,1.21
16.945137977600098,0.25,0.1,-0.63,0.68
16.95453906059265,0.01,0.03,-0.24,0.24
16.96463894844055,-0.12,-0.01,0.23,0.25
16.975279092788696,-0.15,-0.06,0.56,0.58
17.02712893486023,0.11,-0.08,0.7,0.71
17.027398824691772,0.66,-0.02,0.76,1.0
17.027658939361572,1.09,0.07,0.61,1.25
17.02792000770569,1.19,0.04,0.43,1.26
17.02817988395691,1.1,0.01,0.55,1.22
17.034430027008057,1.16,0.0,0.92,1.48
17.044940948486328,1.35,-0.05,1.39,1.93
17.054356813430786,1.51,-0.06,1.43,2.08
17.064404010772705,1.24,-0.1,1.26,1.77
17.075002908706665,0.68,-0.24,1.37,1.54
17.127933025360107,0.42,-0.39,1.28,1.4
17.12819790840149,0.45,-0.46,0.88,1.09
17.128458976745605,0.55,-0.29,0.53,0.81
17.128719091415405,0.56,0.0,0.34,0.65
17.12897515296936,0.44,0.22,0.09,0.5
17.134263038635254,0.24,0.29,-0.05,0.37
17.1447970867157,0.25,0.18,0.23,0.38
17.15423893928528,0.76,0.04,0.99,1.24
17.164165019989014,1.46,0.17,1.5,2.1
17.174946069717407,1.88,0.44,1.37,2.36
17.228205919265747,1.56,0.81,1.27,2.16
17.22846794128418,0.94,1.04,0.98,1.71
17.228731870651245,0.6,1.25,0.74,1.57
17.228995084762573,0.99,1.59,0.82,2.04
17.229249954223633,1.47,1.83,1.03,2.56
17.234122037887573,2.25,2.38,0.89,3.39
17.244561910629272,2.58,2.62,1.16,3.85
17.254101037979126,2.65,2.76,1.49,4.1
17.263998985290527,2.41,2.96,1.94,4.28
17.274781942367554,2.39,3.46,2.35,4.81
17.328798055648804,2.28,4.56,2.66,5.75
17.329059839248657,2.59,6.4,2.82,7.45
17.329321146011353,3.74,7.58,4.1,9.39
17.329936981201172,4.24,7.74,5.57,10.43
17.330201864242554,4.23,8.06,6.71,11.3
17.333956956863403,5.09,9.32,7.67,13.09
17.344446897506714,6.59,9.94,8.19,14.46
17.35391902923584,7.25,8.91,7.18,13.54
17.363903999328613,6.99,7.33,5.83,11.68
17.374645948410034,6.79,6.04,2.8,9.5
17.429310083389282,6.35,6.26,-1.92,9.12
17.429574966430664,4.01,8.58,-5.47,10.93
17.430191040039062,-0.58,11.31,-3.58,11.87
17.430454969406128,-2.65,11.04,0.26,11.35
17.43071484565735,-0.71,8.1,1.06,8.19
17.433761835098267,1.99,4.63,0.63,5.07
17.44425892829895,2.22,1.7,1.37,3.11
17.453773975372314,-0.52,-0.62,0.18,0.82
17.463703870773315,-2.15,0.44,-4.91,5.37
17.474530935287476,1.57,3.71,-2.86,4.94
17.52970004081726,5.68,2.71,0.79,6.34
17.529961824417114,8.03,0.1,2.7,8.47
17.530221939086914,8.53,-2.05,4.01,9.64
17.53048014640808,7.31,-3.27,3.85,8.88
17.530750036239624,5.47,-3.49,2.83,7.07
17.533794164657593,4.19,-3.22,2.54,5.86
17.54408288002014,3.54,-2.82,2.7,5.27
17.55365490913391,3.03,-2.61,2.92,4.95
17.563772916793823,2.21,-2.51,2.81,4.36
17.574497938156128,1.51,-2.28,2.02,3.39
17.630297899246216,1.19,-2.02,1.1,2.58
17.630563974380493,1.04,-1.95,0.77,2.34
17.63085389137268,1.29,-1.94,0.9,2.49
17.63112497329712,2.03,-2.01,0.91,2.99
17.631398916244507,2.43,-2.14,0.82,3.34
17.633386850357056,2.01,-2.31,0.56,3.11
17.643994092941284,1.13,-2.41,0.29,2.67
17.65341591835022,0.22,-2.26,0.03,2.27
17.663828134536743,-0.7,-1.84,-0.59,2.05
17.67420196533203,-1.54,-1.09,-1.57,2.45
17.731060028076172,-2.44,-0.05,-3.78,4.49
17.731330156326294,-3.43,1.0,-5.38,6.45
17.731592893600464,-4.2,1.71,-4.9,6.67
17.731849908828735,-4.5,1.93,-3.73,6.15
17.732106924057007,-5.4,2.58,-3.83,7.1
17.733236074447632,-7.17,3.87,-5.48,9.81
17.74381709098816,-8.81,5.17,-7.29,12.54
17.753320932388306,-9.78,6.12,-8.92,14.58
17.763649940490723,-10.18,6.16,-10.49,15.86
17.774070024490356,-9.99,4.39,-10.81,15.35
17.83175492286682,-9.09,0.56,-9.26,12.98
17.832023859024048,-7.8,-3.36,-7.28,11.18
17.832271814346313,-7.8,-4.81,-6.88,11.45
17.83255100250244,-9.78,-4.46,-6.7,12.66
17.832979917526245,-11.48,-4.59,-5.7,13.61
17.83324408531189,-9.69,-3.53,-6.01,11.93
17.843641996383667,-5.52,1.1,-6.23,8.39
17.853161096572876,2.58,4.17,-3.8,6.2
17.863157033920288,3.48,4.39,4.96,7.48
17.873929023742676,3.83,2.59,7.9,9.15
17.930991888046265,6.62,2.46,8.12,10.76
17.931254148483276,2.23,0.17,6.76,7.12
17.931512117385864,-2.74,-0.4,0.26,2.78
17.931770086288452,-3.49,2.26,-4.69,6.26
17.93202805519104,-3.91,8.33,-6.38,11.19
17.932968854904175,-3.88,10.75,-6.5,13.14
17.943455934524536,-0.39,5.75,-8.97,10.66
17.953055143356323,-1.81,1.42,-0.04,2.3
17.963042974472046,-6.81,-3.37,0.83,7.64
17.97363591194153,-5.99,-3.93,-4.18,8.29
18.03133201599121,-5.01,-2.83,-4.72,7.44
18.031596899032593,-4.69,-1.2,-4.05,6.31
18.031857013702393,-4.37,0.49,-3.45,5.58
18.03211498260498,-3.64,1.04,-2.33,4.44
18.03253197669983,-1.83,0.71,-1.46,2.44
18.032794952392578,0.37,0.7,-1.07,1.33
18.04323697090149,1.39,0.8,-0.36,1.64
18.052762031555176,0.81,0.58,-0.02,0.99
18.062705993652344,-0.01,0.22,-0.47,0.51
18.07333016395569,-0.46,-0.02,-1.39,1.46
18.131093978881836,-0.88,-0.06,-1.97,2.15
18.131350994110107,-1.32,-0.04,-1.7,2.15
18.13161015510559,-1.25,0.05,-1.45,1.91
18.131869077682495,-0.81,0.09,-1.51,1.71
18.132135152816772,-0.66,0.01,-1.25,1.41
18.13256597518921,-0.72,-0.13,-0.77,1.06
18.143115043640137,-0.66,-0.15,-0.26,0.72
18.15262198448181,-0.43,-0.1,0.41,0.6
18.162617921829224,-0.13,-0.05,0.79,0.8
18.173231840133667,0.15,0.02,0.82,0.83
18.231225967407227,0.25,0.09,0.79,0.83
18.23148798942566,0.44,0.15,0.58,0.74
18.231745958328247,0.81,0.17,0.26,0.86
18.23200488090515,1.06,0.14,0.18,1.08
18.232403993606567,1.17,0.1,0.18,1.18
18.23265814781189,1.38,0.08,0.3,1.41
18.242949962615967,1.55,0.03,0.87,1.77
18.252408027648926,1.72,-0.13,1.53,2.3
18.262459993362427,1.86,-0.25,1.91,2.67
18.273260831832886,2.05,-0.26,1.85,2.77
18.331522941589355,2.23,-0.29,1.77,2.86
18.331812143325806,2.39,-0.3,1.78,2.99
18.332262992858887,2.52,-0.1,1.23,2.8
18.332525968551636,2.26,0.23,0.83,2.41
18.332788944244385,1.63,0.37,0.89,1.89
18.333043813705444,1.37,0.33,0.78,1.61
18.34290099143982,1.51,0.21,1.09,1.87
18.352433919906616,1.74,0.19,1.61,2.37
18.362414121627808,1.94,0.35,1.79,2.66
18.37307906150818,1.96,0.72,1.6,2.63
18.43164300918579,1.66,1.25,1.43,2.52
18.43208909034729,1.24,1.66,1.09,2.34
18.432349920272827,1.57,2.6,0.91,3.17
18.432613134384155,2.02,3.03,1.71,4.02
18.432868003845215,1.81,3.3,2.25,4.38
18.43312907218933,2.62,3.93,2.47,5.33
18.44284415245056,2.92,4.83,2.91,6.35
18.452152967453003,3.33,6.1,2.88,7.52
18.462260007858276,4.45,7.02,3.36,8.96
18.472956895828247,4.54,7.55,4.09,9.71
18.532233953475952,4.07,8.29,4.99,10.49
18.532492876052856,3.66,9.09,6.58,11.8
18.532750844955444,4.44,10.39,7.3,13.45
18.533010005950928,6.53,11.17,5.88,14.21
18.53326916694641,7.72,10.6,4.25,13.78
18.533522844314575,7.51,9.02,2.58,12.01
18.542601823806763,6.48,7.82,-1.29,10.23
18.5521559715271,3.94,8.27,-5.05,10.46
18.5621120929718,0.81,10.92,-5.58,12.28
18.5727059841156,-1.51,11.63,-1.84,11.87
18.63209295272827,-0.94,7.82,-0.76,7.91
18.632362127304077,1.27,3.91,-1.04,4.24
18.632620096206665,0.58,0.43,0.32,0.78
18.632880926132202,-2.59,-0.43,-3.35,4.25
18.633141040802002,0.01,2.67,-3.28,4.22
18.633396863937378,4.43,2.15,0.63,4.96
18.642412900924683,7.25,0.09,2.22,7.58
18.65191388130188,7.7,-1.23,3.43,8.51
18.66191792488098,6.88,-2.19,4.0,8.25
18.67265009880066,5.89,-2.47,3.59,7.32
18.73223090171814,4.74,-2.3,3.11,6.11
18.732497930526733,3.69,-2.45,3.27,5.5
18.732756853103638,3.01,-3.01,3.72,5.65
18.73301386833191,2.77,-3.45,3.86,5.87
18.73327088356018,2.41,-3.48,3.64,5.58
18.733527898788452,1.75,-3.19,3.05,4.74
18.74228000640869,1.19,-2.82,2.54,3.97
18.7517569065094,0.96,-2.66,2.38,3.69
18.761806964874268,1.15,-2.54,2.33,3.63
18.772538900375366,1.38,-2.15,1.97,3.22
18.832607984542847,1.64,-1.7,1.49,2.79
18.832873106002808,1.54,-1.76,1.36,2.7
18.833138942718506,0.67,-2.06,1.0,2.38
18.833397150039673,-0.47,-2.39,0.55,2.49
18.833654165267944,-1.27,-2.7,-0.12,2.98
18.83390998840332,-1.87,-2.6,-1.22,3.42
18.842103958129883,-2.51,-2.02,-2.75,4.23
18.851665019989014,-3.48,-1.3,-4.11,5.54
18.861593008041382,-4.6,-0.78,-4.23,6.29
18.872355937957764,-5.4,-0.42,-3.68,6.54
18.932252168655396,-5.54,-0.04,-3.27,6.43
18.9325168132782,-5.29,0.78,-3.45,6.36
18.93277907371521,-5.36,2.11,-3.97,6.99
18.933035135269165,-6.15,3.26,-5.07,8.61
18.93329095840454,-7.46,3.63,-6.35,10.44
18.933549165725708,-8.38,3.0,-6.97,11.3
18.941980123519897,-7.84,1.94,-6.94,10.64
18.95144009590149,-6.65,0.31,-6.48,9.29
18.961501836776733,-6.83,-1.75,-6.18,9.37
18.97217893600464,-8.49,-3.34,-7.01,11.5
19.032119035720825,-10.88,-3.93,-7.68,13.88
19.032387018203735,-11.74,-0.68,-7.24,13.8
19.032649993896484,-5.89,-2.22,-7.05,9.45
19.03291392326355,-5.9,-3.12,-6.77,9.5
19.033172845840454,-4.51,4.18,-3.06,6.86
19.033435106277466,6.07,11.32,14.35,19.25
19.041913986206055,9.85,7.57,9.99,15.94
19.051339864730835,3.58,7.22,-10.21,13.0
19.061301946640015,-1.87,8.17,-6.55,10.63
19.072088956832886,-5.9,3.93,-5.45,8.94
19.132580995559692,-4.77,-0.91,-4.9,6.89
19.132850885391235,-5.06,-1.84,-0.91,5.46
19.133111000061035,-8.04,-3.57,-4.8,10.02
19.133371114730835,-7.75,-2.66,-5.86,10.07
19.13363289833069,-6.22,-1.28,-3.45,7.22
19.13389301300049,-4.12,-0.5,-1.9,4.56
19.141644954681396,-2.04,0.19,-1.85,2.76
19.151113986968994,-0.43,0.6,-1.8,1.94
19.161242961883545,0.35,0.69,-0.92,1.2
19.171775102615356,-0.13,0.7,-0.84,1.1
19.23200011253357,-1.0,0.51,-1.51,1.88
19.232279062271118,-1.59,0.17,-1.65,2.29
19.232546091079712,-1.41,-0.17,-1.45,2.02
19.232810974121094,-0.95,-0.29,-1.55,1.84
19.233071088790894,-1.03,-0.15,-1.53,1.85
19.233330011367798,-1.34,-0.04,-1.43,1.96
19.241459131240845,-1.08,0.04,-1.23,1.63
19.251077890396118,-0.62,0.13,-0.8,1.02
19.260995149612427,-0.22,0.21,-0.67,0.73
19.271692991256714,0.07,0.19,-0.7,0.72
19.3316171169281,0.22,0.09,-0.52,0.57
19.332945108413696,0.23,0.03,-0.04,0.23
19.333213090896606,0.14,0.05,0.36,0.38
19.333465814590454,0.06,0.09,0.37,0.38
19.33372402191162,-0.01,0.14,0.18,0.22
19.33398413658142,0.05,0.13,-0.16,0.21
19.34138798713684,0.19,0.12,-0.08,0.23
19.350897073745728,0.36,0.16,0.04,0.39
19.36090397834778,0.37,0.22,0.09,0.43
19.371451139450073,0.26,0.25,0.42,0.55
19.380922079086304,0.25,0.16,1.05,1.09
19.43189311027527,0.53,0.06,1.33,1.43
19.432157039642334,0.72,0.0,1.4,1.57
19.432417154312134,1.05,-0.06,1.47,1.8
19.43268084526062,1.73,-0.13,1.44,2.25
19.432938814163208,2.14,-0.07,1.42,2.56
19.441220998764038,2.41,-0.07,1.39,2.78
19.4506938457489,2.7,-0.13,1.56,3.12
19.460665941238403,2.84,0.0,1.75,3.33
19.471328020095825,2.62,0.26,1.57,3.06
19.4805748462677,2.04,0.27,1.78,2.72
19.532673120498657,1.54,0.46,1.92,2.5
19.53294014930725,1.5,0.72,1.81,2.45
19.533200979232788,1.45,0.89,1.5,2.26
19.53345799446106,1.47,1.12,1.22,2.21
19.533714056015015,1.69,1.76,1.18,2.71
19.541079998016357,2.14,2.38,1.21,3.42
19.550595998764038,1.81,3.07,1.34,3.8
19.56054997444153,1.9,3.73,1.62,4.48
19.571202993392944,1.91,4.6,1.89,5.32
19.580621004104614,2.56,5.53,2.11,6.44
19.63262104988098,3.58,5.55,2.9,7.21
19.632884979248047,3.63,6.12,3.08,7.75
19.63314700126648,4.02,7.23,3.52,8.99
19.633409023284912,3.65,7.87,4.72,9.87
19.63367009162903,2.56,8.26,5.95,10.49
19.640812158584595,2.34,9.08,7.22,11.83
19.650416135787964,3.98,9.87,7.06,12.77
19.660507917404175,5.09,9.5,5.46,12.08
19.67105984687805,5.22,8.11,4.06,10.46
19.680404901504517,5.78,6.86,0.95,9.02
19.732619047164917,5.58,7.58,-3.63,10.08
19.732885122299194,2.07,10.57,-4.46,11.65
19.73314905166626,-2.91,11.73,-1.08,12.13
19.733410120010376,-2.96,9.65,0.71,10.11
19.733667135238647,0.78,6.72,0.35,6.77
19.740700006484985,2.68,3.45,1.26,4.54
19.750355005264282,-0.05,1.06,0.05,1.06
19.760278940200806,-1.56,2.79,-4.59,5.59
19.770943880081177,2.88,5.29,-2.13,6.38
19.78023099899292,7.3,3.42,1.55,8.2
19.83313298225403,10.3,1.03,3.27,10.85
19.83353590965271,10.53,-0.42,4.31,11.38
19.83383584022522,8.95,-1.39,4.39,10.06
19.834097146987915,7.08,-1.99,4.13,8.43
19.834426164627075,5.19,-2.21,3.76,6.77
19.8406240940094,3.81,-2.44,3.49,5.71
19.850132942199707,3.1,-2.86,3.52,5.49
19.860109090805054,2.93,-3.14,3.5,5.54
19.870742082595825,2.83,-3.24,3.14,5.32
19.880061864852905,2.27,-3.16,2.58,4.66
19.93336796760559,1.45,-2.88,1.83,3.7
19.93363308906555,0.91,-2.65,1.73,3.29
19.93389582633972,0.45,-2.35,1.46,2.8
19.934154987335205,0.26,-2.14,0.98,2.36
19.93441104888916,0.09,-2.16,0.99,2.37
19.94037890434265,0.18,-2.26,0.96,2.46
19.94994807243347,-0.03,-2.49,0.53,2.54
19.959882020950317,-0.98,-2.4,0.28,2.6
19.970566987991333,-1.86,-1.78,-0.43,2.61
19.980072021484375,-2.81,-0.53,-1.66,3.3
20.03353500366211,-3.97,1.15,-3.38,5.33
20.033800840377808,-5.09,2.68,-5.59,8.02
20.03406000137329,-5.7,3.93,-6.41,9.43
20.03432011604309,-6.27,4.48,-4.83,9.09
20.034608125686646,-7.7,4.74,-4.06,9.91
20.04030704498291,-9.62,5.56,-5.78,12.52
20.049778938293457,-11.2,6.32,-8.53,15.43
20.059795141220093,-11.5,5.94,-10.88,16.9
20.070385932922363,-9.82,3.59,-10.01,14.47
20.079843044281006,-7.17,-0.5,-5.4,8.98
20.13342308998108,-5.58,-4.04,-2.84,7.45
20.133692979812622,-7.12,-5.24,-3.85,9.64
20.133951902389526,-10.78,-5.61,-5.22,13.22
20.134212017059326,-12.21,-5.21,-6.04,14.58
20.134469032287598,-9.76,-3.22,-6.99,12.42
20.14007592201233,-5.68,-1.05,-7.02,9.09
20.14943814277649,-5.17,3.75,-6.3,8.97
20.159723043441772,0.04,5.52,-1.21,5.65
20.170284032821655,6.22,2.33,-0.76,6.68
20.179790019989014,5.76,3.58,3.1,7.45
20.233702898025513,7.11,3.93,10.82,13.53
20.233968019485474,2.97,-0.61,0.24,3.04
20.23423409461975,-0.35,8.37,-5.94,10.26
20.23449206352234,-6.82,15.94,-9.74,19.88
20.23474907875061,-5.25,8.02,-13.54,16.58
20.23998713493347,-6.88,1.4,-0.18,7.02
20.249424934387207,-8.38,-5.56,4.2,10.89
20.259430170059204,-8.16,-5.3,-2.32,10.0
20.27012801170349,-7.74,-4.13,-4.75,9.97
20.27945113182068,-5.71,-2.16,-4.39,7.51
20.33366894721985,-3.78,0.34,-3.09,4.89
20.33393406867981,-1.87,1.46,-2.1,3.16
20.334192037582397,0.45,1.37,-2.25,2.67
20.334452867507935,1.99,1.02,-2.41,3.28
20.33470892906189,1.42,0.74,-1.7,2.33
20.33981204032898,-0.32,0.42,-1.42,1.51
20.3493390083313,-1.2,0.2,-1.75,2.13
20.35934090614319,-1.41,0.11,-1.32,1.93
20.36993384361267,-1.95,-0.06,-0.52,2.01
20.37935495376587,-1.92,-0.16,-0.05,1.92
20.433695077896118,-1.08,0.06,-0.25,1.11
20.433974027633667,0.15,0.26,-0.83,0.88
20.434237003326416,1.09,0.15,-0.84,1.38
20.434498071670532,1.35,-0.09,-0.35,1.39
20.43475890159607,1.14,-0.16,-0.04,1.15
20.439653158187866,0.75,-0.15,0.12,0.77
20.44919514656067,0.34,-0.11,0.27,0.44
20.45913815498352,0.02,-0.01,0.34,0.34
20.46985697746277,-0.03,0.1,0.32,0.33
20.479105949401855,0.09,0.07,0.41,0.42
20.534173011779785,0.43,0.1,0.48,0.65
20.534451961517334,0.88,0.2,0.55,1.05
20.5347101688385,1.29,0.24,0.64,1.45
20.534974813461304,1.52,0.21,0.94,1.79
20.535229921340942,1.46,0.06,1.14,1.85
20.539500951766968,1.24,-0.12,1.31,1.8
20.549265146255493,1.02,-0.29,1.67,1.97
20.559005975723267,1.13,-0.4,1.77,2.13
20.569629907608032,1.62,-0.42,1.66,2.35
20.579020023345947,1.8,-0.34,1.21,2.19
20.63369393348694,1.78,-0.11,0.8,1.95
20.633957147598267,1.75,0.11,0.36,1.79
20.634215116500854,1.43,0.2,0.26,1.46
20.63447093963623,0.92,0.1,0.69,1.15
20.63471007347107,0.92,0.0,1.34,1.62
20.639307975769043,1.34,0.1,1.63,2.11
20.649029970169067,1.48,0.26,1.51,2.13
20.65875792503357,1.29,0.47,1.23,1.84
20.669373035430908,1.01,0.8,0.67,1.45
20.678716897964478,0.94,1.25,0.3,1.59
20.734230995178223,0.98,1.91,0.28,2.16
20.73449206352234,1.49,2.64,0.4,3.05
20.734748125076294,1.66,2.95,1.53,3.71
20.7350070476532,1.81,2.94,2.47,4.24
20.735262155532837,2.51,3.64,2.43,5.04
20.739056825637817,2.73,4.89,2.52,6.14
20.748571157455444,3.19,6.7,2.49,7.82
20.758572816848755,4.44,7.58,3.79,9.56
20.769261121749878,4.64,8.27,5.33,10.87
20.77865481376648,5.4,9.64,6.15,12.64
20.833680868148804,6.51,10.77,6.66,14.23
20.833944082260132,6.55,11.2,6.8,14.64
20.834201097488403,6.28,11.1,6.43,14.28
20.834458112716675,6.37,10.26,5.46,13.25
20.83471393585205,5.41,8.49,3.76,10.74
20.83897089958191,4.42,6.75,0.41,8.07
20.848456144332886,2.43,6.44,-4.72,8.34
20.858448028564453,0.21,9.53,-6.17,11.35
20.869086980819702,-2.11,12.84,-2.44,13.23
20.878468990325928,-1.97,10.4,0.61,10.6
20.9343740940094,0.86,5.54,-0.22,5.61
20.93463897705078,1.64,1.37,0.01,2.13
20.93489909172058,0.01,-1.95,-0.43,1.99
20.935160875320435,-0.99,-1.69,-6.13,6.43
20.93542504310608,3.11,2.21,-3.45,5.14
20.938913106918335,7.8,1.71,1.16,8.06
20.948374032974243,10.92,-0.65,3.22,11.4
20.95845103263855,11.89,-2.55,4.5,12.96
20.969062089920044,10.53,-3.51,4.72,12.06
20.978420972824097,7.95,-3.83,3.75,9.58
21.034387826919556,5.62,-3.67,2.4,7.12
21.03466010093689,4.36,-3.23,1.76,5.7
21.034918069839478,3.75,-3.26,2.15,5.41
21.03517508506775,3.35,-3.72,2.79,5.73
21.03547215461731,2.85,-4.27,2.9,5.89
21.038708925247192,1.8,-4.74,2.6,5.69
21.04825711250305,0.5,-4.9,1.96,5.3
21.05823302268982,-0.7,-4.86,1.29,5.07
21.068919897079468,-1.68,-4.6,0.99,4.99
21.078282117843628,-2.27,-4.06,1.03,4.76
21.133960008621216,-2.26,-3.51,0.34,4.18
21.134233951568604,-2.56,-3.04,0.0,3.97
21.13449501991272,-2.81,-2.1,-0.21,3.51
21.134752988815308,-3.21,-0.66,-1.03,3.43
21.13501286506653,-4.47,1.21,-2.0,5.04
21.13866114616394,-6.16,4.24,-3.77,8.37
21.148135900497437,-7.35,7.61,-6.38,12.35
21.158236026763916,-6.85,10.02,-6.93,13.97
21.16887903213501,-4.45,10.39,-3.99,11.98
21.178092002868652,-4.74,9.18,-0.64,10.35
21.23385214805603,-6.25,8.66,-2.84,11.05
21.2341148853302,-7.24,7.87,-6.27,12.39
21.234377145767212,-7.78,3.9,-6.59,10.91
21.234636068344116,-7.03,-2.3,-3.46,8.16
21.23489499092102,-6.17,-6.78,-1.74,9.33
21.23846697807312,-3.8,-8.28,-1.78,9.28
21.247852087020874,-1.69,-6.51,-2.53,7.18
21.25788903236389,-2.74,-2.31,-3.41,4.94
21.268800973892212,-5.91,0.05,-5.94,8.37
21.277890920639038,-8.92,-0.53,-7.67,11.77
21.333292961120605,-9.62,-1.02,-7.43,12.19
21.333555936813354,-8.06,-0.72,-7.04,10.72
21.333821058273315,-8.71,2.56,-7.22,11.59
21.334078073501587,-5.87,5.62,-2.09,8.39
21.334337949752808,3.5,0.56,-0.27,3.55
21.33822202682495,5.5,-0.05,4.0,6.8
21.347795963287354,0.98,-0.79,5.87,6.0
21.357710123062134,-0.25,0.04,3.11,3.12
21.3684298992157,1.52,2.29,-2.91,4.0
21.37772798538208,0.75,10.39,-5.57,11.81
21.43308997154236,-2.62,15.64,-10.08,18.79
21.43335795402527,-1.13,11.48,-14.45,18.48
21.43363904953003,-6.49,4.99,1.0,8.24
21.433897018432617,-11.04,-6.23,5.21,13.7
21.434154987335205,-8.35,-6.53,-3.41,11.13
21.438206911087036,-6.58,-4.11,-5.38,9.44
21.447552919387817,-4.93,-1.93,-3.91,6.58
21.457605123519897,-2.67,0.73,-4.24,5.06
21.468196153640747,-1.04,2.13,-3.93,4.58
21.47763204574585,-0.16,1.63,-2.58,3.05
21.534087896347046,0.14,0.53,-1.53,1.62
21.534355878829956,-0.08,0.34,-0.58,0.67
21.534626007080078,-0.51,0.27,0.21,0.61
21.534883975982666,-0.73,-0.02,0.4,0.83
21.535140991210938,-0.35,-0.14,0.38,0.53
21.537975072860718,0.37,0.0,0.32,0.48
21.547420024871826,1.59,0.14,0.08,1.59
21.557474851608276,2.9,0.1,-0.28,2.91
21.56801199913025,3.22,-0.11,-0.71,3.29
21.57752013206482,1.99,-0.3,-0.78,2.15
21.63398003578186,0.37,-0.35,-0.59,0.77
21.634247064590454,-0.49,-0.15,-0.33,0.6
21.634506940841675,-0.69,-0.01,0.13,0.7
21.63476800918579,-0.75,-0.1,0.36,0.83
21.63502597808838,-0.64,-0.09,0.55,0.84
21.637743949890137,-0.15,0.03,0.63,0.64
21.64726996421814,0.55,0.16,0.76,0.95
21.65733504295349,1.38,0.28,0.9,1.67
21.667815923690796,1.95,0.33,0.6,2.06
21.677350997924805,1.69,0.18,0.39,1.74
21.734028100967407,1.04,-0.1,0.62,1.21
21.734295129776,0.64,-0.36,0.7,1.01
21.73455786705017,0.44,-0.49,0.97,1.17
21.73481583595276,0.43,-0.51,1.31,1.47
21.73507285118103,0.71,-0.36,1.37,1.58
21.737624883651733,1.02,-0.07,0.91,1.36
21.74708104133606,1.11,0.01,0.21,1.12
21.75713300704956,0.84,0.03,0.23,0.87
21.76768708229065,0.46,-0.05,0.48,0.66
21.77716612815857,0.19,-0.16,0.78,0.81
21.834355115890503,0.39,-0.19,1.12,1.2
21.834619998931885,1.03,-0.02,1.38,1.72
21.834891080856323,1.6,0.29,1.4,2.14
21.83514904975891,1.87,0.83,1.11,2.32
21.835407972335815,1.78,1.44,0.69,2.39
21.837481021881104,1.19,1.59,0.67,2.09
21.84697413444519,0.67,1.66,0.79,1.95
21.857002019882202,0.77,2.15,0.85,2.43
21.867750883102417,1.65,2.88,1.05,3.48
21.877185106277466,1.55,3.08,1.75,3.86
21.934932947158813,1.99,3.02,2.01,4.13
21.935197114944458,2.28,3.39,2.41,4.74
21.935457944869995,2.77,4.33,2.58,5.75
21.935702085494995,3.66,6.14,2.58,7.59
21.935959100723267,4.97,7.15,3.45,9.36
21.937273025512695,4.64,7.38,4.68,9.89
21.946882963180542,4.05,8.53,5.05,10.7
21.95693612098694,4.37,9.52,6.86,12.52
21.96784281730652,4.74,10.47,7.78,13.87
21.976895093917847,5.87,11.26,6.72,14.36
22.03523302078247,6.02,10.45,5.88,13.41
22.035494089126587,5.24,8.27,4.26,10.67
22.035754919052124,5.07,7.05,-0.24,8.68
22.036036014556885,4.06,8.48,-4.7,10.51
22.036298036575317,1.54,11.74,-3.55,12.36
22.037219047546387,-1.03,12.18,0.07,12.22
22.046727895736694,0.77,9.32,0.81,9.38
22.056736946105957,4.13,5.59,0.43,6.96
22.067766904830933,4.55,1.67,2.34,5.38
22.076692819595337,1.46,-1.62,2.21,3.1
22.138572931289673,-2.64,-3.37,-4.41,6.14
22.138838052749634,-1.83,-0.83,-5.33,5.69
22.13912296295166,3.42,0.61,-1.33,3.71
22.139382123947144,8.02,0.43,2.14,8.31
22.13963794708252,9.81,-0.95,4.87,10.99
22.140439987182617,9.6,-2.71,6.52,11.91
22.14640212059021,8.71,-3.51,6.83,11.61
22.156442880630493,7.2,-3.59,6.28,10.2
22.217498064041138,5.58,-3.5,5.03,8.28
22.217761993408203,4.36,-3.45,3.88,6.77
22.218021154403687,3.35,-3.23,2.95,5.5
22.21828007698059,2.17,-2.84,2.07,4.13
22.218544006347656,0.98,-2.52,1.6,3.14
22.218801975250244,0.04,-2.51,1.38,2.86
22.226343870162964,-0.46,-2.85,0.97,3.04
22.236993074417114,-0.73,-3.17,0.5,3.29
22.246390104293823,-1.11,-3.22,0.57,3.45
22.256430864334106,-1.17,-2.74,0.4,3.0
22.320000886917114,-0.65,-2.08,-0.33,2.2
22.320267915725708,-0.83,-1.61,-0.49,1.87
22.320525884628296,-1.6,-0.74,-0.88,1.97
22.32078504562378,-2.88,0.44,-1.78,3.41
22.32104182243347,-4.74,2.22,-2.54,5.81
22.32130002975464,-6.41,5.11,-4.4,9.3
22.32642388343811,-7.03,8.29,-7.25,13.06
22.336798906326294,-5.74,10.44,-7.23,13.93
22.346320867538452,-3.98,9.93,-3.97,11.41
22.3562171459198,-4.41,7.77,-1.05,8.99
22.41989493370056,-6.13,6.86,-3.18,9.73
22.420159101486206,-7.86,6.65,-6.49,12.17
22.420424938201904,-9.55,3.95,-7.99,13.06
22.420684099197388,-8.56,-1.44,-6.31,10.73
22.42095398902893,-5.18,-6.62,-2.86,8.87
22.421211004257202,-1.58,-8.64,-0.66,8.8
22.426090955734253,0.06,-6.68,-2.21,7.03
22.436658143997192,-2.89,-2.77,-2.83,4.9
22.446197032928467,-6.74,-0.57,-4.87,8.33
22.45613694190979,-9.36,-1.03,-7.37,11.95
22.51990795135498,-9.95,-1.1,-7.57,12.55
22.520172834396362,-7.83,-0.83,-7.14,10.62
22.520437955856323,-6.9,-0.42,-7.57,10.25
22.520696878433228,-6.59,5.42,-4.58,9.68
22.520957946777344,0.67,3.79,2.02,4.34
22.52121901512146,5.62,-1.36,4.14,7.11
22.525998830795288,2.17,-1.4,6.56,7.05
22.536481142044067,-0.61,-0.47,6.27,6.31
22.545949935913086,-0.11,0.84,-0.82,1.17
22.55608582496643,-0.46,11.03,-7.36,13.26
22.566768884658813,-5.2,17.51,-9.12,20.41
22.619773149490356,-2.54,11.21,-13.68,17.86
22.620041131973267,-3.52,4.93,-1.47,6.23
22.620303869247437,-10.09,-5.2,4.66,12.27
22.620564937591553,-8.35,-6.59,-4.07,11.38
22.620825052261353,-6.67,-4.74,-7.81,11.31
22.625916957855225,-5.44,-3.0,-5.73,8.45
22.636308908462524,-3.66,0.06,-4.58,5.86
22.645804166793823,-2.05,1.86,-3.4,4.38
22.655773878097534,-0.44,1.59,-2.47,2.97
22.666630029678345,0.66,1.13,-1.8,2.22
22.720078945159912,0.65,0.91,-0.77,1.35
22.720340967178345,-0.1,0.47,-0.27,0.55
22.72060203552246,-0.8,0.08,-0.69,1.05
22.720859050750732,-1.4,-0.27,-0.59,1.54
22.72111487388611,-1.47,-0.26,-0.06,1.49
22.725661993026733,-0.78,0.09,0.23,0.81
22.736114978790283,0.82,0.17,-0.13,0.84
22.745660066604614,2.14,0.01,-0.87,2.31
22.755594968795776,2.11,-0.32,-1.26,2.47
22.766418933868408,1.11,-0.67,-0.97,1.61
22.820592164993286,0.32,-0.45,-0.67,0.86
22.820858001708984,-0.12,0.06,-0.19,0.23
22.821120977401733,-0.64,0.38,0.44,0.86
22.821377992630005,-0.91,0.33,0.8,1.25
22.821635961532593,-0.71,0.23,0.96,1.21
22.825448989868164,-0.01,0.2,1.02,1.03
22.83602786064148,0.92,0.16,1.04,1.39
22.8455069065094,1.74,0.12,1.14,2.08
22.85550093650818,2.19,0.1,1.04,2.42
22.866289854049683,2.02,-0.02,1.03,2.26
22.92054581642151,1.64,-0.21,1.19,2.03
22.920807123184204,1.45,-0.38,1.52,2.13
22.921068906784058,1.58,-0.37,2.08,2.63
22.921334981918335,1.85,-0.17,1.91,2.66
22.92159104347229,1.71,-0.08,1.23,2.1
22.925238847732544,1.38,-0.06,0.85,1.62
22.935801029205322,1.31,0.03,0.65,1.46
22.945196866989136,1.68,0.13,0.92,1.91
22.95543098449707,1.97,0.24,1.05,2.24
22.96613597869873,1.78,0.34,1.37,2.27
23.021293878555298,1.47,0.41,1.95,2.47
23.02155900001526,1.22,0.66,2.18,2.58
23.02181887626648,0.9,1.12,1.86,2.35
23.02207589149475,0.78,1.61,1.49,2.32
23.022331953048706,0.96,2.39,1.16,2.82
23.025254011154175,1.46,3.5,1.34,4.02
23.035596132278442,1.29,3.72,2.47,4.64
23.045317888259888,1.9,3.47,2.57,4.71
23.05517888069153,2.27,3.49,3.06,5.16
23.06599497795105,2.27,3.43,3.27,5.25
23.12102484703064,2.39,3.74,3.32,5.54
23.12128710746765,2.4,3.98,3.68,5.92
23.121548891067505,2.08,4.88,4.25,6.79
23.121803998947144,2.3,7.2,4.76,8.93
23.122059106826782,4.44,8.86,6.17,11.67
23.125033140182495,5.98,9.26,7.98,13.6
23.13540816307068,6.63,10.22,8.2,14.68
23.145128965377808,7.19,10.99,8.18,15.47
23.15499711036682,6.91,11.05,7.45,15.01
23.165744066238403,6.77,10.27,3.0,12.66
23.22205901145935,6.76,9.26,-4.0,12.14
23.222331047058105,5.09,12.02,-9.76,16.29
23.222594022750854,0.62,15.54,-6.09,16.7
23.222856044769287,-2.42,14.56,2.44,14.96
23.22311806678772,-0.91,10.49,3.39,11.06
23.22487998008728,3.57,4.88,-0.99,6.12
23.235233068466187,1.31,1.37,-2.16,2.87
23.24484395980835,-4.8,-0.37,-5.96,7.66
23.254894971847534,-5.68,1.41,-9.4,11.07
23.26563286781311,1.07,3.88,-2.6,4.79
23.321519136428833,7.26,2.35,2.91,8.16
23.321779012680054,9.92,-0.6,4.58,10.94
23.32203984260559,9.95,-2.27,6.32,12.0
23.322322130203247,8.11,-2.75,7.43,11.33
23.32258105278015,5.77,-2.36,5.65,8.41
23.32480216026306,3.71,-1.4,3.24,5.12
23.335309982299805,2.01,-1.14,2.48,3.38
23.344713926315308,1.02,-1.61,2.72,3.32
23.35471796989441,0.06,-2.09,2.63,3.35
23.36540913581848,-0.75,-2.46,1.65,3.05
23.422345876693726,-1.31,-2.98,1.08,3.42
23.422609090805054,-1.47,-3.41,0.87,3.81
23.42286992073059,-1.15,-3.56,0.85,3.83
23.42313313484192,-0.91,-3.6,0.84,3.8
23.42339301109314,-0.79,-3.57,0.45,3.68
23.424681901931763,-0.77,-3.82,0.15,3.89
23.43536901473999,-1.13,-4.2,0.15,4.35
23.44456696510315,-1.85,-4.44,0.07,4.81
23.45463800430298,-2.37,-4.8,-0.36,5.36
23.465378046035767,-2.67,-5.04,-1.14,5.81
23.524467945098877,-3.22,-5.08,-1.78,6.27
23.52473497390747,-3.89,-4.92,-2.49,6.74
23.524996995925903,-4.5,-4.49,-2.64,6.88
23.525267839431763,-5.11,-3.71,-2.1,6.65
23.525527000427246,-5.34,-2.45,-2.49,6.38
23.525784015655518,-5.85,-1.03,-4.03,7.17
23.53526282310486,-7.11,0.28,-6.06,9.34
23.544442892074585,-8.59,1.18,-7.19,11.26
23.55441904067993,-9.79,1.34,-7.73,12.54
23.56526207923889,-10.64,0.47,-7.94,13.28
23.624420881271362,-11.44,-0.46,-8.54,14.28
23.624685049057007,-11.26,-1.07,-9.43,14.72
23.624945878982544,-10.26,-1.59,-8.96,13.71
23.625203847885132,-9.27,-2.04,-7.8,12.28
23.625465154647827,-8.42,-2.36,-7.35,11.42
23.625725030899048,-7.3,-2.94,-7.06,10.57
23.634991884231567,-6.6,-3.18,-6.88,10.05
23.644245862960815,-7.55,0.69,-7.48,10.65
23.654283046722412,-7.89,3.36,-6.15,10.55
23.665029048919678,3.33,-1.39,-4.05,5.42
23.72403597831726,17.52,8.32,11.69,22.64
23.72430682182312,22.5,12.25,16.88,30.67
23.72457003593445,10.87,19.77,-8.04,23.95
23.724830865859985,6.14,16.91,-11.67,21.44
23.72508692741394,-4.35,-2.41,-7.49,8.99
23.725343942642212,-13.1,-8.81,3.96,16.27
23.734946966171265,-14.8,-7.18,1.68,16.53
23.744084119796753,-14.14,-4.43,-7.4,16.56
23.754225969314575,-10.65,-1.34,-7.35,13.0
23.76487398147583,-6.23,1.4,-3.96,7.51
23.823886156082153,-2.19,1.45,-2.63,3.71
23.82415199279785,1.49,1.17,-2.65,3.25
23.824409008026123,3.88,1.32,-2.73,4.92
23.8246648311615,3.22,1.09,-2.26,4.08
23.824920892715454,0.18,0.54,-2.14,2.21
23.825181007385254,-1.43,0.14,-2.03,2.48
23.834800004959106,-1.38,0.19,-1.41,1.98
23.84397006034851,-1.25,0.08,-1.0,1.6
23.853919982910156,-1.66,-0.16,-0.68,1.8
23.864649057388306,-1.77,-0.21,-0.64,1.89
23.923802137374878,-1.04,-0.02,-0.92,1.38
23.924065828323364,-0.14,0.15,-0.75,0.77
23.924328088760376,0.3,0.11,-0.44,0.54
23.924585103988647,0.28,-0.05,-0.2,0.34
23.924844980239868,0.14,-0.16,0.14,0.25
23.925107955932617,0.02,-0.18,0.33,0.37
23.934262990951538,0.13,-0.13,0.42,0.45
23.943833112716675,0.47,0.09,0.39,0.61
23.95385503768921,0.74,0.28,0.37,0.87
23.964624166488647,1.02,0.33,0.62,1.23
24.02426505088806,1.45,0.2,0.96,1.75
24.024526834487915,1.83,0.07,1.34,2.26
24.02479386329651,1.98,0.01,1.42,2.43
24.02505087852478,1.74,0.04,1.03,2.02
24.025277853012085,1.33,0.04,1.03,1.68
24.025541067123413,1.21,-0.11,1.44,1.88
24.03413200378418,1.41,-0.23,1.62,2.15
24.04355788230896,1.63,-0.21,1.51,2.23
24.0535089969635,1.45,0.03,1.17,1.86
24.06421399116516,0.94,0.36,0.77,1.26
24.1242458820343,0.48,0.38,0.78,0.99
24.12451195716858,0.8,0.25,1.14,1.41
24.12476897239685,1.4,0.22,1.38,1.97
24.125015020370483,1.79,0.22,1.66,2.45
24.12527298927307,1.89,0.26,2.07,2.81
24.125525951385498,1.69,0.47,2.16,2.78
24.13395404815674,1.52,0.96,1.48,2.32
24.14345097541809,1.35,1.8,1.07,2.49
24.153496026992798,1.32,2.88,0.88,3.28
24.16421604156494,1.2,3.43,1.42,3.9
24.225794076919556,1.2,3.34,1.97,4.05
24.22605800628662,1.73,3.31,2.46,4.47
24.226315021514893,1.97,3.24,2.76,4.69
24.226573944091797,2.02,3.46,2.69,4.82
24.226835012435913,2.07,3.91,2.81,5.24
24.22708797454834,2.4,4.8,3.02,6.15
24.2337429523468,3.39,5.91,3.33,7.58
24.243373155593872,4.42,6.31,4.48,8.91
24.253371000289917,4.34,6.69,5.79,9.85
24.264026880264282,4.74,8.0,6.94,11.6
24.32504916191101,5.32,9.31,8.78,13.85
24.32531189918518,5.52,9.64,9.51,14.62
24.325568914413452,5.84,8.89,7.76,13.16
24.32582402229309,6.58,7.25,3.81,10.5
24.326087951660156,7.99,6.79,-1.53,10.59
24.326346158981323,8.37,9.76,-6.53,14.42
24.333728075027466,4.88,14.16,-6.36,16.27
24.343255043029785,0.5,14.09,-0.15,14.09
24.35327696800232,-1.41,9.73,3.05,10.29
24.363889932632446,-0.72,5.27,2.53,5.89
24.425792932510376,1.53,2.21,0.61,2.75
24.42606282234192,-1.64,0.72,-1.24,2.17
24.426326990127563,-5.62,0.11,-6.02,8.23
24.426589012145996,-4.78,2.62,-5.43,7.69
24.4268479347229,2.79,3.51,-0.5,4.51
24.427104949951172,8.01,1.66,2.26,8.48
24.433432817459106,10.1,-0.54,3.91,10.84
24.443004846572876,10.13,-1.99,4.98,11.46
24.453094005584717,8.62,-2.58,4.58,10.09
24.463671922683716,7.03,-2.51,3.5,8.24
24.525584936141968,5.83,-2.19,2.83,6.84
24.5258469581604,4.83,-1.93,2.73,5.87
24.526106119155884,3.8,-1.88,2.97,5.17
24.526347875595093,2.63,-1.88,2.82,4.28
24.526603937149048,1.64,-1.93,2.0,3.22
24.52686095237732,1.04,-2.25,1.43,2.86
24.533390998840332,0.81,-2.57,1.06,2.89
24.54287314414978,1.08,-2.85,1.16,3.26
24.552778959274292,1.47,-2.97,0.98,3.45
24.563552141189575,1.72,-3.08,0.74,3.6
24.626142978668213,0.96,-3.36,0.82,3.58
24.626405000686646,-0.38,-3.11,-0.04,3.13
24.626662969589233,-1.47,-2.65,-1.24,3.27
24.626924991607666,-2.74,-1.85,-2.54,4.16
24.627180814743042,-3.91,-0.57,-4.24,5.79
24.62744688987732,-5.16,0.57,-6.17,8.06
24.633162021636963,-6.46,1.25,-6.31,9.11
24.642667055130005,-5.91,0.95,-3.98,7.18
24.652647972106934,-4.56,1.31,-2.25,5.25
24.663453817367554,-4.55,2.78,-3.26,6.24
24.725847959518433,-5.61,3.86,-5.1,8.5
24.726112127304077,-6.48,3.69,-6.33,9.78
24.726375818252563,-6.43,3.35,-7.2,10.21
24.726640939712524,-6.68,3.36,-8.16,11.06
24.72689986228943,-7.18,2.62,-8.64,11.53
24.727157831192017,-7.68,0.73,-8.96,11.82
24.733032941818237,-8.23,-2.04,-9.13,12.45
24.74256205558777,-9.01,-4.64,-8.24,13.06
24.752591848373413,-10.27,-5.78,-7.44,13.93
24.76329493522644,-11.07,-5.16,-7.29,14.22
24.825597047805786,-9.49,-4.11,-7.22,12.61
24.825865030288696,-7.39,-0.71,-7.83,10.79
24.82612895965576,-3.48,2.92,-6.27,7.74
24.82639193534851,1.18,0.95,-4.06,4.33
24.82665205001831,2.93,4.42,3.71,6.47
24.826915979385376,6.85,3.25,8.13,11.11
24.832870960235596,6.91,1.77,7.6,10.42
24.84244704246521,4.86,5.04,-1.34,7.12
24.852648973464966,-0.12,15.47,-9.02,17.9
24.863171815872192,-4.06,12.69,-12.43,18.22
24.92527985572815,-3.91,3.72,-4.23,6.85
24.92554497718811,-9.31,-2.96,3.87,10.5
24.9258029460907,-10.7,-5.77,-2.53,12.41
24.92606282234192,-9.1,-4.46,-6.43,12.0
24.926321983337402,-7.02,-2.71,-5.8,9.5
24.926581144332886,-4.15,-0.1,-4.58,6.18
24.932772874832153,-1.9,1.2,-3.43,4.1
24.94225287437439,0.14,1.27,-2.97,3.23
24.952551126480103,2.02,0.91,-2.51,3.34
24.963037967681885,2.17,0.74,-1.23,2.6
25.02530002593994,0.77,0.54,-0.43,1.03
25.025562047958374,-0.36,0.18,-0.94,1.02
25.025827169418335,-0.88,-0.15,-0.89,1.26
25.026087999343872,-1.52,-0.17,-0.23,1.54
25.02634310722351,-1.98,-0.11,-0.17,1.99
25.0266010761261,-1.42,-0.01,-0.26,1.44
25.03255581855774,-0.17,0.2,-0.47,0.53
25.04205894470215,0.95,0.26,-0.65,1.18
25.052029848098755,1.4,0.02,-0.91,1.66
25.062729120254517,1.08,-0.25,-0.61,1.26
25.125391006469727,0.46,-0.37,-0.08,0.59
25.125658988952637,0.05,-0.3,0.14,0.33
25.125921964645386,-0.17,0.0,0.33,0.37
25.126183032989502,-0.37,0.17,0.39,0.56
25.126424074172974,-0.33,0.17,0.38,0.53
25.12668490409851,0.19,0.13,0.28,0.36
25.13241696357727,0.78,0.2,0.33,0.87
25.141945123672485,1.23,0.29,0.54,1.37
25.15201210975647,1.43,0.28,0.49,1.53
25.16272497177124,1.18,0.23,0.8,1.44
25.22583293914795,0.92,0.05,1.43,1.7
25.22609782218933,0.87,-0.08,1.98,2.16
25.226356029510498,0.81,-0.15,1.66,1.85
25.22661304473877,0.66,-0.19,1.16,1.34
25.22686791419983,0.71,-0.08,0.97,1.2
25.2271249294281,1.13,0.12,0.79,1.38
25.232269048690796,1.56,0.26,0.7,1.72
25.241801023483276,1.8,0.23,1.02,2.08
25.251778841018677,1.97,0.26,1.16,2.3
25.262518167495728,2.12,0.26,1.9,2.85
25.32632303237915,1.98,0.53,2.45,3.19
25.326581954956055,1.82,0.88,1.98,2.82
25.326842069625854,1.39,1.29,1.48,2.4
25.327131032943726,0.96,2.01,1.24,2.54
25.327388048171997,1.15,2.88,1.37,3.39
25.32764196395874,1.13,3.14,1.72,3.75
25.332118034362793,1.74,3.23,2.06,4.2
25.341665983200073,2.24,2.97,2.59,4.53
25.351668119430542,2.44,3.0,2.71,4.72
25.36235213279724,2.5,3.15,2.96,4.99
25.42625403404236,2.39,3.6,3.26,5.41
25.42651915550232,2.41,4.92,3.38,6.43
25.426777124404907,2.86,6.81,3.61,8.22
25.42703413963318,3.96,8.19,5.37,10.56
25.42729115486145,4.95,9.31,7.41,12.88
25.427549123764038,6.19,10.57,7.93,14.59
25.431965112686157,6.6,11.09,8.09,15.23
25.441517114639282,5.75,10.55,8.64,14.79
25.45143699645996,5.12,8.94,6.92,12.41
25.462172031402588,5.62,7.25,1.15,9.24
25.526429891586304,6.25,8.35,-5.34,11.71
25.526697874069214,3.03,13.0,-7.91,15.51
25.526961088180542,-1.1,14.83,-2.82,15.13
25.527220964431763,-2.34,12.02,1.57,12.34
25.52747893333435,-0.12,6.66,0.84,6.71
25.527740001678467,2.21,2.18,0.25,3.11
25.53183603286743,-1.49,0.01,-0.55,1.58
25.541247129440308,-4.94,0.26,-5.86,7.66
25.551331043243408,-1.2,3.58,-4.9,6.18
25.562040090560913,4.24,4.05,0.27,5.86
25.626914024353027,7.94,1.43,2.78,8.53
25.62717294692993,9.6,-1.3,5.08,10.93
25.627432107925415,8.75,-2.95,5.81,10.9
25.627686977386475,6.61,-3.1,4.05,8.34
25.627943992614746,5.27,-2.59,2.64,6.43
25.62820601463318,4.32,-2.16,2.18,5.29
25.631587028503418,3.49,-2.15,2.27,4.68
25.641112089157104,2.65,-2.38,2.58,4.39
25.65119695663452,1.89,-2.6,2.48,4.05
25.66183304786682,1.27,-2.65,2.02,3.56
25.726408004760742,0.9,-2.72,1.48,3.22
25.726680994033813,0.92,-2.99,1.24,3.36
25.72694706916809,1.41,-3.21,1.61,3.85
25.72720694541931,1.87,-3.22,1.52,4.02
25.727466821670532,1.9,-3.06,1.63,3.95
25.7277250289917,1.1,-2.83,1.31,3.3
25.731489896774292,-0.13,-3.01,0.69,3.09
25.74104595184326,-1.68,-3.21,-0.37,3.64
25.750981092453003,-2.93,-2.71,-2.21,4.56
25.7617449760437,-3.22,-2.19,-4.55,5.98
25.826385974884033,-3.75,-1.91,-4.84,6.41
25.826647996902466,-4.79,-2.13,-3.22,6.15
25.826905965805054,-5.57,-2.08,-3.26,6.78
25.827162981033325,-6.28,-1.23,-4.46,7.8
25.827420949935913,-6.6,-0.28,-5.24,8.43
25.8276789188385,-6.26,0.5,-5.86,8.58
25.83135485649109,-6.2,1.47,-6.84,9.34
25.840844869613647,-7.09,2.25,-8.21,11.07
25.850929021835327,-8.36,2.56,-9.3,12.76
25.861536979675293,-9.11,2.38,-9.77,13.56
25.926830053329468,-9.17,1.66,-10.08,13.72
25.92709493637085,-8.66,-0.15,-10.02,13.24
25.92735505104065,-8.0,-2.33,-9.25,12.44
25.927613973617554,-7.01,-3.92,-7.65,11.09
25.92787194252014,-6.57,-4.03,-6.65,10.17
25.928128957748413,-7.43,-3.72,-6.5,10.54
25.931210041046143,-8.48,-3.34,-6.59,11.24
25.940653085708618,-7.28,2.99,-7.08,10.58
25.950897932052612,3.23,6.2,-0.53,7.01
25.961599111557007,9.91,4.99,9.95,14.9
26.026556968688965,14.32,6.52,17.9,23.83
26.02682399749756,10.4,4.75,9.34,14.76
26.027085065841675,0.05,3.31,-5.16,6.13
26.02734899520874,-7.44,6.99,-6.82,12.27
26.02760910987854,-10.89,7.34,-4.52,13.88
26.0278639793396,-7.4,2.99,-7.57,11.0
26.030951023101807,-7.44,3.01,-2.18,8.31
26.040565013885498,-8.93,-0.8,0.01,8.96
26.050552129745483,-6.03,-2.92,-4.16,7.88
26.061285972595215,-4.62,-2.64,-5.94,7.97
26.126112937927246,-4.17,-1.85,-5.41,7.07
26.126383066177368,-3.54,-0.69,-3.9,5.31
26.12665104866028,-2.36,0.6,-2.54,3.51
26.126909971237183,-0.22,1.33,-2.0,2.41
26.127174139022827,1.6,1.34,-1.23,2.42
26.127429008483887,1.61,1.0,-0.88,2.08
26.130905866622925,0.21,0.53,-1.12,1.25
26.140401124954224,-0.91,0.15,-1.14,1.46
26.15037703514099,-1.59,-0.21,-0.68,1.74
26.161142110824585,-2.17,-0.37,-0.27,2.21
26.22654414176941,-2.25,-0.32,-0.32,2.29
26.22681498527527,-1.32,-0.05,-0.83,1.56
26.2270770072937,0.21,0.34,-1.23,1.29
26.227336168289185,1.27,0.43,-1.45,1.97
26.227592945098877,1.4,0.23,-1.19,1.85
26.22784996032715,1.0,-0.06,-0.39,1.07
26.230721950531006,0.44,-0.21,0.41,0.63
26.24023413658142,0.1,-0.16,0.76,0.78
26.250293970108032,-0.24,0.02,0.66,0.7
26.26102089881897,-0.48,0.15,0.31,0.59
26.327150106430054,-0.17,0.15,0.05,0.23
26.327412843704224,0.7,0.08,0.34,0.78
26.327672958374023,1.59,0.16,0.78,1.77
26.32791304588318,2.24,0.16,1.08,2.49
26.328168153762817,2.39,0.03,1.6,2.87
26.328426122665405,2.42,-0.16,2.04,3.16
26.33059287071228,2.43,-0.27,2.22,3.3
26.340065956115723,2.13,-0.35,2.03,2.96
26.350106954574585,1.37,-0.38,1.41,2.0
26.360874891281128,0.58,-0.25,0.81,1.02
26.42681097984314,0.27,-0.02,0.26,0.37
26.42707395553589,0.53,0.22,0.14,0.59
26.427333116531372,1.02,0.3,0.38,1.12
26.427587032318115,1.57,0.18,0.68,1.72
26.427841901779175,1.92,0.12,1.06,2.19
26.428105115890503,1.88,0.16,1.74,2.56
26.430418968200684,1.49,0.5,2.12,2.63
26.439944982528687,1.0,1.08,1.57,2.15
26.449923038482666,0.51,1.37,1.03,1.78
26.460662126541138,0.15,1.65,0.9,1.88
26.52743411064148,0.6,2.04,1.0,2.34
26.527703046798706,0.96,2.45,1.58,3.06
26.52796483039856,1.63,2.65,1.82,3.6
26.52822494506836,2.28,2.9,1.84,4.12
26.52848196029663,2.27,3.0,1.95,4.23
26.528738975524902,2.08,3.53,2.09,4.59
26.530313968658447,2.2,5.01,2.03,5.83
26.539793968200684,3.53,6.59,2.76,7.96
26.54969096183777,4.79,7.2,4.17,9.6
26.560548067092896,5.44,7.27,5.25,10.48
26.626572847366333,5.38,7.44,6.08,11.01
26.627907037734985,5.58,8.63,7.39,12.65
26.628172159194946,5.9,9.31,9.21,14.36
26.62842893600464,5.68,8.7,8.9,13.68
26.628684043884277,5.77,7.34,7.04,11.69
26.628939867019653,6.34,6.32,3.12,9.48
26.63004994392395,7.07,7.24,-2.59,10.44
26.639726877212524,5.44,11.16,-7.08,14.29
26.64966607093811,0.39,14.02,-4.24,14.65
26.660398960113525,-2.05,12.15,1.4,12.4
26.66967797279358,-0.46,8.22,2.63,8.64
26.72711682319641,2.93,4.48,1.54,5.57
26.727380990982056,3.4,1.72,1.71,4.17
26.727640867233276,-1.13,-0.01,-0.25,1.15
26.727903127670288,-4.11,0.99,-6.37,7.64
26.728158950805664,-0.12,4.06,-4.62,6.15
26.729932069778442,5.36,3.4,0.09,6.34
26.739466905593872,8.69,0.56,2.55,9.07
26.74945092201233,9.83,-2.18,4.05,10.85
26.76020312309265,9.06,-3.86,4.15,10.68
26.769437074661255,6.66,-4.34,3.0,8.49
26.828025102615356,4.57,-4.1,2.32,6.56
26.828293085098267,3.77,-3.56,2.53,5.76
26.82856011390686,3.28,-3.18,2.74,5.32
26.828852891921997,2.47,-2.87,2.48,4.52
26.829298973083496,1.39,-2.43,1.41,3.13
26.830070972442627,0.61,-1.93,0.38,2.05
26.839298963546753,0.53,-1.48,0.12,1.57
26.8492169380188,0.99,-1.42,0.9,1.95
26.860041856765747,1.63,-1.65,1.39,2.7
26.869438886642456,2.19,-1.8,1.17,3.06
26.928151845932007,2.17,-2.07,0.9,3.13
26.928416967391968,1.26,-2.54,0.47,2.87
26.92886996269226,-0.2,-2.81,0.17,2.82
26.929134130477905,-1.22,-2.56,0.0,2.83
26.929392099380493,-1.93,-1.71,-0.85,2.71
26.930153131484985,-2.58,-0.56,-1.96,3.28
26.939185857772827,-3.8,0.58,-3.56,5.23
26.94915509223938,-5.17,1.61,-5.72,7.87
26.959882974624634,-6.35,2.25,-6.15,9.12
26.96916699409485,-7.75,2.63,-5.49,9.85
27.02808904647827,-8.94,3.34,-5.65,11.09
27.028390169143677,-9.03,4.26,-6.66,12.0
27.028827905654907,-8.54,5.46,-8.48,13.21
27.029093980789185,-7.78,5.73,-10.08,13.96
27.029350996017456,-6.89,3.29,-10.54,13.01
27.03012704849243,-6.39,-1.24,-9.36,11.4
27.03906512260437,-7.33,-5.0,-8.89,12.56
27.049104928970337,-9.7,-5.76,-9.21,14.56
27.059602975845337,-11.9,-5.45,-8.03,15.35
27.069031953811646,-11.25,-4.77,-7.59,14.38
27.127690076828003,-7.98,1.84,-6.87,10.68
27.127954959869385,-1.86,0.53,-6.82,7.08
27.128257989883423,1.68,3.36,-3.67,5.25
27.12870192527771,4.04,6.83,8.19,11.4
27.12896704673767,7.22,2.95,10.74,13.27
27.1297390460968,5.75,0.54,2.79,6.41
27.13897705078125,-1.42,9.9,-7.59,12.55
27.148957014083862,-7.46,13.81,-15.35,21.95
27.159665822982788,-1.78,6.82,-10.02,12.25
27.1688289642334,-4.08,-1.55,4.28,6.11
27.224194049835205,-7.68,-5.67,0.6,9.56
27.22446084022522,-7.33,-4.2,-6.11,10.42
27.224725008010864,-6.39,-2.79,-5.18,8.68
27.224984884262085,-4.19,-0.85,-3.57,5.56
27.22524905204773,-2.3,0.84,-2.19,3.28
27.22919487953186,-1.25,1.17,-1.32,2.16
27.238805055618286,-0.07,0.68,-1.18,1.36
27.248717069625854,0.57,0.4,-1.06,1.26
27.259411096572876,-0.23,0.49,-0.97,1.11
27.268733024597168,-1.13,0.56,-1.32,1.82
27.32387399673462,-1.25,0.45,-1.48,1.98
27.32414197921753,-1.18,0.23,-1.12,1.64
27.324405908584595,-1.24,0.07,-0.63,1.39
27.3246648311615,-1.13,0.02,-0.44,1.21
27.324920892715454,-0.44,0.01,-0.65,0.78
27.329013109207153,0.54,0.19,-1.13,1.26
27.338503122329712,1.21,0.17,-1.21,1.71
27.348533868789673,1.24,0.06,-0.76,1.45
27.35935616493225,0.62,-0.07,0.0,0.62
27.36860203742981,0.07,-0.15,0.51,0.53
27.424329042434692,-0.05,-0.08,0.85,0.85
27.424592971801758,0.07,0.03,0.95,0.95
27.42486000061035,0.27,0.09,0.56,0.62
27.425117015838623,0.39,0.07,0.21,0.44
27.425372838974,0.54,0.03,0.16,0.56
27.42885398864746,1.06,0.09,0.21,1.08
27.438338041305542,1.68,0.26,0.69,1.83
27.448405027389526,1.83,0.29,1.05,2.12
27.459235906600952,1.76,0.18,1.19,2.13
27.46846103668213,1.44,0.02,1.34,1.96
27.524542093276978,0.92,-0.14,1.36,1.64
27.524804830551147,0.55,-0.31,1.1,1.26
27.525068998336792,0.6,-0.35,0.78,1.04
27.52534294128418,0.98,-0.14,0.47,1.09
27.52560305595398,1.03,0.11,0.06,1.03
27.528717041015625,0.78,0.36,-0.18,0.87
27.538120985031128,0.52,0.52,-0.05,0.73
27.548210859298706,0.55,0.67,0.29,0.91
27.55896782875061,0.68,0.69,0.67,1.17
27.568259954452515,0.82,0.59,0.88,1.33
27.62530493736267,0.81,0.67,1.21,1.6
27.62558603286743,0.92,0.97,1.6,2.08
27.625841856002808,1.32,1.38,1.87,2.67
27.626096963882446,1.08,1.75,1.88,2.78
27.626352071762085,1.24,2.16,1.85,3.1
27.628569841384888,1.75,2.51,1.81,3.55
27.63809084892273,2.06,2.56,1.98,3.83
27.648054838180542,2.31,2.59,2.3,4.16
27.658869981765747,2.59,2.76,2.66,4.62
27.668073892593384,2.89,3.08,2.96,5.15
27.72554302215576,3.0,3.75,3.17,5.75
27.725805044174194,3.25,5.19,3.18,6.9
27.72606110572815,3.91,6.33,3.83,8.36
27.72631597518921,3.94,7.09,4.86,9.45
27.726569890975952,4.27,8.37,6.19,11.25
27.728452920913696,5.17,9.74,7.73,13.46
27.738189935684204,5.67,10.53,7.81,14.28
27.7479989528656,5.66,10.27,7.17,13.74
27.758623838424683,4.74,8.22,6.2,11.33
27.768074989318848,4.29,6.13,1.7,7.67
27.825915098190308,5.06,6.53,-4.44,9.37
27.826183080673218,3.11,10.54,-7.71,13.42
27.826445817947388,-2.11,13.5,-2.89,13.96
27.82670497894287,-2.93,11.12,1.21,11.56
27.82697081565857,1.1,7.25,-0.33,7.34
27.828203916549683,3.29,3.45,-0.59,4.8
27.838068962097168,1.99,0.12,1.16,2.3
27.847754955291748,-1.47,-1.76,-1.99,3.03
27.858452081680298,-1.08,0.69,-5.18,5.33
27.86779284477234,3.01,2.68,-1.5,4.3
27.926188945770264,6.77,0.94,1.05,6.91
27.926457166671753,9.35,-1.01,2.69,9.78
27.92672085762024,9.8,-2.3,3.52,10.66
27.92699885368347,8.32,-2.9,3.06,9.32
27.927260160446167,6.52,-2.97,2.51,7.59
27.928201913833618,4.95,-2.8,2.55,6.23
27.937986135482788,3.85,-2.42,2.78,5.32
27.947654008865356,2.94,-2.2,2.94,4.7
27.958418130874634,1.86,-2.39,2.51,3.93
27.9676411151886,0.84,-2.55,1.51,3.08
28.026379823684692,0.36,-2.44,0.73,2.57
28.026641130447388,0.35,-2.1,0.54,2.19
28.026903867721558,0.83,-1.97,0.59,2.21
28.027318954467773,1.25,-2.15,0.64,2.56
28.027575969696045,1.05,-1.92,0.22,2.19
28.028321981430054,0.63,-1.5,0.5,1.7
28.037500143051147,0.0,-1.55,0.33,1.58
28.04749894142151,-1.05,-1.51,-1.14,2.16
28.058223962783813,-2.71,-1.19,-2.7,4.0
28.067500829696655,-4.12,-0.88,-3.24,5.31
28.126770973205566,-4.69,-0.8,-2.58,5.41
28.12719202041626,-4.13,-0.7,-2.0,4.64
28.127450942993164,-3.2,-0.36,-1.95,3.76
28.12770915031433,-2.66,0.26,-2.25,3.49
28.127966165542603,-2.74,0.89,-2.27,3.66
28.12871289253235,-3.7,1.64,-2.77,4.9
28.137416124343872,-5.21,2.24,-3.74,6.79
28.14733910560608,-7.16,2.58,-5.44,9.35
28.158082008361816,-8.67,2.82,-6.8,11.37
28.167493104934692,-9.57,2.6,-7.55,12.46
28.227277994155884,-9.94,1.74,-7.68,12.68
28.227543115615845,-9.72,0.3,-6.66,11.78
28.22780203819275,-9.05,-1.42,-5.27,10.56
28.22805905342102,-8.46,-2.77,-4.18,9.83
28.22831702232361,-8.36,-3.55,-3.85,9.86
28.229100942611694,-8.46,-4.06,-4.09,10.23
28.23719596862793,-8.35,-3.81,-4.36,10.16
28.247215032577515,-7.84,-3.12,-4.8,9.7
28.258074045181274,-7.27,-2.49,-5.28,9.32
28.267371892929077,-7.78,-0.6,-5.88,9.77
28.32738184928894,-5.4,4.61,-4.02,8.15
28.32765507698059,5.89,1.33,0.55,6.06
28.327924013137817,8.34,1.56,3.72,9.26
28.328183889389038,8.12,4.76,8.36,12.58
28.328444004058838,5.86,5.04,4.44,8.91
28.329221963882446,2.83,10.43,-1.55,10.91
28.33701801300049,-3.54,14.3,-6.18,15.97
28.34702706336975,-5.25,4.72,-12.76,14.58
28.357797861099243,-8.56,0.63,0.37,8.59
28.367074966430664,-10.52,-3.62,6.03,12.65
28.42602801322937,-9.46,-4.4,-0.14,10.43
28.42633295059204,-8.12,-3.66,-2.71,9.3
28.4267680644989,-5.59,-1.94,-3.97,7.12
28.42702889442444,-2.44,0.14,-4.03,4.71
28.42728590965271,-0.31,0.98,-2.77,2.95
28.428051948547363,1.09,0.97,-2.47,2.86
28.43680214881897,1.83,0.67,-2.41,3.09
28.44686794281006,1.7,0.49,-1.54,2.34
28.457625150680542,0.58,0.4,-0.94,1.17
28.466914892196655,-0.54,0.3,-1.12,1.27
28.525316953659058,-1.06,0.15,-1.05,1.49
28.5255868434906,-1.53,0.1,-0.62,1.65
28.5258469581604,-1.81,0.05,-0.39,1.85
28.526118993759155,-1.44,-0.12,-0.33,1.48
28.52654504776001,-0.51,-0.03,-0.38,0.63
28.527334928512573,0.32,0.09,-0.46,0.56
28.536622047424316,0.78,0.08,-0.48,0.91
28.546671152114868,0.78,0.07,-0.46,0.9
28.557411909103394,0.24,0.0,-0.26,0.35
28.566755056381226,-0.22,-0.02,-0.27,0.34
28.626723051071167,-0.34,0.06,-0.22,0.4
28.626996994018555,-0.26,0.14,-0.01,0.29
28.627250909805298,0.2,0.18,0.11,0.29
28.627503156661987,0.88,0.18,0.27,0.93
28.627758979797363,1.38,0.2,0.48,1.47
28.62854790687561,1.68,0.22,0.4,1.74
28.63654589653015,1.61,0.24,0.36,1.66
28.64660096168518,0.98,0.14,0.43,1.07
28.65718102455139,0.41,-0.06,0.66,0.77
28.666579008102417,0.3,-0.16,1.03,1.08
28.72667908668518,0.34,-0.14,1.25,1.3
28.726927042007446,0.4,-0.14,1.22,1.29
28.72719097137451,0.71,-0.19,1.12,1.33
28.727447986602783,1.09,-0.28,0.63,1.28
28.727708101272583,1.42,-0.16,0.42,1.48
28.728482007980347,1.47,-0.08,0.6,1.58
28.736324071884155,1.18,-0.05,0.79,1.42
28.746394872665405,0.99,-0.01,1.12,1.49
28.757181882858276,1.21,0.02,1.62,2.02
28.766435861587524,1.56,0.14,1.82,2.4
28.82725501060486,1.73,0.29,1.68,2.42
28.827521085739136,1.62,0.34,2.04,2.62
28.827778100967407,1.61,0.63,2.09,2.71
28.82803702354431,1.76,1.0,1.47,2.5
28.828293085098267,1.43,1.31,0.97,2.16
28.829041957855225,1.1,1.78,0.5,2.15
28.83643412590027,1.08,2.35,0.9,2.73
28.846306085586548,1.32,2.75,1.32,3.32
28.856816053390503,1.6,3.13,1.66,3.88
28.866225957870483,1.89,3.26,1.98,4.25
28.927902936935425,1.85,3.48,2.27,4.54
28.92816996574402,2.17,4.32,2.37,5.38
28.928436994552612,3.01,5.67,2.6,6.92
28.928693056106567,4.32,6.57,3.61,8.65
28.928951025009155,4.53,7.31,4.57,9.73
28.92969298362732,4.67,8.55,5.37,11.12
28.93610692024231,5.3,9.78,7.31,13.31
28.946154832839966,5.9,10.69,8.62,14.94
28.956612825393677,5.58,10.59,8.66,14.77
28.966068983078003,5.08,9.18,8.49,13.49
29.027881860733032,4.89,6.98,6.62,10.79
29.02814507484436,5.49,5.73,1.01,7.99
29.028406858444214,5.73,7.14,-4.9,10.38
29.028669118881226,2.38,11.22,-6.55,13.2
29.028934955596924,-2.13,13.05,-1.72,13.33
29.029727935791016,-1.85,10.76,1.2,10.98
29.03589701652527,1.55,6.25,0.75,6.48
29.045917987823486,2.8,2.57,1.04,3.94
29.05649995803833,0.21,0.09,1.24,1.26
29.065917015075684,-3.47,-0.55,-3.89,5.24
29.127952814102173,-1.18,2.85,-4.43,5.39
29.128221035003662,3.74,3.82,-0.07,5.34
29.128484964370728,7.16,1.74,1.95,7.62
29.128752946853638,9.01,-0.89,3.69,9.77
29.129014015197754,8.61,-2.81,4.39,10.06
29.129791975021362,6.55,-3.49,3.28,8.11
29.13573694229126,4.57,-3.33,2.3,6.1
29.145781993865967,3.52,-2.95,1.96,4.99
29.156511068344116,2.98,-2.78,2.07,4.57
29.16577982902527,2.39,-2.8,2.41,4.4
29.227741956710815,1.67,-2.64,2.19,3.81
29.22800898551941,1.13,-2.45,1.62,3.14
29.228271961212158,0.9,-2.43,1.28,2.89
29.22852897644043,1.15,-2.38,1.3,2.94
29.228790998458862,1.75,-2.32,1.41,3.23
29.22958207130432,2.17,-2.21,1.18,3.31
29.235597848892212,1.91,-2.02,1.06,2.97
29.2456271648407,1.36,-1.87,0.67,2.4
29.256626844406128,0.59,-2.1,0.52,2.24
29.265724897384644,-0.61,-2.05,-0.41,2.17
29.327865839004517,-1.57,-1.31,-2.63,3.33
29.328140020370483,-2.59,-0.47,-4.7,5.38
29.32840394973755,-4.01,-0.21,-4.73,6.2
29.32866406440735,-4.78,-0.51,-3.9,6.19
29.32892894744873,-5.02,-0.67,-3.51,6.16
29.329731941223145,-5.34,-0.25,-3.66,6.47
29.335402011871338,-5.79,0.54,-4.09,7.1
29.345442056655884,-6.56,1.53,-5.17,8.49
29.41096806526184,-7.41,2.38,-6.48,10.12
29.411240816116333,-8.12,3.02,-7.51,11.46
29.4114990234375,-7.81,3.07,-7.95,11.55
29.411761045455933,-7.42,2.58,-7.69,10.99
29.41202402114868,-7.72,0.98,-7.34,10.69
29.41228413581848,-7.91,-1.66,-6.73,10.51
29.41532015800476,-7.98,-3.6,-6.05,10.64
29.425938844680786,-8.29,-4.43,-5.41,10.84
29.435379028320312,-9.0,-4.44,-4.75,11.1
29.445291996002197,-9.28,-3.84,-4.33,10.93
29.5113308429718,-8.47,-3.11,-4.98,10.3
29.511603116989136,-7.29,-0.59,-5.82,9.34
29.511868000030518,-3.33,3.69,-5.63,7.51
29.51213002204895,2.07,2.45,-0.31,3.22
29.51238703727722,5.73,3.76,5.87,9.02
29.512644052505493,12.2,6.16,11.21,17.67
29.515209913253784,9.06,6.03,6.99,12.93
29.52570414543152,-0.22,11.76,-6.21,13.3
29.535188913345337,-3.99,10.56,-5.91,12.74
29.54517912864685,-5.84,3.19,-7.6,10.1
29.61030101776123,-7.56,-0.79,-2.12,7.89
29.610565900802612,-8.87,-2.51,3.01,9.69
29.610826015472412,-9.94,-3.92,-1.6,10.8
29.611083984375,-8.54,-3.54,-4.73,10.38
29.611340045928955,-5.99,-1.86,-5.77,8.52
29.61159586906433,-3.92,-0.34,-3.91,5.54
29.61500597000122,-2.38,0.41,-2.81,3.7
29.625514030456543,-0.4,0.76,-2.62,2.75
29.634834051132202,1.61,0.89,-1.66,2.47
29.644958972930908,2.18,0.87,-0.33,2.37
29.65565514564514,0.4,0.53,-0.42,0.78
29.71005415916443,-1.04,0.13,-1.07,1.49
29.710314989089966,-1.65,-0.05,-1.45,2.19
29.71057391166687,-1.93,0.01,-1.32,2.33
29.710813999176025,-1.74,0.01,-1.08,2.04
29.7110698223114,-1.42,-0.11,-1.19,1.85
29.71481490135193,-1.05,-0.08,-1.0,1.45
29.7253201007843,-0.65,0.07,-0.64,0.91
29.73471713066101,-0.18,0.21,-0.88,0.92
29.744801998138428,0.07,0.18,-0.89,0.91
29.755584955215454,0.25,0.23,-0.61,0.69
29.81085515022278,0.24,0.17,0.07,0.3
29.811121940612793,0.02,0.11,0.74,0.74
29.811383962631226,-0.01,0.07,0.47,0.47
29.811639070510864,0.29,0.14,0.07,0.32
29.81189513206482,0.37,0.17,-0.33,0.52
29.81472611427307,0.48,0.15,-0.19,0.53
29.82520294189453,0.85,0.15,0.36,0.93
29.834733963012695,1.51,0.19,1.03,1.83
29.84476113319397,1.78,0.14,1.41,2.27
29.85548186302185,1.42,0.05,1.47,2.04
29.912119150161743,1.04,-0.02,1.31,1.67
29.91239094734192,0.77,-0.05,1.14,1.37
29.912652015686035,0.45,-0.13,1.05,1.14
29.912914037704468,0.18,-0.17,0.89,0.92
29.913170099258423,0.17,-0.24,0.79,0.84
29.914610147476196,0.54,-0.32,0.5,0.8
29.925189971923828,1.19,-0.24,0.39,1.27
29.934736013412476,1.71,-0.15,0.45,1.77
29.944681882858276,1.73,-0.14,0.64,1.84
29.955352067947388,1.3,0.05,0.93,1.59
30.011942148208618,1.03,0.11,1.23,1.6
30.012211084365845,0.94,0.22,2.07,2.28
30.01247000694275,1.21,0.66,1.78,2.25
30.01272988319397,1.27,1.14,1.03,1.99
30.01299786567688,1.2,1.72,0.78,2.23
30.01440691947937,1.3,2.17,0.78,2.64
30.0249240398407,1.86,2.55,1.2,3.37
30.034399032592773,1.85,2.89,1.53,3.75
30.044371843338013,2.18,3.06,1.79,4.16
30.0553138256073,2.35,3.24,2.13,4.53
30.112360954284668,2.34,3.68,2.29,4.92
30.112622022628784,2.6,4.62,2.49,5.85
30.112879037857056,3.22,5.99,2.9,7.39
30.11313509941101,4.53,7.27,3.77,9.35
30.113389015197754,5.48,7.82,5.2,10.87
30.114210844039917,5.42,8.42,6.44,11.9
30.124788999557495,5.67,10.11,7.65,13.88
30.134230852127075,6.36,11.15,8.81,15.56
30.144291162490845,5.95,10.36,8.64,14.74
30.154999017715454,5.56,8.7,7.24,12.61
30.21285605430603,5.93,7.07,3.72,9.94
30.213123083114624,6.61,6.7,-1.88,9.59
30.213382959365845,5.58,9.41,-6.47,12.71
