time,ax,ay,az,atotal
0.002560138702392578,-0.13,-0.45,-1.2,1.28
0.008090972900390625,0.53,-0.39,-1.17,1.34
0.02009105682373047,-0.06,-0.13,0.0,0.14
0.04536914825439453,0.46,-0.04,-0.42,0.62
0.04721403121948242,0.71,-0.15,-0.33,0.79
0.048438072204589844,0.27,0.08,-0.18,0.33
0.0664820671081543,0.1,0.11,-0.19,0.24
0.06792116165161133,0.17,0.05,-0.09,0.19
0.08379507064819336,0.1,-0.04,-0.01,0.1
0.08737802505493164,-0.18,-0.02,0.15,0.23
0.10052013397216797,-0.34,-0.02,0.17,0.38
0.10734105110168457,-0.19,-0.06,-0.02,0.2
0.12163496017456055,-0.15,0.02,-0.11,0.18
0.14252614974975586,-0.28,0.09,-0.03,0.29
0.1444239616394043,-0.3,0.05,-0.05,0.3
0.14689207077026367,-0.25,0.04,-0.02,0.25
0.1569209098815918,-0.18,0.06,0.14,0.23
0.1670820713043213,-0.11,0.02,0.25,0.27
0.17676901817321777,-0.15,0.01,0.22,0.26
0.18685102462768555,-0.16,-0.02,0.18,0.24
0.19678592681884766,-0.03,-0.01,0.2,0.2
0.20665311813354492,0.12,0.0,0.18,0.21
0.21910500526428223,0.21,0.0,0.13,0.24
0.2479848861694336,0.28,-0.02,0.01,0.28
0.24953317642211914,0.34,-0.03,-0.03,0.34
0.2509760856628418,0.3,-0.02,-0.01,0.3
0.26681089401245117,0.19,-0.03,-0.06,0.2
0.26823902130126953,0.12,-0.01,0.0,0.12
0.28458118438720703,0.11,0.02,0.15,0.18
0.286113977432251,0.08,0.01,0.26,0.27
0.30071592330932617,-0.01,-0.03,0.37,0.37
0.3061699867248535,-0.24,0.0,0.41,0.47
0.32001399993896484,-0.36,0.03,0.33,0.48
0.3466770648956299,-0.31,0.04,0.21,0.37
0.3484611511230469,-0.14,0.02,0.05,0.15
0.34987807273864746,-0.1,0.02,-0.09,0.13
0.36782217025756836,-0.02,-0.02,-0.38,0.38
0.36928510665893555,0.04,0.05,-0.52,0.52
0.38251686096191406,0.07,0.08,-0.14,0.17
0.38503098487854004,0.19,-0.01,-0.07,0.2
0.4007749557495117,0.15,0.0,-0.05,0.15
0.4055671691894531,-0.08,0.03,0.12,0.14
0.4200170040130615,-0.19,0.04,0.21,0.28
0.4456520080566406,-0.14,0.03,0.28,0.31
0.447659969329834,-0.13,0.01,0.3,0.32
0.44906187057495117,-0.04,-0.02,0.26,0.26
0.4675779342651367,0.04,-0.02,0.25,0.25
0.46897101402282715,0.11,0.0,0.06,0.12
0.4834780693054199,0.19,0.18,-0.08,0.27
0.4849669933319092,0.07,-0.14,0.14,0.21
0.5013351440429688,0.05,-0.06,0.11,0.13
0.504709005355835,0.01,0.1,0.12,0.15
0.5176100730895996,0.01,-0.07,0.16,0.17
0.5501580238342285,-0.04,0.01,0.14,0.14
0.5520229339599609,-0.03,0.0,0.17,0.17
0.5534548759460449,0.0,0.0,0.13,0.13
0.5678560733795166,-0.01,0.02,0.05,0.05
0.5693721771240234,0.01,0.03,0.01,0.03
0.5835740566253662,0.01,0.01,0.01,0.01
0.5848510265350342,-0.03,0.02,0.03,0.04
0.6004660129547119,-0.05,0.02,0.06,0.08
0.6034131050109863,-0.02,0.01,0.08,0.08
0.6135768890380859,0.01,0.01,0.12,0.12
0.6258440017700195,0.01,0.0,0.1,0.1
0.6475629806518555,-0.03,0.0,0.08,0.08
0.6488761901855469,-0.01,0.02,0.1,0.1
0.6528191566467285,0.03,0.01,0.1,0.1
0.6632649898529053,0.02,0.0,0.08,0.08
0.672943115234375,0.03,0.01,0.05,0.05
0.6830229759216309,0.08,0.01,0.03,0.08
0.6928081512451172,0.07,0.01,0.03,0.07
0.7029619216918945,0.02,0.0,0.06,0.06
0.7127480506896973,-0.01,0.0,0.06,0.06
0.7255501747131348,-0.04,0.01,0.06,0.07
0.7480340003967285,-0.07,0.02,0.05,0.08
0.749579906463623,-0.07,0.03,0.06,0.09
0.7522258758544922,-0.04,0.04,0.06,0.08
0.7682771682739258,-0.03,0.03,0.06,0.07
0.7721869945526123,-0.02,0.02,0.02,0.03
0.7818641662597656,-0.02,0.02,0.02,0.03
0.7919712066650391,-0.02,0.01,0.06,0.06
0.8019530773162842,-0.02,0.0,0.11,0.11
0.8151040077209473,-0.03,0.0,0.13,0.13
0.8237600326538086,-0.01,0.0,0.13,0.13
0.851527214050293,0.01,-0.01,0.11,0.11
0.8532209396362305,0.0,-0.01,0.08,0.08
0.8544280529022217,0.0,0.01,0.08,0.08
0.8616189956665039,0.01,0.0,0.1,0.1
0.8716678619384766,0.01,-0.01,0.09,0.09
0.8816030025482178,-0.01,0.0,0.09,0.09
0.8914570808410645,0.02,-0.01,0.11,0.11
0.9014101028442383,0.05,-0.02,0.17,0.17
0.9111630916595459,0.02,-0.03,0.25,0.25
0.9237880706787109,-0.03,-0.04,0.32,0.32
0.9488191604614258,-0.12,-0.07,0.27,0.3
0.9504818916320801,-0.1,-0.05,0.23,0.25
0.9522590637207031,-0.04,-0.02,0.22,0.22
0.9690670967102051,0.04,0.02,0.18,0.18
0.9705791473388672,0.14,0.02,0.11,0.17
0.9837589263916016,0.0,-0.01,0.17,0.17
0.9907300472259521,-0.17,0.08,0.32,0.37
1.0005578994750977,-0.29,0.1,0.07,0.31
1.0110139846801758,-0.46,0.13,-0.34,0.58
1.022848129272461,-0.6,0.19,-0.59,0.86
1.0526180267333984,-0.62,0.22,-0.61,0.89
1.054399013519287,-0.53,0.22,-0.59,0.82
1.0557770729064941,-0.44,0.26,-0.72,0.88
1.0683190822601318,-0.39,0.38,-0.84,1.0
1.069796085357666,-0.4,0.54,-0.91,1.13
1.0840001106262207,-0.57,0.58,-0.94,1.24
1.0898208618164062,-0.82,0.57,-0.87,1.32
1.1008610725402832,-1.12,0.67,-0.83,1.54
1.1103620529174805,-1.4,0.62,-0.68,1.67
1.1222140789031982,-1.24,0.39,-0.39,1.35
1.154745101928711,-0.56,0.34,-0.23,0.69
1.1566569805145264,0.21,0.36,-0.08,0.42
1.1581740379333496,0.59,0.16,0.06,0.61
1.1684730052947998,0.89,-0.2,-0.15,0.92
1.1699938774108887,2.02,-0.95,-1.24,2.55
1.1839962005615234,3.13,-1.5,-3.75,5.1
1.189310073852539,3.12,-1.42,-5.71,6.65
1.2006630897521973,2.82,-0.35,-5.03,5.77
1.2090439796447754,2.6,-0.28,-2.92,3.91
1.2212400436401367,2.4,-1.38,-1.17,3.0
1.2487390041351318,1.83,-1.9,-0.24,2.64
1.250288963317871,1.09,-1.86,0.24,2.16
1.251297950744629,0.4,-1.74,0.43,1.83
1.2696619033813477,-0.32,-1.3,0.66,1.49
1.2711710929870605,-0.45,-0.91,1.11,1.5
1.2844040393829346,-0.36,-0.61,1.92,2.04
1.2884478569030762,-0.66,-0.47,2.57,2.69
1.3009190559387207,-1.31,-0.3,2.85,3.15
1.3083360195159912,-2.29,0.09,3.26,3.98
1.3184971809387207,-3.16,0.35,3.75,4.91
1.3541350364685059,-3.93,0.85,4.59,6.1
1.3559179306030273,-5.29,2.35,5.82,8.2
1.3573360443115234,-6.19,3.32,6.98,9.9
1.3669309616088867,-4.47,1.6,5.5,7.26
1.368429183959961,-2.67,-0.73,0.99,2.93
1.3841660022735596,-0.92,-0.06,-2.8,2.94
1.3875970840454102,0.98,1.02,-3.56,3.83
1.3995420932769775,2.31,0.75,-2.58,3.54
1.4076271057128906,2.79,0.44,-1.28,3.1
1.417283058166504,1.79,0.39,-0.61,1.93
1.4278669357299805,0.14,0.0,-0.73,0.74
1.4576549530029297,-0.74,-0.02,-0.49,0.88
1.4589180946350098,-0.77,0.11,0.21,0.8
1.4602100849151611,-0.53,0.22,0.79,0.97
1.4668810367584229,-0.53,0.27,0.79,0.98
1.4770770072937012,-0.54,0.39,0.48,0.82
1.4868478775024414,-0.41,0.36,-0.29,0.61
1.4969840049743652,-0.3,0.4,-0.96,1.08
1.506847858428955,-0.07,0.22,-0.85,0.88
1.5167899131774902,0.46,0.02,-0.43,0.63
1.5271000862121582,0.93,-0.09,-0.31,0.98
1.554427146911621,1.0,-0.13,-0.37,1.07
1.556077003479004,0.77,-0.14,-0.1,0.78
1.5577778816223145,0.46,-0.09,0.1,0.47
1.5674991607666016,0.15,-0.03,0.03,0.15
1.5763969421386719,0.14,0.04,0.17,0.22
1.5861620903015137,0.34,0.06,0.14,0.37
1.5961639881134033,0.47,-0.04,-0.06,0.47
1.6059489250183105,0.54,-0.09,-0.07,0.55
1.6160850524902344,0.42,-0.04,0.0,0.42
1.626479148864746,0.17,0.03,-0.02,0.17
1.6550490856170654,-0.08,0.04,-0.04,0.09
1.6565470695495605,-0.3,0.09,-0.1,0.32
1.6577820777893066,-0.43,0.03,-0.26,0.5
1.6686770915985107,-0.38,-0.04,-0.27,0.46
1.6756601333618164,-0.28,-0.01,-0.29,0.4
1.6853020191192627,-0.3,0.02,-0.37,0.47
1.6953630447387695,-0.31,0.04,-0.39,0.49
1.705164909362793,-0.1,0.1,-0.22,0.26
1.7152509689331055,-0.13,0.13,-0.12,0.21
1.725977897644043,-0.3,0.0,-0.05,0.3
1.7543201446533203,-0.07,-0.01,0.16,0.17
1.7557179927825928,0.11,0.06,0.29,0.31
1.756917953491211,-0.1,0.06,0.18,0.21
1.7694048881530762,-0.27,0.11,0.29,0.41
1.7746920585632324,-0.09,0.11,0.33,0.35
1.7844429016113281,0.25,0.07,0.27,0.37
1.7944509983062744,0.23,0.1,0.03,0.25
1.8042631149291992,-0.15,0.23,-0.14,0.3
1.814600944519043,-0.26,0.24,-0.16,0.38
1.8249831199645996,-0.33,0.15,-0.26,0.44
1.8601419925689697,-0.47,0.21,-0.43,0.67
1.8619298934936523,-0.47,0.3,-0.51,0.75
1.863239049911499,-0.38,0.32,-0.6,0.77
1.864598035812378,-0.44,0.21,-0.73,0.87
1.8737730979919434,-0.63,0.18,-0.83,1.05
1.8839621543884277,-0.73,0.22,-0.88,1.16
1.8939781188964844,-0.96,0.26,-0.62,1.17
1.9039020538330078,-1.2,0.25,-0.43,1.29
1.9138579368591309,-1.16,0.24,-0.2,1.2
1.923616886138916,-1.07,0.24,-0.04,1.09
1.9557139873504639,-1.16,0.2,-0.21,1.19
1.957387924194336,-1.17,0.2,-0.49,1.28
1.9585239887237549,-1.08,0.21,-0.58,1.24
1.9672179222106934,-1.08,0.14,-0.51,1.2
1.9731299877166748,-0.83,0.14,-0.45,0.95
1.9842371940612793,-0.45,0.2,-0.3,0.57
1.9932670593261719,-0.14,0.06,-0.27,0.31
2.0029730796813965,-0.2,0.11,-0.25,0.33
2.013099193572998,-0.21,0.12,-0.31,0.39
2.022665023803711,-0.07,0.26,-0.6,0.65
2.063922882080078,0.03,0.42,-0.92,1.01
2.0656189918518066,-0.05,0.38,-0.98,1.05
2.0670690536499023,-0.29,0.29,-1.11,1.18
2.0847721099853516,-0.29,0.19,-1.03,1.08
2.0861611366271973,-0.22,0.09,-0.65,0.69
2.101269006729126,-0.2,0.17,-0.24,0.35
2.102755069732666,-0.02,0.46,-0.15,0.48
2.118072986602783,0.22,0.59,-0.34,0.71
2.1195080280303955,0.27,0.59,-0.42,0.77
2.137197971343994,0.17,0.77,-0.47,0.91
2.1611061096191406,-0.34,1.17,-0.26,1.24
2.162726879119873,-0.81,1.57,-0.29,1.79
2.163792133331299,-0.57,2.12,-0.57,2.26
2.165849208831787,-0.28,2.45,-1.06,2.68
2.171599864959717,-0.36,3.01,-1.07,3.21
2.181882858276367,-0.47,3.13,-1.38,3.45
2.1916050910949707,-0.65,3.45,-1.87,3.97
2.201580047607422,-0.77,3.44,-2.2,4.15
2.2113561630249023,-0.7,3.17,-2.21,3.92
2.2214090824127197,-0.7,3.01,-1.98,3.67
2.2314560413360596,-0.84,2.98,-2.07,3.72
2.2595040798187256,-1.31,2.97,-1.98,3.8
2.2611231803894043,-1.69,2.66,-1.8,3.62
2.2633140087127686,-1.8,2.01,-2.01,3.36
2.2707271575927734,-1.98,1.69,-2.13,3.36
2.2812700271606445,-1.71,1.43,-2.39,3.26
2.2909841537475586,-0.99,1.35,-2.53,3.03
2.3008861541748047,-0.47,1.4,-2.72,3.09
2.310774087905884,-0.27,1.16,-2.9,3.13
2.3206300735473633,-0.16,0.79,-2.68,2.79
2.3306760787963867,-0.14,1.63,-2.02,2.59
2.357696056365967,0.85,2.94,-1.42,3.37
2.359328031539917,1.3,3.13,-2.14,4.0
2.360974073410034,-0.32,1.65,-3.41,3.8
2.370100975036621,-1.78,0.67,-3.86,4.3
2.3803391456604004,-2.5,0.08,-3.52,4.31
2.390064001083374,-2.93,-0.56,-3.21,4.38
2.400404930114746,-3.64,-1.45,-3.26,5.09
2.409960985183716,-2.73,-1.56,-3.34,4.58
2.419879913330078,-0.15,-1.0,-3.15,3.3
2.429979085922241,-1.85,-1.38,-2.76,3.59
2.45763897895813,-4.81,-1.31,-3.07,5.85
2.459268093109131,-7.16,-0.88,-3.15,7.87
2.4610118865966797,-7.86,-0.9,-2.61,8.33
2.469210147857666,-7.05,-1.39,-1.92,7.43
2.4795610904693604,-5.61,-1.97,-1.84,6.22
2.4893579483032227,-4.61,-2.12,-2.03,5.46
2.4991111755371094,-4.32,-1.88,-2.21,5.2
2.5091681480407715,-4.31,-1.6,-2.3,5.14
2.519196033477783,-4.31,-1.46,-2.22,5.06
2.529665946960449,-4.3,-1.35,-1.9,4.89
2.5568509101867676,-4.13,-1.21,-1.46,4.54
2.5585150718688965,-3.73,-0.99,-0.95,3.97
2.55995512008667,-3.48,-0.69,-0.52,3.58
2.568760871887207,-3.59,-0.23,-0.02,3.59
2.578585147857666,-3.98,0.21,0.51,4.01
2.588754177093506,-4.34,0.41,0.96,4.46
2.5987019538879395,-4.38,0.59,1.56,4.68
2.6086959838867188,-3.57,0.72,1.98,4.14
2.6185240745544434,-2.03,0.75,1.94,2.9
2.6287620067596436,-0.71,0.9,1.95,2.26
2.666107177734375,0.4,0.94,1.97,2.21
2.6679720878601074,1.35,0.97,1.89,2.51
2.6693801879882812,2.08,1.24,1.96,3.11
2.6852259635925293,2.54,1.52,2.26,3.72
2.6867599487304688,2.81,1.85,2.7,4.31
2.701781988143921,3.3,2.2,3.1,5.03
2.703263998031616,4.16,2.25,3.34,5.78
2.7181859016418457,5.05,2.17,3.48,6.5
2.7196459770202637,5.75,2.13,3.52,7.07
2.7341361045837402,6.25,1.91,3.56,7.44
2.7611629962921143,6.67,1.62,3.7,7.79
2.7627360820770264,7.2,1.46,3.87,8.3
2.7637839317321777,7.89,1.25,3.95,8.91
2.7669410705566406,8.3,1.04,3.88,9.22
2.77715802192688,7.42,3.81,3.33,8.98
2.7873101234436035,7.35,2.62,2.44,8.17
2.797218084335327,9.85,0.65,2.3,10.13
2.8070499897003174,11.15,1.46,2.86,11.6
2.816883087158203,12.29,2.46,2.67,12.81
2.82682204246521,15.07,2.53,2.73,15.52
2.862588882446289,14.28,1.24,2.9,14.62
2.864471912384033,6.42,-0.37,1.8,6.67
2.8658740520477295,-1.32,-1.76,0.71,2.31
2.8855650424957275,-5.26,-2.23,0.19,5.71
2.8870630264282227,-5.35,-0.77,0.23,5.41
2.9010910987854004,-3.91,1.9,0.81,4.42
2.9025821685791016,-2.21,3.93,1.94,4.9
2.9183859825134277,-0.44,2.5,2.63,3.65
2.91988205909729,1.33,-0.49,2.6,2.96
2.9377570152282715,2.45,-1.2,2.31,3.57
2.9626221656799316,2.5,-0.5,1.87,3.16
2.9644360542297363,1.72,-0.23,1.23,2.12
2.9654810428619385,0.79,-0.4,0.26,0.92
2.9857280254364014,0.27,-0.14,-0.64,0.7
2.987196922302246,0.22,0.23,-0.94,0.99
3.0017690658569336,0.27,0.28,-0.67,0.77
3.0032520294189453,0.1,0.1,-0.35,0.37
3.018480062484741,-0.29,-0.06,-0.15,0.33
3.019987106323242,-0.67,-0.01,0.08,0.67
3.034609079360962,-0.88,-0.09,0.35,0.95
3.0369391441345215,-0.71,-0.04,0.53,0.88
3.0768070220947266,-0.5,0.08,0.48,0.69
3.078197956085205,-0.84,0.1,0.27,0.88
3.0793750286102295,-1.24,0.14,0.21,1.26
3.081437110900879,-1.11,0.11,0.06,1.11
3.084662914276123,-0.5,0.25,-0.38,0.67
3.0947840213775635,0.57,0.28,-0.93,1.12
3.104973077774048,1.1,0.37,-1.23,1.69
3.114945888519287,0.4,0.43,-1.07,1.22
3.124764919281006,-0.66,0.34,-0.68,1.0
3.134545087814331,-0.84,0.31,-0.37,0.96
3.1616978645324707,-0.62,0.29,0.05,0.68
3.16280198097229,-0.29,0.16,-0.07,0.33
3.163817882537842,0.12,0.07,-0.53,0.54
3.1741790771484375,0.49,0.06,-0.54,0.73
3.1843340396881104,0.73,-0.02,-0.15,0.74
3.193943977355957,0.87,-0.08,0.26,0.91
3.2040700912475586,1.04,-0.27,0.37,1.13
3.2140259742736816,1.02,-0.28,0.4,1.13
3.2239298820495605,0.9,-0.22,0.39,1.0
3.234055995941162,0.83,-0.19,0.38,0.93
3.2637991905212402,0.8,-0.22,0.39,0.91
3.2651009559631348,0.63,-0.22,0.36,0.75
3.2660679817199707,0.3,-0.12,0.29,0.43
3.284904956817627,0.05,0.01,0.29,0.29
3.2862939834594727,-0.02,0.08,0.3,0.31
3.3017868995666504,0.05,-0.01,0.22,0.22
3.303277015686035,0.14,-0.08,0.12,0.2
3.3184781074523926,0.15,-0.06,0.13,0.2
3.3230581283569336,0.19,-0.09,0.18,0.27
3.3384408950805664,0.18,-0.06,0.26,0.32
3.363345146179199,0.06,-0.01,0.16,0.17
3.3648300170898438,-0.08,0.04,-0.09,0.12
3.36588191986084,-0.15,0.05,-0.15,0.21
3.385362148284912,0.05,0.06,-0.16,0.17
3.3868279457092285,0.3,0.05,-0.06,0.31
3.402184009552002,0.22,0.1,-0.08,0.25
3.403615951538086,0.03,0.19,-0.22,0.29
3.4187800884246826,-0.14,0.24,-0.27,0.38
3.4223241806030273,-0.34,0.27,-0.3,0.52
3.43858003616333,-0.27,0.25,-0.33,0.49
3.468677043914795,-0.14,0.25,-0.27,0.39
3.469900131225586,-0.37,0.23,-0.36,0.56
3.471036911010742,-0.71,0.24,-0.41,0.85
3.4850502014160156,-1.0,0.29,-0.33,1.09
3.4865310192108154,-1.25,0.32,-0.51,1.38
3.5020151138305664,-1.45,0.34,-0.7,1.64
3.503448009490967,-1.61,0.25,-0.72,1.78
3.5186750888824463,-1.73,0.2,-0.65,1.85
3.52154803276062,-1.48,0.25,-0.66,1.63
3.5346810817718506,-1.26,0.26,-0.64,1.43
3.5688250064849854,-1.3,0.16,-0.67,1.47
3.57067608833313,-1.43,0.1,-0.72,1.6
3.5719361305236816,-1.44,0.16,-0.67,1.59
3.5859999656677246,-1.61,0.27,-0.93,1.87
3.5874929428100586,-1.41,0.37,-0.97,1.75
3.601810932159424,-1.26,0.28,-0.68,1.45
3.6032891273498535,-0.85,0.03,-0.3,0.9
3.6187520027160645,-0.28,-0.2,0.01,0.34
3.620755195617676,0.17,-0.24,0.09,0.3
3.633768081665039,0.1,-0.23,-0.32,0.4
3.6659650802612305,-0.03,0.06,-0.6,0.6
3.6677398681640625,0.11,0.54,-0.75,0.93
3.6687920093536377,0.09,0.35,-1.24,1.29
3.685781955718994,0.01,-0.27,-1.18,1.21
3.6872758865356445,0.05,-0.61,-0.29,0.67
3.70186185836792,0.08,-0.4,0.44,0.6
3.7033209800720215,-0.31,-0.19,0.25,0.44
3.7185750007629395,-0.57,0.29,0.02,0.63
3.7199900150299072,-0.29,0.53,-0.31,0.67
3.73494815826416,0.61,0.55,-0.7,1.07
3.7666900157928467,1.59,0.62,-1.17,2.06
3.7684500217437744,2.4,0.59,-1.25,2.76
3.7695140838623047,2.29,0.86,-1.34,2.78
3.786036968231201,1.81,1.07,-0.64,2.19
3.787559986114502,0.62,2.0,-0.09,2.09
3.802043914794922,-0.52,2.88,0.55,2.97
3.803507089614868,-0.87,3.99,0.73,4.14
3.8186421394348145,-0.88,4.24,-0.42,4.35
3.820101022720337,-0.88,4.9,-0.12,4.97
3.837743043899536,-0.66,4.93,0.12,4.97
3.8395490646362305,-0.45,4.63,0.17,4.65
3.8718690872192383,-0.43,4.07,0.32,4.1
3.8730502128601074,-1.16,3.84,0.44,4.03
3.8741800785064697,-2.0,3.39,0.48,3.96
3.887331008911133,-2.55,2.74,0.6,3.79
3.88885498046875,-3.21,2.28,0.35,3.95
3.902109146118164,-3.57,1.91,-0.57,4.08
3.9087791442871094,-3.32,1.81,-1.51,4.07
3.9187660217285156,-2.82,1.99,-2.59,4.31
3.928555965423584,-1.78,2.22,-3.2,4.28
3.9385600090026855,-0.18,1.1,-3.45,3.62
3.9678220748901367,1.1,1.04,-3.6,3.9
3.969604969024658,1.66,2.23,-3.93,4.81
3.970907211303711,2.72,3.82,-3.86,6.07
3.9858920574188232,3.72,5.42,-3.47,7.43
3.9879379272460938,1.68,3.07,-3.61,5.02
4.00211501121521,-1.22,0.01,-4.13,4.3
4.007874965667725,-3.12,-1.61,-4.02,5.33
4.018603086471558,-4.14,-2.92,-3.87,6.37
4.027931213378906,-3.72,-2.48,-3.41,5.62
4.037847995758057,-0.59,-1.79,-2.59,3.2
4.068656921386719,-1.71,-2.73,-3.18,4.52
4.070129871368408,-4.91,-2.67,-4.16,6.96
4.071156978607178,-7.64,-2.1,-4.4,9.06
4.086172103881836,-8.47,-1.65,-3.93,9.48
4.087697982788086,-7.8,-1.7,-3.25,8.61
4.102517127990723,-6.66,-2.3,-2.7,7.54
4.107526063919067,-5.76,-2.82,-2.39,6.84
4.118788003921509,-5.09,-2.82,-2.38,6.28
4.127191066741943,-4.47,-2.22,-2.27,5.48
4.137546062469482,-3.77,-1.64,-2.12,4.62
4.16886305809021,-3.39,-1.36,-2.08,4.2
4.170583009719849,-3.54,-1.13,-2.14,4.28
4.1715919971466064,-3.97,-0.77,-2.02,4.52
4.185871124267578,-4.19,-0.35,-1.7,4.53
4.187372207641602,-4.11,0.04,-1.35,4.32
4.202178001403809,-3.79,0.36,-1.12,3.96
4.206357002258301,-3.33,0.65,-1.03,3.54
4.219922065734863,-2.84,1.1,-0.88,3.17
4.226559162139893,-2.36,1.59,-0.37,2.86
4.236615180969238,-2.15,1.68,0.2,2.73
4.27581000328064,-2.27,1.49,0.71,2.8
4.277445077896118,-2.32,1.4,1.3,3.0
4.27843713760376,-2.12,1.35,1.69,3.02
4.281528949737549,-1.39,1.2,1.79,2.56
4.302535057067871,-0.58,1.03,1.83,2.17
4.304001092910767,0.05,1.2,1.95,2.29
4.318626880645752,0.88,1.43,1.97,2.58
4.320084095001221,1.88,1.32,2.0,3.04
4.33437705039978,2.82,1.24,2.22,3.79
4.335855007171631,3.67,1.34,2.62,4.7
4.381193161010742,4.32,1.43,3.12,5.51
4.382390975952148,4.78,1.32,3.38,6.0
4.383413076400757,5.08,1.1,3.4,6.21
4.403046131134033,5.23,1.08,3.46,6.36
4.4045491218566895,5.47,1.24,3.62,6.67
4.417994022369385,5.93,1.35,3.94,7.24
4.419461011886597,6.56,1.33,4.38,7.99
4.435693025588989,7.19,0.83,4.75,8.65
4.437170028686523,7.44,0.14,4.81,8.86
4.4550230503082275,7.01,0.21,4.67,8.42
4.483999013900757,5.67,3.66,3.96,7.82
4.4853949546813965,6.41,1.35,3.59,7.46
4.486407041549683,9.19,-0.28,4.89,10.41
4.503157138824463,11.0,0.19,5.65,12.36
4.504660129547119,11.43,-0.82,4.15,12.18
4.5191569328308105,10.3,-0.77,3.1,10.78
4.520636081695557,11.55,-0.71,3.47,12.08
4.535655975341797,13.0,-1.43,3.94,13.65
4.537153005599976,7.25,-1.17,2.58,7.78
4.551083087921143,-1.56,0.15,0.15,1.57
4.576925992965698,-5.19,1.83,-1.43,5.68
4.578318119049072,-3.06,2.96,-0.28,4.26
4.579355001449585,-0.28,3.22,2.32,3.97
4.581453084945679,0.56,1.02,2.9,3.12
4.602750062942505,0.6,-0.77,2.53,2.71
4.604223012924194,0.52,-0.59,2.41,2.53
4.619040012359619,0.38,-0.4,1.0,1.14
4.620488166809082,0.36,-0.12,-0.53,0.65
4.634222984313965,0.61,0.08,-0.93,1.11
4.6357011795043945,0.71,0.07,-1.12,1.32
4.650943994522095,0.68,-0.05,-1.37,1.53
4.677838087081909,0.68,-0.24,-0.82,1.09
4.679117202758789,0.58,-0.37,-0.07,0.69
4.680160999298096,0.15,-0.26,0.64,0.7
4.682444095611572,-0.6,-0.07,1.31,1.44
4.692625045776367,-1.22,0.04,1.06,1.61
4.702674865722656,-1.25,0.08,0.26,1.27
4.712584972381592,-0.64,0.34,-0.28,0.77
4.7228100299835205,0.03,0.55,-0.29,0.62
4.732662200927734,0.36,0.48,-0.23,0.64
4.742466926574707,0.21,0.23,-0.24,0.39
4.7727179527282715,-0.27,0.32,-0.69,0.8
4.774055004119873,-0.2,0.41,-0.73,0.86
4.775089979171753,0.55,0.29,-0.38,0.72
4.785222053527832,1.11,0.25,-0.26,1.16
4.791616916656494,1.06,0.01,-0.48,1.16
4.8018810749053955,0.63,-0.19,-0.38,0.75
4.812028884887695,0.33,-0.08,0.21,0.39
4.821799993515015,0.35,-0.06,0.46,0.58
4.831907033920288,0.7,-0.17,0.59,0.93
4.841700077056885,0.95,-0.13,0.54,1.1
4.872486114501953,0.8,-0.03,0.36,0.87
4.873823165893555,0.57,-0.1,0.26,0.63
4.874859094619751,0.49,-0.17,0.09,0.52
4.8853840827941895,0.38,-0.18,-0.23,0.47
4.891292095184326,0.11,-0.2,-0.37,0.43
4.902491092681885,-0.21,-0.03,-0.31,0.37
4.91138219833374,-0.42,0.14,-0.14,0.46
4.921310901641846,-0.57,0.19,0.02,0.6
4.931159019470215,-0.55,0.18,0.06,0.58
4.941004991531372,-0.36,0.07,0.02,0.36
4.970675945281982,-0.21,-0.06,-0.17,0.27
4.972037076950073,-0.39,0.01,-0.48,0.61
4.9730448722839355,-0.47,0.21,-0.7,0.86
4.986019134521484,-0.43,0.32,-0.66,0.85
4.990569114685059,-0.58,0.35,-0.49,0.83
5.002508163452148,-0.8,0.46,-0.08,0.92
5.010529041290283,-1.08,0.43,0.2,1.17
5.020287036895752,-1.34,0.35,0.0,1.38
5.03027606010437,-1.71,0.34,-0.25,1.76
5.040117979049683,-1.75,0.32,-0.56,1.86
5.080304145812988,-1.72,0.26,-1.01,2.01
5.081845998764038,-1.46,0.37,-1.3,1.98
5.082854986190796,-0.75,0.41,-1.14,1.42
5.103440999984741,-0.12,0.17,-0.39,0.44
5.104939937591553,0.19,0.08,0.3,0.36
5.119382858276367,-0.28,0.04,0.25,0.37
5.120887994766235,-0.84,0.14,-0.01,0.85
5.136035919189453,-1.41,0.29,-0.27,1.46
5.137474060058594,-1.8,0.45,-0.86,2.04
5.152109146118164,-2.15,0.33,-1.6,2.7
5.180811882019043,-1.98,0.56,-1.98,2.85
5.182199001312256,-1.25,0.59,-1.56,2.08
5.183182001113892,-1.05,0.34,-1.42,1.79
5.204900026321411,-1.22,0.35,-2.01,2.37
5.206372976303101,-1.18,0.52,-1.99,2.37
5.2192840576171875,-0.55,0.95,-1.81,2.11
5.22073221206665,0.17,1.28,-2.0,2.38
5.235989093780518,1.32,1.07,-1.29,2.13
5.237504005432129,1.76,1.16,-0.67,2.21
5.251307964324951,1.24,1.76,0.15,2.15
5.278757095336914,0.18,2.54,1.73,3.07
5.280181884765625,-0.84,3.14,1.66,3.64
5.281130075454712,-1.46,3.14,0.89,3.57
5.282480001449585,-1.03,3.13,0.98,3.43
5.287966012954712,-0.92,3.42,-0.07,3.54
5.298079013824463,-0.57,3.63,-0.34,3.69
5.308355093002319,0.02,3.21,-0.33,3.22
5.318181991577148,0.03,3.1,-0.29,3.11
5.32803201675415,-0.56,2.91,-0.27,2.97
5.338011980056763,-1.2,2.79,-0.28,3.05
5.372603893280029,-1.68,3.04,-0.2,3.47
5.373871088027954,-2.12,3.11,-0.28,3.77
5.374938011169434,-2.82,2.48,-0.93,3.86
5.386159896850586,-3.19,1.56,-1.4,3.81
5.387204170227051,-2.48,1.29,-1.29,3.07
5.402885913848877,-1.0,1.03,-0.89,1.68
5.4073710441589355,0.56,1.08,-0.8,1.45
5.419508934020996,2.45,1.95,-1.15,3.33
5.427268981933594,4.24,3.22,-1.66,5.57
5.437098979949951,1.93,1.56,-2.68,3.65
5.447197914123535,-0.46,-0.66,-2.43,2.55
5.47805118560791,-0.96,-2.14,-2.0,3.08
5.479201078414917,-2.45,-3.93,-2.75,5.38
5.480417013168335,-3.66,-3.38,-2.55,5.59
5.486552000045776,-2.82,-2.48,-1.57,4.07
5.496460914611816,-4.49,-3.4,-2.47,6.14
5.5068511962890625,-6.43,-3.39,-3.23,7.95
5.516758918762207,-6.55,-2.76,-3.1,7.75
5.526684045791626,-4.77,-2.49,-2.76,6.04
5.53664493560791,-3.06,-2.87,-2.82,5.05
5.546274185180664,-2.51,-2.92,-3.02,4.89
5.577591896057129,-2.63,-2.46,-3.13,4.77
5.578747034072876,-2.89,-1.85,-2.89,4.48
5.5800371170043945,-2.96,-1.52,-2.23,4.0
5.585690021514893,-2.85,-1.47,-1.5,3.54
5.603216171264648,-2.92,-1.29,-0.96,3.33
5.6058831214904785,-3.06,-0.74,-0.57,3.19
5.618257999420166,-3.05,-0.05,-0.42,3.07
5.625711917877197,-3.04,0.57,-0.46,3.12
5.635608196258545,-3.17,1.04,-0.53,3.37
5.645615100860596,-3.19,1.45,-0.51,3.54
5.677163124084473,-2.91,1.8,-0.38,3.44
5.678299903869629,-2.48,1.89,-0.38,3.14
5.6794750690460205,-2.26,1.95,-0.61,3.04
5.685018062591553,-2.22,2.28,-0.94,3.31
5.703033924102783,-2.08,2.45,-1.17,3.42
5.705066204071045,-1.83,2.22,-1.38,3.19
5.719508171081543,-1.47,1.9,-1.44,2.8
5.724968910217285,-0.71,1.52,-1.36,2.15
5.735008001327515,0.17,1.11,-1.5,1.87
5.745059967041016,0.59,1.04,-1.51,1.92
5.777202129364014,0.78,0.91,-0.97,1.54
5.778389930725098,0.77,0.5,-0.11,0.92
5.779640197753906,0.54,0.28,0.65,0.89
5.78437614440918,0.21,0.28,1.26,1.3
5.8029680252075195,0.11,0.35,1.89,1.92
5.804424047470093,0.54,0.41,2.44,2.53
5.8196001052856445,1.23,0.16,2.87,3.12
5.824235916137695,1.62,-0.14,3.26,3.64
5.834755897521973,1.9,-0.27,3.5,3.99
5.844286918640137,2.4,-0.34,3.54,4.29
5.88687801361084,3.07,-0.33,3.47,4.64
5.8880510330200195,3.82,-0.14,3.4,5.11
5.889056205749512,4.47,0.07,3.42,5.62
5.904187202453613,4.92,0.13,3.54,6.06
5.905657052993774,5.16,0.06,3.66,6.32
5.91947603225708,5.32,-0.06,3.74,6.5
5.920926094055176,5.53,-0.07,3.77,6.69
5.936369895935059,5.88,-0.01,3.68,6.93
5.937871932983398,6.21,0.03,3.39,7.07
5.9516050815582275,6.1,0.88,3.03,6.86
5.981019973754883,5.0,3.23,2.53,6.46
5.982233047485352,6.44,1.75,2.64,7.17
5.983295917510986,8.25,1.25,3.93,9.22
6.00414514541626,7.83,1.24,4.5,9.11
6.005640029907227,7.25,1.35,3.94,8.36
6.019537925720215,8.66,0.97,3.58,9.42
6.0210230350494385,8.67,0.74,3.45,9.36
6.036145210266113,5.54,0.03,2.79,6.2
6.037607192993164,0.1,-1.2,2.56,2.82
6.051733016967773,-3.54,-1.21,2.45,4.47
6.0819411277771,-3.52,-1.36,2.13,4.33
6.083195209503174,-2.46,-1.45,1.9,3.42
6.0842180252075195,-0.66,-0.47,2.26,2.4
6.1036059856414795,0.94,1.22,2.41,2.86
6.105099201202393,1.1,2.18,1.54,2.88
6.119417190551758,0.64,1.7,0.88,2.01
6.120904922485352,0.99,0.35,0.84,1.34
6.136168003082275,1.63,-0.37,0.87,1.88
6.137537956237793,1.74,-0.27,0.35,1.79
6.151948928833008,1.43,-0.12,-0.52,1.52
6.1806230545043945,0.92,0.04,-0.87,1.26
6.181958198547363,0.5,0.04,-0.74,0.89
6.182906150817871,0.37,-0.13,-0.16,0.42
6.203902006149292,0.16,-0.14,0.23,0.31
6.2049560546875,-0.24,0.03,0.4,0.46
6.219162940979004,-0.61,0.25,0.53,0.84
6.220578193664551,-0.86,0.26,0.52,1.03
6.236279010772705,-0.6,0.15,0.9,1.09
6.237725019454956,-0.13,0.14,1.09,1.1
6.2516021728515625,0.1,0.14,0.41,0.44
6.252971172332764,0.28,0.23,-0.4,0.53
6.299661159515381,0.5,0.2,-0.65,0.84
6.300822019577026,0.72,0.13,-0.4,0.83
6.301812171936035,0.83,0.24,-0.32,0.92
6.320708990097046,0.66,0.23,-0.39,0.8
6.322196960449219,0.35,0.15,-0.06,0.38
6.336330890655518,-0.01,0.19,-0.27,0.33
6.337814092636108,-0.14,0.29,-0.6,0.68
6.353049993515015,-0.01,0.2,-0.7,0.72
6.354483127593994,0.23,0.05,-0.6,0.64
6.368612051010132,0.31,0.03,-0.32,0.44
6.400662899017334,0.11,-0.02,-0.1,0.15
6.401980876922607,-0.15,0.0,0.19,0.24
6.402945041656494,-0.33,0.0,0.31,0.45
6.420643091201782,-0.42,0.03,0.07,0.42
6.422110080718994,-0.58,0.08,-0.17,0.6
6.436388969421387,-0.73,0.1,-0.38,0.82
6.437897205352783,-0.64,0.11,-0.32,0.72
6.452123165130615,-0.39,0.07,-0.14,0.42
6.4535651206970215,-0.19,0.04,-0.1,0.21
6.468605041503906,-0.22,0.11,0.08,0.25
6.500722885131836,-0.23,0.15,0.12,0.29
6.501935958862305,-0.21,0.15,0.11,0.28
6.5028510093688965,-0.14,0.1,0.13,0.21
6.520748138427734,-0.09,0.04,0.02,0.1
6.522216081619263,-0.17,0.0,-0.12,0.2
6.536586046218872,-0.2,0.01,-0.08,0.21
6.538037061691284,-0.1,0.12,-0.03,0.15
6.553225994110107,-0.04,0.14,-0.05,0.15
6.554544925689697,0.02,0.06,0.03,0.06
6.568839073181152,0.07,0.04,0.16,0.17
6.597930908203125,-0.09,0.1,0.03,0.13
6.599394083023071,-0.32,0.14,-0.22,0.41
6.600356101989746,-0.61,0.2,-0.46,0.78
6.619580030441284,-1.06,0.3,-0.9,1.42
6.620617866516113,-1.49,0.48,-1.18,1.96
6.636473178863525,-1.88,0.65,-1.25,2.34
6.6379499435424805,-2.19,0.54,-1.38,2.64
6.653573036193848,-2.13,0.32,-1.32,2.52
6.654974937438965,-1.8,0.16,-1.08,2.1
6.6689958572387695,-1.34,0.1,-0.68,1.5
6.698574066162109,-0.75,-0.01,-0.21,0.77
6.6999499797821045,-0.66,-0.23,0.07,0.7
6.700944900512695,-0.76,-0.43,0.27,0.91
6.720149040222168,-0.4,-0.64,0.54,0.92
6.721188068389893,0.2,-0.59,0.81,1.02
6.73677921295166,0.54,-0.57,0.83,1.14
6.738275051116943,0.33,-0.13,0.49,0.6
6.753293991088867,0.25,0.34,-0.43,0.6
6.754606008529663,0.46,0.24,-0.57,0.77
6.768725872039795,0.61,-0.21,-0.06,0.64
6.795947074890137,0.93,-0.39,0.65,1.19
6.797336101531982,0.97,-0.37,0.76,1.28
6.798320055007935,0.34,-0.18,0.34,0.51
6.800574064254761,-0.33,0.21,-0.14,0.41
6.801939010620117,-0.37,0.56,-0.59,0.89
6.806621074676514,-0.4,0.84,-1.23,1.54
6.816693067550659,0.05,0.94,-1.46,1.73
6.826564073562622,0.85,0.88,-1.43,1.88
6.8368449211120605,1.71,1.23,-1.3,2.47
6.846531867980957,1.65,1.41,-1.12,2.44
6.880366086959839,0.99,1.85,-1.27,2.45
6.881711959838867,0.36,2.6,-1.04,2.82
6.882726192474365,-0.23,3.27,-0.29,3.29
6.90366792678833,-1.25,4.24,0.33,4.43
6.9047300815582275,-1.51,4.1,0.04,4.36
6.91977596282959,-1.28,4.46,0.39,4.65
6.920814037322998,-1.32,3.99,0.33,4.21
6.9369659423828125,-1.23,3.74,0.22,3.94
6.938451051712036,-0.7,3.75,0.63,3.86
6.952250003814697,-0.76,3.49,0.41,3.59
6.981065988540649,-0.96,2.94,0.3,3.1
6.9829699993133545,-1.26,2.57,0.37,2.88
6.983983039855957,-1.63,2.21,0.1,2.74
7.003549098968506,-2.03,1.77,-0.16,2.69
7.004602909088135,-2.12,1.41,-0.51,2.59
7.019641876220703,-2.0,1.1,-0.97,2.48
7.0206780433654785,-1.89,0.76,-1.4,2.47
7.036699056625366,-1.25,0.45,-1.46,1.97
7.038154125213623,-0.18,0.07,-1.59,1.6
7.052188873291016,1.19,1.06,-2.16,2.68
7.054901123046875,3.21,3.13,-2.16,4.97
7.097400188446045,3.96,3.96,-2.15,5.99
7.098560094833374,1.32,1.51,-2.76,3.41
7.099535942077637,-1.17,-0.7,-2.87,3.17
7.120791912078857,-3.32,-2.95,-3.32,5.54
7.122277021408081,-4.97,-3.45,-3.69,7.08
7.136682987213135,-1.72,-2.31,-2.58,3.86
7.138142108917236,-2.12,-3.01,-2.66,4.54
7.153450965881348,-5.54,-2.67,-3.68,7.16
7.154860973358154,-8.09,-2.19,-4.25,9.39
7.16994309425354,-8.06,-1.94,-3.7,9.07
7.198398113250732,-6.51,-1.97,-2.84,7.37
7.199726104736328,-5.04,-2.06,-2.56,6.01
7.200721979141235,-4.33,-1.97,-2.67,5.45
7.220212936401367,-4.15,-1.55,-2.86,5.27
7.221246004104614,-4.17,-0.86,-2.78,5.08
7.236882209777832,-4.01,-0.37,-2.38,4.67
7.238348007202148,-3.53,-0.28,-1.95,4.04
7.253414154052734,-3.1,-0.28,-1.52,3.46
7.254763126373291,-3.05,-0.19,-1.0,3.21
7.268815040588379,-3.55,-0.08,-0.47,3.58
7.297899007797241,-4.09,0.13,-0.01,4.09
7.299280166625977,-4.03,0.29,0.43,4.06
7.300249099731445,-3.45,0.33,0.72,3.53
7.320217132568359,-2.67,0.35,0.87,2.82
7.321255207061768,-2.06,0.56,0.91,2.32
7.336740970611572,-1.71,0.87,0.83,2.09
7.338202953338623,-1.53,1.1,0.71,2.01
7.3534650802612305,-1.34,1.16,0.71,1.9
7.354834079742432,-0.94,1.3,0.86,1.82
7.3695900440216064,-0.32,1.42,0.96,1.74
7.397079944610596,0.22,1.56,0.98,1.85
7.398442029953003,0.59,1.84,1.08,2.21
7.3994410037994385,0.68,1.96,1.11,2.35
7.42051887512207,0.65,2.16,1.07,2.49
7.421504974365234,0.83,2.4,1.07,2.75
7.436505079269409,1.28,2.37,1.24,2.96
7.4379730224609375,1.74,1.97,1.51,3.03
7.45354700088501,1.96,1.67,1.72,3.09
7.454946041107178,1.99,1.62,1.94,3.21
7.46921706199646,2.12,1.73,2.19,3.5
7.497344970703125,2.63,1.61,2.45,3.93
7.499222040176392,3.2,1.17,2.57,4.26
7.50021505355835,3.46,0.78,2.64,4.42
7.5205559730529785,3.57,0.49,2.69,4.49
7.521586894989014,3.79,0.3,2.78,4.7
7.537036895751953,4.26,0.16,2.98,5.2
7.5384979248046875,5.06,-0.24,3.23,6.0
7.553714036941528,5.83,-0.97,3.34,6.78
7.55521297454834,6.31,-1.71,3.24,7.29
7.569283962249756,6.57,-2.11,3.12,7.57
7.597388029098511,6.81,-2.29,2.99,7.78
7.59865403175354,6.94,-2.34,2.85,7.85
7.599669933319092,6.85,-2.42,2.73,7.76
7.620599985122681,6.55,-2.6,2.6,7.51
7.62161111831665,6.06,-2.63,2.38,7.02
7.637127876281738,5.43,-2.4,2.13,6.3
7.63858699798584,4.66,0.61,1.48,4.92
7.6535539627075195,7.44,2.61,1.24,7.98
7.654968976974487,14.25,3.75,2.9,15.01
7.668668031692505,13.07,2.61,4.76,14.15
7.696876049041748,3.18,1.32,5.78,6.72
7.698257923126221,-4.16,-1.57,5.14,6.79
7.6993489265441895,-5.2,-2.59,3.41,6.73
7.72055196762085,-2.06,-0.59,0.8,2.28
7.721606016159058,-0.18,2.31,-0.88,2.47
7.736221075057983,0.03,4.19,0.07,4.19
7.7376708984375,1.18,0.99,2.29,2.75
7.753740072250366,2.39,-1.66,3.48,4.53
7.755218982696533,1.85,-0.72,2.07,2.86
7.769469976425171,0.39,0.12,-0.25,0.47
7.7980241775512695,-0.2,0.13,-1.46,1.47
7.799345970153809,-0.2,0.1,-1.96,1.97
7.80023717880249,-0.35,0.1,-2.44,2.46
7.820388078689575,-0.64,0.21,-2.16,2.26
7.8214030265808105,-0.61,0.1,-0.73,0.95
7.836659908294678,0.17,-0.19,1.03,1.06
7.837709903717041,0.7,-0.22,1.37,1.55
7.853776931762695,0.34,0.03,0.73,0.8
7.855238914489746,-0.12,0.21,0.72,0.75
7.869288921356201,-0.55,0.13,1.23,1.35
7.870739936828613,-0.77,0.4,1.22,1.49
7.914550065994263,-0.74,0.41,0.14,0.85
7.91570520401001,-0.35,0.35,-0.88,1.0
7.9166741371154785,0.15,0.19,-1.09,1.11
7.938104152679443,0.55,0.19,-0.87,1.04
7.939443111419678,1.1,-0.03,-0.71,1.3
7.953942060470581,1.25,0.01,-0.41,1.31
7.955406188964844,0.89,0.24,-0.12,0.92
7.970621109008789,0.5,0.14,0.04,0.52
7.972056865692139,0.29,0.02,0.2,0.35
7.985749006271362,0.32,0.09,0.19,0.38
8.015675067901611,0.33,0.09,0.01,0.34
8.017527103424072,0.12,0.16,-0.11,0.22
8.018548011779785,-0.07,0.15,-0.09,0.18
8.037743091583252,-0.21,0.04,0.0,0.21
8.03920316696167,-0.36,0.05,0.06,0.36
8.053833961486816,-0.51,0.02,0.26,0.57
8.055254936218262,-0.71,0.02,0.36,0.79
8.070512056350708,-0.84,0.09,0.1,0.85
8.071938037872314,-0.85,0.08,0.01,0.85
8.085056066513062,-0.8,0.06,0.13,0.81
8.113588094711304,-0.79,0.05,-0.17,0.8
8.115020990371704,-0.86,0.09,-0.64,1.07
8.116025924682617,-0.66,0.18,-0.73,1.0
8.118098020553589,-0.26,0.21,-0.43,0.54
8.11939811706543,0.1,0.18,-0.07,0.21
8.120779991149902,0.24,0.1,0.0,0.26
8.126399993896484,0.13,0.0,-0.06,0.14
8.136759042739868,-0.07,-0.04,-0.07,0.1
8.146503925323486,-0.33,0.02,-0.12,0.35
8.156918048858643,-0.57,0.17,-0.08,0.6
8.186738967895508,-0.56,0.22,-0.03,0.6
8.187947034835815,-0.41,0.15,0.15,0.46
8.188969135284424,-0.46,0.15,0.01,0.48
8.203021049499512,-0.69,0.24,-0.3,0.78
8.206009864807129,-0.94,0.32,-0.67,1.19
8.21925401687622,-1.04,0.46,-0.93,1.46
8.22615909576416,-1.11,0.54,-1.04,1.61
8.237588882446289,-1.39,0.42,-1.05,1.79
8.246119976043701,-1.79,0.34,-0.91,2.03
8.256047010421753,-2.32,0.36,-0.73,2.45
8.293135166168213,-2.7,0.43,-0.87,2.86
8.294617176055908,-2.32,0.36,-0.74,2.46
8.295641899108887,-1.47,0.12,-0.16,1.48
8.303250074386597,-0.17,0.24,0.22,0.36
8.305272102355957,1.0,0.01,0.16,1.01
8.320389032363892,1.67,-0.64,0.07,1.78
8.325046062469482,2.12,-0.96,0.22,2.33
8.337362051010132,2.11,-1.05,0.19,2.36
8.345316886901855,1.48,-0.84,-0.04,1.7
8.355329036712646,0.63,-0.42,-0.34,0.83
8.392159938812256,0.25,-0.24,-0.39,0.52
8.393575191497803,0.22,-0.4,-0.04,0.45
8.394613027572632,0.31,-0.63,0.67,0.97
8.40436315536499,-0.06,-0.57,0.89,1.05
8.40542221069336,-1.05,-0.08,0.53,1.17
8.420327186584473,-0.9,0.78,0.33,1.23
8.424694061279297,-0.3,1.27,0.01,1.3
8.435750961303711,0.28,1.12,-0.54,1.27
8.444607019424438,1.29,0.97,-0.38,1.65
8.454393863677979,1.26,0.92,-0.25,1.58
8.491811037063599,0.46,1.49,0.15,1.56
8.493169069290161,-0.41,2.09,0.56,2.2
8.494199991226196,-1.02,3.22,0.11,3.37
8.504451036453247,-0.69,3.97,-0.98,4.14
8.505524158477783,-0.4,4.36,-1.77,4.72
8.520832061767578,0.05,3.75,-1.32,3.97
8.523890018463135,0.07,3.33,-1.04,3.48
8.537384033203125,-0.26,3.18,-0.45,3.22
8.543892860412598,-0.26,2.82,0.52,2.87
8.553757190704346,-0.66,2.58,1.04,2.85
8.582836151123047,-1.4,2.49,1.22,3.1
8.583795070648193,-1.62,2.48,1.58,3.35
8.584578037261963,-1.19,2.38,1.53,3.06
8.600874900817871,-0.96,2.25,1.0,2.64
8.602894067764282,-1.12,1.8,0.11,2.12
8.6211838722229,-1.29,1.28,-0.55,1.89
8.62308120727539,-1.27,0.93,-1.24,2.0
8.637373924255371,-0.6,1.03,-1.9,2.24
8.642904996871948,0.59,0.92,-2.05,2.32
8.653045177459717,1.6,-0.06,-2.63,3.07
8.666337013244629,2.13,-0.72,-3.22,3.92
8.697520017623901,2.47,0.07,-2.9,3.8
8.698730945587158,3.91,2.14,-1.95,4.86
8.699748039245605,4.03,2.67,-1.87,5.18
8.721376895904541,1.27,0.42,-2.97,3.25
8.722879886627197,-0.85,-1.04,-3.61,3.85
8.737637042999268,-3.09,-2.6,-4.18,5.81
8.739119052886963,-5.33,-2.59,-4.13,7.22
8.754225015640259,-3.99,-0.85,-2.71,4.89
8.755640983581543,-3.63,-1.42,-2.71,4.74
8.769761085510254,-5.62,-1.62,-3.91,7.03
8.79996919631958,-6.58,-1.48,-4.76,8.25
8.801379203796387,-5.29,-1.15,-4.73,7.18
8.80239486694336,-3.39,-0.98,-4.44,5.67
8.821120977401733,-2.63,-0.84,-4.06,4.9
8.82216215133667,-2.71,-0.52,-3.81,4.7
8.837761878967285,-3.0,0.07,-3.49,4.6
8.839242935180664,-3.44,0.54,-2.85,4.49
8.854318141937256,-4.08,0.62,-1.96,4.56
8.855817079544067,-4.67,0.59,-1.01,4.81
8.869505882263184,-4.99,0.52,-0.19,5.02
8.900270938873291,-5.05,0.5,0.43,5.09
8.901612043380737,-4.92,0.41,0.87,5.01
8.902682065963745,-4.45,0.21,1.22,4.61
8.921112060546875,-3.69,-0.33,1.47,3.98
8.9221510887146,-3.14,-0.8,1.57,3.6
8.9374520778656,-3.07,-0.81,1.52,3.52
8.938931941986084,-3.23,-0.8,1.57,3.67
8.954366207122803,-3.39,-1.04,1.36,3.79
8.955744981765747,-3.21,-1.0,1.1,3.53
8.970113039016724,-2.49,-0.89,0.75,2.74
8.999143123626709,-1.78,-0.82,0.34,1.98
9.000566005706787,-1.51,-0.67,0.21,1.66
9.001512050628662,-1.29,-0.47,0.21,1.38
9.020786046981812,-0.96,-0.26,0.2,1.01
9.02180290222168,-0.68,-0.02,0.4,0.78
9.037324905395508,-0.63,0.32,0.98,1.2
9.0383460521698,-0.9,0.49,1.56,1.86
9.05424690246582,-1.14,0.82,1.76,2.25
9.055711030960083,-1.15,1.2,1.61,2.31
9.069997072219849,-1.29,1.83,1.69,2.8
9.097325086593628,-1.32,2.25,1.93,3.24
9.098731994628906,-0.99,2.0,2.05,3.03
9.099711894989014,-0.43,1.46,1.97,2.48
9.101854085922241,0.36,1.05,1.81,2.12
9.109064102172852,1.52,0.83,1.7,2.42
9.119614124298096,2.64,0.71,1.47,3.1
9.129022121429443,3.19,0.83,1.2,3.5
9.139611005783081,3.68,1.21,0.98,3.99
9.149367094039917,4.48,0.96,0.62,4.62
9.159266948699951,5.32,0.45,0.02,5.33
9.196664094924927,5.98,0.51,-0.63,6.03
9.198065042495728,6.51,0.55,-0.83,6.58
9.199047088623047,6.92,0.49,-0.39,6.94
9.201294898986816,7.28,0.52,0.0,7.29
9.208401203155518,7.62,0.53,0.0,7.63
9.218695163726807,7.68,1.23,-0.01,7.77
9.228502988815308,9.36,-1.65,-0.27,9.5
9.238790035247803,8.02,0.95,0.34,8.08
9.248524188995361,5.91,0.86,0.38,5.98
9.258501052856445,6.53,-1.35,1.25,6.78
9.295297145843506,6.31,-1.43,2.52,6.94
9.296720027923584,5.84,-1.86,2.68,6.68
9.297708988189697,5.75,-1.89,2.61,6.59
9.300456047058105,7.62,-0.28,2.96,8.17
9.320811986923218,10.39,1.18,4.07,11.22
9.321891069412231,9.54,1.64,4.46,10.65
9.337881088256836,3.07,2.12,6.01,7.07
9.339380025863647,-3.6,4.17,8.84,10.41
9.353502988815308,-5.99,4.12,10.1,12.44
9.357593059539795,-5.31,-0.09,7.21,8.95
9.397289991378784,-4.54,-1.69,1.76,5.15
9.398446083068848,-4.08,0.27,-2.9,5.01
9.399578094482422,-1.67,2.43,-3.35,4.46
9.401225090026855,2.34,1.18,-0.38,2.64
9.406960010528564,4.53,-0.69,1.85,4.94
9.417165994644165,4.04,-0.94,0.82,4.22
9.426961898803711,2.39,-0.44,-1.27,2.74
9.436884880065918,1.52,-0.16,-2.18,2.66
9.446822166442871,1.21,0.04,-1.9,2.25
9.457028865814209,0.7,0.15,-0.99,1.22
9.467062950134277,-0.13,0.2,0.22,0.32
9.497129917144775,-0.81,0.24,1.29,1.54
9.498277187347412,-1.11,0.11,1.87,2.17
9.499242067337036,-0.79,0.02,1.84,2.0
9.506195068359375,-0.34,0.08,1.14,1.19
9.51637887954712,-0.07,0.09,0.45,0.46
9.52628207206726,0.3,0.0,0.25,0.39
9.536274909973145,0.54,-0.03,0.17,0.56
9.546082019805908,0.56,-0.01,-0.05,0.56
9.556297063827515,0.49,0.15,-0.22,0.55
9.566297054290771,0.11,0.19,-0.32,0.38
9.5971999168396,-0.47,0.36,-0.48,0.76
9.598351001739502,-0.92,0.29,-0.98,1.37
9.599495887756348,-0.92,0.39,-1.2,1.56
9.605599880218506,-0.12,0.41,-0.99,1.07
9.615581035614014,0.31,0.22,-0.65,0.75
9.625627994537354,0.23,0.12,-0.54,0.59
9.6355299949646,-0.05,0.1,-0.27,0.29
9.645471096038818,-0.27,0.15,0.08,0.31
9.65558385848999,-0.43,0.24,0.25,0.55
9.665427207946777,-0.42,0.3,0.22,0.56
9.695466995239258,-0.18,0.24,0.07,0.3
9.696698188781738,-0.03,0.09,-0.24,0.25
9.697772026062012,-0.03,0.04,-0.25,0.25
9.70476508140564,0.0,0.1,-0.13,0.16
9.720919132232666,-0.04,0.07,-0.18,0.19
9.724626064300537,-0.13,0.05,-0.22,0.26
9.735350131988525,-0.21,0.02,-0.33,0.39
9.744654178619385,-0.2,-0.07,-0.4,0.45
9.754570960998535,0.01,-0.2,-0.19,0.27
9.764767169952393,0.14,-0.21,0.01,0.25
9.796956062316895,0.2,-0.15,0.15,0.29
9.798128128051758,0.23,-0.09,0.35,0.42
9.799397945404053,0.15,0.0,0.32,0.35
9.804253101348877,0.01,0.07,0.19,0.2
9.813960075378418,-0.09,0.11,0.08,0.16
9.823942184448242,-0.25,0.1,-0.02,0.27
9.83404016494751,-0.51,0.09,-0.18,0.54
9.843974113464355,-0.78,0.04,-0.13,0.79
9.85417890548706,-1.03,-0.07,0.11,1.03
9.863862991333008,-1.19,-0.09,0.39,1.25
9.902040004730225,-1.1,-0.04,0.55,1.23
9.90333104133606,-0.91,-0.03,0.54,1.05
9.904313087463379,-0.83,0.04,0.19,0.85
9.921730995178223,-0.91,0.15,-0.15,0.93
9.922738075256348,-0.93,0.27,-0.2,0.98
9.937292098999023,-0.54,0.47,-0.21,0.74
9.93834400177002,-0.18,0.42,-0.27,0.53
9.954454898834229,-0.22,0.32,-0.77,0.86
9.955957889556885,0.11,0.24,-0.66,0.71
9.970293045043945,0.4,-0.04,-0.35,0.53
10.001115083694458,0.39,-0.14,-0.43,0.59
10.002519130706787,0.41,-0.26,-0.31,0.57
10.00351619720459,0.38,-0.26,0.03,0.46
10.021813869476318,0.06,-0.18,0.02,0.19
10.022849082946777,-0.24,0.01,-0.2,0.31
10.037848949432373,-0.52,0.23,-0.34,0.66
10.039358139038086,-0.85,0.3,-0.67,1.12
10.054780006408691,-1.06,0.37,-0.86,1.41
10.056249141693115,-1.0,0.5,-0.73,1.33
10.070242881774902,-0.96,0.24,-0.49,1.1
10.098092079162598,-1.25,0.14,-0.36,1.3
10.099347114562988,-1.5,0.12,-0.56,1.6
10.100293159484863,-0.59,0.47,-0.14,0.76
10.122781991958618,0.46,0.35,-0.09,0.58
10.12380313873291,1.63,-0.03,-0.47,1.69
10.138293027877808,2.16,-0.21,-0.65,2.26
10.13974404335022,2.39,-0.06,-0.7,2.49
10.155034065246582,2.12,0.54,-0.81,2.33
10.156529903411865,1.39,1.46,-0.84,2.18
10.170538902282715,0.44,2.19,-0.73,2.35
10.200129985809326,-0.44,2.52,-0.29,2.57
10.201503992080688,-1.38,2.58,0.09,2.92
10.20249319076538,-1.96,3.54,0.4,4.06
10.221472024917603,-2.09,3.45,-0.71,4.09
10.222501993179321,-1.93,3.77,-0.84,4.31
10.238190174102783,-1.68,3.49,-0.82,3.95
10.239711999893188,-1.82,3.3,-1.32,3.99
10.254837989807129,-1.59,2.93,-1.1,3.51
10.256314039230347,-1.5,2.53,-0.97,3.09
10.270494937896729,-1.33,2.06,-0.61,2.52
10.271961212158203,-0.87,1.68,0.3,1.91
10.31493091583252,-0.77,1.62,0.75,1.94
10.31610918045044,-1.19,1.71,0.61,2.17
10.317100048065186,-1.7,1.63,0.37,2.38
10.339426040649414,-1.88,1.35,0.02,2.31
10.340856075286865,-1.89,1.09,-0.31,2.2
10.355087041854858,-1.67,0.73,-0.63,1.92
10.356564044952393,-0.93,0.47,-0.71,1.26
10.371922969818115,-0.43,0.15,-1.01,1.1
10.373370170593262,0.04,0.45,-1.58,1.64
10.387109994888306,0.83,0.84,-1.82,2.16
10.417002201080322,2.21,1.04,-1.42,2.82
10.418451070785522,4.32,2.06,-0.81,4.85
10.419488906860352,4.18,3.03,-1.14,5.28
10.438691139221191,1.81,1.7,-1.47,2.88
10.439732074737549,0.44,0.27,-1.35,1.44
10.455059051513672,-0.11,-0.9,-1.37,1.64
10.456501960754395,-0.72,-1.62,-1.48,2.3
10.47176218032837,-2.37,-2.86,-1.85,4.14
10.473283052444458,-3.61,-2.97,-1.68,4.96
10.487235069274902,-2.04,-1.07,-0.55,2.36
10.517650127410889,-3.02,-1.74,-1.02,3.63
10.51899003982544,-5.47,-2.4,-2.29,6.39
10.52000617980957,-7.09,-2.09,-2.7,7.86
10.538350105285645,-6.64,-1.9,-2.37,7.3
10.539375066757202,-4.84,-2.09,-2.01,5.64
10.554992198944092,-3.22,-2.38,-1.87,4.41
10.556459903717041,-2.48,-2.08,-1.85,3.72
10.571767091751099,-2.31,-1.31,-1.86,3.24
10.57323694229126,-2.38,-0.62,-1.8,3.04
10.587262153625488,-2.55,-0.21,-1.62,3.02
10.617671012878418,-2.69,-0.03,-1.42,3.04
10.618993997573853,-2.77,0.18,-1.28,3.05
10.619976043701172,-2.9,0.5,-1.2,3.17
10.638607025146484,-3.16,0.8,-1.12,3.44
10.639694213867188,-3.51,1.07,-1.03,3.81
10.65500020980835,-3.56,1.35,-0.99,3.93
10.656487941741943,-3.18,1.55,-1.03,3.68
10.67187786102295,-2.69,1.5,-1.06,3.25
10.673285961151123,-2.31,1.42,-1.08,2.91
10.687294960021973,-2.0,1.15,-1.0,2.51
10.715010166168213,-1.72,0.73,-0.66,1.98
10.716386079788208,-1.47,0.28,-0.25,1.51
10.717369079589844,-1.28,-0.02,0.07,1.28
10.738555908203125,-0.99,-0.13,0.34,1.05
10.739611148834229,-0.7,-0.18,0.46,0.85
10.754001140594482,-0.67,-0.21,0.56,0.89
10.755474090576172,-0.71,-0.34,0.73,1.07
10.77192211151123,-0.56,-0.51,1.02,1.27
10.773396015167236,0.04,-0.59,1.51,1.62
10.787245988845825,0.78,-0.71,2.01,2.26
10.816679000854492,1.34,-0.88,2.57,3.02
10.818010091781616,1.63,-0.91,3.0,3.53
10.819072008132935,1.75,-0.65,3.28,3.77
10.838680982589722,1.83,-0.26,3.26,3.74
10.839684963226318,2.22,0.17,3.0,3.73
10.855104923248291,3.0,0.61,2.79,4.14
10.856567859649658,3.85,0.86,2.54,4.69
10.872077941894531,4.35,0.96,2.13,4.93
10.873549938201904,4.47,1.34,1.93,5.04
10.887014865875244,4.57,1.59,2.05,5.25
10.915482997894287,4.74,1.62,2.18,5.46
10.91685700416565,5.02,1.54,2.14,5.67
10.917855978012085,4.67,2.42,2.01,5.63
10.938719034194946,3.08,5.3,2.22,6.51
10.939765930175781,5.18,1.34,2.62,5.95
10.954915046691895,7.75,0.73,4.07,8.78
10.955933094024658,8.17,1.39,4.13,9.25
10.971904039382935,7.45,1.61,3.53,8.39
10.973358154296875,8.31,0.85,3.4,9.01
10.98701810836792,8.39,-0.64,3.2,9.0
11.015475034713745,6.14,-0.59,2.49,6.65
11.016813039779663,4.25,-0.23,2.79,5.08
11.017775058746338,3.88,-0.93,3.68,5.42
11.037888050079346,2.75,-3.17,4.09,5.85
11.03888201713562,0.77,-2.96,4.69,5.59
11.052855014801025,1.46,-1.88,5.91,6.37
11.053851127624512,2.19,-1.42,5.26,5.87
11.068453073501587,1.15,-0.56,2.2,2.54
11.069857120513916,-0.27,1.06,-0.44,1.17
11.086050033569336,-1.09,2.56,-1.33,3.08
11.08751916885376,-1.31,3.32,-0.46,3.59
11.136805057525635,-1.06,2.8,0.82,3.1
11.137999057769775,-0.16,0.66,1.11,1.3
11.138992071151733,0.64,-0.52,0.65,1.05
11.155602931976318,0.64,-0.36,-0.35,0.81
11.156852006912231,0.07,-0.25,-0.85,0.88
11.171801090240479,-0.09,-0.17,-0.31,0.36
11.173242092132568,-0.49,-0.08,0.23,0.54
11.188376903533936,-0.46,0.01,-0.08,0.46
11.189851999282837,-0.21,-0.03,-0.52,0.56
11.203782081604004,0.03,0.31,-0.54,0.62
11.235019207000732,-0.18,0.62,-0.46,0.79
11.23633599281311,-0.76,0.57,-0.52,1.08
11.237335205078125,-0.87,0.49,-0.43,1.08
11.255681991577148,-0.72,0.29,-0.4,0.87
11.257153034210205,-0.35,0.18,-0.73,0.82
11.271980047225952,0.04,0.12,-0.81,0.81
11.273449897766113,0.13,0.14,-0.71,0.73
11.288434028625488,0.29,0.1,-0.55,0.62
11.289921998977661,0.33,0.21,-0.26,0.46
11.304072856903076,0.3,0.23,-0.16,0.41
11.3354811668396,0.3,0.14,0.07,0.33
11.336875915527344,0.22,0.11,0.13,0.27
11.33787202835083,0.31,0.1,0.07,0.33
11.355833053588867,0.43,0.06,0.15,0.45
11.357331037521362,0.4,-0.01,0.11,0.41
11.371949195861816,0.38,-0.06,0.13,0.4
11.373456954956055,0.42,-0.1,0.29,0.52
11.38854694366455,0.5,-0.17,0.46,0.7
11.39004898071289,0.68,-0.26,0.64,0.96
11.4043550491333,0.93,-0.36,0.77,1.25
11.433647155761719,0.83,-0.35,0.77,1.18
11.434866905212402,0.42,-0.16,0.44,0.62
11.435884952545166,0.0,-0.02,0.19,0.19
11.455897092819214,-0.19,0.03,0.15,0.24
11.45738410949707,-0.12,-0.01,0.09,0.15
11.472156047821045,0.01,-0.08,0.08,0.11
11.473608016967773,0.04,-0.04,0.23,0.23
11.489007949829102,0.26,-0.02,0.19,0.32
11.490458011627197,0.3,0.05,0.16,0.34
11.504148006439209,-0.08,0.16,0.03,0.18
11.534756183624268,-0.57,0.21,-0.15,0.62
11.536054134368896,-0.85,0.21,-0.2,0.89
11.537016868591309,-1.01,0.28,-0.17,1.06
11.556066036224365,-1.22,0.36,-0.19,1.28
11.557540893554688,-1.16,0.45,-0.14,1.25
11.572184085845947,-0.92,0.43,-0.28,1.05
11.573755979537964,-0.81,0.32,-0.63,1.07
11.58886194229126,-0.63,0.19,-0.74,0.99
11.590354919433594,-0.58,0.14,-0.78,0.98
11.604248046875,-0.59,0.09,-0.86,1.04
11.634974956512451,-0.47,0.0,-0.7,0.84
11.636281967163086,-0.18,-0.02,-0.24,0.3
11.637250900268555,-0.18,-0.01,0.16,0.24
11.655700206756592,-0.35,0.03,0.12,0.37
11.65712308883667,-0.43,0.11,0.0,0.44
11.671984195709229,-0.56,0.19,0.02,0.59
11.673471927642822,-0.44,0.14,-0.1,0.47
11.688807010650635,-0.43,0.09,-0.36,0.56
11.690285205841064,-0.73,0.17,-0.48,0.89
11.703105926513672,-0.98,0.24,-0.75,1.25
11.73261308670044,-0.82,0.41,-0.89,1.27
11.733924865722656,-0.57,0.38,-0.82,1.06
11.734939098358154,-0.36,0.12,-0.64,0.74
11.755661010742188,-0.47,-0.12,-0.37,0.61
11.75670599937439,-0.58,-0.18,-0.12,0.61
11.77217698097229,-0.06,0.07,0.24,0.25
11.773630142211914,0.45,0.42,0.43,0.75
11.788744926452637,0.39,0.28,0.36,0.6
11.790234088897705,0.18,0.25,-0.11,0.32
11.804367065429688,0.15,0.26,-0.63,0.69
11.834897994995117,0.26,0.31,-0.85,0.94
11.83619499206543,0.32,0.5,-1.3,1.42
11.837217092514038,0.38,0.62,-1.26,1.45
11.85614800453186,0.48,0.72,-0.95,1.28
11.857676982879639,0.36,0.8,-0.44,0.98
11.87233304977417,0.58,0.95,-0.17,1.12
11.873808860778809,0.64,1.45,-0.07,1.58
11.888938903808594,0.25,1.65,0.62,1.78
11.890429973602295,-0.31,2.06,0.32,2.1
11.904064178466797,-0.28,2.42,-0.4,2.46
11.905487060546875,-0.54,2.5,-0.4,2.58
11.951348066329956,-0.56,2.36,0.01,2.42
11.952486038208008,-0.55,2.17,-0.19,2.24
11.953500986099243,-0.66,2.24,-0.21,2.34
11.97266697883606,-0.83,2.25,-0.3,2.41
11.973713874816895,-0.95,2.27,-0.52,2.51
11.98862600326538,-1.14,2.31,-0.57,2.63
11.99010705947876,-1.4,2.34,-0.74,2.82
12.005832195281982,-1.57,2.22,-1.13,2.94
12.007319927215576,-1.64,2.11,-1.39,3.01
12.021053075790405,-1.79,1.98,-1.45,3.03
12.051937103271484,-1.95,1.66,-1.65,3.04
12.053308963775635,-1.55,1.55,-1.98,2.95
12.054311990737915,-0.97,1.63,-2.03,2.77
12.072484970092773,-0.38,1.7,-1.96,2.62
12.073517084121704,-0.1,1.46,-2.12,2.57
12.089716911315918,0.31,1.01,-2.14,2.38
12.091186046600342,1.16,1.13,-1.97,2.55
12.106056213378906,3.08,2.78,-2.23,4.71
12.107517004013062,3.09,3.16,-2.66,5.15
12.121281147003174,1.57,1.84,-2.79,3.69
12.15233302116394,-0.6,-0.49,-3.37,3.45
12.15359115600586,-3.88,-4.05,-3.31,6.51
12.154601097106934,-3.48,-3.13,-1.49,4.91
12.173295021057129,-2.92,-1.54,-0.67,3.36
12.174782991409302,-5.18,-2.52,-1.86,6.05
12.188764095306396,-7.72,-2.66,-2.93,8.67
12.190211057662964,-8.19,-2.22,-3.02,9.0
12.205777168273926,-6.46,-2.03,-2.48,7.21
12.207233905792236,-4.27,-2.11,-2.21,5.25
12.221168994903564,-2.82,-2.0,-2.06,4.02
12.252138137817383,-2.03,-1.48,-1.87,3.13
12.253445148468018,-1.78,-0.89,-1.66,2.59
12.25446891784668,-2.0,-0.64,-1.5,2.58
12.272656917572021,-2.51,-0.57,-1.22,2.84
12.273734092712402,-2.86,-0.36,-0.63,2.95
12.288805961608887,-2.85,0.01,0.01,2.85
12.290235042572021,-2.65,0.22,0.3,2.67
12.305937051773071,-2.49,0.27,0.22,2.51
12.30737018585205,-2.41,0.36,0.14,2.44
12.320308208465576,-2.3,0.49,0.24,2.36
12.349320888519287,-2.11,0.83,0.66,2.36
12.35057020187378,-2.1,1.19,0.99,2.6
12.351583003997803,-2.0,1.45,1.05,2.68
12.372780084609985,-1.74,1.55,0.99,2.53
12.373848915100098,-1.53,1.48,0.93,2.32
12.389144897460938,-1.19,1.39,0.92,2.04
12.390624046325684,-0.65,1.44,0.96,1.84
12.405829906463623,-0.22,1.41,1.04,1.76
12.407289981842041,-0.1,1.39,1.03,1.73
12.421556949615479,-0.21,1.44,0.89,1.7
12.452744007110596,-0.28,1.45,0.86,1.7
12.453947067260742,-0.12,1.42,0.98,1.72
12.454981088638306,0.15,1.03,1.16,1.55
12.472926139831543,0.12,0.54,1.35,1.45
12.473949909210205,-0.22,0.38,1.52,1.58
12.489089965820312,-0.47,0.42,1.74,1.85
12.49046802520752,-0.39,0.38,2.02,2.09
12.505521059036255,-0.15,0.23,2.31,2.32
12.506991863250732,0.16,-0.01,2.48,2.48
12.521342039108276,0.68,-0.14,2.39,2.48
12.550947189331055,1.46,-0.26,2.1,2.57
12.552359104156494,2.26,-0.38,1.83,2.93
12.553378105163574,3.08,-0.44,1.76,3.57
12.572838068008423,3.87,-0.68,1.81,4.32
12.573870182037354,4.35,-0.93,1.89,4.83
12.588687896728516,4.42,-0.93,2.07,4.96
12.590052127838135,4.52,-0.68,2.3,5.11
12.605947017669678,5.02,-0.79,2.33,5.59
12.607460021972656,5.5,-1.17,2.21,6.04
12.621327877044678,5.74,-1.44,2.17,6.3
12.650504112243652,5.77,-1.44,2.31,6.37
12.652127027511597,5.67,-1.24,2.5,6.31
12.653141021728516,5.54,-1.09,2.61,6.22
12.67281198501587,5.28,-0.99,2.67,5.99
12.674180030822754,4.86,-0.92,2.81,5.68
12.68897008895874,4.49,-0.86,3.04,5.49
12.690424919128418,4.34,-0.93,3.06,5.39
12.705965995788574,4.0,0.98,2.6,4.87
12.707426071166992,4.02,1.41,1.75,4.6
12.721463203430176,6.18,1.3,1.92,6.6
12.722882986068726,10.49,2.79,3.89,11.53
12.773258209228516,11.03,3.46,5.0,12.59
12.774457931518555,3.84,1.79,3.83,5.71
12.775460004806519,-3.09,-0.44,2.8,4.19
12.789860010147095,-5.52,-2.09,0.64,5.93
12.790919065475464,-4.47,-0.9,-1.47,4.79
12.804172992706299,-2.87,0.78,-1.64,3.39
12.805655002593994,-1.1,1.84,0.44,2.18
12.822596073150635,0.87,1.2,2.53,2.93
12.824077129364014,2.2,-0.39,3.06,3.78
12.838294982910156,2.68,-0.67,2.5,3.72
12.867459058761597,2.31,-0.22,1.36,2.68
12.868826866149902,1.48,-0.3,0.28,1.53
12.869843006134033,1.0,-0.67,-0.25,1.22
12.889432907104492,1.06,-0.53,-0.32,1.22
12.890396118164062,1.19,0.24,0.11,1.21
12.906059980392456,0.78,0.77,0.55,1.22
12.907540082931519,0.18,0.42,0.53,0.69
12.922508001327515,-0.16,-0.07,0.18,0.25
12.923969984054565,-0.32,-0.04,-0.12,0.34
12.938140869140625,-0.52,0.2,-0.19,0.58
12.96625304222107,-0.55,0.29,-0.13,0.63
12.967578887939453,-0.63,0.04,-0.06,0.63
12.968469142913818,-0.41,0.18,0.14,0.46
12.989882946014404,-0.12,0.28,0.18,0.35
12.990894079208374,0.12,0.23,0.06,0.26
13.005415916442871,0.29,0.29,-0.05,0.41
13.006448984146118,-0.15,0.24,-0.37,0.46
13.022666931152344,-0.59,0.36,-0.59,0.9
13.024142026901245,-0.61,0.3,-0.57,0.88
13.038264989852905,-0.41,0.19,-0.79,0.91
13.065519094467163,-0.16,0.1,-0.75,0.77
13.067065000534058,0.28,0.05,-0.54,0.61
13.068035125732422,0.33,0.08,-0.24,0.41
13.069591999053955,0.12,0.08,0.09,0.17
13.07082986831665,0.03,0.04,0.32,0.32
13.07223892211914,-0.06,0.07,0.26,0.27
13.073582172393799,0.19,0.04,0.26,0.32
13.074624061584473,0.61,-0.09,0.49,0.78
13.07634687423706,0.71,-0.09,0.5,0.87
13.07912802696228,0.6,-0.05,0.28,0.66
13.110038042068481,0.45,-0.06,0.19,0.49
13.111112117767334,0.3,-0.02,0.32,0.43
13.11190414428711,0.33,0.0,0.33,0.46
13.119812965393066,0.32,-0.02,0.26,0.41
13.128982067108154,0.09,0.03,0.19,0.21
13.1388840675354,-0.04,0.09,0.15,0.17
13.149120092391968,-0.16,0.13,0.11,0.23
13.158793926239014,-0.41,0.17,0.06,0.44
13.168901920318604,-0.6,0.27,-0.03,0.65
13.178747177124023,-0.45,0.25,0.01,0.51
13.212020874023438,-0.17,0.08,0.16,0.24
13.213334083557129,-0.21,0.02,0.09,0.22
13.21431016921997,-0.46,0.11,-0.09,0.48
13.219246864318848,-0.62,0.27,-0.41,0.79
13.228502988815308,-0.83,0.35,-0.69,1.13
13.23921799659729,-0.94,0.36,-0.86,1.32
13.2483491897583,-0.92,0.28,-0.71,1.19
13.258249998092651,-0.66,0.15,-0.19,0.7
13.268153190612793,-0.37,0.07,0.05,0.37
13.278032064437866,-0.44,0.11,0.1,0.46
13.315081119537354,-0.62,0.22,-0.15,0.67
13.316397190093994,-0.81,0.3,-0.36,0.93
13.317368984222412,-0.83,0.38,-0.44,1.01
13.319630146026611,-0.61,0.37,-0.61,0.93
13.327517986297607,-0.42,0.26,-0.96,1.07
13.337699890136719,-0.44,0.17,-0.92,1.03
13.347543001174927,-0.44,0.13,-0.59,0.74
13.357599020004272,-0.4,0.1,-0.28,0.49
13.367682933807373,-0.24,-0.05,0.05,0.25
13.377509117126465,0.01,-0.15,0.46,0.48
13.41389513015747,0.14,-0.15,0.59,0.62
13.41521406173706,0.17,-0.16,0.36,0.42
13.416210174560547,-0.01,-0.18,0.08,0.19
13.419629096984863,-0.21,-0.21,0.0,0.29
13.439162015914917,-0.51,-0.23,0.17,0.58
13.440187931060791,-1.05,-0.2,0.06,1.07
13.456032037734985,-1.1,-0.06,-0.08,1.1
13.45750617980957,-0.68,0.11,0.06,0.69
13.471735954284668,-0.52,0.22,-0.27,0.62
13.476654052734375,-0.39,0.39,-0.44,0.7
13.487618923187256,0.02,0.38,-0.36,0.52
13.519382953643799,0.27,0.26,-0.58,0.69
13.520659923553467,0.33,0.26,-0.96,1.04
13.521615028381348,0.56,-0.05,-0.78,0.96
13.540345191955566,0.71,-0.53,-0.43,0.98
13.541388034820557,0.57,-0.61,-0.11,0.84
13.55617904663086,0.11,-0.47,0.13,0.49
13.5576171875,-0.28,-0.36,0.55,0.71
13.57333517074585,-0.38,-0.15,0.78,0.88
13.57585620880127,0.17,0.22,0.69,0.74
13.588456153869629,0.77,0.55,0.24,0.97
13.619752883911133,0.94,0.57,-0.2,1.11
13.621119022369385,0.73,0.8,-0.65,1.26
13.622148036956787,0.51,1.26,-0.93,1.64
13.640007019042969,0.1,2.31,-0.94,2.49
13.64107608795166,-0.47,2.75,-0.42,2.82
13.656193017959595,-1.24,3.46,-0.26,3.68
13.657612085342407,-1.61,4.12,-1.01,4.53
13.673534870147705,-1.46,4.89,-1.36,5.28
13.675005912780762,-0.75,4.5,-0.85,4.64
13.687981128692627,-0.49,4.65,-0.86,4.75
13.718157052993774,-0.45,4.63,-0.54,4.68
13.719502925872803,-0.15,3.76,0.04,3.76
13.720515012741089,0.02,3.11,0.57,3.16
13.739925861358643,-0.06,2.39,0.8,2.52
13.740962028503418,-0.32,2.12,1.07,2.39
13.755998134613037,-0.95,1.77,1.19,2.33
13.757062911987305,-1.76,1.17,1.05,2.35
13.773428916931152,-2.11,0.91,0.96,2.49
13.774911880493164,-2.22,0.64,0.28,2.32
13.788529872894287,-1.74,0.2,-0.84,1.94
13.816281080245972,-0.51,-0.25,-1.56,1.66
13.817663192749023,0.9,-0.15,-1.87,2.08
13.818629026412964,1.73,0.41,-2.18,2.81
13.82371997833252,1.96,1.55,-2.4,3.46
13.83371901512146,3.14,3.18,-1.6,4.74
13.843912124633789,3.21,2.33,-0.91,4.06
13.85395097732544,0.54,-0.84,-2.14,2.36
13.863726139068604,-1.52,-2.69,-3.44,4.62
13.873625040054321,-2.7,-3.65,-4.1,6.11
13.883564949035645,-3.66,-3.64,-4.36,6.75
13.920392990112305,-2.41,-1.92,-3.51,4.67
13.921753883361816,-1.11,-2.33,-2.84,3.83
13.922774076461792,-2.79,-2.56,-3.56,5.19
13.94033408164978,-5.19,-2.19,-4.41,7.15
13.941416025161743,-6.45,-2.06,-4.28,8.01
13.95589017868042,-6.15,-2.04,-3.56,7.39
13.956923961639404,-5.17,-2.08,-2.83,6.25
13.973499059677124,-4.4,-1.99,-2.42,5.4
13.97499704360962,-4.17,-1.62,-2.09,4.93
13.988583087921143,-4.2,-0.95,-1.84,4.68
14.01973295211792,-4.28,0.04,-1.55,4.55
14.021066188812256,-4.16,0.86,-1.28,4.43
14.022046089172363,-3.74,1.05,-0.93,3.99
14.040343999862671,-3.09,0.91,-0.54,3.26
14.041364192962646,-2.53,0.72,-0.39,2.65
14.057498931884766,-2.39,0.76,-0.32,2.52
14.058556079864502,-2.62,0.98,-0.36,2.82
14.073616027832031,-2.91,1.18,-0.5,3.17
14.075096130371094,-2.86,1.52,-0.35,3.25
14.088617086410522,-2.33,1.73,0.01,2.9
14.119410991668701,-1.61,1.62,0.04,2.28
14.120820045471191,-1.27,1.46,-0.18,1.94
14.12181806564331,-1.17,1.24,-0.26,1.72
14.140069961547852,-0.92,1.04,-0.14,1.39
14.141129970550537,-0.62,0.84,0.11,1.04
14.156673908233643,-0.48,0.69,0.29,0.88
14.158152103424072,-0.8,0.56,0.44,1.07
14.173640012741089,-1.19,0.5,0.59,1.41
14.175128936767578,-1.39,0.51,0.81,1.68
14.188791036605835,-1.49,0.56,1.09,1.92
14.219985961914062,-1.44,0.54,1.35,2.04
14.221405029296875,-0.97,0.27,1.43,1.74
14.22243595123291,-0.53,0.08,1.62,1.7
14.240262985229492,-0.37,0.12,1.86,1.9
14.241332054138184,-0.17,0.36,1.95,1.99
14.255131006240845,0.1,0.56,2.16,2.23
14.25660514831543,0.36,0.63,2.35,2.45
14.273117065429688,0.64,0.73,2.55,2.72
14.274563074111938,0.98,0.84,2.8,3.08
14.288741111755371,1.24,0.93,2.93,3.31
14.290473937988281,1.48,1.06,3.01,3.51
14.334537029266357,1.98,1.19,3.1,3.86
14.335752010345459,2.77,1.23,3.12,4.34
14.336741924285889,3.62,1.13,2.94,4.79
14.357105016708374,4.23,0.97,2.61,5.06
14.358582973480225,4.62,0.72,2.33,5.22
14.37328815460205,4.97,0.4,2.14,5.42
14.374754905700684,5.39,0.11,2.15,5.8
14.389915943145752,5.86,-0.11,2.3,6.29
14.391435146331787,6.22,-0.21,2.44,6.68
14.40560007095337,6.26,-0.21,2.48,6.73
14.43661904335022,6.03,-0.25,2.5,6.53
14.437910079956055,5.8,-0.33,2.55,6.34
14.438971996307373,5.68,-0.44,2.6,6.26
14.45697808265686,5.6,-0.38,2.48,6.13
14.45802903175354,5.05,0.85,2.06,5.51
14.473423957824707,5.3,0.64,1.89,5.66
14.474915027618408,5.92,0.46,2.38,6.39
14.489925861358643,5.83,0.53,2.92,6.54
14.491344928741455,5.26,0.24,2.85,5.98
14.505683898925781,4.88,0.09,2.76,5.6
14.534980058670044,6.35,0.23,2.82,6.95
14.536269187927246,6.45,-1.23,2.32,6.96
14.537283897399902,3.09,-1.74,1.16,3.73
14.556846141815186,-0.14,-0.66,1.06,1.25
14.557919025421143,-1.47,-1.46,0.5,2.13
14.57374906539917,-1.09,-2.45,-0.67,2.76
14.575237035751343,-0.35,-2.27,-1.6,2.79
14.590007066726685,0.6,-0.55,-1.27,1.5
14.591470003128052,1.43,1.56,0.03,2.11
14.605653047561646,0.94,3.03,1.33,3.43
14.634963989257812,0.01,2.91,2.18,3.63
14.636390209197998,-0.73,1.0,2.39,2.69
14.637462139129639,-0.97,-0.53,1.75,2.06
14.657095909118652,-0.41,-0.54,1.06,1.25
14.658121109008789,0.54,-0.42,0.93,1.15
14.67308521270752,1.5,-0.47,1.46,2.14
14.674138069152832,2.15,-0.46,2.06,3.01
14.690032005310059,2.08,-0.43,2.08,2.97
14.691542148590088,1.56,-0.31,1.34,2.07
14.705724000930786,1.0,-0.17,0.49,1.12
14.732831001281738,0.65,-0.05,0.14,0.66
14.734236001968384,0.77,0.24,0.09,0.81
14.735229015350342,0.97,0.36,-0.04,1.03
14.737502098083496,0.49,0.31,-0.69,0.9
14.739029884338379,-0.37,0.3,-1.37,1.45
14.746702194213867,-0.91,0.35,-1.29,1.61
14.756875991821289,-0.98,0.3,-0.86,1.33
14.766743183135986,-0.7,0.25,-0.52,0.9
14.77674913406372,-0.31,0.26,-0.23,0.46
14.78715205192566,-0.49,-0.09,0.02,0.49
14.820340156555176,-0.64,-0.03,0.23,0.68
14.821467876434326,-0.43,0.24,0.64,0.8
14.822350978851318,-0.35,0.1,1.08,1.13
14.840573072433472,-0.45,0.12,1.06,1.15
14.841615200042725,-0.35,0.24,0.69,0.81
14.856386184692383,-0.11,0.18,0.04,0.21
14.857367038726807,0.01,0.31,-0.9,0.95
14.873470067977905,0.3,0.34,-1.5,1.56
14.875947952270508,0.54,0.19,-1.68,1.77
14.887578010559082,0.43,0.27,-1.51,1.59
14.921571016311646,-0.09,0.26,-0.98,1.01
14.92285704612732,-0.58,0.19,-0.29,0.67
14.923861980438232,-1.0,0.21,0.4,1.09
14.940824031829834,-1.0,0.16,0.45,1.1
14.941833972930908,-0.44,0.22,0.33,0.59
14.9563570022583,-0.46,0.12,0.36,0.59
14.957284927368164,-0.74,0.1,0.04,0.74
14.973625183105469,-0.83,0.21,-0.51,0.99
14.975234985351562,-0.77,0.16,-0.82,1.13
14.988758087158203,-0.71,0.12,-0.85,1.11
15.021430969238281,-0.58,0.03,-0.6,0.83
15.022871017456055,-0.1,0.1,0.12,0.18
15.023900985717773,0.23,0.02,0.58,0.62
15.042159080505371,0.34,-0.08,0.72,0.8
15.043225049972534,0.37,0.02,0.68,0.77
15.056958198547363,0.3,0.04,0.32,0.44
15.057998180389404,0.25,-0.06,0.27,0.37
15.07389497756958,0.34,-0.1,0.23,0.42
15.07536005973816,0.47,-0.13,0.02,0.48
15.089065074920654,0.27,-0.12,-0.02,0.29
15.09446907043457,-0.24,0.02,0.06,0.24
15.134432077407837,-0.74,0.22,0.0,0.77
15.135571956634521,-1.0,0.46,-0.3,1.14
15.136558055877686,-1.15,0.56,-0.55,1.39
15.157494068145752,-1.25,0.5,-0.59,1.46
15.158483028411865,-1.35,0.31,-0.56,1.49
15.174040079116821,-1.39,0.24,-0.55,1.51
15.17549991607666,-1.25,0.19,-0.45,1.34
15.190469980239868,-0.76,0.15,-0.05,0.77
15.19192886352539,-0.27,0.1,0.23,0.36
15.206005096435547,-0.19,0.06,-0.13,0.23
15.235034942626953,-0.37,-0.05,-0.37,0.52
15.236795902252197,-0.03,-0.17,-0.2,0.26
15.237813949584961,0.43,-0.11,-0.16,0.47
15.257185935974121,0.51,-0.32,-0.25,0.65
15.25824499130249,0.57,-0.49,-0.27,0.79
15.273805141448975,0.46,-0.45,-0.15,0.66
15.275239944458008,0.04,-0.35,-0.1,0.36
15.290243148803711,-0.48,-0.15,-0.02,0.5
15.291712045669556,-0.76,0.3,0.0,0.81
15.305912017822266,-0.65,0.75,-0.08,0.99
15.335685014724731,-0.62,0.98,-0.24,1.18
15.337113857269287,-0.47,0.86,-0.6,1.14
15.33809518814087,-0.21,0.56,-0.81,1.0
15.35721492767334,-0.18,0.32,-0.72,0.8
15.358272075653076,-0.31,0.22,-0.43,0.57
15.373763084411621,-0.34,0.21,-0.17,0.43
15.375246047973633,-0.02,0.26,-0.04,0.26
15.390347957611084,0.89,0.22,0.35,0.98
15.39182996749878,1.32,0.33,0.4,1.41
15.406055927276611,1.02,0.42,0.5,1.21
15.435245990753174,0.54,1.02,0.4,1.22
15.436517000198364,0.16,2.06,0.45,2.11
15.437543869018555,0.1,2.51,0.26,2.52
15.457360982894897,0.12,2.97,-0.28,2.98
15.458420038223267,-0.04,2.83,-1.0,3.0
15.473488092422485,-0.34,2.71,-1.34,3.04
15.474791049957275,-0.49,2.71,-1.14,2.98
15.490421056747437,-0.76,2.54,-0.91,2.8
15.491854190826416,-0.82,2.23,-0.74,2.48
15.506042957305908,-1.16,2.25,-0.33,2.55
15.535706043243408,-1.67,2.36,0.02,2.89
15.537132978439331,-1.84,2.21,0.4,2.9
15.538124084472656,-1.95,2.1,0.77,2.96
15.557415008544922,-2.08,1.86,0.93,2.94
15.558434009552002,-1.99,1.74,0.79,2.75
15.574027061462402,-1.73,1.71,0.54,2.49
15.575582027435303,-1.52,1.54,0.09,2.16
15.590532064437866,-1.53,1.31,-0.49,2.07
15.591998100280762,-1.35,1.13,-1.04,2.04
15.606223106384277,-0.8,0.91,-1.41,1.85
15.634834051132202,-0.56,0.43,-1.75,1.88
15.636229038238525,-0.28,0.08,-1.89,1.91
15.63723611831665,0.33,-0.24,-2.05,2.09
15.657349109649658,0.97,0.04,-1.82,2.06
15.658356189727783,1.28,1.46,-1.65,2.54
15.6736741065979,2.52,3.17,-0.98,4.16
15.675075054168701,3.46,4.37,-0.51,5.59
15.690468072891235,1.65,2.34,-1.72,3.34
15.691930055618286,-0.21,0.1,-2.72,2.72
15.706202030181885,-1.32,-1.0,-3.43,3.8
15.735382080078125,-2.32,-1.67,-3.6,4.59
15.736726999282837,-3.11,-2.66,-3.28,5.24
15.737728118896484,-3.59,-3.82,-3.05,6.06
15.757574081420898,-2.22,-2.99,-2.92,4.73
15.758635997772217,-3.66,-2.48,-3.64,5.72
15.77404499053955,-5.81,-2.35,-4.37,7.64
15.775443077087402,-7.27,-1.82,-4.37,8.67
15.790223121643066,-7.3,-1.25,-3.88,8.36
15.791609048843384,-6.25,-1.1,-3.36,7.18
15.806532859802246,-5.43,-0.92,-3.06,6.3
15.834843158721924,-5.25,-0.25,-3.1,6.1
15.836143970489502,-5.14,0.62,-3.15,6.06
15.837176084518433,-4.8,1.21,-2.91,5.74
15.85773515701294,-4.13,1.36,-2.28,4.9
15.85880708694458,-3.23,1.16,-1.35,3.68
15.873965978622437,-2.55,0.99,-0.3,2.75
15.875434875488281,-2.48,0.88,0.39,2.66
15.889881134033203,-3.17,0.89,0.53,3.33
15.891374111175537,-3.77,0.96,0.48,3.91
15.90633487701416,-3.82,1.01,0.63,4.0
15.907783031463623,-3.39,0.83,0.9,3.6
15.950733184814453,-2.64,0.58,1.15,2.93
15.951891899108887,-1.98,0.58,1.32,2.44
15.952818870544434,-1.61,0.65,1.36,2.2
15.974287986755371,-1.43,0.5,1.31,2.0
15.975226879119873,-1.16,0.5,1.18,1.72
15.989716053009033,-0.68,0.75,1.1,1.49
15.99113416671753,0.03,0.96,1.0,1.38
16.00786590576172,0.69,1.3,0.8,1.67
16.009303092956543,1.13,1.63,0.58,2.06
16.02369213104248,1.35,1.81,0.48,2.3
16.054136991500854,1.61,1.86,0.54,2.51
16.055450916290283,2.06,1.78,0.72,2.81
16.05647897720337,2.42,1.6,0.89,3.03
16.074503898620605,2.51,1.45,1.16,3.12
16.075533866882324,2.47,1.33,1.6,3.22
16.090561866760254,2.48,1.11,2.1,3.43
16.092027187347412,2.61,0.81,2.58,3.75
16.107601165771484,2.82,0.53,3.08,4.2
16.109055995941162,2.97,0.16,3.52,4.6
16.122908115386963,3.1,-0.15,3.79,4.89
16.15201187133789,3.32,-0.36,3.99,5.2
16.15330410003662,3.69,-0.62,4.32,5.71
16.154325008392334,4.11,-1.06,4.76,6.37
16.174644947052002,4.33,-1.73,5.08,6.89
16.175703048706055,4.3,-2.4,5.12,7.1
16.19052219390869,4.34,-2.85,5.0,7.2
16.191991090774536,4.69,-3.02,4.81,7.36
16.207616090774536,6.48,-0.8,4.38,7.86
16.209010124206543,9.29,1.02,2.9,9.78
16.2230281829834,12.87,0.7,1.84,13.01
16.25255799293518,17.02,3.18,3.01,17.57
16.253895044326782,20.03,3.94,4.3,20.86
16.254955053329468,18.51,0.9,2.17,18.65
16.274476051330566,7.05,-2.04,-1.28,7.45
16.275516986846924,-4.56,-1.44,-3.62,5.99
16.2910099029541,-8.99,0.57,-3.2,9.55
16.292502880096436,-5.13,3.06,0.84,6.03
16.307388067245483,-0.82,2.48,3.15,4.09
16.308860063552856,0.94,-0.05,3.55,3.67
16.323068141937256,1.23,-0.98,3.39,3.73
16.352532863616943,0.58,-0.45,2.45,2.55
16.353854179382324,-0.28,-0.16,1.61,1.64
16.354865074157715,-0.6,-0.29,1.21,1.38
16.374656200408936,-0.16,-0.42,0.67,0.8
16.37568187713623,0.74,-0.28,-0.3,0.84
16.390937089920044,1.69,-0.08,-0.93,1.93
16.392404079437256,2.08,0.12,-0.52,2.14
16.407823085784912,1.45,0.09,-0.05,1.45
16.409241199493408,0.18,-0.13,-0.17,0.27
16.42312502861023,-0.53,-0.12,-0.03,0.54
16.45313787460327,-0.45,-0.05,0.39,0.59
16.454423904418945,-0.19,0.04,0.36,0.4
16.455440044403076,-0.04,0.14,0.24,0.28
16.47440195083618,-0.11,0.32,0.34,0.47
16.475450038909912,-0.02,0.34,0.82,0.88
16.491005897521973,0.34,0.03,1.3,1.34
16.492460012435913,0.85,-0.07,1.15,1.43
16.508057117462158,0.94,0.0,0.58,1.1
16.509531021118164,0.62,-0.02,-0.01,0.62
16.52313995361328,0.46,0.05,-0.36,0.58
16.551165103912354,0.23,0.0,-0.51,0.55
16.552551984786987,0.22,0.07,-0.76,0.79
16.55354404449463,0.33,0.11,-0.78,0.85
16.57480502128601,0.54,0.12,-0.53,0.76
16.575841903686523,0.46,0.12,-0.45,0.65
16.58997392654419,0.15,0.12,-0.55,0.58
16.591310024261475,0.01,0.25,-0.41,0.48
16.60807704925537,-0.24,0.1,-0.06,0.26
16.609507083892822,-0.3,0.17,0.19,0.39
16.623344898223877,-0.19,0.12,0.33,0.39
16.650718212127686,-0.01,0.06,0.24,0.24
16.652070999145508,0.11,0.08,0.18,0.22
16.653090953826904,0.15,0.06,0.09,0.18
16.654930114746094,0.14,0.04,-0.08,0.16
16.656280994415283,0.0,0.06,-0.17,0.18
16.657577991485596,-0.16,0.06,-0.2,0.26
16.662236213684082,-0.23,0.04,-0.23,0.32
16.67252016067505,-0.3,0.09,-0.23,0.38
16.682446002960205,-0.32,0.13,-0.27,0.43
16.692520141601562,-0.23,0.16,-0.26,0.38
16.702528953552246,-0.18,0.15,-0.19,0.3
16.72964096069336,-0.22,0.14,-0.14,0.29
16.730871200561523,-0.28,0.15,-0.07,0.32
16.732125997543335,-0.12,0.17,-0.01,0.2
16.741846084594727,0.16,0.13,0.11,0.23
16.75185203552246,0.29,0.11,0.14,0.34
16.761630058288574,0.29,0.09,0.14,0.33
16.771815061569214,0.11,0.07,0.17,0.21
16.781655073165894,-0.5,0.0,0.22,0.54
16.791574954986572,-0.94,0.05,0.37,1.01
16.801703929901123,-0.99,0.24,0.57,1.16
16.83111810684204,-1.13,0.21,0.42,1.22
16.83231210708618,-1.37,0.18,0.06,1.38
16.833561897277832,-1.53,0.27,-0.06,1.55
16.841073989868164,-1.65,0.35,-0.18,1.69
16.85101890563965,-1.57,0.42,-0.67,1.75
16.861103057861328,-1.36,0.45,-1.06,1.78
16.871017932891846,-1.26,0.34,-1.33,1.86
16.881222009658813,-1.24,0.25,-1.56,2.0
16.891022205352783,-1.29,0.2,-1.41,1.92
16.900943994522095,-1.04,0.16,-0.94,1.41
16.931361198425293,-0.51,0.16,-0.46,0.7
16.93250298500061,-0.04,0.09,-0.37,0.38
16.93371605873108,0.19,-0.01,-0.56,0.59
16.940306186676025,0.11,-0.13,-0.71,0.73
16.950378894805908,-0.09,-0.2,-0.76,0.79
16.960360050201416,-0.05,-0.11,-0.67,0.68
16.97036099433899,0.26,0.13,-0.47,0.55
16.98004388809204,0.59,0.32,-0.37,0.76
16.990304946899414,0.38,0.38,-0.59,0.79
17.000159978866577,0.26,0.12,-0.54,0.61
17.029809951782227,0.37,-0.04,-0.17,0.4
17.03097701072693,0.33,-0.14,-0.21,0.41
17.03224802017212,0.15,-0.04,-0.29,0.32
17.0417799949646,0.27,0.51,-0.24,0.62
17.04987096786499,0.35,0.88,-0.43,1.04
17.059381008148193,0.48,1.15,-0.85,1.5
17.06981086730957,0.72,1.59,-0.95,1.98
17.079516887664795,0.63,1.95,-0.49,2.1
17.089640140533447,0.09,2.65,0.07,2.65
17.099617958068848,-0.21,3.02,0.06,3.02
17.137648105621338,-0.82,3.28,-0.12,3.38
17.1389799118042,-1.33,3.53,0.04,3.77
17.139988899230957,-1.8,3.5,-0.47,3.96
17.158430099487305,-1.96,3.07,-0.63,3.69
17.159877061843872,-1.66,2.66,-0.7,3.21
17.17474102973938,-1.54,2.64,-0.79,3.15
17.176172018051147,-1.58,2.4,-0.72,2.96
17.19111704826355,-1.53,2.14,-0.41,2.66
17.192538022994995,-1.45,2.12,0.09,2.57
17.206820964813232,-1.73,2.08,0.09,2.7
17.236346006393433,-1.96,1.71,-0.21,2.6
17.237751960754395,-1.76,1.69,-0.43,2.47
17.238765001296997,-1.59,1.94,-0.71,2.6
17.258410930633545,-1.58,1.64,-1.24,2.59
17.2599139213562,-1.02,0.86,-1.59,2.07
17.27474808692932,-0.36,-0.22,-1.78,1.82
17.27622413635254,0.76,-0.16,-1.66,1.83
17.291101932525635,2.31,0.83,-2.05,3.19
17.29258394241333,4.41,3.3,-2.0,5.85
17.306915044784546,4.71,4.08,-2.6,6.75
17.337110996246338,1.92,1.82,-3.44,4.33
17.338539123535156,0.23,-0.05,-3.01,3.01
17.339545011520386,-0.43,-1.28,-2.85,3.15
17.35840892791748,-2.29,-3.13,-3.41,5.16
17.35988187789917,-3.71,-3.98,-3.46,6.44
17.374669075012207,-1.67,-2.79,-2.3,3.98
17.376150131225586,-2.99,-2.37,-2.54,4.58
17.39039421081543,-5.98,-2.1,-3.37,7.17
17.391799926757812,-7.8,-1.74,-3.22,8.61
17.403428077697754,-7.33,-1.57,-2.13,7.79
17.428417205810547,-5.7,-1.9,-1.32,6.15
17.429811000823975,-4.18,-2.25,-0.92,4.83
17.43092918395996,-3.44,-2.12,-0.66,4.09
17.439949989318848,-3.34,-1.6,-0.55,3.74
17.446819067001343,-3.57,-1.12,-0.35,3.75
17.45689606666565,-3.86,-0.82,0.08,3.94
17.467063903808594,-3.92,-0.74,0.39,4.0
17.47660207748413,-3.68,-0.66,0.41,3.76
17.486677169799805,-3.23,-0.26,0.29,3.25
17.496528148651123,-2.64,0.2,0.14,2.65
17.50722908973694,-2.22,0.53,0.02,2.28
17.545279026031494,-1.84,0.7,0.05,1.96
17.54645800590515,-1.52,0.66,0.14,1.66
17.547429084777832,-1.33,0.69,0.21,1.51
17.55676007270813,-1.16,0.89,0.1,1.46
17.557852029800415,-1.01,1.07,-0.05,1.47
17.574953079223633,-0.93,1.06,-0.21,1.42
17.576452016830444,-1.01,1.2,-0.1,1.57
17.59157705307007,-1.21,1.31,0.27,1.8
17.59569001197815,-1.45,1.27,0.38,1.96
17.606935024261475,-1.65,1.44,0.31,2.21
17.638386011123657,-1.71,1.68,0.31,2.41
17.6396541595459,-1.61,1.81,0.52,2.47
17.64069414138794,-1.42,1.75,0.8,2.39
17.65866994857788,-1.25,1.8,0.76,2.31
17.65970206260681,-0.87,1.84,0.47,2.08
17.67485499382019,-0.24,1.52,0.18,1.54
17.676312923431396,0.3,1.15,0.13,1.19
17.691330909729004,0.6,0.87,0.32,1.1
17.69487714767456,0.91,0.67,0.72,1.33
17.705435037612915,1.14,0.35,1.2,1.69
17.737076997756958,1.13,0.01,1.65,1.99
17.738297939300537,1.17,0.01,2.17,2.46
17.73930597305298,1.67,0.12,2.72,3.19
17.75884199142456,2.65,-0.11,3.21,4.16
17.759883880615234,3.57,-0.58,3.56,5.07
17.775047063827515,4.21,-0.83,3.83,5.75
17.776480197906494,4.82,-0.75,4.01,6.31
17.791495084762573,5.57,-0.74,4.12,6.96
17.79425811767578,6.3,-0.83,3.93,7.47
17.807245016098022,6.73,-0.93,3.6,7.68
17.835472106933594,6.81,-0.92,3.55,7.73
17.836875915527344,6.78,-0.78,3.64,7.73
17.837702989578247,6.78,-0.7,3.64,7.72
17.858299016952515,6.06,1.36,3.28,7.02
17.859337091445923,5.41,2.28,2.45,6.36
17.874649047851562,7.62,0.98,2.54,8.09
17.876054048538208,10.11,1.62,4.05,11.01
17.891735076904297,13.73,2.57,5.24,14.91
17.893309116363525,14.7,2.03,5.28,15.75
17.907270908355713,7.35,0.8,5.01,8.93
17.940885066986084,-1.97,-0.95,4.55,5.04
17.942270040512085,-5.87,-2.22,2.68,6.82
17.943257093429565,-4.71,-0.97,0.62,4.84
17.95899200439453,-2.31,1.26,-0.37,2.65
17.9604811668396,-0.49,2.92,0.28,2.97
17.97492218017578,1.27,2.53,1.57,3.23
17.976384162902832,2.6,-0.07,2.5,3.6
17.992863178253174,2.56,-0.91,2.12,3.44
17.994369983673096,1.53,-0.36,0.69,1.71
18.007415056228638,0.68,-0.43,-0.86,1.17
18.04122805595398,0.57,-0.32,-1.56,1.69
18.04256820678711,0.83,-0.11,-1.44,1.66
18.043554067611694,0.88,-0.01,-0.77,1.16
18.05906915664673,0.28,0.19,0.06,0.34
18.060585021972656,-0.67,0.17,0.61,0.92
18.07512903213501,-1.23,0.16,1.12,1.67
18.076601028442383,-1.05,0.35,1.38,1.76
18.091690063476562,-0.45,0.35,1.39,1.5
18.093029975891113,0.14,0.21,0.94,0.97
18.107145071029663,0.24,0.07,0.36,0.43
18.141779899597168,0.08,0.24,-0.03,0.25
18.143134117126465,-0.12,0.26,-0.44,0.52
18.144129037857056,-0.09,0.29,-0.7,0.76
18.15903091430664,0.11,0.25,-1.13,1.16
18.160027027130127,0.26,0.13,-1.27,1.3
18.17521619796753,0.02,0.1,-0.99,0.99
18.17671298980713,-0.38,0.15,-0.8,0.89
18.191744089126587,-0.4,0.11,-0.59,0.72
18.19320297241211,0.05,-0.01,-0.28,0.28
18.207401990890503,0.44,-0.04,-0.09,0.45
18.238198041915894,0.55,0.04,-0.03,0.55
18.23962116241455,0.39,0.07,-0.08,0.4
18.240572929382324,0.22,0.07,0.0,0.23
18.258535861968994,0.14,0.07,0.24,0.28
18.259541988372803,0.04,0.04,0.43,0.43
18.274522066116333,0.13,-0.01,0.52,0.53
18.275996208190918,0.38,-0.09,0.47,0.61
18.29146909713745,0.4,-0.06,0.37,0.54
18.2929470539093,0.28,-0.01,0.31,0.41
18.307339191436768,0.29,-0.09,0.22,0.37
18.310509204864502,0.32,-0.11,0.19,0.38
18.351396083831787,0.12,0.0,0.21,0.24
18.352537155151367,-0.15,0.07,0.09,0.18
18.35374116897583,-0.24,0.11,-0.07,0.27
18.355474948883057,-0.27,0.16,-0.19,0.36
18.3597149848938,-0.35,0.15,-0.45,0.58
18.369696140289307,-0.26,0.1,-0.44,0.52
18.379817962646484,-0.08,0.13,-0.28,0.31
18.389904975891113,-0.19,0.23,-0.37,0.47
18.399763107299805,-0.43,0.31,-0.52,0.74
18.4097900390625,-0.6,0.34,-0.68,0.96
18.43971300125122,-0.7,0.25,-0.73,1.04
18.44090700149536,-0.36,0.22,-0.43,0.6
18.441904067993164,0.11,0.2,-0.2,0.3
18.458889961242676,0.46,0.03,-0.21,0.5
18.459918975830078,0.75,-0.11,-0.08,0.76
18.47520112991333,0.71,-0.15,0.21,0.75
18.47911500930786,0.37,-0.16,0.4,0.56
18.489410877227783,-0.05,-0.17,0.41,0.44
18.49910306930542,-0.35,-0.06,0.42,0.55
18.508747100830078,-0.57,0.09,0.35,0.67
18.54027009010315,-0.81,0.18,0.3,0.88
18.541540145874023,-1.03,0.18,0.2,1.06
18.542481899261475,-1.1,0.16,-0.05,1.11
18.5589919090271,-0.92,0.14,-0.32,0.98
18.560049057006836,-0.75,0.13,-0.44,0.87
18.57557487487793,-0.91,0.1,-0.31,0.96
18.578224182128906,-0.96,0.17,-0.36,1.03
18.591833114624023,-1.0,0.2,-0.63,1.19
18.598266124725342,-1.27,0.21,-0.7,1.46
18.60798692703247,-1.04,0.2,-0.66,1.24
18.639266967773438,-0.73,0.08,-0.55,0.91
18.640539169311523,-0.24,0.19,-0.41,0.51
18.641569137573242,0.16,0.41,-0.57,0.72
18.658822059631348,0.34,0.54,-1.26,1.41
18.659873008728027,0.13,0.39,-2.13,2.16
18.675338983535767,-0.14,0.19,-2.26,2.27
18.67747211456299,-0.21,0.05,-1.7,1.71
18.691722869873047,-0.16,0.05,-0.61,0.63
18.69744110107422,0.03,0.11,0.35,0.36
18.707540035247803,-0.04,0.07,0.72,0.72
18.744542121887207,-0.22,0.03,0.56,0.6
18.745845079421997,0.02,-0.05,0.2,0.2
18.746800899505615,0.53,-0.16,0.05,0.55
18.758895874023438,1.06,-0.17,0.33,1.12
18.759960174560547,0.93,-0.33,0.57,1.13
18.775600910186768,0.62,-0.01,0.31,0.69
18.777099132537842,0.54,0.55,-0.18,0.79
18.7919180393219,0.48,0.45,-0.67,0.93
18.79676389694214,0.42,0.73,-1.01,1.31
18.807761192321777,1.21,1.23,-0.73,1.87
18.844341039657593,1.1,1.13,-0.52,1.66
18.846168994903564,1.28,1.41,-1.08,2.18
18.84718108177185,1.06,2.82,-1.57,3.39
18.85576820373535,-0.14,3.57,0.88,3.67
18.85681700706482,-0.97,3.09,1.94,3.77
18.875699043273926,-1.68,3.5,1.71,4.24
18.87716293334961,-2.4,3.88,2.34,5.12
18.892149925231934,-2.89,3.58,2.49,5.23
18.895899057388306,-3.14,3.64,2.13,5.25
18.907544136047363,-3.46,3.88,1.38,5.37
18.943629026412964,-3.64,3.66,0.35,5.17
18.944966077804565,-3.44,3.18,-0.95,4.78
18.94599199295044,-3.01,2.77,-2.05,4.57
18.959096908569336,-2.52,2.06,-2.9,4.35
18.960129976272583,-1.8,1.6,-3.71,4.42
18.976151943206787,-1.39,1.19,-4.24,4.61
18.9775550365448,-0.98,1.1,-4.46,4.69
18.992196083068848,-0.47,0.72,-4.23,4.31
18.995159149169922,0.14,2.06,-3.97,4.47
19.006349086761475,0.67,2.94,-4.28,5.23
19.041861057281494,2.1,3.81,-3.99,5.9
19.043211936950684,2.48,3.85,-4.42,6.36
19.04423999786377,0.6,1.83,-4.86,5.22
19.05919909477234,-0.74,0.55,-4.46,4.55
19.060236930847168,-1.99,-0.95,-4.21,4.75
19.075579166412354,-3.66,-2.69,-4.23,6.2
19.077062129974365,-3.64,-1.7,-3.2,5.13
19.091995000839233,-2.06,-1.73,-2.49,3.66
19.094522953033447,-4.03,-3.16,-3.19,6.03
19.107791900634766,-7.54,-2.58,-3.73,8.79
19.114055156707764,-9.35,-0.81,-3.01,9.85
19.151835918426514,-7.58,0.03,-2.07,7.85
19.152971982955933,-4.13,-0.68,-2.0,4.63
19.15393590927124,-2.07,-0.88,-2.54,3.39
19.156524181365967,-1.75,-0.46,-3.46,3.9
19.16358518600464,-2.4,0.3,-3.42,4.18
19.1740779876709,-2.79,0.7,-2.5,3.81
19.184030055999756,-2.48,0.28,-1.45,2.88
19.193917989730835,-2.08,-0.45,-0.83,2.28
19.20359516143799,-1.97,-0.83,-0.59,2.21
19.213615894317627,-2.13,-0.87,-0.5,2.35
19.245858192443848,-2.39,-0.91,-0.28,2.57
19.247159004211426,-2.61,-1.2,0.01,2.87
19.248127937316895,-2.73,-1.61,0.45,3.2
19.25817108154297,-2.71,-1.99,1.13,3.54
19.262956142425537,-2.59,-2.19,1.84,3.85
19.275285005569458,-2.4,-2.0,2.4,3.93
19.283169984817505,-2.22,-1.45,2.74,3.81
19.292945861816406,-2.08,-0.91,2.82,3.62
19.302901029586792,-1.92,-0.3,2.65,3.28
19.31271505355835,-1.57,0.41,2.68,3.13
19.34331202507019,-0.94,0.92,2.89,3.17
19.344613075256348,-0.18,1.28,2.98,3.24
19.34566593170166,0.47,1.73,2.84,3.35
19.359174013137817,0.98,2.03,2.47,3.34
19.362096071243286,1.33,2.03,2.12,3.22
19.372206211090088,1.74,1.93,1.89,3.21
19.38244605064392,2.38,1.75,1.83,3.47
19.392320156097412,3.21,1.34,1.87,3.94
19.402305126190186,3.99,0.95,1.95,4.54
19.412096977233887,4.55,0.7,1.9,4.98
19.443203926086426,4.74,0.61,2.06,5.2
19.444578170776367,4.82,0.54,2.48,5.44
19.445590019226074,5.03,0.23,2.66,5.69
19.459403038024902,5.19,-0.03,2.78,5.88
19.461390018463135,5.43,-0.22,2.92,6.16
19.475668907165527,5.67,-0.48,2.94,6.4
19.481925010681152,5.8,-0.68,2.92,6.52
19.492095947265625,5.86,-0.7,2.88,6.56
19.501517057418823,5.91,-0.63,2.87,6.6
19.511332988739014,5.74,-0.78,2.93,6.49
19.549025058746338,5.18,-0.88,2.98,6.04
19.55033302307129,4.63,-0.57,3.18,5.64
19.551323890686035,4.03,2.06,2.74,5.29
19.555416107177734,6.13,1.36,2.69,6.83
19.575906991958618,10.73,1.46,4.38,11.68
19.577414989471436,12.31,4.06,6.73,14.6
19.59211492538452,8.58,4.97,8.23,12.88
19.59360909461975,1.16,2.43,8.56,8.97
19.607820987701416,-4.04,-1.53,6.24,7.58
19.610356092453003,-4.48,-3.04,1.89,5.73
19.65250015258789,-3.25,-1.82,-2.98,4.77
19.653605937957764,-1.78,2.19,-4.02,4.91
19.65457010269165,0.7,4.31,-1.08,4.49
19.676607131958008,3.19,1.54,2.31,4.22
19.678083896636963,3.72,-1.33,2.59,4.72
19.69216799736023,2.45,-0.86,-0.15,2.6
19.693578004837036,1.29,0.03,-1.98,2.36
19.70943808555603,1.2,0.06,-1.66,2.04
19.710867881774902,1.1,-0.04,-0.61,1.25
19.724557876586914,0.4,0.03,0.47,0.61
19.75420904159546,-0.42,-0.03,1.28,1.34
19.75555419921875,-0.96,-0.07,1.53,1.8
19.75656008720398,-0.95,0.1,1.5,1.77
19.77647113800049,-0.31,0.06,1.18,1.22
19.777945041656494,0.52,-0.06,0.84,0.98
19.792190074920654,0.8,-0.03,0.66,1.03
19.79360294342041,0.37,-0.04,0.2,0.42
19.80912494659424,-0.05,0.03,-0.15,0.16
19.810585975646973,-0.27,0.06,-0.22,0.35
19.82336711883545,-0.34,0.09,-0.09,0.36
19.85210609436035,-0.6,-0.02,-0.43,0.73
19.854047060012817,-1.03,-0.17,-0.38,1.11
19.85511016845703,-1.25,0.03,0.07,1.25
19.8574640750885,-1.01,0.1,0.42,1.09
19.858829975128174,-0.58,0.02,0.31,0.65
19.86841607093811,-0.31,-0.01,0.22,0.38
19.87873411178589,-0.14,0.08,0.24,0.28
19.888690948486328,-0.18,0.32,0.23,0.43
19.89824390411377,-0.42,0.39,-0.24,0.62
19.908329010009766,-0.37,0.31,-0.69,0.84
19.91837215423584,0.09,0.2,-1.01,1.03
19.95007085800171,0.65,0.17,-0.91,1.13
19.95125389099121,1.27,0.08,-0.74,1.47
19.952511072158813,1.51,0.13,-0.41,1.57
19.957515001296997,1.2,0.13,-0.15,1.21
19.97582697868347,0.65,0.1,0.1,0.66
19.9773690700531,0.12,0.14,0.26,0.31
19.99251413345337,-0.25,0.11,0.38,0.46
19.99775004386902,-0.33,0.08,0.34,0.48
20.00800108909607,-0.2,0.05,0.13,0.24
20.017640113830566,-0.04,-0.02,0.02,0.04
20.048367023468018,0.08,0.0,-0.06,0.1
20.049524068832397,0.04,0.03,-0.03,0.05
20.050724983215332,-0.18,0.07,-0.09,0.21
20.05977702140808,-0.36,0.13,-0.18,0.42
20.067123889923096,-0.49,0.08,-0.22,0.54
20.076999187469482,-0.66,-0.04,-0.34,0.74
20.086992025375366,-0.86,0.06,-0.18,0.88
20.09686303138733,-0.96,0.23,-0.04,0.98
20.107068061828613,-0.73,0.41,-0.03,0.83
20.11675786972046,-0.31,0.5,-0.18,0.61
20.148641109466553,-0.33,0.23,-0.64,0.75
20.149898052215576,-0.16,0.06,-0.69,0.71
20.15090799331665,0.03,0.0,-0.66,0.66
20.15700387954712,-0.01,0.08,-0.82,0.82
20.16624402999878,-0.16,0.17,-0.66,0.7
20.176334857940674,-0.23,0.24,-0.3,0.44
20.18614387512207,-0.43,0.23,-0.1,0.49
20.19600486755371,-0.49,0.23,-0.17,0.56
20.20629906654358,-0.41,0.15,-0.31,0.53
20.21621298789978,-0.5,0.12,-0.5,0.71
20.247469902038574,-0.5,0.02,-0.54,0.73
20.248857021331787,-0.39,-0.12,-0.31,0.51
20.249864101409912,-0.55,-0.28,-0.22,0.65
20.25932502746582,-1.05,-0.27,-0.16,1.09
20.26532006263733,-1.35,-0.16,0.07,1.36
20.275572061538696,-1.22,0.21,0.31,1.27
20.285583019256592,-1.06,0.29,0.3,1.13
20.29565715789795,-0.62,0.18,0.32,0.72
20.305546045303345,-0.2,0.11,0.66,0.69
20.315307140350342,-0.15,-0.2,0.51,0.56
20.35256004333496,-0.28,-0.13,0.09,0.32
20.353923082351685,-0.27,0.21,-0.51,0.61
20.35494303703308,-0.53,0.46,-1.42,1.58
20.357447147369385,-0.53,0.43,-1.76,1.88
20.365819931030273,-0.29,0.2,-1.14,1.19
20.375027179718018,-0.52,0.04,-0.82,0.97
20.3848819732666,-0.26,0.5,-0.72,0.91
20.39478588104248,0.73,1.1,-0.41,1.38
20.404669046401978,1.26,1.36,-0.49,1.91
20.41459894180298,1.21,1.62,0.03,2.02
20.45196509361267,0.43,1.81,1.18,2.2
20.453315019607544,-0.5,1.57,0.91,1.88
20.454292058944702,-0.55,1.98,0.58,2.13
20.456505060195923,-0.4,2.44,-0.52,2.52
20.463830947875977,-0.25,3.04,-0.99,3.2
20.47394299507141,0.15,2.46,-0.62,2.54
20.4841730594635,0.34,1.94,-0.48,2.02
20.494047164916992,0.34,1.93,-0.06,1.96
20.503890991210938,-0.04,1.9,0.39,1.94
20.5138258934021,-0.4,1.73,0.88,1.98
20.55080795288086,-0.5,1.65,1.15,2.07
20.552237033843994,-0.29,1.59,1.26,2.04
20.5532169342041,-0.11,1.19,1.14,1.65
20.55544090270996,0.05,0.65,0.86,1.07
20.575947999954224,0.05,0.48,0.44,0.65
20.576941967010498,0.0,0.62,0.13,0.63
20.592527866363525,-0.31,0.58,-0.24,0.7
20.594036102294922,-0.49,0.55,-0.81,1.09
20.608322143554688,-0.37,0.99,-1.06,1.49
20.612957000732422,-0.27,1.11,-0.98,1.5
20.65199899673462,0.07,1.26,-1.24,1.76
20.653151988983154,0.52,1.52,-1.39,2.12
20.6543231010437,0.71,1.67,-1.86,2.59
20.656020164489746,1.16,1.71,-1.76,2.71
20.662394046783447,2.06,2.28,-1.53,3.43
20.67255687713623,1.31,1.79,-2.34,3.22
20.6824688911438,-0.86,0.7,-2.76,2.97
20.692473888397217,-2.27,-0.03,-2.36,3.27
20.702462196350098,-2.72,-0.57,-2.05,3.45
20.712416172027588,-2.75,-0.79,-2.04,3.51
20.722392082214355,-3.29,-0.92,-1.7,3.81
20.75428295135498,-3.69,-0.14,-0.4,3.71
20.755422115325928,-3.52,-0.56,-0.71,3.63
20.756469011306763,-4.7,-1.42,-2.59,5.55
20.776467084884644,-6.33,-1.76,-3.46,7.42
20.77753210067749,-6.86,-1.6,-3.25,7.75
20.79257297515869,-5.71,-1.3,-2.99,6.57
20.794044971466064,-3.93,-1.38,-2.95,5.1
20.80961799621582,-2.58,-1.55,-3.2,4.39
20.811334133148193,-1.78,-1.38,-3.57,4.22
20.82486605644226,-1.34,-0.88,-3.83,4.15
20.851912021636963,-1.25,-0.43,-3.77,3.99
20.85316300392151,-1.47,-0.31,-3.17,3.5
20.854120016098022,-1.69,-0.41,-2.33,2.9
20.86079502105713,-1.75,-0.52,-1.58,2.41
20.87088918685913,-1.96,-0.59,-1.25,2.39
20.880884170532227,-2.54,-0.45,-1.31,2.89
20.890861988067627,-3.26,-0.01,-1.39,3.54
20.90088987350464,-3.43,0.54,-1.07,3.63
20.910784006118774,-2.87,0.87,-0.44,3.03
20.920795917510986,-2.19,1.05,0.16,2.43
20.95016598701477,-2.14,1.44,0.3,2.59
20.951359033584595,-2.4,1.8,0.33,3.01
20.952672958374023,-2.33,1.84,0.54,3.01
20.960102081298828,-2.05,1.66,0.88,2.78
20.976285934448242,-1.96,1.39,1.05,2.62
20.97985315322876,-1.87,1.15,0.9,2.37
20.990939140319824,-1.75,0.93,0.69,2.09
21.000362873077393,-1.58,0.71,0.52,1.8
21.00993013381958,-1.32,0.61,0.45,1.52
21.019838094711304,-1.01,0.63,0.54,1.3
21.05153512954712,-0.73,0.67,0.82,1.28
21.052695989608765,-0.74,0.48,1.11,1.41
21.053979873657227,-0.79,0.32,1.4,1.63
21.05934190750122,-0.49,0.39,1.67,1.78
21.06902503967285,0.09,0.34,1.86,1.89
21.07948398590088,0.62,0.15,2.11,2.2
21.089390993118286,0.95,0.07,2.31,2.49
21.0993390083313,1.13,0.07,2.5,2.74
21.109314918518066,1.37,0.04,2.65,2.98
21.119174003601074,1.77,-0.01,2.63,3.17
21.15693712234497,2.29,-0.04,2.59,3.45
21.158277988433838,2.89,-0.1,2.6,3.88
21.159255981445312,3.45,-0.16,2.63,4.34
21.17671799659729,3.89,-0.15,2.67,4.72
21.17778706550598,4.43,-0.06,2.83,5.25
21.19286012649536,5.16,-0.01,3.07,6.0
21.194326877593994,5.62,-0.25,3.25,6.49
21.209768056869507,5.53,-0.49,3.3,6.45
21.211227893829346,5.38,-0.54,3.25,6.3
21.22529888153076,5.6,-0.51,3.18,6.46
21.25532817840576,6.11,-0.28,3.17,6.88
21.25657606124878,6.68,0.02,3.11,7.36
21.25759220123291,6.96,-0.14,2.79,7.49
21.276843070983887,5.5,1.25,2.35,6.11
21.277875900268555,4.41,1.9,2.14,5.25
21.292859077453613,7.35,-0.03,3.03,7.95
21.29432702064514,8.95,0.04,4.27,9.91
21.30984401702881,9.23,-0.31,3.8,9.98
21.311302185058594,8.12,-0.24,3.2,8.73
21.325343132019043,6.32,0.5,3.23,7.11
21.353803157806396,4.1,0.28,2.92,5.04
21.35525107383728,-0.12,0.33,2.23,2.25
21.35634994506836,-2.63,0.75,2.44,3.66
21.37717914581299,-2.35,-0.32,1.25,2.68
21.378185033798218,-1.59,-0.15,-0.8,1.78
21.393431186676025,-1.29,1.09,-0.51,1.76
21.394864082336426,0.15,1.17,1.62,2.0
21.41011619567871,1.89,0.19,2.83,3.4
21.411567211151123,1.97,-0.34,2.43,3.14
21.425539016723633,1.18,-0.4,1.27,1.77
21.455376148223877,1.0,-0.53,0.62,1.29
21.456780910491943,1.31,-0.45,0.59,1.5
21.457777976989746,1.36,-0.05,0.49,1.44
21.47684097290039,0.79,0.29,0.15,0.85
21.478096961975098,0.15,0.12,-0.01,0.19
21.492762088775635,-0.3,-0.25,-0.34,0.51
21.494246006011963,-0.38,-0.23,-0.39,0.59
21.509457111358643,0.52,-0.02,0.3,0.6
21.51094102859497,1.38,0.16,0.93,1.67
21.52542495727539,1.07,-0.02,0.62,1.23
21.526915073394775,0.49,-0.11,0.06,0.5
21.574982166290283,0.02,-0.04,0.14,0.14
21.576142072677612,-0.02,0.07,0.41,0.41
21.577157020568848,0.07,0.16,0.6,0.62
21.593812942504883,0.19,0.22,0.42,0.51
21.594845056533813,0.17,0.47,0.03,0.5
21.609641075134277,0.03,0.26,-0.31,0.4
21.61107587814331,0.1,0.34,-0.55,0.65
21.62632989883423,0.2,0.21,-0.72,0.77
21.627769947052002,0.05,0.18,-0.83,0.85
21.64240312576294,-0.02,0.34,-1.06,1.11
21.671359062194824,-0.14,0.35,-1.05,1.11
21.672600984573364,-0.17,0.29,-0.79,0.85
21.673619985580444,-0.17,0.17,-0.36,0.43
21.693356037139893,-0.22,0.15,0.02,0.26
21.69437313079834,-0.37,0.21,0.23,0.48
21.710033893585205,-0.55,0.26,0.36,0.7
21.71153211593628,-0.85,0.15,0.45,0.97
21.726358890533447,-0.73,0.19,0.45,0.87
21.727732181549072,-0.23,0.16,0.24,0.36
21.742138862609863,0.14,-0.03,-0.12,0.18
21.770323991775513,0.33,-0.06,-0.3,0.45
21.77158808708191,0.22,0.01,-0.17,0.27
21.77259111404419,0.19,0.06,-0.07,0.21
21.79350996017456,0.42,0.17,0.27,0.52
21.79459500312805,0.77,0.13,0.45,0.9
21.810229063034058,0.84,0.03,0.3,0.89
21.811721086502075,0.43,-0.01,-0.17,0.46
21.826663970947266,0.06,0.01,-0.46,0.46
21.827998161315918,0.01,0.03,-0.34,0.34
21.8423171043396,-0.07,-0.03,-0.23,0.24
21.87120509147644,-0.31,0.02,-0.27,0.41
21.872572898864746,-0.57,0.08,-0.24,0.62
21.873581886291504,-0.79,0.11,-0.28,0.84
21.893280029296875,-0.97,0.07,-0.42,1.05
21.894737005233765,-1.15,0.05,-0.57,1.28
21.91023302078247,-1.23,0.21,-0.52,1.35
21.911648988723755,-1.16,0.38,-0.22,1.24
21.92784595489502,-0.8,0.4,0.07,0.89
21.92931318283081,-0.49,0.52,0.16,0.73
21.942355155944824,-0.39,0.49,-0.04,0.62
21.97104787826538,-0.31,0.32,-0.09,0.45
21.97255301475525,-0.14,0.08,0.04,0.16
21.973588943481445,0.1,-0.12,0.39,0.42
21.993464946746826,0.17,-0.2,0.38,0.46
21.99493098258972,0.11,-0.18,0.13,0.24
22.01024293899536,0.27,-0.12,-0.16,0.33
22.01161813735962,0.55,-0.3,-0.25,0.67
22.025695085525513,0.79,-0.65,-0.09,1.02
22.027103900909424,0.79,-0.98,0.06,1.26
22.042165994644165,0.39,-0.96,0.04,1.03
22.071184158325195,-0.51,-0.67,-0.04,0.84
22.072604179382324,-1.48,-0.24,0.14,1.5
22.073602199554443,-1.93,0.44,-0.29,2.0
22.0937340259552,-1.99,1.01,-0.43,2.27
22.09522294998169,-1.93,1.03,-0.33,2.21
22.11021399497986,-1.49,0.77,-0.21,1.69
22.111711978912354,-0.86,0.35,-0.17,0.94
22.126937866210938,-0.58,0.26,-0.44,0.77
22.128432035446167,-0.66,0.41,-0.96,1.23
22.142179012298584,-0.59,0.28,-1.15,1.32
22.170548915863037,-0.34,-0.16,-0.6,0.7
22.171793937683105,-0.1,-0.53,0.24,0.59
22.172765016555786,-0.08,-0.53,0.63,0.82
22.193655014038086,0.2,-0.22,0.74,0.79
22.194695949554443,0.38,0.06,0.59,0.7
22.21017098426819,0.8,-0.04,0.15,0.81
22.211636066436768,1.97,-0.13,0.19,1.98
22.226824045181274,2.47,-0.49,0.19,2.52
22.228219032287598,2.13,-0.79,0.21,2.28
22.24222993850708,1.67,-0.71,0.49,1.87
22.270531177520752,1.16,-0.34,0.72,1.4
22.271833896636963,0.75,0.25,0.59,0.98
22.272826194763184,0.08,0.75,-0.28,0.8
22.29349708557129,-0.01,1.41,-1.0,1.72
22.294523000717163,0.43,1.73,-1.54,2.35
22.310436010360718,0.36,1.68,-2.0,2.63
22.311865091323853,0.3,1.99,-1.63,2.58
22.326560020446777,0.23,2.08,-1.13,2.37
22.328043937683105,-0.27,2.95,-0.85,3.08
22.342478036880493,-0.36,2.99,-1.12,3.21
22.343913078308105,-0.25,2.99,-1.04,3.17
22.387409210205078,0.06,2.78,-0.57,2.83
22.388577938079834,0.11,2.63,-0.51,2.68
22.389554977416992,0.45,2.52,-0.09,2.56
22.411051034927368,0.87,2.64,0.52,2.82
22.41249108314514,0.97,2.63,0.54,2.85
22.427090167999268,0.57,2.69,0.05,2.75
22.428531169891357,0.02,2.62,0.22,2.62
22.44391703605652,-0.41,2.01,0.06,2.05
22.44531488418579,-0.8,1.72,-0.19,1.9
22.459375858306885,-1.15,1.41,-0.39,1.86
22.488293170928955,-1.42,0.64,-0.9,1.79
22.489629983901978,-1.8,0.5,-1.68,2.51
22.49063014984131,-2.01,0.81,-2.0,2.94
22.51039409637451,-1.47,0.76,-1.67,2.35
22.511481046676636,-0.98,1.72,-1.3,2.36
22.526671886444092,-0.93,2.75,-1.56,3.29
22.528181076049805,-0.2,3.27,-1.53,3.61
22.5438129901886,0.7,3.06,-2.13,3.79
22.54530906677246,-0.54,1.4,-3.06,3.4
22.559290885925293,-2.21,0.4,-3.01,3.75
22.587464094161987,-4.01,-1.93,-3.09,5.41
22.58876609802246,-3.42,-1.77,-2.82,4.77
22.589746952056885,-1.56,-1.03,-2.16,2.85
22.611137866973877,-3.01,-1.29,-2.64,4.2
22.61216902732849,-5.35,-1.28,-3.51,6.52
22.6271870136261,-6.83,-1.5,-3.51,7.82
22.62856698036194,-6.65,-1.95,-2.62,7.4
22.64384412765503,-5.51,-2.58,-1.81,6.34
22.64532995223999,-4.49,-2.96,-1.43,5.56
22.659031867980957,-3.99,-2.91,-1.22,5.08
22.68634009361267,-3.95,-2.54,-1.08,4.81
22.68772006034851,-4.25,-2.08,-0.98,4.83
22.688694953918457,-4.57,-1.56,-0.86,4.9
22.690900087356567,-4.58,-0.94,-0.59,4.71
22.692296028137207,-4.33,-0.24,-0.31,4.34
22.693615913391113,-3.97,0.54,-0.12,4.0
22.697052001953125,-3.7,1.16,-0.11,3.87
22.706902027130127,-3.61,1.45,-0.35,3.9
22.717068195343018,-3.37,1.41,-0.52,3.68
22.72686505317688,-2.91,1.17,-0.4,3.16
22.758949041366577,-2.33,0.96,-0.01,2.52
22.760114192962646,-1.6,0.93,0.38,1.88
22.761107921600342,-0.88,0.83,0.66,1.37
22.776048183441162,-0.47,0.69,0.83,1.17
22.777108192443848,-0.52,0.73,0.89,1.26
22.793111085891724,-0.69,0.94,0.82,1.42
22.796284198760986,-0.65,1.0,0.7,1.38
22.810160160064697,-0.48,0.83,0.55,1.1
22.81615114212036,-0.32,0.67,0.39,0.83
22.826284885406494,-0.12,0.55,0.31,0.64
22.85872507095337,0.08,0.4,0.23,0.46
22.860013961791992,0.26,0.35,0.18,0.47
22.86100721359253,0.35,0.43,0.18,0.58
22.87739896774292,0.4,0.4,0.2,0.6
22.878432035446167,0.44,0.2,0.31,0.57
22.893378019332886,0.48,0.04,0.63,0.79
22.895462036132812,0.65,-0.1,0.93,1.13
22.91178798675537,1.0,-0.21,1.16,1.54
22.91563105583191,1.41,-0.26,1.35,1.96
22.926318168640137,1.71,-0.36,1.58,2.35
22.961530208587646,1.89,-0.38,1.86,2.67
22.96290898323059,2.01,-0.36,2.11,2.93
22.963929176330566,2.19,-0.24,2.23,3.13
22.977713108062744,2.57,-0.09,2.22,3.39
22.978757858276367,3.11,-0.05,2.1,3.75
22.993896961212158,3.67,-0.05,2.09,4.22
22.995285987854004,4.1,-0.01,2.18,4.64
23.010468006134033,4.48,0.02,2.3,5.03
23.014976024627686,4.92,0.27,2.4,5.48
23.025957107543945,5.54,0.53,2.47,6.08
23.06233787536621,6.1,0.44,2.39,6.56
23.063627004623413,6.25,0.18,2.16,6.61
23.06464385986328,5.8,-0.06,2.07,6.15
23.077718019485474,5.11,-0.09,2.13,5.53
23.078792095184326,4.86,-0.18,2.21,5.34
23.093617916107178,4.81,0.03,2.26,5.31
23.09466314315796,4.1,1.81,2.16,4.97
23.110594987869263,4.69,0.76,2.1,5.19
23.114156007766724,6.6,-0.05,2.71,7.13
23.124078035354614,6.79,0.02,3.47,7.62
23.1340651512146,7.21,0.81,3.94,8.25
23.169888973236084,8.83,0.44,4.49,9.91
23.171027183532715,7.49,-0.25,4.62,8.8
23.172187089920044,3.69,0.05,4.71,5.98
23.173777103424072,-0.24,-0.68,3.96,4.02
23.183443069458008,-2.79,-1.19,1.76,3.5
23.193466186523438,-3.38,-0.01,-0.83,3.48
23.20357894897461,-2.58,2.17,-1.77,3.8
23.213611125946045,-0.5,3.33,-0.34,3.38
23.223618030548096,2.11,1.63,1.8,3.21
23.233360052108765,3.46,-0.8,2.97,4.62
23.263125896453857,3.0,-0.88,2.31,3.88
23.264458179473877,1.7,-0.23,0.99,1.98
23.26547908782959,0.94,-0.33,-0.08,0.99
23.277765035629272,0.44,-0.37,-0.75,0.94
23.28264093399048,0.48,-0.11,-0.61,0.78
23.29322910308838,0.64,-0.07,0.42,0.76
23.303030967712402,0.44,-0.16,1.19,1.27
23.312721014022827,0.01,-0.26,0.9,0.93
23.32284116744995,-0.25,-0.13,0.33,0.43
23.332573890686035,-0.46,-0.04,-0.09,0.47
23.36355686187744,-0.83,0.17,-0.14,0.85
23.364881992340088,-1.16,0.42,0.25,1.25
23.36591100692749,-0.97,0.43,0.39,1.13
23.377978086471558,-0.29,0.12,0.25,0.4
23.381957054138184,0.25,-0.01,-0.23,0.33
23.39170789718628,0.47,0.09,-0.48,0.67
23.402155876159668,0.49,0.3,-0.46,0.73
23.411931037902832,0.46,0.42,-0.47,0.78
23.42198085784912,0.55,0.3,-0.49,0.79
23.431884050369263,0.63,0.23,-0.55,0.86
23.462020874023438,0.62,0.13,-0.44,0.77
23.463347911834717,0.47,0.15,-0.22,0.54
23.464322090148926,0.32,0.15,-0.14,0.38
23.47804307937622,0.27,0.08,-0.16,0.32
23.481208086013794,0.13,0.09,-0.17,0.23
23.49158000946045,-0.04,0.03,-0.07,0.08
23.50145196914673,-0.16,0.07,0.08,0.19
23.51117706298828,-0.34,0.13,0.09,0.37
23.521053075790405,-0.53,0.12,-0.17,0.56
23.531233072280884,-0.83,0.14,-0.47,0.96
23.568132877349854,-0.7,0.18,-0.41,0.83
23.569529056549072,-0.41,0.17,-0.34,0.55
23.570512056350708,-0.34,0.08,-0.46,0.57
23.573456048965454,-0.38,0.12,-0.5,0.63
23.593873977661133,-0.21,0.16,-0.29,0.39
23.595360040664673,0.22,0.14,0.27,0.37
23.610791206359863,0.35,0.19,0.55,0.67
23.61223006248474,0.24,0.08,0.32,0.4
23.626424074172974,0.05,0.0,0.14,0.14
23.630227088928223,-0.14,0.13,-0.14,0.23
23.670671939849854,-0.36,0.18,-0.16,0.43
23.67181706428528,-0.41,0.16,-0.04,0.44
23.672725200653076,-0.27,0.13,-0.04,0.3
23.674859046936035,-0.34,0.15,-0.15,0.4
23.67952609062195,-0.57,0.27,-0.19,0.65
23.68970012664795,-0.82,0.4,-0.25,0.94
23.699967861175537,-1.04,0.41,-0.41,1.19
23.709716081619263,-1.19,0.33,-0.37,1.28
23.719738006591797,-1.26,0.22,-0.25,1.3
23.72958207130432,-1.28,0.07,-0.13,1.28
23.76538610458374,-1.23,0.02,0.16,1.24
23.76672101020813,-1.01,0.01,0.31,1.05
23.767698049545288,-0.68,0.04,0.11,0.69
23.77822709083557,-0.1,-0.13,-0.17,0.23
23.779296875,0.33,-0.34,-0.4,0.62
23.794103145599365,0.23,-0.47,-0.78,0.93
23.798960208892822,0.0,-0.36,-1.18,1.23
23.8110671043396,-0.03,-0.05,-1.11,1.11
23.819061040878296,-0.07,0.09,-0.4,0.41
23.828795909881592,-0.26,0.15,-0.05,0.3
23.86615300178528,-0.39,0.21,0.08,0.45
23.867605209350586,-0.33,0.19,0.02,0.38
23.868595123291016,-0.5,0.51,-0.44,0.83
23.877562046051025,-1.05,0.71,-0.97,1.59
23.878610134124756,-1.75,0.82,-1.47,2.42
23.895159006118774,-2.09,0.77,-1.85,2.89
23.898393154144287,-1.56,0.67,-1.19,2.07
23.90898299217224,-0.96,0.66,-0.55,1.28
23.91830587387085,-0.11,1.24,-0.33,1.28
23.92792320251465,1.08,1.57,-0.17,1.91
23.93778896331787,1.95,1.47,0.47,2.48
23.971081018447876,1.33,1.02,1.23,2.07
23.97223401069641,0.38,0.97,1.73,2.01
23.97322988510132,0.06,1.32,1.45,1.96
23.9950430393219,0.36,1.44,1.01,1.79
23.996520042419434,0.95,1.1,0.83,1.67
24.011075019836426,1.03,1.43,0.18,1.77
24.012476921081543,1.2,1.43,0.02,1.86
24.027765035629272,1.34,1.43,-0.13,1.96
24.029078006744385,1.01,1.57,-0.17,1.87
24.043166160583496,0.43,1.6,-0.37,1.69
24.073707103729248,-0.17,1.77,-0.63,1.88
24.074971199035645,-0.51,1.93,-0.47,2.05
24.076000213623047,-0.68,1.87,-0.5,2.05
24.09462594985962,-0.93,1.86,-0.58,2.15
24.095715045928955,-1.27,1.9,-0.64,2.37
24.110794067382812,-1.55,1.64,-0.82,2.4
24.112278938293457,-1.58,1.26,-0.99,2.25
24.12761116027832,-1.41,1.12,-1.25,2.19
24.129049062728882,-1.05,1.08,-1.55,2.16
24.143290042877197,-0.52,1.17,-1.5,1.97
24.172030925750732,-0.2,1.4,-1.28,1.9
24.17343306541443,-0.23,0.84,-1.65,1.86
24.174431085586548,0.75,0.63,-1.57,1.85
24.19472908973694,1.98,1.25,-1.31,2.68
24.196202039718628,3.24,1.93,-1.72,4.14
24.21132206916809,1.64,0.5,-2.95,3.41
24.212811946868896,-0.37,-0.77,-3.48,3.58
24.227744102478027,-1.97,-2.62,-3.23,4.6
24.229202032089233,-2.78,-3.45,-2.53,5.1
24.24319887161255,-1.31,-1.6,-1.79,2.73
24.271560192108154,-2.05,-1.98,-2.36,3.7
24.27283000946045,-4.42,-2.54,-3.54,6.2
24.273841857910156,-6.22,-2.07,-3.94,7.64
24.29489803314209,-6.14,-1.51,-3.2,7.08
24.295916080474854,-4.81,-1.58,-2.44,5.62
24.311354160308838,-3.65,-1.95,-2.05,4.61
24.31282901763916,-3.36,-1.86,-1.89,4.28
24.32790517807007,-3.61,-1.16,-1.91,4.24
24.329360008239746,-3.86,-0.36,-1.66,4.21
24.343419075012207,-3.88,0.11,-1.08,4.02
24.373404026031494,-3.71,0.45,-0.45,3.76
24.374743938446045,-3.52,0.89,-0.08,3.63
24.375735998153687,-3.37,1.45,-0.12,3.67
24.394591093063354,-3.46,1.83,-0.33,3.92
24.39608407020569,-3.55,2.08,-0.52,4.14
24.411244869232178,-3.33,2.13,-0.6,3.99
24.4127299785614,-2.69,2.04,-0.48,3.41
24.427978038787842,-1.89,1.8,-0.45,2.64
24.42943501472473,-1.37,1.62,-0.54,2.18
24.44358491897583,-1.25,1.53,-0.66,2.08
24.47132110595703,-1.44,1.43,-0.72,2.15
24.472759008407593,-1.76,1.15,-0.76,2.23
24.47376012802124,-2.0,0.85,-0.7,2.28
24.49453115463257,-1.93,0.64,-0.58,2.11
24.495570182800293,-1.51,0.42,-0.5,1.64
24.511374950408936,-1.09,0.18,-0.5,1.21
24.512771129608154,-1.03,0.08,-0.52,1.15
24.52768087387085,-1.28,0.19,-0.3,1.32
24.52916717529297,-1.65,0.4,0.31,1.72
24.543685913085938,-2.03,0.56,1.09,2.37
24.572875022888184,-2.2,0.7,1.78,2.91
24.574238061904907,-1.96,0.74,2.36,3.15
24.575258016586304,-1.71,0.66,2.7,3.26
24.594887018203735,-1.61,0.62,2.84,3.32
24.59637999534607,-1.41,0.65,2.82,3.21
24.609424114227295,-1.02,0.73,2.77,3.04
24.610887050628662,-0.53,0.78,2.69,2.85
24.62796401977539,-0.06,0.74,2.55,2.65
24.629366874694824,0.39,0.72,2.41,2.54
24.643721103668213,1.01,0.98,2.37,2.75
24.67311191558838,1.88,1.16,2.34,3.21
24.674494981765747,2.69,1.02,2.08,3.55
24.675493001937866,3.14,0.92,1.65,3.66
24.69456911087036,3.42,0.92,1.48,3.83
24.695497035980225,3.91,0.74,1.42,4.22
24.711326122283936,4.67,0.29,1.31,4.85
24.712794065475464,5.41,-0.23,1.15,5.53
24.727787971496582,5.89,-0.67,0.9,5.99
24.7292160987854,6.03,-0.84,0.74,6.13
24.743637084960938,6.08,-0.75,0.99,6.2
24.7451171875,6.17,-0.69,1.52,6.39
24.79122805595398,6.19,-0.43,2.06,6.53
24.79239511489868,6.33,-0.26,2.54,6.82
24.793384075164795,6.2,-0.47,2.69,6.77
24.812283039093018,5.51,-0.48,2.67,6.14
24.813762187957764,4.75,-0.39,2.74,5.49
24.8278489112854,4.25,-0.44,2.81,5.11
24.829312086105347,3.97,-0.6,2.91,4.95
24.84466314315796,3.65,-0.44,3.02,4.75
24.84611201286316,2.7,1.07,2.76,4.0
24.860198974609375,2.13,0.19,2.6,3.36
24.8889319896698,2.8,0.07,3.54,4.51
24.890443086624146,3.63,0.05,3.95,5.36
24.891459941864014,4.61,-0.23,3.3,5.67
24.91195011138916,7.22,0.34,2.67,7.7
24.913264989852905,8.07,0.48,2.47,8.45
24.928133964538574,3.46,1.71,2.09,4.38
24.92962908744812,-0.2,2.54,2.01,3.24
24.94479990005493,-2.26,1.37,-0.01,2.64
24.946259021759033,-2.9,1.41,-2.65,4.17
24.959185123443604,-1.33,1.55,-1.48,2.52
24.988675117492676,2.15,0.71,2.4,3.29
24.990065097808838,3.35,-0.45,3.66,4.98
24.991103172302246,1.49,-0.65,2.45,2.94
25.01188087463379,0.06,-0.51,0.85,0.99
25.01292109489441,0.0,-0.54,-0.02,0.54
25.028218984603882,0.44,-0.31,-0.22,0.58
25.029644012451172,1.15,-0.05,0.3,1.18
25.045164108276367,1.41,-0.05,1.28,1.9
25.04653787612915,0.94,-0.13,1.38,1.67
25.06040096282959,0.36,-0.04,1.04,1.1
25.088792085647583,0.02,0.01,0.9,0.9
25.090142011642456,-0.42,0.17,0.93,1.03
25.091136932373047,-0.82,0.21,0.51,0.98
25.111629962921143,-0.7,0.26,-0.07,0.75
25.112686157226562,0.07,0.27,-0.39,0.47
25.127943992614746,0.77,0.1,-0.59,0.97
25.129379987716675,0.88,-0.01,-0.77,1.16
25.145246028900146,0.71,0.05,-0.8,1.07
25.146725177764893,0.37,0.22,-0.68,0.8
25.1602680683136,-0.08,0.28,-0.68,0.73
25.19037103652954,-0.51,0.33,-0.62,0.86
25.19169807434082,-0.64,0.45,-0.48,0.91
25.192681074142456,-0.55,0.42,-0.57,0.89
25.211950063705444,-0.35,0.32,-0.89,1.0
25.212934970855713,-0.18,0.23,-0.89,0.93
25.227617979049683,-0.14,0.19,-0.62,0.66
25.229086875915527,-0.26,0.11,-0.43,0.51
25.24495792388916,-0.32,0.08,-0.24,0.4
25.24641704559326,-0.31,0.06,0.09,0.32
25.26017713546753,-0.42,0.0,0.2,0.46
25.290102005004883,-0.44,-0.06,0.3,0.53
25.29142713546753,-0.18,-0.19,0.69,0.73
25.292447090148926,0.07,-0.32,0.98,1.03
25.31186604499817,0.4,-0.28,0.96,1.07
25.312941074371338,0.66,-0.23,0.76,1.03
25.3279709815979,0.63,-0.19,0.36,0.75
25.329465866088867,0.42,-0.02,0.1,0.43
25.34482717514038,0.23,0.09,-0.03,0.24
25.34633207321167,0.11,0.1,-0.11,0.18
25.360147953033447,0.03,0.1,-0.1,0.14
25.389752864837646,-0.13,0.13,-0.08,0.2
25.391193866729736,-0.31,0.14,-0.38,0.51
25.39219617843628,-0.47,0.19,-0.58,0.77
25.411794185638428,-0.56,0.32,-0.5,0.81
25.41286301612854,-0.46,0.28,-0.39,0.66
25.42837619781494,-0.41,0.2,-0.58,0.73
25.429895877838135,-0.44,0.21,-0.69,0.84
25.444000005722046,-0.76,0.24,-0.51,0.94
25.44538688659668,-1.15,0.24,-0.5,1.27
25.460400104522705,-1.08,0.23,-0.39,1.17
25.48934507369995,-0.83,0.24,-0.03,0.86
25.491136074066162,-0.44,0.09,0.16,0.47
25.492152214050293,-0.01,-0.09,0.27,0.28
25.51176905632019,0.12,-0.1,0.07,0.17
25.512808084487915,-0.31,-0.03,-0.22,0.38
25.528228998184204,-0.53,0.05,-0.32,0.62
25.52969217300415,-0.26,0.06,-0.1,0.28
25.54505491256714,-0.18,0.02,0.05,0.18
25.546506881713867,-0.14,-0.12,0.02,0.18
25.560336112976074,-0.19,-0.1,-0.07,0.22
25.56176996231079,-0.37,0.12,-0.3,0.49
25.606396198272705,-0.82,0.31,-0.63,1.07
25.607599020004272,-1.72,0.46,-0.77,1.93
25.60856604576111,-1.99,0.51,-0.96,2.26
25.6291241645813,-1.32,0.43,-0.7,1.55
25.63062286376953,-0.5,0.28,-0.26,0.62
25.64498996734619,-0.25,0.31,-0.38,0.55
25.64640998840332,-0.45,0.43,-1.15,1.3
25.661473035812378,-0.66,0.33,-1.65,1.8
25.66290307044983,-0.91,0.07,-1.46,1.72
25.677531003952026,-0.87,-0.21,-0.65,1.1
25.708558082580566,-0.39,-0.34,0.06,0.52
25.709933042526245,0.13,-0.36,0.07,0.38
25.71097707748413,0.33,0.04,-0.59,0.67
25.7291841506958,0.44,0.61,-0.96,1.21
25.730661869049072,1.12,1.03,-0.8,1.71
25.744833946228027,1.75,0.87,-0.85,2.13
25.746286869049072,2.16,0.59,-0.2,2.24
25.761693000793457,1.58,0.54,0.39,1.71
25.76316785812378,0.67,1.03,0.52,1.33
25.777254104614258,-0.31,1.79,1.21,2.18
25.806101083755493,-1.21,1.57,1.03,2.23
25.807470083236694,-0.49,2.31,0.29,2.37
25.808513164520264,0.25,2.69,-0.64,2.77
25.828813076019287,0.62,2.81,-0.19,2.88
25.83029794692993,0.87,2.68,-0.16,2.82
25.844974994659424,0.91,2.65,-0.18,2.8
25.846431016921997,0.8,2.33,0.06,2.46
25.862786054611206,0.51,2.02,0.5,2.14
25.864196062088013,-0.24,1.84,1.07,2.14
25.87777805328369,-0.9,1.73,0.98,2.18
25.907662868499756,-1.29,1.61,0.83,2.22
25.908987045288086,-1.77,1.49,0.39,2.34
25.909959077835083,-1.93,1.44,-0.3,2.42
25.92926001548767,-1.2,1.38,-0.71,1.96
25.930744171142578,-0.51,1.7,-0.26,1.79
25.945001125335693,-0.27,1.46,-0.6,1.6
25.94646406173706,0.09,0.94,-0.91,1.31
25.961857080459595,0.6,0.65,-1.03,1.35
25.963330030441284,1.19,0.76,-1.2,1.85
25.977351188659668,1.51,1.15,-1.5,2.41
26.007099151611328,1.48,1.65,-1.8,2.85
26.00886607170105,1.99,2.52,-2.08,3.82
26.009886980056763,2.74,2.85,-2.03,4.44
26.029144048690796,1.04,1.08,-2.62,3.01
26.03060293197632,-1.15,-0.73,-3.0,3.29
26.04499912261963,-2.68,-2.19,-2.62,4.34
26.046499013900757,-3.3,-3.2,-2.31,5.14
26.061996936798096,-1.33,-1.73,-2.09,3.02
26.063467979431152,0.16,-1.74,-2.21,2.81
26.07747793197632,-2.12,-1.98,-3.29,4.38
26.109193086624146,-4.8,-1.38,-4.19,6.51
26.11059808731079,-6.15,-1.08,-3.86,7.34
26.11158514022827,-5.85,-0.95,-2.89,6.59
26.128818035125732,-4.87,-1.17,-2.21,5.47
26.129899978637695,-4.09,-1.56,-2.11,4.85
26.14528799057007,-3.75,-1.59,-2.35,4.7
26.146759033203125,-3.57,-1.31,-2.42,4.5
26.161848068237305,-3.38,-0.91,-1.99,4.02
26.163356065750122,-3.19,-0.81,-1.14,3.48
26.177499055862427,-3.4,-0.9,-0.38,3.53
26.207726001739502,-3.8,-0.72,0.2,3.87
26.209014892578125,-3.97,-0.31,0.64,4.03
26.209999084472656,-3.88,-0.12,0.86,3.97
26.227503061294556,-3.78,-0.27,0.81,3.87
26.228518962860107,-3.84,-0.32,0.6,3.89
26.24368715286255,-3.77,-0.16,0.55,3.81
26.245107173919678,-3.35,0.0,0.67,3.41
26.25906205177307,-2.65,-0.03,0.69,2.73
26.260526180267334,-1.9,-0.06,0.7,2.02
26.277796983718872,-1.4,0.0,0.53,1.49
26.30768609046936,-1.14,0.18,0.37,1.21
26.309001922607422,-0.91,0.36,0.29,1.02
26.310023069381714,-0.61,0.51,0.22,0.82
26.328801155090332,-0.44,0.6,0.12,0.75
26.329843997955322,-0.39,0.63,0.02,0.74
26.345067024230957,-0.33,0.74,0.09,0.81
26.3465518951416,-0.3,0.9,0.28,0.98
26.362021923065186,-0.15,1.14,0.46,1.23
26.36347198486328,0.39,1.08,0.32,1.19
26.37758708000183,0.77,0.84,0.01,1.13
26.379032135009766,0.7,0.86,-0.07,1.11
26.42329692840576,0.73,0.94,0.12,1.19
26.424466133117676,0.85,0.98,0.49,1.38
26.425474166870117,0.71,1.01,0.82,1.48
26.445824146270752,0.3,1.17,1.09,1.62
26.44722318649292,-0.13,1.36,1.4,1.95
26.46167802810669,-0.38,1.55,1.78,2.39
26.46311092376709,-0.45,1.58,2.23,2.76
26.4789400100708,-0.48,1.42,2.53,2.94
26.480406999588013,-0.22,1.1,2.48,2.72
26.494261980056763,0.28,0.73,2.14,2.27
26.524587154388428,0.77,0.39,1.75,1.95
26.52635407447815,1.24,-0.01,1.33,1.81
26.52734613418579,1.71,-0.29,0.95,1.97
26.54609704017639,2.29,-0.4,0.81,2.46
26.547569036483765,2.86,-0.47,0.86,3.02
26.561851978302002,3.34,-0.57,0.98,3.52
26.56332802772522,3.87,-0.62,1.29,4.12
26.579073905944824,4.56,-0.65,1.69,4.9
26.580543994903564,5.37,-0.86,1.84,5.74
26.594353199005127,6.03,-1.13,1.8,6.39
26.624422073364258,6.54,-1.24,1.74,6.88
26.625741958618164,6.94,-1.38,1.57,7.24
26.62675404548645,7.18,-1.55,1.4,7.47
26.645456075668335,7.29,-1.66,1.39,7.6
26.646510124206543,7.24,-1.61,1.68,7.6
26.66199493408203,6.88,-1.46,2.16,7.35
26.663480043411255,6.09,-1.28,2.39,6.66
26.67872190475464,4.91,-1.16,2.47,5.61
26.68018913269043,3.93,-1.17,2.61,4.86
26.69405508041382,3.4,-1.42,2.85,4.65
26.723618030548096,4.42,2.05,2.77,5.6
26.72503900527954,7.41,2.97,2.83,8.46
26.726072072982788,10.46,2.31,3.71,11.33
26.746066093444824,6.51,1.72,5.63,8.77
26.747122049331665,-2.33,1.5,5.91,6.52
26.761909008026123,-7.7,1.33,3.72,8.65
26.763370990753174,-6.59,1.3,-0.46,6.73
26.77886199951172,-3.12,2.74,-2.96,5.09
26.78032112121582,0.1,3.42,-0.28,3.43
26.794217109680176,2.69,-0.04,3.32,4.27
26.821681022644043,3.6,-2.14,3.54,5.48
26.823073863983154,2.55,-0.72,1.08,2.86
26.824081897735596,0.95,0.24,-0.93,1.35
26.82640504837036,0.62,-0.16,-1.38,1.52
26.82779312133789,1.06,-0.12,-1.45,1.8
26.829285144805908,1.12,0.15,-0.91,1.45
26.83067297935486,0.84,-0.01,0.11,0.84
26.83202886581421,0.67,-0.18,0.74,1.01
26.835664987564087,0.53,-0.04,0.95,1.08
26.846100091934204,0.18,-0.05,0.73,0.75
26.87673807144165,-0.23,-0.03,0.65,0.69
26.877700090408325,-0.29,-0.04,0.89,0.93
26.878530025482178,-0.36,0.01,1.03,1.09
26.894593000411987,-0.56,0.28,1.07,1.23
26.8956241607666,-0.69,0.37,0.01,0.78
26.91181707382202,-0.55,0.37,-1.18,1.35
26.91523313522339,-0.12,0.37,-1.46,1.51
26.928257942199707,0.09,0.27,-1.3,1.33
26.935376167297363,-0.05,0.24,-0.89,0.92
26.94494915008545,-0.33,0.29,-0.51,0.67
26.9796040058136,-0.75,0.34,-0.35,0.89
26.98090696334839,-0.98,0.27,-0.45,1.11
26.981739044189453,-0.69,0.17,-0.2,0.73
26.995970010757446,-0.18,0.09,0.15,0.25
26.997013092041016,0.07,0.05,0.24,0.25
27.012064933776855,0.16,0.05,0.1,0.19
27.01455593109131,0.18,0.06,-0.12,0.22
27.02827000617981,0.19,0.04,-0.23,0.3
27.034358024597168,0.2,0.09,-0.12,0.25
27.04443597793579,0.24,0.05,0.05,0.25
27.078617095947266,0.2,0.01,0.2,0.28
27.0798978805542,0.19,0.03,0.24,0.3
27.080870151519775,0.26,-0.02,0.14,0.29
27.09583306312561,0.35,-0.05,0.21,0.41
27.09688711166382,0.31,-0.01,0.49,0.57
27.110859870910645,0.15,0.01,0.5,0.52
27.11374521255493,-0.03,0.09,0.26,0.27
27.129698991775513,-0.11,0.14,0.07,0.19
27.13390302658081,-0.08,0.08,-0.09,0.14
27.14379596710205,-0.02,0.09,-0.22,0.23
27.153735160827637,-0.04,0.09,-0.23,0.25
27.18355703353882,-0.11,0.11,-0.23,0.27
27.184669017791748,-0.32,0.16,-0.2,0.4
27.185822010040283,-0.52,0.28,-0.3,0.66
27.193364143371582,-0.68,0.35,-0.3,0.82
27.203283071517944,-0.78,0.32,-0.26,0.88
27.213003158569336,-0.74,0.22,-0.24,0.8
27.223482131958008,-0.66,0.13,-0.22,0.7
27.23334312438965,-0.47,0.03,-0.26,0.53
27.24307107925415,-0.37,-0.01,-0.29,0.47
27.25300693511963,-0.44,0.1,-0.31,0.54
27.28430700302124,-0.32,0.28,-0.25,0.49
27.285629987716675,-0.38,0.11,-0.2,0.44
27.28664803504944,-0.77,-0.24,-0.18,0.82
27.293544054031372,-0.82,-0.37,-0.22,0.92
27.302550077438354,-0.74,-0.45,-0.49,0.99
27.31239891052246,-1.01,-0.32,-0.58,1.2
27.32256007194519,-1.34,-0.07,-0.32,1.37
27.332417964935303,-1.5,0.12,0.17,1.51
27.342567920684814,-1.23,0.23,0.23,1.27
27.35239601135254,-0.1,0.32,0.74,0.81
27.384663105010986,0.66,0.03,0.85,1.07
27.38603115081787,0.9,-0.35,0.27,1.0
27.38707399368286,1.0,-0.24,-0.11,1.03
27.395212173461914,0.94,-0.09,-0.34,1.0
27.401630878448486,0.47,0.06,-0.95,1.06
27.411598205566406,-0.06,0.11,-1.14,1.14
27.422023057937622,-0.26,0.02,-0.41,0.48
27.431719064712524,-0.47,0.03,0.27,0.54
27.441827058792114,-0.63,0.13,0.25,0.69
27.45163607597351,-0.3,0.14,0.12,0.35
27.483022212982178,0.11,0.39,-0.17,0.43
27.484335899353027,0.58,0.53,-0.43,0.89
27.485310077667236,0.83,0.45,-0.85,1.27
27.494636058807373,0.79,0.4,-1.11,1.41
27.501049041748047,0.57,0.52,-0.89,1.17
27.51228618621826,0.68,0.48,-0.64,1.04
27.52120018005371,0.83,0.49,-0.41,1.04
27.530970096588135,0.84,0.89,-0.09,1.22
27.54106616973877,0.39,1.45,0.38,1.54
27.550743103027344,-0.08,1.14,0.58,1.28
27.59018898010254,-0.07,1.64,0.61,1.75
27.591538906097412,0.07,1.8,0.49,1.86
27.59256410598755,0.22,1.55,-0.02,1.56
27.612721920013428,0.47,1.42,0.31,1.52
27.61410617828369,0.5,1.19,0.23,1.31
27.629348039627075,0.21,1.35,0.2,1.38
27.630799055099487,-0.32,1.41,0.31,1.47
27.646008014678955,-0.58,1.54,0.47,1.71
27.64746904373169,-0.48,1.66,0.65,1.84
27.661237001419067,-0.38,1.71,0.78,1.91
27.690001010894775,-0.19,1.61,0.72,1.77
27.691269874572754,-0.14,1.5,0.36,1.54
27.692266941070557,-0.18,1.44,0.01,1.45
27.71292495727539,-0.39,1.19,-0.27,1.28
27.71398115158081,-0.62,0.84,-0.62,1.21
27.729423999786377,-0.69,0.76,-0.93,1.38
27.7308988571167,-0.58,0.82,-1.11,1.49
27.746353149414062,-0.62,0.64,-1.26,1.54
27.747807025909424,-0.74,0.41,-1.19,1.46
27.760891914367676,-0.66,0.09,-1.06,1.25
27.787344932556152,-0.34,-0.07,-1.03,1.08
27.788708209991455,-0.07,0.44,-1.13,1.21
27.78973698616028,0.25,1.41,-1.18,1.85
27.791439056396484,1.14,2.46,-1.18,2.95
27.812450885772705,2.09,3.03,-1.48,3.96
27.81349802017212,1.3,1.81,-2.28,3.18
27.830368041992188,-0.06,0.23,-2.81,2.82
27.83181405067444,-1.21,-1.22,-3.07,3.51
27.845014095306396,-2.56,-2.94,-3.44,5.19
27.848531007766724,-3.78,-2.4,-3.39,5.61
27.887881994247437,-2.61,-0.27,-2.3,3.48
27.88906717300415,-2.52,-0.73,-2.34,3.51
27.890246868133545,-4.12,-1.31,-3.09,5.31
27.891947031021118,-5.53,-0.9,-3.37,6.53
27.89799690246582,-5.61,0.07,-2.94,6.33
27.908016204833984,-4.79,0.47,-2.3,5.33
27.918046951293945,-4.08,0.33,-1.82,4.47
27.927924156188965,-3.66,0.36,-1.53,3.98
27.938183069229126,-3.54,0.55,-1.37,3.83
27.947911977767944,-3.63,0.7,-1.25,3.9
27.957950115203857,-3.67,0.77,-1.12,3.91
27.98759412765503,-3.53,0.74,-0.88,3.71
27.98877191543579,-3.28,0.73,-0.64,3.42
27.989991188049316,-3.04,0.78,-0.5,3.17
27.99718713760376,-2.94,0.75,-0.59,3.09
28.012588024139404,-2.93,0.71,-0.83,3.12
28.017045974731445,-2.82,0.74,-0.98,3.07
28.026978015899658,-2.55,0.73,-0.86,2.78
28.03725004196167,-2.33,0.76,-0.6,2.52
28.04720902442932,-2.12,0.78,-0.39,2.29
28.05707597732544,-1.86,0.64,-0.31,1.99
28.087332010269165,-1.5,0.39,-0.28,1.57
28.088531970977783,-0.94,0.17,-0.18,0.97
28.089879989624023,-0.3,-0.07,-0.04,0.31
28.09635305404663,0.03,-0.17,0.07,0.18
28.11308002471924,0.01,-0.13,0.12,0.17
28.116310119628906,-0.14,-0.14,0.17,0.26
28.12789011001587,-0.3,-0.12,0.25,0.4
28.136538982391357,-0.4,0.02,0.38,0.55
28.14624309539795,-0.39,0.19,0.62,0.75
28.1563138961792,-0.2,0.2,0.81,0.85
28.18772006034851,0.03,0.12,0.85,0.85
28.188711166381836,0.02,0.19,0.85,0.87
28.189905166625977,-0.08,0.44,0.92,1.02
28.195847034454346,-0.17,0.65,1.03,1.22
28.21266508102417,-0.31,0.74,1.14,1.39
28.215592861175537,-0.5,0.68,1.24,1.5
28.229964017868042,-0.51,0.53,1.33,1.51
28.23565101623535,-0.29,0.44,1.45,1.54
28.24546504020691,-0.02,0.42,1.63,1.68
28.2556049823761,0.21,0.29,1.79,1.82
28.28686809539795,0.47,0.2,1.92,1.98
28.28809905052185,0.86,0.11,1.91,2.09
28.28934907913208,1.39,-0.11,1.62,2.13
28.29496192932129,1.71,-0.25,1.29,2.15
28.312806129455566,1.97,-0.14,1.16,2.29
28.3147931098938,2.33,-0.12,1.21,2.62
28.32954502105713,2.7,-0.2,1.33,3.01
28.335124969482422,3.05,-0.3,1.4,3.36
28.34513807296753,3.39,-0.34,1.46,3.7
28.35502290725708,3.73,-0.33,1.53,4.04
28.393715858459473,4.14,-0.06,1.72,4.48
28.394888877868652,4.35,-0.04,1.89,4.74
28.39589214324951,4.27,-0.19,1.94,4.69
28.413774967193604,4.06,-0.24,1.96,4.51
28.41525101661682,4.01,-0.18,1.92,4.44
28.42949390411377,4.33,-0.18,1.88,4.72
28.430848121643066,4.88,-0.26,1.72,5.18
28.446295976638794,5.46,-0.37,1.44,5.65
28.447746992111206,5.68,-0.51,1.26,5.84
28.4618239402771,4.84,0.68,1.26,5.04
28.49023199081421,3.97,1.16,1.16,4.29
28.491587162017822,4.91,-0.15,1.52,5.14
28.49256205558777,5.38,-0.38,2.37,5.89
28.51356792449951,5.34,-0.77,2.6,5.98
28.51460313796997,5.35,-1.09,2.28,5.91
28.529603958129883,5.66,-1.04,2.2,6.16
28.531053066253662,8.95,0.72,2.84,9.41
28.54676389694214,10.32,1.22,3.5,10.96
28.548309087753296,4.93,1.88,3.74,6.46
28.561983108520508,-1.16,1.45,3.64,4.08
28.590378999710083,-4.4,-0.06,2.76,5.19
28.591773986816406,-3.85,-0.22,0.55,3.89
28.5927791595459,-2.09,1.15,-0.92,2.55
28.613363027572632,-0.08,2.46,0.18,2.46
28.61441206932068,1.91,0.99,2.31,3.15
28.629889011383057,2.55,-0.91,3.17,4.16
28.631362915039062,1.88,-0.83,1.77,2.71
28.646409034729004,0.81,-0.25,-0.2,0.87
28.647879123687744,0.52,-0.08,-1.08,1.2
28.661983966827393,1.03,-0.14,-0.91,1.38
28.689505100250244,1.64,-0.06,-0.34,1.67
28.690874099731445,1.51,0.06,-0.08,1.51
28.691844940185547,0.67,0.05,-0.13,0.68
28.694087982177734,-0.05,0.04,0.04,0.07
28.70196509361267,-0.4,0.15,0.21,0.47
28.71209192276001,-0.64,0.19,0.24,0.7
28.721878051757812,-0.59,0.13,0.41,0.73
28.73215389251709,-0.36,0.08,0.42,0.55
28.741913080215454,-0.22,0.08,0.22,0.32
28.751787185668945,-0.03,0.12,-0.07,0.14
28.76166009902954,0.14,0.22,-0.32,0.41
28.793184995651245,0.16,0.3,-0.57,0.66
28.79433012008667,0.26,0.27,-0.85,0.92
28.7953360080719,0.4,0.23,-1.03,1.12
28.815330982208252,0.33,0.28,-1.19,1.26
28.816800117492676,0.01,0.32,-1.1,1.14
28.82910704612732,-0.21,0.3,-0.78,0.86
28.83108615875244,-0.3,0.2,-0.45,0.57
28.846145153045654,-0.14,0.05,-0.07,0.16
28.85094904899597,0.24,-0.02,0.33,0.4
28.860841989517212,0.45,-0.14,0.5,0.68
28.892582893371582,0.57,-0.3,0.48,0.8
28.893845081329346,0.67,-0.21,0.52,0.87
28.89483904838562,0.6,-0.1,0.63,0.87
28.913569927215576,0.38,-0.1,0.84,0.92
28.914496898651123,0.08,-0.11,0.84,0.85
28.929331064224243,-0.22,-0.05,0.57,0.61
28.930777072906494,-0.42,0.05,0.35,0.54
28.946471214294434,-0.38,0.05,0.32,0.49
28.95020604133606,-0.17,0.02,0.32,0.36
28.960100173950195,0.0,0.1,0.34,0.35
28.99168300628662,0.22,0.14,0.14,0.29
28.99293613433838,0.54,0.14,-0.17,0.58
28.993863105773926,0.62,0.1,-0.23,0.66
29.01357102394104,0.36,-0.04,-0.07,0.36
29.01459002494812,0.11,-0.06,0.09,0.15
29.03001308441162,-0.14,0.04,0.18,0.23
29.03151512145996,-0.33,0.16,0.12,0.38
29.046563148498535,-0.43,0.24,-0.15,0.51
29.04949402809143,-0.61,0.32,-0.52,0.86
29.061819076538086,-0.65,0.3,-0.69,0.99
29.091975212097168,-0.49,0.24,-0.6,0.81
29.093345165252686,-0.33,0.21,-0.4,0.55
29.094336986541748,-0.51,0.21,-0.48,0.73
29.113455057144165,-0.86,0.17,-0.62,1.07
29.114485025405884,-1.1,0.23,-0.54,1.24
29.129703044891357,-1.34,0.32,-0.4,1.43
29.131161212921143,-1.32,0.34,-0.35,1.4
29.14663600921631,-1.12,0.24,-0.29,1.18
29.148685932159424,-1.16,0.22,-0.31,1.22
29.16208791732788,-1.21,0.15,-0.5,1.31
29.196495056152344,-1.26,0.01,-0.63,1.4
29.19789695739746,-1.1,0.1,-0.7,1.3
29.198875904083252,-0.86,0.02,-0.59,1.04
29.21427011489868,-0.86,0.05,-0.52,1.0
29.215646028518677,-0.95,0.03,-0.65,1.15
29.229995012283325,-1.07,0.08,-0.66,1.25
29.231453895568848,-1.08,0.21,-0.68,1.29
29.246942043304443,-0.33,0.6,-0.43,0.8
29.248444080352783,0.1,0.57,-0.42,0.71
29.26199197769165,0.25,0.12,-0.66,0.71
29.295775890350342,0.33,-0.07,-0.59,0.67
29.297163009643555,0.41,-0.28,-0.13,0.51
29.298176050186157,0.31,-0.15,-0.1,0.35
29.31382417678833,-0.03,0.11,-0.41,0.42
29.314841985702515,-0.06,0.34,-0.58,0.67
29.32995891571045,0.58,0.66,-0.52,1.02
29.331440925598145,1.63,1.02,-0.39,1.96
29.346723079681396,2.26,0.95,-0.22,2.46
29.348175048828125,2.14,0.78,0.41,2.31
29.36216902732849,1.38,0.72,1.14,1.92
29.395119190216064,0.29,1.24,1.59,2.03
29.396472930908203,-0.27,1.45,1.49,2.09
29.39744997024536,-0.54,1.54,1.38,2.13
29.414166927337646,-0.45,1.31,1.12,1.78
29.41570520401001,-0.31,1.26,0.47,1.38
29.43009614944458,-0.2,1.56,-0.29,1.59
29.43157196044922,-0.1,1.76,-0.92,1.98
29.446940898895264,-0.08,1.79,-1.52,2.34
29.448379039764404,-0.01,1.62,-1.7,2.34
29.462400913238525,0.1,1.26,-1.53,1.98
29.49294400215149,0.07,0.88,-1.24,1.52
29.494279861450195,-0.04,0.53,-0.87,1.01
29.495352029800415,-0.33,0.44,-0.62,0.82
29.513683080673218,-0.26,0.88,0.08,0.92
29.514739990234375,-0.31,1.26,0.6,1.42
29.530220985412598,-0.44,1.27,0.53,1.44
29.531702041625977,-0.65,0.99,0.35,1.23
29.546962022781372,-0.98,0.65,0.07,1.17
29.548423051834106,-1.3,0.5,-0.19,1.4
29.562395095825195,-1.29,0.44,-0.49,1.44
29.565590858459473,-1.32,0.28,-0.54,1.45
29.6079740524292,-1.31,0.77,-0.76,1.69
29.609126091003418,-1.23,1.26,-1.12,2.08
29.61013698577881,-0.95,1.56,-1.22,2.19
29.61227297782898,-0.6,1.57,-1.38,2.17
29.61493706703186,0.17,2.17,-1.12,2.44
29.625001907348633,1.25,3.13,-1.35,3.63
29.635425090789795,0.75,2.36,-1.92,3.13
29.64528799057007,-0.24,1.27,-2.09,2.45
29.65516185760498,-0.62,0.65,-2.05,2.23
29.665139198303223,-0.84,-0.05,-2.17,2.32
29.696518898010254,-0.96,-0.57,-2.34,2.59
29.697695016860962,-1.5,-1.41,-2.83,3.49
29.69868302345276,-2.66,-1.71,-3.1,4.42
29.71251916885376,-2.48,-0.78,-2.22,3.41
29.714119911193848,-2.57,-1.2,-2.4,3.71
29.729945182800293,-4.0,-1.4,-3.19,5.3
29.73427104949951,-5.39,-1.52,-3.19,6.44
29.744548082351685,-5.55,-1.66,-2.46,6.29
29.754266023635864,-4.63,-1.68,-1.69,5.2
29.76455807685852,-3.93,-1.78,-1.3,4.5
29.79542303085327,-3.76,-1.56,-1.31,4.27
29.796876907348633,-3.78,-0.9,-1.48,4.15
29.797880172729492,-3.83,-0.21,-1.53,4.12
29.81468105316162,-3.71,0.18,-1.26,3.92
29.81573486328125,-3.51,0.47,-0.7,3.6
29.830411911010742,-3.33,0.68,-0.08,3.39
29.833632946014404,-3.18,0.73,0.35,3.28
29.846006870269775,-3.08,0.62,0.35,3.16
29.853629112243652,-3.15,0.51,0.13,3.19
29.863209009170532,-3.41,0.51,-0.12,3.45
29.894052028656006,-3.71,0.6,-0.29,3.76
29.895323991775513,-3.78,0.83,-0.62,3.91
29.896323204040527,-3.26,0.99,-0.73,3.48
29.913994073867798,-2.31,1.21,-0.46,2.64
29.91506004333496,-1.43,1.33,-0.24,1.96
29.93044400215149,-1.07,1.5,-0.02,1.84
29.9328670501709,-0.66,1.44,0.0,1.58
29.94710397720337,-0.18,0.99,-0.17,1.02
29.952739000320435,0.07,0.72,-0.27,0.77
29.962557077407837,0.35,0.71,-0.2,0.81
29.999483108520508,0.65,0.94,0.01,1.14
30.000779151916504,0.8,1.01,0.3,1.32
30.001840114593506,0.62,0.88,0.64,1.25
30.013990879058838,0.3,0.74,1.05,1.31
30.01504421234131,-0.02,0.62,1.39,1.52
30.030564069747925,-0.4,0.46,1.72,1.82
30.03215003013611,-0.38,0.32,2.03,2.08
30.047129154205322,0.18,0.17,2.23,2.24
30.052051067352295,0.79,-0.06,2.06,2.2
30.0623459815979,0.96,-0.23,1.67,1.93
30.10094118118286,0.92,-0.37,1.49,1.78
30.102792024612427,1.12,-0.52,1.45,1.9
30.103825092315674,1.55,-0.56,1.51,2.23
