time,ax,ay,az,atotal
0.0023069381713867188,0.43,-0.22,-0.19,0.51
0.01233983039855957,0.18,-0.1,-0.07,0.21
0.0222318172454834,-0.15,0.03,-0.05,0.16
0.03213191032409668,-0.16,0.03,-0.12,0.2
0.06056404113769531,0.02,-0.04,-0.2,0.2
0.0610201358795166,0.14,-0.04,-0.21,0.25
0.06203293800354004,0.14,0.0,-0.12,0.18
0.07208085060119629,0.2,-0.01,-0.11,0.22
0.08214116096496582,0.15,0.06,-0.17,0.23
0.09208798408508301,0.09,0.03,-0.22,0.23
0.1020970344543457,-0.07,-0.02,-0.22,0.23
0.1120610237121582,-0.24,-0.01,-0.21,0.31
0.12215399742126465,-0.25,-0.03,-0.16,0.29
0.1320631504058838,-0.19,-0.04,-0.08,0.21
0.16071486473083496,-0.13,-0.02,-0.01,0.13
0.16119790077209473,-0.07,-0.03,0.05,0.09
0.16193890571594238,-0.01,-0.06,0.14,0.15
0.17194581031799316,0.01,-0.09,0.14,0.16
0.18237709999084473,-0.03,-0.06,0.07,0.09
0.19197893142700195,-0.04,-0.04,0.05,0.07
0.20198297500610352,-0.01,-0.05,0.08,0.09
0.21195602416992188,0.1,-0.02,0.16,0.18
0.24253201484680176,0.31,0.0,0.19,0.36
0.24297595024108887,0.39,-0.03,0.16,0.42
0.2433779239654541,0.39,-0.03,0.14,0.41
0.2518799304962158,0.54,0.01,0.1,0.54
0.2619049549102783,0.52,0.04,-0.04,0.52
0.2718698978424072,0.21,0.0,-0.1,0.23
0.2817800045013428,0.03,0.02,-0.18,0.18
0.29172801971435547,-0.02,0.06,-0.26,0.26
0.3019280433654785,0.01,0.02,-0.18,0.18
0.3120138645172119,0.03,-0.01,-0.1,0.1
0.34352898597717285,0.03,-0.04,-0.06,0.07
0.34395909309387207,-0.1,-0.08,-0.01,0.12
0.34438014030456543,-0.26,-0.08,0.02,0.27
0.3517191410064697,-0.29,-0.05,0.02,0.29
0.36173510551452637,-0.22,-0.04,0.05,0.22
0.3717539310455322,-0.13,-0.05,0.1,0.17
0.38167691230773926,-0.06,-0.01,0.12,0.13
0.39157700538635254,0.01,0.01,0.11,0.11
0.4016721248626709,0.0,-0.01,0.06,0.06
0.41167283058166504,-0.08,-0.02,-0.02,0.08
0.44288086891174316,-0.17,-0.01,-0.09,0.19
0.4433290958404541,-0.21,-0.04,-0.06,0.22
0.4437689781188965,-0.1,-0.08,0.01,0.12
0.451617956161499,0.03,-0.07,0.03,0.08
0.4615459442138672,0.08,-0.03,0.01,0.08
0.47150111198425293,0.01,-0.05,0.01,0.05
0.4815199375152588,0.02,-0.01,0.02,0.03
0.49148011207580566,0.07,0.0,0.02,0.07
0.5013878345489502,-0.01,-0.02,-0.05,0.05
0.5115368366241455,-0.09,-0.01,-0.12,0.15
0.5436630249023438,-0.03,0.0,-0.12,0.12
0.5440969467163086,0.07,-0.01,-0.09,0.11
0.5445301532745361,0.11,-0.02,-0.03,0.11
0.551318883895874,0.11,-0.01,0.02,0.11
0.5613601207733154,0.12,-0.01,0.0,0.12
0.5713880062103271,0.14,-0.04,-0.08,0.16
0.5813150405883789,0.1,0.0,-0.14,0.17
0.5913541316986084,0.01,0.01,-0.15,0.15
0.6012098789215088,-0.05,0.01,-0.13,0.13
0.6114039421081543,-0.03,0.02,-0.14,0.14
0.6425268650054932,0.0,0.01,-0.1,0.1
0.6429710388183594,0.05,-0.02,-0.07,0.08
0.6434061527252197,0.09,-0.05,0.02,0.1
0.651015043258667,0.09,-0.03,0.05,0.1
0.6611669063568115,0.02,0.01,0.06,0.06
0.6712219715118408,0.02,0.01,0.09,0.09
0.6811909675598145,0.07,-0.02,0.09,0.11
0.6911849975585938,-0.06,-0.01,0.01,0.06
0.7011058330535889,-0.19,0.01,-0.02,0.19
0.7111389636993408,-0.08,0.01,0.01,0.08
0.7425179481506348,0.06,-0.02,0.06,0.08
0.742962121963501,0.06,-0.01,0.03,0.06
0.7433888912200928,0.05,0.0,0.01,0.05
0.7509958744049072,0.05,0.01,-0.04,0.06
0.7610528469085693,0.0,0.02,-0.09,0.09
0.7709300518035889,-0.02,-0.03,-0.08,0.08
0.780951976776123,-0.02,-0.05,-0.1,0.11
0.7909529209136963,0.01,0.01,-0.16,0.16
0.800987958908081,0.13,0.03,-0.22,0.25
0.8109309673309326,0.24,0.05,-0.24,0.34
0.8439960479736328,0.13,0.0,-0.08,0.15
0.844473123550415,-0.11,-0.04,0.05,0.12
0.844918966293335,-0.19,-0.04,0.01,0.19
0.851060152053833,-0.14,-0.04,-0.09,0.17
0.8607800006866455,-0.11,-0.1,-0.1,0.17
0.8708341121673584,-0.12,-0.07,-0.09,0.16
0.8808419704437256,-0.09,-0.01,-0.05,0.1
0.8908131122589111,0.01,0.0,0.06,0.06
0.9010469913482666,0.04,-0.01,0.11,0.11
0.9108870029449463,0.03,-0.02,0.09,0.09
0.944066047668457,-0.05,-0.02,0.06,0.08
0.94451904296875,-0.11,-0.04,-0.01,0.11
0.944983959197998,-0.1,-0.07,-0.11,0.16
0.9505341053009033,-0.1,-0.07,-0.11,0.16
0.9608371257781982,-0.17,-0.03,-0.07,0.18
0.9707229137420654,-0.19,-0.02,-0.03,0.19
0.980679988861084,-0.17,-0.01,-0.03,0.17
0.9908299446105957,-0.14,0.0,0.0,0.14
1.000641107559204,-0.03,0.0,0.0,0.03
1.010638952255249,-0.03,0.0,0.0,0.03
1.0440590381622314,-0.1,0.01,0.01,0.1
1.0445430278778076,-0.12,0.0,-0.02,0.12
1.0450079441070557,-0.14,-0.04,-0.03,0.14
1.0506870746612549,-0.2,-0.04,-0.06,0.21
1.0606448650360107,-0.24,-0.03,-0.04,0.24
1.0707590579986572,-0.21,-0.08,0.06,0.23
1.0806920528411865,-0.16,-0.06,0.13,0.21
1.0906388759613037,-0.09,0.0,0.12,0.15
1.100567102432251,-0.07,-0.03,0.11,0.13
1.1104629039764404,-0.07,-0.05,0.09,0.12
1.1447579860687256,0.05,-0.01,0.0,0.05
1.1455919742584229,0.11,-0.01,-0.01,0.11
1.1460411548614502,0.1,-0.03,-0.05,0.11
1.1504170894622803,0.15,0.0,-0.12,0.19
1.1604559421539307,0.23,0.0,-0.11,0.25
1.1704471111297607,0.35,-0.03,-0.1,0.36
1.180523157119751,0.42,0.01,-0.18,0.45
1.1905159950256348,0.34,-0.02,-0.2,0.39
1.2004368305206299,0.31,-0.01,-0.11,0.32
1.2103359699249268,0.4,0.06,-0.14,0.42
1.2454969882965088,0.28,0.03,-0.09,0.29
1.2461779117584229,0.19,0.02,-0.03,0.19
1.2466418743133545,0.25,0.05,-0.05,0.25
1.2502758502960205,0.22,0.02,0.02,0.22
1.2602589130401611,0.17,0.01,0.07,0.18
1.2703378200531006,0.15,0.01,0.08,0.17
1.2803080081939697,0.06,-0.09,0.05,0.11
1.2903101444244385,-0.01,-0.03,-0.03,0.04
1.300281047821045,-0.13,-0.05,-0.08,0.16
1.3102450370788574,-0.24,-0.09,-0.03,0.25
1.3452379703521729,-0.21,-0.06,0.01,0.21
1.3459219932556152,-0.23,-0.04,0.06,0.24
1.3463718891143799,-0.21,-0.04,0.16,0.26
1.3501241207122803,-0.14,-0.06,0.12,0.19
1.3601789474487305,-0.16,-0.05,0.06,0.17
1.3703179359436035,-0.13,-0.02,0.04,0.13
1.3800971508026123,-0.09,-0.02,0.0,0.09
1.3901708126068115,-0.1,-0.06,0.01,0.11
1.400097131729126,-0.04,-0.02,0.01,0.04
1.4101269245147705,-0.09,-0.02,0.11,0.14
1.4451048374176025,-0.12,-0.02,0.14,0.18
1.4457738399505615,0.05,-0.01,0.03,0.05
1.4462201595306396,0.15,-0.01,-0.03,0.15
1.4500081539154053,0.14,0.01,-0.1,0.17
1.4600141048431396,0.19,-0.01,-0.16,0.24
1.4700050354003906,0.13,-0.03,-0.12,0.17
1.4800269603729248,0.11,-0.02,-0.09,0.14
1.4899680614471436,0.27,0.02,-0.1,0.28
1.4999778270721436,0.29,0.0,-0.12,0.31
1.5099279880523682,0.27,0.03,-0.16,0.31
1.5457439422607422,0.21,0.04,-0.19,0.28
1.546220064163208,0.04,-0.03,-0.12,0.13
1.5466878414154053,-0.17,-0.02,-0.03,0.17
1.5498340129852295,-0.21,-0.04,0.07,0.22
1.559880018234253,-0.1,-0.02,-0.04,0.1
1.5697858333587646,0.06,-0.05,-0.16,0.17
1.5798659324645996,0.02,-0.09,-0.1,0.13
1.5898289680480957,-0.21,-0.04,-0.08,0.22
1.599761962890625,-0.35,0.0,-0.01,0.35
1.609740972518921,-0.35,-0.02,-0.01,0.35
1.6447060108184814,-0.28,-0.02,0.03,0.28
1.6454010009765625,-0.23,-0.04,0.07,0.24
1.6458289623260498,-0.26,-0.04,0.07,0.27
1.649704933166504,-0.39,-0.06,0.06,0.39
1.6597020626068115,-0.44,-0.07,0.01,0.44
1.6697418689727783,-0.4,-0.08,-0.02,0.4
1.679671049118042,-0.24,-0.06,-0.02,0.24
1.689723014831543,-0.05,-0.03,0.03,0.06
1.6996500492095947,0.11,0.01,0.03,0.11
1.7094719409942627,0.2,0.01,0.02,0.2
1.745223045349121,0.33,0.03,0.01,0.33
1.7456691265106201,0.33,0.08,-0.13,0.36
1.746086835861206,0.11,0.04,-0.25,0.27
1.7495181560516357,0.11,-0.02,-0.31,0.32
1.759526014328003,0.14,-0.04,-0.28,0.31
1.769515037536621,0.08,-0.01,-0.15,0.17
1.779498815536499,0.06,-0.03,0.02,0.06
1.7895281314849854,0.09,-0.02,0.04,0.1
1.7995269298553467,0.08,0.02,0.02,0.08
1.809330940246582,0.08,-0.01,0.06,0.1
1.845163106918335,0.05,-0.04,0.1,0.11
1.8456089496612549,-0.01,-0.04,0.11,0.11
1.846012830734253,-0.09,-0.05,0.06,0.11
1.849390983581543,-0.07,-0.02,0.02,0.07
1.8594000339508057,-0.1,-0.03,-0.02,0.1
1.8693201541900635,-0.15,0.01,-0.01,0.15
1.8792619705200195,-0.16,-0.01,0.02,0.16
1.8893489837646484,-0.11,-0.02,-0.01,0.11
1.8993279933929443,-0.08,-0.06,-0.08,0.12
1.909317970275879,-0.14,-0.08,-0.17,0.23
1.9461700916290283,-0.22,-0.08,-0.16,0.28
1.9466209411621094,-0.21,-0.05,-0.13,0.25
1.9470820426940918,-0.22,-0.04,-0.09,0.24
1.9492559432983398,-0.23,-0.03,-0.06,0.23
1.9592440128326416,-0.15,-0.03,0.0,0.15
1.969041109085083,0.0,-0.04,0.02,0.04
1.9791779518127441,0.05,-0.03,-0.03,0.06
1.989243984222412,0.07,-0.01,-0.1,0.12
1.999197006225586,0.0,-0.05,-0.12,0.13
2.0091609954833984,-0.1,-0.05,-0.13,0.17
2.0465738773345947,-0.08,-0.02,-0.1,0.12
2.0470468997955322,-0.01,0.0,-0.08,0.08
2.047492027282715,0.11,0.0,-0.03,0.11
2.0490310192108154,0.17,0.02,-0.02,0.17
2.0590929985046387,0.14,-0.01,-0.03,0.14
2.0688469409942627,0.11,0.0,-0.09,0.14
2.0789990425109863,0.11,0.0,-0.15,0.18
2.0891010761260986,0.1,-0.01,-0.13,0.16
2.0990519523620605,0.22,0.04,-0.07,0.23
2.1090481281280518,0.36,0.09,0.01,0.37
2.1463630199432373,0.29,0.04,0.11,0.31
2.1468310356140137,0.07,0.01,0.06,0.09
2.147274971008301,-0.17,0.01,-0.05,0.17
2.1488640308380127,-0.16,-0.04,-0.1,0.19
2.1589510440826416,-0.17,-0.03,-0.07,0.18
2.168972969055176,-0.2,-0.02,-0.02,0.2
2.1789391040802,-0.21,-0.07,0.04,0.22
2.1889419555664062,-0.33,-0.08,0.09,0.35
2.1987521648406982,-0.43,-0.06,0.15,0.45
2.208881139755249,-0.33,-0.04,0.14,0.36
2.2465031147003174,-0.13,-0.04,0.12,0.18
2.2469539642333984,-0.06,-0.06,0.11,0.13
2.2474160194396973,-0.04,-0.03,0.06,0.07
2.248775005340576,-0.01,0.01,0.05,0.05
2.2587380409240723,0.01,0.02,0.01,0.02
2.2689998149871826,0.03,-0.01,-0.08,0.08
2.278658151626587,-0.03,-0.02,-0.15,0.15
2.2886769771575928,0.0,-0.03,-0.24,0.24
2.298678159713745,0.15,-0.03,-0.3,0.33
2.308710813522339,0.23,-0.04,-0.23,0.32
2.3186161518096924,0.24,-0.02,-0.17,0.29
2.3463189601898193,0.27,-0.02,-0.15,0.3
2.3467209339141846,0.17,0.01,-0.15,0.22
2.348602056503296,0.0,0.0,-0.11,0.11
2.3585870265960693,-0.03,0.01,0.0,0.03
2.3686630725860596,0.0,0.0,0.07,0.07
2.3785579204559326,0.0,-0.03,0.1,0.1
2.388535976409912,-0.01,-0.03,0.07,0.07
2.398582935333252,-0.03,-0.08,0.06,0.1
2.4085609912872314,-0.13,-0.07,0.05,0.15
2.418548822402954,-0.22,-0.02,0.03,0.22
2.446531057357788,-0.23,-0.03,0.05,0.23
2.4469399452209473,-0.2,-0.03,0.05,0.2
2.4484140872955322,-0.11,0.02,0.04,0.11
2.458482027053833,-0.04,0.01,0.03,0.05
2.4684360027313232,0.03,-0.02,0.01,0.03
2.4784109592437744,0.05,-0.03,-0.07,0.09
2.4884378910064697,0.1,-0.05,-0.09,0.14
2.4983460903167725,0.12,-0.05,-0.08,0.15
2.5083799362182617,0.04,0.0,-0.02,0.04
2.5183398723602295,0.01,0.01,-0.01,0.01
2.546772003173828,0.04,0.01,0.01,0.04
2.5472381114959717,0.06,0.01,0.01,0.06
2.5482330322265625,0.09,-0.01,-0.03,0.09
2.558335065841675,0.09,0.0,-0.06,0.1
2.568262815475464,0.11,-0.01,-0.06,0.12
2.5782158374786377,0.13,0.01,-0.09,0.15
2.5882840156555176,0.09,-0.01,-0.07,0.11
2.598201036453247,0.02,0.0,-0.1,0.1
2.608232021331787,-0.02,0.02,-0.23,0.23
2.618048906326294,0.04,0.0,-0.29,0.29
2.646360158920288,0.06,-0.06,-0.13,0.15
2.6468050479888916,-0.02,-0.04,0.04,0.06
2.6481211185455322,-0.03,-0.01,0.1,0.1
2.6581549644470215,0.01,0.0,0.06,0.06
2.668215036392212,-0.03,0.0,0.0,0.03
2.6780669689178467,-0.03,-0.02,-0.01,0.03
2.688107967376709,-0.1,-0.04,0.01,0.1
2.6980698108673096,-0.12,-0.05,-0.02,0.13
2.708055019378662,-0.14,-0.05,0.01,0.14
2.7179930210113525,-0.16,-0.05,0.01,0.16
2.746659994125366,-0.13,-0.07,0.05,0.15
2.7471020221710205,-0.03,-0.02,0.0,0.03
2.7479569911956787,0.16,-0.03,0.02,0.16
2.757972002029419,0.27,0.01,0.06,0.27
2.7679498195648193,0.16,0.03,0.08,0.18
2.7779548168182373,0.03,0.0,0.04,0.05
2.7879199981689453,0.04,-0.06,-0.03,0.07
2.797912836074829,0.09,-0.06,-0.07,0.12
2.8079259395599365,0.04,0.0,-0.08,0.08
2.8176610469818115,-0.07,-0.01,-0.05,0.08
2.847506046295166,-0.11,0.01,0.01,0.11
2.847937822341919,-0.07,0.01,0.0,0.07
2.8483541011810303,0.04,0.02,0.02,0.04
2.8579018115997314,0.05,0.0,-0.02,0.05
2.867802858352661,-0.05,0.01,-0.07,0.08
2.877645969390869,-0.08,-0.01,-0.1,0.12
2.887852907180786,-0.04,0.0,-0.12,0.12
2.8977890014648438,-0.14,-0.04,-0.09,0.17
2.9077630043029785,-0.25,-0.05,-0.06,0.26
2.9177749156951904,-0.23,-0.06,0.03,0.23
2.947406053543091,-0.28,-0.01,0.08,0.29
2.9478518962860107,-0.3,-0.03,0.1,0.31
2.9482901096343994,-0.23,-0.02,0.07,0.24
2.957738161087036,-0.13,-0.03,0.02,0.13
2.9676568508148193,-0.01,-0.06,0.07,0.09
2.9776079654693604,0.07,-0.05,0.08,0.11
2.9876549243927,0.16,-0.05,0.07,0.18
2.9976518154144287,0.11,-0.03,0.01,0.11
3.0076558589935303,-0.02,-0.04,-0.04,0.06
3.0174570083618164,-0.09,-0.03,-0.03,0.09
3.0470190048217773,-0.05,-0.03,-0.07,0.09
3.047438859939575,0.12,0.0,-0.09,0.15
3.0478808879852295,0.15,0.02,-0.13,0.19
3.057573080062866,0.09,0.0,-0.08,0.12
3.0674500465393066,0.12,0.02,-0.06,0.13
3.0774648189544678,0.11,0.0,-0.04,0.11
3.087455987930298,0.1,-0.04,-0.15,0.18
3.097501039505005,0.07,-0.04,-0.14,0.16
3.1074941158294678,0.02,-0.02,-0.09,0.09
3.117410898208618,-0.05,-0.02,-0.08,0.09
3.1475260257720947,-0.07,-0.01,-0.04,0.08
3.1479530334472656,-0.1,0.0,-0.04,0.1
3.148376941680908,-0.13,-0.07,-0.02,0.14
3.157396078109741,-0.17,-0.08,0.02,0.18
3.1673779487609863,-0.19,-0.06,0.05,0.2
3.177375078201294,-0.2,-0.01,0.1,0.22
3.1872689723968506,-0.19,-0.03,0.07,0.2
3.1972999572753906,-0.03,0.01,0.02,0.03
3.207379102706909,0.04,0.0,0.02,0.04
3.2173449993133545,0.03,-0.05,-0.01,0.05
3.2476518154144287,0.0,-0.06,-0.04,0.07
3.2480950355529785,-0.08,-0.08,0.01,0.11
3.2485320568084717,-0.22,-0.06,0.06,0.23
3.2571980953216553,-0.25,-0.01,0.07,0.25
3.2670700550079346,-0.15,0.02,0.09,0.17
3.277132987976074,0.01,0.04,0.07,0.08
3.286997079849243,0.11,0.04,0.01,0.11
3.2971408367156982,0.15,0.02,-0.1,0.18
3.307131052017212,0.21,0.07,-0.23,0.31
3.3170359134674072,0.16,0.07,-0.34,0.38
3.3480169773101807,0.1,0.07,-0.39,0.4
3.3484530448913574,0.16,0.08,-0.31,0.35
3.348883867263794,0.18,0.09,-0.17,0.26
3.3569769859313965,0.08,0.04,0.05,0.1
3.3670051097869873,0.26,-0.09,0.13,0.3
3.377048969268799,0.41,-0.04,0.0,0.41
3.386847972869873,0.34,0.08,-0.04,0.35
3.397019147872925,0.13,0.09,0.09,0.18
3.4070470333099365,-0.07,0.09,0.11,0.15
3.416978120803833,-0.07,0.09,0.06,0.12
3.4473469257354736,0.07,0.01,-0.03,0.07
3.447787046432495,0.06,-0.09,-0.24,0.26
3.448213815689087,0.0,-0.07,-0.32,0.32
3.4569008350372314,-0.07,-0.07,-0.26,0.27
3.4667208194732666,-0.07,-0.02,-0.19,0.2
3.4768669605255127,-0.02,-0.09,-0.09,0.12
3.4869191646575928,-0.12,-0.06,-0.24,0.27
3.4967780113220215,-0.1,0.04,-0.33,0.34
3.506891965866089,-0.14,-0.04,-0.21,0.25
3.516845941543579,-0.25,-0.11,-0.24,0.36
3.5475409030914307,-0.25,-0.08,-0.26,0.36
3.5479509830474854,-0.18,-0.04,-0.11,0.21
3.548382043838501,-0.17,-0.06,0.01,0.18
3.5568289756774902,-0.07,-0.05,0.08,0.11
3.5666868686676025,-0.04,-0.04,0.17,0.17
3.576725959777832,-0.14,-0.02,0.27,0.3
3.5869979858398438,-0.14,0.06,0.43,0.45
3.596513032913208,-0.07,0.11,0.63,0.64
3.606736898422241,0.01,0.1,0.8,0.8
3.6166751384735107,-0.02,0.07,0.78,0.78
3.6478400230407715,0.26,0.1,0.77,0.81
3.64827299118042,0.32,-0.1,0.9,0.96
3.6486928462982178,0.3,0.05,0.61,0.68
3.6566059589385986,0.33,0.01,0.31,0.45
3.666541814804077,0.24,0.06,-0.01,0.24
3.676543951034546,-0.17,-0.01,-0.15,0.22
3.6865220069885254,-0.56,-0.13,-0.49,0.75
3.6965270042419434,-0.34,-0.27,-0.8,0.91
3.706557035446167,-0.16,-0.33,-0.89,0.96
3.7165138721466064,-0.25,-0.28,-1.06,1.12
3.748305082321167,0.01,-0.29,-1.13,1.16
3.7487409114837646,0.23,0.08,-0.77,0.8
3.7491648197174072,-0.56,0.02,0.14,0.57
3.7565109729766846,-0.31,-0.05,0.34,0.46
3.766400098800659,0.4,-0.09,0.47,0.62
3.7763710021972656,0.95,-0.09,0.28,0.99
3.7863681316375732,1.11,0.07,-0.01,1.11
3.7964508533477783,0.64,0.0,-0.2,0.67
3.806443929672241,0.06,-0.11,-0.07,0.14
3.8162949085235596,-0.23,-0.09,0.04,0.25
3.849050998687744,-0.24,0.02,0.07,0.25
3.84948992729187,-0.22,0.0,0.15,0.26
3.849919080734253,-0.1,0.02,0.13,0.16
3.8563010692596436,0.05,-0.03,0.04,0.07
3.866353988647461,0.2,-0.17,0.03,0.26
3.8762800693511963,-0.07,-0.15,0.07,0.17
3.8861749172210693,-0.28,0.04,0.24,0.37
3.8970420360565186,-0.34,0.07,0.38,0.51
3.9062139987945557,-0.33,0.03,0.17,0.37
3.9162099361419678,-0.29,0.0,-0.05,0.29
3.948876142501831,-0.16,-0.03,0.04,0.16
3.949291944503784,-0.16,-0.04,0.08,0.18
3.949683904647827,-0.31,-0.04,0.16,0.35
3.9560911655426025,-0.49,-0.07,0.25,0.55
3.966092824935913,-0.25,0.05,0.07,0.26
3.976091146469116,0.14,0.15,0.07,0.21
3.9860761165618896,0.22,0.05,0.2,0.3
3.9960639476776123,0.0,-0.06,-0.16,0.17
4.006072998046875,0.4,-0.08,-0.31,0.51
4.016002893447876,0.78,0.01,0.02,0.78
4.049072027206421,-0.03,0.07,-0.04,0.08
4.049500942230225,-0.44,0.02,-0.41,0.6
4.04991888999939,0.37,-0.06,-0.33,0.49
4.056025981903076,0.44,-0.07,-0.36,0.57
4.065997838973999,-0.17,-0.05,-0.01,0.17
4.075988054275513,-0.57,-0.01,0.75,0.94
4.085935831069946,-0.42,-0.11,0.7,0.82
4.095800161361694,0.04,-0.19,0.35,0.4
4.105872869491577,-0.12,-0.16,-0.27,0.33
4.115846872329712,-0.86,-0.11,-0.88,1.23
4.148514986038208,-1.48,-0.02,-1.16,1.88
4.148942947387695,-1.35,0.02,-0.98,1.66
4.149361848831177,-0.86,-0.01,-0.45,0.97
4.155883073806763,-0.3,0.0,-0.02,0.3
4.165750026702881,0.27,-0.03,0.18,0.32
4.175760984420776,0.74,-0.04,0.18,0.76
4.185762166976929,1.1,0.0,0.36,1.15
4.195739030838013,0.92,0.01,0.5,1.04
4.205766916275024,0.19,0.01,0.35,0.39
4.215677976608276,-0.49,-0.01,0.22,0.53
4.249032974243164,-0.67,-0.09,-0.02,0.67
4.249462842941284,-0.52,-0.14,-0.08,0.54
4.249891042709351,-0.49,-0.19,0.04,0.52
4.255743026733398,-0.59,-0.09,0.13,0.61
4.2656190395355225,-0.53,0.01,0.11,0.54
4.27568507194519,-0.09,0.0,0.33,0.34
4.2855918407440186,0.18,-0.11,0.4,0.45
4.295612096786499,0.38,-0.04,0.19,0.42
4.305660963058472,0.47,0.17,-0.11,0.51
4.315636873245239,0.23,0.1,-0.1,0.27
4.349623918533325,-0.19,0.05,-0.37,0.41
4.350067853927612,-0.4,0.03,-0.94,1.02
4.350806951522827,-0.5,-0.05,-0.91,1.03
4.355508089065552,-0.39,-0.03,-0.62,0.73
4.365504026412964,-0.11,0.11,-0.41,0.43
4.37642502784729,0.02,0.12,-0.3,0.32
4.385515928268433,-0.04,0.06,-0.36,0.36
4.395384073257446,-0.1,0.06,-0.38,0.39
4.405358076095581,-0.11,0.05,-0.55,0.56
4.415379047393799,0.01,0.07,-0.55,0.55
4.449671983718872,0.14,0.12,-0.45,0.48
4.4504358768463135,0.17,0.14,-0.36,0.42
4.450850009918213,0.1,0.14,-0.28,0.32
4.4553210735321045,-0.17,0.05,-0.33,0.37
4.465304136276245,-0.27,-0.01,-0.42,0.49
4.475353956222534,-0.04,0.04,-0.29,0.29
4.4853270053863525,-0.05,0.12,-0.22,0.25
4.495321989059448,0.04,0.22,-0.43,0.48
4.505112886428833,0.09,0.22,-0.54,0.59
4.51521897315979,0.16,0.22,-0.53,0.59
4.549504041671753,0.37,0.37,-0.74,0.9
4.5502610206604,0.83,0.38,-0.7,1.15
4.55068302154541,1.53,0.19,-0.12,1.54
4.555052995681763,2.46,0.04,0.33,2.48
4.565207004547119,3.18,-0.02,0.62,3.23
4.575195074081421,2.98,-0.05,0.69,3.05
4.585137128829956,2.12,-0.13,0.97,2.33
4.595074892044067,1.23,-0.45,1.5,1.99
4.604980945587158,1.0,-0.45,1.75,2.06
4.615065813064575,1.01,-0.12,1.62,1.91
4.649912118911743,0.49,0.03,1.16,1.25
4.650586843490601,-0.45,-0.16,0.58,0.75
4.6510169506073,-1.44,-0.58,-1.14,1.92
4.654943943023682,-2.51,-0.97,-3.19,4.17
4.665050029754639,-3.35,-0.62,-3.8,5.1
4.674901962280273,-3.15,-0.32,-2.96,4.33
4.684838056564331,-2.21,-1.06,-1.6,2.92
4.69501805305481,-1.63,-1.38,-0.88,2.3
4.7048749923706055,-1.01,-1.48,-0.74,1.93
4.714968919754028,-1.27,-1.52,-0.82,2.14
4.749910116195679,-1.53,-1.51,-0.36,2.17
4.750531911849976,-0.73,-1.13,0.44,1.41
4.75095796585083,0.07,0.0,0.78,0.78
4.7548911571502686,1.36,2.14,1.64,3.01
4.764849901199341,2.48,3.13,4.46,5.98
4.774885892868042,2.71,2.63,7.13,8.06
4.784834146499634,2.9,0.04,5.31,6.05
4.79483699798584,2.12,-0.29,0.8,2.28
4.804885149002075,0.57,0.6,-1.07,1.35
4.814783811569214,0.25,0.15,-1.02,1.06
4.85074782371521,0.32,-0.1,-1.1,1.14
4.851181983947754,0.11,-0.24,-1.66,1.68
4.851600885391235,-0.44,-0.4,-1.53,1.64
4.8549511432647705,-0.69,-0.42,-0.73,1.08
4.86471700668335,-0.21,-0.42,0.24,0.52
4.874799966812134,-0.02,-0.11,1.05,1.05
4.884748935699463,-0.39,0.15,1.59,1.64
4.894715070724487,-0.5,0.25,1.36,1.47
4.904829978942871,-0.32,0.12,0.47,0.58
4.914639949798584,-0.28,-0.1,-0.4,0.49
4.950156927108765,-0.52,-0.06,-0.92,1.05
4.950587034225464,-0.51,0.02,-1.15,1.25
4.951009035110474,-0.24,-0.05,-0.9,0.93
4.95484185218811,-0.18,-0.11,-0.58,0.61
4.9645349979400635,-0.17,-0.08,-0.29,0.34
4.974537134170532,-0.09,-0.11,0.09,0.16
4.984498023986816,-0.09,-0.17,0.5,0.53
4.994516134262085,-0.07,-0.01,0.77,0.77
5.004488945007324,0.08,0.21,0.73,0.76
5.014498949050903,-0.08,0.12,0.56,0.57
5.050307035446167,-0.44,0.12,0.39,0.6
5.050716161727905,-0.51,0.16,0.31,0.61
5.051138162612915,-0.39,-0.02,-0.09,0.4
5.0543601512908936,-0.3,-0.22,-0.27,0.45
5.0643630027771,-0.81,-0.36,0.04,0.88
5.074326992034912,-1.33,-0.24,0.13,1.35
5.084357023239136,-0.91,0.09,0.28,0.95
5.094385862350464,-0.09,0.12,0.06,0.16
5.104263067245483,0.38,0.17,-0.56,0.69
5.114274978637695,0.61,0.18,-0.98,1.16
5.150516033172607,0.51,0.25,-0.91,1.07
5.150931119918823,0.28,0.25,-0.69,0.78
5.151338815689087,0.21,0.03,-0.45,0.49
5.154245138168335,-0.13,-0.07,-0.19,0.24
5.164202928543091,-0.41,-0.03,-0.03,0.41
5.174219846725464,-0.65,-0.1,-0.24,0.7
5.1842639446258545,-0.87,-0.15,-0.47,1.0
5.194216966629028,-0.92,-0.1,-0.57,1.08
5.20436692237854,-0.8,-0.13,-0.79,1.13
5.21415901184082,-0.47,-0.24,-0.88,1.02
5.250675916671753,0.06,-0.18,-0.9,0.91
5.25109601020813,0.47,-0.1,-0.78,0.91
5.25150990486145,0.39,-0.07,-0.29,0.49
5.2540459632873535,0.14,0.04,0.33,0.36
5.264099836349487,0.03,0.22,0.48,0.52
5.27407693862915,0.1,0.14,0.43,0.46
5.284056901931763,0.07,-0.13,-0.02,0.14
5.294068098068237,0.01,-0.21,-0.72,0.75
5.304016828536987,-0.23,-0.14,-1.08,1.11
5.314057111740112,-0.51,-0.06,-0.98,1.1
5.350929021835327,-0.46,0.13,-0.93,1.04
5.351361036300659,0.03,0.21,-0.72,0.75
5.351778030395508,0.88,0.33,0.16,0.95
5.353961944580078,1.57,0.31,0.45,1.66
5.364012002944946,1.95,0.02,0.15,1.95
5.373986005783081,2.44,-0.16,-0.09,2.44
5.384025812149048,2.73,-0.05,-0.17,2.73
5.394098997116089,2.37,0.26,-0.27,2.39
5.403786897659302,2.6,0.64,-0.46,2.71
5.413828134536743,3.71,0.56,-0.48,3.78
5.451077938079834,4.69,0.27,-0.2,4.7
5.45150899887085,5.45,0.19,0.17,5.45
5.451931953430176,6.21,0.43,0.62,6.25
5.453810930252075,6.72,0.67,1.38,6.89
5.463806867599487,7.18,0.89,2.06,7.52
5.473778009414673,6.83,1.73,2.53,7.48
5.483809947967529,5.92,3.64,1.56,7.12
5.493790864944458,4.5,5.9,0.65,7.44
5.503730058670044,2.29,8.57,-1.13,8.94
5.513772964477539,2.65,7.86,-2.63,8.7
5.546247959136963,2.51,7.78,-2.45,8.53
5.546690940856934,1.7,6.54,-2.72,7.28
5.547122001647949,2.29,2.8,-2.55,4.42
5.553591966629028,3.74,0.48,-1.26,3.97
5.563678979873657,3.1,1.2,1.25,3.55
5.573648929595947,4.36,-1.15,0.8,4.57
5.583646059036255,6.23,-1.89,1.59,6.7
5.593631982803345,7.6,-2.15,2.87,8.4
5.603604078292847,8.12,-2.5,2.59,8.88
5.6136181354522705,7.55,-2.09,2.02,8.09
5.64748215675354,6.95,-1.65,1.87,7.38
5.647985935211182,6.52,-1.37,2.05,6.97
5.64879298210144,6.03,-1.06,2.14,6.48
5.65346097946167,5.24,-0.68,2.05,5.66
5.663496017456055,4.12,-0.18,1.67,4.44
5.673487901687622,2.73,0.4,1.2,3.0
5.683424949645996,1.55,0.88,0.56,1.86
5.693469047546387,1.11,1.4,-0.27,1.8
5.703428030014038,1.0,1.92,-0.47,2.21
5.7136218547821045,0.57,2.1,-0.28,2.19
5.748067140579224,-0.42,1.97,-0.22,2.02
5.748888969421387,-1.5,1.67,-0.39,2.27
5.7493579387664795,-2.02,1.36,-0.59,2.5
5.753308057785034,-1.96,1.05,-0.53,2.28
5.76333212852478,-1.71,0.97,-0.37,2.0
5.773355007171631,-1.72,1.02,-0.27,2.01
5.783281087875366,-2.55,1.1,-0.44,2.81
5.793338060379028,-3.46,1.3,-1.01,3.83
5.803287982940674,-4.16,1.4,-1.69,4.7
5.813210964202881,-4.48,1.1,-2.19,5.1
5.848275899887085,-4.31,0.65,-2.34,4.94
5.8489720821380615,-4.14,0.34,-2.17,4.68
5.84943413734436,-4.54,0.05,-2.08,4.99
5.853154897689819,-5.37,-0.46,-2.14,5.79
5.863199949264526,-5.98,-0.95,-2.35,6.49
5.873023986816406,-6.2,-1.33,-2.45,6.79
5.883146047592163,-5.95,-1.46,-2.26,6.53
5.89315390586853,-5.5,-1.38,-2.21,6.08
5.903185129165649,-4.99,-1.1,-2.31,5.6
5.9130330085754395,-4.38,-1.0,-2.57,5.17
5.948645830154419,-4.02,-1.17,-2.78,5.02
5.949177980422974,-4.05,-1.34,-2.63,5.01
5.949671030044556,-4.83,-1.29,-2.44,5.56
5.953094959259033,-5.68,-1.37,-2.38,6.3
5.963133096694946,-4.05,3.46,-2.39,5.83
5.972887992858887,-0.31,5.7,-1.87,6.0
5.983033895492554,2.46,1.2,-0.24,2.74
5.993045091629028,9.45,-0.46,5.49,10.93
6.003248929977417,8.22,-2.14,7.96,11.64
6.013011932373047,1.91,-1.55,0.8,2.58
6.048124074935913,-2.61,0.45,-3.47,4.36
6.048849821090698,-3.04,1.78,-2.42,4.27
6.049338102340698,-0.82,2.26,-1.0,2.6
6.052794933319092,0.26,2.74,-0.72,2.84
6.062891960144043,-0.73,2.67,-0.47,2.8
6.072735071182251,-2.48,2.53,-0.89,3.65
6.082844018936157,-4.98,2.86,-2.16,6.13
6.092902898788452,-6.15,3.12,-3.42,7.69
6.102870941162109,-4.59,1.59,-3.09,5.75
6.112850904464722,-2.31,-0.53,-1.52,2.81
6.148756980895996,-1.24,-0.97,-0.79,1.76
6.149264097213745,-2.18,0.72,-1.65,2.82
6.149760007858276,-3.64,-0.65,-3.88,5.35
6.152693033218384,-2.84,0.55,-3.63,4.64
6.162744045257568,-1.88,1.15,-1.36,2.58
6.17283296585083,-2.14,0.02,-0.71,2.25
6.183061838150024,-2.1,-0.28,-0.89,2.29
6.19275689125061,-1.29,0.09,-0.53,1.39
6.2026588916778564,-0.69,0.14,-0.23,0.74
6.212664842605591,-0.35,-0.36,0.26,0.56
6.2492289543151855,-0.5,-0.84,1.13,1.49
6.249766111373901,-0.93,-0.73,1.94,2.27
6.250262022018433,-1.61,-0.61,2.16,2.76
6.252587080001831,-1.93,-0.61,1.46,2.49
6.262630939483643,-1.68,-0.56,0.48,1.83
6.27295708656311,-1.09,-0.13,0.16,1.1
6.282514810562134,-0.62,-0.06,0.11,0.63
6.292562007904053,-0.55,-0.27,-0.2,0.64
6.3024680614471436,-0.9,0.03,-0.52,1.03
6.312510967254639,-1.25,0.47,-0.47,1.41
6.322447061538696,-1.25,0.45,-0.53,1.43
6.350168943405151,-1.29,0.29,-0.79,1.54
6.350670099258423,-1.25,0.16,-0.75,1.46
6.352425813674927,-1.02,0.0,-0.52,1.14
6.362437009811401,-1.0,0.03,-0.52,1.12
6.372373819351196,-0.91,-0.02,-0.75,1.17
6.3823769092559814,-0.51,0.03,-0.57,0.76
6.392390012741089,-0.15,0.18,-0.57,0.61
6.402359962463379,0.15,0.11,-0.51,0.54
6.41237998008728,0.37,0.06,-0.62,0.72
6.42245888710022,0.27,0.0,-0.97,1.0
6.450407981872559,0.2,-0.05,-1.37,1.38
6.450915098190308,0.2,-0.14,-0.97,1.0
6.452271938323975,0.08,0.02,-0.36,0.36
6.462299108505249,0.18,0.1,0.01,0.2
6.472226858139038,0.74,0.07,0.0,0.74
6.482388973236084,1.06,-0.06,-0.28,1.09
6.49236798286438,0.89,0.01,-0.33,0.94
6.5022430419921875,0.66,-0.02,-0.32,0.73
6.512226819992065,0.56,0.05,-0.09,0.56
6.522237062454224,0.68,0.22,0.31,0.77
6.548970937728882,0.45,0.13,0.37,0.59
6.549468040466309,-0.27,0.14,0.09,0.31
6.552145957946777,-0.38,-0.07,-0.09,0.39
6.562206983566284,0.17,-0.15,-0.33,0.4
6.572141885757446,0.21,-0.11,-0.45,0.5
6.582108020782471,0.14,-0.06,-0.65,0.66
6.59210991859436,-0.06,0.02,-0.71,0.71
6.602082014083862,-0.45,-0.01,-0.67,0.8
6.612059831619263,-0.53,-0.12,-0.45,0.7
6.622093915939331,-0.3,-0.13,0.03,0.32
6.649440050125122,0.03,0.07,0.34,0.34
6.649937868118286,0.18,0.13,0.33,0.39
6.651968002319336,0.21,0.13,0.05,0.25
6.661980867385864,0.01,-0.03,-0.31,0.31
6.671941041946411,-0.22,-0.12,-0.7,0.74
6.681753873825073,-0.11,-0.07,-0.61,0.62
6.691938161849976,0.1,-0.08,-0.35,0.37
6.701955080032349,0.19,-0.03,-0.19,0.27
6.711895942687988,0.3,-0.01,0.13,0.32
6.721841096878052,0.27,0.02,0.18,0.32
6.749409914016724,0.27,0.08,0.03,0.28
6.749891996383667,0.31,0.09,-0.17,0.36
6.75177001953125,0.33,0.07,-0.25,0.41
6.761810064315796,0.25,-0.05,0.04,0.25
6.771775960922241,0.28,-0.09,0.47,0.55
6.781718969345093,0.27,-0.06,0.68,0.73
6.7917640209198,0.15,-0.09,0.62,0.64
6.801725149154663,-0.11,-0.2,0.48,0.53
6.811765909194946,-0.62,-0.23,0.28,0.71
6.821698904037476,-1.05,-0.08,0.17,1.06
6.849089860916138,-1.28,-0.1,0.23,1.3
6.849604845046997,-1.49,-0.04,0.09,1.49
6.8515989780426025,-1.12,0.08,-0.22,1.14
6.861717939376831,-0.14,0.1,-0.56,0.58
6.871562957763672,0.64,0.3,-0.8,1.06
6.881662130355835,1.05,0.32,-0.75,1.32
6.891627073287964,1.34,0.33,-0.64,1.52
6.901604890823364,1.56,0.35,-0.45,1.66
6.931609869003296,1.74,0.34,-0.08,1.77
6.932121992111206,1.72,0.32,0.19,1.75
6.932590961456299,1.75,0.15,0.42,1.8
6.94147801399231,1.93,-0.05,0.75,2.07
6.951502084732056,2.15,-0.06,1.22,2.47
6.961509943008423,2.42,0.17,1.71,2.96
6.971441984176636,2.37,0.33,1.86,3.03
6.981420993804932,2.21,0.63,1.42,2.7
6.99137806892395,2.14,1.04,0.35,2.4
7.0014588832855225,2.13,1.24,-0.2,2.47
7.032093048095703,2.06,1.24,-0.24,2.41
7.032552003860474,2.14,1.36,-0.24,2.54
7.0330259799957275,1.48,2.45,-0.69,2.94
7.041355848312378,1.96,4.8,-1.27,5.33
7.051398992538452,3.21,5.47,0.9,6.4
7.061336040496826,3.84,5.39,1.2,6.72
7.071297883987427,4.86,5.8,0.57,7.58
7.081333875656128,5.98,6.14,0.74,8.6
7.091449975967407,5.91,6.19,0.51,8.57
7.10123085975647,4.73,6.29,-0.4,7.88
7.1325671672821045,3.68,5.97,-0.75,7.05
7.133066892623901,3.13,4.68,-1.17,5.75
7.133559942245483,2.55,3.1,-1.57,4.31
7.141081094741821,1.73,1.3,-1.61,2.69
7.151188135147095,1.83,0.18,-1.17,2.17
7.161190032958984,1.79,-0.16,0.41,1.84
7.171158075332642,0.23,-0.65,1.56,1.7
7.181223154067993,2.8,-1.08,0.12,3.0
7.191051006317139,8.03,-1.28,0.37,8.13
7.201215028762817,10.12,-1.34,2.65,10.54
7.234278917312622,9.32,-2.04,3.64,10.21
7.234814882278442,8.04,-2.76,3.41,9.15
7.235338926315308,7.56,-2.85,2.85,8.56
7.240968942642212,7.16,-2.7,2.82,8.15
7.251056909561157,6.29,-2.64,3.0,7.45
7.261044025421143,5.32,-2.53,2.72,6.48
7.271011114120483,4.47,-2.32,2.24,5.51
7.2809929847717285,3.7,-1.89,1.87,4.55
7.290894985198975,2.94,-1.37,1.64,3.63
7.300935983657837,2.28,-0.67,1.44,2.77
7.333948850631714,1.91,0.49,1.02,2.22
7.33447003364563,1.48,1.63,0.48,2.25
7.3349831104278564,0.84,2.79,-0.27,2.92
7.34075403213501,-0.13,3.96,-1.18,4.13
7.3508570194244385,-0.72,4.5,-2.19,5.05
7.360863924026489,-1.56,4.67,-2.53,5.53
7.370821952819824,-5.24,4.45,-1.76,7.09
7.380953073501587,-6.2,3.16,-1.74,7.17
7.390761137008667,-6.07,2.12,-1.96,6.72
7.400907039642334,-6.09,1.54,-2.25,6.67
7.432987928390503,-6.82,0.75,-2.57,7.32
7.433495044708252,-7.11,0.44,-3.44,7.91
7.433987855911255,-6.33,0.94,-4.25,7.68
7.440787076950073,-5.72,0.6,-4.2,7.12
7.450821161270142,-6.38,0.17,-3.97,7.51
7.460809946060181,-7.73,-0.97,-4.06,8.78
7.470760107040405,-8.49,-2.57,-3.74,9.62
7.480810880661011,-8.55,-3.13,-3.25,9.66
7.490925073623657,-8.25,-3.15,-2.99,9.32
7.500769853591919,-7.61,-1.58,-3.39,8.47
7.532328844070435,-4.14,5.45,-4.03,7.94
7.5328638553619385,-2.2,3.12,-2.49,4.55
7.5333569049835205,2.47,1.16,-0.8,2.84
7.540827035903931,9.65,0.04,6.91,11.86
7.550525903701782,8.91,-1.0,7.74,11.84
7.560588121414185,2.29,-0.2,-1.94,3.0
7.5705578327178955,-3.47,1.74,-4.9,6.25
7.580544948577881,-3.65,2.73,-2.0,4.97
7.5909130573272705,-0.96,3.22,-0.78,3.44
7.600582838058472,0.08,4.2,-0.51,4.23
7.633694887161255,-1.46,4.68,-0.82,4.97
7.634236097335815,-3.76,3.38,-1.46,5.26
7.634795904159546,-4.53,0.34,-0.83,4.61
7.640426874160767,-4.35,-1.13,-0.12,4.49
7.650436162948608,-4.77,-0.91,-0.1,4.85
7.6604390144348145,-5.09,1.68,-1.09,5.46
7.670396089553833,-4.66,1.19,-4.38,6.5
7.680370092391968,-3.66,0.83,-4.32,5.72
7.690232992172241,-1.06,1.85,-1.25,2.47
7.700428009033203,-0.2,-0.45,0.35,0.6
7.7335569858551025,-0.25,-1.82,-0.56,1.92
7.734101057052612,0.56,-1.37,-0.73,1.65
7.734666109085083,1.19,-0.96,-0.55,1.62
7.740286111831665,1.02,-0.62,-0.56,1.31
7.750130891799927,0.34,-0.1,-0.41,0.54
7.7601940631866455,-0.26,0.37,-0.84,0.95
7.770112037658691,-0.23,0.35,-1.54,1.59
7.780202150344849,-0.19,0.03,-1.23,1.24
7.790156126022339,0.26,-0.25,-0.51,0.62
7.800117015838623,0.13,-0.42,-0.18,0.47
7.834210157394409,-0.86,-0.34,-0.43,1.01
7.8351218700408936,-1.55,-0.33,0.12,1.58
7.835654973983765,-1.42,-0.26,0.73,1.61
7.840172052383423,-1.34,-0.35,0.6,1.5
7.85014796257019,-1.27,-0.6,0.83,1.63
7.860175848007202,-0.99,-0.28,0.3,1.07
7.870016813278198,-0.63,0.03,0.16,0.65
7.880090951919556,-1.12,0.07,0.86,1.41
7.890002012252808,-1.79,-0.11,1.24,2.18
7.9001548290252686,-1.6,0.03,0.69,1.74
7.933358907699585,-1.78,-0.11,-0.09,1.78
7.933897972106934,-1.81,-0.05,-0.73,1.95
7.9344470500946045,-1.86,-0.23,-1.0,2.12
7.939968824386597,-1.79,-0.28,-1.14,2.14
7.949975967407227,-1.76,-0.15,-1.04,2.04
7.959970951080322,-1.31,-0.02,-1.1,1.71
7.96992301940918,-0.77,-0.18,-1.25,1.47
7.979928016662598,-0.7,-0.18,-1.04,1.26
7.9899139404296875,-0.68,-0.01,-0.59,0.9
8.000000953674316,-0.33,0.02,-0.38,0.5
8.034065008163452,0.04,-0.09,-0.82,0.82
8.035020112991333,0.03,-0.04,-1.26,1.26
8.035555124282837,-0.05,0.0,-1.08,1.08
8.039795160293579,0.06,0.1,-0.85,0.85
8.04986310005188,0.02,0.06,-0.31,0.31
8.059761047363281,-0.38,0.2,0.2,0.47
8.069884061813354,-0.72,0.27,0.86,1.15
8.079792022705078,-0.78,0.23,1.37,1.59
8.089762926101685,-0.33,0.05,1.55,1.58
8.099829912185669,-0.31,-0.13,1.77,1.8
8.13374400138855,-0.52,-0.17,1.67,1.75
8.134246110916138,-0.67,-0.1,1.01,1.21
8.135113954544067,-0.95,-0.08,0.28,0.99
8.139652967453003,-1.3,0.25,-0.1,1.32
8.14972186088562,-0.84,0.37,0.56,1.07
8.159690141677856,-0.64,0.24,0.77,1.02
8.169556856155396,-0.79,0.26,-0.42,0.93
8.179620027542114,-0.24,-0.11,-1.43,1.45
8.189594984054565,0.24,-0.42,-1.17,1.26
8.199608087539673,0.7,-0.15,-1.16,1.36
8.23377799987793,1.04,0.07,-1.27,1.64
8.234669923782349,1.14,-0.08,-1.57,1.94
8.235170125961304,1.13,-0.35,-1.68,2.05
8.239463090896606,1.01,-0.4,-1.15,1.58
8.249518156051636,0.87,-0.16,-0.58,1.05
8.259526014328003,0.63,0.34,-0.24,0.75
8.269450902938843,0.6,0.51,0.1,0.79
8.279477834701538,0.44,0.13,-0.12,0.47
8.289438009262085,-0.07,-0.17,-0.64,0.66
8.29944896697998,0.24,-0.14,-0.29,0.4
8.333659887313843,1.26,-0.09,-0.23,1.28
8.334571123123169,1.86,0.03,-0.78,2.01
8.335050821304321,1.86,-0.04,-1.46,2.36
8.33933401107788,1.16,-0.34,-1.92,2.26
8.349305868148804,-0.02,-0.39,-1.98,2.01
8.359387159347534,-0.7,-0.5,-1.01,1.32
8.369248151779175,-1.17,-0.26,-0.4,1.26
8.379402875900269,-1.42,0.18,0.34,1.47
8.38926911354065,-1.07,0.24,1.17,1.6
8.399263143539429,-0.68,0.18,1.36,1.53
8.434842824935913,-0.05,0.19,1.05,1.06
8.435344934463501,0.62,0.06,0.74,0.96
8.435847997665405,0.71,-0.04,0.25,0.75
8.439226865768433,0.19,-0.19,-0.3,0.4
8.449226140975952,-0.5,-0.46,-0.83,1.07
8.45916199684143,-0.87,-0.44,-1.28,1.6
8.469114065170288,-0.61,-0.2,-0.81,1.03
8.479146003723145,0.23,-0.14,-0.21,0.34
8.489134073257446,0.82,0.1,0.66,1.05
8.499101877212524,1.68,0.62,1.94,2.64
8.53488802909851,2.64,0.71,1.92,3.34
8.535390138626099,3.0,0.63,1.35,3.34
8.535871982574463,3.16,0.52,0.79,3.29
8.539001941680908,3.16,0.43,0.51,3.22
8.549065828323364,3.1,0.45,0.62,3.19
8.558894872665405,3.17,0.63,0.71,3.3
8.568995952606201,3.55,1.06,0.17,3.7
8.579064130783081,3.67,1.54,-0.26,3.98
8.589004039764404,3.64,1.41,-0.25,3.91
8.59890103340149,3.21,2.0,-0.98,3.9
8.634820938110352,2.61,3.61,-0.19,4.45
8.635318040847778,3.2,3.89,1.54,5.26
8.635812044143677,3.08,3.61,0.87,4.82
8.63884711265564,3.01,4.02,-0.28,5.02
8.648847818374634,2.67,4.72,-0.56,5.45
8.658690929412842,2.49,5.31,-1.04,5.95
8.668877840042114,3.21,5.83,-1.28,6.77
8.678838968276978,3.96,5.95,-1.31,7.26
8.688824892044067,3.99,5.31,-1.57,6.82
8.698805093765259,3.21,4.03,-1.58,5.38
8.734801054000854,2.29,3.23,-1.34,4.18
8.735303163528442,1.79,1.93,-1.48,3.01
8.735795974731445,1.08,0.34,-1.26,1.69
8.73870587348938,1.03,0.14,-0.74,1.27
8.748738050460815,4.24,0.01,-0.41,4.25
8.758704900741577,2.97,-0.46,1.81,3.5
8.768743991851807,2.47,-0.83,0.72,2.7
8.778702020645142,5.57,-1.2,-0.55,5.72
8.78869891166687,8.0,-0.5,1.39,8.13
8.798696041107178,8.4,-1.36,2.9,8.98
8.835235834121704,7.41,-2.18,2.47,8.1
8.83574104309082,6.32,-2.19,1.89,6.95
8.83625602722168,5.53,-2.06,1.76,6.15
8.838536024093628,4.89,-1.86,1.63,5.47
8.84856104850769,4.44,-1.69,1.57,5.0
8.858794927597046,3.96,-1.47,1.5,4.48
8.868522882461548,3.13,-1.08,1.45,3.61
8.878517866134644,2.02,-0.71,1.25,2.47
8.88844895362854,0.98,-0.34,1.04,1.46
8.898578882217407,0.39,0.11,0.77,0.87
8.908515930175781,0.02,0.51,0.42,0.66
8.935796022415161,-0.46,0.8,0.1,0.92
8.93629503250122,-0.95,1.0,-0.15,1.38
8.938358068466187,-1.46,1.14,-0.18,1.86
8.948456048965454,-1.9,1.22,-0.04,2.25
8.958395957946777,-1.87,1.21,0.07,2.22
8.968290090560913,-1.45,1.32,-0.06,1.96
8.978420972824097,-0.99,1.62,-0.23,1.91
8.988381147384644,-1.07,1.95,-0.34,2.25
8.998363971710205,-0.98,2.52,-0.75,2.8
9.008331060409546,-1.15,2.93,-1.25,3.38
9.035732984542847,-0.62,2.64,-1.66,3.17
9.03624415397644,-2.06,2.45,-0.87,3.31
9.038257837295532,-3.32,1.62,-0.82,3.78
9.048443078994751,-3.82,1.48,-1.17,4.26
9.058274984359741,-3.79,1.74,-1.4,4.39
9.068185091018677,-3.75,1.45,-1.33,4.23
9.078220129013062,-3.94,0.8,-1.25,4.21
9.088256120681763,-3.95,0.15,-1.34,4.17
9.098253011703491,-3.47,0.04,-1.39,3.73
9.108060121536255,-2.9,0.14,-1.11,3.1
9.13535189628601,-2.82,0.3,-1.03,3.01
9.135828971862793,-3.47,-0.05,-1.45,3.76
9.137984991073608,-4.37,-0.75,-1.99,4.85
9.148132085800171,-5.15,-1.45,-2.53,5.91
9.158164024353027,-5.42,-1.75,-2.73,6.31
9.168123960494995,-5.24,-1.57,-2.62,6.06
9.178040981292725,-5.14,-1.39,-2.49,5.87
9.188278913497925,-4.97,-1.64,-2.39,5.75
9.198034048080444,-4.67,-1.89,-2.23,5.5
9.208062887191772,-4.39,-1.74,-2.26,5.23
9.23475694656372,-3.28,4.47,-2.57,6.11
9.235227823257446,1.77,7.69,-1.42,8.01
9.237884044647217,2.73,0.52,0.53,2.82
9.247957944869995,6.6,-0.77,3.43,7.47
9.257905006408691,8.13,-0.86,7.78,11.28
9.267941951751709,4.27,-1.34,4.77,6.54
9.277919054031372,-1.01,-1.06,-1.01,1.77
9.287822961807251,-4.68,0.05,-3.38,5.77
9.297917127609253,-5.06,0.61,-2.63,5.73
9.307858943939209,-3.24,0.92,-1.65,3.75
9.336168050765991,-1.34,1.8,-0.84,2.39
9.336674928665161,-0.59,2.44,-0.11,2.51
9.337713956832886,-0.91,2.74,-0.31,2.9
9.347733974456787,-2.84,2.54,-2.18,4.38
9.357753038406372,-4.16,3.61,-4.51,7.11
9.367777109146118,-3.92,5.16,-6.86,9.43
9.377882957458496,-4.31,2.24,-5.81,7.57
9.387753963470459,-1.4,0.41,0.26,1.48
9.397735834121704,1.22,-2.15,3.44,4.23
9.40755009651184,-0.08,-3.17,1.08,3.34
9.436548948287964,-1.7,-2.42,-0.62,3.02
9.437052965164185,-0.6,-1.31,0.37,1.48
9.437615156173706,-0.02,-0.02,0.2,0.2
9.447602987289429,-1.83,-0.17,-0.45,1.89
9.45753788948059,-3.84,-0.84,-0.55,3.96
9.467564821243286,-4.91,-0.77,-0.39,4.98
9.477689981460571,-4.55,-0.34,0.22,4.56
9.48752498626709,-2.91,0.1,0.87,3.03
9.497578859329224,-1.71,0.16,0.93,1.95
9.507415056228638,-2.0,-0.08,0.54,2.07
9.536349058151245,-2.7,0.05,0.18,2.7
9.536843061447144,-2.97,-0.02,-0.55,3.02
9.53750491142273,-3.03,-0.3,-0.96,3.19
9.547445058822632,-2.17,-0.44,-1.06,2.45
9.557379007339478,-0.11,0.09,-0.91,0.92
9.567428827285767,0.59,0.34,-0.17,0.7
9.57753586769104,-0.18,0.18,-0.35,0.43
9.587451934814453,-0.61,0.17,-0.86,1.06
9.597452878952026,-0.6,0.08,-0.93,1.1
9.60741400718689,-0.54,0.04,-1.22,1.33
9.636513948440552,-0.24,0.14,-1.06,1.09
9.63701605796814,0.19,0.07,-0.67,0.69
9.637501001358032,0.02,-0.06,-0.3,0.3
9.647316932678223,-0.3,0.0,-0.48,0.56
9.657191038131714,-0.02,0.16,-0.75,0.76
9.667204141616821,0.49,0.33,-0.43,0.73
9.677199125289917,0.23,0.12,-0.28,0.38
9.687319040298462,-0.36,0.05,-0.41,0.54
9.697320938110352,-0.28,0.0,-0.08,0.29
9.707198858261108,-0.36,0.03,-0.35,0.5
9.73619294166565,-0.56,0.04,-0.76,0.94
9.736707925796509,0.02,0.08,-0.48,0.48
9.73720908164978,0.35,0.03,-0.08,0.36
9.747148036956787,0.38,-0.07,0.01,0.38
9.757041931152344,0.57,-0.12,0.1,0.59
9.767150163650513,0.49,-0.05,0.1,0.5
9.777015924453735,0.59,-0.2,0.45,0.76
9.787040948867798,0.62,0.15,0.69,0.93
9.797121047973633,0.25,-0.05,0.41,0.48
9.807020902633667,0.14,0.05,0.03,0.15
9.836232900619507,0.49,0.04,-0.24,0.54
9.836725950241089,0.55,-0.11,-0.51,0.75
9.837187051773071,0.6,-0.07,-0.59,0.84
9.84694790840149,0.62,0.03,-0.37,0.72
9.856896162033081,0.23,-0.12,-0.19,0.32
9.86697793006897,-0.08,-0.11,-0.24,0.27
9.87680983543396,-0.01,-0.08,-0.13,0.15
9.886937856674194,0.04,-0.08,0.28,0.29
9.897002935409546,0.15,0.18,0.1,0.25
9.906884908676147,0.11,0.17,-0.31,0.37
9.936439037322998,0.45,0.0,-0.57,0.72
9.93690800666809,0.57,0.03,-0.43,0.71
9.937376022338867,-0.06,-0.08,-0.64,0.64
9.94685697555542,-0.58,-0.16,-0.58,0.83
9.9568030834198,-0.81,-0.02,-0.26,0.85
9.96680498123169,-0.87,0.03,-0.07,0.87
9.976931810379028,-0.79,0.08,0.04,0.79
9.986800909042358,-0.4,0.09,-0.25,0.48
9.996792078018188,0.25,0.0,-0.46,0.52
10.00682282447815,0.72,-0.01,-0.34,0.79
10.036824941635132,0.86,-0.07,-0.21,0.88
10.03729510307312,0.78,-0.02,-0.07,0.78
10.037755012512207,0.43,0.0,-0.05,0.43
10.046705961227417,0.17,0.01,0.18,0.24
10.056595087051392,-0.01,-0.05,0.36,0.36
10.066646814346313,-0.08,-0.07,0.42,0.43
10.07685899734497,0.05,-0.04,0.39,0.39
10.0866539478302,0.34,-0.14,0.36,0.51
10.096740961074829,0.69,-0.16,0.45,0.83
10.106564044952393,1.04,0.03,0.41,1.11
10.13656210899353,1.22,0.08,0.75,1.43
10.137028932571411,1.0,-0.03,0.42,1.08
10.137486934661865,0.54,-0.02,-0.1,0.54
10.14654803276062,0.41,0.07,-0.31,0.51
10.15645694732666,0.34,0.13,-0.49,0.61
10.166582822799683,-0.02,0.16,-0.52,0.54
10.176461935043335,-0.26,0.31,-0.54,0.67
10.186529874801636,-0.13,0.26,-0.56,0.63
10.196494817733765,0.48,0.23,-0.15,0.55
10.20659613609314,0.94,0.35,0.18,1.01
10.237664937973022,0.95,0.43,0.25,1.07
10.238139867782593,0.76,0.45,0.34,0.94
10.238590002059937,0.8,0.33,0.37,0.94
10.246487855911255,0.9,0.27,0.31,0.98
10.256453037261963,1.14,0.23,0.37,1.22
10.266349077224731,1.65,0.62,0.27,1.78
10.276312112808228,1.83,1.09,0.01,2.13
10.286312818527222,1.67,1.46,-0.16,2.22
10.296332120895386,1.65,1.61,-0.09,2.3
10.306273937225342,1.81,2.0,0.04,2.69
10.337285995483398,2.78,3.45,0.02,4.43
10.337777853012085,3.16,3.82,1.08,5.07
10.338258028030396,2.76,3.65,1.56,4.83
10.346266031265259,2.71,3.42,1.31,4.55
10.356235980987549,2.84,3.66,1.02,4.74
10.36624002456665,3.54,4.35,0.54,5.63
10.37719202041626,4.5,4.66,0.61,6.5
10.386250019073486,4.09,4.34,0.76,6.01
10.396183967590332,2.91,3.82,0.25,4.8
10.40610384941101,2.22,3.47,-0.4,4.13
10.437710046768188,2.03,2.65,-0.81,3.43
10.438184976577759,1.43,1.31,-0.86,2.12
10.438655138015747,0.41,-0.23,-1.03,1.13
10.44599199295044,-0.3,-0.67,-0.91,1.16
10.455991983413696,-1.33,-0.31,0.32,1.4
10.465977907180786,-2.75,-0.46,0.79,2.89
10.475917100906372,0.2,-1.16,-0.55,1.29
10.486028909683228,4.6,-1.25,-0.39,4.78
10.496086835861206,6.49,-1.39,1.42,6.78
10.50595211982727,6.42,-2.38,2.43,7.26
10.537419080734253,5.76,-2.8,2.28,6.79
10.537904024124146,5.71,-2.48,1.88,6.5
10.538363933563232,6.06,-1.86,1.85,6.6
10.545940160751343,5.99,-1.49,1.95,6.47
10.555891036987305,5.54,-1.33,2.14,6.08
10.565913915634155,4.87,-1.06,2.18,5.43
10.575817823410034,3.94,-0.74,1.93,4.44
10.585891008377075,3.03,-0.46,1.48,3.4
10.595875024795532,2.24,-0.18,0.98,2.45
10.605906009674072,1.55,-0.01,0.53,1.63
10.637308835983276,0.79,0.27,0.11,0.84
10.637779951095581,0.04,0.64,-0.18,0.66
10.638244867324829,-0.8,0.97,-0.41,1.32
10.645789861679077,-1.53,1.22,-0.51,2.02
10.655696153640747,-1.69,1.53,-0.56,2.34
10.665778875350952,-1.83,1.74,-0.66,2.61
10.675734996795654,-1.78,1.82,-0.8,2.66
10.685699939727783,-1.66,1.74,-0.96,2.58
10.695707082748413,-1.62,1.59,-0.97,2.46
10.705716848373413,-1.76,1.47,-0.76,2.41
10.737830877304077,-1.86,1.43,-0.61,2.42
10.738302946090698,-1.97,1.42,-0.6,2.5
10.738745927810669,-1.97,1.35,-0.55,2.45
10.745654821395874,-1.69,1.29,-0.46,2.17
10.755605936050415,-1.77,1.13,-0.41,2.13
10.765529870986938,-2.19,0.54,-0.41,2.29
10.775436162948608,-2.51,-0.32,-0.33,2.55
10.785599946975708,-2.67,-0.6,-0.3,2.75
10.795554876327515,-2.64,-0.29,-0.31,2.67
10.805538892745972,-2.19,0.02,-0.57,2.26
10.837280988693237,-1.94,0.15,-0.72,2.07
10.837753057479858,-2.17,0.01,-0.64,2.26
10.838215112686157,-2.77,-0.22,-0.57,2.83
10.84542202949524,-3.4,-0.53,-0.67,3.5
10.85539698600769,-3.51,-1.03,-0.75,3.73
10.865458011627197,-3.07,-1.19,-0.75,3.37
10.87538194656372,-2.6,-0.96,-0.79,2.88
10.885406017303467,-2.38,-0.66,-1.0,2.66
10.8954598903656,-2.03,-0.66,-1.22,2.45
10.90534496307373,-1.59,-0.75,-1.35,2.21
10.936892032623291,-1.4,-0.86,-1.4,2.15
10.937363862991333,-1.55,-1.15,-1.48,2.43
10.937827825546265,-1.85,-1.58,-1.53,2.87
10.945145845413208,-2.05,-1.74,-1.36,3.01
10.955272912979126,-2.29,-1.78,-1.39,3.21
10.965320825576782,-2.9,-0.71,-1.78,3.47
10.975262880325317,-0.82,4.06,-2.54,4.85
10.985281944274902,2.34,1.59,-0.55,2.88
10.995182037353516,4.08,1.98,2.03,4.96
11.005236864089966,6.03,3.09,5.75,8.88
11.038214921951294,5.89,-0.8,6.29,8.65
11.038684129714966,3.58,-1.94,0.71,4.13
11.03914499282837,0.68,-0.73,-3.02,3.18
11.045006036758423,-1.76,-0.03,-3.27,3.71
11.05511999130249,-1.67,0.63,-2.71,3.24
11.065143823623657,-0.7,1.47,-2.72,3.17
11.0751211643219,-1.06,1.82,-2.75,3.46
11.085120916366577,-2.22,2.41,-2.35,4.03
11.094977140426636,-3.96,3.39,-1.89,5.54
11.105028867721558,-5.11,2.99,-1.79,6.18
11.137939929962158,-4.18,0.73,-0.98,4.35
11.138417959213257,-3.27,0.88,0.15,3.38
11.138882875442505,-4.51,0.52,-3.17,5.53
11.144837141036987,-4.57,-0.29,-3.69,5.88
11.154939889907837,-0.38,0.44,1.33,1.45
11.165020942687988,0.46,-1.33,1.83,2.3
11.17492413520813,-0.3,-1.66,-1.58,2.31
11.18490481376648,-0.17,-1.03,-2.18,2.41
11.194856882095337,-0.88,-0.65,-1.21,1.63
11.204864978790283,-2.48,-0.13,-0.3,2.5
11.238562822341919,-3.76,0.85,0.66,3.91
11.239033937454224,-3.32,1.15,0.16,3.51
11.239525079727173,-1.91,0.31,0.23,1.94
11.244846105575562,-0.93,-0.76,0.19,1.21
11.254812002182007,-1.46,-1.52,-0.33,2.13
11.264822959899902,-3.34,-1.24,-0.4,3.58
11.274731874465942,-3.97,-0.42,0.11,3.99
11.284842014312744,-3.39,-0.02,0.85,3.49
11.294927835464478,-1.64,0.2,0.87,1.86
11.304811954498291,0.1,0.03,0.16,0.19
11.338352918624878,0.51,-0.17,-0.64,0.83
11.338827848434448,0.64,0.01,-0.62,0.89
11.339313983917236,0.2,-0.02,-0.29,0.35
11.344903945922852,-0.68,-0.02,-0.28,0.73
11.354689836502075,-1.39,-0.07,0.0,1.39
11.364681005477905,-1.72,-0.32,0.15,1.75
11.374562978744507,-1.62,-0.17,-0.02,1.62
11.38466501235962,-1.02,0.08,-0.32,1.07
11.394582033157349,-0.33,0.11,-0.64,0.72
11.404500007629395,0.32,0.13,-0.73,0.8
11.438046932220459,0.51,0.06,-0.83,0.97
11.438519954681396,0.06,0.04,-0.86,0.86
11.438998937606812,-0.37,0.11,-0.68,0.78
11.444475889205933,-0.51,0.17,-0.74,0.91
11.454397916793823,-0.47,0.11,-0.81,0.94
11.46454405784607,-0.43,-0.04,-0.97,1.06
11.474493980407715,-0.3,-0.02,-0.88,0.92
11.484411001205444,-0.33,-0.09,-0.24,0.41
11.494505167007446,-0.68,-0.04,-0.11,0.69
11.504308938980103,-0.65,-0.09,-0.21,0.68
11.538609027862549,-0.51,-0.16,0.02,0.53
11.539443016052246,-0.53,-0.01,0.17,0.55
11.539910078048706,-0.57,-0.04,0.21,0.6
11.544549942016602,-0.59,-0.07,-0.01,0.59
11.554404020309448,-0.7,-0.19,-0.17,0.74
11.564307928085327,-0.71,-0.09,-0.19,0.74
11.574187994003296,-0.5,0.15,0.15,0.54
11.58430790901184,-0.29,-0.05,0.61,0.67
11.594259023666382,-0.36,0.19,0.29,0.49
11.604383945465088,0.05,0.21,0.31,0.37
11.639311075210571,0.1,0.06,0.17,0.2
11.639995813369751,-0.07,-0.04,-0.47,0.47
11.640455961227417,0.01,-0.19,-0.58,0.61
11.644181966781616,0.33,-0.19,-0.47,0.6
11.6542329788208,0.25,0.09,-0.43,0.5
11.664243936538696,0.58,0.06,-0.21,0.61
11.674133062362671,0.58,0.03,-0.44,0.72
11.684198141098022,0.52,-0.33,-0.54,0.81
11.69422698020935,0.48,-0.45,0.04,0.65
11.704057931900024,0.27,-0.07,0.22,0.35
11.73912501335144,0.48,0.34,0.1,0.59
11.739800930023193,0.87,0.16,0.08,0.88
11.740262985229492,0.63,0.06,-0.42,0.75
11.744071960449219,0.39,-0.06,-0.43,0.58
11.754051923751831,0.27,-0.23,-0.45,0.57
11.76401400566101,0.36,0.07,-0.27,0.45
11.77394413948059,0.85,0.2,-0.02,0.87
11.784001111984253,0.9,0.16,-0.04,0.91
11.794028043746948,0.59,0.09,0.08,0.6
11.804021120071411,0.29,0.05,0.02,0.29
11.839179992675781,-0.04,0.01,-0.03,0.05
11.839855909347534,-0.56,-0.14,0.01,0.57
11.840317010879517,-0.74,-0.07,0.16,0.76
11.843855142593384,-0.71,0.01,0.27,0.75
11.853882074356079,-0.72,0.02,0.35,0.8
11.863890886306763,-0.46,0.08,0.25,0.52
11.873802900314331,-0.14,-0.04,0.3,0.33
11.883954048156738,-0.22,-0.01,0.22,0.31
11.893894910812378,-0.09,0.11,0.04,0.14
11.903892040252686,0.06,0.01,-0.38,0.38
11.93900203704834,0.07,-0.11,-0.75,0.76
11.93964409828186,0.07,-0.21,-0.88,0.9
11.94006085395813,-0.05,-0.31,-0.63,0.7
11.94372296333313,-0.13,-0.13,-0.33,0.37
11.953758001327515,0.2,0.11,-0.07,0.23
11.96372103691101,0.67,0.07,0.37,0.76
11.97368311882019,0.83,-0.02,0.56,1.0
11.983705997467041,0.58,-0.08,0.15,0.6
11.993693113327026,0.12,-0.12,-0.14,0.22
12.003664016723633,-0.2,-0.02,-0.28,0.34
12.039748907089233,-0.16,0.01,-0.39,0.42
12.040221929550171,0.18,0.05,-0.44,0.47
12.040662050247192,0.4,0.13,-0.32,0.52
12.043536901473999,0.4,0.17,-0.12,0.45
12.053689002990723,0.09,0.06,-0.11,0.15
12.063408136367798,-0.58,0.08,0.02,0.58
12.07352089881897,-1.16,0.21,-0.28,1.21
12.083626985549927,-1.08,0.19,-0.73,1.31
12.093544960021973,-0.49,0.07,-0.71,0.86
12.103556871414185,0.1,0.06,-0.84,0.84
12.139636039733887,0.56,0.13,-0.82,1.0
12.140083074569702,0.83,0.4,-0.7,1.15
12.140514135360718,1.24,0.8,-0.6,1.59
12.143404006958008,1.89,0.53,-0.07,1.96
12.153450012207031,2.32,0.09,0.16,2.32
12.16326904296875,2.77,0.04,0.11,2.77
12.173381090164185,3.08,0.32,0.27,3.1
12.183403015136719,3.06,0.74,0.5,3.18
12.193415880203247,3.37,0.9,0.99,3.62
12.203253030776978,3.94,1.21,0.49,4.15
12.239793062210083,4.11,2.05,1.04,4.7
12.24023699760437,4.57,2.97,1.12,5.56
12.240669012069702,4.33,3.11,1.15,5.45
12.24324107170105,3.5,2.67,0.96,4.5
12.253262042999268,2.69,2.57,0.85,3.81
12.263200044631958,1.78,2.59,0.56,3.19
12.273231029510498,1.08,3.08,0.08,3.26
12.28331995010376,0.92,4.03,0.0,4.13
12.293218851089478,1.98,5.31,-0.36,5.67
12.303202867507935,4.51,6.98,-0.23,8.31
12.340785026550293,7.26,8.03,0.39,10.83
12.34125304222107,7.84,7.54,-0.17,10.87
12.341712951660156,6.01,6.54,-1.05,8.94
12.343094110488892,3.81,6.57,-1.2,7.68
12.353178977966309,2.13,4.83,-1.63,5.52
12.363037824630737,0.47,2.31,-1.51,2.79
12.373104810714722,-3.38,2.91,0.27,4.46
12.383259057998657,-5.19,2.57,-1.57,6.0
12.393075942993164,-0.91,0.04,-3.29,3.41
12.402973890304565,4.93,-2.96,-2.04,6.1
12.440443992614746,6.96,-4.08,1.0,8.12
12.440889120101929,1.63,-3.47,2.12,4.38
12.441324949264526,1.87,-2.73,-0.23,3.31
12.442931890487671,6.24,-2.35,0.64,6.69
12.452901124954224,9.43,-3.2,3.36,10.5
12.463008165359497,9.78,-4.71,4.33,11.68
12.472891092300415,8.64,-5.32,3.82,10.84
12.482895135879517,7.66,-4.89,3.23,9.64
12.492922067642212,7.22,-4.19,3.05,8.88
12.50288200378418,6.68,-3.65,3.19,8.25
12.541797876358032,5.8,-3.49,3.4,7.57
12.542240858078003,4.87,-2.93,3.43,6.63
12.542703866958618,4.19,-1.98,3.22,5.64
12.543138980865479,3.6,-0.77,2.61,4.51
12.55273985862732,2.56,0.76,1.97,3.31
12.563001871109009,0.9,2.1,0.9,2.45
12.572734117507935,-0.95,2.98,-0.64,3.19
12.582792043685913,-2.31,3.71,-1.6,4.65
12.59280514717102,-3.07,4.44,-1.74,5.67
12.60280704498291,-4.03,4.53,-1.6,6.27
12.640970945358276,-5.17,4.03,-2.18,6.9
12.641420125961304,-5.35,4.43,-3.35,7.71
12.641840934753418,-4.99,4.43,-3.86,7.7
12.642544984817505,-5.02,3.57,-3.66,7.16
12.652644872665405,-5.32,2.88,-3.58,7.02
12.66258692741394,-5.69,2.44,-3.54,7.13
12.672564029693604,-6.01,1.9,-2.86,6.92
12.682614088058472,-6.17,1.12,-1.95,6.56
12.692584991455078,-6.67,-0.44,-1.68,6.89
12.702594995498657,-6.99,-1.72,-1.71,7.39
12.712615013122559,-6.63,-2.19,-1.34,7.1
12.741569995880127,-6.06,-2.11,-0.7,6.45
12.741999864578247,-5.4,-1.82,-0.58,5.72
12.74244999885559,-4.28,-1.25,-0.8,4.53
12.752524137496948,-3.12,-1.12,-0.56,3.36
12.762457132339478,-2.68,1.34,0.06,2.99
12.772456884384155,0.18,5.99,-0.55,6.01
12.782464027404785,-0.47,-0.62,-0.27,0.82
12.792457818984985,2.49,-1.99,-0.41,3.21
12.802526950836182,7.16,-0.13,2.91,7.72
12.812483072280884,5.65,1.1,2.25,6.18
12.841787099838257,0.51,2.02,-2.36,3.14
12.842253923416138,-3.71,2.8,-3.49,5.81
12.842674016952515,-3.87,2.36,-2.56,5.2
12.852365016937256,-1.84,3.79,-1.73,4.55
12.86236310005188,-1.11,5.82,-0.61,5.95
12.872195959091187,-1.89,4.63,-0.34,5.01
12.882310152053833,-2.67,0.73,-0.25,2.77
12.892523050308228,-2.66,-1.19,0.35,2.93
12.902338027954102,-3.26,-1.65,0.6,3.7
12.91223692893982,-3.67,-1.17,0.3,3.86
12.940912008285522,-4.41,0.5,-0.81,4.51
12.941336870193481,-5.64,-0.63,-3.09,6.46
12.942168951034546,-4.86,1.31,-3.55,6.15
12.952183961868286,-2.08,2.18,-2.22,3.74
12.962147951126099,-0.37,-0.7,0.31,0.85
12.972139120101929,-0.16,-2.13,0.61,2.22
12.982104063034058,0.24,-0.96,-0.4,1.06
12.992105960845947,0.01,-0.18,-0.28,0.33
13.002133131027222,-0.67,-0.35,0.58,0.95
13.012110948562622,-1.46,0.1,0.41,1.51
13.041553974151611,-2.22,0.92,-0.52,2.45
13.0420081615448,-2.45,0.59,-1.12,2.75
13.042426824569702,-2.93,0.1,-1.96,3.52
13.052073001861572,-2.51,-0.38,-2.1,3.29
13.062023878097534,-1.48,-0.92,-0.58,1.83
13.072023153305054,-0.96,-0.56,0.33,1.15
13.081993818283081,-1.06,0.04,0.45,1.15
13.092127084732056,-1.49,-0.01,0.37,1.53
13.10200810432434,-1.14,-0.04,0.08,1.14
13.111937999725342,-0.32,-0.01,0.36,0.48
13.141571044921875,0.36,-0.04,0.29,0.46
13.141988039016724,0.36,-0.19,0.24,0.47
13.142390966415405,-0.36,-0.07,0.52,0.63
13.151900053024292,-1.19,0.07,0.88,1.48
13.161828994750977,-1.75,-0.12,0.92,1.98
13.171702146530151,-1.9,-0.21,0.55,1.98
13.181829929351807,-1.65,-0.15,-0.03,1.65
13.191718816757202,-1.03,-0.15,-0.43,1.12
13.224159002304077,-0.71,-0.12,-0.59,0.93
13.224586009979248,-0.67,-0.08,-0.88,1.1
13.225005865097046,-0.63,0.06,-1.13,1.29
13.231784105300903,-0.47,-0.04,-1.28,1.36
13.241706132888794,-0.02,-0.1,-1.33,1.33
13.251784086227417,0.3,0.05,-1.27,1.3
13.261605978012085,0.02,0.08,-1.14,1.14
13.27168893814087,-0.07,0.03,-0.93,0.93
13.28174901008606,0.2,0.01,-0.73,0.75
13.291595935821533,0.5,-0.16,-0.73,0.89
13.326580047607422,0.61,-0.28,-0.66,0.94
13.327195882797241,0.43,-0.17,-0.37,0.59
13.327614068984985,-0.1,0.01,-0.14,0.17
13.331624984741211,-0.34,0.06,-0.01,0.34
13.341640949249268,-0.09,0.01,0.26,0.27
13.351670026779175,-0.14,-0.09,0.53,0.55
13.361564874649048,-0.7,-0.18,0.98,1.21
13.37147307395935,-1.21,0.17,1.63,2.03
13.381509065628052,-1.32,0.17,1.74,2.19
13.391525030136108,-1.12,0.02,0.46,1.21
13.425792932510376,-0.46,0.19,-1.44,1.52
13.426537036895752,0.61,0.22,-2.11,2.2
13.426966905593872,1.25,0.27,-2.18,2.52
13.431571960449219,1.02,0.19,-2.01,2.26
13.441452026367188,0.58,-0.01,-1.49,1.59
13.451462984085083,0.29,-0.09,-0.93,0.97
13.461370944976807,0.11,-0.13,-0.52,0.54
13.471336126327515,-0.14,-0.07,0.03,0.15
13.481271028518677,-0.22,0.06,0.49,0.54
13.491374969482422,-0.34,-0.18,0.77,0.86
13.525502920150757,-0.13,-0.27,0.56,0.63
13.526258945465088,0.68,-0.15,0.3,0.75
13.526685953140259,1.22,-0.22,0.49,1.33
13.531182050704956,1.31,-0.09,0.43,1.38
13.541260957717896,1.02,0.09,0.38,1.09
13.551239013671875,0.43,-0.03,0.48,0.64
13.561197996139526,-0.11,-0.04,-0.18,0.21
13.57123589515686,-0.08,0.16,-0.87,0.88
13.581044912338257,0.44,0.16,-0.67,0.81
13.591202020645142,0.67,0.03,-0.16,0.68
13.626230001449585,0.53,-0.01,0.4,0.66
13.626850843429565,0.6,-0.05,0.86,1.04
13.62726902961731,0.84,-0.09,1.01,1.31
13.630995035171509,1.01,-0.07,0.66,1.2
13.641091108322144,0.03,-0.12,-0.07,0.14
13.651045083999634,-1.39,-0.04,-0.7,1.55
13.661044836044312,-2.05,0.0,-0.68,2.15
13.671120882034302,-2.03,-0.11,-0.24,2.04
13.680912017822266,-1.88,-0.13,-0.03,1.88
13.691013097763062,-1.37,-0.04,0.23,1.38
13.726014852523804,-0.86,0.06,0.8,1.17
13.726635932922363,-0.36,0.22,1.22,1.29
13.727060079574585,-0.1,0.09,1.17,1.17
13.730961084365845,0.05,0.1,0.73,0.73
13.740931034088135,0.47,0.25,-0.13,0.54
13.751040935516357,1.09,0.09,-1.41,1.78
13.760928869247437,1.82,-0.07,-1.88,2.61
13.770911931991577,2.2,-0.13,-1.06,2.44
13.781078100204468,2.0,0.01,-0.48,2.05
13.790905952453613,1.73,0.25,-0.2,1.75
13.826390981674194,1.55,0.27,0.25,1.59
13.82681393623352,1.14,0.13,0.53,1.26
13.827260971069336,0.67,0.17,0.44,0.81
13.83095097541809,0.55,0.31,0.17,0.65
13.840863943099976,0.76,0.36,-0.33,0.9
13.850887060165405,0.99,0.36,-0.97,1.43
13.860767126083374,1.21,0.29,-1.23,1.74
13.870800018310547,1.37,0.19,-0.99,1.7
13.881011962890625,1.52,0.26,-0.41,1.59
13.890896081924438,2.14,0.61,0.14,2.22
13.926512956619263,3.12,1.25,0.49,3.39
13.926935911178589,4.33,1.78,0.56,4.71
13.927356004714966,5.53,2.12,0.48,5.94
13.930618047714233,5.45,2.57,0.18,6.02
13.940480947494507,4.88,5.48,-1.31,7.45
13.950616121292114,5.44,7.57,0.45,9.33
13.96062684059143,4.71,6.28,1.6,8.01
13.970584154129028,4.13,6.04,-0.38,7.32
13.980567932128906,3.47,6.49,-1.38,7.48
13.990700006484985,2.66,6.02,-1.01,6.65
14.027106046676636,2.1,5.15,-0.91,5.63
14.027537107467651,2.27,4.32,-1.07,4.99
14.027954816818237,2.45,2.26,-0.8,3.42
14.030447006225586,3.61,-0.16,-0.77,3.69
14.040441989898682,4.72,0.22,0.29,4.73
14.050464868545532,1.63,0.9,2.0,2.73
14.060435056686401,4.0,-0.67,-0.27,4.06
14.070541143417358,7.15,-0.47,0.33,7.17
14.08038592338562,7.72,-0.63,2.52,8.14
14.090422868728638,6.22,-2.21,3.34,7.39
14.127002000808716,4.75,-2.94,2.6,6.16
14.127432107925415,4.38,-2.67,1.71,5.4
14.127849817276001,4.32,-2.11,1.47,5.02
14.130307912826538,3.84,-1.9,1.51,4.54
14.140320062637329,3.12,-1.78,1.46,3.87
14.150346994400024,2.59,-1.72,1.22,3.33
14.160284996032715,2.17,-1.47,1.11,2.84
14.1703200340271,1.55,-1.11,1.01,2.15
14.180109024047852,0.87,-0.83,0.7,1.39
14.190205812454224,0.65,-0.51,0.31,0.88
14.227132081985474,0.75,-0.01,0.14,0.76
14.227566957473755,0.63,0.45,0.31,0.83
14.227982997894287,0.2,0.66,0.41,0.8
14.230119943618774,-0.55,0.76,0.39,1.01
14.240163087844849,-1.11,0.89,0.28,1.45
14.2502601146698,-1.46,1.02,0.16,1.78
14.260130167007446,-1.75,1.24,-0.12,2.14
14.270123958587646,-1.95,1.62,-0.52,2.58
14.280077934265137,-2.11,1.85,-0.85,2.93
14.290154933929443,-2.4,1.93,-1.19,3.3
14.327895879745483,-2.53,2.07,-1.66,3.66
14.32833194732666,-2.49,1.98,-1.97,3.74
14.328748941421509,-2.61,1.61,-2.01,3.66
14.330076932907104,-2.97,1.18,-1.98,3.75
14.340027093887329,-3.23,0.98,-1.93,3.88
14.350033044815063,-3.1,1.2,-2.06,3.91
14.359980821609497,-4.27,1.19,-1.78,4.77
14.369930982589722,-5.18,0.48,-1.59,5.43
14.380208969116211,-5.31,-0.2,-1.98,5.67
14.390051126480103,-4.91,-0.52,-2.34,5.46
14.428212881088257,-4.72,-0.82,-2.09,5.22
14.428645849227905,-5.2,-0.81,-1.94,5.6
14.429067850112915,-5.84,-0.76,-1.91,6.19
14.429778814315796,-5.84,-1.29,-1.68,6.21
14.439844846725464,-5.59,-1.68,-1.3,5.98
14.449841976165771,-5.39,-2.06,-1.04,5.86
14.459784984588623,-5.32,-2.21,-1.03,5.85
14.46972393989563,-5.26,-1.86,-1.13,5.69
14.479707956314087,-5.52,-1.45,-1.54,5.91
14.489706039428711,-5.42,2.43,-2.46,6.42
14.528461933135986,-0.03,5.65,-3.4,6.59
14.528897047042847,5.91,2.82,0.89,6.6
14.529320001602173,9.19,1.96,7.61,12.09
14.529742002487183,4.83,-0.79,5.39,7.28
14.539800882339478,-1.86,-0.76,-1.15,2.31
14.549731016159058,-4.14,0.52,-2.72,4.98
14.559599161148071,-1.25,2.38,-0.44,2.72
14.569663047790527,1.22,2.84,1.14,3.29
14.579574823379517,1.61,2.25,0.98,2.93
14.58959698677063,1.07,1.92,0.17,2.2
14.62958312034607,-0.4,1.51,-1.01,1.86
14.630013942718506,-2.11,1.91,-2.44,3.74
14.630435943603516,-3.63,2.37,-3.11,5.33
14.630851030349731,-4.44,3.02,-2.82,6.06
14.639568090438843,-4.26,3.22,-2.5,5.89
14.649490118026733,-3.3,2.54,-1.94,4.59
14.65966796875,-1.97,1.17,-1.22,2.59
14.66952395439148,-0.26,-0.56,-0.7,0.93
14.679453134536743,0.84,-2.06,-0.45,2.26
14.689471006393433,0.81,-2.03,-0.77,2.31
14.72923994064331,-0.42,-0.48,-1.54,1.66
14.729668855667114,-1.5,0.54,-1.61,2.26
14.730087041854858,-1.59,1.03,-1.36,2.33
14.730501890182495,-0.83,0.9,-0.84,1.48
14.739439010620117,0.22,0.07,-0.58,0.62
14.749405145645142,0.96,-0.89,-0.42,1.37
14.759228944778442,1.06,-0.97,-0.14,1.44
14.769367933273315,0.44,-0.93,0.04,1.02
14.779348134994507,-0.32,-1.01,0.57,1.2
14.789216995239258,-0.42,-0.26,0.91,1.03
14.829501867294312,-0.57,-0.18,1.24,1.37
14.829929113388062,-1.27,-0.79,1.41,2.05
14.830350160598755,-2.11,-0.71,0.94,2.41
14.830766916275024,-2.05,0.19,0.42,2.1
14.839293003082275,-0.81,1.22,0.18,1.47
14.84916615486145,0.45,0.68,0.03,0.81
14.859292030334473,1.09,-0.6,0.64,1.39
14.869229078292847,0.75,-1.03,0.82,1.51
14.87918996810913,-0.9,-0.3,-0.15,0.96
14.889190912246704,-1.94,0.35,-1.11,2.26
14.930755853652954,-2.16,0.49,-1.18,2.5
14.93119502067566,-2.23,0.06,-0.73,2.34
14.931616067886353,-1.85,-0.54,-0.65,2.03
14.932373046875,-0.83,-0.28,-0.79,1.17
14.939154863357544,-0.24,-0.17,-0.69,0.75
14.948929071426392,-0.06,0.07,-0.57,0.57
14.959094047546387,-0.19,0.21,-0.32,0.42
14.969075918197632,-0.46,-0.17,0.24,0.54
14.979035139083862,-0.76,-0.4,0.19,0.87
14.989106893539429,-0.69,-0.34,-0.14,0.78
15.030452013015747,-0.53,-0.23,-0.04,0.57
15.030882120132446,-0.33,-0.21,-0.14,0.41
15.031304121017456,-0.06,-0.22,-0.54,0.58
15.031729936599731,-0.4,-0.3,-0.26,0.56
15.038982152938843,-1.34,-0.13,0.33,1.38
15.048941850662231,-1.58,0.15,0.53,1.67
15.0589439868927,-1.16,0.14,0.45,1.25
15.06896710395813,-0.63,0.03,0.22,0.66
15.07889199256897,-0.68,-0.01,-0.26,0.72
15.088852167129517,-1.26,-0.03,-0.37,1.31
15.131168127059937,-1.23,0.1,-0.42,1.3
15.131593942642212,-0.75,0.08,-0.9,1.17
15.132344007492065,-0.45,-0.1,-2.14,2.18
15.132765054702759,0.24,-0.46,-1.78,1.85
15.138779878616333,0.74,-0.27,-1.04,1.3
15.148986101150513,0.9,0.06,-0.88,1.26
15.158761978149414,0.71,0.16,-0.74,1.03
15.168790102005005,0.42,0.23,-1.21,1.3
15.178691148757935,0.31,0.03,-1.4,1.43
15.188776016235352,0.27,0.03,-0.64,0.69
15.198698997497559,0.0,0.28,0.32,0.42
15.231472969055176,-0.38,0.19,1.18,1.25
15.23190188407898,-0.51,0.0,1.28,1.37
15.232646942138672,-0.5,-0.3,1.07,1.21
15.238626956939697,-0.4,-0.3,0.83,0.96
15.248589992523193,-0.28,-0.14,1.01,1.05
15.25846791267395,-0.34,0.22,1.24,1.3
15.268672943115234,-0.08,0.44,0.21,0.49
15.27855396270752,0.67,0.04,-1.06,1.25
15.288599014282227,1.21,-0.04,-2.31,2.6
15.298571825027466,1.51,0.29,-2.83,3.22
15.331807851791382,1.72,0.38,-2.01,2.67
15.33260703086853,1.58,0.17,-1.36,2.09
15.333034992218018,1.02,0.04,-1.01,1.43
15.338496923446655,0.44,-0.13,-0.52,0.69
15.348437070846558,-0.05,-0.12,-0.11,0.17
15.358321905136108,-0.14,-0.04,0.42,0.44
15.368432998657227,0.23,-0.04,0.99,1.01
15.37843108177185,0.48,-0.16,1.17,1.27
15.388469934463501,0.49,-0.11,0.71,0.86
15.39841604232788,0.52,-0.03,0.18,0.55
15.430926084518433,0.91,-0.11,0.21,0.94
15.431352853775024,1.28,-0.28,0.12,1.31
15.431770086288452,1.1,-0.23,-0.19,1.13
15.43832516670227,0.88,-0.13,-0.12,0.89
15.448267936706543,1.17,-0.1,0.18,1.18
15.458191156387329,1.12,-0.07,0.21,1.14
15.468268156051636,0.43,-0.06,0.22,0.48
15.478140115737915,0.18,0.0,0.38,0.42
15.48821496963501,-0.04,0.0,0.57,0.57
15.498198986053467,-0.8,-0.11,0.34,0.87
15.53174614906311,-1.6,-0.06,0.31,1.63
15.53217601776123,-1.81,0.07,0.08,1.81
15.533241033554077,-1.45,0.06,-0.39,1.5
15.538136005401611,-1.14,-0.07,-0.55,1.26
15.548120975494385,-0.99,-0.09,-0.66,1.19
15.55812382698059,-0.76,-0.17,-0.54,0.94
15.568168878555298,-0.65,-0.2,-0.13,0.69
15.578114032745361,-0.58,0.05,-0.1,0.59
15.588101148605347,-0.33,0.05,-0.05,0.33
15.598071813583374,0.0,0.11,-0.12,0.16
15.632061958312988,0.33,0.13,-0.31,0.47
15.632808923721313,0.71,-0.04,-0.37,0.8
15.63357400894165,0.92,-0.05,-0.27,0.96
15.638023138046265,1.19,0.17,-0.01,1.2
15.64800500869751,1.4,0.37,0.16,1.45
15.657809019088745,1.34,0.4,0.26,1.42
15.667930841445923,1.36,0.39,0.3,1.44
15.67792797088623,1.53,0.33,0.46,1.63
15.688011884689331,1.62,0.56,0.36,1.75
15.697970151901245,1.27,0.71,0.48,1.53
15.732151985168457,0.93,0.73,0.76,1.4
15.733235120773315,0.85,0.71,0.73,1.32
15.733664989471436,0.96,0.72,0.44,1.27
15.7378408908844,1.35,0.57,0.23,1.48
15.747883081436157,1.72,0.7,0.18,1.86
15.757808923721313,1.57,1.12,-0.79,2.08
15.76780390739441,1.33,2.56,-1.64,3.31
15.777785062789917,1.92,4.04,0.81,4.54
15.78779911994934,2.02,3.5,1.01,4.16
15.797775030136108,2.06,3.06,0.32,3.7
15.832176923751831,2.18,2.82,0.86,3.66
15.833234071731567,2.52,2.82,0.87,3.88
15.833636045455933,3.24,3.72,0.45,4.95
15.837738990783691,4.75,4.64,0.6,6.66
15.847685098648071,5.93,4.52,0.57,7.47
15.857896089553833,5.9,3.94,0.09,7.09
15.867668867111206,5.27,3.89,-0.46,6.56
15.877672910690308,4.16,3.91,-1.06,5.8
15.887980937957764,3.16,3.96,-1.56,5.3
15.89764404296875,2.59,3.58,-2.08,4.88
15.931770086288452,1.87,2.6,-2.05,3.8
15.932507038116455,0.4,1.66,-1.63,2.36
15.933280944824219,-1.38,1.27,-1.45,2.37
15.937650918960571,0.64,0.97,-1.73,2.08
15.947563886642456,3.62,0.36,-0.53,3.67
15.957556962966919,4.81,-0.84,0.67,4.92
15.967576026916504,2.43,-1.18,0.42,2.73
15.977463006973267,3.15,-1.5,-1.44,3.77
15.987487077713013,5.76,-1.14,-0.47,5.89
15.99744200706482,6.76,-0.98,1.66,7.02
16.032992124557495,6.15,-1.63,2.5,6.83
16.033425092697144,5.2,-2.25,2.41,6.15
16.03384304046631,5.02,-2.55,2.15,6.02
16.03739905357361,5.26,-2.55,1.99,6.17
16.047322034835815,5.22,-2.49,1.95,6.1
16.057301998138428,4.83,-2.44,1.91,5.73
16.067196130752563,4.23,-2.51,1.96,5.29
16.07731294631958,3.59,-2.51,2.2,4.9
16.087373971939087,3.15,-2.14,2.44,4.52
16.097278833389282,2.56,-1.29,2.44,3.76
16.132805109024048,1.81,-0.1,1.93,2.64
16.133563995361328,1.1,0.99,1.11,1.84
16.133985996246338,0.58,1.54,0.36,1.68
16.137192964553833,-0.08,2.25,-0.2,2.26
16.14716410636902,-0.81,3.26,-0.27,3.36
16.15722107887268,-1.16,3.99,-0.12,4.15
16.16705894470215,-0.38,4.63,-0.7,4.69
16.17721199989319,-1.83,4.65,-0.06,4.99
16.187261819839478,-2.41,3.91,-0.07,4.59
16.197175979614258,-2.53,3.46,-0.51,4.31
16.233815908432007,-3.51,3.39,-1.33,5.05
16.23427414894104,-5.33,3.05,-2.4,6.59
16.234692811965942,-6.13,2.32,-3.25,7.31
16.237059831619263,-5.55,1.94,-3.38,6.78
16.24703598022461,-4.55,1.48,-3.06,5.67
16.257025957107544,-4.51,0.92,-2.82,5.39
16.267112970352173,-5.6,0.51,-2.98,6.36
16.277004957199097,-6.88,-0.11,-3.22,7.59
16.287040948867798,-7.14,-1.18,-2.9,7.79
16.296923875808716,-6.6,-1.73,-2.32,7.2
16.333679914474487,-5.89,-1.88,-2.1,6.52
16.334107160568237,-5.4,-2.01,-2.13,6.14
16.334541082382202,-5.01,-2.19,-2.22,5.9
16.33693814277649,-4.82,-2.2,-2.37,5.8
16.346930027008057,-4.73,-2.23,-2.28,5.7
16.356851816177368,-4.88,-2.05,-1.92,5.63
16.367020845413208,-3.21,4.53,-2.35,6.02
16.37684392929077,-0.89,5.12,-1.44,5.39
16.386916875839233,2.56,-0.2,-0.79,2.68
16.396790981292725,9.24,-1.37,6.46,11.35
16.43361783027649,7.91,-1.35,9.32,12.29
16.434046030044556,1.15,-0.41,1.76,2.14
16.434502840042114,-4.83,0.49,-2.87,5.63
16.43690299987793,-5.2,1.39,-2.26,5.83
16.446550130844116,-1.68,2.21,-1.38,3.1
16.45672297477722,1.17,3.73,-1.71,4.26
16.46666407585144,1.74,5.3,-0.94,5.65
16.476660013198853,-0.17,5.74,-1.16,5.85
16.48678183555603,-3.48,4.01,-1.8,5.6
16.496623039245605,-4.52,1.83,-1.44,5.08
16.53380513191223,-3.79,1.12,-1.61,4.26
16.53423285484314,-2.08,0.82,-1.84,2.89
16.53466796875,-0.2,-0.35,-2.5,2.53
16.53657102584839,0.02,-1.61,-2.35,2.84
16.54652190208435,-0.63,-1.14,-1.33,1.86
16.556558847427368,-1.95,-1.5,-0.63,2.53
16.56651997566223,-3.19,-1.56,-1.05,3.7
16.576416969299316,-3.75,-0.52,-1.34,4.01
16.586519956588745,-2.82,0.61,-1.5,3.25
16.59654211997986,-0.73,0.75,-1.33,1.69
16.635064840316772,1.05,0.25,-0.7,1.28
16.635551929473877,1.9,-0.31,-0.38,1.96
16.636075973510742,1.79,-0.47,-0.25,1.86
16.636532068252563,1.3,-0.03,0.05,1.3
16.646469831466675,0.85,0.2,0.12,0.88
16.65647006034851,0.03,0.18,-0.37,0.41
16.666407823562622,-0.33,-0.3,-0.97,1.06
16.676419973373413,-1.36,-0.57,-0.31,1.5
16.686432123184204,-2.32,-0.14,-0.23,2.33
16.696331024169922,-2.26,-0.05,-0.87,2.42
16.734316110610962,-1.24,-0.51,-0.54,1.44
16.73474907875061,-0.78,-0.66,0.41,1.1
16.73519015312195,-1.23,-0.85,1.24,1.94
16.736166954040527,-1.97,-0.53,1.49,2.52
16.74622893333435,-1.88,0.12,1.23,2.24
16.756240129470825,-1.31,0.28,0.95,1.64
16.76627492904663,-0.77,-0.02,0.19,0.79
16.776227951049805,-0.75,-0.15,-0.05,0.76
16.786257028579712,-1.13,0.04,0.05,1.13
16.796200037002563,-1.56,-0.15,0.13,1.57
16.834747076034546,-1.34,-0.32,-0.31,1.41
16.835190057754517,-1.02,-0.22,-0.62,1.21
16.835628032684326,-0.64,-0.07,-0.54,0.84
16.83606505393982,-0.62,0.07,-0.38,0.73
16.846144914627075,-0.91,0.06,-0.61,1.09
16.856138944625854,-0.93,-0.04,-0.82,1.24
16.86605191230774,-0.75,-0.1,-0.78,1.08
16.87608790397644,-0.49,0.05,-0.44,0.66
16.88619899749756,-0.17,0.01,-0.01,0.17
16.89701008796692,-0.27,0.08,0.17,0.32
16.93419599533081,-0.75,0.11,0.09,0.76
16.93460488319397,-1.09,0.03,0.09,1.09
16.93503212928772,-0.83,-0.11,0.14,0.84
16.935919046401978,-0.73,-0.11,0.05,0.73
16.945935010910034,-0.97,-0.11,0.06,0.97
16.955943822860718,-0.98,-0.09,0.32,1.03
16.965891122817993,-0.81,-0.2,0.63,1.04
16.975891828536987,-0.7,-0.04,0.83,1.08
16.985936880111694,-0.34,0.01,0.89,0.95
16.99583888053894,-0.32,-0.06,0.58,0.66
17.034780979156494,-0.07,-0.11,0.2,0.23
17.035209894180298,0.24,-0.12,-0.31,0.41
17.035632848739624,0.35,-0.08,-0.47,0.59
17.036051034927368,0.1,0.24,-0.36,0.44
17.04591393470764,0.11,0.29,-0.23,0.38
17.056019067764282,0.43,0.3,-0.36,0.63
17.065804958343506,0.46,0.22,-1.01,1.13
17.07586407661438,0.19,-0.04,-1.54,1.55
17.08582901954651,0.03,0.0,-1.48,1.48
17.09573483467102,0.21,0.19,-0.68,0.73
17.13380789756775,0.16,0.0,-0.41,0.44
17.13461184501648,-0.09,-0.04,-0.86,0.86
17.135036945343018,0.11,-0.02,-0.9,0.9
17.135589838027954,0.47,-0.28,-1.08,1.21
17.145686864852905,0.53,-0.44,-0.94,1.16
17.15572714805603,0.44,-0.26,-0.29,0.58
17.165602922439575,0.42,0.01,-0.05,0.42
17.17562508583069,0.43,-0.05,-0.02,0.43
17.185621976852417,0.68,-0.11,-0.05,0.69
17.19560694694519,1.06,-0.05,-0.92,1.4
17.233687162399292,1.13,-0.11,-1.35,1.76
17.234117031097412,1.01,-0.45,-0.73,1.32
17.23486304283142,0.73,-0.43,-0.66,1.07
17.23542284965515,0.73,-0.18,-1.5,1.67
17.24553894996643,1.04,-0.23,-1.59,1.91
17.25554895401001,1.0,-0.57,-0.61,1.3
17.26546001434326,0.51,-0.44,-0.89,1.11
17.275501012802124,0.14,0.03,-0.35,0.37
17.285277128219604,-0.12,0.4,0.52,0.66
17.295387029647827,-0.42,0.56,0.58,0.9
17.334154844284058,-0.27,0.51,0.58,0.81
17.334905862808228,0.12,0.07,0.9,0.91
17.335327863693237,0.08,-0.02,0.57,0.57
17.335777044296265,0.07,0.03,0.22,0.23
17.34531593322754,-0.1,0.01,0.0,0.1
17.355387926101685,-0.31,-0.01,-0.16,0.34
17.365288972854614,-0.15,0.0,-0.22,0.26
17.375293970108032,0.32,-0.03,-0.09,0.33
17.385194063186646,0.77,0.0,0.0,0.77
17.395353078842163,0.73,-0.01,-0.12,0.73
17.4343421459198,0.25,-0.06,-0.01,0.25
17.435102939605713,-0.07,-0.06,0.34,0.35
17.43550395965576,-0.51,-0.1,0.33,0.61
17.43595004081726,-0.91,-0.07,0.04,0.91
17.445165872573853,-0.84,-0.04,-0.03,0.84
17.45514416694641,-0.56,0.04,-0.08,0.56
17.465119123458862,-0.19,0.17,-0.33,0.41
17.47515296936035,0.33,0.3,-0.41,0.6
17.484965085983276,0.78,0.24,-0.12,0.82
17.4951388835907,0.98,0.13,0.15,0.99
17.533594846725464,1.05,0.04,0.44,1.13
17.534026861190796,1.62,0.0,0.69,1.76
17.534788846969604,2.39,0.01,0.74,2.5
17.53520894050598,3.05,0.04,0.85,3.16
17.544960021972656,3.33,0.08,1.12,3.51
17.555068969726562,3.36,0.21,1.2,3.57
17.56504511833191,3.33,0.44,0.76,3.44
17.57501792907715,3.47,0.59,0.15,3.52
17.584853887557983,3.54,0.8,0.15,3.63
17.594967126846313,3.54,0.93,0.52,3.69
17.634176015853882,3.3,0.91,0.66,3.48
17.634947061538696,2.4,1.28,0.2,2.72
17.63537096977234,1.39,1.35,-0.09,1.93
17.63581681251526,-0.1,2.16,-1.01,2.38
17.64485502243042,-0.56,4.99,-1.8,5.33
17.654956102371216,0.61,5.0,0.52,5.06
17.6648428440094,1.46,4.36,0.33,4.6
17.675073862075806,2.78,5.24,-0.79,5.98
17.68505597114563,4.23,5.76,-0.49,7.16
17.694823026657104,4.62,5.1,-0.39,6.89
17.73346781730652,3.8,4.72,-0.91,6.12
17.733898878097534,3.35,4.41,-1.28,5.68
17.734328031539917,3.12,3.98,-1.17,5.19
17.735109090805054,2.26,3.18,-0.85,3.99
17.744733095169067,1.71,1.86,-0.92,2.68
17.754749059677124,1.16,0.74,-1.09,1.75
17.764725923538208,0.5,-0.17,-0.49,0.72
17.774664163589478,1.53,0.25,-0.33,1.58
17.784647941589355,3.7,-1.05,0.46,3.87
17.79466199874878,1.95,-2.03,2.5,3.76
17.833678007125854,2.28,-1.52,0.19,2.74
17.834107160568237,5.68,-1.4,-0.94,5.92
17.834563970565796,6.85,-1.18,1.24,7.06
17.83535885810852,6.49,-1.83,2.02,7.03
17.84459614753723,5.47,-2.24,1.45,6.08
17.85451102256775,5.07,-2.23,1.07,5.64
17.864546060562134,4.63,-2.33,1.06,5.29
17.874513864517212,3.94,-2.5,1.19,4.81
17.884557008743286,3.27,-2.7,1.29,4.43
17.894344091415405,2.68,-2.55,1.24,3.9
17.93360996246338,2.27,-1.95,1.18,3.21
17.93406081199646,2.2,-1.3,1.08,2.77
17.934476137161255,2.2,-0.54,0.85,2.41
17.935253858566284,1.97,0.11,0.59,2.05
17.944434881210327,1.59,0.57,0.2,1.7
17.95443606376648,1.05,0.9,-0.11,1.38
17.964406967163086,0.47,1.16,-0.3,1.28
17.974382162094116,-0.08,1.34,-0.27,1.36
17.984214067459106,-0.5,1.5,-0.3,1.6
17.994425058364868,-0.96,1.62,-0.41,1.92
18.034207105636597,-0.94,1.8,-0.81,2.18
18.034634828567505,-1.11,1.7,-1.23,2.37
18.035425901412964,-0.84,1.47,-1.71,2.4
18.03585195541382,-2.21,1.53,-1.57,3.11
18.044296979904175,-3.77,1.15,-1.66,4.27
18.05431294441223,-4.25,1.31,-2.14,4.93
18.064252138137817,-3.96,1.84,-2.52,5.04
18.07428002357483,-3.96,1.94,-2.34,4.99
18.084272146224976,-4.28,1.62,-2.0,4.99
18.094228982925415,-4.62,1.1,-1.86,5.1
18.13451313972473,-4.73,0.69,-1.87,5.13
18.134949922561646,-4.6,0.27,-1.8,4.94
18.135645151138306,-4.12,0.17,-1.99,4.57
18.136070013046265,-3.72,0.16,-2.28,4.36
18.14415192604065,-3.43,-0.29,-2.12,4.04
18.15411686897278,-3.19,-0.96,-1.82,3.79
18.164028882980347,-2.99,-1.37,-1.36,3.55
18.17412304878235,-2.71,-1.59,-1.16,3.34
18.184083938598633,-3.03,-1.7,-1.57,3.81
18.194069147109985,-3.54,-1.64,-2.01,4.38
18.235052824020386,-3.99,-1.5,-2.1,4.75
18.2357919216156,-4.31,-0.82,-1.91,4.78
18.23621392250061,-2.24,4.65,-2.35,5.67
18.236655950546265,0.49,2.74,-1.07,2.98
18.243968963623047,1.64,1.97,0.98,2.74
18.25398898124695,6.55,1.51,5.49,8.67
18.26392388343811,6.14,-1.08,8.14,10.25
18.273939847946167,1.71,-1.26,2.29,3.12
18.283889055252075,-2.6,-0.25,-2.21,3.42
18.293818950653076,-5.0,0.77,-2.27,5.54
18.334748029708862,-3.28,1.73,-0.43,3.73
18.335179090499878,-0.7,2.49,0.55,2.64
18.335922956466675,0.12,2.11,0.78,2.25
18.336355924606323,-0.51,1.42,0.09,1.51
18.343801021575928,-1.26,1.69,-1.15,2.4
18.353851079940796,-2.01,2.66,-2.52,4.17
18.363788843154907,-2.28,3.52,-3.25,5.3
18.37375283241272,-1.42,2.93,-3.34,4.66
18.3837411403656,0.4,0.85,-2.82,2.97
18.3936550617218,2.29,-1.82,-1.6,3.33
18.43509602546692,3.1,-2.68,-0.29,4.1
18.435899019241333,0.1,-0.86,-2.56,2.7
18.43632698059082,-4.03,-0.3,-5.9,7.15
18.436766862869263,-4.46,2.86,-4.56,6.99
18.443658113479614,-3.83,1.82,-0.28,4.24
18.45368504524231,-3.41,-1.13,1.22,3.79
18.463659048080444,-1.7,-1.59,1.33,2.68
18.473631143569946,1.17,-1.17,0.57,1.75
18.48355984687805,1.59,-1.58,-0.87,2.4
18.49354910850525,0.54,-1.91,-0.91,2.18
18.535567045211792,-1.17,-1.01,0.58,1.65
18.535999059677124,-3.48,0.97,1.58,3.94
18.536417961120605,-4.44,1.46,1.26,4.84
18.536843061447144,-4.43,0.31,1.49,4.68
18.543445825576782,-3.44,-0.57,1.18,3.68
18.55340886116028,-2.64,-0.94,1.0,2.97
18.56343913078308,-2.21,-0.61,1.19,2.58
18.573437929153442,-1.32,-0.23,1.2,1.79
18.58340287208557,-0.85,0.08,0.85,1.2
18.59326696395874,-1.15,-0.05,0.0,1.15
18.635578870773315,-1.29,-0.14,-0.85,1.55
18.636327981948853,-1.18,-0.07,-1.12,1.62
18.63676905632019,-1.25,0.05,-0.94,1.56
18.637190103530884,-1.08,0.08,-0.5,1.19
18.643353939056396,-0.77,-0.07,-0.25,0.81
18.653201818466187,-0.56,-0.04,-0.5,0.75
18.663235902786255,-0.58,-0.04,-0.58,0.82
18.673290967941284,-0.61,-0.12,-0.46,0.77
18.683308839797974,-0.86,-0.03,-0.13,0.87
18.693302869796753,-1.0,0.13,0.46,1.1
18.73565983772278,-0.76,0.01,0.73,1.05
18.736407995224,-0.21,-0.04,0.15,0.26
18.73685097694397,-0.32,-0.19,-0.21,0.42
18.737269163131714,-0.7,-0.09,-0.2,0.73
18.743149042129517,-0.71,-0.07,-0.21,0.74
18.75291085243225,-0.53,0.15,-0.42,0.69
18.763123035430908,-0.08,-0.01,-0.71,0.71
18.773216009140015,0.53,-0.14,-1.18,1.3
18.783174991607666,0.65,-0.17,-1.37,1.52
18.79314684867859,0.34,-0.09,-1.2,1.25
18.835796117782593,-0.2,0.08,-0.97,0.99
18.83654499053955,-0.45,-0.07,-1.02,1.11
18.83698582649231,-0.03,-0.03,-0.84,0.84
18.837403059005737,0.4,-0.16,-0.69,0.81
18.843039989471436,0.56,-0.15,-0.66,0.87
18.853113889694214,0.72,0.0,-0.34,0.79
18.86323094367981,0.51,0.03,0.02,0.51
18.873092889785767,0.07,0.07,0.08,0.12
18.882987022399902,0.14,0.15,0.09,0.22
18.893009901046753,0.27,-0.08,-0.11,0.3
18.936089038848877,0.13,-0.12,-0.46,0.49
18.936516046524048,0.06,0.12,-0.59,0.6
18.936939001083374,0.05,-0.11,-0.41,0.42
18.937380075454712,0.08,-0.02,-0.49,0.49
18.942867040634155,0.44,0.02,-0.34,0.55
18.952919006347656,0.82,-0.14,-0.58,1.01
18.96268391609192,1.23,-0.11,-0.91,1.53
18.97286581993103,1.53,-0.12,-0.87,1.76
18.982756853103638,1.34,-0.14,-0.1,1.35
18.992835998535156,0.85,-0.06,0.05,0.85
19.035632848739624,0.33,-0.15,-0.69,0.77
19.03605604171753,0.33,-0.23,-1.0,1.07
19.036797046661377,0.55,-0.49,-0.87,1.13
19.03724193572998,0.75,-0.57,-1.86,2.08
19.042695999145508,0.64,-0.49,-1.4,1.61
19.053051948547363,0.07,0.18,-1.0,1.01
19.062674045562744,-0.47,0.56,-0.24,0.76
19.07268786430359,-0.45,0.19,0.54,0.72
19.082669019699097,-0.79,0.22,1.08,1.35
19.092679977416992,-1.45,0.55,1.8,2.37
19.1026451587677,-0.85,0.37,2.14,2.33
19.136600017547607,0.35,0.18,1.21,1.27
19.13701891899109,1.07,0.04,0.35,1.12
19.13775086402893,1.09,-0.05,-0.2,1.1
19.142570972442627,0.73,-0.12,-0.67,0.99
19.152604818344116,0.04,-0.13,-0.73,0.74
19.162482976913452,-0.44,-0.09,-0.27,0.52
19.17280101776123,-0.64,0.04,-0.06,0.64
19.18276596069336,-0.7,0.08,-0.06,0.7
19.192495107650757,-0.43,0.03,0.04,0.43
19.202738046646118,0.04,0.02,0.2,0.2
19.236767053604126,0.11,0.03,0.2,0.23
19.237499952316284,-0.12,0.0,0.0,0.12
19.23792815208435,-0.55,0.0,-0.23,0.59
19.24239993095398,-0.81,-0.05,-0.28,0.85
19.25239586830139,-0.78,-0.05,-0.33,0.84
19.262197017669678,-0.56,-0.09,-0.29,0.63
19.272377014160156,-0.27,-0.07,-0.05,0.28
19.28238797187805,0.05,0.03,0.11,0.12
19.292507886886597,0.47,0.03,0.06,0.47
19.302343130111694,0.81,-0.07,0.0,0.81
19.336567163467407,0.84,-0.09,0.1,0.85
19.337310075759888,0.83,-0.08,0.24,0.86
19.33775305747986,0.8,-0.03,0.0,0.8
19.342272996902466,0.71,0.07,-0.09,0.71
19.352207899093628,0.68,0.15,0.09,0.7
19.362213850021362,0.71,0.05,0.0,0.71
19.37226700782776,0.74,-0.06,-0.18,0.76
19.38222098350525,0.9,-0.19,-0.2,0.94
19.392181158065796,1.3,-0.11,-0.31,1.34
19.402156114578247,1.69,0.07,-0.49,1.76
19.43631386756897,1.77,0.21,-0.02,1.78
19.437476873397827,2.04,0.36,0.22,2.08
19.437916040420532,2.17,0.48,-0.07,2.22
19.442088842391968,1.85,0.47,-0.1,1.91
19.452064990997314,1.66,0.48,-0.12,1.73
19.46205997467041,1.59,0.54,0.01,1.67
19.472287893295288,1.84,0.71,-0.08,1.97
19.481999158859253,2.11,0.83,-0.21,2.27
19.492027044296265,2.34,0.93,-0.16,2.52
19.502015829086304,2.65,1.17,-0.12,2.89
19.537368059158325,2.76,1.41,0.96,3.24
19.537791967391968,2.62,2.24,0.57,3.49
19.5382080078125,2.42,3.14,-0.05,3.96
19.541879892349243,2.89,3.46,-0.26,4.51
19.551857948303223,2.79,3.66,0.42,4.62
19.561837911605835,2.35,3.7,0.02,4.38
19.571955919265747,2.02,4.04,0.22,4.52
19.581812143325806,2.66,4.54,0.42,5.27
19.61933207511902,4.73,5.64,0.56,7.38
19.619763135910034,6.5,6.39,0.35,9.12
19.620507955551147,6.61,6.45,-0.35,9.24
19.62187099456787,5.26,6.26,-1.14,8.25
19.631800889968872,3.3,5.89,-1.46,6.9
19.641815900802612,1.85,4.91,-1.99,5.61
19.651728868484497,0.65,3.2,-1.74,3.7
19.66176700592041,-1.19,2.03,-0.62,2.43
19.67174196243286,-3.34,0.68,-0.49,3.44
19.68169403076172,-1.14,-0.75,-1.22,1.83
19.721153020858765,3.52,-2.24,-0.13,4.17
19.721615076065063,4.69,-2.81,2.23,5.9
19.722033977508545,4.23,-2.08,0.29,4.72
19.722453832626343,6.37,-2.67,-0.43,6.92
19.731544971466064,7.07,-2.88,2.08,7.91
19.741729974746704,7.08,-3.69,3.19,8.59
19.751599073410034,6.07,-4.5,3.26,8.22
19.761618852615356,4.94,-4.42,3.09,7.31
19.771508932113647,4.64,-3.84,2.83,6.65
19.781551122665405,5.07,-3.48,2.68,6.7
19.821090936660767,5.62,-3.41,2.71,7.11
19.821527004241943,5.52,-3.38,2.93,7.1
19.82194209098816,4.66,-2.98,2.96,6.27
19.82235598564148,3.46,-2.16,2.36,4.71
19.831422090530396,2.36,-1.27,1.61,3.12
19.841563940048218,1.54,-0.57,0.91,1.87
19.85151195526123,1.11,0.2,0.27,1.15
19.86148715019226,0.91,1.3,-0.33,1.62
19.87137198448181,0.72,2.6,-0.93,2.85
19.88146996498108,0.34,3.78,-1.48,4.07
19.920866012573242,0.12,4.39,-2.06,4.85
19.921294927597046,0.25,4.68,-2.7,5.4
19.921723127365112,-0.86,5.01,-2.25,5.55
19.92213797569275,-4.89,4.58,-1.44,6.85
19.931352853775024,-6.16,3.86,-2.6,7.72
19.941295862197876,-5.39,3.73,-2.83,7.13
19.951364994049072,-4.38,3.14,-2.49,5.93
19.961376905441284,-4.07,2.41,-2.12,5.18
19.971142053604126,-4.23,2.21,-1.93,5.14
19.981252908706665,-4.92,2.18,-2.45,5.91
20.021002054214478,-5.7,1.77,-3.4,6.86
20.02143096923828,-6.18,0.66,-3.56,7.16
20.021857976913452,-6.08,-1.15,-2.67,6.73
20.02227807044983,-5.65,-2.52,-2.02,6.5
20.03116488456726,-5.34,-2.62,-2.35,6.39
20.041208028793335,-5.49,-2.04,-3.14,6.64
20.051151990890503,-6.1,-1.26,-3.71,7.24
20.061200857162476,-6.28,-1.32,-3.55,7.33
20.070997953414917,-4.6,2.9,-3.51,6.47
20.08119511604309,-1.24,4.35,-2.32,5.08
20.121095895767212,-1.46,0.45,-0.81,1.72
20.121562004089355,4.25,1.42,2.52,5.14
20.121998071670532,8.48,0.01,8.73,12.17
20.122416019439697,5.91,-0.53,4.66,7.54
20.13105607032776,0.64,0.61,-1.52,1.75
20.14098811149597,-2.52,0.51,-1.85,3.16
20.15094304084778,-2.75,-0.02,-1.21,3.0
20.160999059677124,-1.65,1.01,-1.5,2.44
20.171107053756714,-1.05,1.43,-0.98,2.02
20.181112051010132,-1.36,1.26,-0.74,1.99
20.221240997314453,-2.43,1.54,-1.39,3.19
20.221675157546997,-3.74,2.26,-2.31,4.94
20.222131967544556,-4.02,3.46,-2.88,6.03
20.222552061080933,-3.42,3.48,-2.46,5.46
20.23082709312439,-2.4,1.27,-1.13,2.94
20.240801095962524,-1.53,-0.77,-0.14,1.71
20.250795125961304,-0.17,-2.08,0.21,2.09
20.260793924331665,-0.23,-0.62,-0.45,0.79
20.27113103866577,-2.59,-1.18,-4.3,5.15
20.280638933181763,-3.03,1.75,-5.03,6.12
20.321595907211304,-2.05,1.79,-1.19,2.97
20.322028875350952,-1.18,-0.41,0.46,1.33
20.322449922561646,-0.52,-0.73,-0.48,1.01
20.3228759765625,0.1,-1.05,-0.68,1.25
20.330585956573486,-0.47,-1.81,-0.02,1.87
20.34073805809021,-1.98,-1.4,-0.03,2.42
20.350723028182983,-3.19,-0.43,0.16,3.22
20.360628843307495,-3.7,0.26,0.91,3.81
20.370662927627563,-3.79,0.91,1.47,4.16
20.3805890083313,-3.18,0.84,1.51,3.61
20.42240595817566,-2.07,0.23,1.02,2.31
20.42283296585083,-1.52,-0.37,0.53,1.65
20.423250913619995,-1.46,-0.39,0.34,1.54
20.42367911338806,-1.24,-0.19,0.24,1.27
20.43056893348694,-1.03,-0.08,0.21,1.05
20.440600156784058,-0.64,0.17,0.18,0.68
20.450381994247437,0.02,0.13,-0.18,0.22
20.460532903671265,0.42,-0.03,-0.97,1.05
20.470468044281006,0.18,0.07,-1.4,1.41
20.48048996925354,-0.23,0.26,-0.58,0.67
20.52210783958435,-0.61,0.42,0.2,0.76
20.522536993026733,-0.56,0.24,0.26,0.66
20.522956132888794,-0.35,0.0,0.27,0.44
20.523375988006592,-0.16,0.07,-0.02,0.17
20.530441999435425,-0.23,0.21,0.2,0.37
20.540362119674683,-0.29,-0.03,0.75,0.8
20.550379991531372,-0.43,-0.17,0.33,0.56
20.560431003570557,-0.94,-0.27,0.1,0.98
20.570494890213013,-1.54,-0.3,-0.22,1.58
20.580379009246826,-1.6,-0.08,-0.88,1.82
20.621362924575806,-1.32,-0.02,-1.13,1.73
20.621793031692505,-1.12,-0.33,-1.23,1.69
20.62224507331848,-1.03,-0.46,-1.55,1.91
20.62264609336853,-0.58,-0.46,-1.63,1.79
20.630223989486694,-0.16,-0.46,-1.51,1.58
20.64022707939148,-0.03,-0.37,-1.56,1.6
20.65019702911377,0.12,0.17,-1.58,1.59
20.660233974456787,0.54,0.52,-0.83,1.11
20.670168161392212,0.89,0.24,-0.33,0.97
20.680185079574585,1.16,0.07,-0.23,1.18
20.72218894958496,1.6,0.05,0.01,1.6
20.722599983215332,1.87,0.05,0.27,1.89
20.722997903823853,1.47,-0.14,0.31,1.5
20.72341513633728,0.73,-0.28,-0.32,0.84
20.73011302947998,0.05,-0.19,-0.45,0.49
20.740165948867798,-0.28,-0.21,-0.61,0.7
20.750139951705933,-0.3,-0.18,-0.76,0.83
20.760071992874146,-0.15,0.05,-0.91,0.92
20.770056009292603,0.41,-0.22,-1.02,1.12
20.779983043670654,0.7,-0.21,-1.11,1.32
20.821660041809082,0.67,-0.15,-1.08,1.27
20.822093963623047,0.46,-0.23,-0.84,0.98
20.822552919387817,0.08,-0.62,0.08,0.63
20.82297396659851,0.51,-0.27,0.07,0.58
20.8299400806427,1.09,0.32,-0.48,1.23
20.839893102645874,0.92,0.6,-0.72,1.31
20.850015878677368,0.6,0.22,-0.82,1.03
20.859934091567993,0.41,-0.24,-0.08,0.48
20.869860887527466,0.2,-0.23,0.14,0.33
20.87970495223999,0.04,0.04,0.17,0.17
20.9218909740448,0.08,0.22,0.09,0.25
20.922320127487183,0.34,0.25,-0.53,0.67
20.922783136367798,0.84,-0.09,0.08,0.84
20.92319893836975,1.14,-0.13,0.36,1.2
20.929863929748535,0.95,0.04,0.44,1.04
20.939795970916748,0.47,0.11,0.63,0.79
20.94972801208496,-0.04,0.09,0.66,0.66
20.95977282524109,-0.38,-0.11,0.39,0.55
20.969756841659546,-0.62,-0.14,0.33,0.71
20.97958016395569,-0.72,-0.06,0.3,0.78
21.02203893661499,-0.55,-0.07,0.24,0.6
21.02249503135681,-0.29,-0.04,0.28,0.4
21.02293086051941,0.06,-0.01,0.24,0.24
21.02336287498474,0.3,0.06,-0.03,0.3
21.029621839523315,-0.05,-0.01,-0.02,0.05
21.03958296775818,-0.44,-0.07,0.04,0.44
21.04951000213623,-0.52,-0.06,0.04,0.52
21.059613943099976,-0.64,-0.1,0.16,0.66
21.069548845291138,-0.63,-0.06,0.2,0.66
21.079570055007935,-0.61,0.01,-0.05,0.61
21.12168288230896,-0.72,0.0,-0.22,0.75
21.122108936309814,-0.77,0.02,-0.27,0.81
21.122529983520508,-0.73,0.0,-0.15,0.74
21.12296986579895,-0.85,0.01,0.06,0.85
21.12950897216797,-1.01,0.16,0.07,1.02
21.13931393623352,-0.8,0.17,-0.15,0.83
21.14943814277649,-0.65,0.12,-0.18,0.68
21.15947699546814,-0.53,0.18,-0.37,0.67
21.16964101791382,-0.2,0.23,-0.68,0.74
21.179430961608887,0.3,0.28,-0.96,1.04
21.22181010246277,0.7,0.4,-1.22,1.46
21.222237825393677,0.78,0.36,-1.09,1.38
21.22265601158142,0.65,0.15,-0.77,1.01
21.223073959350586,0.86,-0.06,-0.43,0.96
21.229305028915405,1.61,-0.23,0.05,1.62
21.239114999771118,2.47,-0.39,0.89,2.65
21.249263048171997,2.8,-0.29,1.3,3.1
21.25928497314453,2.62,0.07,1.45,2.99
21.269287824630737,2.48,0.18,1.6,2.95
21.2793710231781,2.45,0.23,1.2,2.73
21.323221921920776,2.61,0.28,0.62,2.69
21.323664903640747,2.74,0.32,0.0,2.75
21.324395895004272,2.42,0.47,-0.55,2.52
21.3248131275177,1.97,0.68,-0.82,2.23
21.329071044921875,1.71,0.6,-0.87,2.01
21.339001893997192,1.77,0.35,-0.44,1.85
21.349024057388306,2.24,0.33,0.43,2.3
21.35908007621765,2.33,0.74,0.21,2.45
21.369071006774902,1.6,1.13,-0.17,1.96
21.379541158676147,0.88,1.57,0.38,1.83
21.42188000679016,0.97,2.55,0.19,2.73
21.422688007354736,2.26,3.59,-0.04,4.24
21.423147916793823,2.51,3.41,1.57,4.51
21.423567056655884,2.59,3.66,0.63,4.52
21.42902398109436,2.4,4.92,0.55,5.5
21.439008951187134,2.53,5.96,0.32,6.48
21.448999166488647,3.64,6.89,-0.2,7.79
21.458985090255737,5.4,7.58,-0.29,9.31
21.469159841537476,6.91,6.82,-0.85,9.74
21.47894310951233,7.68,5.9,-1.18,9.75
21.52253293991089,6.08,5.13,-2.06,8.21
21.522966146469116,2.47,3.26,-2.14,4.61
21.523403882980347,-0.71,1.15,-0.93,1.64
21.52416491508484,-2.66,0.13,-0.17,2.66
21.528878927230835,-1.26,-0.49,-0.71,1.52
21.539031982421875,2.6,-0.86,0.35,2.76
21.548738956451416,2.11,-0.8,2.01,3.02
21.55881094932556,4.87,-1.06,-1.07,5.09
21.56877589225769,9.73,-0.6,-0.79,9.78
21.57880187034607,10.58,-0.32,2.75,10.93
21.588786840438843,8.35,-1.77,4.15,9.49
21.62259793281555,6.68,-3.03,3.52,8.13
21.623020887374878,6.64,-3.13,2.89,7.88
21.623455047607422,6.74,-2.82,2.77,7.81
21.628659963607788,6.21,-2.49,2.51,7.14
21.638723134994507,5.29,-2.2,2.3,6.17
21.648669004440308,4.27,-2.17,2.2,5.27
21.658686876296997,3.45,-2.0,2.19,4.54
21.668657064437866,2.88,-1.56,2.12,3.9
21.678601026535034,2.41,-1.03,2.08,3.34
21.688577890396118,2.01,-0.39,2.08,2.91
21.721877813339233,1.62,0.35,1.8,2.44
21.7226300239563,0.94,1.17,1.06,1.83
21.723056077957153,-0.01,2.09,0.12,2.09
21.728607892990112,-1.26,3.11,-0.69,3.42
21.73855185508728,-2.14,4.21,-1.27,4.89
21.74847912788391,-2.55,5.44,-1.82,6.27
21.758525133132935,-3.07,6.33,-2.32,7.4
21.768505811691284,-3.16,6.09,-2.81,7.41
21.778517961502075,-4.84,4.45,-2.25,6.94
21.788499116897583,-6.18,2.6,-2.18,7.05
21.822441816329956,-5.66,1.63,-2.75,6.5
21.82287907600403,-5.48,1.55,-3.6,6.73
21.823662996292114,-6.08,1.71,-4.46,7.73
21.82836890220642,-7.13,1.11,-5.03,8.79
21.838352918624878,-8.34,-0.32,-5.19,9.82
21.848220109939575,-9.35,-1.68,-4.69,10.59
21.858377933502197,-9.85,-2.49,-4.32,11.04
21.868319034576416,-9.6,-2.95,-3.91,10.77
21.87832999229431,-8.21,-2.86,-3.57,9.39
21.88824701309204,-6.6,-2.08,-3.39,7.7
21.922364950180054,-6.03,-1.82,-3.55,7.23
21.923421144485474,-6.13,-1.82,-3.6,7.33
21.923854112625122,-3.5,4.45,-4.3,7.1
21.928256034851074,5.78,7.02,-2.48,9.42
21.93821883201599,14.56,3.63,6.78,16.46
21.94805598258972,16.71,-2.43,13.99,21.92
21.9582040309906,7.42,-2.6,5.96,9.86
21.968050956726074,-2.55,-1.89,-1.76,3.62
21.978203058242798,-6.05,-1.24,-2.59,6.69
21.988199949264526,-4.17,0.81,-0.26,4.25
22.022309064865112,-2.12,2.47,-0.34,3.27
22.023406982421875,-1.83,4.15,-0.64,4.58
22.023838996887207,-2.01,5.88,-0.55,6.23
22.0280659198761,-3.74,6.55,-1.02,7.61
22.038015127182007,-5.77,4.86,-2.6,7.97
22.048089027404785,-5.52,1.64,-2.84,6.42
22.05807900428772,-4.04,-0.11,-2.77,4.89
22.06825089454651,-2.08,-0.37,-2.56,3.31
22.077958822250366,-0.35,-0.37,-2.99,3.03
22.08816885948181,-0.42,-1.54,-3.83,4.14
22.1219961643219,-1.12,-0.51,-3.5,3.71
22.12245202064514,-1.92,0.1,-2.1,2.84
22.123521089553833,-2.35,-0.85,-1.93,3.15
22.127933979034424,-2.04,-0.98,-1.94,2.98
22.137820959091187,-0.96,-0.09,-1.68,1.93
22.147888898849487,0.45,0.64,-1.66,1.83
22.157903909683228,1.79,0.43,-0.33,1.87
22.167814016342163,2.36,-0.47,1.75,2.97
22.17788004875183,1.77,-0.85,2.61,3.26
22.187824964523315,0.25,-1.0,2.64,2.83
22.222141981124878,-2.0,-1.24,2.71,3.58
22.222880125045776,-3.7,-1.27,2.35,4.56
22.223667860031128,-4.24,-0.6,1.26,4.46
22.227869987487793,-3.58,0.19,0.04,3.58
22.237696886062622,-2.73,0.46,-0.27,2.78
22.2477548122406,-2.47,0.11,-0.09,2.47
22.257694959640503,-2.57,-0.23,-0.09,2.58
22.267759084701538,-1.49,0.05,-0.02,1.49
22.27779507637024,-0.42,0.34,0.3,0.61
22.287729024887085,-0.36,0.27,-0.5,0.67
22.322463035583496,-0.77,0.22,-1.36,1.57
22.32345414161682,-1.16,0.11,-1.78,2.12
22.32387614250183,-1.3,0.01,-1.54,2.01
22.32763409614563,-0.83,0.0,-1.29,1.53
22.337572813034058,-0.29,0.08,-1.05,1.09
22.34757113456726,-0.08,0.04,-0.88,0.88
22.357481002807617,-0.21,0.07,-2.22,2.23
22.367637872695923,-0.2,-0.13,-2.67,2.68
22.377660989761353,-0.26,-0.3,-1.37,1.42
22.38751482963562,0.0,-0.02,-0.83,0.83
22.423022031784058,0.47,0.01,-0.37,0.59
22.423768043518066,0.43,-0.01,-0.45,0.62
22.42419195175171,0.18,0.1,-0.86,0.88
22.427429914474487,0.51,-0.15,-0.54,0.75
22.43738603591919,0.66,-0.14,-0.14,0.68
22.44747805595398,0.4,-0.05,0.35,0.53
22.45731496810913,0.06,-0.1,0.6,0.61
22.467453002929688,-0.16,-0.07,0.16,0.23
22.4773850440979,-0.04,-0.13,-0.08,0.15
22.487251043319702,0.17,-0.06,-0.06,0.19
22.522929906845093,-0.1,0.04,-0.01,0.1
22.52369999885559,-0.57,0.03,0.17,0.59
22.524123907089233,-0.6,0.04,0.2,0.63
22.527256965637207,-0.5,-0.04,0.03,0.5
22.537292957305908,-0.65,-0.08,-0.18,0.67
22.54731583595276,-0.53,-0.01,-0.01,0.53
22.557113885879517,-0.32,-0.03,0.11,0.33
22.567207098007202,-0.27,0.14,-0.02,0.3
22.57733702659607,-0.21,0.15,-0.08,0.27
22.587165117263794,-0.21,-0.03,-0.15,0.25
22.622691869735718,-0.19,0.02,-0.37,0.41
22.623126983642578,-0.04,-0.04,-0.15,0.16
22.623878002166748,0.08,0.07,-0.21,0.23
22.627156019210815,0.41,0.27,-0.66,0.82
22.637133836746216,0.38,0.16,-0.78,0.88
22.647106885910034,-0.13,0.07,-0.67,0.68
22.657124996185303,-0.47,0.03,-0.39,0.61
22.667187929153442,-0.49,-0.21,-0.28,0.6
22.67715811729431,-0.31,-0.16,-0.01,0.34
22.687026023864746,0.05,0.1,0.38,0.39
22.72256898880005,0.19,0.1,0.34,0.4
22.72298502922058,0.27,0.03,0.25,0.36
22.723408937454224,0.65,0.02,0.03,0.65
22.727046012878418,0.7,-0.09,-0.4,0.81
22.73697304725647,0.7,-0.15,-0.66,0.97
22.747015953063965,1.01,-0.05,-0.47,1.11
22.757159948349,1.21,0.01,-0.19,1.22
22.766885995864868,0.8,-0.01,0.0,0.8
22.776973009109497,0.35,0.1,0.26,0.44
22.78692889213562,0.15,0.05,0.42,0.44
22.8227379322052,0.01,0.06,0.27,0.27
22.82314395904541,0.14,0.06,0.0,0.15
22.823882818222046,0.39,-0.01,-0.13,0.41
22.826740980148315,0.63,0.04,-0.08,0.63
22.836796045303345,0.51,0.05,0.06,0.51
22.84682297706604,-0.03,0.04,0.51,0.51
22.85677981376648,-0.42,0.17,1.11,1.19
22.866710901260376,-0.58,0.19,1.29,1.42
22.87680697441101,-0.26,0.22,0.79,0.86
22.88676905632019,0.37,0.15,-0.44,0.59
22.922112941741943,1.14,-0.03,-1.7,2.04
22.922538995742798,1.53,-0.2,-1.72,2.31
22.92295503616333,1.07,0.09,-1.8,2.09
22.926712036132812,0.23,0.29,-1.67,1.71
22.936671018600464,-0.28,0.15,-0.83,0.88
22.946691036224365,-0.01,0.03,-0.28,0.28
22.956621885299683,0.67,0.23,0.1,0.71
22.966438055038452,0.97,0.56,0.61,1.27
22.976714849472046,0.84,1.01,0.81,1.54
22.986561059951782,1.02,1.07,0.82,1.69
23.02261996269226,1.47,0.77,0.66,1.78
23.02304697036743,1.92,0.59,0.24,2.02
23.023464918136597,2.07,0.62,-0.04,2.16
23.026474952697754,2.14,0.84,-0.26,2.31
23.0364511013031,2.69,0.89,-0.22,2.84
23.046721935272217,3.52,0.84,0.53,3.65
23.056523084640503,4.32,1.17,0.63,4.51
23.066545009613037,4.4,2.0,0.57,4.86
23.07649803161621,4.09,2.63,0.7,4.91
23.08642315864563,3.94,2.88,0.53,4.9
23.12229084968567,3.74,3.07,0.35,4.85
23.12270998954773,3.58,3.27,0.2,4.85
23.123119115829468,3.38,3.51,-0.2,4.87
23.12637495994568,2.9,3.91,-0.73,4.92
23.136523008346558,2.58,4.54,-1.18,5.35
23.14633584022522,3.16,5.17,-1.51,6.24
23.15636706352234,4.09,5.26,-1.53,6.83
23.166366815567017,4.66,5.76,-1.44,7.54
23.17638087272644,4.45,5.9,-1.76,7.59
23.186329126358032,3.63,4.86,-2.29,6.48
23.222941160202026,2.16,3.67,-2.22,4.8
23.22337508201599,-1.09,4.45,-0.54,4.61
23.223793983459473,-3.44,4.64,-0.65,5.81
23.22625494003296,-1.85,2.93,-2.24,4.12
23.236162900924683,1.02,0.46,-1.78,2.1
23.24645209312439,3.72,-2.21,-1.42,4.55
23.256162881851196,7.13,-3.37,0.32,7.89
23.26617693901062,4.97,-0.31,2.66,5.64
23.27628207206726,4.93,0.7,-0.2,4.98
23.286178827285767,8.07,0.02,-1.06,8.13
23.32301902770996,9.13,0.11,1.75,9.29
23.3234441280365,8.76,-1.11,3.73,9.58
23.32387089729309,7.77,-2.83,3.79,9.09
23.32611584663391,6.72,-3.04,3.07,7.98
23.336138010025024,6.43,-2.6,2.75,7.46
23.346078157424927,6.17,-2.25,2.81,7.14
23.356044054031372,5.46,-2.09,2.95,6.54
23.366039991378784,4.48,-1.8,2.73,5.54
23.376002073287964,3.8,-1.4,2.33,4.67
23.386003017425537,3.36,-1.05,2.01,4.05
23.423141956329346,3.04,-1.09,2.0,3.79
23.423569917678833,2.03,-0.77,1.9,2.88
23.423993825912476,0.48,0.11,1.38,1.46
23.425899982452393,-0.87,0.96,0.89,1.57
23.43593716621399,-1.15,1.35,0.41,1.82
23.445971965789795,-0.65,2.03,0.23,2.14
23.455837965011597,-0.37,2.83,0.02,2.85
23.465826988220215,-0.91,3.59,-0.51,3.73
23.475908994674683,-2.56,4.27,-1.02,5.08
23.485841035842896,-4.06,4.83,-2.4,6.75
23.52373695373535,-4.88,4.73,-3.61,7.69
23.52417802810669,-7.56,4.09,-3.04,9.11
23.524932146072388,-8.89,3.2,-3.25,9.99
23.525602102279663,-9.73,2.17,-3.81,10.67
23.535717010498047,-10.98,0.45,-4.19,11.76
23.545736074447632,-11.01,-1.93,-3.63,11.75
23.555655002593994,-8.76,-2.47,-2.91,9.55
23.5657479763031,-6.42,-1.3,-2.67,7.07
23.575662851333618,-6.3,-1.64,-2.74,7.06
23.58560299873352,-7.1,-2.52,-2.97,8.09
23.62403893470764,-6.63,0.74,-3.28,7.43
23.624799966812134,-4.02,4.95,-4.03,7.54
23.62522006034851,-5.75,-1.72,-4.28,7.37
23.625651121139526,-3.7,-2.38,-5.45,7.0
23.635492086410522,3.01,1.64,-1.99,3.96
23.64557194709778,5.64,4.04,2.99,7.55
23.65550684928894,3.28,3.37,1.2,4.85
23.665586948394775,-0.39,3.1,-1.46,3.44
23.67548394203186,-1.72,3.6,-1.06,4.12
23.68548893928528,-0.8,4.85,-1.27,5.07
23.724047899246216,-0.86,6.06,-2.41,6.57
23.724792003631592,-1.87,4.51,-2.09,5.31
23.72521996498108,-2.6,0.69,-0.47,2.73
23.725638151168823,-2.04,-1.71,0.52,2.71
23.735435962677002,-1.16,-2.63,0.57,2.93
23.745409965515137,-1.13,0.31,-0.92,1.48
23.75545382499695,-1.4,-0.08,-4.58,4.78
23.76538395881653,-2.48,-0.08,-4.91,5.5
23.775296926498413,-3.26,1.7,-3.71,5.22
23.785340070724487,-3.72,0.89,-2.68,4.67
23.82460904121399,-2.61,0.23,-1.97,3.27
23.825063943862915,-0.66,-0.26,-0.81,1.07
23.82548499107361,0.11,-0.3,0.37,0.48
23.825920820236206,-0.11,-0.39,0.68,0.79
23.835222959518433,-0.36,-0.25,-0.27,0.51
23.845299005508423,0.72,0.2,-0.3,0.8
23.855276823043823,2.06,0.15,0.57,2.14
23.86524510383606,1.84,-0.4,0.07,1.88
23.875123023986816,0.47,-0.67,-0.52,0.96
23.885188817977905,-0.31,-0.26,-0.26,0.48
23.924028158187866,-0.07,-0.06,0.27,0.28
23.924463987350464,0.35,-0.13,0.79,0.87
23.925272941589355,0.26,-0.34,0.94,1.03
23.925693035125732,-0.46,-0.06,0.47,0.66
23.9351589679718,-0.47,0.25,0.08,0.53
23.945181131362915,-0.02,-0.26,-0.04,0.26
23.955057859420776,-0.38,-0.52,0.23,0.68
23.965090036392212,-1.12,-0.41,0.54,1.3
23.975244998931885,-1.3,-0.14,0.63,1.45
23.985034942626953,-1.18,-0.14,0.55,1.3
24.024510145187378,-0.97,-0.64,0.47,1.25
24.025304079055786,-1.05,-0.81,0.29,1.35
24.02572798728943,-1.31,-0.87,-0.35,1.61
24.026171922683716,-1.42,-0.53,-0.18,1.52
24.034796953201294,-1.19,0.45,-0.61,1.41
24.04490303993225,-1.06,0.78,-0.62,1.45
24.055120944976807,-0.94,0.32,-0.51,1.11
24.064937829971313,-0.91,-0.13,-0.3,0.96
24.07486605644226,-1.36,-0.17,-0.42,1.43
24.084797143936157,-1.43,-0.08,-0.2,1.44
24.124047994613647,-1.3,-0.15,-0.13,1.31
24.1245059967041,-1.21,-0.13,-0.29,1.25
24.12524390220642,-1.37,-0.17,-0.36,1.42
24.125666856765747,-1.36,-0.34,-0.41,1.46
24.13470697402954,-0.84,-0.14,-0.01,0.85
24.14489483833313,-0.05,0.05,0.3,0.3
24.154771089553833,0.31,0.27,-0.17,0.44
24.164783000946045,0.14,0.1,-0.16,0.23
24.175016164779663,0.1,0.0,-0.35,0.36
24.184769868850708,0.06,0.03,-0.51,0.51
24.224570989608765,-0.11,-0.11,-0.64,0.65
24.22501015663147,0.08,-0.2,-0.43,0.48
24.225809812545776,0.16,0.0,-0.16,0.22
24.22622799873352,-0.14,0.05,0.08,0.16
24.23462200164795,-0.2,0.02,-0.1,0.22
24.24462103843689,0.26,0.03,-0.14,0.29
24.254631996154785,0.24,-0.05,-0.39,0.46
24.26460599899292,-0.07,-0.16,-0.9,0.91
24.274616956710815,-0.26,0.08,-0.83,0.87
24.284549951553345,-0.11,0.28,-0.7,0.76
24.323846101760864,0.22,0.04,-0.16,0.27
24.32430601119995,0.18,-0.08,0.71,0.73
24.324734926223755,-0.04,-0.16,1.05,1.06
24.325507879257202,-0.1,0.01,1.18,1.18
24.334422826766968,-0.11,-0.08,0.47,0.48
24.344511032104492,-0.26,-0.06,0.06,0.27
24.354535818099976,-0.01,-0.08,-0.19,0.2
24.36446499824524,0.38,0.07,-0.19,0.43
24.37443995475769,0.5,0.14,-0.64,0.82
24.38453984260559,0.42,-0.03,-0.99,1.07
24.423501014709473,0.4,-0.07,-0.8,0.89
24.42393708229065,0.28,0.01,-0.24,0.36
24.42435908317566,0.28,0.05,0.14,0.31
24.424761056900024,0.52,0.17,0.16,0.57
24.43433904647827,0.45,0.15,-0.19,0.51
24.44435715675354,0.19,-0.14,-0.64,0.68
24.45431399345398,-0.17,-0.01,-0.68,0.7
24.464268922805786,-0.65,-0.07,-0.59,0.88
24.474318981170654,-0.9,-0.25,-0.26,0.96
24.484333992004395,-0.76,-0.17,0.58,0.97
24.52421998977661,-0.17,-0.12,1.0,1.02
24.524646997451782,-0.01,0.21,1.02,1.04
24.525063037872314,0.0,0.09,0.51,0.51
24.5258150100708,0.24,-0.14,-0.19,0.33
24.534178018569946,0.83,-0.24,-0.74,1.13
24.544214963912964,1.34,-0.16,-0.97,1.66
24.5541410446167,1.56,0.01,-0.91,1.8
24.564146995544434,1.5,0.14,-0.58,1.61
24.574114084243774,1.06,-0.01,-0.14,1.06
24.583982944488525,0.51,-0.08,0.13,0.53
24.623882055282593,0.64,-0.03,0.29,0.7
24.624294996261597,0.91,-0.03,0.17,0.92
24.624696016311646,0.97,0.07,-0.17,0.98
24.625113010406494,0.96,0.11,-0.43,1.05
24.63403010368347,0.57,-0.01,-0.76,0.95
24.64403796195984,0.06,-0.03,-0.96,0.96
24.653988122940063,-0.35,-0.04,-0.67,0.75
24.663935899734497,-0.58,-0.15,-0.29,0.66
24.673885107040405,-0.49,-0.03,-0.07,0.49
24.683990001678467,-0.05,0.07,-0.15,0.17
24.72383403778076,0.33,0.11,-0.33,0.47
24.724313020706177,0.4,0.22,-0.31,0.55
24.72473692893982,0.1,0.1,-0.16,0.21
24.725149869918823,-0.31,-0.1,0.23,0.39
24.733836889266968,-0.64,-0.24,0.55,0.87
24.743844985961914,-0.8,-0.52,0.61,1.13
24.75387406349182,-0.91,-0.28,0.79,1.23
24.76388907432556,-0.37,0.22,0.31,0.53
24.773996114730835,0.28,0.27,0.02,0.38
24.78380513191223,0.53,0.35,-0.15,0.65
24.823693990707397,0.76,0.43,-0.23,0.9
24.82412099838257,1.06,0.37,-0.43,1.2
24.824537992477417,0.96,0.11,-0.26,1.0
24.82495093345642,1.05,0.21,-0.17,1.08
24.833632946014404,1.59,0.32,-0.17,1.63
24.84374499320984,2.21,0.38,-0.03,2.24
24.853652954101562,2.83,0.61,0.25,2.9
24.863674879074097,3.06,0.73,0.17,3.15
24.873625993728638,2.84,0.96,-0.04,2.99
24.88374400138855,2.53,1.06,0.28,2.75
24.924352884292603,2.65,0.87,0.29,2.8
24.92478108406067,2.44,1.14,-0.19,2.69
24.925196886062622,1.45,2.37,-0.18,2.78
24.925615072250366,2.0,4.62,-0.49,5.05
24.93359899520874,2.8,4.22,1.22,5.2
24.943405866622925,2.81,3.79,0.84,4.79
24.953365087509155,2.68,4.24,0.42,5.03
24.963578939437866,2.39,4.5,0.37,5.1
24.973507165908813,2.5,4.87,-0.07,5.47
24.983469009399414,3.72,5.69,-0.3,6.8
25.024670839309692,5.0,5.95,-0.35,7.77
25.025099992752075,5.23,6.0,-0.89,8.0
25.025516986846924,5.01,6.42,-1.66,8.31
25.02593207359314,4.47,6.05,-2.39,7.89
25.033411979675293,3.22,4.69,-2.88,6.37
25.043226957321167,1.95,2.73,-2.42,4.13
25.05334997177124,-0.67,1.85,-0.41,2.0
25.06337285041809,-3.64,2.17,-0.49,4.26
25.073356866836548,-2.31,0.93,-3.11,3.98
25.083319902420044,0.96,-1.4,-2.01,2.63
25.124379873275757,5.1,-3.35,-0.2,6.1
25.124815940856934,3.15,-2.81,1.8,4.58
25.125246047973633,-1.03,-2.74,0.75,3.02
25.125666856765747,1.12,-3.26,-0.69,3.51
25.13327193260193,5.31,-2.81,0.25,6.01
25.143277883529663,7.92,-2.77,1.94,8.61
25.153275966644287,7.9,-3.79,3.22,9.33
25.163198947906494,6.97,-4.32,3.36,8.86
25.17313504219055,6.41,-3.88,2.68,7.95
25.183248043060303,6.43,-3.05,2.08,7.41
25.22478413581848,6.5,-2.55,1.88,7.23
25.22521710395813,6.25,-2.3,1.81,6.9
25.225632905960083,5.57,-1.94,1.93,6.2
25.226054906845093,4.68,-1.77,2.09,5.42
25.23314595222473,3.92,-1.42,2.02,4.63
25.243345975875854,3.28,-0.95,1.78,3.85
25.252990007400513,2.96,-0.57,1.58,3.4
25.26310896873474,2.69,-0.23,1.46,3.06
25.27306294441223,2.0,0.24,1.21,2.34
25.283064126968384,0.83,0.87,0.37,1.25
25.292976140975952,-0.37,1.58,-0.71,1.77
25.325874090194702,-1.24,1.94,-1.42,2.7
25.326296091079712,-1.69,2.05,-1.49,3.04
25.327064990997314,-1.63,2.22,-1.11,2.96
25.332978010177612,-1.53,2.58,-0.56,3.05
25.34293007850647,-1.14,2.82,-0.34,3.06
25.35280203819275,-0.72,3.4,-0.39,3.49
25.362970113754272,-0.93,4.11,-0.38,4.23
25.37288212776184,-1.69,4.57,-0.85,4.94
25.382972955703735,-2.8,5.16,-1.73,6.12
25.39288902282715,-3.9,5.51,-1.57,6.93
25.425485849380493,-5.35,4.59,-0.89,7.1
25.425912141799927,-6.23,3.27,-0.79,7.08
25.42632293701172,-6.47,2.42,-1.56,7.08
25.43279004096985,-6.46,2.04,-2.0,7.06
25.442826986312866,-5.77,1.14,-1.53,6.07
25.452762842178345,-4.87,0.0,-0.64,4.91
25.462815046310425,-4.84,-0.78,-0.23,4.9
25.472743034362793,-5.67,-1.19,-0.72,5.83
25.48278784751892,-6.36,-1.34,-1.75,6.73
25.492647886276245,-5.85,-1.42,-2.62,6.56
25.525588035583496,-4.63,-1.38,-2.86,5.61
25.52601194381714,-3.98,-0.5,-2.8,4.89
25.526429891586304,-3.93,5.21,-2.56,7.01
25.53262996673584,-8.16,-0.24,-4.81,9.47
25.542672872543335,-4.99,-6.47,-7.11,10.83
25.552611112594604,5.46,-2.76,-2.09,6.46
25.56260895729065,10.19,0.42,4.63,11.2
25.5725839138031,5.74,0.98,3.79,6.94
25.582547903060913,-0.9,1.39,0.08,1.65
25.59256100654602,-4.44,1.09,-0.63,4.61
25.625977039337158,-2.92,1.38,-0.24,3.23
25.62640404701233,0.59,3.33,0.5,3.41
25.627175092697144,1.66,4.72,1.28,5.16
25.632481813430786,-0.25,4.44,1.05,4.56
25.642465829849243,-3.92,3.35,-0.24,5.16
25.65232014656067,-4.86,1.98,-0.68,5.29
25.662434816360474,-3.65,0.68,-0.19,3.71
25.672435998916626,-2.05,-0.28,-0.05,2.06
25.682454824447632,-0.5,-0.18,-0.14,0.54
25.692715883255005,-0.34,-1.16,-2.11,2.43
25.72696805000305,-0.42,-1.32,-2.87,3.18
25.727715015411377,-0.65,0.34,-1.66,1.81
25.728147983551025,-1.31,0.0,-1.05,1.67
25.732353925704956,-1.65,-0.37,-1.65,2.36
25.74230194091797,-0.52,-0.13,-2.46,2.51
25.75229811668396,1.35,-0.7,-1.96,2.48
25.76225996017456,1.85,-1.34,-0.69,2.38
25.77226495742798,1.21,-1.07,-0.38,1.65
25.782283067703247,-0.14,-0.52,-0.08,0.54
25.792210817337036,-1.8,0.19,0.12,1.81
25.826110124588013,-2.77,0.48,-0.11,2.81
25.826550006866455,-2.81,0.76,-0.5,2.95
25.82760500907898,-1.76,1.04,-1.18,2.36
25.83220100402832,-0.84,0.27,-0.29,0.92
25.8421471118927,-0.81,-0.3,0.74,1.13
25.85216999053955,-0.6,-0.58,0.87,1.2
25.862133026123047,-0.32,-0.53,0.91,1.1
25.872151136398315,0.15,-0.46,0.96,1.07
25.908095121383667,0.89,-0.19,0.93,1.3
25.908522844314575,0.84,-0.03,0.25,0.87
25.908942937850952,0.41,-0.33,-0.39,0.65
25.911980867385864,-0.85,-0.12,-0.72,1.12
25.92203688621521,-1.97,-0.01,-0.91,2.17
25.932109117507935,-1.95,-0.14,-0.97,2.18
25.941987991333008,-1.6,-0.25,-0.6,1.72
25.95199990272522,-1.35,-0.26,-0.68,1.53
25.962043046951294,-0.96,-0.38,-0.67,1.23
25.971955060958862,-1.26,-0.18,-0.34,1.31
26.009891033172607,-1.83,0.12,-0.64,1.94
26.010321855545044,-2.18,0.23,-0.44,2.23
26.011096000671387,-1.82,0.04,-0.27,1.84
26.011878967285156,-1.1,-0.16,-0.59,1.25
26.02187705039978,-0.68,-0.09,-0.81,1.06
26.031903982162476,-0.89,-0.03,-0.64,1.09
26.0418541431427,-1.13,-0.05,-0.49,1.23
26.051713943481445,-0.85,-0.03,-0.55,1.01
26.061758041381836,-0.44,0.01,-1.03,1.12
26.07185697555542,-0.18,-0.09,-1.07,1.08
26.109455823898315,-0.06,-0.21,-0.34,0.4
26.10988688468933,0.01,-0.13,0.4,0.42
26.110306978225708,0.11,-0.11,0.88,0.89
26.111650943756104,-0.08,-0.14,0.87,0.88
26.12167191505432,-0.08,-0.06,0.47,0.48
26.131778955459595,0.2,-0.07,0.37,0.42
26.14167594909668,-0.06,-0.18,0.41,0.45
26.151682138442993,-0.45,-0.22,0.36,0.61
26.161526918411255,-0.45,-0.16,0.09,0.48
26.171623945236206,-0.03,-0.05,-0.48,0.48
26.209118127822876,0.33,-0.23,-0.91,0.99
26.209548950195312,0.62,-0.28,-0.97,1.18
26.209969997406006,0.7,0.18,-1.0,1.23
26.21149182319641,0.55,0.24,-0.74,0.95
26.221467971801758,0.41,0.13,-0.43,0.6
26.23160696029663,0.43,0.08,-0.39,0.58
26.24145197868347,0.24,-0.11,-0.12,0.28
26.251507997512817,0.0,0.02,0.13,0.13
26.261418104171753,-0.21,0.08,0.61,0.65
26.27156710624695,-0.27,-0.06,1.11,1.14
26.30912709236145,-0.27,-0.11,0.96,1.0
26.309535026550293,-0.04,-0.05,0.39,0.39
26.309968948364258,0.27,0.01,-0.04,0.27
26.311272859573364,0.51,-0.08,-0.36,0.62
26.32137393951416,0.56,0.0,-0.34,0.65
26.33136796951294,0.37,0.07,0.03,0.37
26.34123682975769,0.36,0.18,-0.03,0.4
26.351321935653687,0.59,0.21,-0.33,0.7
26.361275911331177,0.31,-0.09,-0.62,0.69
26.371308088302612,-0.67,-0.01,-1.14,1.32
26.40933394432068,-1.18,-0.05,-1.03,1.56
26.409764051437378,-0.84,0.04,-0.1,0.84
26.410186052322388,-0.24,0.09,0.61,0.66
26.411389112472534,0.28,0.0,0.46,0.53
26.421299934387207,0.93,-0.21,-0.61,1.13
26.43131399154663,1.69,-0.18,-0.84,1.89
26.44122815132141,1.95,-0.18,-0.72,2.08
26.451244115829468,1.49,-0.11,-0.63,1.62
26.461106061935425,0.6,0.01,-0.11,0.61
26.47124195098877,0.24,-0.07,0.31,0.39
26.50918698310852,0.5,0.01,0.42,0.65
26.509610891342163,0.75,0.02,0.2,0.77
26.51002812385559,0.8,-0.07,0.08,0.8
26.51114583015442,0.82,0.03,-0.03,0.82
26.521167993545532,0.93,0.11,0.14,0.94
26.531126976013184,0.69,0.23,0.02,0.72
26.541011095046997,0.11,0.22,-0.08,0.25
26.55123782157898,-0.08,0.17,-0.2,0.27
26.560946941375732,-0.26,0.13,-0.43,0.51
26.57087993621826,-0.73,-0.06,-0.52,0.89
26.609311819076538,-1.13,-0.22,-0.29,1.18
26.609745025634766,-1.1,-0.24,-0.2,1.14
26.610163927078247,-0.85,-0.18,-0.45,0.97
26.610926866531372,-0.51,-0.14,-0.59,0.79
26.62090516090393,-0.34,-0.16,-0.49,0.61
26.630890130996704,-0.33,-0.15,-0.24,0.43
26.640907049179077,-0.09,-0.05,-0.05,0.11
26.6508948802948,0.25,0.0,-0.13,0.28
26.660834074020386,0.34,0.08,-0.17,0.38
26.670812845230103,0.07,0.04,-0.21,0.22
26.709731817245483,-0.3,-0.05,-0.14,0.33
26.71017098426819,-0.42,-0.14,-0.09,0.45
26.710592031478882,-0.49,-0.2,-0.17,0.55
26.711010932922363,-0.32,-0.17,-0.21,0.41
26.72079110145569,0.1,-0.09,-0.01,0.13
26.73072600364685,0.61,0.03,0.13,0.62
26.74073100090027,1.19,0.13,0.4,1.26
26.750746965408325,1.91,0.19,0.77,2.06
26.76058316230774,2.39,0.29,0.71,2.51
26.770661115646362,2.31,0.33,0.22,2.34
26.80978512763977,2.3,0.25,-0.43,2.35
26.810232877731323,2.59,0.11,-0.6,2.66
26.81063485145569,2.72,0.13,-0.6,2.78
26.811054944992065,2.96,0.34,-0.48,3.01
26.82055687904358,3.11,0.46,-0.03,3.14
26.830608129501343,2.64,0.58,0.06,2.7
26.840551137924194,2.01,0.81,0.22,2.17
26.850605964660645,1.9,1.05,0.39,2.2
26.860559940338135,1.84,1.37,0.07,2.29
26.870589017868042,1.77,1.58,0.38,2.4
26.909315824508667,1.56,1.51,0.17,2.17
26.9097421169281,0.91,3.1,-1.56,3.58
26.910168886184692,2.12,5.07,0.52,5.51
26.91058611869812,2.9,4.27,1.87,5.48
26.920516967773438,2.89,3.98,-0.09,4.91
26.930508852005005,2.69,4.74,-0.18,5.45
26.94037413597107,3.96,5.73,0.38,6.97
26.950469970703125,5.57,5.98,0.49,8.18
26.960395097732544,5.8,5.96,-0.03,8.31
26.970421075820923,5.09,6.0,-0.65,7.89
27.0100679397583,4.28,5.63,-1.09,7.15
27.010495901107788,3.55,5.37,-1.24,6.55
27.010910987854004,2.91,4.42,-1.45,5.48
27.01132607460022,1.78,2.33,-1.36,3.23
27.02033495903015,-0.32,1.42,-0.46,1.52
27.030375003814697,0.67,0.76,-1.04,1.45
27.04036784172058,3.67,-0.34,0.04,3.68
27.05022406578064,2.04,-0.74,2.42,3.25
27.060240983963013,1.67,-0.72,0.43,1.86
27.070154905319214,5.24,-1.09,-0.7,5.39
27.110037088394165,7.43,-0.47,1.38,7.57
27.110469102859497,7.13,-1.46,2.61,7.73
27.110896825790405,5.61,-2.7,2.48,6.7
27.111313104629517,4.85,-2.98,1.91,6.0
27.12016201019287,4.71,-2.8,1.68,5.73
27.130203008651733,4.59,-2.62,1.67,5.54
27.14007592201233,4.27,-2.64,1.68,5.29
27.15013289451599,3.73,-2.79,1.52,4.89
27.160051107406616,3.17,-2.8,1.38,4.44
27.169940948486328,2.74,-2.8,1.39,4.15
27.210139989852905,2.55,-2.6,1.45,3.91
27.210567951202393,2.38,-2.08,1.51,3.5
27.21098494529724,2.14,-1.27,1.43,2.87
27.211400985717773,1.84,-0.35,1.08,2.16
27.219995975494385,1.37,0.39,0.53,1.51
27.230008840560913,0.81,0.97,0.09,1.26
27.23989510536194,0.19,1.47,-0.2,1.49
27.249976873397827,-0.38,1.9,-0.33,1.96
27.259968996047974,-0.83,2.31,-0.53,2.51
27.26997995376587,-1.43,2.76,-0.85,3.22
27.311044931411743,-1.31,3.05,-1.57,3.67
27.311511039733887,-3.2,3.69,-1.18,5.02
27.311939001083374,-4.72,3.63,-1.4,6.11
27.312730073928833,-5.37,3.61,-2.04,6.78
27.31985902786255,-5.58,3.4,-2.67,7.05
27.32984185218811,-5.77,3.05,-2.9,7.14
27.339689016342163,-6.19,2.46,-2.82,7.23
27.349918127059937,-6.35,1.94,-2.75,7.18
27.359824895858765,-6.41,1.24,-2.88,7.13
27.36975407600403,-6.82,0.19,-3.02,7.46
27.410815000534058,-7.32,-0.9,-2.99,7.95
27.411240816116333,-7.78,-1.54,-2.84,8.42
27.41165804862976,-7.93,-1.44,-2.53,8.44
27.41208004951477,-7.11,-1.74,-2.08,7.6
27.419700860977173,-4.95,2.3,-1.75,5.73
27.42957091331482,-2.65,3.43,-1.42,4.56
27.439677953720093,-3.31,-1.02,-0.9,3.57
27.44972014427185,-3.73,-2.29,-0.98,4.48
27.45960783958435,-2.84,-2.23,-1.31,3.84
27.46949791908264,2.44,-0.43,-1.0,2.67
27.511173963546753,7.86,1.18,3.28,8.59
27.511604070663452,7.66,0.69,4.13,8.72
27.512025117874146,2.96,0.47,0.23,3.0
27.512766122817993,-1.05,0.7,-1.3,1.81
27.519587993621826,-1.56,0.6,-0.4,1.71
27.529387950897217,-0.37,1.22,-0.61,1.41
27.53947615623474,0.25,3.04,-0.86,3.16
27.549544095993042,-0.54,4.28,-0.56,4.35
27.559428930282593,-2.57,4.0,-0.56,4.78
27.569527864456177,-4.0,2.12,-0.8,4.59
27.611613988876343,-4.66,2.86,-1.66,5.71
27.612046003341675,-4.81,1.66,-5.04,7.16
27.612776041030884,-3.08,0.4,-4.56,5.51
27.613198041915894,-0.01,0.97,-1.77,2.01
27.619405031204224,1.32,-1.48,0.09,1.98
27.629416942596436,-0.48,-2.96,-0.18,3.0
27.63930892944336,-2.46,-2.74,-2.19,4.28
27.649399042129517,-2.89,-1.16,-2.91,4.26
27.65933585166931,-2.19,0.35,-1.92,2.93
27.669326066970825,-1.53,0.65,-0.38,1.7
27.712389945983887,-1.09,0.71,-0.14,1.3
27.713181972503662,-0.65,0.65,-0.73,1.17
27.713618993759155,0.29,0.01,0.06,0.29
27.71436095237732,1.31,-0.39,1.13,1.77
27.719188928604126,1.86,-0.59,1.57,2.5
27.729475021362305,1.46,-0.68,1.22,2.02
27.739109992980957,0.53,-0.2,-0.11,0.57
27.749183893203735,-0.59,0.18,-0.91,1.09
27.759138822555542,-1.47,0.24,-1.1,1.85
27.769171953201294,-1.24,0.02,-1.18,1.71
27.81165099143982,-0.54,-0.27,-1.18,1.32
27.81206488609314,0.42,-0.65,-1.0,1.26
27.81249213218689,0.94,-0.7,-0.71,1.37
27.813246965408325,0.27,-0.46,-0.49,0.72
27.819101095199585,-0.54,-0.03,-0.1,0.55
27.82910394668579,-0.89,0.16,0.53,1.04
27.83904194831848,-1.11,0.06,0.54,1.23
27.849075078964233,-1.25,0.01,0.35,1.29
27.85903000831604,-0.46,-0.49,0.43,0.79
27.869045972824097,-0.37,-0.63,1.06,1.28
27.878950834274292,-0.65,-0.39,0.32,0.82
27.91145896911621,-0.99,-0.42,0.54,1.2
27.911885976791382,-1.54,-0.36,1.09,1.92
27.912312984466553,-1.52,-0.26,0.88,1.77
27.91900897026062,-1.76,-0.16,0.53,1.84
27.928868055343628,-2.15,-0.12,0.33,2.17
27.938930988311768,-2.0,-0.02,0.34,2.02
27.948888063430786,-1.56,0.44,0.07,1.62
27.958845853805542,-1.24,0.16,-0.07,1.25
27.968880891799927,-1.59,-0.28,0.29,1.64
27.978845834732056,-2.13,0.13,0.14,2.13
28.011189937591553,-1.59,0.12,-0.09,1.59
28.011618852615356,-0.7,-0.46,-0.27,0.88
28.012035131454468,-0.59,-0.18,-0.91,1.09
28.01883602142334,-0.64,-0.23,-0.85,1.08
28.028713941574097,-0.56,-0.28,-0.56,0.84
28.038635969161987,-0.62,-0.05,-0.6,0.86
28.04873490333557,-0.48,-0.08,-0.6,0.77
28.058695077896118,0.09,-0.08,-1.24,1.24
28.06876492500305,0.46,-0.13,-1.49,1.56
28.078759908676147,-0.07,-0.02,-1.44,1.44
28.1111900806427,-0.3,-0.06,-1.17,1.2
28.111618995666504,-0.05,0.04,-0.85,0.85
28.112035989761353,0.35,0.05,-0.89,0.95
28.118635892868042,0.61,-0.17,-1.26,1.41
28.12857699394226,0.67,-0.3,-1.42,1.59
28.13858389854431,0.48,-0.22,-0.84,0.99
28.148617029190063,0.18,0.0,-0.47,0.5
28.15856695175171,0.13,0.07,-0.15,0.21
28.16853904724121,-0.03,0.31,0.33,0.45
28.178520917892456,-0.4,0.66,0.7,1.04
28.211005926132202,-0.25,0.17,1.0,1.04
28.21142888069153,0.22,-0.39,0.94,1.04
28.211846113204956,0.08,-0.36,0.55,0.66
28.218479871749878,-0.45,-0.12,0.45,0.64
28.22846007347107,-0.55,-0.17,0.84,1.01
28.238445043563843,-0.35,-0.25,0.88,0.97
28.248438119888306,-0.33,-0.24,0.55,0.68
28.25844693183899,-0.46,-0.07,0.15,0.48
28.268443822860718,-0.59,0.11,-0.39,0.71
28.27836298942566,-0.61,-0.04,-0.86,1.05
28.311285972595215,-0.44,-0.19,-1.31,1.39
28.311713933944702,-0.26,0.0,-1.54,1.56
28.312129974365234,-0.4,0.14,-1.81,1.85
28.318357944488525,-0.46,0.07,-1.78,1.83
28.328300952911377,-0.23,-0.12,-1.13,1.15
28.338120937347412,0.06,-0.2,-0.26,0.33
28.34820008277893,0.36,-0.05,0.18,0.4
28.35828399658203,0.8,0.08,0.26,0.84
28.368243932724,1.21,-0.01,0.2,1.22
28.37812900543213,1.58,-0.13,-0.24,1.6
28.411908864974976,1.36,-0.23,-0.56,1.48
28.41233801841736,0.76,-0.07,-0.75,1.07
28.412800073623657,0.46,0.07,-0.73,0.86
28.418445825576782,0.07,-0.05,-0.65,0.65
28.428048849105835,0.08,-0.06,-0.5,0.5
28.43811583518982,0.44,0.01,-0.28,0.52
28.448089838027954,0.87,-0.01,-0.28,0.91
28.45807909965515,1.23,-0.1,-0.04,1.23
28.46810507774353,1.56,-0.07,0.25,1.58
28.478016138076782,1.56,0.0,0.37,1.6
28.511032819747925,1.18,-0.01,0.54,1.29
28.51144814491272,0.51,-0.01,0.6,0.78
28.51184916496277,0.01,-0.09,0.77,0.77
28.51800513267517,-0.12,0.0,0.73,0.73
28.527958154678345,0.25,0.06,0.33,0.41
28.53802514076233,0.63,0.0,0.07,0.63
28.547950983047485,0.87,0.0,-0.01,0.87
28.55792999267578,1.19,-0.01,-0.22,1.21
28.56798815727234,1.14,0.11,-0.23,1.16
28.577977895736694,0.57,0.18,-0.36,0.69
28.611375093460083,0.13,0.07,-0.36,0.38
28.611783981323242,0.1,0.05,-0.45,0.46
28.612223863601685,0.2,0.03,-0.77,0.79
28.617944955825806,0.27,0.02,-0.83,0.87
28.62784504890442,0.54,0.01,-0.67,0.86
28.63780188560486,0.82,0.0,-0.34,0.88
28.6477370262146,0.94,0.04,0.08,0.94
28.657724142074585,1.0,0.01,0.32,1.05
28.667761087417603,0.85,-0.13,0.7,1.1
28.67768883705139,0.7,-0.12,0.73,1.01
28.712722063064575,0.59,-0.01,0.19,0.61
28.71333384513855,0.6,0.15,-0.28,0.67
28.714091062545776,0.96,0.3,-0.58,1.16
28.717689990997314,1.24,0.3,-0.47,1.35
28.72763991355896,1.35,0.23,-0.07,1.37
28.73766303062439,1.64,0.2,0.47,1.71
28.747498035430908,2.11,0.24,0.89,2.3
28.75759196281433,2.81,0.17,1.16,3.04
28.767621994018555,3.55,0.16,1.44,3.83
28.777570009231567,3.97,0.44,0.97,4.11
28.81203007698059,4.39,0.67,0.72,4.49
28.81277108192444,4.08,1.11,-0.09,4.22
28.813190937042236,3.27,3.54,-0.89,4.9
28.81741499900818,3.34,3.91,1.08,5.25
28.827481031417847,2.95,2.82,1.87,4.48
28.837543964385986,1.8,3.2,1.25,3.87
28.847469091415405,1.06,3.46,0.89,3.72
28.8573579788208,0.98,3.67,0.38,3.81
28.86750602722168,1.52,4.65,-0.09,4.89
28.877432107925415,2.48,5.87,-1.23,6.49
28.91180109977722,3.67,6.74,-2.03,7.93
28.912535905838013,5.39,7.43,-2.31,9.46
28.91295313835144,6.48,7.74,-2.64,10.43
28.91735816001892,5.53,6.92,-2.89,9.31
28.92735195159912,3.27,5.87,-3.38,7.52
28.93736696243286,0.87,3.98,-3.28,5.23
28.947593927383423,-2.15,2.92,-1.32,3.85
28.95737910270691,-2.77,2.12,-2.21,4.12
28.967350959777832,1.58,0.37,-2.57,3.03
28.97719407081604,4.55,-1.72,0.28,4.87
29.012661933898926,2.37,-1.97,2.22,3.79
29.01308798789978,2.78,-1.98,-0.6,3.46
29.01350712776184,7.63,-1.57,-1.08,7.86
29.017228841781616,10.94,-0.85,1.69,11.1
29.027189016342163,10.86,-1.48,3.19,11.41
29.037186861038208,8.62,-3.11,3.61,9.84
29.0471408367157,7.2,-3.76,3.21,8.73
29.05716300010681,6.52,-3.58,2.96,8.0
29.06721806526184,6.03,-3.22,2.77,7.37
29.07713007926941,5.28,-2.58,2.34,6.32
29.11277413368225,4.38,-1.94,1.82,5.12
29.11320400238037,3.56,-1.51,1.39,4.1
29.11361813545227,3.04,-1.05,1.33,3.48
29.117077112197876,2.67,-0.69,1.5,3.13
29.12706208229065,2.31,-0.51,1.67,2.89
29.13704204559326,1.47,0.08,1.39,2.02
29.147022008895874,-0.19,0.76,0.45,0.9
29.156991004943848,-1.97,0.85,-0.5,2.2
29.167035818099976,-2.78,0.96,-0.86,3.06
29.176995992660522,-2.61,1.69,-0.74,3.19
29.213874101638794,-1.94,2.57,-0.19,3.22
29.21463704109192,-1.35,3.07,-0.3,3.36
29.2150559425354,-2.06,3.75,-1.26,4.46
29.216866970062256,-4.97,4.9,-2.05,7.27
29.226866960525513,-6.78,5.7,-3.52,9.53
29.23689603805542,-7.98,6.15,-4.58,11.06
29.24685788154602,-7.99,5.31,-4.81,10.73
29.25684404373169,-7.1,2.96,-4.03,8.68
29.266881942749023,-6.48,0.6,-2.98,7.15
29.276824951171875,-6.32,-1.09,-2.73,6.97
29.31342601776123,-6.56,-2.17,-3.0,7.53
29.31385588645935,-7.43,-2.58,-3.13,8.46
29.314605951309204,-8.47,-2.42,-3.23,9.38
29.316747903823853,-8.52,-2.24,-3.16,9.35
29.32671093940735,-7.3,-2.39,-3.15,8.3
29.336682081222534,-5.59,-2.32,-3.17,6.83
29.346642017364502,-4.39,-1.83,-3.23,5.74
29.356585025787354,-4.15,-0.08,-3.4,5.36
29.36670708656311,-1.75,6.28,-3.22,7.27
29.376739978790283,0.66,3.58,-2.34,4.32
29.413338899612427,8.01,1.73,1.18,8.27
29.41377091407776,13.98,-0.59,11.84,18.32
29.41419291496277,9.23,-0.94,9.02,12.93
29.41656804084778,0.0,0.14,-0.2,0.24
29.42653489112854,-5.95,0.38,-2.29,6.38
29.436580896377563,-4.77,1.49,-0.03,4.99
29.446552991867065,-1.76,2.78,-0.18,3.29
29.456494092941284,-1.08,3.63,-1.03,3.92
29.4666268825531,-1.53,3.05,-0.79,3.5
29.476598024368286,-2.84,1.09,-0.37,3.06
29.513945817947388,-4.41,0.1,-1.05,4.53
29.514384031295776,-4.55,0.64,-2.27,5.12
29.515185117721558,-3.81,0.86,-2.34,4.55
29.516551971435547,-3.53,1.23,-2.38,4.43
29.52653193473816,-3.09,2.27,-3.95,5.5
29.536618947982788,-2.2,0.69,-5.91,6.34
29.546552896499634,-0.22,1.66,-5.15,5.41
29.556401014328003,2.14,0.67,-2.13,3.09
29.566439867019653,2.82,-1.72,0.04,3.3
29.576333045959473,3.06,-2.08,0.64,3.75
29.61400008201599,1.69,-1.92,1.32,2.87
29.614426851272583,-1.35,-1.97,1.68,2.91
29.615190982818604,-3.76,-1.37,1.37,4.22
29.616276025772095,-4.46,0.97,0.82,4.63
29.62626600265503,-1.51,2.21,-0.67,2.75
29.636263132095337,0.68,0.42,-0.43,0.9
29.64629292488098,0.25,-1.17,-0.2,1.21
29.656205892562866,-1.91,-1.02,-0.5,2.22
29.6663019657135,-3.57,-0.46,0.14,3.6
29.67618703842163,-3.65,-0.1,0.25,3.65
29.714148998260498,-2.6,-0.24,0.17,2.61
29.714598894119263,-0.93,-0.52,-0.09,1.06
29.715348958969116,0.41,-0.14,-0.85,0.95
29.715893030166626,1.24,-0.36,-0.21,1.3
29.72605299949646,0.82,-0.18,0.5,0.97
29.736259937286377,0.23,0.05,0.46,0.51
29.746068000793457,0.04,0.06,0.02,0.07
29.75603699684143,-0.13,-0.2,-0.22,0.32
29.766140937805176,-0.51,-0.4,-0.44,0.78
29.77606701850891,-1.19,-0.25,-0.56,1.33
29.813581943511963,-2.05,-0.15,-0.48,2.11
29.81401801109314,-1.93,0.03,-0.51,1.99
29.81444001197815,-0.98,0.02,-0.68,1.19
29.815863847732544,-0.28,-0.19,-0.93,0.98
29.825865983963013,-0.6,-0.21,-0.39,0.74
29.835973978042603,-1.34,0.09,-0.59,1.46
29.845898866653442,-1.77,0.22,-0.66,1.9
29.85577082633972,-1.53,-0.11,-0.84,1.74
29.86581802368164,-0.99,-0.13,-0.75,1.24
29.87588381767273,-1.18,0.12,-0.38,1.24
29.91362690925598,-1.39,-0.02,-0.16,1.39
29.914055109024048,-1.13,-0.1,-0.29,1.17
29.914471864700317,-0.86,-0.06,-0.4,0.95
29.915655851364136,-0.68,-0.08,-0.44,0.81
29.92584800720215,-0.53,-0.03,-1.05,1.17
29.935853004455566,-0.27,-0.3,-0.45,0.6
29.945775032043457,-0.5,-0.18,0.07,0.53
29.955811023712158,-0.58,-0.08,0.01,0.58
29.965633153915405,-0.26,-0.29,0.31,0.49
29.975728034973145,-0.27,-0.15,0.2,0.36
30.014369010925293,-0.13,0.0,0.1,0.16
30.014795064926147,0.16,-0.08,-0.27,0.32
30.015573024749756,0.43,-0.24,-0.41,0.64
30.015975952148438,0.6,-0.04,-0.41,0.72
30.025671005249023,0.44,0.03,-0.29,0.52
30.035655975341797,0.12,-0.05,-0.3,0.32
30.04559016227722,-0.01,0.0,-0.52,0.52
30.055649042129517,-0.11,-0.01,-0.65,0.65
30.065444946289062,-0.18,0.07,-0.39,0.43
30.07554316520691,-0.25,0.12,-0.08,0.28
30.113682985305786,-0.37,0.02,-0.09,0.38
30.114114999771118,-0.25,0.08,-0.18,0.31
30.11453604698181,0.01,-0.12,-0.12,0.17
30.11543893814087,0.17,-0.13,0.25,0.32
30.125346899032593,0.29,-0.03,0.52,0.59
30.13552212715149,0.23,-0.02,0.38,0.44
