time,ax,ay,az,atotal
0.005813121795654297,-0.02,0.05,-0.04,0.06
0.015735149383544922,-0.04,0.11,-0.08,0.14
0.025737285614013672,0.11,-0.04,-0.1,0.15
0.058863162994384766,0.16,-0.13,-0.17,0.26
0.05939197540283203,0.16,-0.03,-0.24,0.29
0.059902191162109375,0.29,0.04,-0.17,0.33
0.06556510925292969,0.59,0.04,-0.01,0.59
0.07558107376098633,0.59,-0.01,0.01,0.59
0.08569717407226562,0.17,-0.04,-0.07,0.18
0.09576010704040527,0.0,-0.02,-0.27,0.27
0.10565328598022461,0.1,0.0,-0.29,0.3
0.11548805236816406,0.04,0.02,-0.3,0.3
0.1256542205810547,0.15,0.05,-0.23,0.27
0.15887022018432617,0.24,0.04,-0.09,0.25
0.15942907333374023,0.04,-0.13,-0.01,0.13
0.15998601913452148,-0.19,-0.05,0.04,0.2
0.16562914848327637,-0.27,-0.08,0.17,0.32
0.1755962371826172,-0.36,-0.03,0.31,0.47
0.1855912208557129,-0.36,-0.01,0.35,0.5
0.1956040859222412,-0.26,-0.09,0.41,0.49
0.20559215545654297,-0.2,-0.09,0.36,0.42
0.2155311107635498,-0.2,-0.05,0.3,0.36
0.22557830810546875,-0.27,-0.04,0.19,0.33
0.25901222229003906,-0.29,-0.08,0.04,0.3
0.25956296920776367,-0.2,0.01,-0.03,0.2
0.2600901126861572,-0.02,0.07,-0.05,0.08
0.26544618606567383,0.15,0.04,-0.09,0.17
0.2755722999572754,0.07,-0.05,-0.14,0.16
0.2855691909790039,0.07,-0.02,-0.28,0.28
0.2954702377319336,0.04,-0.01,-0.3,0.3
0.3055601119995117,-0.11,0.03,-0.31,0.33
0.31546616554260254,0.01,0.05,-0.3,0.3
0.32547998428344727,0.16,0.01,-0.33,0.36
0.35952115058898926,0.12,-0.04,-0.33,0.35
0.36040401458740234,-0.04,0.01,-0.18,0.18
0.3609452247619629,-0.1,0.04,-0.05,0.11
0.365386962890625,0.03,0.03,0.07,0.08
0.37543511390686035,0.2,-0.01,0.11,0.22
0.3855562210083008,0.1,-0.05,0.08,0.13
0.3954300880432129,-0.15,-0.01,0.05,0.15
0.4054880142211914,-0.18,0.01,0.09,0.2
0.4153780937194824,-0.01,0.0,0.07,0.07
0.4254002571105957,0.09,0.0,0.0,0.09
0.4596872329711914,0.06,-0.02,-0.05,0.08
0.46063899993896484,0.01,0.02,0.03,0.03
0.46114206314086914,-0.03,0.02,0.14,0.14
0.46529531478881836,-0.07,-0.03,0.1,0.12
0.4753251075744629,-0.1,-0.04,0.03,0.11
0.4851651191711426,-0.13,-0.04,0.0,0.13
0.49517297744750977,-0.17,-0.07,0.09,0.2
0.5053791999816895,-0.35,-0.08,0.14,0.38
0.5152912139892578,-0.51,-0.03,0.16,0.53
0.5253009796142578,-0.44,0.0,0.09,0.44
0.5610780715942383,-0.39,-0.07,-0.08,0.4
0.5616650581359863,-0.52,-0.11,-0.12,0.54
0.5622062683105469,-0.47,-0.05,-0.09,0.48
0.5651421546936035,-0.41,-0.04,0.02,0.41
0.5752372741699219,-0.43,-0.03,0.04,0.43
0.5851411819458008,-0.33,0.05,-0.01,0.33
0.5952410697937012,-0.22,-0.03,-0.16,0.27
0.605288028717041,-0.29,-0.09,-0.17,0.34
0.615260124206543,-0.36,-0.03,-0.13,0.38
0.6252791881561279,-0.3,-0.09,-0.04,0.31
0.6596159934997559,-0.21,-0.11,0.07,0.24
0.6605231761932373,-0.08,-0.05,0.11,0.14
0.6610581874847412,0.16,-0.1,0.17,0.25
0.6651391983032227,0.13,-0.07,0.23,0.27
0.6751852035522461,0.07,0.0,0.37,0.37
0.6850681304931641,-0.01,-0.01,0.48,0.48
0.6950192451477051,0.05,-0.07,0.35,0.36
0.7052240371704102,0.06,0.05,0.17,0.18
0.7151901721954346,0.16,-0.06,0.07,0.18
0.725175142288208,0.29,-0.03,-0.21,0.35
0.7600321769714355,0.25,0.07,-0.36,0.44
0.7609231472015381,0.38,0.05,-0.38,0.53
0.7614560127258301,0.54,0.09,-0.34,0.64
0.7650470733642578,0.45,0.11,-0.31,0.55
0.7751140594482422,0.39,0.09,-0.37,0.54
0.785189151763916,0.15,0.03,-0.55,0.57
0.7950561046600342,-0.01,0.03,-0.62,0.62
0.8050971031188965,0.13,0.0,-0.47,0.48
0.8150172233581543,0.33,-0.01,-0.31,0.45
0.8250560760498047,0.44,0.05,-0.22,0.49
0.8603062629699707,0.49,0.05,-0.09,0.5
0.8611350059509277,0.43,-0.04,0.04,0.43
0.8617172241210938,0.2,-0.06,-0.02,0.2
0.8649730682373047,0.0,0.01,-0.04,0.04
0.8750109672546387,0.01,-0.1,0.08,0.12
0.8848562240600586,0.12,-0.05,0.02,0.13
0.8948149681091309,0.24,0.02,0.06,0.24
0.9049420356750488,0.24,-0.11,0.15,0.3
0.9149379730224609,0.04,-0.11,0.1,0.15
0.9250202178955078,-0.11,-0.01,0.07,0.13
0.9613161087036133,-0.14,-0.01,0.12,0.18
0.9628419876098633,-0.08,-0.07,0.19,0.21
0.9633960723876953,-0.06,-0.05,0.19,0.2
0.9649600982666016,0.01,-0.01,0.24,0.24
0.9749541282653809,0.02,-0.05,0.44,0.44
0.9848852157592773,0.0,-0.01,0.45,0.45
0.9949402809143066,0.03,0.0,0.43,0.43
1.0049991607666016,0.01,-0.06,0.37,0.37
1.0148441791534424,0.09,-0.05,0.18,0.2
1.024874210357666,0.13,-0.05,0.16,0.21
1.0348410606384277,0.14,-0.05,0.12,0.19
1.0613312721252441,-0.02,0.0,0.09,0.09
1.061913013458252,-0.18,-0.04,0.26,0.31
1.0647871494293213,-0.23,-0.04,0.38,0.44
1.0747811794281006,-0.19,-0.04,0.34,0.39
1.084794044494629,-0.12,-0.05,0.24,0.27
1.0947701930999756,-0.07,-0.02,0.19,0.2
1.104753017425537,-0.35,-0.02,0.24,0.42
1.1147501468658447,-0.43,-0.1,0.23,0.49
1.1247711181640625,-0.54,-0.02,0.19,0.57
1.1347723007202148,-0.55,-0.16,0.03,0.57
1.162095069885254,0.06,-0.05,-0.01,0.07
1.1626830101013184,0.43,0.1,-0.04,0.44
1.1646411418914795,0.43,-0.02,0.1,0.44
1.1747291088104248,0.25,-0.06,0.25,0.35
1.1847500801086426,0.1,-0.08,0.19,0.22
1.194723129272461,0.04,-0.08,0.21,0.22
1.2047672271728516,-0.08,-0.03,0.24,0.25
1.2147870063781738,-0.12,-0.01,0.12,0.17
1.2248291969299316,-0.14,-0.05,0.09,0.17
1.2346911430358887,-0.45,-0.07,0.05,0.45
1.261207103729248,-0.64,-0.03,-0.15,0.65
1.2617921829223633,-0.3,0.02,-0.2,0.36
1.2646911144256592,0.04,-0.02,-0.14,0.14
1.2746262550354004,0.4,-0.08,-0.11,0.42
1.2845821380615234,0.46,-0.03,0.05,0.46
1.2946662902832031,0.1,-0.09,-0.02,0.13
1.3046150207519531,-0.09,-0.05,-0.12,0.15
1.3145952224731445,-0.59,-0.15,0.15,0.62
1.3246750831604004,-1.36,-0.14,0.11,1.37
1.334693193435669,-1.21,0.08,-0.26,1.24
1.3620409965515137,-0.4,0.09,-0.11,0.42
1.3626270294189453,0.26,-0.08,-0.1,0.28
1.3645319938659668,0.14,-0.28,0.12,0.33
1.374603271484375,-0.46,-0.15,0.27,0.55
1.38454008102417,-0.36,0.14,0.11,0.4
1.3945560455322266,-0.11,0.16,-0.27,0.33
1.404656171798706,-0.29,0.02,-0.72,0.77
1.4145092964172363,-0.33,0.01,-0.67,0.74
1.424623966217041,-0.16,-0.03,-0.21,0.26
1.434587001800537,0.05,-0.08,0.07,0.11
1.4622271060943604,0.37,0.16,-0.31,0.5
1.4628031253814697,0.29,0.3,-0.72,0.83
1.4645631313323975,0.01,0.07,-1.06,1.06
1.474447250366211,0.03,-0.06,-1.22,1.22
1.4844281673431396,0.19,0.0,-0.66,0.68
1.494448184967041,0.03,0.17,-0.06,0.18
1.5045220851898193,-0.52,0.09,-0.28,0.59
1.5144240856170654,-0.45,-0.11,-0.81,0.93
1.5244030952453613,-0.13,0.01,-0.9,0.9
1.5344042778015137,0.23,0.01,-0.5,0.55
1.563068151473999,0.36,0.05,-0.25,0.44
1.5636463165283203,0.42,0.06,-0.23,0.48
1.5644559860229492,0.25,0.23,-0.33,0.47
1.5744032859802246,-0.14,0.03,-0.4,0.42
1.5843760967254639,-0.52,-0.03,-0.31,0.6
1.5944530963897705,-0.75,0.01,0.05,0.75
1.6043901443481445,-0.7,-0.07,0.28,0.75
1.614305019378662,-0.78,-0.13,0.19,0.81
1.6243929862976074,-0.72,-0.07,0.02,0.72
1.634310245513916,-0.63,-0.03,0.14,0.64
1.6606481075286865,-0.2,-0.02,0.45,0.49
1.661184310913086,0.04,0.06,0.24,0.25
1.6642510890960693,0.14,0.19,-0.29,0.37
1.674260139465332,0.49,0.09,-0.08,0.5
1.6843070983886719,0.58,-0.09,0.41,0.71
1.694262981414795,0.66,0.0,0.57,0.87
1.7043190002441406,0.67,0.17,0.46,0.83
1.7142162322998047,1.06,0.24,0.31,1.13
1.7242910861968994,1.8,0.2,0.27,1.83
1.73427414894104,2.65,0.13,0.24,2.66
1.7624311447143555,3.34,0.21,0.28,3.35
1.763012170791626,3.55,0.3,0.55,3.6
1.7642192840576172,3.56,0.27,0.76,3.65
1.774219036102295,3.7,-0.06,0.97,3.82
1.784217119216919,4.02,-0.23,1.3,4.23
1.7941932678222656,4.45,-0.07,1.18,4.6
1.804089069366455,5.07,0.31,1.1,5.19
1.8141841888427734,5.38,0.83,0.87,5.51
1.8241910934448242,5.08,1.58,0.53,5.34
1.8340740203857422,4.55,2.36,0.27,5.13
1.8627681732177734,3.25,3.2,0.08,4.56
1.86334228515625,0.31,6.22,-1.53,6.41
1.8640422821044922,1.59,6.28,-4.22,7.73
1.874223232269287,2.96,6.04,-3.27,7.47
1.884162187576294,2.97,5.49,-2.42,6.69
1.8941071033477783,2.38,3.67,-1.56,4.64
1.903926134109497,1.57,1.7,-1.19,2.6
1.9151520729064941,1.63,-0.18,-0.97,1.9
1.924118995666504,2.91,-0.44,-0.2,2.94
1.934075117111206,3.91,0.24,1.25,4.11
1.9627511501312256,3.31,0.08,2.24,3.99
1.9633259773254395,5.04,-0.72,1.3,5.25
1.9640650749206543,8.09,-0.05,1.64,8.25
1.9741382598876953,9.48,-0.15,2.96,9.93
1.9840550422668457,8.55,-0.65,3.6,9.29
1.9940261840820312,6.99,-0.93,3.41,7.83
2.004028081893921,6.06,-1.01,2.96,6.81
2.0140390396118164,5.46,-0.98,2.58,6.11
2.0240139961242676,4.97,-0.86,2.33,5.55
2.033942222595215,4.47,-0.6,2.02,4.94
2.061676025390625,3.78,-0.27,1.72,4.16
2.0622639656066895,2.81,0.05,1.43,3.15
2.0638833045959473,1.81,0.21,1.13,2.14
2.0739259719848633,1.0,0.47,0.75,1.33
2.083919048309326,0.39,0.85,0.38,1.0
2.0939781665802,-0.07,1.14,0.19,1.15
2.104170083999634,-0.47,1.25,0.13,1.34
2.113880157470703,-0.72,1.39,0.09,1.56
2.1239681243896484,-0.85,1.55,-0.02,1.76
2.1338751316070557,-0.87,1.61,-0.14,1.83
2.162654161453247,-1.24,1.8,-0.11,2.18
2.1632421016693115,-1.82,1.99,-0.26,2.7
2.163837194442749,-2.95,1.96,-0.37,3.56
2.1738951206207275,-4.37,1.75,-0.67,4.75
2.183765172958374,-5.31,1.31,-1.0,5.55
2.1938281059265137,-5.7,1.26,-1.26,5.97
2.2037811279296875,-5.34,1.05,-1.56,5.66
2.2137842178344727,-4.22,-0.35,-1.48,4.48
2.2238030433654785,-3.18,-1.95,-0.55,3.77
2.2337570190429688,-3.15,-1.72,-0.28,3.59
2.2631680965423584,-4.67,-1.11,-1.45,5.01
2.2637863159179688,-6.54,-1.52,-2.51,7.16
2.2643520832061768,-7.71,-1.7,-2.6,8.31
2.2738232612609863,-7.18,-1.5,-2.21,7.66
2.283769130706787,-5.87,1.09,-2.03,6.3
2.293741226196289,-3.94,3.74,-2.7,6.06
2.3037033081054688,-7.15,-1.98,-3.71,8.29
2.313723087310791,-6.2,-2.24,-5.78,8.76
2.3237271308898926,2.22,1.44,-2.34,3.53
2.333707094192505,7.86,1.78,2.45,8.42
2.3638851642608643,5.81,0.24,0.08,5.81
2.3644580841064453,0.2,-0.36,-2.23,2.26
2.3650240898132324,-2.27,0.36,-1.95,3.01
2.3737010955810547,-1.03,3.37,-0.25,3.53
2.383594036102295,-1.22,6.83,1.14,7.03
2.3935980796813965,-5.85,7.82,0.43,9.77
2.403489112854004,-8.82,3.46,-1.6,9.6
2.4135942459106445,-4.49,-0.38,-1.27,4.68
2.423626184463501,-0.59,-0.71,-0.55,1.07
2.433631181716919,-0.7,-1.26,-1.57,2.13
2.4634222984313965,-1.71,-1.48,-1.98,3.0
2.4640071392059326,-2.14,-0.74,-1.32,2.62
2.464576244354248,-3.51,-1.11,-0.69,3.74
2.4735002517700195,-4.2,-0.82,-0.77,4.34
2.483487129211426,-3.79,0.3,-0.52,3.83
2.493572235107422,-3.09,0.78,-0.1,3.18
2.5035111904144287,-2.41,0.9,0.07,2.57
2.513488292694092,-1.32,0.61,0.07,1.45
2.523548126220703,-0.9,-0.41,0.89,1.33
2.5336012840270996,-1.05,-0.95,1.82,2.3
2.56506609916687,-1.4,-0.93,1.87,2.51
2.565645217895508,-1.85,-0.43,0.75,2.04
2.566214084625244,-2.05,0.09,-0.47,2.1
2.573507308959961,-1.77,0.23,-0.9,1.99
2.5834150314331055,-1.4,0.17,-0.89,1.66
2.593456268310547,-0.94,-0.02,-1.16,1.49
2.603454113006592,0.13,-0.08,-1.35,1.35
2.6134331226348877,0.42,-0.2,-0.97,1.07
2.6235179901123047,-0.38,-0.16,-0.41,0.58
2.6334762573242188,-0.79,0.1,-0.5,0.94
2.663292169570923,-0.8,0.2,-0.72,1.09
2.6638660430908203,-0.76,0.13,-0.55,0.94
2.664438247680664,-0.59,0.02,-0.48,0.76
2.6734211444854736,-0.46,0.1,-0.29,0.55
2.683302164077759,-0.54,0.18,0.17,0.59
2.6936111450195312,-0.34,0.12,0.34,0.49
2.7032690048217773,0.03,0.03,0.59,0.59
2.713320255279541,0.33,0.1,0.57,0.66
2.723402976989746,0.23,0.45,-0.37,0.62
2.7333011627197266,-0.32,0.18,-1.77,1.8
2.763288974761963,-0.54,-0.55,-1.69,1.85
2.763881206512451,-0.5,-0.44,-1.35,1.5
2.7644572257995605,-0.37,0.0,-1.24,1.29
2.7732601165771484,0.1,-0.15,-0.6,0.62
2.7831950187683105,0.53,-0.27,-0.7,0.91
2.7932581901550293,0.47,-0.3,-0.93,1.08
2.803183078765869,0.11,-0.3,-0.31,0.44
2.8131301403045654,-0.14,-0.08,-0.17,0.23
2.8232340812683105,-0.24,-0.08,-0.12,0.27
2.8332440853118896,-0.22,0.07,-0.13,0.26
2.864091157913208,-0.26,0.18,0.03,0.31
2.86466908454895,-0.42,0.13,0.12,0.45
2.8652310371398926,-0.37,0.08,0.1,0.39
2.8732070922851562,-0.22,0.16,0.02,0.27
2.8831400871276855,-0.17,0.25,0.08,0.31
2.893153190612793,-0.42,0.14,0.18,0.47
2.903109073638916,-0.24,-0.04,0.39,0.45
2.9131112098693848,-0.05,-0.15,0.43,0.45
2.923130989074707,-0.51,-0.12,0.17,0.55
2.933119297027588,-0.56,0.15,0.29,0.64
2.9638431072235107,-0.11,0.22,0.54,0.59
2.964426040649414,0.03,0.07,0.29,0.29
2.964977264404297,0.02,0.07,-0.02,0.07
2.973052978515625,0.17,0.05,-0.26,0.31
2.983046054840088,0.37,0.02,-0.36,0.51
2.9930572509765625,0.7,0.1,-0.41,0.81
3.003028154373169,0.55,-0.01,-0.44,0.7
3.013028144836426,0.11,0.0,-0.63,0.63
3.0229761600494385,0.0,0.05,-0.81,0.81
3.033051013946533,-0.02,-0.01,-0.78,0.78
3.0629851818084717,-0.09,0.0,-0.62,0.62
3.06358003616333,0.35,-0.02,-0.43,0.55
3.064146041870117,1.07,-0.06,-0.09,1.07
3.0727741718292236,1.32,-0.14,0.25,1.35
3.082937240600586,1.17,-0.09,0.46,1.26
3.093017101287842,0.59,-0.12,0.68,0.9
3.102933168411255,-0.07,-0.07,0.57,0.57
3.1128041744232178,-0.29,-0.03,0.33,0.44
3.1228511333465576,-0.1,-0.1,0.34,0.36
3.1329050064086914,0.07,-0.12,0.35,0.37
3.163447141647339,-0.07,-0.08,0.23,0.25
3.1640262603759766,-0.26,0.11,0.08,0.29
3.1645901203155518,-0.37,0.25,-0.09,0.45
3.1728830337524414,-0.25,0.18,-0.05,0.31
3.182913303375244,-0.16,0.11,0.13,0.23
3.192845106124878,0.0,0.24,0.04,0.24
3.2027971744537354,0.35,0.21,-0.1,0.42
3.212867259979248,0.92,0.19,-0.19,0.95
3.2228331565856934,2.01,0.24,-0.25,2.03
3.2328662872314453,2.95,0.15,0.27,2.96
3.26513409614563,3.7,0.03,0.91,3.81
3.2657179832458496,4.31,-0.02,1.4,4.53
3.2662839889526367,4.71,0.04,1.5,4.94
3.272731304168701,4.88,0.23,1.15,5.01
3.282764196395874,4.83,0.53,0.89,4.93
3.2928199768066406,4.74,0.91,0.93,4.91
3.3027210235595703,4.74,1.31,0.95,5.0
3.3127641677856445,4.2,1.96,-0.56,4.66
3.3230981826782227,2.82,2.18,-1.55,3.88
3.332688093185425,1.03,2.51,-0.98,2.88
3.365058183670044,-0.4,4.18,-0.37,4.21
3.365638256072998,0.21,6.54,-1.61,6.73
3.366209030151367,1.93,6.3,0.05,6.58
3.372859001159668,3.17,6.31,0.84,7.11
3.382707118988037,5.92,7.08,-0.48,9.24
3.392735004425049,6.55,6.81,-0.42,9.45
3.4025821685791016,5.3,4.72,-0.7,7.13
3.412633180618286,3.25,3.91,-1.54,5.31
3.422595977783203,2.11,4.07,-1.62,4.86
3.432685136795044,1.99,3.24,-1.35,4.03
3.464102268218994,1.56,2.5,-0.63,3.01
3.4646871089935303,0.75,-0.6,-0.43,1.05
3.4652552604675293,0.36,-3.97,-0.25,3.99
3.4725441932678223,2.71,-2.73,0.13,3.84
3.482516288757324,2.79,-1.04,1.41,3.29
3.492542266845703,4.0,-2.65,0.65,4.84
3.5025341510772705,7.04,-2.73,0.89,7.6
3.5125391483306885,8.02,-2.39,2.8,8.82
3.5225131511688232,7.52,-3.03,3.5,8.83
3.532431125640869,6.6,-3.4,3.25,8.1
3.5648131370544434,6.22,-3.22,2.74,7.52
3.5653982162475586,5.84,-2.77,2.54,6.94
3.565967082977295,5.35,-2.38,2.58,6.39
3.572390079498291,4.73,-2.16,2.62,5.82
3.582465171813965,4.04,-2.03,2.57,5.2
3.5925381183624268,3.3,-1.52,2.39,4.34
3.602384090423584,2.65,-0.61,1.94,3.34
3.6124610900878906,2.78,0.35,1.01,2.97
3.62245512008667,1.79,1.56,0.72,2.48
3.6325020790100098,-0.62,2.2,0.65,2.37
3.6662251949310303,-1.94,2.66,-0.19,3.29
3.6668930053710938,-2.45,3.24,-0.9,4.16
3.667884111404419,-2.97,3.84,-0.82,4.92
3.672250270843506,-3.74,3.93,-0.41,5.44
3.6823770999908447,-4.15,3.38,-0.33,5.36
3.692348003387451,-3.72,2.84,-0.39,4.69
3.702247142791748,-2.87,2.51,-0.77,3.88
3.7123069763183594,-2.67,2.65,-1.9,4.21
3.7222952842712402,-2.75,2.93,-2.52,4.74
3.7323691844940186,-3.23,2.62,-1.87,4.56
3.7655200958251953,-4.23,1.7,-1.8,4.9
3.766101121902466,-6.16,0.16,-2.79,6.76
3.766698122024536,-8.01,-1.47,-3.79,8.98
3.7722010612487793,-8.38,-2.1,-4.31,9.65
3.7822999954223633,-7.73,-1.74,-4.01,8.88
3.792208194732666,-7.97,-1.81,-3.41,8.85
3.802138090133667,-8.98,-2.26,-3.6,9.93
3.8122482299804688,-9.68,-2.63,-4.28,10.9
3.822218179702759,-9.12,-3.17,-4.74,10.75
3.832240104675293,-7.36,0.97,-4.61,8.73
3.8646721839904785,-3.61,8.96,-3.97,10.44
3.865260124206543,0.55,0.86,-3.44,3.58
3.865844249725342,10.18,-3.15,2.64,10.97
3.872103214263916,15.17,-1.94,11.7,19.25
3.882162094116211,9.83,-0.19,6.95,12.04
3.8921821117401123,0.6,0.92,-1.49,1.85
3.902172088623047,-5.32,0.56,-4.04,6.7
3.9122061729431152,-3.92,2.04,-3.12,5.4
3.922128200531006,-0.48,5.09,-2.2,5.56
3.9320812225341797,0.11,7.03,-1.0,7.1
3.9656100273132324,-2.58,4.89,-0.89,5.6
3.9661900997161865,-4.08,3.45,-1.17,5.46
3.966790199279785,-4.16,2.25,-3.82,6.07
3.972093105316162,-4.84,-0.99,-5.29,7.23
3.9821321964263916,-3.25,-0.26,-2.23,3.95
3.9920902252197266,-1.91,-1.43,0.2,2.39
4.002045154571533,-0.89,-2.51,0.35,2.68
4.0120720863342285,-0.25,-1.78,1.12,2.11
4.0220232009887695,-1.65,-1.46,0.76,2.33
4.032051086425781,-3.63,-1.99,-0.24,4.14
4.065890312194824,-3.43,-1.05,-0.2,3.59
4.066510200500488,-1.47,0.66,-0.63,1.73
4.067490100860596,-0.07,1.09,-1.14,1.57
4.071897029876709,-0.64,0.63,-0.33,0.95
4.081995010375977,-2.12,0.12,0.97,2.33
4.09197211265564,-3.11,-0.28,1.34,3.39
4.101835250854492,-3.72,-0.43,1.25,3.94
4.111979007720947,-4.19,-0.16,1.42,4.42
4.121938228607178,-3.53,-0.09,0.88,3.63
4.1319260597229,-1.87,-0.03,0.04,1.87
4.164858102798462,-0.05,-0.01,-0.19,0.19
4.165456295013428,0.69,0.08,-0.34,0.77
4.16602897644043,0.55,0.34,-0.38,0.75
4.171805143356323,0.09,0.26,-0.5,0.57
4.1818931102752686,0.19,0.06,-0.83,0.85
4.191843032836914,0.69,0.09,-1.03,1.24
4.201827049255371,0.52,0.14,-1.54,1.63
4.211884021759033,0.49,0.15,-1.8,1.87
4.221832275390625,0.62,0.22,-1.49,1.62
4.231725215911865,0.09,0.21,-1.42,1.43
4.26551628112793,-0.45,-0.02,-0.91,1.01
4.26613712310791,-0.63,-0.01,-0.72,0.95
4.267146110534668,-0.21,0.0,-0.6,0.63
4.27174711227417,0.04,-0.17,-0.12,0.21
4.28177809715271,0.01,-0.31,0.23,0.38
4.291597127914429,-0.42,-0.41,0.66,0.88
4.301685094833374,-1.25,-0.4,1.24,1.8
4.311820030212402,-1.94,-0.23,1.78,2.64
4.321730136871338,-1.77,-0.16,1.88,2.58
4.331655979156494,-1.01,-0.14,1.52,1.83
4.366481304168701,-0.68,-0.17,0.74,1.01
4.367530107498169,-0.77,-0.13,0.22,0.81
4.368093967437744,-0.96,-0.03,-0.13,0.96
4.371594190597534,-0.94,0.1,-0.67,1.15
4.381692171096802,-0.63,0.27,-1.1,1.29
4.39159631729126,-0.03,0.2,-1.5,1.51
4.401630163192749,0.31,0.27,-1.81,1.85
4.4117271900177,0.23,0.09,-2.0,2.01
4.421614170074463,0.01,0.25,-2.08,2.09
4.431711196899414,0.27,0.04,-1.47,1.49
4.465748310089111,0.52,0.1,-0.79,0.95
4.466794967651367,0.38,-0.02,-0.28,0.47
4.467368125915527,0.41,-0.16,0.16,0.46
4.471554279327393,0.39,-0.06,0.52,0.65
4.481567144393921,0.31,-0.03,0.75,0.81
4.491552114486694,0.12,-0.14,0.8,0.82
4.501525163650513,-0.1,-0.18,0.63,0.66
4.5115721225738525,-0.08,-0.06,0.52,0.52
4.521519184112549,0.12,-0.03,0.38,0.39
4.531497001647949,0.19,-0.08,0.14,0.24
4.565814971923828,0.34,-0.02,-0.26,0.42
4.566839218139648,0.8,0.03,-0.19,0.82
4.567415237426758,0.88,0.09,-0.06,0.88
4.571412086486816,0.94,0.05,0.08,0.94
4.581394195556641,0.83,-0.1,0.39,0.92
4.591731071472168,0.32,-0.07,-0.17,0.36
4.601605176925659,0.12,0.04,-0.59,0.6
4.611478090286255,0.21,-0.07,-0.06,0.22
4.621394157409668,0.21,-0.02,-0.38,0.43
4.631400108337402,0.23,0.03,-0.46,0.51
4.666092157363892,0.03,-0.07,-0.46,0.46
4.66762113571167,-0.31,-0.14,-0.75,0.82
4.668190002441406,-0.26,-0.1,-0.61,0.67
4.671311140060425,-0.13,-0.14,-0.11,0.22
4.681365966796875,-0.27,-0.12,-0.05,0.29
4.691214084625244,0.02,0.04,-0.13,0.13
4.701310157775879,0.31,0.03,-0.12,0.33
4.711320161819458,0.05,0.09,-0.27,0.28
4.721307277679443,-0.41,0.17,-0.16,0.47
4.731327056884766,-0.77,-0.04,0.01,0.77
4.741318225860596,-1.12,-0.03,-0.24,1.14
4.767632007598877,-0.88,-0.02,-0.1,0.88
4.768212080001831,-0.54,-0.15,0.12,0.57
4.771230220794678,-0.19,-0.05,0.02,0.19
4.781280994415283,0.41,0.05,-0.06,0.41
4.791254997253418,1.35,0.12,-0.08,1.35
4.801223278045654,1.46,0.23,0.44,1.54
4.811240196228027,0.66,0.13,0.65,0.93
4.821202278137207,0.05,-0.03,0.14,0.15
4.831228256225586,-0.31,0.01,0.41,0.51
4.841263294219971,-0.65,-0.03,0.47,0.8
4.867021083831787,-0.76,-0.07,0.29,0.81
4.867609977722168,-0.59,-0.03,0.3,0.66
4.871109962463379,-0.25,-0.03,0.26,0.36
4.881192207336426,0.14,-0.01,0.05,0.14
4.891107082366943,0.61,-0.03,-0.03,0.61
4.901156187057495,0.8,-0.02,-0.14,0.81
4.911204099655151,0.66,0.07,-0.21,0.69
4.92119026184082,0.24,-0.01,-0.42,0.48
4.931190013885498,-0.35,-0.01,-0.76,0.83
4.941158294677734,-0.59,0.16,-0.89,1.07
4.967259168624878,-0.28,0.16,-0.96,1.01
4.967827081680298,0.17,0.06,-0.91,0.92
4.971019268035889,0.61,0.09,-0.69,0.92
4.981070041656494,1.06,0.15,-0.45,1.16
4.991007089614868,1.61,0.16,-0.21,1.63
5.000976085662842,2.07,0.16,0.13,2.08
5.011092185974121,2.41,0.23,0.56,2.48
5.021008014678955,2.44,0.46,0.7,2.57
5.0310680866241455,2.43,0.77,0.72,2.64
5.040976047515869,2.6,1.0,0.76,2.88
5.067846298217773,2.93,1.01,0.64,3.16
5.068424224853516,3.37,0.97,0.5,3.54
5.070908069610596,3.62,1.33,0.26,3.86
5.08097505569458,3.45,1.86,0.14,3.92
5.090911149978638,3.08,2.54,0.7,4.05
5.100921154022217,2.61,3.71,1.09,4.66
5.111070156097412,3.15,4.77,-0.68,5.75
5.120915174484253,3.99,6.02,0.33,7.22
5.130982160568237,3.73,5.49,1.38,6.77
5.1408772468566895,3.74,4.87,0.42,6.15
5.167428016662598,3.24,4.67,0.11,5.68
5.168006181716919,2.43,2.96,0.39,3.84
5.170809268951416,0.59,0.56,0.23,0.84
5.180860996246338,-1.55,-1.22,-0.31,1.99
5.190814971923828,-2.11,-2.03,-0.6,2.98
5.200807094573975,-0.57,-1.75,-0.63,1.94
5.210918188095093,1.92,-0.56,0.42,2.04
5.220812082290649,4.34,-0.53,1.48,4.61
5.250174045562744,5.23,-1.69,1.87,5.8
5.250794172286987,4.6,-0.76,1.18,4.8
5.25134015083313,5.58,0.15,-0.32,5.59
5.260605096817017,6.2,0.47,0.38,6.22
5.2707130908966064,6.19,0.57,1.29,6.34
5.280765056610107,5.98,0.06,1.34,6.12
5.290699005126953,5.44,-0.11,1.06,5.54
5.300687313079834,4.47,0.07,0.81,4.54
5.310817241668701,3.77,0.19,0.5,3.8
5.320719242095947,3.63,0.15,0.29,3.64
5.3507161140441895,3.78,0.17,0.25,3.79
5.351308107376099,3.86,0.47,0.3,3.9
5.351869106292725,3.5,0.81,0.34,3.6
5.360515117645264,2.72,1.1,0.34,2.95
5.370602130889893,2.02,1.51,0.16,2.52
5.380674123764038,1.05,1.94,-0.02,2.2
5.390529155731201,0.0,2.13,-0.25,2.14
5.400701999664307,-0.61,2.24,-0.51,2.37
5.410576105117798,-0.81,2.0,-0.66,2.25
5.420635223388672,-0.54,1.43,-0.69,1.67
5.450744152069092,-2.03,1.03,-0.1,2.27
5.451330184936523,-3.72,0.11,0.33,3.73
5.45189905166626,-4.43,-0.71,0.37,4.5
5.460601091384888,-4.33,-0.73,0.1,4.39
5.470463275909424,-3.67,-0.48,0.05,3.7
5.480556964874268,-3.19,-0.17,0.02,3.19
5.490544080734253,-2.9,0.34,-0.16,2.92
5.500592231750488,-2.53,0.85,-0.28,2.68
5.510533094406128,-2.37,1.05,-0.46,2.63
5.520559310913086,-2.34,0.93,-0.72,2.61
5.551803112030029,-2.52,0.89,-1.1,2.89
5.5523841381073,-3.26,0.45,-1.4,3.57
5.552955150604248,-4.25,-0.19,-1.37,4.46
5.560362100601196,-5.24,-0.73,-1.4,5.47
5.570383071899414,-5.75,-1.06,-1.51,6.03
5.580394268035889,-5.72,-1.33,-1.7,6.11
5.590400218963623,-5.3,-1.28,-2.1,5.84
5.600372314453125,-4.83,-1.04,-2.35,5.47
5.610274314880371,-4.88,-1.16,-2.35,5.53
5.620443105697632,-5.07,-1.42,-2.42,5.79
5.6520280838012695,-5.04,-1.43,-2.48,5.79
5.652630090713501,-3.31,3.44,-2.85,5.55
5.6532182693481445,-0.72,4.4,-2.43,5.07
5.660233974456787,-3.29,-1.16,-0.82,3.58
5.670312166213989,0.25,-0.98,-0.38,1.08
5.680353164672852,5.94,0.04,4.0,7.16
5.690246105194092,7.24,-0.75,7.47,10.42
5.700340270996094,4.56,-0.97,3.35,5.74
5.710157155990601,0.33,0.2,-0.61,0.72
5.720643043518066,-2.26,0.56,-0.74,2.44
5.751673221588135,-1.78,0.35,0.11,1.81
5.752269268035889,0.19,1.22,-0.13,1.24
5.752851963043213,1.3,2.34,-0.59,2.74
5.760151147842407,0.74,3.23,-1.15,3.5
5.770116090774536,-0.52,4.04,-1.52,4.34
5.780205249786377,-1.57,3.14,-2.03,4.05
5.7901291847229,-2.46,4.55,-3.29,6.13
5.8001790046691895,-2.78,2.31,-6.7,7.61
5.8103110790252686,-2.23,1.05,-5.01,5.58
5.820226192474365,-0.44,-0.11,0.87,0.98
5.850588083267212,-1.78,-3.36,2.85,4.75
5.851173162460327,-4.07,-3.51,0.67,5.41
5.851742267608643,-3.59,-2.32,-0.74,4.33
5.860300064086914,-1.61,-1.35,-0.66,2.2
5.870120048522949,-0.79,-0.84,-0.08,1.15
5.880123138427734,-0.66,0.08,-0.27,0.71
5.8900980949401855,-0.23,0.9,-0.53,1.06
5.900102138519287,-0.38,0.35,-0.67,0.84
5.910529136657715,-1.38,0.07,-1.14,1.79
5.920117139816284,-2.25,-0.48,-2.38,3.31
5.949932098388672,-2.95,-0.54,-1.91,3.55
5.95051908493042,-2.49,-0.12,-0.8,2.61
5.951097011566162,-1.64,0.21,-0.58,1.75
5.9598612785339355,-0.71,0.44,-0.46,0.95
5.9699602127075195,-0.09,0.73,-1.03,1.26
5.980072021484375,0.31,0.49,-1.1,1.24
5.989894151687622,0.51,-0.36,-0.74,0.96
5.999929189682007,0.14,-0.93,-1.08,1.43
6.009942054748535,-0.31,-1.19,-0.22,1.24
6.019978046417236,-1.36,-1.32,-0.07,1.89
6.0510029792785645,-1.97,-0.49,0.52,2.09
6.051586151123047,-1.36,-0.01,1.27,1.86
6.052151203155518,-0.72,-0.66,1.06,1.44
6.059881210327148,-0.48,-1.43,0.98,1.79
6.069911003112793,-0.15,-1.32,1.72,2.17
6.079884052276611,-0.41,-0.1,1.7,1.75
6.089835166931152,-0.47,0.86,1.26,1.59
6.099894046783447,-1.08,0.8,1.12,1.74
6.109832286834717,-1.56,0.1,0.73,1.72
6.1198670864105225,-2.05,-0.37,0.44,2.12
6.154963970184326,-2.32,-0.32,-0.07,2.34
6.155811309814453,-2.11,-0.26,-0.41,2.16
6.15637731552124,-1.51,-0.33,-0.14,1.55
6.159702301025391,-1.31,-0.32,-0.14,1.35
6.169707298278809,-1.38,-0.11,-0.38,1.43
6.179841995239258,-1.16,-0.05,-0.29,1.19
6.189741134643555,-1.13,0.05,-0.25,1.15
6.199733257293701,-1.25,0.38,-0.88,1.57
6.209779262542725,-0.82,0.07,-0.74,1.1
6.219731092453003,-0.91,-0.31,-0.1,0.96
6.262670040130615,-1.24,-0.06,0.13,1.24
6.263179302215576,-1.02,0.05,0.23,1.04
6.263671159744263,-0.99,0.08,-0.04,0.99
6.26416015625,-1.07,0.23,0.24,1.12
6.269662141799927,-0.97,-0.06,0.66,1.17
6.279726028442383,-0.83,-0.22,0.63,1.06
6.289563179016113,-0.88,-0.19,0.37,0.97
6.299618244171143,-0.5,-0.26,0.39,0.68
6.309571266174316,-0.26,-0.37,0.63,0.77
6.319650173187256,-0.52,-0.29,0.66,0.88
6.356690168380737,-0.68,-0.21,0.46,0.84
6.357147216796875,-0.79,-0.12,0.05,0.8
6.357578277587891,-0.87,0.0,-0.46,0.98
6.359442234039307,-0.29,0.05,-1.02,1.06
6.3695292472839355,0.33,-0.08,-1.59,1.62
6.3795270919799805,0.66,-0.12,-1.73,1.85
6.3895583152771,0.98,-0.14,-1.54,1.83
6.399491310119629,1.22,-0.36,-1.36,1.86
6.409463167190552,1.06,-0.65,-1.42,1.88
6.419455051422119,0.76,-0.59,-1.34,1.64
6.455865144729614,0.9,-0.31,-0.9,1.31
6.456299304962158,1.34,-0.01,-0.51,1.43
6.456729173660278,1.28,0.26,-0.47,1.38
6.459412097930908,0.62,0.29,-0.34,0.76
6.469310283660889,-0.25,0.02,-0.23,0.34
6.479361057281494,-0.84,-0.05,0.21,0.86
6.48945426940918,-0.73,-0.03,0.95,1.19
6.49947714805603,-0.72,0.01,1.06,1.28
6.50938606262207,-0.9,0.54,0.65,1.23
6.519431114196777,-0.63,0.59,0.4,0.95
6.555535316467285,0.17,0.15,-0.02,0.22
6.555965185165405,1.11,-0.14,-0.38,1.18
6.556385040283203,1.74,-0.13,-0.81,1.92
6.5592570304870605,1.87,-0.04,-0.89,2.07
6.569238185882568,1.8,0.02,-0.98,2.04
6.579293251037598,1.58,-0.19,-0.96,1.85
6.5896430015563965,1.41,-0.31,-0.83,1.66
6.599290132522583,1.11,-0.13,-0.61,1.27
6.609202146530151,0.51,0.08,-0.14,0.53
6.619180202484131,0.42,0.02,0.06,0.42
6.65578031539917,0.43,-0.22,0.07,0.48
6.65621018409729,0.15,-0.04,0.0,0.15
6.656628131866455,0.13,0.3,0.25,0.41
6.659115314483643,0.69,0.23,1.0,1.23
6.66924524307251,1.23,0.21,0.79,1.47
6.679208278656006,1.02,0.12,0.07,1.02
6.689143180847168,0.45,-0.03,-0.06,0.45
6.699151039123535,0.26,-0.06,0.14,0.3
6.709182262420654,0.11,-0.02,0.23,0.25
6.71926212310791,-0.01,0.13,-0.2,0.23
6.756205081939697,-0.12,-0.01,-0.44,0.45
6.756673097610474,-0.13,-0.14,-0.8,0.82
6.757168292999268,0.12,-0.09,-1.06,1.07
6.759052276611328,0.33,-0.26,-0.76,0.86
6.769089221954346,0.3,-0.39,-0.63,0.79
6.778972148895264,0.16,-0.41,-0.73,0.85
6.789130210876465,0.27,-0.62,-0.63,0.92
6.799059152603149,0.04,-0.57,-0.55,0.79
6.809059143066406,-0.28,-0.21,-0.34,0.48
6.8190412521362305,0.16,0.23,-0.07,0.28
6.856194019317627,0.54,0.48,0.39,0.82
6.856624126434326,0.61,0.46,0.35,0.84
6.8570451736450195,0.84,0.33,0.15,0.91
6.858955144882202,1.02,0.27,0.31,1.09
6.8690221309661865,1.09,0.2,0.38,1.17
6.878899097442627,1.35,0.26,0.48,1.45
6.889044284820557,1.84,0.49,0.98,2.14
6.8989973068237305,2.4,0.75,1.12,2.75
6.908872127532959,2.62,0.91,0.54,2.82
6.918934106826782,2.69,1.03,0.21,2.88
6.956014156341553,3.07,0.84,0.74,3.26
6.956456184387207,3.25,0.92,0.23,3.38
6.956873178482056,2.31,1.52,-0.14,2.76
6.958759307861328,1.03,2.13,-0.12,2.36
6.968935966491699,0.28,3.15,-1.47,3.48
6.9786601066589355,1.92,5.79,-1.43,6.26
6.988875150680542,2.99,7.03,0.53,7.65
6.998829126358032,4.94,7.5,-1.36,9.08
7.008812189102173,7.06,8.03,-2.02,10.88
7.018945217132568,7.64,7.83,-2.01,11.12
7.055668115615845,6.77,7.4,-2.54,10.34
7.05609917640686,5.14,7.22,-3.22,9.42
7.056519985198975,3.77,6.52,-3.01,8.11
7.058748245239258,2.99,4.71,-1.8,5.86
7.068754196166992,1.82,2.41,-0.7,3.1
7.078663110733032,0.36,0.28,-0.2,0.49
7.088741302490234,-1.8,-0.78,0.28,1.98
7.098806142807007,0.11,-1.56,-1.17,1.95
7.108704090118408,3.74,-2.4,0.24,4.45
7.118709087371826,3.12,-2.46,2.52,4.7
7.157279968261719,3.56,-2.53,0.39,4.38
7.157719135284424,7.06,-2.34,-0.66,7.46
7.158149242401123,8.63,-2.29,2.0,9.14
7.158596992492676,8.28,-3.26,3.94,9.73
7.1687140464782715,6.6,-4.06,4.25,8.83
7.178817272186279,5.61,-4.22,3.54,7.86
7.188577175140381,5.48,-3.76,2.62,7.14
7.198641300201416,5.39,-3.24,2.15,6.64
7.208583116531372,4.74,-3.12,2.17,6.07
7.218585968017578,3.57,-2.92,2.24,5.12
7.255884170532227,2.42,-2.26,2.0,3.86
7.256318092346191,1.66,-1.6,1.72,2.87
7.25673508644104,1.54,-0.93,1.57,2.38
7.258477210998535,1.61,0.11,1.5,2.2
7.268542289733887,1.39,1.16,1.15,2.14
7.278545141220093,0.96,1.91,0.53,2.2
7.288494110107422,-0.19,2.33,0.16,2.34
7.298577308654785,-1.04,2.59,0.24,2.8
7.308526039123535,-1.58,3.2,0.47,3.59
7.318472146987915,-1.71,3.35,0.2,3.76
7.328493118286133,-1.4,3.97,-0.25,4.21
7.356837272644043,-3.57,4.52,-0.59,5.78
7.357259273529053,-4.16,4.19,-1.94,6.21
7.3583149909973145,-3.63,4.03,-2.48,5.96
7.3684821128845215,-3.11,3.94,-1.9,5.36
7.378389120101929,-3.09,2.97,-1.2,4.45
7.388357162475586,-3.53,1.52,-1.39,4.08
7.398433208465576,-4.09,0.26,-2.07,4.59
7.408362150192261,-4.62,-0.39,-2.4,5.22
7.418406963348389,-5.13,-0.87,-2.42,5.73
7.428436279296875,-6.11,-0.71,-2.5,6.63
7.456581115722656,-7.04,-0.58,-2.54,7.5
7.457010269165039,-7.01,-1.09,-2.53,7.53
7.458319187164307,-5.99,-1.61,-2.42,6.65
7.468342304229736,-4.95,-1.83,-2.2,5.71
7.47833514213562,-4.16,-1.97,-2.15,5.08
7.488311290740967,-3.69,-1.76,-2.4,4.74
7.4983251094818115,-4.07,-1.61,-2.83,5.21
7.508275032043457,-5.01,2.77,-3.56,6.74
7.5183961391448975,-2.32,7.37,-3.37,8.42
7.528308153152466,0.58,0.84,-1.88,2.13
7.5572190284729,5.93,-2.65,0.89,6.55
7.557659149169922,9.52,-1.41,5.59,11.12
7.558118104934692,6.46,0.41,5.48,8.48
7.568264961242676,0.04,0.62,1.55,1.66
7.5781261920928955,-4.27,0.45,-0.83,4.37
7.588167190551758,-4.02,1.23,-0.93,4.3
7.598260164260864,-1.89,2.28,-1.26,3.21
7.608121156692505,-1.32,3.53,-1.59,4.09
7.618146181106567,-2.97,4.44,-2.19,5.77
7.628164291381836,-5.38,3.19,-2.99,6.93
7.657563209533691,-5.34,4.67,-3.15,7.76
7.658020973205566,-7.37,2.59,-5.77,9.71
7.658450126647949,-6.76,0.48,-4.6,8.19
7.668093204498291,-1.91,0.23,1.44,2.4
7.678044080734253,0.7,-2.54,4.3,5.04
7.68793511390686,-0.91,-3.23,2.03,3.92
7.698138236999512,-1.96,-1.81,-0.39,2.69
7.7081122398376465,-1.01,-0.68,-1.03,1.59
7.718168258666992,0.42,-0.03,-1.4,1.46
7.728039264678955,1.27,0.17,-1.89,2.28
7.757055282592773,0.85,0.23,-2.22,2.38
7.757498264312744,-0.77,0.37,-1.09,1.38
7.757946968078613,-2.26,0.52,0.14,2.32
7.767970085144043,-2.69,0.25,0.6,2.76
7.778016090393066,-2.7,0.05,0.38,2.72
7.787843227386475,-2.32,0.14,-0.26,2.33
7.797945022583008,-1.88,-0.22,-0.18,1.9
7.807898998260498,-1.72,-0.41,0.23,1.78
7.817833185195923,-1.49,-0.43,0.29,1.57
7.827798128128052,-1.13,-0.17,0.15,1.15
7.857532978057861,-0.51,-0.19,-0.15,0.56
7.857982158660889,0.07,-0.26,-0.53,0.59
7.858429193496704,0.16,-0.24,-0.52,0.59
7.8678669929504395,-0.36,-0.2,-0.3,0.5
7.877685070037842,-1.07,-0.01,-0.05,1.07
7.887688159942627,-1.51,0.21,-0.09,1.52
7.897641181945801,-1.55,0.1,-0.39,1.6
7.907623291015625,-1.2,0.01,-0.57,1.32
7.917872190475464,-0.79,-0.03,-0.4,0.88
7.927749156951904,-0.5,0.19,-0.13,0.55
7.956750154495239,-0.38,0.19,0.5,0.65
7.957172155380249,-0.68,0.04,0.83,1.07
7.957611083984375,-1.21,0.07,0.55,1.33
7.967749118804932,-1.18,-0.15,0.31,1.22
7.977797031402588,-0.92,-0.32,0.33,1.02
7.9876790046691895,-0.91,-0.2,0.3,0.97
7.9977641105651855,-0.96,-0.15,-0.18,0.98
8.007760047912598,-0.84,-0.24,-0.41,0.96
8.017726182937622,-0.98,-0.23,-0.23,1.03
8.02770709991455,-0.8,-0.13,-0.36,0.88
8.057523250579834,-0.21,-0.25,0.12,0.34
8.057960987091064,0.05,-0.2,-0.06,0.21
8.058386087417603,0.26,0.12,-0.63,0.69
8.067708015441895,0.49,0.19,-0.77,0.93
8.077596187591553,0.85,-0.04,-0.62,1.05
8.08748197555542,0.94,-0.01,-0.74,1.19
8.097652196884155,0.73,-0.09,-0.73,1.03
8.107747077941895,0.71,0.01,-0.86,1.11
8.11760425567627,0.96,0.14,-0.82,1.27
8.127638101577759,1.26,0.07,-0.04,1.26
8.15782618522644,1.24,-0.07,0.11,1.24
8.158260107040405,0.97,0.15,-0.12,0.98
8.15869426727295,0.62,0.2,-0.1,0.65
8.167619228363037,0.0,0.17,-0.12,0.2
8.177464008331299,-0.14,0.0,0.41,0.43
8.187470197677612,0.01,0.0,0.53,0.53
8.197303295135498,0.04,0.01,0.15,0.15
8.207444190979004,0.04,-0.21,-0.22,0.3
8.217496156692505,-0.15,-0.16,-0.44,0.49
8.227406978607178,-0.19,0.05,0.0,0.19
8.257643222808838,0.23,0.31,0.21,0.43
8.25808310508728,0.37,0.11,-0.07,0.39
8.2585129737854,0.31,-0.04,-0.54,0.62
8.267477989196777,0.66,0.05,-0.76,1.0
8.27739429473877,0.09,0.01,-0.85,0.85
8.287389278411865,-0.64,0.06,-0.84,1.05
8.297237157821655,-0.76,-0.05,-0.77,1.08
8.307350158691406,-0.92,-0.25,-0.82,1.25
8.317377090454102,-0.99,-0.28,-0.72,1.25
8.32737398147583,-0.88,-0.26,-0.31,0.96
8.357478141784668,-0.65,-0.13,-0.27,0.71
8.357913970947266,-0.2,0.06,-0.22,0.3
8.358342170715332,0.29,0.11,-0.07,0.31
8.367282152175903,0.33,0.08,-0.13,0.36
8.377339124679565,0.39,0.02,-0.17,0.42
8.387242317199707,0.61,-0.07,-0.02,0.61
8.397345066070557,0.75,-0.02,0.0,0.75
8.40726113319397,0.61,-0.05,0.13,0.62
8.417348146438599,0.59,0.04,0.1,0.59
8.427253246307373,0.94,0.05,0.09,0.94
8.458043098449707,0.83,-0.08,-0.1,0.83
8.458484172821045,0.45,-0.15,0.01,0.47
8.458911180496216,0.06,-0.18,0.43,0.47
8.467201232910156,-0.37,-0.1,0.5,0.63
8.477118015289307,-0.65,-0.02,0.32,0.72
8.487154960632324,-0.53,0.01,-0.18,0.55
8.497503280639648,-0.06,0.12,-0.34,0.36
8.507169246673584,0.54,0.14,0.0,0.55
8.517161130905151,0.75,0.09,-0.04,0.75
8.527158260345459,0.66,0.08,-0.18,0.68
8.557875156402588,0.61,0.16,0.09,0.63
8.558306217193604,0.85,0.12,0.24,0.89
8.558730125427246,1.29,-0.04,0.42,1.35
8.567109107971191,1.48,0.04,0.58,1.59
8.577001094818115,1.72,0.18,0.86,1.93
8.587005138397217,2.14,0.3,1.19,2.46
8.59697413444519,2.64,0.31,1.84,3.23
8.606994152069092,3.19,0.63,1.51,3.58
8.61704397201538,3.44,0.98,0.68,3.64
8.627029180526733,3.55,1.33,0.0,3.79
8.65820598602295,3.06,1.78,-0.59,3.58
8.658645153045654,2.16,1.52,-0.82,2.76
8.65907096862793,0.85,2.77,-2.59,3.88
8.666943073272705,0.66,5.08,-0.92,5.2
8.67686414718628,1.08,3.59,1.96,4.23
8.686964988708496,1.38,2.97,0.21,3.28
8.69692325592041,0.58,3.4,0.22,3.45
8.706902027130127,0.53,4.09,-0.03,4.12
8.716900110244751,2.07,4.92,-0.75,5.39
8.726763248443604,4.16,4.92,-0.62,6.47
8.758958101272583,4.49,4.18,-0.43,6.14
8.75941014289856,2.84,3.85,-0.26,4.79
8.759852170944214,1.81,4.33,-0.69,4.74
8.766794204711914,2.2,4.41,-1.19,5.06
8.776747226715088,2.17,2.63,-1.2,3.61
8.786849975585938,1.58,0.83,-0.98,2.03
8.796756267547607,0.14,-0.21,-0.23,0.34
8.80683422088623,-1.76,-0.27,-0.19,1.79
8.816857099533081,0.1,-0.07,-2.02,2.02
8.826762199401855,3.27,-0.73,-0.66,3.41
8.858399152755737,4.55,-1.45,1.13,4.9
8.858834266662598,1.28,-1.24,1.56,2.36
8.85925817489624,1.9,-1.7,-0.35,2.57
8.866816997528076,5.68,-1.34,-0.34,5.84
8.876672267913818,8.68,-0.17,1.26,8.77
8.886710166931152,8.95,-0.78,2.25,9.26
8.896691083908081,8.06,-1.73,2.3,8.55
8.906666278839111,7.36,-1.97,1.92,7.85
8.916735172271729,6.83,-1.86,1.66,7.27
8.926687240600586,6.31,-1.63,1.6,6.71
8.959318161010742,5.68,-1.45,1.51,6.05
8.959765195846558,5.05,-1.43,1.38,5.42
8.960200309753418,4.41,-1.25,1.25,4.75
8.966612100601196,3.7,-1.0,1.06,3.97
8.976591110229492,2.8,-0.54,0.92,2.99
8.986626148223877,1.82,0.14,0.63,1.93
8.99663496017456,1.01,0.86,0.07,1.32
9.00658917427063,0.13,1.27,-0.51,1.37
9.01658010482788,-0.09,1.52,-0.84,1.73
9.026576042175293,-0.48,1.57,-0.79,1.82
9.059373140335083,0.46,1.51,-1.01,1.87
9.059818267822266,-0.14,2.25,0.05,2.25
9.060251235961914,-2.86,2.01,0.71,3.56
9.06655502319336,-3.4,1.55,-0.17,3.74
9.076460123062134,-3.38,2.07,-0.44,3.98
9.086472034454346,-3.1,2.55,-0.43,4.03
9.096476078033447,-2.74,2.73,-0.4,3.88
9.106497287750244,-2.33,3.0,-0.56,3.83
9.116475105285645,-2.02,3.09,-0.78,3.77
9.126339197158813,-2.21,2.84,-0.85,3.69
9.159135103225708,-2.79,2.28,-1.05,3.75
9.159578084945679,-3.51,1.69,-1.34,4.11
9.1600022315979,-3.86,1.08,-1.46,4.26
9.16636610031128,-4.06,0.76,-1.69,4.46
9.17633318901062,-4.58,0.67,-2.19,5.12
9.186355113983154,-4.88,0.35,-2.57,5.52
9.196153163909912,-4.82,-0.28,-2.5,5.43
9.206401109695435,-4.51,-0.82,-2.11,5.04
9.216267108917236,-4.29,-1.23,-1.8,4.81
9.2263503074646,-4.38,-1.51,-1.7,4.93
9.258803129196167,-4.56,-1.99,-2.17,5.42
9.25924015045166,-4.73,-2.44,-2.73,5.98
9.259669303894043,-4.79,-2.36,-2.74,6.0
9.26620626449585,-5.16,-1.24,-2.67,5.94
9.276292085647583,-3.31,5.6,-2.69,7.03
9.286312103271484,-1.46,6.99,-1.66,7.33
9.296267986297607,-0.91,-0.85,-1.85,2.23
9.306310176849365,5.6,-2.31,1.68,6.28
9.316180229187012,7.78,-1.7,6.88,10.52
9.32622218132019,3.25,-0.5,3.12,4.53
9.359249114990234,-1.65,0.73,-3.45,3.89
9.359689235687256,-3.21,1.81,-3.36,4.98
9.36011815071106,-1.04,2.13,-0.59,2.44
9.366008281707764,1.39,2.74,0.56,3.12
9.376175165176392,1.49,3.58,1.09,4.02
9.386283159255981,-0.33,3.65,0.41,3.68
9.396174192428589,-3.75,2.31,-1.19,4.56
9.406172275543213,-5.59,1.36,-2.31,6.19
9.415997982025146,-5.06,0.67,-1.63,5.35
9.42612600326538,-3.66,0.26,-0.39,3.68
9.46024227142334,-3.62,2.3,-1.25,4.46
9.461006164550781,-5.07,0.8,-3.57,6.25
9.461441040039062,-2.86,0.57,-3.24,4.35
9.465916156768799,-0.57,-0.35,-0.67,0.94
9.476070165634155,-1.16,-1.81,0.13,2.15
9.486088275909424,-2.61,-1.97,-1.08,3.44
9.496003150939941,-2.69,-1.34,-1.33,3.28
9.50600528717041,-1.82,-0.49,-0.75,2.02
9.515826225280762,-0.74,0.35,-0.52,0.96
9.525909185409546,0.39,0.67,-0.57,0.96
9.560204029083252,1.24,0.5,-0.46,1.41
9.560979127883911,1.89,0.08,-0.15,1.89
9.561408042907715,1.45,-0.9,0.65,1.82
9.56595516204834,-0.57,-0.93,1.35,1.73
9.575894117355347,-2.45,-0.15,0.9,2.61
9.585950136184692,-3.04,0.01,0.2,3.04
9.5959792137146,-2.29,-0.24,-0.13,2.3
9.605889081954956,-1.21,-0.56,-0.21,1.34
9.615803241729736,-1.33,-0.27,-0.29,1.38
9.625867128372192,-1.77,-0.13,-0.54,1.85
9.660223960876465,-1.95,0.13,-0.24,1.96
9.66098928451538,-0.79,0.35,-0.18,0.88
9.66141414642334,0.4,-0.06,0.02,0.4
9.665838241577148,0.5,-0.33,0.04,0.6
9.675788164138794,-0.34,-0.16,0.06,0.38
9.685784101486206,-1.34,0.05,-0.33,1.38
9.695779085159302,-1.24,0.13,-0.92,1.54
9.705676078796387,-0.09,-0.07,-0.67,0.67
9.71595311164856,-0.13,-0.28,-0.45,0.54
9.725775241851807,-0.71,-0.14,-0.52,0.89
9.760248184204102,-1.24,0.02,-0.41,1.3
9.760992050170898,-1.21,0.06,-0.48,1.3
9.761413097381592,-0.94,0.02,-0.73,1.19
9.765981197357178,-0.44,-0.04,-1.0,1.09
9.775631189346313,-0.23,0.07,-0.92,0.95
9.785638093948364,-0.5,0.09,-0.49,0.7
9.795689105987549,-0.72,0.05,0.25,0.76
9.805714130401611,-0.81,-0.05,0.6,1.0
9.815649032592773,-0.75,-0.06,0.42,0.86
9.825709104537964,-0.4,0.02,0.66,0.77
9.86069631576538,-0.34,-0.03,0.89,0.95
9.861317157745361,-0.61,-0.14,0.69,0.93
9.861738204956055,-1.03,-0.17,0.02,1.04
9.865540027618408,-1.11,-0.06,-0.67,1.29
9.875482082366943,-0.85,-0.18,-0.84,1.2
9.885564088821411,-0.69,-0.04,-0.67,0.96
9.8955659866333,-0.55,0.06,-0.8,0.97
9.905476093292236,-0.59,0.18,-1.03,1.2
9.916261196136475,-0.34,-0.04,-1.2,1.24
9.925580978393555,-0.1,-0.02,-1.15,1.15
9.961162090301514,0.14,0.04,-0.88,0.89
9.96159815788269,0.33,-0.05,-0.48,0.58
9.962026119232178,0.26,0.05,-0.06,0.27
9.965435981750488,0.15,-0.16,0.54,0.58
9.97542428970337,-0.03,-0.11,0.74,0.74
9.985459089279175,-0.02,-0.14,0.49,0.51
9.995442152023315,0.16,-0.08,0.29,0.34
10.005414962768555,0.22,-0.1,0.08,0.25
10.015457153320312,0.21,-0.16,-0.11,0.28
10.025358200073242,0.16,-0.01,-0.04,0.16
10.061536312103271,0.31,-0.08,0.03,0.32
10.061968088150024,0.63,-0.12,-0.01,0.64
10.062385082244873,0.89,-0.18,-0.28,0.95
10.065272092819214,0.91,-0.14,-0.3,0.96
10.075253009796143,1.04,-0.01,-0.07,1.04
10.085354089736938,1.44,0.12,0.29,1.47
10.095245122909546,1.72,0.07,0.41,1.76
10.105288982391357,1.82,-0.02,0.0,1.82
10.115256309509277,2.08,-0.11,-0.05,2.08
10.125254154205322,2.1,-0.09,0.23,2.11
10.161713123321533,1.2,-0.18,-0.09,1.21
10.162137985229492,-0.03,-0.21,-0.28,0.35
10.162559032440186,-0.62,-0.03,-0.26,0.67
10.165105104446411,-0.69,0.02,-0.39,0.79
10.175191164016724,-0.34,0.03,-0.13,0.36
10.185193061828613,0.11,0.12,0.02,0.16
10.195212125778198,0.22,0.15,-0.09,0.28
10.205228090286255,0.12,0.19,-0.02,0.22
10.215195178985596,-0.45,0.14,-0.2,0.51
10.225150108337402,-1.44,-0.05,-0.56,1.54
10.26187515258789,-2.15,-0.11,-0.76,2.28
10.26230525970459,-2.1,-0.06,-0.81,2.25
10.262730121612549,-1.47,0.06,-0.95,1.75
10.26502799987793,-0.68,-0.03,-0.77,1.02
10.275092124938965,-0.13,-0.06,-0.55,0.56
10.285017967224121,-0.01,-0.01,-0.39,0.39
10.295072078704834,-0.17,-0.15,-0.21,0.3
10.305087089538574,-0.16,-0.13,0.01,0.2
10.315021991729736,0.08,-0.02,0.07,0.1
10.324990272521973,0.16,-0.03,-0.06,0.17
10.361495971679688,0.18,0.0,-0.13,0.22
10.361926078796387,0.23,0.09,-0.14,0.28
10.362342119216919,0.49,0.1,-0.1,0.51
10.364962100982666,1.0,0.06,0.19,1.01
10.37499213218689,1.51,0.06,0.69,1.66
10.38500714302063,1.62,0.01,0.97,1.88
10.394993305206299,1.02,0.05,0.93,1.38
10.404949188232422,0.53,0.08,1.06,1.18
10.41492223739624,0.83,0.09,1.02,1.31
10.42490530014038,1.18,0.16,0.53,1.3
10.461696147918701,1.67,0.15,0.14,1.68
10.462121963500977,2.47,0.16,0.24,2.48
10.462537288665771,3.13,0.22,0.23,3.14
10.464871168136597,3.47,0.37,0.04,3.48
10.474867105484009,3.44,0.69,0.23,3.51
10.484812259674072,3.04,1.01,0.59,3.25
10.494675159454346,2.57,1.05,0.78,2.88
10.504849195480347,1.92,1.15,1.17,2.52
10.514731168746948,1.73,1.31,1.46,2.61
10.524840116500854,2.22,1.73,1.69,3.28
10.562031269073486,1.96,3.12,0.56,3.72
10.56245231628418,1.37,5.48,-1.9,5.95
10.56287431716919,2.9,7.66,-1.27,8.28
10.564783096313477,3.7,7.57,0.61,8.44
10.574710130691528,4.72,7.78,-1.13,9.16
10.584726095199585,5.78,7.73,-1.53,9.77
10.59471607208252,5.89,6.88,-0.76,9.08
10.604700088500977,5.17,5.96,-1.39,8.01
10.614681243896484,4.95,6.01,-2.11,8.06
10.624691009521484,4.12,4.74,-1.69,6.5
10.66238021850586,2.73,3.03,-1.21,4.25
10.66282320022583,0.69,1.73,-0.81,2.03
10.663257122039795,-1.86,0.49,-0.02,1.92
10.664595127105713,-2.83,-0.94,-0.5,3.02
10.674580097198486,-0.11,-1.25,-1.49,1.94
10.684651136398315,2.74,-2.17,-0.45,3.52
10.694639205932617,2.24,-2.9,0.6,3.71
10.704519271850586,2.23,-3.02,-1.51,4.04
10.714339256286621,5.15,-2.7,-2.15,6.19
10.72451400756836,7.75,-2.07,0.32,8.02
10.762712001800537,8.65,-2.76,2.03,9.3
10.763142108917236,7.98,-3.61,2.57,9.12
10.763565063476562,7.4,-4.0,2.38,8.74
10.764425277709961,7.16,-4.1,2.13,8.52
10.774497032165527,6.78,-3.65,2.07,7.97
10.784339189529419,6.08,-3.08,2.1,7.13
10.794576168060303,5.21,-2.78,2.02,6.24
10.804478168487549,4.48,-2.4,1.74,5.37
10.814395189285278,4.04,-1.77,1.39,4.62
10.82430124282837,3.59,-0.86,1.33,3.92
10.862696170806885,2.93,0.2,1.4,3.25
10.863121032714844,2.06,1.36,1.02,2.67
10.863540172576904,1.31,2.5,-0.1,2.82
10.864299297332764,0.64,3.35,-1.52,3.73
10.874337196350098,0.21,4.03,-2.21,4.6
10.884165287017822,-3.11,4.71,-1.23,5.77
10.894305229187012,-5.89,4.26,-1.19,7.36
10.904402256011963,-7.14,4.33,-1.43,8.47
10.914324283599854,-6.98,4.66,-1.54,8.53
10.924317121505737,-5.86,4.51,-1.56,7.55
10.963317155838013,-4.36,3.8,-1.57,5.99
10.963746070861816,-3.48,2.94,-1.66,4.84
10.964173316955566,-3.41,2.04,-1.51,4.25
10.964596271514893,-3.78,1.27,-1.11,4.13
10.974287986755371,-4.49,0.61,-0.88,4.61
10.984292030334473,-4.92,0.08,-0.88,4.99
10.994170188903809,-4.98,-0.27,-0.98,5.08
11.004261016845703,-4.74,-0.37,-1.03,4.86
11.01418924331665,-4.4,-0.2,-1.14,4.54
11.024188041687012,-3.7,-0.56,-1.25,3.94
11.063651084899902,-3.1,-0.93,-1.04,3.39
11.064101219177246,-3.0,-1.08,-0.85,3.29
11.064521312713623,-3.41,-1.13,-0.86,3.69
11.06493616104126,-3.9,-1.24,-1.09,4.23
11.074096202850342,-4.44,-1.27,-1.59,4.88
11.084372997283936,-4.63,-1.19,-1.83,5.11
11.093932151794434,-4.44,-1.07,-1.55,4.82
11.104101181030273,-4.3,1.31,-1.05,4.61
11.114066123962402,-1.81,8.05,-1.76,8.43
11.124041080474854,0.02,1.94,-2.46,3.13
11.134016990661621,6.28,-4.19,0.66,7.57
11.16422414779663,9.22,-3.36,6.57,11.8
11.164643287658691,3.36,0.1,3.23,4.66
11.165058135986328,-4.3,2.3,-2.45,5.45
11.173968315124512,-7.08,2.44,-3.8,8.39
11.183881282806396,-2.75,2.56,-1.66,4.1
11.193907260894775,0.88,2.94,-0.76,3.16
11.20390009880066,2.07,3.62,-0.39,4.18
11.2139310836792,1.02,3.44,0.12,3.59
11.223981142044067,-1.7,2.04,-0.2,2.66
11.23389196395874,-3.84,1.46,-0.79,4.18
11.264344215393066,-4.17,1.28,-0.48,4.38
11.264776229858398,-3.74,0.41,0.11,3.76
11.265196084976196,-3.07,0.14,-0.13,3.07
11.27384328842163,-2.63,-0.07,-2.07,3.34
11.28385305404663,-2.58,-0.76,-3.12,4.11
11.29379916191101,-0.99,0.22,-2.44,2.64
11.303795099258423,0.11,-0.83,-1.19,1.45
11.313784122467041,0.22,-2.6,0.17,2.61
11.323826313018799,-0.79,-2.15,0.13,2.29
11.333812236785889,-1.89,-0.23,-0.68,2.02
11.364459037780762,-2.63,0.89,-0.8,2.88
11.364881992340088,-3.05,1.45,-0.14,3.38
11.365308284759521,-2.37,1.2,-0.89,2.8
11.37379503250122,-1.76,0.37,-0.95,2.03
11.383666038513184,-1.53,-0.27,-0.24,1.57
11.393678188323975,-1.24,-0.56,0.07,1.36
11.403704166412354,-0.8,-0.32,-0.21,0.88
11.413698196411133,-0.51,-0.1,-0.58,0.77
11.423750162124634,-0.45,-0.17,-0.48,0.67
11.433670043945312,-0.33,-0.24,-0.01,0.4
11.46484112739563,-0.86,-0.33,-0.06,0.92
11.465265274047852,-1.45,-0.14,-0.48,1.53
11.465682983398438,-1.55,-0.08,-0.4,1.6
11.47362208366394,-1.22,-0.08,-0.64,1.38
11.483572959899902,-0.69,-0.12,-0.96,1.18
11.493618965148926,-0.49,-0.34,-0.34,0.68
11.503587245941162,-0.7,-0.28,0.09,0.75
11.51356816291809,-1.08,-0.15,0.17,1.1
11.523571014404297,-1.33,0.0,0.38,1.38
11.533569097518921,-1.34,0.0,0.31,1.37
11.56527328491211,-0.74,-0.08,0.34,0.81
11.565701007843018,-0.01,-0.1,0.32,0.33
11.566121101379395,-0.36,-0.18,0.03,0.4
11.573544979095459,-1.14,-0.07,-0.25,1.16
11.5834801197052,-1.1,-0.03,-0.73,1.32
11.59347915649414,-0.9,-0.26,-1.1,1.44
11.603456974029541,-0.69,-0.31,-0.67,1.01
11.613479137420654,-0.49,-0.16,0.1,0.52
11.623489141464233,-0.26,-0.21,0.4,0.52
11.633448123931885,0.13,-0.05,-0.2,0.24
11.665029048919678,0.73,0.02,-1.05,1.27
11.66546106338501,1.02,-0.19,-1.28,1.64
11.665884017944336,1.16,0.08,-1.11,1.6
11.673453092575073,1.17,0.28,-0.67,1.37
11.68337106704712,0.66,0.24,-0.57,0.9
11.693426132202148,-0.01,0.34,-0.38,0.51
11.703464031219482,-0.5,0.02,0.27,0.56
11.713438987731934,-0.8,-0.27,0.44,0.95
11.747601985931396,-0.6,-0.07,0.89,1.07
11.748363018035889,-0.25,0.21,1.61,1.64
11.74879503250122,-0.22,0.34,1.14,1.2
11.75333023071289,-0.32,0.27,0.69,0.8
11.763174057006836,-0.3,-0.11,0.21,0.38
11.773210048675537,-0.36,-0.27,-0.51,0.68
11.783290147781372,-0.42,-0.19,-0.35,0.57
11.793267250061035,-0.44,0.08,-0.13,0.46
11.803268194198608,-0.2,0.05,0.11,0.23
11.813244104385376,-0.03,0.09,0.19,0.21
11.849594116210938,0.26,-0.01,-0.17,0.31
11.85003113746643,0.26,-0.04,-0.31,0.4
11.85043716430664,0.23,-0.19,-0.3,0.42
11.853032112121582,0.04,-0.04,-0.07,0.09
11.863104104995728,0.05,0.16,0.17,0.23
11.873139142990112,0.42,0.11,0.36,0.56
11.883114099502563,0.71,0.01,0.56,0.9
11.892977237701416,0.81,0.05,0.36,0.88
11.902976036071777,0.8,-0.01,0.22,0.82
11.913112163543701,0.52,-0.19,0.06,0.55
11.94901704788208,0.46,-0.15,-0.15,0.5
11.949432134628296,0.95,0.04,-0.15,0.96
11.94983196258545,1.04,-0.13,-0.42,1.12
11.95291519165039,0.21,-0.56,-0.84,1.03
11.962990283966064,-0.55,-0.45,-0.56,0.9
11.972980976104736,-0.56,-0.15,-0.54,0.79
11.982931137084961,-0.4,-0.14,-0.57,0.71
11.992937088012695,-0.4,-0.17,-0.38,0.57
12.002778053283691,-0.58,-0.13,-0.62,0.85
12.012835025787354,-0.89,-0.29,-0.93,1.31
12.049255132675171,-0.98,-0.32,-1.06,1.47
12.049687147140503,-0.85,0.07,-0.83,1.19
12.050122261047363,-0.28,0.36,-0.15,0.48
12.052751064300537,0.48,0.58,-0.03,0.75
12.062926292419434,0.45,0.59,-0.27,0.78
12.072955131530762,0.23,0.19,-0.29,0.41
12.08288311958313,0.2,0.07,-0.66,0.69
12.092825174331665,0.54,0.05,-0.91,1.05
12.102686166763306,1.01,0.01,-0.79,1.28
12.112805128097534,0.88,0.03,-0.3,0.93
12.149346113204956,0.6,0.11,-0.11,0.61
12.14977502822876,0.79,0.15,0.01,0.8
12.15019416809082,1.31,0.05,0.64,1.45
12.152626991271973,1.83,0.07,1.09,2.13
12.162760257720947,2.2,0.37,0.99,2.44
12.172782182693481,2.24,0.41,0.82,2.42
12.182723999023438,2.23,0.3,0.54,2.31
12.192737102508545,2.27,0.28,0.46,2.33
12.202864170074463,2.07,0.48,0.21,2.13
12.212687015533447,1.81,0.75,-0.35,1.99
12.25039005279541,1.8,0.79,-0.41,2.0
12.250822067260742,1.44,0.89,-0.64,1.8
12.251244068145752,0.9,1.02,-0.73,1.54
12.252772092819214,0.63,0.96,-0.46,1.23
12.262570142745972,0.62,1.42,-0.28,1.57
12.272631168365479,0.78,2.48,-0.52,2.65
12.28255009651184,1.92,3.99,-0.69,4.48
12.292545080184937,3.35,4.91,0.27,5.95
12.30289912223816,4.4,5.62,-0.55,7.15
12.312470197677612,5.09,6.38,-0.83,8.2
12.350590229034424,5.66,6.75,-0.57,8.82
12.351020097732544,6.47,6.96,-0.66,9.52
12.351441144943237,6.32,6.59,-0.82,9.16
12.352405071258545,4.68,6.07,-0.78,7.7
12.362375259399414,3.35,5.87,-1.02,6.83
12.372599124908447,2.99,5.49,-1.07,6.34
12.382459163665771,2.23,3.46,-0.81,4.19
12.392495155334473,0.65,0.8,-0.9,1.36
12.402462005615234,-2.12,-0.42,0.66,2.25
12.412353992462158,-4.21,-1.58,-0.11,4.49
12.45120620727539,-0.62,-2.43,-1.87,3.12
12.45163631439209,6.33,-3.19,-0.42,7.1
12.452078104019165,6.03,-2.44,2.66,7.02
12.452503204345703,1.93,-2.84,1.34,3.68
12.462433099746704,5.07,-2.82,-0.57,5.82
12.472480297088623,8.3,-1.81,1.26,8.58
12.482314109802246,8.97,-1.9,3.17,9.7
12.49234414100647,7.51,-3.02,3.74,8.91
12.502377033233643,6.3,-3.81,3.18,8.01
12.512269973754883,5.92,-3.51,2.41,7.29
12.551124095916748,5.65,-3.04,1.91,6.69
12.551558017730713,5.0,-2.78,1.63,5.94
12.552003145217896,3.99,-2.76,1.48,5.07
12.552433013916016,3.22,-2.54,1.41,4.33
12.56233811378479,2.82,-1.91,1.43,3.69
12.572295188903809,2.5,-1.24,1.44,3.14
12.582240104675293,2.29,-0.3,1.12,2.56
12.592228174209595,1.22,0.57,0.53,1.44
12.602089166641235,-0.18,1.15,-0.29,1.19
12.612314224243164,-1.32,1.79,-0.92,2.4
12.652218103408813,-1.85,2.51,-1.15,3.32
12.652656078338623,-1.84,3.4,-1.1,4.01
12.65339708328247,-2.22,4.2,-0.97,4.84
12.653825283050537,-2.69,4.66,-1.29,5.53
12.662156105041504,-3.33,4.64,-1.96,6.03
12.672197103500366,-3.48,4.0,-2.57,5.89
12.682100296020508,-3.47,3.12,-2.96,5.52
12.692126274108887,-3.46,2.44,-3.02,5.2
12.702104091644287,-3.86,2.08,-2.88,5.24
12.712100982666016,-4.51,2.02,-3.14,5.85
12.752379179000854,-5.06,1.79,-3.55,6.43
12.752809047698975,-5.3,1.0,-3.16,6.25
12.753561973571777,-5.18,-0.48,-2.18,5.64
12.753985166549683,-5.36,-1.8,-1.7,5.9
12.762004137039185,-6.1,-2.34,-2.08,6.85
12.772024154663086,-6.37,-2.63,-2.47,7.32
12.781980991363525,-5.66,-2.13,-2.71,6.62
12.792070150375366,-4.66,-0.93,-3.04,5.64
12.801985263824463,-3.83,-0.71,-2.92,4.86
12.81207799911499,-3.76,0.85,-2.2,4.43
12.853971004486084,-1.24,6.26,-1.84,6.64
12.854409217834473,-0.19,2.85,-0.57,2.91
12.85483717918396,0.18,-0.88,0.32,0.95
12.855253219604492,6.84,-1.16,5.07,8.59
12.861871242523193,10.84,-1.69,9.98,14.83
12.872053146362305,7.07,-1.48,5.24,8.92
12.88191819190979,-1.16,-0.86,-1.18,1.86
12.891944169998169,-6.9,-0.7,-2.98,7.54
12.901870250701904,-7.92,0.28,-3.1,8.5
12.911806106567383,-5.5,3.37,-2.61,6.95
12.952434062957764,-2.91,6.86,-0.71,7.48
12.952859163284302,-1.41,6.26,-0.7,6.45
12.953277111053467,-1.2,1.68,-1.85,2.77
12.95404314994812,-1.29,-0.8,-0.9,1.76
12.961798191070557,-1.77,-0.65,-0.51,1.95
12.971854209899902,-3.11,-1.33,-2.9,4.45
12.981664180755615,-3.11,-1.65,-4.81,5.96
12.991726160049438,-0.37,0.29,-1.44,1.51
13.001757144927979,0.01,-1.41,1.82,2.3
13.011705160140991,-1.57,-1.91,0.72,2.57
13.053231239318848,-2.55,0.05,-0.83,2.68
13.054020166397095,-2.31,2.21,-0.8,3.29
13.054443120956421,0.18,1.5,-1.36,2.03
13.054870128631592,0.54,-0.13,-0.62,0.83
13.061623096466064,-0.04,-0.92,-0.5,1.04
13.07168197631836,-1.19,-0.79,-0.24,1.44
13.081695079803467,-0.84,-0.17,-0.35,0.92
13.091660022735596,-0.59,0.04,0.29,0.65
13.101593971252441,-1.24,-0.57,0.4,1.42
13.111461162567139,-2.24,-0.68,0.21,2.35
13.152879238128662,-3.25,-1.05,0.24,3.42
13.153309106826782,-3.82,-1.07,0.58,4.0
13.154052257537842,-3.43,-0.53,0.7,3.54
13.154469966888428,-2.62,-0.21,0.51,2.67
13.161596298217773,-1.93,-0.12,0.1,1.93
13.171521186828613,-0.77,-0.38,-0.31,0.91
13.181462287902832,-0.33,-0.01,-0.29,0.43
13.19149923324585,-0.44,0.05,-0.5,0.66
13.201498031616211,-0.65,-0.35,-0.42,0.84
13.211421966552734,-1.5,-0.14,-0.73,1.67
13.253935098648071,-1.93,-0.11,-0.58,2.01
13.254345178604126,-1.64,-0.11,-0.35,1.68
13.25477409362793,-1.29,0.09,-0.4,1.35
13.255191087722778,-1.0,0.07,-0.3,1.04
13.261449098587036,-0.77,-0.06,-0.15,0.78
13.271286964416504,-0.89,0.16,-0.34,0.96
13.281224250793457,-0.75,0.24,-0.59,0.98
13.291405200958252,0.0,-0.26,-0.26,0.36
13.301367282867432,-0.12,-0.08,-0.23,0.27
13.311353206634521,-0.54,0.02,-0.07,0.54
13.353971004486084,-0.48,0.01,-0.16,0.5
13.354406118392944,-0.39,-0.08,-0.48,0.62
13.35482406616211,-0.36,-0.06,-0.73,0.81
13.355263233184814,-0.25,-0.07,-0.81,0.85
13.361279010772705,-0.14,-0.11,-0.82,0.83
13.371121168136597,0.0,-0.01,-0.71,0.71
13.381325244903564,0.07,-0.03,-0.52,0.52
13.391354084014893,0.14,-0.01,-0.49,0.5
13.401244163513184,0.52,-0.03,-0.38,0.64
13.411257266998291,0.79,0.01,-0.08,0.79
13.453409194946289,0.45,0.09,0.16,0.48
13.453834056854248,-0.12,0.1,0.1,0.18
13.454609155654907,-0.38,0.01,-0.05,0.38
13.455031156539917,-0.57,-0.18,-0.16,0.61
13.461118221282959,-0.81,-0.11,-0.1,0.82
13.471088171005249,-0.66,0.01,0.32,0.73
13.481151103973389,-0.55,0.05,0.39,0.67
13.491109132766724,-0.54,-0.02,-0.23,0.58
13.501099109649658,-0.12,-0.2,-0.58,0.62
13.511157035827637,0.1,-0.47,-0.42,0.63
13.553430080413818,-0.06,0.0,0.13,0.14
13.55386209487915,-0.14,0.16,0.51,0.55
13.55462908744812,-0.26,0.13,-0.33,0.43
13.55505108833313,0.14,-0.1,-1.37,1.38
13.561000108718872,0.63,-0.14,-1.4,1.54
13.571155071258545,0.63,0.05,-1.11,1.27
13.581035137176514,0.76,-0.07,-0.68,1.02
13.591016292572021,0.75,-0.09,-0.28,0.8
13.601046085357666,0.27,-0.1,-0.24,0.37
13.610979080200195,0.2,-0.12,0.12,0.26
13.653619289398193,0.47,-0.12,0.49,0.68
13.654030084609985,0.75,-0.11,0.44,0.87
13.654806137084961,0.93,-0.08,0.45,1.03
13.655225276947021,0.66,0.0,0.36,0.75
13.66092300415039,0.11,0.04,0.26,0.28
13.671240091323853,-0.03,0.04,0.17,0.17
13.680883169174194,0.46,0.05,0.09,0.47
13.690927028656006,1.2,-0.01,0.09,1.2
13.700759172439575,1.32,-0.07,0.18,1.33
13.710843086242676,0.6,-0.09,0.17,0.63
13.720806121826172,-0.31,-0.08,0.11,0.33
13.753468990325928,-0.74,0.06,0.07,0.74
13.753894090652466,-0.59,0.09,0.11,0.6
13.754682064056396,-0.31,0.05,0.07,0.32
13.760801315307617,-0.07,0.06,-0.06,0.11
13.770658016204834,0.36,0.06,-0.07,0.37
13.780678272247314,0.56,-0.08,0.3,0.64
13.790825128555298,0.08,-0.13,0.27,0.31
13.800800085067749,-0.71,-0.09,-0.08,0.72
13.810780048370361,-1.16,0.06,-0.2,1.17
13.820728302001953,-1.03,0.2,-0.14,1.05
13.853338241577148,-0.54,0.05,0.01,0.54
13.853768110275269,-0.11,0.03,-0.09,0.14
13.854185104370117,0.21,0.05,-0.33,0.39
13.860596179962158,0.58,0.03,-0.42,0.71
13.870599269866943,1.08,0.03,-0.4,1.15
13.880584239959717,1.93,0.11,-0.13,1.93
13.890614986419678,2.69,0.13,0.14,2.69
13.90061616897583,2.45,0.16,0.11,2.45
13.910627126693726,1.77,0.18,0.44,1.83
13.920579195022583,1.82,0.16,0.78,1.98
13.953498125076294,2.32,0.03,0.76,2.44
13.95392107963562,2.45,0.07,0.54,2.5
13.954334259033203,2.27,0.18,0.52,2.33
13.960568189620972,2.24,0.27,0.63,2.34
13.970518112182617,2.2,0.41,0.24,2.25
13.98045825958252,2.26,0.59,0.25,2.34
13.990547180175781,2.36,0.77,-0.2,2.49
14.00048828125,1.65,1.1,-0.83,2.14
14.010472297668457,0.7,1.51,-0.74,1.82
14.02047610282898,0.34,1.73,0.03,1.76
14.05368709564209,0.15,2.46,0.58,2.53
14.05411410331726,2.14,5.23,-0.54,5.67
14.054548263549805,5.39,6.87,0.4,8.74
14.060404300689697,5.3,6.77,1.05,8.66
14.070353984832764,5.96,7.02,-0.61,9.22
14.080212116241455,5.43,6.76,-0.61,8.69
14.090435028076172,4.3,6.31,-0.77,7.67
14.10033917427063,3.62,6.44,-1.28,7.49
14.110355138778687,3.68,6.34,-1.68,7.52
14.120350122451782,3.4,5.49,-1.7,6.67
14.153334140777588,1.97,3.59,-1.01,4.21
14.15376901626587,-0.17,1.17,-0.83,1.44
14.154191970825195,-1.79,-0.82,-0.52,2.03
14.160276174545288,-3.57,-1.37,0.45,3.85
14.170260190963745,-2.58,-2.44,-1.31,3.78
14.180325984954834,2.2,-3.04,-1.08,3.9
14.190262079238892,7.75,-3.8,0.59,8.65
14.200228214263916,6.21,-3.46,2.55,7.55
14.2102689743042,3.38,-4.05,1.09,5.38
14.22018814086914,6.0,-3.41,0.2,6.9
14.25370717048645,8.99,-2.05,1.61,9.36
14.25414514541626,10.5,-2.19,3.21,11.19
14.254595279693604,9.6,-3.04,4.04,10.85
14.260181188583374,7.99,-3.4,3.84,9.49
14.26997709274292,6.82,-2.94,3.1,8.04
14.280115127563477,6.19,-2.27,2.36,7.0
14.290130138397217,5.62,-1.74,1.91,6.18
14.300110101699829,4.82,-1.21,1.77,5.27
14.310173034667969,3.84,-0.27,1.78,4.24
14.320041179656982,2.77,0.98,1.56,3.32
14.353678226470947,2.14,2.13,0.95,3.16
14.354113101959229,2.05,3.14,0.46,3.77
14.354552268981934,1.28,3.49,-0.03,3.71
14.359897136688232,0.28,3.71,-0.79,3.8
14.36990213394165,-0.82,3.66,-1.23,3.94
14.379979133605957,-2.41,3.65,-0.78,4.44
14.390034198760986,-3.48,3.41,-0.66,4.91
14.39999008178711,-4.48,3.36,-1.07,5.7
14.409968137741089,-5.19,3.27,-1.89,6.41
14.419978141784668,-5.47,2.97,-2.67,6.77
14.454660177230835,-5.47,2.46,-3.23,6.81
14.455334186553955,-5.31,1.79,-3.4,6.55
14.45609426498413,-5.5,1.16,-3.29,6.51
14.459956169128418,-6.08,0.58,-3.3,6.94
14.46987009048462,-6.49,0.05,-3.32,7.29
14.479851245880127,-6.61,-0.5,-2.76,7.18
14.489786148071289,-6.12,-1.17,-1.92,6.51
14.499845027923584,-5.37,-1.95,-1.49,5.9
14.509952068328857,-4.93,-2.56,-1.48,5.74
14.519906044006348,-4.78,-2.41,-1.61,5.59
14.554501056671143,-4.25,0.89,-1.94,4.75
14.55525016784668,-1.56,4.98,-2.4,5.74
14.556012153625488,-2.0,0.51,-1.12,2.34
14.559717178344727,-4.65,-1.61,-0.96,5.01
14.56964111328125,-1.22,-1.53,-2.04,2.82
14.579734086990356,4.72,-0.24,0.49,4.75
14.589570999145508,6.83,0.43,3.29,7.59
14.599637031555176,3.88,0.73,0.65,4.0
14.609721183776855,-0.81,1.48,-2.23,2.79
14.619717121124268,-3.43,1.81,-1.88,4.3
14.655070304870605,-2.84,2.97,-0.92,4.21
14.655501127243042,-1.94,4.29,-0.8,4.77
14.656252145767212,-1.68,3.98,-0.52,4.35
14.659562110900879,-2.03,1.49,-0.29,2.53
14.669697284698486,-4.19,3.53,-2.1,5.86
14.679601192474365,-7.05,0.08,-6.6,9.65
14.689391136169434,-6.79,0.46,-4.49,8.15
14.69956922531128,-4.3,0.7,0.61,4.39
14.709606170654297,-2.36,-2.05,2.45,3.97
14.719950199127197,-1.64,-1.93,1.18,2.79
14.755759239196777,-1.58,-1.63,-1.22,2.57
14.756184101104736,-1.66,-1.83,-1.27,2.77
14.756601095199585,-2.38,-0.81,-0.52,2.56
14.759551048278809,-2.79,0.98,-0.25,2.96
14.769542217254639,-1.4,2.1,-0.55,2.58
14.779473304748535,0.19,0.93,-0.46,1.05
14.789537191390991,0.38,-0.07,0.0,0.38
14.799519062042236,0.09,-0.49,-0.67,0.83
14.809508085250854,-0.85,-0.42,-1.16,1.49
14.81935715675354,-1.32,-0.25,-0.92,1.62
14.855846166610718,-1.73,-0.42,-0.38,1.82
14.856276035308838,-1.87,-0.5,-0.26,1.95
14.856698036193848,-1.99,-0.47,-0.31,2.06
14.859345197677612,-1.97,-0.27,-0.22,2.0
14.869381189346313,-1.6,-0.03,0.12,1.6
14.879307270050049,-1.09,-0.09,0.48,1.19
14.889679193496704,-0.87,-0.26,0.69,1.14
14.899347305297852,-0.92,-0.05,0.98,1.34
14.909440040588379,-0.92,-0.13,1.09,1.43
14.919361114501953,-1.24,-0.14,1.31,1.8
14.955610275268555,-1.49,-0.11,1.3,1.98
14.956384181976318,-1.4,-0.02,1.34,1.93
14.9568190574646,-0.91,-0.07,1.66,1.89
14.959246158599854,-0.75,-0.03,1.23,1.44
14.969151020050049,-0.38,-0.21,0.48,0.64
14.979215145111084,0.25,-0.05,-0.58,0.63
14.989205121994019,-0.02,0.13,-1.38,1.38
14.999251127243042,-0.68,0.12,-1.11,1.3
15.009291172027588,-1.07,0.51,-1.03,1.57
15.019221305847168,-0.88,0.33,-0.88,1.28
15.056203126907349,-0.67,0.02,-1.03,1.22
15.056632995605469,-0.37,0.07,-1.18,1.23
15.057053089141846,0.22,0.04,-0.95,0.97
15.059092998504639,0.2,-0.2,-0.86,0.9
15.069117069244385,-0.07,-0.14,-0.82,0.83
15.07908821105957,0.06,-0.12,-0.52,0.53
15.08911418914795,0.34,-0.3,-0.71,0.84
15.099095106124878,0.26,-0.24,-1.11,1.16
15.109084129333496,0.27,-0.05,-1.12,1.15
15.119001150131226,0.35,-0.06,-1.0,1.06
15.156564235687256,0.23,0.04,-0.82,0.85
15.156994104385376,0.24,0.02,-0.4,0.46
15.157426118850708,0.36,-0.18,-0.44,0.59
15.158952236175537,0.3,-0.25,-0.52,0.65
15.169023990631104,0.22,-0.32,-0.46,0.6
15.178977966308594,0.31,-0.27,-0.39,0.56
15.18894100189209,0.42,-0.18,-0.06,0.46
15.198938131332397,0.3,0.0,0.34,0.45
15.208970069885254,0.27,0.14,0.5,0.58
15.218924045562744,0.34,-0.07,0.26,0.43
15.256311178207397,0.27,-0.31,0.03,0.41
15.257068157196045,0.18,-0.25,0.03,0.3
15.257474184036255,0.28,0.12,-0.07,0.31
15.258785247802734,0.34,0.19,-0.4,0.55
15.268768310546875,0.4,0.17,-0.45,0.62
15.278860092163086,0.61,0.0,-0.75,0.96
15.288811206817627,0.39,-0.04,-0.96,1.03
15.298843145370483,-0.04,-0.15,-0.51,0.53
15.308856010437012,-0.05,-0.04,-0.38,0.38
15.318849086761475,0.09,0.13,-1.13,1.14
15.356088161468506,0.54,-0.18,-1.1,1.23
15.356848239898682,0.81,-0.33,-0.85,1.21
15.357275009155273,0.73,-0.19,-1.05,1.29
15.358673095703125,0.29,-0.11,-0.77,0.83
15.36872410774231,-0.52,0.22,-0.2,0.59
15.378668308258057,-0.79,0.22,1.01,1.3
15.388705253601074,-0.71,-0.06,1.2,1.39
15.398696184158325,-0.31,0.04,0.87,0.92
15.40868616104126,0.24,0.04,0.66,0.7
15.418719291687012,0.79,0.07,0.41,0.89
15.455924987792969,1.01,0.03,0.1,1.01
15.456358194351196,0.83,-0.05,-0.4,0.92
15.457128047943115,0.46,-0.15,-0.56,0.74
15.458645105361938,0.26,-0.18,-0.38,0.49
15.468562126159668,0.26,-0.06,-0.33,0.42
15.478552103042603,0.26,0.05,-0.2,0.33
15.488526105880737,0.19,0.0,0.03,0.19
15.498584270477295,0.04,-0.1,-0.04,0.11
15.50858211517334,-0.26,-0.05,-0.25,0.36
15.518563270568848,-0.62,-0.02,-0.44,0.76
15.556021213531494,-0.86,-0.03,-0.68,1.09
15.556455135345459,-1.0,0.02,-0.82,1.29
15.55688214302063,-0.86,0.05,-0.63,1.06
15.558418273925781,-0.54,0.0,-0.4,0.67
15.568461179733276,-0.14,-0.01,-0.47,0.49
15.57846713066101,0.21,0.04,-0.41,0.46
15.588407039642334,0.38,0.05,-0.18,0.42
15.598430156707764,0.44,0.16,0.1,0.47
15.608487129211426,0.51,0.19,0.45,0.7
15.61839509010315,0.51,0.17,0.53,0.75
15.655908107757568,0.55,0.21,0.35,0.68
15.656332969665527,0.9,0.23,0.18,0.94
15.656750202178955,1.46,0.15,0.43,1.52
15.658298969268799,2.1,0.12,0.71,2.22
15.668339252471924,2.74,0.14,0.79,2.85
15.67830228805542,3.39,0.14,0.83,3.49
15.688323020935059,3.77,0.29,0.43,3.8
15.698296070098877,3.88,0.47,0.2,3.91
15.708351135253906,3.87,0.65,0.37,3.94
15.718269109725952,4.08,0.96,0.27,4.2
15.756482124328613,3.91,1.32,0.35,4.14
15.756911277770996,3.5,1.74,0.5,3.94
15.757667064666748,3.07,2.18,0.51,3.79
15.758090019226074,2.12,2.54,0.1,3.3
15.768167972564697,1.09,4.62,-0.48,4.77
15.778228282928467,3.34,7.14,-2.02,8.13
15.788227081298828,3.05,6.31,0.35,7.01
15.798389196395874,1.88,5.81,-0.75,6.15
15.80803918838501,3.26,6.88,-2.67,8.06
15.818193197250366,5.82,7.6,-2.39,9.86
15.856525182723999,7.69,6.99,-2.41,10.66
15.856954097747803,6.87,6.26,-2.63,9.65
15.85773229598999,4.54,5.68,-2.58,7.71
15.858156204223633,2.18,4.62,-2.28,5.59
15.868112087249756,0.28,2.44,-2.04,3.19
15.87815523147583,-1.34,0.46,-0.79,1.62
15.888069152832031,-4.37,-0.39,-0.45,4.41
15.898117065429688,-1.78,-0.85,-3.05,3.63
15.907976150512695,3.98,-2.19,-2.31,5.09
15.918042182922363,10.25,-4.02,0.08,11.01
15.956854104995728,6.99,-4.23,2.68,8.59
15.957283020019531,3.69,-4.65,1.42,6.1
15.958083152770996,6.58,-3.92,1.5,7.8
15.95850419998169,9.57,-2.59,3.11,10.39
15.967932224273682,10.91,-2.92,4.14,12.02
15.977900981903076,9.76,-3.68,4.44,11.33
15.987876176834106,8.27,-3.48,3.91,9.78
15.99789810180664,7.29,-2.98,3.2,8.5
16.007863998413086,6.26,-2.73,2.71,7.34
16.017832279205322,5.08,-2.5,2.36,6.13
16.057316303253174,3.96,-1.82,2.25,4.9
16.058191299438477,2.89,-0.86,2.11,3.68
16.058617115020752,1.96,0.16,1.8,2.66
16.05905318260193,1.42,1.5,1.2,2.38
16.06784415245056,0.33,2.74,0.27,2.77
16.07788896560669,-0.75,3.29,-0.85,3.47
16.08773899078369,-1.7,3.58,-1.25,4.15
16.09780716896057,-2.31,4.02,-0.72,4.69
16.108001232147217,-3.36,4.44,-0.07,5.56
16.117772102355957,-4.88,4.62,-0.54,6.74
16.156826972961426,-6.1,5.23,-1.7,8.21
16.157279014587402,-6.46,5.79,-2.86,9.13
16.158032178878784,-6.35,5.73,-4.28,9.56
16.15846014022827,-6.48,4.57,-5.31,9.54
16.167634963989258,-7.1,2.93,-5.39,9.38
16.177680015563965,-8.25,0.75,-4.8,9.57
16.187647104263306,-9.74,-1.53,-3.94,10.61
16.197652101516724,-10.81,-3.52,-3.27,11.82
16.20750117301941,-10.95,-4.72,-2.99,12.29
16.217549085617065,-10.1,-4.59,-2.94,11.47
16.25473928451538,-7.64,1.7,-3.28,8.48
16.255173206329346,-3.4,2.91,-2.97,5.37
16.255595207214355,-2.89,0.58,-1.49,3.3
16.25754714012146,1.29,2.29,-0.59,2.69
16.26757001876831,8.68,1.2,5.73,10.46
16.27756929397583,9.67,-1.32,8.34,12.83
16.28735613822937,3.88,-1.05,0.01,4.01
16.29745101928711,-2.61,0.67,-3.21,4.19
16.307451248168945,-4.92,1.03,-2.39,5.56
16.31749200820923,-2.37,2.62,-1.4,3.8
16.355134963989258,-0.26,5.0,-0.26,5.01
16.355568170547485,-1.01,5.69,-0.04,5.77
16.355995178222656,-3.65,3.92,-0.53,5.38
16.35732126235962,-4.6,0.94,-0.12,4.69
16.367408275604248,-4.44,-0.11,-0.24,4.44
16.37737011909485,-3.27,-0.01,-3.33,4.66
16.387315273284912,-2.85,-1.19,-4.76,5.67
16.3973171710968,-1.04,0.41,-3.61,3.77
16.40731716156006,0.32,-0.01,-1.65,1.68
16.417346000671387,0.05,-1.83,-0.57,1.91
16.45576000213623,-0.18,-2.18,-0.9,2.36
16.45619511604309,-0.44,-1.21,-1.39,1.89
16.45662021636963,-1.0,-0.21,-1.27,1.63
16.457237243652344,-2.08,0.67,-0.58,2.26
16.46730899810791,-2.28,1.87,-0.91,3.08
16.47730302810669,-1.09,0.88,-0.75,1.58
16.487152099609375,-0.32,-0.48,-0.01,0.57
16.49724531173706,-0.84,-0.74,-0.53,1.23
16.507328033447266,-2.38,-0.62,-0.39,2.49
16.517271041870117,-3.01,-0.16,0.31,3.03
16.556334972381592,-2.66,-0.03,0.25,2.67
16.556783199310303,-1.73,-0.34,-0.03,1.76
16.557207107543945,-0.67,-0.72,-0.12,0.99
16.557623147964478,-0.76,-0.61,-0.14,0.98
16.56708312034607,-1.12,-0.38,0.34,1.23
16.577113151550293,-1.25,-0.4,1.05,1.68
16.587077140808105,-1.1,-0.29,1.23,1.67
16.597122192382812,-0.77,-0.08,1.13,1.36
16.60701322555542,-0.48,0.0,0.69,0.84
16.617048263549805,-0.57,-0.32,0.33,0.73
16.656665086746216,-1.22,-0.42,0.1,1.29
16.657082080841064,-1.77,-0.23,0.1,1.78
16.657485008239746,-1.64,-0.14,0.11,1.64
16.657910108566284,-1.16,-0.11,0.0,1.16
16.667006969451904,-0.92,-0.16,-0.18,0.95
16.677075147628784,-0.83,-0.12,-0.39,0.92
16.687002182006836,-0.71,-0.08,-0.53,0.88
16.697060108184814,-0.62,-0.04,-0.68,0.92
16.707032203674316,-0.51,0.04,-0.85,0.99
16.71698808670044,-0.44,0.12,-0.85,0.96
16.756264209747314,-0.25,0.15,-0.75,0.8
16.756700038909912,-0.27,0.19,-0.59,0.67
16.757127285003662,-0.47,0.11,-0.28,0.55
16.75754714012146,-0.17,0.04,0.21,0.27
16.766847133636475,-0.27,0.06,0.21,0.34
16.776893138885498,-0.73,-0.2,0.06,0.75
16.786782264709473,-0.89,-0.18,-0.22,0.93
16.796839237213135,-0.59,-0.16,-0.09,0.61
16.806762218475342,-0.35,-0.2,0.15,0.43
16.81685519218445,-0.36,-0.26,0.27,0.51
16.856945037841797,-0.4,-0.13,0.07,0.42
16.857376098632812,-0.42,-0.15,-0.58,0.73
16.857795238494873,-0.19,-0.02,-1.53,1.54
16.858213186264038,-0.01,-0.04,-1.29,1.29
16.866755962371826,-0.03,-0.01,-0.55,0.55
16.876785278320312,0.0,0.02,-0.43,0.43
16.88679313659668,0.17,-0.16,-0.61,0.65
16.89672017097473,0.37,-0.17,-1.05,1.12
16.90670609474182,0.43,-0.16,-1.56,1.62
16.917384147644043,0.45,-0.23,-1.39,1.47
16.95657205581665,0.24,-0.12,-0.61,0.66
16.95700216293335,0.01,0.32,-0.18,0.36
16.95742917060852,0.08,0.48,0.34,0.59
16.957853317260742,0.21,0.11,0.52,0.57
16.966610193252563,0.36,0.1,0.51,0.63
16.97657608985901,0.3,-0.03,0.55,0.62
16.986555099487305,0.35,-0.1,0.49,0.61
16.996605157852173,0.33,0.03,0.57,0.65
17.006564140319824,0.44,-0.21,0.51,0.7
17.016483306884766,0.34,-0.24,0.27,0.49
17.057090282440186,0.05,-0.05,-0.02,0.07
17.057522296905518,0.36,-0.08,-0.07,0.37
17.05794095993042,1.04,0.0,-0.04,1.04
17.058364152908325,1.54,0.16,0.08,1.55
17.066490173339844,1.64,-0.13,0.39,1.69
17.076364994049072,0.63,-0.36,0.28,0.77
17.08634328842163,-0.2,-0.16,0.12,0.28
17.09649109840393,-0.37,-0.02,0.34,0.5
17.106383085250854,-0.53,-0.15,0.69,0.88
17.116520166397095,-0.71,-0.1,0.78,1.05
17.15636396408081,-0.34,0.04,0.64,0.72
17.156790256500244,0.37,0.12,0.07,0.39
17.157210111618042,0.66,-0.07,-0.62,0.9
17.157628059387207,0.33,-0.12,-1.1,1.15
17.166372299194336,0.07,0.11,-1.02,1.02
17.17623209953308,-0.09,0.28,-0.79,0.84
17.186398029327393,-0.38,0.21,-0.7,0.82
17.196354150772095,-0.46,0.1,-0.63,0.78
17.20624303817749,-0.36,-0.01,-0.63,0.72
17.216370105743408,-0.42,-0.05,-0.55,0.69
17.25670099258423,-0.49,-0.02,-0.42,0.64
17.257132053375244,-0.29,0.09,-0.31,0.43
17.25755500793457,0.03,0.11,-0.3,0.32
17.25796914100647,0.27,0.1,-0.4,0.49
17.266242027282715,0.38,0.04,-0.57,0.68
17.2764151096344,0.34,-0.06,-0.66,0.74
17.2861590385437,0.29,-0.17,-0.53,0.62
17.29624605178833,0.37,-0.12,-0.29,0.48
17.306143283843994,0.59,0.06,0.04,0.59
17.316217184066772,0.64,0.12,0.22,0.68
17.35705327987671,0.47,-0.01,0.12,0.48
17.357482194900513,0.27,-0.11,0.14,0.32
17.35789918899536,0.19,-0.05,0.31,0.36
17.358297109603882,0.33,-0.05,0.19,0.38
17.366188049316406,0.48,-0.1,-0.18,0.52
17.37631130218506,0.26,-0.15,-0.65,0.71
17.385995149612427,-0.1,-0.16,-0.75,0.77
17.396021127700806,-0.32,-0.14,-0.5,0.6
17.406033992767334,-0.18,-0.04,-0.38,0.42
17.41604709625244,-0.02,0.03,-0.16,0.16
17.455424308776855,-0.03,0.12,0.02,0.12
17.456603050231934,0.08,0.31,-0.01,0.32
17.457021236419678,0.51,0.34,-0.05,0.61
17.457423210144043,1.09,0.2,-0.05,1.1
17.465963125228882,1.43,0.22,-0.27,1.47
17.47590923309326,1.45,0.43,-0.52,1.59
17.485949993133545,1.51,0.71,-0.71,1.81
17.49599599838257,1.99,0.81,-0.38,2.18
17.50592017173767,2.42,0.67,-0.01,2.51
17.51591920852661,2.63,0.6,0.38,2.72
17.5259211063385,2.89,0.79,0.7,3.07
17.557204246520996,2.88,1.15,0.62,3.16
17.55762529373169,2.63,1.6,0.53,3.12
17.558038234710693,2.42,2.33,0.16,3.36
17.565832138061523,2.71,3.35,-0.69,4.36
17.575815200805664,4.12,5.0,-0.53,6.5
17.585562229156494,4.34,5.06,1.22,6.77
17.59581208229065,3.83,5.07,0.04,6.35
17.605785131454468,3.73,5.43,-0.62,6.61
17.615780115127563,5.49,6.37,-0.31,8.41
17.625753164291382,7.63,7.16,-0.56,10.47
17.65668511390686,7.5,6.87,-1.71,10.31
17.657111167907715,5.76,6.31,-2.31,8.85
17.65752601623535,3.88,6.06,-2.24,7.53
17.665715217590332,2.49,5.92,-2.11,6.76
17.67568612098694,1.41,4.64,-2.01,5.24
17.685622215270996,0.27,1.82,-1.77,2.55
17.69567608833313,-2.51,0.97,-0.12,2.69
17.705592155456543,-4.61,0.03,-1.52,4.85
17.715747117996216,-0.54,-1.18,-3.63,3.85
17.725661277770996,5.23,-2.21,-1.85,5.97
17.756861209869385,10.17,-3.15,0.52,10.65
17.757305145263672,6.98,-4.04,2.23,8.36
17.757723093032837,2.73,-3.66,1.25,4.73
17.765504121780396,4.32,-2.98,0.04,5.24
17.775469303131104,7.08,-2.62,1.24,7.65
17.78548812866211,9.26,-2.72,2.92,10.08
17.795502185821533,9.05,-3.39,4.06,10.48
17.805469036102295,7.69,-3.72,4.05,9.45
17.815552234649658,6.66,-3.56,3.26,8.22
17.82547903060913,6.18,-3.16,2.51,7.38
17.858230113983154,5.94,-2.82,2.14,6.91
17.858657121658325,5.08,-2.48,2.18,6.05
17.859074115753174,3.49,-2.31,2.43,4.83
17.86552119255066,2.72,-1.53,2.28,3.86
17.875364303588867,2.5,-0.14,1.99,3.19
17.885391235351562,2.33,1.31,1.85,3.25
17.895445108413696,2.14,2.83,1.38,3.8
17.905395984649658,1.25,4.02,0.1,4.21
17.915382146835327,-0.02,4.43,-1.55,4.69
17.925400257110596,-1.11,4.73,-2.31,5.37
17.958181142807007,-2.73,5.15,-1.64,6.05
17.95860719680786,-4.72,5.14,-1.16,7.07
17.959025144577026,-6.17,5.01,-2.1,8.22
17.965402126312256,-6.75,4.74,-3.37,8.9
17.97528910636902,-6.3,3.89,-4.07,8.44
17.985188007354736,-5.39,2.61,-4.43,7.44
17.995272159576416,-5.23,1.58,-4.76,7.24
18.00534200668335,-6.41,0.98,-5.01,8.19
18.04083013534546,-8.31,0.23,-4.67,9.53
18.041275024414062,-9.97,-1.15,-3.81,10.73
18.04169797897339,-10.53,-2.65,-3.14,11.3
18.045159101486206,-9.84,-3.33,-3.16,10.85
18.055166244506836,-8.83,-3.35,-3.4,10.03
18.065223217010498,-7.68,-3.31,-3.38,9.02
18.075128078460693,-7.18,-2.94,-3.12,8.36
18.085127115249634,-6.27,5.57,-3.8,9.2
18.095179080963135,-2.34,8.26,-3.38,9.22
18.105106115341187,1.13,0.12,-1.98,2.28
18.142516136169434,12.58,-1.32,7.17,14.53
18.142953157424927,16.53,-1.89,15.17,22.51
18.14337921142578,7.67,0.46,3.8,8.57
18.14508628845215,-3.46,1.06,-2.62,4.46
18.154980182647705,-7.05,1.18,-1.07,7.22
18.1650972366333,-4.29,2.82,-0.24,5.13
18.175029277801514,-1.57,5.06,-1.27,5.44
18.18495225906372,-1.51,6.29,-1.45,6.62
18.195146083831787,-2.56,5.03,-2.55,6.19
18.20507001876831,-2.49,1.0,-2.34,3.56
18.24201726913452,-2.49,-1.64,-0.94,3.12
18.242427110671997,-3.1,-1.44,-0.57,3.46
18.24284815788269,-3.35,0.14,-2.58,4.23
18.244981288909912,-4.3,-0.59,-4.58,6.3
18.254870176315308,-3.36,1.23,-3.84,5.24
18.264909267425537,-1.35,0.86,-1.78,2.39
18.27486228942871,-0.03,-1.34,-1.37,1.91
18.28475522994995,1.0,-2.4,-2.69,3.74
18.294744968414307,1.55,-2.04,-2.54,3.6
18.304837226867676,1.33,-0.92,-0.69,1.75
18.341670036315918,0.88,0.4,0.9,1.32
18.342098236083984,-0.1,1.7,0.92,1.93
18.342522144317627,-0.28,1.42,-1.31,1.95
18.344703197479248,-1.08,0.4,-1.96,2.27
18.354671001434326,-1.72,-0.13,-1.87,2.54
18.364699125289917,-1.81,-0.81,-0.86,2.16
18.374699115753174,-2.4,-1.15,0.49,2.7
18.384620189666748,-3.32,-0.95,1.13,3.63
18.394606113433838,-2.99,-0.54,1.25,3.28
18.404672145843506,-2.3,-0.51,1.11,2.6
18.441822052001953,-1.61,-0.52,0.54,1.77
18.442252159118652,-0.85,-0.29,0.62,1.09
18.442673206329346,-0.75,-0.45,0.78,1.17
18.445003032684326,-0.79,-0.42,0.84,1.22
18.454695224761963,-0.61,-0.19,0.47,0.79
18.464663982391357,-0.77,-0.29,0.09,0.82
18.474584102630615,-1.43,-0.3,0.05,1.46
18.48464298248291,-1.87,-0.16,-0.31,1.9
18.494532108306885,-1.3,-0.34,-0.64,1.48
18.50446128845215,-0.29,-0.38,-0.41,0.62
18.542537212371826,-0.36,-0.04,-0.39,0.53
18.54296612739563,-0.69,0.06,-0.58,0.9
18.543387174606323,-0.85,0.16,-0.73,1.13
18.54439401626587,-0.56,0.03,-0.57,0.79
18.554548263549805,-0.12,-0.03,-0.57,0.58
18.56447410583496,-0.11,-0.1,-0.64,0.65
18.574435234069824,-0.49,0.06,-0.21,0.53
18.584468126296997,-0.37,0.27,0.25,0.52
18.59446430206299,-0.34,0.1,0.04,0.35
18.604467153549194,-0.93,-0.1,-0.3,0.98
18.64304828643799,-1.27,-0.21,-0.23,1.3
18.643479108810425,-1.23,-0.16,0.01,1.24
18.643906116485596,-1.52,0.15,0.27,1.55
18.644587993621826,-1.24,-0.19,0.67,1.42
18.654405117034912,-1.11,-0.32,0.52,1.26
18.66440725326538,-1.29,-0.19,0.46,1.38
18.674331188201904,-1.35,-0.23,0.68,1.52
18.684375286102295,-1.2,-0.15,0.58,1.34
18.69463610649109,-0.96,-0.19,0.3,1.02
18.704233169555664,-0.77,-0.2,-0.12,0.8
18.742995262145996,-0.59,-0.16,-0.48,0.77
18.74343729019165,-0.5,-0.06,-0.72,0.87
18.743882179260254,-0.58,-0.08,-0.81,0.99
18.74465799331665,-0.47,-0.04,-0.84,0.96
18.75419521331787,-0.32,0.08,-0.95,1.0
18.764251232147217,-0.24,0.02,-0.82,0.85
18.774230003356934,-0.1,0.0,-0.82,0.82
18.784203052520752,0.07,0.0,-0.85,0.85
18.79413914680481,-0.05,-0.1,-0.82,0.82
18.80405616760254,-0.4,-0.29,-0.65,0.81
18.84289026260376,-0.45,-0.08,-0.37,0.58
18.84332013130188,-0.19,-0.01,-0.33,0.38
18.843765258789062,0.05,0.02,-0.31,0.31
18.84420108795166,0.41,-0.01,-0.07,0.41
18.854060173034668,0.67,-0.27,-0.13,0.73
18.864089965820312,0.84,-0.09,-0.58,1.02
18.8740451335907,0.83,0.05,-1.02,1.31
18.884067058563232,0.61,-0.05,-1.1,1.25
18.894025087356567,0.55,-0.09,-0.57,0.79
18.903894186019897,0.46,-0.21,-0.32,0.59
18.942777156829834,0.46,-0.2,-0.26,0.56
18.943191051483154,0.57,-0.04,-0.12,0.58
18.943634033203125,0.69,0.12,-0.13,0.71
18.944066047668457,0.99,0.1,0.02,0.99
18.953962087631226,1.3,0.02,0.5,1.39
18.963972091674805,1.27,-0.01,0.44,1.34
18.973942279815674,1.1,0.02,0.15,1.11
18.98392915725708,0.77,-0.02,-0.25,0.8
18.993840217590332,0.44,-0.05,-0.5,0.66
19.003772258758545,0.28,-0.17,-0.43,0.54
19.042431116104126,0.17,-0.14,-0.46,0.51
19.042864084243774,0.52,0.05,-0.32,0.61
19.043269157409668,0.99,0.05,-0.25,1.02
19.043854236602783,1.1,-0.01,-0.26,1.13
19.05390501022339,0.86,0.05,-0.06,0.86
19.063817977905273,0.5,0.13,-0.22,0.56
19.07378315925598,0.03,0.18,-0.33,0.37
19.08378028869629,-0.23,0.3,-0.41,0.55
19.093752145767212,-0.43,0.4,-0.52,0.78
19.10377812385559,-0.6,0.4,-0.38,0.81
19.14254117012024,-0.43,0.38,-0.2,0.6
19.142975091934204,-0.1,0.4,-0.25,0.48
19.143420219421387,0.4,0.28,-0.33,0.58
19.143843173980713,1.03,0.01,-0.17,1.04
19.153682231903076,1.57,-0.18,0.14,1.58
19.163712978363037,1.46,-0.07,0.29,1.49
19.173644065856934,0.92,0.24,0.24,0.98
19.183776140213013,0.66,0.25,0.13,0.71
19.19360113143921,0.65,0.06,0.13,0.66
19.203482151031494,0.46,0.0,0.14,0.48
19.242242097854614,0.21,0.04,-0.2,0.29
19.242677211761475,0.08,-0.15,-0.33,0.37
19.243123054504395,0.26,-0.44,-0.62,0.8
19.243555068969727,0.5,-0.45,-0.8,1.04
19.253512144088745,0.67,-0.39,-0.57,0.96
19.263667106628418,1.16,-0.33,-0.7,1.39
19.27360725402832,1.49,-0.2,-0.74,1.67
19.283567190170288,1.47,-0.11,-0.57,1.58
19.293559074401855,1.66,0.02,-0.34,1.69
19.30338716506958,1.82,0.33,-0.42,1.89
19.342449188232422,1.73,0.49,-0.14,1.8
19.342885971069336,1.49,0.62,0.45,1.67
19.34330916404724,1.63,0.84,0.98,2.07
19.343725204467773,1.99,1.49,1.01,2.68
19.35329008102417,2.26,2.41,0.49,3.34
19.36332130432129,2.26,2.85,0.37,3.65
19.37330913543701,2.33,2.86,0.17,3.69
19.383313179016113,2.42,2.92,0.05,3.79
19.393282175064087,2.62,3.24,0.01,4.16
19.403354167938232,2.95,3.78,0.04,4.79
19.443068981170654,3.69,4.35,0.18,5.7
19.44349718093872,4.56,5.06,0.26,6.81
19.443918228149414,4.9,5.77,0.01,7.56
19.444342136383057,5.05,6.38,-0.09,8.13
19.453317165374756,5.23,6.45,-0.36,8.31
19.463255167007446,4.5,5.91,-1.07,7.5
19.473239183425903,2.97,6.14,-1.21,6.92
19.483261108398438,1.65,6.41,-1.4,6.76
19.49319815635681,0.98,4.14,-2.2,4.78
19.50322723388672,-0.56,3.24,-1.17,3.49
19.54247808456421,-3.22,4.31,-1.15,5.5
19.542917251586914,-2.3,4.52,-4.27,6.62
19.543344020843506,0.99,1.92,-4.14,4.66
19.543764114379883,6.06,-2.2,-3.08,7.14
19.55318021774292,10.15,-4.05,-0.63,10.94
19.563054084777832,5.73,-3.34,2.4,7.05
19.573065280914307,4.06,-2.57,0.67,4.85
19.58311915397644,6.76,-1.35,-0.58,6.91
19.59309411048889,9.16,-1.14,1.01,9.28
19.603116035461426,9.77,-2.43,2.54,10.38
19.643251180648804,8.37,-3.66,2.83,9.56
19.64368200302124,7.34,-4.06,2.81,8.84
19.644102096557617,7.11,-3.8,2.67,8.49
19.644519090652466,6.93,-3.29,2.22,7.98
19.653100967407227,6.47,-2.91,2.11,7.4
19.662894248962402,5.52,-2.66,2.19,6.5
19.67297601699829,4.34,-2.11,2.14,5.27
19.683037281036377,3.58,-1.4,2.02,4.34
19.692986965179443,3.19,-0.54,1.97,3.78
19.70303726196289,2.65,0.29,1.88,3.26
19.7437481880188,1.41,1.26,1.05,2.16
19.744178295135498,-0.49,2.13,-0.45,2.23
19.744598150253296,-1.92,2.5,-1.46,3.47
19.745021104812622,-2.48,2.95,-1.43,4.11
19.75291419029236,-2.96,3.66,-0.79,4.77
19.762760162353516,-3.64,4.16,-0.83,5.58
19.772823095321655,-4.88,4.73,-1.58,6.97
19.78295111656189,-5.75,5.14,-2.81,8.2
19.79285216331482,-5.51,5.66,-3.97,8.84
19.802855014801025,-4.95,5.84,-4.6,8.93
19.844499111175537,-4.93,5.0,-4.44,8.3
19.844932079315186,-5.43,3.48,-3.68,7.42
19.845359086990356,-6.06,1.59,-2.78,6.85
19.846095085144043,-6.34,-0.13,-2.4,6.78
19.852827072143555,-6.21,-1.34,-2.46,6.81
19.862776279449463,-5.63,-1.98,-1.68,6.19
19.872579097747803,-5.37,-1.98,-1.15,5.83
19.882737159729004,-6.37,-2.01,-1.75,6.9
19.892762184143066,-6.82,-2.08,-2.6,7.58
19.902725219726562,-6.42,-2.07,-2.88,7.33
19.944591999053955,-5.61,-2.07,-2.98,6.68
19.945006132125854,-5.29,-1.92,-2.74,6.25
19.94542908668518,-6.28,-1.35,-2.12,6.76
19.94585609436035,-5.3,7.11,-2.59,9.23
19.952628135681152,-1.76,5.4,-2.95,6.4
19.962902069091797,5.47,-2.01,0.62,5.86
19.972482204437256,13.98,-2.32,11.02,17.95
19.98265504837036,9.7,-0.58,9.0,13.24
19.992618083953857,0.18,0.98,-1.6,1.88
20.00256109237671,-4.98,2.13,-3.5,6.44
20.01251220703125,-3.5,3.99,-0.83,5.37
20.045091152191162,-1.65,5.64,-1.43,6.04
20.04552912712097,-2.3,8.3,-2.06,8.85
20.046332120895386,-4.51,7.74,-2.7,9.35
20.05250310897827,-4.36,3.19,-2.42,5.91
20.06248116493225,-2.56,-0.38,-0.89,2.73
20.072479248046875,-1.11,-3.47,-0.2,3.64
20.082587242126465,0.08,-5.82,0.47,5.83
20.09254813194275,-1.32,-2.3,-0.05,2.65
20.10245108604431,-4.55,-1.4,-4.25,6.38
20.112386226654053,-6.72,1.19,-5.12,8.53
20.144567012786865,-4.75,3.25,-3.13,6.55
20.14500617980957,-1.77,0.57,-1.37,2.3
20.145429134368896,-0.13,-1.77,-0.72,1.91
20.152228116989136,0.99,-1.74,-0.47,2.05
20.162289142608643,0.99,-0.39,-0.45,1.15
20.172330141067505,0.29,0.57,0.4,0.75
20.18234395980835,-0.98,1.03,0.93,1.69
20.192283153533936,-1.29,0.72,-0.17,1.48
20.202242136001587,-1.48,-0.06,-0.22,1.49
20.212215185165405,-2.33,-0.51,-0.05,2.38
20.244635105133057,-3.23,-0.71,-0.22,3.31
20.24508309364319,-3.72,-0.7,-0.34,3.8
20.245527267456055,-3.45,-0.49,-0.3,3.49
20.252211093902588,-2.46,-0.16,0.06,2.46
20.262187004089355,-1.42,-0.21,0.2,1.44
20.27214527130127,-0.79,-0.35,0.16,0.87
20.282165050506592,-0.45,-0.05,0.14,0.47
20.292071104049683,-0.55,0.15,0.41,0.7
20.302181243896484,-0.67,0.07,0.37,0.76
20.31211805343628,-0.54,-0.01,0.09,0.54
20.344980239868164,-0.54,-0.02,-0.35,0.64
20.3453950881958,-0.74,-0.1,-0.74,1.05
20.34582209587097,-0.61,-0.03,-0.88,1.07
20.352102279663086,-0.31,0.06,-0.85,0.9
20.361947059631348,0.1,0.07,-0.78,0.78
20.3720281124115,0.01,0.11,-1.35,1.35
20.381981134414673,-0.25,-0.1,-1.58,1.6
20.392008304595947,-0.44,-0.13,-0.9,1.01
20.402114152908325,-0.62,0.1,-0.47,0.78
20.412033081054688,-0.52,0.05,-0.07,0.52
20.444618225097656,-0.23,-0.01,-0.19,0.29
20.445059299468994,0.01,-0.03,-0.97,0.97
20.44548797607422,0.14,-0.28,-0.7,0.76
20.45187997817993,0.15,-0.28,0.01,0.31
20.46191716194153,0.04,-0.07,0.14,0.16
20.47191309928894,0.01,-0.14,-0.11,0.17
20.481959104537964,0.35,-0.2,-0.18,0.44
20.49186611175537,0.44,0.03,-0.27,0.51
20.501873016357422,0.44,0.03,-0.05,0.44
20.51181697845459,0.57,0.03,0.01,0.57
20.545014142990112,0.47,0.11,-0.26,0.54
20.54545021057129,-0.06,0.06,-0.52,0.52
20.54587697982788,-0.57,0.12,-0.89,1.06
20.55184507369995,-0.49,0.05,-0.88,1.0
20.561731100082397,-0.24,0.02,-0.51,0.56
20.571598052978516,-0.19,0.13,-0.15,0.27
20.581783294677734,-0.42,0.12,0.21,0.48
20.591814041137695,-0.39,-0.04,0.31,0.49
20.60176420211792,-0.24,-0.14,0.31,0.41
20.6117000579834,-0.16,-0.14,0.34,0.4
20.64419412612915,0.04,-0.08,0.63,0.63
20.6446270942688,0.02,-0.07,0.56,0.56
20.64503312110901,0.02,-0.02,0.14,0.14
20.651713132858276,0.01,0.02,-0.16,0.16
20.66163206100464,-0.12,-0.15,-0.14,0.23
20.671576023101807,-0.37,-0.2,-0.16,0.45
20.681650161743164,-0.42,-0.05,-0.29,0.51
20.691675186157227,-0.19,0.09,-0.31,0.37
20.701616287231445,0.28,0.11,-0.18,0.35
20.71156406402588,0.3,-0.13,0.04,0.32
20.744521141052246,0.18,-0.02,0.21,0.27
20.744935035705566,0.31,-0.02,0.27,0.41
20.74533700942993,0.6,0.08,0.01,0.6
20.751384258270264,0.66,-0.05,-0.38,0.76
20.761362075805664,0.74,0.0,-0.55,0.92
20.77149200439453,0.68,0.07,-0.56,0.88
20.781368255615234,0.57,0.02,-0.55,0.79
20.7913601398468,0.63,0.03,-0.3,0.69
20.801476001739502,0.61,-0.01,-0.06,0.61
20.81145215034485,0.33,-0.02,-0.18,0.37
20.84459924697876,0.12,-0.02,-0.12,0.17
20.84501028060913,0.17,0.01,-0.02,0.17
20.8454270362854,0.41,-0.01,-0.09,0.41
20.851380109786987,0.62,-0.02,-0.12,0.63
20.861348152160645,0.55,-0.02,-0.22,0.59
20.871427059173584,0.28,-0.01,-0.31,0.41
20.881330013275146,-0.09,0.02,-0.29,0.3
20.891372203826904,-0.26,0.06,-0.25,0.36
20.901426315307617,-0.36,0.05,-0.22,0.42
20.911526203155518,-0.24,0.03,-0.14,0.27
20.944173097610474,0.14,0.05,-0.07,0.16
20.94460105895996,0.35,0.0,-0.1,0.36
20.94502019882202,0.38,-0.02,-0.12,0.39
20.951219081878662,0.23,-0.01,-0.11,0.25
20.961217164993286,0.15,-0.01,-0.03,0.15
20.971220016479492,0.29,0.05,0.0,0.29
20.98108720779419,0.37,0.1,-0.28,0.47
20.991242170333862,0.55,0.16,-0.55,0.79
21.00120210647583,1.04,0.27,-0.53,1.19
21.011198043823242,1.43,0.28,-0.24,1.47
21.043406009674072,1.44,0.22,0.24,1.47
21.043830156326294,1.4,0.29,0.73,1.6
21.044250965118408,1.54,0.34,1.01,1.87
21.051122188568115,1.81,0.42,0.97,2.09
21.061061143875122,2.28,0.49,0.64,2.41
21.071040153503418,2.92,0.71,0.14,3.0
21.081037998199463,3.58,1.01,0.09,3.72
21.09109616279602,3.75,1.5,0.0,4.03
21.101054191589355,3.41,1.88,0.08,3.89
21.11100196838379,3.1,1.88,0.7,3.69
21.14369297027588,1.71,3.33,-1.3,3.96
21.144129276275635,1.86,6.83,-1.34,7.2
21.144556045532227,2.1,6.43,1.17,6.86
21.15097713470459,1.37,5.42,-0.61,5.62
21.160943031311035,1.88,5.84,-1.95,6.43
21.170912265777588,4.1,5.98,-1.36,7.37
21.181231021881104,5.52,5.67,-1.66,8.08
21.190929174423218,5.6,5.72,-2.34,8.33
21.200916290283203,5.7,5.56,-2.24,8.27
21.21087908744812,4.4,4.55,-2.09,6.66
21.24406623840332,2.26,2.87,-1.8,4.07
21.244503021240234,1.27,0.65,-1.87,2.35
21.24493408203125,1.39,0.02,-1.08,1.76
21.250826120376587,3.32,0.4,-1.59,3.7
21.260781288146973,4.04,-0.54,-0.04,4.07
21.270819187164307,2.66,-0.91,1.24,3.07
21.28081703186035,4.75,-1.46,-0.7,5.01
21.290748119354248,7.34,-1.52,0.54,7.51
21.30073618888855,8.04,-1.52,2.41,8.52
21.310686111450195,7.26,-2.05,2.61,7.98
21.344669103622437,6.45,-2.18,1.98,7.09
21.34510326385498,6.13,-2.14,1.57,6.67
21.345847129821777,5.95,-2.22,1.67,6.56
21.350613117218018,5.48,-2.51,1.96,6.33
21.360615253448486,4.66,-2.79,2.04,5.8
21.370670080184937,3.72,-2.86,1.84,5.04
21.380661010742188,2.9,-2.56,1.58,4.17
21.390722274780273,2.55,-2.1,1.45,3.6
21.400707244873047,2.43,-1.79,1.41,3.33
21.41062021255493,2.16,-1.36,1.44,2.93
21.444344997406006,1.75,-0.71,1.41,2.35
21.444775104522705,1.3,-0.12,1.3,1.84
21.445221185684204,0.92,0.42,1.12,1.5
21.45054006576538,0.49,1.11,0.88,1.49
21.46052122116089,0.22,2.11,0.67,2.22
21.470505237579346,0.63,3.3,0.29,3.37
21.48048496246338,1.54,4.22,-0.31,4.5
21.49047017097473,-0.47,4.92,0.34,4.95
21.50045418739319,-3.03,4.55,0.04,5.46
21.510449171066284,-4.42,4.02,-0.87,6.03
21.544841289520264,-4.7,4.0,-1.47,6.34
21.545592308044434,-4.2,4.04,-1.81,6.1
21.54601216316223,-4.07,3.79,-1.91,5.88
21.550474166870117,-4.59,3.41,-1.96,6.04
21.560383081436157,-5.47,2.6,-2.43,6.52
21.570391178131104,-6.32,1.59,-2.86,7.11
21.580373287200928,-6.82,0.27,-2.96,7.43
21.590388298034668,-6.8,-0.83,-2.81,7.4
21.600330114364624,-6.64,-1.46,-2.38,7.2
21.61030912399292,-6.74,-1.53,-2.09,7.22
21.645936012268066,-6.73,-1.58,-2.13,7.23
21.646368980407715,-6.25,-1.71,-2.21,6.84
21.646796226501465,-5.81,-1.67,-2.43,6.51
21.65037202835083,-5.6,-1.06,-2.68,6.29
21.66022515296936,-3.99,5.67,-3.17,7.62
21.670242309570312,-3.84,4.78,-2.97,6.81
21.680199146270752,-5.23,-3.24,-4.4,7.56
21.690217971801758,2.02,-4.41,-3.08,5.74
21.70026731491089,10.23,-1.42,4.37,11.21
21.710204124450684,9.71,1.62,6.7,11.9
21.746191024780273,2.58,2.53,1.04,3.76
21.746623992919922,-4.43,1.43,-1.97,5.05
21.747048139572144,-4.7,1.31,-1.52,5.11
21.750195026397705,-1.43,2.98,-1.32,3.55
21.7600359916687,0.32,5.37,-1.31,5.53
21.77011203765869,-1.33,5.81,-1.71,6.2
21.780079126358032,-3.2,2.26,-1.81,4.31
21.79009199142456,-2.88,-0.68,-0.11,2.96
21.800162315368652,-2.6,-0.91,0.78,2.86
21.810107231140137,-3.95,-0.47,-1.11,4.12
21.845835208892822,-4.98,-1.62,-3.03,6.05
21.846309185028076,-3.37,0.0,-3.18,4.63
21.846755027770996,-1.74,0.51,-1.41,2.29
21.849939107894897,-2.12,-1.42,0.03,2.55
21.85994529724121,-3.09,-2.22,-0.22,3.81
21.87000322341919,-2.84,-0.73,-0.9,3.06
21.88001298904419,-2.0,2.05,-0.57,2.92
21.88998818397522,0.68,1.85,-0.78,2.11
21.89998197555542,1.75,-0.31,0.0,1.77
21.909953117370605,1.27,-1.04,0.07,1.64
21.946388244628906,-0.34,-0.78,-0.35,0.92
21.946815967559814,-1.94,-0.19,-0.77,2.09
21.947237014770508,-2.55,0.0,-0.16,2.55
21.949825286865234,-2.63,-0.34,0.31,2.66
21.95987319946289,-2.78,-0.62,0.1,2.85
21.96989917755127,-2.5,-0.91,-0.04,2.66
21.979843139648438,-1.95,-0.43,0.09,1.99
21.989785194396973,-1.04,0.06,0.02,1.04
21.99983024597168,-0.27,-0.05,0.3,0.4
22.009713172912598,0.45,-0.15,0.59,0.75
22.046520233154297,0.32,-0.1,0.44,0.55
22.046951293945312,-0.1,-0.08,-0.1,0.16
22.047372102737427,-0.68,-0.06,-0.37,0.77
22.049715042114258,-1.22,-0.05,-0.48,1.31
22.059679985046387,-1.44,-0.11,-0.52,1.53
22.069674015045166,-1.27,-0.04,-0.56,1.38
22.079692125320435,-1.02,-0.14,-0.51,1.14
22.08970808982849,-1.07,0.06,-0.64,1.24
22.09950613975525,-0.89,0.04,-0.75,1.16
22.10960626602173,-0.91,-0.02,-0.87,1.25
22.14608097076416,-1.01,0.06,-1.79,2.05
22.146512031555176,-0.63,-0.16,-1.14,1.31
22.14693307876587,-0.7,-0.03,-0.27,0.75
22.149424076080322,-0.94,0.08,-0.13,0.95
22.15958309173584,-0.69,0.0,-0.3,0.75
22.169655084609985,-0.46,-0.07,-0.5,0.68
22.179546117782593,-0.54,0.0,-0.66,0.85
22.189788103103638,-0.58,-0.09,-0.6,0.83
22.199440002441406,-0.44,-0.22,-0.29,0.57
22.20957612991333,-0.19,-0.11,0.06,0.22
22.246512174606323,0.05,-0.12,0.43,0.44
22.246947288513184,0.18,-0.21,0.57,0.63
22.24736714363098,0.19,-0.18,0.46,0.52
22.24924898147583,0.15,-0.15,0.6,0.63
22.259343147277832,0.09,-0.07,0.79,0.79
22.26939105987549,-0.16,-0.05,0.77,0.78
22.2794771194458,-0.17,0.05,0.6,0.62
22.28943419456482,-0.11,-0.06,0.38,0.4
22.29932403564453,-0.23,-0.13,0.14,0.29
22.309243202209473,-0.26,-0.14,-0.04,0.29
22.34602117538452,-0.31,-0.07,-0.03,0.31
22.346455097198486,-0.5,0.09,0.16,0.53
22.346877098083496,-0.68,0.01,0.27,0.73
22.34914207458496,-0.66,0.0,0.01,0.66
22.359138011932373,-0.54,-0.14,-0.14,0.57
22.36932110786438,-0.57,-0.16,-0.23,0.63
22.37928819656372,-0.38,-0.07,-0.39,0.54
22.38929796218872,0.02,-0.02,-0.3,0.3
22.399260997772217,0.2,0.0,-0.27,0.33
22.409289121627808,0.19,0.07,-0.39,0.43
22.446051120758057,0.05,0.0,-0.24,0.24
22.44648027420044,-0.24,-0.2,-0.02,0.31
22.446914196014404,-0.51,0.0,-0.27,0.57
22.449321269989014,-0.3,0.12,-0.35,0.47
22.45921230316162,0.22,0.12,-0.06,0.25
22.469258308410645,0.73,0.14,0.01,0.74
22.479129314422607,1.06,0.01,-0.41,1.13
22.48904323577881,1.35,-0.09,-0.87,1.6
22.49940013885498,1.72,-0.01,-0.86,1.92
22.50910210609436,2.08,-0.1,-0.56,2.15
22.546337127685547,2.44,0.08,-0.25,2.45
22.54676628112793,2.11,0.2,-0.15,2.12
22.54718828201294,1.03,-0.02,-0.06,1.03
22.549347162246704,0.21,-0.19,0.28,0.39
22.558982133865356,-0.17,-0.28,0.29,0.43
22.569063186645508,-0.32,-0.27,0.09,0.42
22.5789852142334,-0.22,-0.22,-0.05,0.31
22.588982105255127,-0.06,-0.16,-0.19,0.25
22.59894323348999,-0.11,-0.11,-0.52,0.54
22.609044075012207,-0.32,-0.1,-0.89,0.95
22.64600896835327,-0.42,0.0,-0.85,0.94
22.646443128585815,-0.35,0.04,-0.47,0.58
22.64686918258667,-0.4,-0.1,-0.36,0.54
22.64885115623474,-0.52,-0.07,-0.4,0.65
22.658849239349365,-0.43,0.07,-0.61,0.74
22.668861150741577,-0.05,0.2,-1.0,1.02
22.678889274597168,0.29,-0.01,-0.8,0.85
22.68886709213257,0.41,-0.31,-0.63,0.81
22.698832988739014,0.55,-0.01,-0.75,0.93
22.708795070648193,0.61,0.26,-0.44,0.79
22.74637508392334,0.44,0.3,0.04,0.53
22.746804237365723,0.6,0.14,0.42,0.74
22.747226238250732,0.84,-0.05,0.51,0.98
22.74868106842041,0.6,-0.05,0.27,0.65
22.75858497619629,0.31,0.03,0.11,0.33
22.768684148788452,0.45,0.05,0.01,0.45
22.77868127822876,0.64,-0.02,-0.1,0.64
22.788710117340088,0.59,-0.13,-0.19,0.63
22.798668146133423,0.49,-0.08,-0.05,0.49
22.808549165725708,0.26,-0.02,0.08,0.27
22.84592914581299,0.06,0.08,0.32,0.33
22.84636616706848,-0.02,0.13,0.27,0.3
22.846774101257324,-0.02,0.11,-0.1,0.15
22.848539113998413,0.27,0.01,-0.21,0.34
22.858559131622314,0.63,-0.04,0.02,0.63
22.868580102920532,0.92,0.17,0.04,0.93
22.878475189208984,1.26,0.35,-0.03,1.3
22.88854217529297,1.36,0.43,-0.06,1.42
22.898539066314697,1.28,0.52,-0.05,1.38
22.908545970916748,0.92,0.53,0.02,1.06
22.94617223739624,0.5,0.48,0.01,0.69
22.9465970993042,0.12,0.25,0.45,0.52
22.94701910018921,-0.55,0.3,0.81,1.02
22.948424100875854,-0.65,0.52,0.82,1.16
22.958428144454956,0.09,0.62,0.28,0.68
22.96840214729309,0.46,0.52,-0.48,0.84
22.978485107421875,0.58,0.84,-0.84,1.32
22.98836612701416,0.97,1.37,-0.45,1.73
22.998369216918945,1.45,1.58,-0.1,2.14
23.00841522216797,2.23,1.43,-0.01,2.64
23.04590129852295,1.93,1.37,0.25,2.37
23.046348094940186,1.82,1.33,-0.09,2.25
23.046776294708252,1.96,1.44,0.27,2.44
23.048298120498657,2.47,1.64,0.43,2.99
23.058253288269043,3.22,1.95,0.28,3.77
23.068380117416382,3.62,2.52,0.08,4.41
23.078322172164917,3.54,3.23,-0.06,4.79
23.08833909034729,3.35,3.9,-0.6,5.17
23.098267078399658,3.85,4.93,-1.04,6.34
23.108293056488037,4.71,5.97,-1.39,7.73
23.14661407470703,5.73,6.39,-1.7,8.74
23.147041082382202,5.99,5.95,-2.14,8.7
23.147462129592896,5.23,5.13,-2.22,7.65
23.14811897277832,4.05,4.72,-2.27,6.62
23.158217191696167,3.27,4.77,-2.65,6.36
23.168285131454468,2.32,3.59,-3.08,5.26
23.178189277648926,0.73,2.2,-2.27,3.24
23.18815517425537,-3.28,2.62,0.48,4.22
23.198021173477173,-4.66,1.72,-1.08,5.08
23.20809507369995,-1.65,0.14,-2.31,2.84
23.24649715423584,2.6,-1.32,-1.59,3.32
23.246931076049805,5.95,-2.32,-0.32,6.39
23.247354984283447,5.51,-1.43,2.48,6.2
23.247963190078735,1.22,-2.16,2.84,3.77
23.258061170578003,3.4,-1.73,-0.08,3.81
23.268002033233643,7.45,-0.31,-0.21,7.45
23.277891159057617,9.98,-0.78,2.09,10.22
23.287965297698975,10.26,-2.24,3.34,11.02
23.29798698425293,9.15,-3.01,3.38,10.2
23.30794620513916,8.31,-3.02,3.04,9.34
23.34712314605713,7.68,-2.79,2.88,8.66
23.347580194473267,6.9,-2.6,2.73,7.86
23.34800624847412,6.06,-2.51,2.53,7.03
23.34842300415039,5.08,-2.48,2.36,6.12
23.35781216621399,4.2,-2.28,2.32,5.31
23.367730140686035,3.73,-1.77,2.26,4.7
23.377716064453125,3.36,-1.02,2.31,4.2
23.387880086898804,2.48,-0.06,2.29,3.37
23.39782214164734,0.88,0.99,1.69,2.14
23.407703161239624,-0.59,1.81,0.37,1.93
23.447338104248047,-1.35,2.75,-1.01,3.22
23.44778823852539,-1.75,3.99,-1.42,4.58
23.4482159614563,-2.7,5.38,-1.41,6.18
23.448641300201416,-4.61,6.57,-1.91,8.25
23.457717180252075,-6.88,6.78,-3.27,10.19
23.467588186264038,-8.01,5.38,-4.19,10.51
23.47765016555786,-7.39,3.72,-4.08,9.22
23.487715244293213,-6.66,2.6,-3.61,8.0
23.497647285461426,-6.93,1.93,-3.55,8.02
23.507914066314697,-7.78,1.13,-4.11,8.87
23.547810077667236,-8.26,-0.64,-3.86,9.13
23.5482439994812,-7.61,0.51,-3.22,8.27
23.54866600036621,-6.48,0.63,-2.76,7.07
23.549089193344116,-8.47,-2.33,-2.61,9.16
23.557637214660645,-9.86,-1.17,-3.12,10.4
23.567474126815796,-8.31,0.1,-3.5,9.01
23.577577114105225,-3.9,0.57,-4.01,5.62
23.587594985961914,5.07,2.0,-1.26,5.59
23.597607135772705,10.75,1.75,5.38,12.14
23.607519149780273,8.58,0.4,3.85,9.41
23.648120164871216,1.41,-0.04,-0.62,1.54
23.648561000823975,-4.12,0.16,-0.09,4.12
23.64898419380188,-3.79,1.46,1.14,4.21
23.649405002593994,-2.24,3.73,0.23,4.35
23.65748119354248,-1.72,4.94,-0.45,5.25
23.66753911972046,-3.09,4.41,-1.76,5.66
23.677343130111694,-4.96,5.04,-5.48,8.94
23.687479972839355,-7.72,-0.06,-8.34,11.36
23.69736909866333,-5.45,0.04,-3.94,6.72
23.707430124282837,-2.16,-1.1,2.53,3.5
23.748959064483643,-0.63,-2.56,2.39,3.55
23.74939203262329,0.2,-1.63,-0.02,1.64
23.749816179275513,0.66,-2.19,-1.56,2.76
23.75023913383484,-0.48,-2.69,-1.79,3.26
23.75738000869751,-1.31,-1.4,-1.99,2.76
23.76718521118164,-1.03,-0.28,-1.81,2.1
23.777287006378174,-1.3,0.84,-0.62,1.66
23.787322998046875,-1.21,1.16,-0.52,1.75
23.797266006469727,-1.55,0.08,0.29,1.57
23.80728816986084,-2.02,-0.44,1.15,2.36
23.817214965820312,-1.65,-0.11,1.5,2.23
23.84896421432495,-0.85,0.35,1.76,1.98
23.849409103393555,-0.47,0.39,1.03,1.19
23.849831104278564,-1.18,0.03,0.06,1.18
23.857218265533447,-2.38,-0.63,-0.36,2.48
23.86699104309082,-2.9,-1.14,-0.09,3.11
23.87706708908081,-2.86,-1.18,0.11,3.09
23.88720703125,-2.0,-0.73,-0.17,2.13
23.897095203399658,-0.46,-0.57,-0.62,0.95
23.90713930130005,0.66,-0.43,-0.3,0.84
23.917166233062744,-0.16,0.1,0.06,0.19
23.949158191680908,-0.5,0.59,-0.2,0.79
23.94956922531128,-0.5,0.7,-0.63,1.06
23.94997215270996,-0.39,0.52,-1.58,1.7
23.957051277160645,-0.72,0.11,-1.58,1.73
23.966880083084106,-1.61,-0.1,-1.53,2.22
23.976994037628174,-1.56,-0.24,-1.3,2.04
23.98700523376465,-1.01,-0.34,-1.01,1.46
23.99709415435791,-0.9,0.03,-1.62,1.85
24.00697898864746,-0.5,-0.05,-1.47,1.55
24.016961097717285,-0.21,-0.32,-1.01,1.08
24.048763275146484,-0.47,-0.14,-0.72,0.87
24.04919719696045,-0.46,0.02,-0.41,0.61
24.049625158309937,-0.33,0.03,-0.51,0.6
24.056918144226074,-0.16,-0.06,-0.79,0.8
24.066872119903564,-0.05,-0.18,-0.47,0.5
24.076902151107788,-0.23,-0.04,-0.24,0.33
24.086863040924072,-0.41,0.03,0.19,0.45
24.096835136413574,-0.53,0.04,0.52,0.74
24.10695505142212,-0.46,-0.05,0.86,0.97
24.116802215576172,-0.51,-0.13,1.01,1.13
24.148661136627197,-0.64,-0.16,1.11,1.29
24.149092197418213,-0.68,-0.23,1.38,1.55
24.14952325820923,-0.78,-0.19,1.24,1.47
24.156803131103516,-0.66,-0.09,0.96,1.16
24.166787147521973,-0.43,0.01,0.7,0.82
24.176611185073853,-0.21,-0.05,0.36,0.41
24.186740159988403,0.08,0.04,-0.18,0.2
24.19670820236206,0.31,0.19,-0.73,0.81
24.206722259521484,0.22,0.12,-1.34,1.36
24.2167010307312,0.01,0.06,-1.71,1.71
24.24851703643799,-0.09,0.17,-1.72,1.73
24.24894905090332,-0.08,0.18,-1.53,1.54
24.249375104904175,0.16,0.2,-1.42,1.44
24.256664276123047,0.58,0.05,-1.03,1.18
24.266602039337158,0.43,-0.31,-0.36,0.64
24.276645183563232,0.09,-0.22,0.52,0.57
24.286614179611206,0.09,0.07,1.08,1.08
24.296576976776123,0.26,-0.03,0.88,0.91
24.30665111541748,0.25,-0.13,0.25,0.37
24.316617965698242,0.06,-0.07,-0.13,0.15
24.348764181137085,-0.19,-0.12,-0.18,0.28
24.349173069000244,-0.25,-0.12,0.08,0.28
24.34957504272461,-0.06,-0.08,0.2,0.22
24.356449127197266,0.27,-0.1,0.11,0.3
24.36638617515564,0.6,-0.11,0.0,0.61
24.376285076141357,0.87,-0.13,0.02,0.87
24.386445999145508,0.93,0.07,0.05,0.93
24.396356105804443,1.07,0.03,0.18,1.08
24.43078899383545,0.83,-0.19,0.2,0.87
24.43155312538147,0.3,-0.03,-0.1,0.31
24.431978225708008,0.08,0.0,0.04,0.08
24.436580181121826,0.11,-0.09,0.09,0.16
24.446399211883545,0.23,-0.01,-0.16,0.28
24.4564311504364,0.58,0.01,-0.17,0.6
24.466320991516113,0.61,0.03,-0.23,0.65
24.476309299468994,0.38,0.08,-0.39,0.55
24.486332178115845,0.48,0.08,-0.18,0.51
24.496265172958374,0.44,0.03,-0.03,0.44
24.532997131347656,0.05,0.0,-0.18,0.18
24.533427238464355,-0.16,0.04,-0.16,0.22
24.53385019302368,0.1,0.05,0.01,0.11
24.53633213043213,0.46,-0.03,0.14,0.48
24.546221256256104,0.26,-0.09,-0.06,0.28
24.556135177612305,-0.39,-0.05,-0.36,0.53
24.566224098205566,-0.77,-0.01,-0.38,0.85
24.57605218887329,-0.67,-0.01,-0.42,0.79
24.58611011505127,-0.38,0.02,-0.57,0.68
24.596266269683838,-0.23,0.17,-0.7,0.75
24.631989002227783,-0.05,0.2,-0.85,0.87
24.63242197036743,0.12,0.05,-0.66,0.67
24.632843017578125,0.16,0.07,-0.17,0.24
24.63601517677307,0.32,0.03,0.36,0.48
24.646066188812256,0.48,0.08,0.97,1.08
24.656038284301758,0.82,0.13,1.17,1.43
24.666134119033813,1.28,0.06,0.83,1.52
24.67607307434082,1.88,0.04,0.42,1.92
24.685966968536377,2.55,0.1,0.2,2.55
24.696015119552612,3.38,0.26,-0.42,3.41
24.73179531097412,4.34,0.23,-0.29,4.35
24.732238292694092,4.75,0.35,-0.05,4.76
24.732661247253418,4.36,0.65,-0.16,4.41
24.73579716682434,3.08,1.1,0.27,3.28
24.746069192886353,1.7,1.63,0.52,2.41
24.755935192108154,0.73,1.87,0.63,2.1
24.76589608192444,-0.07,1.71,0.39,1.75
24.77575922012329,-0.37,3.69,-0.62,3.75
24.78574228286743,1.61,5.43,-0.58,5.69
24.795936107635498,2.5,5.27,0.45,5.85
24.831777095794678,3.81,5.61,-0.79,6.82
24.832210063934326,4.53,6.17,-0.88,7.7
24.832630157470703,5.18,6.14,-0.64,8.05
24.8355712890625,4.96,5.24,-0.78,7.25
24.84581708908081,3.79,4.69,-0.8,6.08
24.85581398010254,2.7,4.83,-0.95,5.61
24.86581015586853,2.39,5.15,-0.95,5.75
24.875768184661865,2.6,4.97,-0.69,5.65
24.885691165924072,2.04,3.01,-0.51,3.67
24.895726203918457,0.96,0.32,-0.27,1.04
24.932820081710815,-1.88,-1.02,1.02,2.36
24.93324899673462,-3.0,-1.64,-0.04,3.41
24.933672189712524,0.4,-2.37,-0.28,2.41
24.9356632232666,4.37,-2.84,1.63,5.46
24.945699214935303,4.2,-2.16,2.83,5.5
24.955681085586548,3.09,-2.27,0.82,3.92
24.965651988983154,6.58,-1.9,-0.42,6.86
24.975629091262817,9.2,-0.97,1.51,9.37
24.98582911491394,9.87,-0.95,3.14,10.4
24.995614051818848,8.53,-1.64,3.44,9.34
25.03284215927124,7.23,-2.14,2.97,8.1
25.03327226638794,6.6,-2.09,2.63,7.4
25.033693313598633,6.07,-1.88,2.41,6.79
25.035852193832397,5.23,-1.82,2.2,5.95
25.045374155044556,4.12,-1.74,2.04,4.91
25.055469036102295,3.13,-1.42,1.75,3.85
25.06551718711853,2.3,-0.95,1.44,2.87
25.075468063354492,1.74,-0.25,1.21,2.13
25.085429191589355,1.27,0.49,0.93,1.64
25.095484256744385,0.73,1.18,0.57,1.5
25.1332790851593,0.32,1.73,0.1,1.76
25.133721113204956,0.59,2.09,-0.58,2.24
25.134146213531494,-1.11,2.88,-0.06,3.08
25.135414123535156,-3.17,2.74,-0.05,4.19
25.14541721343994,-3.78,3.08,-0.81,4.94
25.155380249023438,-4.32,4.15,-1.39,6.14
25.165316104888916,-4.82,4.65,-2.04,7.0
25.175340175628662,-4.91,3.93,-2.61,6.8
25.185317039489746,-4.5,2.5,-3.07,5.99
25.195335149765015,-4.78,1.44,-3.25,5.95
25.23388910293579,-6.46,1.02,-3.87,7.59
25.234323978424072,-7.56,1.07,-4.52,8.87
25.234747171401978,-7.16,1.54,-4.23,8.45
25.235198974609375,-5.93,0.17,-3.24,6.75
25.24524712562561,-5.32,-1.9,-2.34,6.11
25.2552490234375,-6.16,-2.9,-1.82,7.04
25.265212059020996,-7.26,-3.36,-1.98,8.24
25.275220155715942,-7.02,-1.55,-2.08,7.48
25.28517508506775,-3.97,4.94,-2.74,6.9
25.295056104660034,-3.25,1.18,-2.03,4.0
25.333773136138916,-4.67,-2.12,-1.78,5.42
25.334208965301514,-1.53,-1.76,-1.68,2.87
25.334638118743896,5.84,-0.09,2.38,6.3
25.33508610725403,10.59,0.91,7.19,12.83
25.34503412246704,7.8,0.53,4.81,9.17
25.355138301849365,1.17,0.57,-0.09,1.3
25.365004062652588,-3.25,1.03,-2.3,4.11
25.375071048736572,-2.45,2.29,-2.89,4.42
25.385006189346313,-0.16,4.53,-3.04,5.45
25.395012140274048,0.57,5.58,-2.78,6.26
25.43404722213745,-0.69,2.76,-2.08,3.52
25.43447709083557,-2.03,0.53,-0.88,2.27
25.434921264648438,-3.87,-0.11,-2.29,4.49
25.435712099075317,-6.06,-1.32,-4.32,7.55
25.445876121520996,-4.74,-0.53,-4.33,6.44
25.454960107803345,-2.69,-0.83,-2.14,3.53
25.464920043945312,-1.99,-2.54,-0.07,3.22
25.474914073944092,-1.95,-2.74,-0.12,3.36
25.48484516143799,-2.62,-0.63,0.08,2.69
25.494770050048828,-3.84,2.25,0.57,4.48
25.534229278564453,-2.45,2.35,-0.94,3.52
25.534696102142334,-1.46,0.1,0.06,1.46
25.53512215614319,-0.98,-1.09,1.35,1.99
25.535542964935303,-0.76,-1.12,1.1,1.74
25.544787168502808,-1.92,-0.87,0.08,2.1
25.5548152923584,-2.68,-0.7,-1.1,2.98
25.564757108688354,-1.86,-0.17,-1.27,2.25
25.57476806640625,-0.5,0.02,-0.48,0.69
25.584702968597412,0.0,-0.02,-0.38,0.38
25.594717025756836,-0.21,-0.1,-0.63,0.67
25.634840965270996,-0.35,-0.15,-0.81,0.89
25.63527822494507,-0.08,-0.27,-0.71,0.76
25.635700225830078,-0.35,-0.18,-0.39,0.55
25.636442184448242,-0.61,-0.07,-0.55,0.82
25.644713163375854,-0.55,-0.24,-0.28,0.66
25.65476131439209,-0.34,-0.34,-0.2,0.52
25.664693117141724,-0.33,-0.41,-0.28,0.59
25.67469310760498,-0.22,-0.31,-0.31,0.49
25.68461012840271,0.39,-0.3,-0.19,0.52
25.69471502304077,0.75,-0.32,0.02,0.81
25.734904289245605,-0.12,0.14,0.01,0.18
25.735342025756836,-0.86,0.36,-0.32,0.98
25.73576307296753,-1.34,0.27,-0.57,1.48
25.736186981201172,-1.44,0.18,-0.86,1.68
25.744513034820557,-1.29,0.01,-0.72,1.47
25.754537105560303,-1.28,0.04,-0.69,1.45
25.764480113983154,-1.38,-0.05,-0.4,1.43
25.77453112602234,-1.35,-0.17,-0.03,1.36
25.784433126449585,-1.34,-0.02,0.16,1.34
25.794515132904053,-1.42,-0.01,0.28,1.44
25.834665298461914,-0.98,-0.08,0.4,1.06
25.83510112762451,-0.61,-0.12,0.51,0.8
25.835525035858154,-0.95,-0.16,0.53,1.09
25.835944175720215,-1.3,0.01,0.72,1.48
25.84441113471985,-1.05,-0.06,0.91,1.39
25.854206085205078,-0.97,-0.19,0.53,1.12
25.86433219909668,-0.97,-0.21,0.08,0.99
25.87441921234131,-0.79,-0.23,-0.04,0.82
25.88435411453247,-0.63,-0.24,0.15,0.69
25.89430809020996,-0.56,-0.17,0.19,0.61
25.935173988342285,-0.45,-0.12,0.11,0.47
25.935614109039307,-0.24,-0.02,-0.13,0.27
25.93604016304016,-0.21,-0.05,-0.39,0.44
25.93645215034485,-0.28,0.01,-0.39,0.48
25.944223165512085,-0.08,-0.06,-0.51,0.51
25.954102993011475,0.06,0.01,-0.77,0.77
25.964126110076904,0.35,-0.24,-0.94,1.03
25.974223136901855,0.36,0.07,-0.78,0.86
25.984024047851562,0.23,-0.25,-0.39,0.51
25.994179248809814,0.03,0.02,-0.28,0.28
26.035439014434814,-0.03,-0.12,-0.22,0.25
26.035871982574463,0.24,-0.18,-0.21,0.36
26.036295175552368,0.52,-0.17,0.0,0.54
26.037023067474365,0.68,-0.14,0.29,0.75
26.044090270996094,0.44,0.0,0.28,0.52
26.05389404296875,0.1,0.3,0.23,0.39
26.064045190811157,-0.2,0.13,0.25,0.34
26.07405710220337,-0.29,-0.03,-0.11,0.31
26.084046125411987,-0.15,0.08,-0.77,0.78
26.09396505355835,0.23,0.11,-1.02,1.05
26.13380718231201,0.61,0.07,-0.85,1.04
26.13424515724182,0.97,0.14,-0.6,1.14
26.13466715812683,1.19,0.01,-0.47,1.27
26.135093212127686,0.9,-0.15,-0.41,1.0
26.143946170806885,0.48,-0.19,-0.1,0.52
26.153964042663574,0.55,-0.19,0.06,0.58
26.163886070251465,0.85,0.04,-0.08,0.85
26.173959255218506,1.03,0.1,-0.22,1.05
26.18390703201294,1.13,-0.05,-0.54,1.25
26.193912982940674,0.78,-0.16,-0.7,1.06
26.235162258148193,0.37,-0.08,-0.87,0.94
26.235594272613525,0.22,-0.09,-0.8,0.83
26.236018180847168,0.48,-0.23,-0.08,0.53
26.236443042755127,0.97,-0.02,0.21,0.99
26.243868112564087,1.11,0.06,0.11,1.11
26.253960132598877,0.83,0.06,-0.19,0.85
26.26379418373108,0.25,-0.01,-0.36,0.43
26.273738145828247,-0.34,-0.12,-0.34,0.49
26.283828258514404,-0.54,-0.11,-0.4,0.68
26.293737173080444,-0.44,-0.17,-0.6,0.76
26.33418607711792,-0.22,-0.18,-0.69,0.74
26.335344314575195,-0.03,-0.05,-0.45,0.45
26.335771083831787,0.08,0.11,-0.18,0.22
26.336193084716797,0.23,0.17,0.18,0.33
26.343722105026245,0.16,0.05,0.32,0.36
26.35359525680542,-0.41,-0.08,0.25,0.48
26.36342430114746,-0.7,0.09,0.18,0.72
26.373746156692505,-0.45,0.08,-0.07,0.46
26.38363814353943,-0.15,0.11,-0.33,0.37
26.393636226654053,0.28,0.15,-0.11,0.33
26.40363597869873,0.96,0.09,0.08,0.96
26.435320138931274,1.55,0.08,0.09,1.55
26.43574810028076,1.4,0.11,0.18,1.41
26.43616819381714,0.75,0.25,-0.15,0.8
26.443494081497192,0.51,0.37,-0.14,0.64
26.453538179397583,0.51,0.25,-0.09,0.57
26.46343421936035,0.56,0.16,-0.43,0.72
26.473499298095703,0.85,0.03,-0.56,1.01
26.48345422744751,1.23,0.04,-0.43,1.3
26.493449211120605,1.62,0.2,-0.19,1.64
26.50334596633911,1.78,0.33,-0.01,1.81
26.53403902053833,1.84,0.46,0.17,1.9
26.534464120864868,1.82,0.62,0.14,1.92
26.53488302230835,1.34,0.84,-0.1,1.58
26.543440103530884,0.82,0.99,-0.04,1.28
26.553333282470703,0.62,1.14,0.23,1.31
26.563372135162354,0.64,1.38,0.28,1.54
26.573336124420166,0.82,1.6,0.67,1.91
26.5832941532135,1.75,1.75,0.79,2.59
26.59336805343628,2.12,1.95,0.87,3.0
26.60335111618042,2.44,1.88,0.44,3.11
26.634708166122437,2.75,2.11,0.18,3.47
26.6351420879364,2.93,2.51,-0.26,3.86
26.63556218147278,2.87,2.8,-0.62,4.05
26.64325213432312,2.72,2.97,-0.89,4.12
26.65322709083557,3.12,3.62,-0.54,4.8
26.663271188735962,4.39,4.85,-0.47,6.55
26.67320728302002,5.7,6.27,-0.28,8.47
26.683091163635254,6.57,7.39,-0.87,9.92
26.693190097808838,6.88,7.58,-1.21,10.3
26.703139305114746,6.01,7.37,-1.56,9.63
26.735645294189453,4.79,6.99,-1.9,8.68
26.736075162887573,3.69,6.57,-2.06,7.81
26.73650312423706,2.42,5.19,-2.71,6.33
26.743152141571045,0.45,2.97,-2.8,4.1
26.753096103668213,-2.77,2.38,0.42,3.67
26.762914180755615,-5.99,1.5,-0.49,6.19
26.773070096969604,-4.01,0.75,-3.42,5.32
26.783006191253662,1.38,-0.68,-2.66,3.07
26.793127059936523,4.74,-4.0,-1.72,6.43
26.803017139434814,6.25,-5.71,-0.51,8.48
26.83509111404419,1.01,-5.25,1.01,5.44
26.835522174835205,2.98,-4.52,-0.2,5.41
26.835944175720215,6.99,-3.72,0.73,7.95
26.842990159988403,9.53,-3.68,2.58,10.53
26.852915287017822,10.19,-4.5,4.03,11.84
26.86294412612915,8.8,-5.04,4.52,11.1
26.87295413017273,7.01,-4.81,4.1,9.43
26.88286018371582,5.97,-4.42,3.58,8.24
26.89294409751892,5.28,-4.26,3.23,7.51
26.902875185012817,5.04,-4.08,2.74,7.03
26.93630814552307,4.95,-3.58,2.58,6.63
26.93674111366272,4.63,-2.79,2.94,6.15
26.937178134918213,4.18,-1.9,3.66,5.87
26.94277000427246,3.62,-0.77,3.64,5.19
26.95272207260132,2.46,0.91,2.79,3.82
26.962769031524658,1.03,2.4,1.38,2.95
26.9728102684021,-0.02,3.4,-0.21,3.4
26.982824087142944,-0.51,4.48,-1.08,4.63
26.9928081035614,-1.39,5.78,-0.79,5.99
27.002735137939453,-2.82,6.76,-0.55,7.34
27.036755084991455,-4.5,7.34,-1.59,8.75
27.03720211982727,-6.33,7.53,-3.51,10.44
27.038275241851807,-7.67,6.85,-4.84,11.36
27.04266119003296,-8.46,5.19,-5.36,11.27
27.05262017250061,-9.85,3.26,-5.97,11.97
27.062466144561768,-11.34,1.46,-6.59,13.19
27.072521209716797,-11.61,-0.01,-6.24,13.18
27.082576274871826,-10.53,-1.28,-5.05,11.74
27.092629194259644,-10.05,-2.89,-3.89,11.15
27.102588176727295,-10.44,-2.84,-3.36,11.32
27.136538982391357,-8.73,3.45,-3.53,10.02
27.13700008392334,-6.63,1.93,-3.28,7.64
27.137741088867188,-5.46,-1.64,-2.29,6.14
27.142566204071045,1.61,0.44,-0.67,1.79
27.15247416496277,11.53,1.07,5.28,12.72
27.16253113746643,14.66,-0.34,10.01,17.75
27.17231321334839,8.36,-0.43,3.77,9.18
27.1825270652771,-0.88,0.0,-1.46,1.7
27.19245219230652,-4.44,-0.1,-1.91,4.83
27.202465057373047,-2.99,0.09,-1.44,3.31
27.236098289489746,-0.31,1.76,-1.65,2.43
27.236528158187866,0.83,3.44,-1.4,3.8
27.236953258514404,-0.14,4.97,-1.15,5.1
27.24225616455078,-2.99,4.64,-1.51,5.72
27.252334117889404,-3.27,1.92,-1.55,4.09
27.262314081192017,-1.72,1.29,-2.24,3.1
27.272168159484863,-1.4,-1.06,-3.81,4.19
27.282199144363403,-1.1,-0.45,-3.35,3.55
27.292277097702026,-0.57,-0.22,-1.66,1.76
27.302337169647217,-0.41,-1.96,-0.88,2.18
27.336727142333984,-1.32,-2.68,-0.57,3.04
27.33747100830078,-1.63,-1.55,-0.11,2.25
27.337895154953003,-1.25,-0.54,0.36,1.4
27.342266082763672,-0.93,-0.26,-0.11,0.97
27.352217197418213,-0.35,-0.31,-0.41,0.62
27.362107276916504,-0.25,0.88,-0.21,0.93
27.372236251831055,0.11,1.29,-0.96,1.61
27.382198095321655,-0.98,0.33,0.3,1.07
27.392213106155396,-1.58,-0.52,1.01,1.94
27.402159214019775,-1.69,-0.68,0.53,1.89
27.43689203262329,-1.38,-0.43,-0.47,1.51
27.437328100204468,-1.17,-0.14,-0.7,1.37
27.438067197799683,-0.63,-0.23,-0.43,0.79
27.44216299057007,-0.31,-0.28,-0.3,0.51
27.451982021331787,-1.06,-0.44,-0.44,1.22
27.462139129638672,-2.07,-0.58,-0.38,2.18
27.47213315963745,-1.83,-0.25,-0.03,1.84
27.481958150863647,-0.73,-0.23,0.12,0.77
27.491987228393555,-0.29,-0.3,0.02,0.41
27.501938104629517,-0.27,-0.53,-0.23,0.63
27.536468029022217,0.1,-0.94,0.09,0.94
27.53722310066223,-1.15,-0.47,1.08,1.64
27.537647247314453,-1.77,-0.13,1.11,2.09
27.54195809364319,-2.23,0.08,1.4,2.63
27.5518901348114,-1.95,0.08,0.93,2.16
27.56190299987793,-1.14,-0.12,0.05,1.14
27.572245121002197,-0.28,-0.31,-0.59,0.72
27.581834316253662,0.14,-0.28,-0.5,0.58
27.591954231262207,-0.29,-0.08,-0.81,0.86
27.601799964904785,-0.72,-0.03,-1.11,1.32
27.637251138687134,-0.77,-0.04,-1.25,1.46
27.637684106826782,-0.35,0.07,-1.55,1.59
27.638092041015625,0.03,0.04,-1.55,1.55
27.641847133636475,-0.48,0.21,-1.71,1.78
27.65164804458618,-0.72,0.14,-1.29,1.48
27.661756992340088,-0.63,-0.11,-1.01,1.19
27.671773195266724,-0.56,0.18,-1.16,1.3
27.681771278381348,-0.18,0.14,-0.82,0.85
27.69176411628723,0.11,-0.03,-0.33,0.34
27.701719284057617,-0.34,0.17,-0.11,0.39
27.73678708076477,-0.95,0.13,0.4,1.03
27.737414121627808,-1.09,-0.05,0.88,1.4
27.73784303665161,-0.74,-0.18,1.06,1.3
27.7416672706604,-0.54,-0.21,1.16,1.29
27.751588106155396,-0.67,-0.23,1.24,1.42
27.761625289916992,-0.69,-0.13,1.11,1.31
27.77165699005127,-1.06,0.03,1.05,1.49
27.781670093536377,-1.17,-0.13,1.14,1.63
27.791723251342773,-0.94,-0.33,0.96,1.38
27.801653146743774,-0.86,-0.22,0.76,1.16
27.83636999130249,-0.89,-0.14,0.77,1.18
27.83712100982666,-0.7,-0.08,0.42,0.82
27.837545156478882,-0.38,-0.07,-0.3,0.48
27.841519117355347,-0.36,-0.16,-1.19,1.25
27.851505279541016,-0.22,-0.07,-2.06,2.07
27.861481189727783,0.02,-0.04,-2.55,2.55
27.871410131454468,0.29,-0.16,-2.33,2.35
27.881505012512207,0.51,-0.16,-1.74,1.82
27.891473293304443,0.6,-0.03,-1.55,1.66
27.901432037353516,0.71,0.07,-1.44,1.6
27.936459064483643,0.44,-0.03,-1.15,1.23
27.937082290649414,0.35,-0.22,-0.71,0.82
27.937507152557373,0.36,-0.35,-0.11,0.51
27.9413743019104,0.35,-0.31,0.49,0.67
27.951284170150757,0.22,0.04,0.93,0.95
27.961310148239136,0.17,-0.09,1.0,1.01
27.97132921218872,0.23,-0.26,0.66,0.74
27.98130702972412,0.77,-0.08,0.44,0.89
27.99134922027588,1.36,-0.1,0.41,1.42
28.001201152801514,1.53,0.08,-0.03,1.53
28.037774085998535,1.17,0.02,-0.2,1.18
28.038204193115234,0.6,0.17,-0.39,0.73
28.038629055023193,0.18,0.08,-0.64,0.66
28.041295051574707,-0.14,0.02,-0.84,0.85
28.051186084747314,0.12,0.07,-0.61,0.62
28.061213970184326,0.48,0.2,-0.39,0.65
28.071155071258545,0.66,0.19,-0.05,0.68
28.08114719390869,0.81,0.1,0.46,0.93
28.091183185577393,0.36,-0.04,-0.2,0.41
28.10110902786255,-0.32,-0.04,-0.66,0.73
28.137710094451904,-0.83,-0.14,-0.6,1.03
28.13814401626587,-0.99,-0.08,-0.66,1.19
28.13857126235962,-0.66,0.02,-0.62,0.9
28.141120195388794,-0.26,-0.09,-0.51,0.57
28.151047229766846,0.13,-0.03,-0.09,0.16
28.161046981811523,0.69,0.09,0.09,0.7
28.17098617553711,1.37,0.0,0.37,1.41
28.18101930618286,2.06,0.0,0.69,2.17
28.191030979156494,2.1,0.09,0.8,2.24
28.20103931427002,1.34,-0.11,0.44,1.41
28.237569093704224,0.47,-0.1,-0.22,0.52
28.238001108169556,0.09,-0.07,-0.17,0.2
28.238425254821777,-0.12,-0.11,-0.02,0.16
28.240972995758057,-0.36,-0.1,-0.09,0.38
28.250900268554688,-0.53,-0.03,-0.01,0.53
28.260930061340332,-0.31,0.04,-0.11,0.33
28.27090311050415,0.24,-0.01,-0.19,0.3
28.280907154083252,0.69,0.0,-0.18,0.71
28.290873050689697,0.89,-0.03,-0.04,0.89
28.3008131980896,0.71,-0.11,-0.11,0.72
28.337417125701904,0.39,-0.12,-0.4,0.57
28.337849140167236,0.37,-0.15,-0.01,0.39
28.33827829360962,0.61,0.0,-0.08,0.61
28.340750217437744,1.12,0.21,-0.32,1.18
28.350717067718506,1.46,0.4,-0.32,1.54
28.36070728302002,1.4,0.49,-0.69,1.63
28.37075114250183,0.96,0.45,-0.72,1.28
28.380727291107178,0.5,0.33,-0.38,0.7
28.39065408706665,0.11,0.2,-0.07,0.23
28.40071415901184,-0.12,0.13,0.16,0.23
28.437645196914673,0.03,0.23,0.1,0.25
28.438074111938477,0.41,0.36,-0.07,0.55
28.438494205474854,0.66,0.41,-0.22,0.8
28.44063425064087,0.67,0.4,-0.42,0.88
28.450571060180664,0.52,0.36,-0.7,0.94
28.460747241973877,0.12,0.21,-1.26,1.28
28.47063398361206,0.0,1.48,-0.58,1.58
28.480542182922363,0.69,2.25,1.52,2.8
28.490478038787842,1.32,1.61,1.82,2.76
28.500619173049927,1.44,1.59,1.11,2.41
28.538271188735962,1.62,1.66,1.19,2.6
28.53871202468872,2.05,1.5,1.04,2.74
28.539116144180298,2.87,1.5,0.27,3.24
28.540255069732666,3.86,1.6,0.02,4.17
28.55043601989746,3.38,1.92,0.01,3.88
28.56043815612793,2.35,2.19,-0.47,3.24
28.570391178131104,2.02,2.69,-0.75,3.44
28.580470085144043,2.41,2.65,-0.62,3.63
28.590291023254395,2.63,2.51,-0.53,3.67
28.600375175476074,2.44,2.74,-0.71,3.73
28.638163089752197,2.1,2.86,-0.83,3.64
28.638596057891846,1.71,3.2,-1.02,3.76
28.639016151428223,1.68,3.55,-1.2,4.1
28.640170097351074,1.78,4.03,-1.15,4.55
28.650297164916992,1.94,4.48,-1.15,5.01
28.660377025604248,2.16,5.01,-1.42,5.63
28.670310020446777,2.41,4.74,-1.62,5.55
28.680307149887085,1.55,3.32,-0.78,3.74
28.690399169921875,-0.58,2.21,0.27,2.3
28.70035219192505,-2.2,2.04,-0.37,3.02
28.73780107498169,-1.46,2.47,-2.35,3.7
28.738240242004395,0.84,1.25,-1.56,2.16
28.73866319656372,2.42,-0.31,-0.16,2.44
28.74035120010376,3.35,-2.1,0.06,3.95
28.750192165374756,4.58,-4.71,-0.07,6.57
28.76021409034729,1.13,-5.12,1.65,5.49
28.77017116546631,-1.59,-3.03,1.59,3.77
28.780182123184204,3.18,-1.77,0.4,3.66
28.790488243103027,7.88,-0.66,0.94,7.96
28.800064086914062,11.0,-1.13,1.8,11.2
28.83874011039734,10.42,-2.3,3.48,11.22
28.83916997909546,8.63,-3.01,3.98,9.96
28.839591026306152,7.65,-2.96,3.71,9.0
28.84001922607422,7.05,-2.47,3.27,8.15
28.85013198852539,6.97,-1.88,2.58,7.66
28.860018253326416,6.54,-1.35,2.13,7.0
28.870057106018066,4.87,-1.12,2.06,5.4
28.879969120025635,3.45,-0.78,1.69,3.92
28.889958143234253,3.01,-0.1,1.13,3.21
28.899898052215576,2.63,0.76,0.85,2.86
28.938817024230957,2.06,1.59,0.73,2.7
28.939244270324707,1.32,2.35,0.53,2.74
28.939692974090576,0.47,2.9,-0.01,2.93
28.940114974975586,-0.53,3.2,-0.89,3.36
28.949960231781006,-1.82,3.52,-1.58,4.26
28.95982599258423,-3.15,4.03,-1.8,5.42
28.969839096069336,-4.11,4.31,-1.83,6.23
28.979804039001465,-4.16,3.97,-1.79,6.02
28.989840984344482,-3.39,3.34,-1.69,5.05
28.999799251556396,-2.53,2.74,-1.77,4.12
29.03889012336731,-2.14,2.33,-1.82,3.64
29.039342164993286,-2.33,1.86,-1.94,3.55
29.039781093597412,-3.06,1.72,-2.02,4.04
29.04051923751831,-3.85,1.95,-1.9,4.71
29.049736976623535,-4.25,1.88,-1.88,5.01
29.059730052947998,-4.75,1.39,-1.81,5.26
29.069687128067017,-5.65,0.44,-2.08,6.03
29.079683303833008,-6.83,-0.98,-2.86,7.46
29.089702129364014,-7.89,-2.33,-3.37,8.89
29.099667072296143,-8.27,-3.46,-3.32,9.55
29.139084100723267,-7.97,-2.32,-3.23,8.9
29.13953399658203,-6.03,4.27,-2.97,7.96
29.139965057373047,-4.69,1.55,-2.16,5.39
29.14073610305786,-7.53,-2.92,-2.35,8.41
29.14960527420044,-4.86,-2.45,-3.77,6.62
29.159579277038574,4.56,-0.39,0.27,4.58
29.169552087783813,10.56,0.56,6.64,12.48
29.17961812019348,7.83,0.75,4.14,8.88
29.18956708908081,0.47,1.4,-1.02,1.79
29.19955611228943,-3.8,2.32,-2.38,5.04
29.2398099899292,-2.29,4.01,-0.67,4.66
29.240241050720215,-1.44,6.95,-0.13,7.09
29.241039276123047,-3.53,6.93,-1.33,7.89
29.241465091705322,-4.33,2.73,-1.21,5.25
29.249450206756592,-2.89,0.84,-0.99,3.16
29.25950527191162,-2.69,-2.08,-2.17,4.03
29.26942729949951,-1.71,-1.88,-2.45,3.53
29.27949619293213,-0.98,-0.98,-1.38,1.95
29.289411067962646,-0.84,-1.98,-0.19,2.15
29.299445152282715,-1.55,-2.75,0.14,3.15
29.339534282684326,-2.03,-2.53,-0.23,3.25
29.339966297149658,-2.7,-1.59,-0.71,3.21
29.3403902053833,-3.04,0.37,-1.52,3.41
29.341185092926025,-2.18,1.73,-1.01,2.96
29.349316120147705,-1.25,2.2,-0.84,2.66
29.359313011169434,-0.3,0.44,-1.21,1.32
29.369243144989014,-0.53,-0.43,-0.32,0.75
29.379316091537476,-1.0,-0.18,-0.18,1.03
29.389249086380005,-1.47,0.17,-0.38,1.52
29.39927911758423,-1.65,0.2,-0.12,1.66
29.439245223999023,-1.48,-0.22,0.03,1.49
29.439675092697144,-1.53,-0.46,0.0,1.59
29.44007921218872,-1.53,-0.52,-0.16,1.62
29.440484046936035,-1.38,-0.39,-0.42,1.49
29.449140071868896,-1.17,-0.38,-0.78,1.45
29.459216117858887,-1.22,-0.34,-0.72,1.45
29.469171047210693,-1.09,-0.14,-0.48,1.19
29.479166984558105,-0.79,-0.17,-0.36,0.88
29.489129066467285,-0.56,-0.12,-0.43,0.71
29.498937129974365,-0.5,0.14,-0.31,0.6
29.53945016860962,-0.47,0.24,-0.13,0.54
29.539887189865112,-0.48,0.03,-0.03,0.48
29.54031229019165,-0.36,-0.01,0.04,0.36
29.541043281555176,-0.15,-0.01,0.23,0.27
29.548980236053467,-0.44,-0.05,0.2,0.48
29.55902624130249,-1.2,-0.15,-0.12,1.21
29.569013118743896,-1.81,-0.1,-0.07,1.81
29.57905411720276,-1.59,-0.15,0.21,1.61
29.58895206451416,-1.13,-0.15,0.26,1.16
29.59889507293701,-1.01,-0.13,0.27,1.05
29.639392137527466,-0.92,-0.22,0.43,1.03
29.639828205108643,-0.98,-0.21,0.34,1.05
29.6402530670166,-1.03,0.04,0.29,1.07
29.64067506790161,-0.75,0.0,0.49,0.89
29.64889430999756,-0.3,-0.27,0.38,0.55
29.65885615348816,-0.08,-0.14,-0.06,0.17
29.668772220611572,0.08,0.0,-0.28,0.29
29.67887020111084,0.27,0.04,-0.48,0.55
29.688836097717285,0.39,0.01,-0.68,0.78
29.698835134506226,0.03,-0.01,-0.84,0.84
29.738920211791992,0.1,0.06,-1.07,1.07
29.739349126815796,0.05,0.19,-1.43,1.44
29.739771127700806,0.23,-0.04,-1.84,1.85
29.740188121795654,0.03,-0.05,-1.45,1.45
29.748791217803955,-0.12,-0.22,-0.87,0.9
29.758609294891357,-0.23,-0.13,-0.57,0.62
29.7686710357666,-0.05,-0.04,-0.3,0.3
29.77872109413147,-0.02,-0.14,-0.45,0.47
29.78867816925049,0.09,0.01,-0.25,0.26
29.79869818687439,0.16,-0.26,0.16,0.34
29.83922529220581,0.08,-0.12,0.06,0.15
29.83965826034546,-0.04,-0.22,-0.05,0.22
29.84008026123047,0.2,-0.11,-0.28,0.36
29.84049916267395,0.56,-0.08,-0.53,0.77
29.848671197891235,0.74,-0.23,-0.51,0.92
29.858453273773193,0.68,-0.17,-0.69,0.98
29.868558168411255,0.8,-0.04,-0.92,1.21
29.87872815132141,1.02,-0.05,-0.95,1.39
29.888622283935547,0.92,-0.08,-0.71,1.16
29.898614168167114,0.75,0.01,-0.12,0.75
29.939340114593506,0.55,0.05,0.7,0.89
29.93977117538452,0.12,0.07,0.91,0.92
29.940192222595215,-0.25,-0.01,0.7,0.74
29.940620183944702,-0.11,0.12,0.42,0.45
29.94850730895996,0.47,0.08,0.32,0.57
29.958401203155518,0.64,-0.07,0.34,0.72
29.968294143676758,0.29,-0.16,0.15,0.36
29.978459119796753,0.02,-0.05,0.0,0.05
29.98836898803711,-0.06,0.06,0.03,0.09
29.998332977294922,0.0,0.1,0.03,0.1
30.039420127868652,0.2,0.12,-0.11,0.25
30.039849281311035,0.42,0.04,-0.13,0.44
30.04027009010315,0.48,-0.03,-0.12,0.49
30.04069209098816,0.5,-0.01,-0.35,0.61
30.048307180404663,0.66,-0.01,-0.26,0.7
30.058463096618652,0.71,-0.09,0.03,0.71
30.06819200515747,0.67,-0.04,0.07,0.67
30.07829213142395,0.47,-0.02,-0.14,0.49
30.088252067565918,0.47,-0.04,-0.09,0.48
30.098263263702393,0.89,-0.08,0.08,0.89
30.108263969421387,1.12,-0.16,0.34,1.18
30.13915729522705,0.99,-0.17,0.42,1.08
30.139583110809326,0.26,-0.24,0.41,0.54
