time,ax,ay,az,atotal
0.0007681846618652344,0.11,0.09,-0.11,0.17
0.001049041748046875,0.75,-0.05,-0.21,0.78
0.001312255859375,0.41,-0.18,-0.13,0.46
0.0015730857849121094,-0.05,0.24,-0.03,0.24
0.0077800750732421875,0.28,0.12,0.17,0.34
0.01832413673400879,0.0,-0.25,0.16,0.29
0.028025150299072266,0.15,-0.06,-0.12,0.2
0.037734031677246094,0.0,0.01,-0.09,0.09
0.04840898513793945,-0.16,-0.06,-0.13,0.21
0.05768299102783203,-0.1,-0.03,-0.1,0.14
0.09985518455505371,-0.04,-0.03,0.03,0.05
0.10011816024780273,-0.01,-0.04,0.1,0.1
0.10038018226623535,0.04,0.02,0.11,0.11
0.10063409805297852,0.05,0.03,0.1,0.11
0.10747909545898438,0.05,-0.02,0.05,0.07
0.11810517311096191,0.08,-0.02,0.04,0.09
0.12791013717651367,0.04,-0.01,0.02,0.04
0.13762211799621582,0.0,-0.02,0.03,0.03
0.14823198318481445,0.04,-0.05,0.05,0.08
0.15761423110961914,0.11,-0.05,0.05,0.13
0.19945001602172852,0.18,0.01,0.05,0.18
0.19971227645874023,0.16,0.05,0.02,0.16
0.19996929168701172,0.05,0.03,0.0,0.05
0.20022821426391602,-0.03,-0.05,-0.04,0.07
0.20734500885009766,0.0,-0.08,-0.07,0.1
0.21805715560913086,0.02,0.03,0.03,0.04
0.2273721694946289,-0.01,0.09,0.05,0.1
0.23741412162780762,-0.03,0.06,0.01,0.06
0.24810028076171875,-0.07,0.05,-0.03,0.09
0.2573843002319336,-0.08,-0.04,0.01,0.09
0.2990541458129883,-0.03,-0.08,0.04,0.09
0.2993180751800537,0.01,-0.02,0.05,0.05
0.2995762825012207,0.06,0.02,0.06,0.08
0.2998332977294922,0.17,0.01,0.07,0.18
0.3072361946105957,0.33,-0.04,0.08,0.34
0.31784725189208984,0.41,-0.05,0.11,0.42
0.3274350166320801,0.25,0.0,0.04,0.25
0.33723926544189453,0.03,0.0,0.06,0.06
0.3479290008544922,-0.01,0.0,0.07,0.07
0.35727405548095703,0.03,-0.02,0.06,0.06
0.39868712425231934,0.01,-0.01,0.04,0.04
0.39895009994506836,-0.07,0.0,-0.03,0.07
0.3991971015930176,-0.13,0.0,-0.06,0.14
0.3994450569152832,-0.13,-0.01,-0.13,0.18
0.40703916549682617,-0.12,0.01,-0.18,0.21
0.4176502227783203,-0.09,0.0,-0.18,0.2
0.42716121673583984,-0.08,-0.02,-0.1,0.12
0.43720316886901855,-0.06,0.0,-0.05,0.07
0.4478182792663574,-0.04,-0.02,0.03,0.05
0.45714807510375977,-0.02,-0.03,0.1,0.1
0.4987759590148926,-0.05,-0.02,0.15,0.15
0.4990382194519043,-0.01,0.0,0.13,0.13
0.4992990493774414,0.03,0.02,0.02,0.04
0.4995591640472412,0.06,0.03,-0.1,0.12
0.5069270133972168,0.01,0.02,-0.17,0.17
0.5175480842590332,0.0,0.01,-0.2,0.2
0.5270020961761475,0.05,0.0,-0.14,0.14
0.5369892120361328,0.12,0.01,-0.07,0.13
0.5476400852203369,0.08,0.01,-0.02,0.08
0.5571060180664062,0.06,-0.01,0.0,0.06
0.5982100963592529,0.11,0.01,0.08,0.13
0.598473072052002,0.1,0.0,0.07,0.12
0.5987110137939453,0.08,0.0,0.04,0.08
0.5989651679992676,0.07,0.02,0.06,0.09
0.6067342758178711,0.06,-0.02,0.06,0.08
0.6173839569091797,0.09,-0.04,0.02,0.1
0.6267890930175781,0.09,-0.06,-0.04,0.11
0.6369190216064453,0.03,-0.01,-0.05,0.05
0.6474862098693848,-0.02,0.03,-0.02,0.04
0.6568102836608887,0.03,0.01,0.04,0.05
0.6982631683349609,0.09,-0.01,0.11,0.14
0.6985311508178711,0.11,-0.02,0.1,0.15
0.6987900733947754,0.07,0.0,0.06,0.09
0.6990470886230469,0.04,0.02,0.16,0.16
0.7066011428833008,0.05,0.02,0.18,0.18
0.7172460556030273,0.11,-0.03,0.17,0.2
0.7266802787780762,0.11,-0.07,0.13,0.18
0.7366962432861328,0.03,-0.03,0.02,0.04
0.7474160194396973,0.01,0.01,-0.03,0.03
0.7566800117492676,0.05,0.01,-0.01,0.05
0.7977299690246582,0.09,-0.05,0.04,0.11
0.797971248626709,0.05,-0.1,0.04,0.11
0.7982239723205566,-0.1,-0.06,0.01,0.11
0.7984809875488281,-0.18,0.01,-0.01,0.18
0.806516170501709,-0.08,0.03,0.01,0.08
0.8170342445373535,0.02,-0.01,0.03,0.03
0.8264989852905273,0.08,-0.02,0.07,0.1
0.8364830017089844,0.08,-0.03,0.08,0.11
0.8471651077270508,0.04,-0.02,0.06,0.07
0.8564939498901367,0.01,-0.02,0.01,0.02
0.8990302085876465,0.01,-0.02,-0.05,0.05
0.8992919921875,0.06,-0.01,-0.15,0.16
0.8995580673217773,0.07,0.02,-0.19,0.2
0.8998150825500488,0.06,0.01,-0.17,0.18
0.9063811302185059,0.05,0.01,-0.11,0.12
0.9169201850891113,0.06,0.02,-0.03,0.06
0.9263219833374023,0.04,0.02,0.02,0.04
0.9363861083984375,0.02,0.02,0.06,0.06
0.9470751285552979,0.07,0.02,0.07,0.1
0.9565200805664062,0.08,0.0,0.06,0.1
0.9983751773834229,0.04,-0.02,0.02,0.04
0.9986352920532227,-0.04,0.01,-0.02,0.04
0.9989011287689209,0.0,0.03,-0.06,0.06
0.9991590976715088,0.12,0.04,-0.12,0.17
1.0061922073364258,0.24,0.04,-0.12,0.27
1.0167431831359863,0.24,0.03,-0.14,0.27
1.026327133178711,0.15,0.05,-0.27,0.31
1.0364611148834229,0.16,0.01,-0.3,0.34
1.046797275543213,0.13,-0.03,-0.21,0.24
1.0562171936035156,0.13,-0.04,-0.06,0.14
1.097994089126587,0.2,0.0,0.17,0.26
1.0982532501220703,0.19,0.07,0.27,0.33
1.098494052886963,0.19,0.08,0.25,0.32
1.0987482070922852,0.28,0.04,0.21,0.35
1.1060640811920166,0.42,-0.03,0.13,0.44
1.1166801452636719,0.56,-0.04,0.04,0.56
1.1262481212615967,0.58,0.0,0.04,0.58
1.136099100112915,0.44,0.03,0.02,0.44
1.1466741561889648,0.21,-0.02,-0.11,0.23
1.1561212539672852,-0.07,-0.09,-0.15,0.18
1.1981561183929443,-0.27,-0.05,-0.11,0.29
1.1984210014343262,-0.29,0.04,-0.09,0.3
1.1986820697784424,-0.2,0.01,-0.03,0.2
1.1989431381225586,-0.05,-0.02,0.01,0.05
1.2059071063995361,0.13,0.0,0.05,0.13
1.216576099395752,-0.02,-0.03,-0.03,0.04
1.225959300994873,-0.3,-0.04,-0.02,0.3
1.2360320091247559,-0.49,-0.09,0.06,0.5
1.246575117111206,-0.42,-0.06,0.09,0.43
1.2559962272644043,-0.27,0.04,-0.11,0.29
1.2975351810455322,-0.14,0.01,-0.36,0.38
1.2977981567382812,-0.13,-0.02,-0.42,0.44
1.2980411052703857,-0.24,-0.09,-0.42,0.49
1.2982971668243408,-0.44,-0.1,-0.35,0.57
1.3057951927185059,-0.48,-0.05,-0.24,0.53
1.3163352012634277,-0.37,-0.06,-0.17,0.41
1.3257651329040527,-0.26,-0.02,-0.08,0.27
1.3358759880065918,-0.2,0.03,-0.04,0.2
1.3465242385864258,-0.12,0.0,-0.02,0.12
1.3558692932128906,0.0,0.03,-0.01,0.03
1.3970541954040527,0.03,0.03,-0.07,0.08
1.3973171710968018,-0.07,-0.05,-0.11,0.13
1.3975701332092285,-0.12,-0.04,-0.04,0.13
1.3978261947631836,-0.1,0.06,-0.03,0.12
1.4057540893554688,0.14,0.07,-0.04,0.16
1.4162611961364746,0.38,0.06,0.04,0.38
1.425652027130127,0.51,0.02,0.12,0.52
1.435664176940918,0.5,0.0,0.14,0.51
1.4465711116790771,0.34,0.02,0.13,0.36
1.4556760787963867,0.15,0.06,-0.02,0.16
1.4978232383728027,-0.01,0.03,-0.1,0.1
1.4981169700622559,0.07,-0.02,-0.01,0.07
1.4983770847320557,0.19,-0.03,0.06,0.2
1.498636245727539,0.29,0.0,0.03,0.29
1.5054702758789062,0.36,0.0,0.08,0.36
1.5161571502685547,0.35,0.05,0.12,0.37
1.5256271362304688,0.21,0.08,0.13,0.25
1.5355892181396484,0.16,0.06,0.12,0.2
1.5784449577331543,0.21,0.07,0.04,0.22
1.5790331363677979,0.25,0.01,-0.01,0.25
1.5792970657348633,0.21,-0.03,-0.04,0.21
1.5795681476593018,0.11,0.0,-0.11,0.15
1.5854110717773438,-0.01,-0.01,-0.13,0.13
1.5957231521606445,-0.03,-0.01,-0.01,0.03
1.6054229736328125,0.13,0.04,0.07,0.15
1.6160471439361572,0.15,0.02,0.05,0.15
1.6254072189331055,0.0,-0.02,-0.08,0.08
1.635493278503418,-0.08,-0.06,-0.15,0.18
1.6804580688476562,-0.16,-0.05,-0.18,0.24
1.6807191371917725,-0.23,-0.01,-0.14,0.26
1.6809792518615723,-0.36,0.03,-0.15,0.39
1.6812362670898438,-0.42,-0.01,-0.12,0.43
1.685272216796875,-0.31,-0.05,0.02,0.31
1.6952691078186035,-0.18,0.01,0.05,0.18
1.7052512168884277,-0.07,0.07,-0.03,0.1
1.7159020900726318,0.01,0.09,-0.13,0.15
1.7252321243286133,0.08,0.09,-0.15,0.19
1.7353720664978027,0.09,0.0,-0.09,0.12
1.7810592651367188,-0.04,-0.08,-0.16,0.18
1.781322956085205,-0.14,-0.07,-0.27,0.31
1.781567096710205,-0.04,-0.07,-0.19,0.2
1.781825065612793,0.07,-0.06,0.01,0.09
1.7852561473846436,0.03,-0.08,0.02,0.08
1.7951021194458008,0.03,-0.01,0.03,0.04
1.8051600456237793,0.01,-0.05,0.18,0.18
1.8157241344451904,0.0,-0.12,0.34,0.36
1.8251852989196777,-0.04,-0.07,0.4,0.4
1.8351922035217285,-0.08,-0.05,0.4,0.41
1.8804781436920166,0.1,-0.07,0.34,0.36
1.8807461261749268,0.28,-0.05,0.25,0.37
1.881014108657837,0.18,-0.06,0.18,0.26
1.8812751770019531,-0.01,-0.1,0.08,0.12
1.8850491046905518,-0.18,-0.05,0.01,0.18
1.8950061798095703,-0.2,-0.03,-0.02,0.2
1.9050111770629883,0.01,-0.08,0.17,0.18
1.9156570434570312,0.29,-0.02,0.25,0.38
1.9250140190124512,0.29,0.06,0.16,0.33
1.9351441860198975,0.08,0.04,0.07,0.11
1.9800450801849365,-0.05,-0.03,0.05,0.07
1.9803152084350586,-0.07,-0.12,0.29,0.32
1.9805781841278076,0.09,-0.11,0.43,0.45
1.9808382987976074,0.14,-0.14,0.21,0.28
1.984823226928711,-0.03,-0.18,0.1,0.2
1.9949421882629395,-0.06,-0.07,-0.02,0.09
2.0048201084136963,-0.11,0.05,-0.08,0.14
2.0153391361236572,-0.14,-0.06,0.12,0.19
2.024726152420044,-0.1,-0.14,0.12,0.2
2.034844160079956,-0.22,-0.14,0.02,0.26
2.0456290245056152,-0.38,-0.03,0.0,0.38
2.0800740718841553,-0.24,0.04,0.21,0.32
2.080343246459961,0.0,0.01,0.19,0.19
2.0806021690368652,0.19,-0.06,0.07,0.21
2.0846762657165527,0.25,-0.1,0.03,0.27
2.09472918510437,0.12,-0.01,-0.29,0.31
2.1047821044921875,-0.09,0.08,-0.26,0.28
2.115211009979248,-0.16,0.06,0.06,0.18
2.124627113342285,-0.32,0.09,0.1,0.34
2.1347451210021973,-0.34,0.03,0.03,0.34
2.145468235015869,-0.29,-0.18,0.04,0.34
2.1794371604919434,-0.11,-0.11,0.09,0.17
2.1796979904174805,0.21,0.12,0.16,0.28
2.1799559593200684,0.14,0.15,0.05,0.21
2.1844260692596436,-0.27,0.07,-0.31,0.41
2.1944069862365723,-0.61,0.03,-0.32,0.68
2.20440411567688,-0.49,-0.01,-0.11,0.5
2.214998245239258,-0.39,-0.09,0.29,0.49
2.2244200706481934,-0.46,-0.01,0.36,0.58
2.2345330715179443,-0.37,0.07,-0.06,0.38
2.245333194732666,-0.3,0.08,-0.3,0.43
2.280034065246582,-0.29,0.09,-0.54,0.61
2.2802982330322266,-0.39,-0.04,-0.73,0.82
2.280557155609131,-0.3,-0.13,-0.44,0.54
2.2843689918518066,0.12,-0.09,-0.16,0.21
2.294278144836426,0.36,-0.08,-0.1,0.38
2.3043150901794434,0.44,-0.01,-0.11,0.45
2.314908027648926,0.51,0.06,-0.17,0.54
2.324429988861084,0.37,0.0,-0.33,0.49
2.3344850540161133,-0.09,0.1,-0.46,0.47
2.3452961444854736,-0.58,0.0,-0.39,0.69
2.3793702125549316,-0.49,-0.02,-0.19,0.52
2.3796329498291016,-0.15,0.07,-0.1,0.19
2.379892110824585,0.02,0.15,-0.15,0.21
2.384235143661499,0.02,0.45,-0.2,0.49
2.3942480087280273,0.04,0.99,-0.55,1.13
2.4042201042175293,0.48,1.17,-0.49,1.35
2.4148221015930176,0.68,0.26,-0.19,0.75
2.424405097961426,0.74,-0.71,-0.09,1.02
2.4343230724334717,0.81,-0.97,-0.37,1.31
2.4451441764831543,0.44,-0.7,-0.62,1.03
2.479875087738037,0.05,-0.26,-0.55,0.61
2.480140209197998,-0.3,0.08,-0.26,0.4
2.48040509223938,-0.47,0.21,0.25,0.57
2.484192132949829,-0.33,0.18,0.56,0.67
2.494102954864502,-0.31,-0.03,0.61,0.68
2.5040531158447266,-0.4,-0.24,0.82,0.94
2.51454496383667,-0.39,-0.3,0.79,0.93
2.5240392684936523,-0.06,-0.19,0.63,0.66
2.5340821743011475,0.22,-0.1,0.28,0.36
2.5449442863464355,0.08,-0.14,0.14,0.21
2.5799002647399902,-0.32,-0.09,-0.1,0.34
2.580148220062256,-0.32,-0.04,-0.22,0.39
2.580409049987793,-0.28,0.0,-0.06,0.28
2.584010124206543,0.07,0.02,0.06,0.09
2.5940632820129395,0.38,-0.09,0.21,0.44
2.6040260791778564,0.31,-0.09,0.35,0.47
2.6144661903381348,-0.03,-0.05,0.32,0.32
2.623991012573242,-0.03,0.05,0.2,0.2
2.634026050567627,0.15,0.17,0.26,0.34
2.6447572708129883,0.51,0.07,0.41,0.65
2.6804311275482178,0.75,-0.02,0.57,0.94
2.680675983428955,0.74,-0.02,0.45,0.86
2.6809351444244385,0.79,0.09,0.24,0.83
2.6837902069091797,1.25,0.22,0.08,1.27
2.6938209533691406,1.8,0.17,0.37,1.84
2.703799247741699,1.77,0.07,0.49,1.83
2.714285135269165,1.58,-0.15,0.42,1.64
2.7239670753479004,1.5,-0.2,0.45,1.57
2.7338900566101074,1.4,-0.15,0.54,1.5
2.744737148284912,1.42,-0.2,0.73,1.6
2.7802882194519043,1.58,-0.26,0.96,1.86
2.7805590629577637,1.77,-0.21,1.27,2.18
2.7808170318603516,1.69,-0.2,1.1,2.02
2.783719062805176,0.9,-0.28,-0.03,0.94
2.7936062812805176,0.19,-0.1,-0.65,0.68
2.8036890029907227,0.03,0.02,-0.31,0.31
2.8143019676208496,0.14,0.09,0.03,0.16
2.823707103729248,-0.24,0.28,-0.13,0.39
2.8336939811706543,-1.74,0.49,-0.9,2.01
2.84456729888916,-2.54,0.76,-0.96,2.81
2.88055419921875,-1.54,0.74,-0.44,1.76
2.8808202743530273,-0.14,0.54,-0.72,0.91
2.8810782432556152,0.0,0.57,-0.23,0.61
2.8835461139678955,0.01,0.71,0.83,1.09
2.8935370445251465,0.58,0.85,0.81,1.3
2.903501033782959,1.01,0.97,0.53,1.49
2.914424180984497,1.25,1.06,0.21,1.65
2.9236490726470947,1.5,1.1,-0.1,1.86
2.9336562156677246,1.74,1.29,0.21,2.17
2.9443211555480957,2.29,1.91,0.69,3.06
2.9803521633148193,2.41,1.93,1.2,3.31
2.9806160926818848,1.65,1.8,1.54,2.88
2.980877161026001,1.36,2.01,1.94,3.1
2.9833760261535645,1.64,2.01,1.64,3.06
2.993360996246338,1.65,1.86,1.62,2.96
3.0034351348876953,1.83,1.84,1.53,3.01
3.0143370628356934,2.44,2.33,1.55,3.71
3.023409128189087,3.4,3.33,1.62,5.02
3.033452033996582,4.41,4.26,2.17,6.5
3.0443782806396484,4.88,4.35,3.09,7.23
3.08081316947937,4.86,4.2,3.82,7.47
3.0810770988464355,4.74,4.51,4.07,7.7
3.08133602142334,5.23,5.22,4.59,8.69
3.0833020210266113,5.77,4.84,4.47,8.75
3.0932650566101074,5.56,4.69,3.01,7.87
3.103267192840576,5.37,5.41,2.24,7.94
3.114204168319702,4.55,5.75,1.29,7.44
3.12326717376709,2.67,6.37,-0.46,6.92
3.1332921981811523,1.73,6.2,-1.14,6.53
3.144029140472412,1.96,6.04,-2.07,6.67
3.1806511878967285,1.95,6.44,-1.09,6.81
3.180915117263794,1.58,4.79,1.39,5.23
3.1812021732330322,2.39,3.77,2.08,4.92
3.183103084564209,1.05,5.02,0.24,5.13
3.1931872367858887,0.83,6.0,-1.79,6.31
3.203083038330078,5.05,5.04,0.94,7.19
3.214038133621216,6.94,3.55,2.44,8.16
3.2231740951538086,6.27,2.83,2.01,7.16
3.233077049255371,5.14,2.22,1.35,5.75
3.2438302040100098,4.49,1.38,1.22,4.85
3.2808799743652344,4.19,0.69,1.53,4.51
3.2811501026153564,4.02,0.35,2.03,4.51
3.2814080715179443,3.76,0.09,2.44,4.48
3.2830190658569336,3.28,-0.19,2.61,4.19
3.292847156524658,2.66,-0.45,2.5,3.67
3.30298113822937,2.07,-0.63,2.37,3.2
3.313858985900879,1.51,-0.84,2.32,2.89
3.3229880332946777,1.12,-1.03,2.04,2.54
3.332980155944824,1.12,-1.3,1.89,2.55
3.3437089920043945,1.17,-1.63,1.69,2.62
3.3803961277008057,1.12,-2.05,1.39,2.71
3.380657196044922,0.78,-2.61,1.08,2.93
3.3809151649475098,0.32,-3.17,0.65,3.25
3.3828210830688477,-0.08,-3.57,0.34,3.58
3.39284610748291,-0.34,-3.87,-0.05,3.88
3.4028372764587402,-0.62,-4.15,-0.2,4.2
3.4134371280670166,-1.37,-4.07,-0.55,4.32
3.42283296585083,-2.15,-3.6,-1.14,4.34
3.4328770637512207,-2.73,-2.92,-2.15,4.53
3.443631172180176,-3.25,-2.24,-2.94,4.92
3.4814372062683105,-4.26,-1.37,-4.04,6.02
3.4817020893096924,-4.89,-0.51,-5.18,7.14
3.4819531440734863,-5.19,0.34,-5.18,7.34
3.4826979637145996,-5.49,1.36,-5.25,7.71
3.4927010536193848,-5.79,2.09,-6.07,8.64
3.5026869773864746,-6.63,2.0,-7.04,9.87
3.513280153274536,-7.97,1.35,-7.45,10.99
3.522735118865967,-9.06,0.44,-7.91,12.03
3.532703161239624,-9.24,-1.04,-8.09,12.32
3.5434751510620117,-8.64,-2.56,-7.1,11.47
3.5802721977233887,-8.06,-3.06,-6.77,10.96
3.5808541774749756,-7.54,-3.42,-6.44,10.48
3.5811209678649902,-7.17,-3.8,-5.4,9.74
3.582517147064209,-7.02,-1.0,-4.96,8.65
3.5927000045776367,-2.45,0.39,-3.72,4.47
3.6025540828704834,-0.93,-1.78,-2.51,3.21
3.6131350994110107,7.29,8.3,9.55,14.6
3.6229071617126465,17.15,12.8,17.82,27.84
3.632568120956421,8.99,10.42,-3.41,14.17
3.643179178237915,-2.33,7.76,-5.3,9.68
3.679814100265503,-8.22,1.96,-2.05,8.69
3.680077075958252,-9.46,1.33,-4.37,10.5
3.6803390979766846,-10.83,1.72,-4.06,11.69
3.682490110397339,-10.06,-0.67,-4.55,11.06
3.6923911571502686,-5.31,-2.34,-5.49,7.98
3.702371120452881,-3.17,-1.64,-5.97,6.95
3.7129361629486084,-3.14,-0.52,-4.78,5.74
3.7224221229553223,-3.56,0.57,-3.28,4.87
3.73264217376709,-2.75,1.09,-2.52,3.88
3.7430973052978516,-1.07,0.94,-1.98,2.43
3.7797012329101562,-0.15,0.74,-1.2,1.41
3.7799630165100098,-0.07,0.67,-0.38,0.77
3.780222177505493,-0.13,0.36,-0.11,0.39
3.7823221683502197,-0.16,-0.05,-0.25,0.3
3.79219913482666,-0.22,-0.18,-0.41,0.49
3.8022451400756836,-0.24,-0.11,-0.56,0.61
3.8128621578216553,-0.27,-0.19,-0.65,0.72
3.822272300720215,-0.11,-0.33,-0.77,0.84
3.8322372436523438,0.16,-0.33,-0.93,0.99
3.8430490493774414,0.32,-0.14,-0.79,0.86
3.879939079284668,0.42,-0.09,-0.53,0.68
3.880202293395996,0.35,-0.04,0.02,0.35
3.8804612159729004,0.23,0.1,0.68,0.72
3.8821041584014893,0.32,0.23,0.92,1.0
3.8920812606811523,0.35,0.33,0.42,0.63
3.9020981788635254,0.39,0.18,0.41,0.59
3.9126710891723633,0.58,-0.1,0.94,1.1
3.922394275665283,1.04,-0.16,0.81,1.32
3.932159185409546,1.6,0.01,0.54,1.68
3.942901134490967,2.17,-0.04,0.72,2.28
3.980532169342041,2.14,-0.14,1.02,2.37
3.981100082397461,1.6,-0.09,1.11,1.94
3.9813642501831055,0.91,-0.15,1.2,1.51
3.9819250106811523,0.72,-0.16,1.5,1.67
3.9918999671936035,1.2,-0.09,1.37,1.82
4.001960277557373,1.43,-0.03,0.66,1.57
4.012526035308838,0.88,0.15,0.41,0.98
4.022014141082764,0.24,0.4,0.14,0.48
4.031883239746094,-0.08,0.54,0.09,0.55
4.042745113372803,-0.1,0.44,0.31,0.54
4.080649137496948,0.44,0.29,0.72,0.89
4.081156253814697,1.16,0.25,1.15,1.65
4.081582069396973,1.64,0.47,1.42,2.21
4.081882953643799,1.86,0.78,1.62,2.58
4.0918731689453125,1.75,1.11,1.41,2.5
4.101789951324463,1.81,1.34,1.35,2.62
4.112558126449585,1.76,1.71,1.78,3.03
4.121869087219238,2.26,2.31,2.57,4.12
4.131726264953613,2.31,2.48,2.93,4.48
4.142624139785767,2.53,2.66,3.24,4.89
4.180400133132935,2.88,2.52,3.41,5.12
4.180665969848633,3.42,2.58,3.17,5.32
4.1812920570373535,3.74,2.95,3.23,5.75
4.1817193031311035,4.17,3.82,3.54,6.67
4.191718101501465,5.22,5.31,3.93,8.41
4.201693058013916,6.58,6.78,4.7,10.55
4.212254047393799,6.92,7.89,5.76,11.97
4.221747159957886,6.42,9.36,6.3,12.98
4.231773138046265,5.85,10.7,6.57,13.85
4.2424070835113525,5.05,11.23,7.5,14.41
4.280922174453735,4.64,11.1,7.39,14.11
4.281646251678467,4.64,9.92,3.84,11.6
4.281912088394165,4.71,9.25,-0.59,10.39
4.2822041511535645,3.21,10.59,-4.08,11.79
4.291543006896973,-0.56,13.42,-2.97,13.75
4.301544189453125,-2.11,13.67,-0.02,13.83
4.312047004699707,1.08,10.88,0.47,10.94
4.321628093719482,3.26,5.81,0.72,6.7
4.331919193267822,1.46,1.2,1.97,2.72
4.342397212982178,-3.11,-1.71,-2.4,4.28
4.381343126296997,-2.65,0.33,-5.08,5.73
4.381604194641113,2.17,2.69,-0.48,3.48
4.381861209869385,6.69,1.31,2.28,7.18
4.3821210861206055,9.15,-0.93,3.76,9.93
4.391376972198486,9.19,-2.48,4.79,10.65
4.401278972625732,7.77,-3.44,4.37,9.55
4.4117560386657715,6.12,-3.42,3.17,7.69
4.421415090560913,4.91,-2.71,2.21,6.02
4.431787967681885,4.2,-1.88,2.05,5.03
4.442187070846558,3.83,-1.4,2.29,4.67
4.480537176132202,3.38,-1.59,2.47,4.47
4.480978012084961,2.61,-1.93,2.24,3.94
4.481525182723999,1.99,-2.05,1.6,3.27
4.481785297393799,1.46,-2.06,0.96,2.7
4.491225242614746,1.14,-2.13,0.67,2.5
4.501248121261597,1.05,-2.31,1.0,2.72
4.511842250823975,0.72,-2.39,0.74,2.6
4.521269083023071,0.08,-2.37,0.47,2.41
4.531702041625977,-0.51,-2.17,0.3,2.24
4.542035102844238,-1.06,-2.25,-0.02,2.48
4.580885171890259,-2.52,-2.27,-0.26,3.4
4.581153154373169,-3.58,-1.28,-1.26,4.0
4.581732273101807,-3.84,-0.24,-2.69,4.69
4.581995010375977,-4.34,0.94,-3.52,5.66
4.591076135635376,-5.19,2.16,-4.9,7.45
4.601095199584961,-6.12,2.68,-6.34,9.21
4.611687183380127,-6.99,2.9,-5.23,9.19
4.621157169342041,-7.66,2.94,-4.12,9.18
4.6311891078948975,-7.54,3.38,-4.95,9.63
4.6418070793151855,-6.59,4.68,-6.2,10.18
4.681044101715088,-5.73,6.1,-7.21,11.04
4.681671142578125,-5.11,5.92,-7.3,10.69
4.681936264038086,-4.86,3.04,-5.03,7.62
4.682196140289307,-5.79,-1.22,-4.9,7.68
4.691076278686523,-7.4,-4.55,-6.31,10.73
4.701025009155273,-9.43,-5.18,-6.31,12.47
4.71156120300293,-10.07,-3.28,-6.89,12.63
4.721063137054443,-8.35,-1.45,-8.41,11.93
4.731019020080566,-6.17,-1.05,-7.86,10.04
4.7417051792144775,-5.33,-1.42,-6.99,8.9
4.780280113220215,-6.09,-1.2,-7.07,9.4
4.780730247497559,-6.79,3.67,-6.08,9.82
4.7809882164001465,-2.25,3.14,-2.33,4.51
4.781260967254639,1.41,1.38,1.43,2.43
4.790829181671143,4.86,2.09,7.42,9.11
4.800786972045898,5.87,2.53,7.41,9.78
4.811468124389648,6.29,6.6,-0.2,9.11
4.820839166641235,0.65,13.11,-7.42,15.07
4.830924987792969,-4.83,7.21,-4.15,9.61
4.841557025909424,-6.56,2.1,-4.86,8.42
4.8802289962768555,-7.1,0.28,-4.03,8.16
4.880661964416504,-9.64,0.22,-1.61,9.77
4.880921125411987,-8.27,-2.12,-4.22,9.52
4.881179094314575,-5.73,-2.13,-6.98,9.27
4.890696048736572,-4.13,-0.94,-5.9,7.26
4.900879144668579,-3.04,0.35,-3.61,4.73
4.911210060119629,-1.92,0.98,-2.59,3.36
4.92085599899292,-0.38,0.94,-2.04,2.27
4.930689096450806,0.43,0.79,-1.37,1.63
4.941440105438232,0.0,0.61,-0.65,0.89
4.980896949768066,-0.7,0.3,-0.74,1.06
4.981158256530762,-0.92,0.06,-0.9,1.28
4.981410980224609,-1.19,-0.04,-0.47,1.28
4.981987953186035,-1.55,-0.12,0.11,1.55
4.990499973297119,-1.37,-0.05,0.0,1.37
5.0004870891571045,-0.54,0.11,-0.65,0.85
5.01111912727356,0.36,0.07,-1.15,1.2
5.020527124404907,0.9,-0.11,-1.17,1.48
5.030576229095459,1.26,-0.24,-0.76,1.49
5.041306972503662,1.18,-0.17,-0.23,1.21
5.080672264099121,0.69,0.04,0.17,0.71
5.080944061279297,0.36,0.26,0.37,0.57
5.081204175949097,0.33,0.43,0.32,0.62
5.081459045410156,0.41,0.4,0.33,0.66
5.090396165847778,0.48,0.13,0.57,0.75
5.10039210319519,0.97,-0.12,0.86,1.3
5.110935211181641,1.86,-0.21,1.11,2.17
5.120425224304199,2.65,-0.24,1.44,3.02
5.130403995513916,3.2,-0.44,1.94,3.76
5.141266107559204,3.24,-0.62,2.23,3.98
5.180915117263794,2.74,-0.55,2.04,3.46
5.18117618560791,1.83,-0.37,1.54,2.42
5.181436061859131,0.88,-0.17,1.02,1.35
5.182010173797607,0.71,0.07,0.91,1.15
5.190227031707764,1.18,0.22,0.78,1.43
5.200289249420166,1.48,0.23,0.8,1.69
5.212693214416504,1.58,0.23,0.86,1.81
5.2203049659729,1.68,0.09,1.17,2.04
5.23025918006897,1.82,-0.04,1.73,2.51
5.24104118347168,2.03,0.08,1.79,2.7
5.281254291534424,2.14,0.69,1.42,2.65
5.2815141677856445,1.74,1.39,1.05,2.46
5.282131195068359,1.21,2.1,0.71,2.52
5.28239107131958,1.08,2.73,0.61,2.99
5.290107250213623,1.41,3.69,0.95,4.06
5.300189018249512,1.11,3.66,2.58,4.61
5.310724258422852,1.53,3.01,2.79,4.38
5.320864200592041,1.94,2.99,3.1,4.72
5.330228090286255,2.13,2.9,3.24,4.84
5.340911149978638,2.64,3.04,3.09,5.07
5.381157159805298,3.22,3.69,3.0,5.74
5.381401062011719,3.77,4.8,3.0,6.8
5.381659984588623,4.5,5.86,3.3,8.09
5.3822550773620605,5.24,6.33,4.96,9.59
5.389963150024414,5.84,7.25,5.98,11.06
5.39998722076416,6.92,8.72,5.71,12.51
5.410606145858765,7.14,9.76,6.28,13.62
5.419969081878662,6.11,9.65,7.05,13.42
5.430016040802002,5.5,9.27,4.17,11.55
5.440759181976318,5.19,9.71,-1.1,11.06
5.481547117233276,3.89,10.94,-4.86,12.58
5.481812000274658,1.43,13.52,-4.49,14.31
5.482416152954102,1.54,14.18,-0.85,14.28
5.482676982879639,4.24,10.97,1.25,11.82
5.489856243133545,5.08,6.1,1.31,8.04
5.499827146530151,3.46,2.22,1.32,4.31
5.510362148284912,-1.29,-0.52,-0.76,1.58
5.519810199737549,-5.53,-0.83,-6.61,8.65
5.529839038848877,-2.55,2.2,-4.27,5.43
5.540605068206787,3.22,2.68,0.64,4.23
5.58196496963501,6.38,0.42,2.52,6.87
5.582550048828125,7.32,-1.85,4.0,8.54
5.582816123962402,6.71,-3.23,4.82,8.87
5.583096027374268,5.3,-3.73,4.47,7.87
5.589778184890747,4.35,-3.47,3.59,6.62
5.599600076675415,4.0,-2.87,2.88,5.7
5.610279083251953,3.52,-2.29,2.63,4.95
5.619643211364746,2.69,-2.17,2.65,4.35
5.62971830368042,1.73,-2.35,2.34,3.74
5.640422105789185,0.9,-2.36,1.59,2.98
5.681746959686279,0.52,-2.39,1.09,2.67
5.682009220123291,0.38,-2.71,1.5,3.12
5.682610988616943,0.26,-2.93,1.18,3.16
5.682872295379639,0.19,-2.97,0.69,3.05
5.689449071884155,0.14,-2.58,0.66,2.66
5.69947624206543,0.33,-2.16,0.37,2.21
5.710124969482422,-0.93,-1.92,0.38,2.16
5.719689130783081,-1.78,-0.87,-0.28,2.0
5.729576110839844,-2.03,-0.52,-1.1,2.36
5.7403481006622314,-3.15,0.72,-2.73,4.23
5.781505107879639,-4.34,2.2,-6.37,8.01
5.781767129898071,-6.32,2.62,-7.7,10.3
5.782024145126343,-7.51,1.99,-5.1,9.29
5.78260612487793,-7.34,1.1,-3.12,8.05
5.789360046386719,-7.45,1.03,-4.46,8.74
5.799492120742798,-7.44,1.78,-6.04,9.74
5.80998420715332,-6.2,2.63,-6.38,9.27
5.819417953491211,-5.22,3.11,-6.13,8.63
5.8294150829315186,-5.37,3.61,-6.43,9.12
5.840235233306885,-5.33,2.92,-6.18,8.66
5.8817620277404785,-5.57,-0.22,-5.7,7.97
5.882029056549072,-6.83,-3.79,-4.86,9.19
5.882617950439453,-8.88,-5.25,-4.91,11.42
5.882880210876465,-9.87,-4.75,-5.4,12.21
5.889186143875122,-8.36,-3.44,-5.53,10.59
5.899517059326172,-5.03,-2.19,-6.14,8.23
5.909837245941162,-2.8,-1.47,-6.34,7.08
5.919247150421143,-3.53,-1.58,-5.89,7.04
5.929269075393677,-5.98,0.43,-6.61,8.92
5.940011024475098,-3.09,7.4,-1.95,8.25
5.981492042541504,7.1,4.27,4.93,9.64
5.981752157211304,9.4,2.63,8.04,12.64
5.982010126113892,2.94,2.8,8.38,9.31
5.982596158981323,0.09,4.63,2.07,5.07
5.989138126373291,-2.35,9.95,-6.88,12.32
5.99937629699707,-6.88,11.27,-4.78,14.04
6.009716033935547,-8.29,3.68,-0.83,9.1
6.019110202789307,-7.73,2.29,-4.04,9.01
6.0291361808776855,-6.52,0.36,-4.48,7.91
6.039860248565674,-5.24,-0.75,-5.03,7.3
6.080965995788574,-3.65,-2.72,-6.53,7.96
6.081231117248535,-2.5,-1.94,-7.43,8.07
6.081493139266968,-3.28,-0.48,-5.95,6.81
6.081754207611084,-3.51,0.64,-4.26,5.55
6.089035987854004,-1.84,0.8,-3.54,4.06
6.098861217498779,-0.03,0.75,-2.17,2.29
6.109582185745239,0.54,0.79,-0.58,1.11
6.118940114974976,-0.15,0.57,0.29,0.65
6.128993988037109,-1.1,0.11,0.1,1.11
6.139739036560059,-1.85,-0.08,0.07,1.85
6.148990154266357,-2.28,-0.14,0.28,2.3
6.180795192718506,-1.77,-0.23,0.13,1.78
6.181059122085571,-0.64,-0.12,-0.33,0.73
6.181318283081055,0.16,0.05,-0.75,0.76
6.188943147659302,0.71,-0.01,-1.36,1.53
6.198771953582764,0.99,-0.2,-1.42,1.74
6.209444046020508,0.63,-0.22,-0.83,1.06
6.218797206878662,0.25,0.02,-0.2,0.32
6.22885799407959,0.1,0.23,0.44,0.5
6.2395851612091064,-0.02,0.31,0.99,1.03
6.248905181884766,0.27,0.28,1.05,1.11
6.281361103057861,0.91,0.2,0.75,1.19
6.281606197357178,1.43,0.2,0.43,1.5
6.281864166259766,1.6,0.11,0.5,1.67
6.2886741161346436,2.0,-0.11,1.0,2.23
6.2986061573028564,2.5,-0.29,1.44,2.89
6.30929708480835,2.69,-0.46,1.89,3.31
6.318648099899292,2.29,-0.58,2.05,3.12
6.328737258911133,1.49,-0.37,1.74,2.32
6.339524269104004,0.87,-0.13,1.19,1.47
6.348731994628906,0.37,0.05,0.76,0.84
6.381840229034424,0.23,0.27,0.28,0.45
6.382101058959961,0.22,0.33,0.17,0.43
6.382368087768555,0.5,0.22,0.37,0.65
6.388527154922485,1.01,0.13,0.77,1.27
6.398518085479736,1.42,0.16,1.13,1.82
6.409147262573242,1.76,0.31,1.27,2.19
6.4185471534729,1.75,0.44,1.49,2.34
6.4286112785339355,1.52,0.76,1.73,2.42
6.4393510818481445,1.19,1.05,1.53,2.2
6.448575019836426,1.17,1.54,1.43,2.4
6.48163914680481,1.43,2.26,1.45,3.04
6.481899261474609,2.08,3.27,1.81,4.27
6.482155084609985,1.92,3.17,2.2,4.3
6.488491058349609,2.22,3.21,2.12,4.44
6.4984800815582275,2.19,3.01,2.28,4.36
6.509008169174194,2.11,2.9,2.11,4.16
6.518392086029053,2.11,3.06,2.3,4.37
6.528456211090088,2.44,3.55,2.69,5.07
6.539226055145264,3.25,4.66,3.04,6.44
6.548508167266846,4.53,6.24,3.64,8.52
6.581086158752441,5.49,7.22,4.97,10.34
6.5813469886779785,5.37,8.22,6.07,11.54
6.581604957580566,6.32,9.89,7.87,14.13
6.588288068771362,6.86,10.57,8.17,15.01
6.598255157470703,6.2,10.09,8.49,14.57
6.608885288238525,5.24,9.3,6.23,12.35
6.6181840896606445,5.75,9.2,0.34,10.85
6.6283392906188965,6.17,10.3,-4.79,12.92
6.6389710903167725,2.87,13.31,-5.02,14.51
6.648406028747559,-0.38,14.41,-0.51,14.42
6.6817193031311035,1.95,11.64,1.62,11.91
6.681982040405273,4.23,6.52,1.19,7.86
6.682239055633545,3.42,2.28,1.11,4.25
6.688120126724243,-0.73,0.11,0.45,0.86
6.698122978210449,-5.01,-0.1,-5.14,7.17
6.708639144897461,-2.54,2.56,-4.45,5.72
6.718101978302002,3.29,3.48,-0.21,4.79
6.728118181228638,7.51,1.74,1.7,7.89
6.738912105560303,9.0,-0.35,3.47,9.65
6.74816107749939,8.26,-1.63,4.46,9.52
6.7813801765441895,6.29,-2.23,4.1,7.83
6.781641960144043,4.65,-2.3,3.41,6.2
6.781907081604004,3.76,-2.16,3.0,5.27
6.7880330085754395,3.08,-1.93,2.82,4.6
6.798029184341431,2.31,-1.74,2.77,4.0
6.80855917930603,1.69,-1.71,2.63,3.56
6.818041086196899,1.08,-1.87,2.34,3.18
6.828005075454712,0.7,-2.03,1.87,2.84
6.838736057281494,0.59,-2.25,1.8,2.94
6.84813117980957,0.61,-2.36,1.69,2.96
6.881420135498047,0.77,-2.47,1.41,2.94
6.881683111190796,0.46,-2.68,0.99,2.89
6.881943225860596,-0.09,-2.58,0.41,2.61
6.887714147567749,-0.43,-2.34,0.08,2.38
6.897761106491089,-1.01,-2.36,-0.12,2.56
6.908390998840332,-2.16,-2.1,-0.2,3.01
6.917750120162964,-2.87,-1.64,-0.71,3.38
6.927860260009766,-3.38,-1.2,-1.82,4.02
6.938582181930542,-4.61,0.18,-4.28,6.29
6.947922229766846,-6.67,1.1,-7.62,10.18
6.98208212852478,-8.5,1.17,-7.9,11.66
6.982345104217529,-9.28,0.51,-5.58,10.84
6.982604026794434,-9.62,0.09,-5.56,11.11
6.987630128860474,-8.89,0.6,-7.32,11.53
6.997649192810059,-7.57,0.8,-8.19,11.18
7.008191108703613,-7.17,0.81,-8.19,10.91
7.017609119415283,-7.58,0.72,-8.59,11.47
7.027726173400879,-8.29,0.26,-9.54,12.64
7.038457155227661,-8.59,-1.79,-9.26,12.75
7.047787189483643,-8.78,-3.91,-8.11,12.57
7.082040071487427,-8.68,-5.02,-7.95,12.79
7.082319259643555,-8.53,-4.62,-7.97,12.55
7.082582950592041,-8.24,-1.8,-7.78,11.47
7.087525129318237,-4.9,3.49,-5.86,8.39
7.097686290740967,-0.21,-0.7,-5.68,5.72
7.108105182647705,5.54,6.7,4.53,9.8
7.11738920211792,15.43,9.95,17.89,25.63
7.127532005310059,12.15,7.74,4.75,15.16
7.138266086578369,1.43,11.58,-9.23,14.87
7.147548198699951,-5.67,7.8,-7.27,12.07
7.18139910697937,-8.04,-1.58,-0.76,8.22
7.1816630363464355,-11.05,-1.71,-1.71,11.31
7.181921005249023,-11.88,-2.55,-7.12,14.08
7.187188148498535,-7.84,-1.34,-8.74,11.81
7.197138071060181,-5.05,0.46,-7.89,9.37
7.207892179489136,-4.26,1.41,-5.31,6.95
7.217342138290405,-3.59,1.08,-4.39,5.77
7.227370262145996,-1.41,0.4,-3.89,4.15
7.237864971160889,-0.19,0.39,-2.77,2.8
7.247204303741455,-0.24,0.74,-1.6,1.77
7.281610012054443,-0.6,0.91,-1.2,1.62
7.28187108039856,-0.93,0.65,-1.38,1.78
7.282130241394043,-0.85,0.34,-1.45,1.71
7.287140130996704,-0.4,0.13,-0.93,1.02
7.297101020812988,-0.04,-0.09,0.01,0.09
7.307732105255127,-0.08,-0.18,0.14,0.24
7.317209243774414,-0.51,-0.29,-0.31,0.66
7.327221155166626,-0.92,-0.38,-0.56,1.14
7.337852954864502,-0.76,-0.29,-0.71,1.07
7.347196102142334,-0.35,-0.18,-0.55,0.67
7.382030010223389,-0.19,-0.12,-0.31,0.38
7.3822922706604,-0.04,-0.07,0.09,0.12
7.382550239562988,0.18,0.01,0.44,0.47
7.386977195739746,0.3,0.12,0.66,0.73
7.3969502449035645,0.35,0.24,0.77,0.87
7.407532215118408,0.45,0.23,0.8,0.94
7.417331218719482,0.57,0.14,0.58,0.82
7.427114009857178,0.7,0.04,0.4,0.8
7.437747001647949,0.84,-0.08,0.39,0.92
7.446995258331299,0.96,-0.06,0.43,1.05
7.482318162918091,0.97,-0.08,0.38,1.04
7.482583999633789,0.65,-0.01,0.3,0.71
7.4828410148620605,0.33,0.1,0.43,0.55
7.486927032470703,0.18,0.19,0.47,0.53
7.497406005859375,0.31,0.23,0.74,0.83
7.507577180862427,0.97,0.08,1.09,1.46
7.517333984375,1.78,-0.2,1.4,2.27
7.527022123336792,3.05,-0.48,2.06,3.71
7.5377912521362305,4.58,-0.62,2.31,5.16
7.547162055969238,5.0,-0.44,2.25,5.5
7.582155227661133,4.38,-0.12,1.74,4.71
7.582417011260986,3.07,0.07,1.57,3.44
7.58267617225647,1.96,0.22,1.54,2.5
7.5868000984191895,1.43,0.6,1.09,1.89
7.596753120422363,1.43,1.06,0.9,1.99
7.6073832511901855,1.46,1.39,0.83,2.18
7.617195129394531,1.47,1.69,0.84,2.39
7.6268839836120605,1.56,2.14,0.73,2.74
7.637505054473877,1.85,2.81,0.62,3.42
7.646777153015137,1.51,3.8,1.69,4.42
7.682308197021484,1.18,3.47,2.83,4.63
7.682569980621338,1.77,3.81,2.4,4.83
7.682831287384033,2.16,4.65,2.83,5.85
7.6866559982299805,3.03,5.93,2.82,7.23
7.696811199188232,4.59,6.81,3.56,8.95
7.707155227661133,5.13,7.33,4.36,9.95
7.716753959655762,5.46,8.33,4.65,10.99
7.726816177368164,5.91,9.32,6.2,12.65
7.737467288970947,6.53,9.84,7.15,13.8
7.746669292449951,7.42,10.4,6.14,14.17
7.78205418586731,7.35,10.83,5.62,14.24
7.782318115234375,6.68,10.41,3.84,12.95
7.782577991485596,6.46,9.73,-0.35,11.68
7.786524295806885,5.58,10.11,-4.19,12.28
7.796504020690918,3.47,12.57,-5.02,13.97
7.807127952575684,2.59,13.65,-1.37,13.96
7.816431999206543,2.76,9.97,0.82,10.37
7.826698303222656,2.75,5.13,-0.5,5.84
7.837302207946777,0.13,2.42,0.75,2.53
7.8466572761535645,-5.69,1.12,-3.44,6.74
7.882091999053955,-3.66,3.53,-3.26,6.04
7.882359981536865,1.88,4.28,1.51,4.91
7.882619142532349,5.88,2.17,2.7,6.82
7.8864030838012695,6.87,-0.31,4.53,8.23
7.896350145339966,5.94,-1.71,4.97,7.93
7.906965255737305,5.14,-2.09,4.03,6.85
7.916452169418335,3.74,-2.13,3.24,5.38
7.926512241363525,2.38,-2.22,2.68,4.21
7.937197208404541,1.48,-2.63,2.65,4.01
7.9464521408081055,0.92,-3.18,3.01,4.47
7.982767105102539,0.47,-3.64,3.35,4.96
7.983028173446655,0.06,-4.13,3.62,5.49
7.983288288116455,-0.21,-4.34,3.43,5.53
7.986339092254639,-0.16,-4.41,3.44,5.59
7.996218204498291,-0.28,-4.54,3.19,5.55
8.006754159927368,-0.37,-4.65,2.8,5.44
8.016270160675049,-0.45,-4.56,2.44,5.19
8.02635407447815,-0.35,-4.37,1.99,4.81
8.03693413734436,-0.64,-4.3,1.9,4.74
8.046260118484497,-1.63,-3.92,1.59,4.53
8.082911968231201,-2.08,-3.8,0.72,4.39
8.083168029785156,-2.65,-3.46,-0.53,4.39
8.083425998687744,-4.03,-2.51,-2.94,5.58
8.086076259613037,-5.0,-1.64,-5.14,7.35
8.096181154251099,-6.41,-1.08,-4.5,7.9
8.106703281402588,-7.48,-0.85,-3.51,8.3
8.116137981414795,-7.5,-0.13,-4.18,8.58
8.126197099685669,-7.5,0.97,-5.62,9.42
8.136877059936523,-7.57,1.86,-7.09,10.53
8.14612102508545,-7.79,1.81,-7.71,11.1
8.183104991912842,-9.02,1.3,-8.74,12.62
8.183372020721436,-9.7,0.87,-9.46,13.57
8.183621168136597,-9.7,-0.26,-9.14,13.33
8.185917139053345,-9.04,-2.06,-8.28,12.43
8.196001052856445,-8.56,-3.46,-7.55,11.92
8.20646619796753,-8.12,-3.65,-7.52,11.65
8.215952157974243,-7.6,0.27,-7.3,10.54
8.226049184799194,-4.53,1.33,-5.08,6.93
8.236757278442383,-0.62,-3.29,-7.73,8.42
8.246005058288574,6.69,8.71,4.54,11.88
8.282848119735718,17.55,12.53,18.51,28.41
8.28311824798584,10.72,12.8,-4.2,17.21
8.283377170562744,-4.32,12.52,-10.08,16.64
8.28579330444336,-10.15,-0.2,-2.41,10.43
8.295689105987549,-12.84,-2.97,-1.04,13.21
8.306353092193604,-14.04,-1.53,-5.81,15.27
8.315855979919434,-10.96,-2.18,-8.34,13.94
8.325976133346558,-7.04,0.41,-7.3,10.14
8.336653232574463,-3.69,1.54,-4.57,6.07
8.345905303955078,-1.71,1.59,-4.31,4.9
8.383080959320068,-0.84,0.6,-3.69,3.83
8.383344173431396,-0.13,0.25,-3.12,3.13
8.383602142333984,0.06,0.42,-2.6,2.63
8.385733127593994,-0.17,0.54,-1.89,1.97
8.395668029785156,-0.35,0.53,-1.68,1.79
8.406267166137695,-0.16,0.54,-1.69,1.78
8.415706157684326,0.09,0.34,-1.18,1.23
8.425790071487427,0.13,0.25,-0.87,0.91
8.436261177062988,0.22,0.19,-0.47,0.55
8.445703029632568,0.3,-0.03,0.05,0.3
8.482872009277344,0.09,-0.28,0.31,0.42
8.483137130737305,-0.29,-0.19,0.34,0.48
8.48340129852295,-0.37,-0.22,0.46,0.63
8.485523223876953,-0.03,-0.27,0.47,0.54
8.495521068572998,0.45,-0.12,0.47,0.66
8.506175994873047,0.75,-0.04,0.34,0.82
8.515468120574951,0.84,0.03,0.12,0.84
8.52563214302063,0.81,0.19,-0.08,0.83
8.536189079284668,0.76,0.22,0.01,0.79
8.545541286468506,0.82,0.05,0.37,0.9
8.582656145095825,1.15,-0.08,0.77,1.38
8.582900047302246,1.63,-0.08,1.02,1.92
8.583139181137085,1.77,-0.08,1.14,2.1
8.58528995513916,1.54,-0.1,1.11,1.9
8.595307111740112,1.28,-0.17,1.14,1.72
8.605929136276245,1.27,-0.33,0.97,1.63
8.615340232849121,1.5,-0.46,0.99,1.85
8.625447273254395,1.67,-0.46,1.34,2.19
8.635879039764404,1.77,-0.4,1.54,2.38
8.645446300506592,1.93,-0.26,1.34,2.36
8.682711124420166,1.99,-0.16,1.18,2.31
8.68297529220581,2.05,-0.17,1.33,2.44
8.683234214782715,2.28,-0.28,1.5,2.74
8.685116291046143,2.79,-0.46,1.5,3.2
8.695361137390137,3.37,-0.26,1.29,3.61
8.705770015716553,3.51,0.23,0.89,3.62
8.715252161026001,2.63,0.71,0.79,2.83
8.725341081619263,1.24,1.05,1.12,1.97
8.736051082611084,0.37,1.3,1.29,1.86
8.745399951934814,0.36,1.7,1.52,2.3
8.782433032989502,1.11,2.28,1.63,3.01
8.782693147659302,1.77,3.56,1.68,4.31
8.782948017120361,2.24,4.25,2.95,5.63
8.785109996795654,2.06,3.72,3.62,5.58
8.795071125030518,2.44,3.76,4.1,6.07
8.805619239807129,2.68,4.25,4.12,6.49
8.815108299255371,3.27,6.06,3.87,7.89
8.825153112411499,4.75,8.2,3.97,10.27
8.835997104644775,5.76,9.14,5.33,12.04
8.845056056976318,6.76,10.41,6.53,14.02
8.88348913192749,8.36,11.47,7.27,15.94
8.883751153945923,8.65,11.81,6.91,16.18
8.884011268615723,8.36,11.46,5.65,15.26
8.88502025604248,7.46,10.5,2.82,13.18
8.894970178604126,6.08,9.14,-1.92,11.14
8.905508995056152,4.7,9.66,-5.68,12.15
8.914943218231201,-0.01,13.47,-4.05,14.06
8.925100088119507,-2.64,13.8,-0.29,14.05
8.936095237731934,1.56,10.56,-1.82,10.82
8.944990158081055,3.91,5.82,-1.3,7.13
8.984208106994629,1.18,1.7,0.98,2.28
8.984638214111328,-3.82,-0.67,-3.97,5.54
8.985226154327393,-1.45,1.68,-4.55,5.06
8.985490083694458,4.02,3.1,0.76,5.13
8.995028018951416,7.61,1.44,2.4,8.1
9.005428075790405,8.69,-0.66,3.42,9.36
9.014790058135986,7.35,-2.19,3.56,8.45
9.024874210357666,5.76,-2.92,2.71,7.0
9.065808296203613,4.53,-2.89,1.98,5.72
9.06606912612915,3.82,-2.51,1.79,4.9
9.066327095031738,3.52,-2.42,2.04,4.73
9.06658411026001,3.24,-2.75,2.23,4.79
9.074695110321045,2.86,-3.23,2.06,4.78
9.085132122039795,2.39,-3.64,2.05,4.81
9.094689130783081,2.08,-3.87,1.64,4.68
9.105315208435059,1.79,-4.0,1.18,4.53
9.114753246307373,1.4,-4.24,1.17,4.61
9.124767303466797,1.14,-4.35,0.87,4.58
9.16844916343689,1.03,-4.46,0.6,4.61
9.168712139129639,0.7,-4.49,0.46,4.56
9.168975114822388,0.33,-4.4,-0.03,4.41
9.169248104095459,-0.36,-4.43,-0.25,4.45
9.174545288085938,-1.53,-4.15,-0.52,4.45
9.184576034545898,-2.03,-3.83,-1.13,4.47
9.194526195526123,-2.11,-3.41,-1.95,4.45
9.205137252807617,-3.01,-2.26,-3.66,5.25
9.214540004730225,-4.52,-1.12,-6.57,8.05
9.224709033966064,-5.94,-0.16,-7.34,9.44
9.267590999603271,-6.93,0.25,-5.73,8.99
9.267863273620605,-7.34,0.61,-5.3,9.07
9.26812219619751,-7.91,1.68,-6.87,10.61
9.268731117248535,-8.86,2.91,-8.74,12.78
9.274487018585205,-9.96,3.26,-10.04,14.51
9.284478187561035,-10.35,2.84,-10.2,14.8
9.294469118118286,-9.64,1.84,-9.07,13.36
9.304947137832642,-8.76,0.32,-8.28,12.05
9.314352035522461,-7.44,-1.71,-6.88,10.27
9.324471950531006,-6.8,-3.02,-5.83,9.45
9.367175102233887,-7.44,-3.52,-5.56,9.93
9.36744213104248,-8.72,-3.74,-4.99,10.72
9.367701053619385,-9.35,-2.0,-4.67,10.64
9.367958068847656,-5.02,3.57,-4.01,7.35
9.374220132827759,4.14,3.1,1.26,5.32
9.384305000305176,13.04,7.37,12.98,19.82
9.394306182861328,15.87,7.25,13.95,22.33
9.404829025268555,5.36,5.27,3.12,8.13
9.41428804397583,-3.05,6.57,-4.28,8.41
9.424385070800781,-7.35,7.67,-4.98,11.73
9.435003280639648,-8.24,3.16,-1.14,8.89
9.467003107070923,-8.3,0.13,-0.6,8.32
9.467273235321045,-7.94,0.88,-6.48,10.28
9.467541217803955,-6.17,0.17,-7.82,9.96
9.474143028259277,-5.28,0.64,-8.02,9.62
9.484182119369507,-4.6,-0.36,-7.14,8.5
9.494142055511475,-4.72,-0.3,-5.7,7.4
9.504765033721924,-4.38,-0.13,-3.83,5.81
9.514117240905762,-2.86,-0.02,-2.59,3.85
9.524219989776611,-1.17,0.59,-1.47,1.96
9.53499698638916,0.37,1.12,-0.28,1.21
9.567267179489136,1.58,1.05,-0.14,1.9
9.56753396987915,1.56,0.71,-0.76,1.87
9.56779408454895,0.17,0.45,-0.73,0.87
9.57403016090393,-0.91,0.08,-0.41,1.0
9.583961963653564,-1.03,-0.22,-0.36,1.11
9.594040155410767,-0.6,-0.12,-1.01,1.18
9.604607105255127,-0.58,-0.24,-1.9,2.0
9.61414623260498,-0.7,-0.51,-2.04,2.21
9.62406611442566,-0.62,-0.39,-1.07,1.29
9.634724140167236,-0.24,-0.09,0.14,0.29
9.667456150054932,0.34,-0.03,0.97,1.02
9.66771912574768,0.63,-0.07,0.93,1.12
9.667978286743164,0.26,0.09,0.17,0.32
9.6737961769104,-0.44,0.3,-0.5,0.73
9.683804988861084,-0.78,0.26,-0.63,1.03
9.693879127502441,-0.33,0.02,-0.14,0.35
9.704387187957764,1.03,-0.16,0.61,1.2
9.713795185089111,2.61,-0.28,1.36,2.95
9.72399616241455,3.56,-0.59,1.63,3.95
9.734621047973633,3.44,-0.67,1.78,3.93
9.768280982971191,2.61,-0.33,2.06,3.34
9.768862247467041,1.7,-0.22,2.29,2.86
9.769126176834106,0.98,-0.1,1.79,2.04
9.773661136627197,0.63,0.24,1.27,1.43
9.783748149871826,0.48,0.44,1.13,1.3
9.793673038482666,1.05,0.43,1.02,1.52
9.804375171661377,2.1,0.33,1.23,2.45
9.813682079315186,2.64,0.0,1.82,3.2
9.823829174041748,2.9,-0.02,2.53,3.84
9.834557056427002,2.79,0.13,2.39,3.67
9.868414163589478,2.41,0.44,2.07,3.2
9.869007110595703,2.17,0.83,1.81,2.94
9.869270086288452,1.95,1.21,1.43,2.7
9.873513221740723,1.79,1.76,0.87,2.65
9.883628129959106,1.83,2.63,0.24,3.21
9.893509149551392,1.64,3.57,0.87,4.02
9.904067039489746,1.09,3.13,1.81,3.77
9.913514137268066,1.31,2.85,2.37,3.93
9.923705101013184,1.49,2.7,2.92,4.24
9.934360027313232,1.53,2.96,3.05,4.51
9.967785120010376,1.76,3.41,3.41,5.13
9.968043088912964,2.35,3.9,3.74,5.89
9.968297958374023,2.93,4.75,4.0,6.86
9.973429203033447,4.04,6.6,4.38,8.89
9.983351230621338,6.43,8.04,6.34,12.09
9.993422985076904,7.28,8.36,7.49,13.37
10.003976106643677,7.6,8.92,7.65,13.99
10.013436079025269,8.15,9.18,8.23,14.77
10.023587226867676,8.06,8.95,6.95,13.9
10.034235954284668,7.52,9.04,2.14,11.95
10.068483114242554,6.57,9.92,-4.06,12.57
10.06905221939087,2.98,12.14,-7.23,14.44
10.069314002990723,-2.14,14.64,-3.42,15.18
10.073191165924072,-1.54,13.04,1.17,13.18
10.08328628540039,3.24,8.81,0.98,9.43
10.093231201171875,4.89,4.8,0.19,6.85
10.103728294372559,2.2,1.62,0.71,2.82
10.113333225250244,-3.64,-0.37,-3.44,5.02
10.1234450340271,-5.03,1.24,-6.87,8.6
10.134119987487793,0.07,3.51,-2.39,4.24
10.169019222259521,4.9,2.61,0.77,5.6
10.169281005859375,7.01,0.29,2.32,7.38
10.169542074203491,6.75,-1.68,3.95,7.99
10.173143148422241,5.5,-2.88,4.29,7.54
10.183118104934692,4.78,-3.43,3.51,6.85
10.193250179290771,4.49,-3.37,2.61,6.19
10.203525066375732,4.02,-2.93,2.39,5.51
10.213198184967041,3.29,-2.56,2.55,4.88
10.22327995300293,2.55,-2.55,2.42,4.34
10.233972072601318,1.86,-2.76,1.92,3.84
10.269923210144043,0.97,-3.08,1.37,3.5
10.270187139511108,0.24,-3.33,0.66,3.4
10.270445108413696,0.05,-3.53,0.45,3.55
10.272968292236328,0.31,-3.58,0.24,3.6
10.282915115356445,0.71,-3.61,0.14,3.68
10.29295015335083,0.92,-3.47,0.02,3.58
10.30357813835144,0.43,-3.57,-0.17,3.59
10.312952041625977,-1.17,-3.63,-0.39,3.83
10.323058128356934,-2.18,-3.45,-1.07,4.21
10.33371615409851,-2.69,-3.44,-2.36,4.96
10.369538068771362,-3.56,-2.55,-3.91,5.87
10.369799137115479,-4.92,-1.74,-6.37,8.23
10.370058059692383,-6.83,-1.42,-6.72,9.68
10.372799158096313,-7.79,-1.48,-4.65,9.19
10.382805109024048,-7.25,-0.98,-3.98,8.32
10.392832279205322,-6.56,0.36,-5.27,8.42
10.403658151626587,-6.75,1.67,-6.59,9.58
10.412844181060791,-7.17,2.44,-7.54,10.68
10.423326969146729,-8.03,2.69,-8.28,11.84
10.433742046356201,-9.53,2.52,-8.93,13.3
10.470268249511719,-10.44,1.39,-8.67,13.64
10.470532178878784,-10.24,-1.19,-7.68,12.85
10.470790147781372,-9.15,-3.52,-6.43,11.72
10.472728252410889,-8.65,-3.68,-5.72,11.0
10.482696056365967,-8.95,-3.08,-5.13,10.76
10.492704153060913,-8.72,-3.01,-4.66,10.33
10.503677129745483,-7.97,-2.86,-4.69,9.67
10.51301097869873,-7.52,-2.04,-5.21,9.37
10.522815227508545,-5.06,3.72,-4.56,7.76
10.533419132232666,6.8,3.72,0.65,7.77
10.570236206054688,13.38,5.24,6.86,15.92
10.570499181747437,20.83,11.19,19.18,30.44
10.570757150650024,9.96,7.0,5.31,13.28
10.572633266448975,-3.93,8.85,-7.35,12.15
10.582616090774536,-9.71,6.3,-4.56,12.44
10.59239912033081,-10.44,-0.24,-0.96,10.48
10.60354208946228,-12.42,0.49,-0.87,12.46
10.612635135650635,-12.74,-1.62,-2.7,13.12
10.62263822555542,-8.82,0.16,-4.28,9.8
10.633238077163696,-4.38,-0.02,-6.03,7.45
10.671173095703125,-1.64,0.26,-6.63,6.83
10.671439170837402,-1.47,0.29,-5.08,5.29
10.671720027923584,-1.12,0.33,-3.89,4.06
10.672433137893677,-0.58,0.48,-3.71,3.78
10.682372093200684,-0.27,0.7,-2.94,3.03
10.692346096038818,-0.42,0.8,-1.73,1.95
10.703347206115723,-0.83,0.6,-0.93,1.38
10.712372303009033,-1.33,0.37,-0.38,1.43
10.722486972808838,-1.97,0.19,0.28,1.99
10.733148097991943,-2.13,0.09,0.87,2.3
10.771790027618408,-1.32,0.1,0.96,1.63
10.772247076034546,-0.14,0.09,0.62,0.64
10.772507190704346,1.02,-0.11,0.15,1.03
10.77276611328125,1.73,-0.34,0.06,1.76
10.782219171524048,2.1,-0.47,-0.1,2.15
10.79228401184082,2.11,-0.4,-0.24,2.16
10.803171157836914,1.55,-0.21,-0.33,1.59
10.812227249145508,0.73,-0.02,-0.25,0.77
10.82230520248413,0.38,-0.01,-0.03,0.38
10.832975149154663,0.58,-0.06,0.37,0.69
10.871591091156006,1.07,-0.06,0.82,1.34
10.8720121383667,1.54,-0.11,1.18,1.94
10.872270107269287,1.83,-0.16,1.56,2.41
10.872527122497559,1.86,-0.06,1.72,2.53
10.882086277008057,1.76,-0.02,1.71,2.45
10.892167091369629,1.4,-0.13,1.46,2.02
10.902630090713501,0.99,-0.33,1.28,1.65
10.912023067474365,0.89,-0.38,1.06,1.43
10.922173976898193,1.06,-0.28,0.92,1.43
10.932855129241943,1.21,-0.17,0.94,1.54
10.971862077713013,1.43,-0.04,0.8,1.63
10.972133159637451,1.41,0.04,0.63,1.54
10.972393035888672,1.28,0.05,0.73,1.47
10.972651958465576,1.44,0.11,0.89,1.69
10.98192024230957,1.69,0.07,1.23,2.09
10.992006301879883,1.8,0.15,1.6,2.41
11.002544164657593,1.83,0.35,1.88,2.64
11.011988162994385,1.71,0.54,2.06,2.73
11.022083282470703,1.74,1.07,1.8,2.72
11.034211158752441,1.73,1.59,1.6,2.84
11.072247982025146,1.62,1.99,1.25,2.85
11.072515964508057,1.85,2.88,1.1,3.59
11.072772979736328,2.13,3.87,1.52,4.67
11.073029041290283,1.62,3.93,2.41,4.88
11.08205795288086,1.78,3.87,2.68,5.03
11.091873168945312,2.15,4.22,3.02,5.61
11.102505207061768,2.96,5.35,3.03,6.82
11.111731052398682,4.51,6.26,3.66,8.53
11.121891021728516,5.25,6.59,4.5,9.55
11.132564067840576,5.68,7.36,4.92,10.51
11.172518253326416,6.16,8.42,6.14,12.1
11.172778129577637,6.93,9.54,8.25,14.39
11.173035144805908,7.69,9.97,8.31,15.08
11.17329216003418,7.55,9.82,7.23,14.34
11.181567192077637,7.59,9.54,5.13,13.22
11.191521167755127,7.48,9.24,0.02,11.88
11.20211911201477,5.79,9.67,-4.56,12.15
11.211559295654297,1.39,11.93,-5.17,13.07
11.221590995788574,-1.25,13.6,-1.41,13.72
11.232365131378174,1.31,11.46,2.0,11.7
11.273451089859009,2.54,6.92,2.36,7.74
11.273711204528809,1.54,3.09,1.97,3.97
11.27396821975708,-2.42,0.48,0.67,2.55
11.274225234985352,-6.83,0.16,-5.98,9.07
11.281455993652344,-3.16,3.8,-3.94,6.32
11.291462182998657,2.78,4.23,1.42,5.25
11.302279949188232,6.47,1.96,2.72,7.28
11.31166696548462,7.66,-0.36,4.36,8.82
11.321709156036377,6.44,-2.16,4.98,8.42
11.332167148590088,4.49,-2.95,4.16,6.79
11.373402118682861,3.01,-2.71,3.32,5.23
11.373668193817139,2.08,-2.05,3.15,4.29
11.373929977416992,1.25,-1.57,3.55,4.07
11.374189138412476,0.44,-1.61,3.69,4.04
11.381442070007324,-0.26,-1.82,3.25,3.73
11.391440153121948,-0.96,-1.95,2.6,3.38
11.401926040649414,-1.17,-2.18,2.28,3.36
11.411417007446289,-0.74,-2.37,2.4,3.45
11.42151927947998,-0.22,-2.55,2.18,3.36
11.43219518661499,0.2,-2.74,1.89,3.33
11.473953247070312,0.37,-3.08,1.67,3.52
11.47421908378601,0.26,-3.44,1.01,3.59
11.47447919845581,-0.09,-4.02,0.79,4.09
11.474737167358398,-1.07,-4.33,0.7,4.51
11.481203079223633,-2.04,-4.16,-0.08,4.63
11.491206169128418,-2.89,-3.84,-1.33,4.98
11.501863956451416,-4.34,-3.15,-3.03,6.15
11.511232137680054,-5.73,-2.59,-5.65,8.45
11.521175146102905,-6.68,-2.22,-6.35,9.48
11.53196907043457,-6.9,-2.07,-5.13,8.84
11.574525117874146,-6.46,-1.62,-5.2,8.44
11.574799060821533,-6.19,-0.65,-6.61,9.07
11.575064182281494,-6.99,0.28,-8.48,10.99
11.575327157974243,-8.05,0.71,-9.84,12.73
11.581089973449707,-8.59,0.44,-9.98,13.17
11.591183185577393,-9.05,-0.58,-9.94,13.45
11.601715087890625,-9.44,-2.33,-10.21,14.09
11.611283302307129,-9.47,-3.83,-10.32,14.52
11.621129035949707,-9.15,-4.68,-10.07,14.38
11.631912231445312,-8.73,-5.11,-9.26,13.71
11.674424171447754,-8.64,-3.59,-8.91,12.91
11.67469596862793,-6.63,3.27,-6.19,9.64
11.674957275390625,0.29,-1.5,-4.07,4.34
11.67521619796753,10.5,9.53,11.92,18.52
11.68150520324707,23.39,15.53,20.67,34.86
11.690985202789307,12.76,20.39,-12.71,27.2
11.701563119888306,-2.72,11.9,-10.21,15.91
11.711101055145264,-11.88,-3.86,-4.37,13.23
11.720988273620605,-13.2,-6.18,-4.33,15.2
11.731772184371948,-14.46,-2.97,-6.66,16.19
11.773142099380493,-12.89,-2.42,-9.97,16.47
11.773411273956299,-7.68,0.61,-7.23,10.56
11.773672103881836,-4.43,1.47,-3.29,5.71
11.773930072784424,-1.43,0.7,-2.63,3.07
11.780737161636353,0.45,0.26,-2.44,2.49
11.79079818725586,0.92,0.56,-1.83,2.12
11.801400184631348,0.3,1.01,-1.29,1.66
11.810873031616211,-0.58,0.86,-1.75,2.03
11.820765018463135,-0.77,0.54,-2.1,2.3
11.83151626586914,-0.39,0.22,-1.6,1.66
11.873591184616089,0.08,0.06,-1.23,1.23
11.873852252960205,0.01,0.02,-0.98,0.98
11.874114036560059,-0.38,-0.02,-0.8,0.88
11.87435507774353,-0.56,-0.13,-0.8,0.98
11.880656242370605,-0.24,-0.21,-0.73,0.79
11.890752077102661,0.22,-0.19,-0.35,0.45
11.901285171508789,0.49,-0.19,0.28,0.59
11.910650253295898,0.74,-0.17,0.98,1.23
11.920717239379883,1.22,-0.1,1.31,1.79
11.93138313293457,1.6,0.01,1.38,2.11
11.97364616394043,1.45,0.08,1.24,1.9
11.97390604019165,1.02,0.02,0.86,1.33
11.974163055419922,0.97,-0.1,0.55,1.11
11.974420070648193,1.33,-0.04,0.47,1.41
11.980459213256836,1.91,0.02,0.53,1.98
11.990530014038086,2.24,0.07,0.98,2.44
12.00111722946167,2.22,0.19,1.27,2.56
12.010509014129639,2.03,0.16,1.52,2.54
12.020761013031006,1.68,0.07,1.66,2.36
12.031326293945312,1.25,0.04,1.57,2.0
12.074634075164795,0.98,-0.08,1.2,1.55
12.074899196624756,0.71,-0.11,0.59,0.92
12.07515811920166,0.32,-0.03,-0.04,0.32
12.075420141220093,0.04,0.06,-0.23,0.24
12.080397129058838,-0.18,0.14,-0.29,0.36
12.090407133102417,-0.16,0.26,-0.17,0.34
12.100996017456055,0.26,0.34,0.27,0.5
12.110361099243164,0.81,0.39,0.81,1.21
12.12070107460022,1.07,0.44,1.22,1.68
12.131158113479614,1.06,0.52,1.22,1.69
12.174561977386475,0.74,0.54,1.25,1.54
12.174822092056274,0.72,0.77,1.26,1.64
12.175079107284546,0.75,1.29,1.36,2.01
12.175333976745605,1.13,1.65,1.26,2.36
12.180204153060913,1.86,1.8,1.12,2.82
12.190264225006104,1.98,1.77,1.35,2.97
12.200719118118286,2.09,1.76,1.59,3.16
12.210265159606934,2.44,1.87,1.9,3.61
12.220558166503906,2.69,2.18,1.88,3.93
12.231075286865234,2.95,2.55,2.08,4.41
12.274874210357666,3.34,2.85,2.44,5.02
12.275138139724731,3.32,3.33,2.94,5.54
12.275395154953003,2.87,4.68,3.41,6.46
12.275650978088379,3.32,7.44,3.67,8.93
12.280121088027954,5.31,9.4,5.81,12.26
12.290132999420166,7.13,10.08,8.17,14.8
12.30065107345581,8.57,10.39,7.94,15.63
12.31013011932373,8.68,10.52,7.85,15.73
12.32020115852356,7.61,10.5,7.41,14.93
12.331017017364502,5.84,9.61,4.69,12.18
12.375383138656616,4.38,8.93,-0.31,9.95
12.375646114349365,3.17,9.46,-4.22,10.83
12.375905990600586,-0.56,12.97,-4.41,13.71
12.376167297363281,-2.15,14.4,-0.63,14.57
12.379945278167725,1.2,11.28,-0.02,11.34
12.38994312286377,2.86,6.71,-1.18,7.38
12.400493144989014,1.87,2.97,0.16,3.51
12.40996503829956,-2.92,0.73,-1.22,3.24
12.419986248016357,-5.21,1.42,-6.26,8.26
12.430763244628906,-0.65,4.45,-1.85,4.86
12.475459098815918,4.12,4.38,1.78,6.27
12.47572112083435,6.77,2.22,2.86,7.67
12.475983142852783,6.69,0.12,3.84,7.71
12.476243019104004,5.58,-1.2,3.6,6.74
12.479755163192749,4.87,-1.83,2.91,5.96
12.489765167236328,3.77,-1.85,2.47,4.87
12.500267028808594,2.49,-1.79,2.03,3.67
12.509716987609863,1.53,-1.99,1.87,3.13
12.519845008850098,0.72,-2.39,1.89,3.13
12.530601024627686,0.12,-2.84,1.86,3.39
12.576044082641602,-0.06,-3.38,2.0,3.92
12.576319217681885,-0.16,-3.48,1.73,3.88
12.576581001281738,-0.12,-3.17,1.28,3.42
12.576841115951538,0.09,-2.81,1.08,3.01
12.579661130905151,0.3,-2.6,0.88,2.76
12.58963418006897,0.45,-2.76,0.62,2.86
12.600195169448853,0.51,-3.23,0.43,3.29
12.609720230102539,0.31,-3.76,0.42,3.79
12.619753122329712,0.08,-4.23,0.5,4.26
12.630560159683228,-0.22,-4.48,0.28,4.49
12.676340103149414,-1.0,-4.5,-0.22,4.61
12.676606178283691,-2.06,-4.43,-1.12,5.01
12.676867008209229,-3.04,-4.37,-1.76,5.6
12.67712926864624,-3.98,-4.18,-2.3,6.21
12.679686069488525,-4.7,-3.74,-3.05,6.73
12.689501285552979,-5.15,-3.15,-4.07,7.28
12.700114250183105,-5.67,-2.55,-5.04,8.0
12.709722995758057,-6.22,-2.2,-5.83,8.8
12.719568252563477,-6.38,-1.84,-6.46,9.26
12.730360984802246,-6.49,-1.61,-6.96,9.65
12.7776780128479,-7.03,-1.34,-7.5,10.36
12.777940273284912,-7.88,-1.16,-8.31,11.51
12.778199195861816,-8.12,-1.44,-9.02,12.22
12.778455257415771,-7.78,-2.01,-9.33,12.31
12.77933120727539,-7.43,-2.08,-9.32,12.09
12.789395093917847,-7.24,-2.29,-9.0,11.77
12.79996919631958,-7.1,-2.89,-8.46,11.41
12.809420108795166,-7.11,-3.29,-8.21,11.34
12.819401264190674,-7.21,-3.9,-8.0,11.45
12.830161094665527,-6.9,0.91,-7.45,10.19
12.877422094345093,-1.83,2.77,-4.32,5.44
12.87768816947937,6.81,5.13,4.18,9.49
12.877950191497803,19.82,16.56,25.84,36.53
12.87821102142334,17.89,15.97,1.75,24.04
12.879295110702515,0.99,12.95,-13.24,18.54
12.889311075210571,-7.3,-0.1,-0.8,7.34
12.899778127670288,-12.88,-2.78,-1.19,13.23
12.909460067749023,-13.61,-3.89,-3.85,14.66
12.919373035430908,-12.15,-2.97,-6.9,14.28
12.930017948150635,-9.46,-1.17,-7.93,12.39
12.977205276489258,-4.78,0.67,-5.52,7.33
12.97747015953064,-2.77,0.68,-3.24,4.31
12.977728128433228,-0.93,-0.13,-1.71,1.95
12.977985143661499,0.88,0.15,-2.18,2.35
12.979089260101318,2.13,0.73,-2.25,3.18
12.98917818069458,2.07,1.12,-2.32,3.3
12.999550104141235,0.75,1.12,-2.49,2.83
13.009193181991577,-0.33,0.76,-2.29,2.43
13.019167184829712,-0.7,0.43,-1.81,1.98
13.029904127120972,-0.68,0.03,-1.28,1.44
13.078317165374756,-0.57,-0.23,-1.07,1.23
13.078781127929688,-0.58,-0.17,-1.22,1.36
13.079041004180908,-0.49,-0.11,-1.27,1.36
13.079307079315186,-0.36,-0.04,-1.06,1.12
13.079569101333618,-0.37,0.09,-0.68,0.77
13.088993072509766,-0.35,0.03,-0.26,0.43
13.09960412979126,-0.11,-0.1,0.05,0.15
13.108989238739014,0.18,-0.11,0.36,0.41
13.119050025939941,0.35,-0.03,0.45,0.57
13.129706144332886,0.35,0.06,0.48,0.59
13.178689956665039,0.23,0.11,0.54,0.59
13.178954124450684,0.42,0.1,0.59,0.73
13.179211139678955,0.83,0.0,0.61,1.03
13.179476261138916,1.13,-0.12,0.54,1.25
13.179732084274292,1.29,-0.14,0.58,1.42
13.18867301940918,1.51,-0.1,0.61,1.63
13.199419021606445,1.56,-0.06,0.73,1.72
13.208790302276611,1.17,0.06,0.89,1.47
13.218836069107056,0.83,0.14,1.07,1.36
13.229637145996094,0.65,0.1,1.08,1.26
13.278911113739014,0.39,-0.06,1.16,1.22
13.279176235198975,0.47,-0.19,1.14,1.24
13.279433250427246,0.96,-0.25,1.0,1.4
13.279690265655518,1.67,-0.33,0.74,1.85
13.279949188232422,2.41,-0.31,0.59,2.5
13.28856897354126,2.73,-0.25,0.53,2.79
13.299238204956055,2.59,-0.11,0.75,2.69
13.308643102645874,1.83,0.13,1.08,2.12
13.318708181381226,1.31,0.39,1.82,2.27
13.329363107681274,1.2,0.7,2.26,2.65
13.379088163375854,1.17,1.0,2.26,2.73
13.379347085952759,1.33,1.39,1.57,2.48
13.379603147506714,1.23,1.81,1.03,2.41
13.37985897064209,0.74,2.38,0.95,2.66
13.380114078521729,1.03,3.15,1.31,3.56
13.38838529586792,1.27,3.49,2.25,4.34
13.399086952209473,1.88,3.71,2.42,4.81
13.408526182174683,2.35,3.68,2.89,5.23
13.418557167053223,2.7,3.58,2.88,5.32
13.429124116897583,2.83,4.01,2.78,5.64
13.479539155960083,3.23,4.99,2.57,6.47
13.479799270629883,4.72,6.19,2.61,8.21
13.480056285858154,6.12,6.55,3.9,9.77
13.480309963226318,6.2,6.89,4.88,10.47
13.48056411743164,6.61,8.18,6.54,12.38
13.488368034362793,7.89,9.77,8.28,15.04
13.498907089233398,8.67,10.54,7.94,15.78
13.508466243743896,8.13,10.4,6.95,14.91
13.518527030944824,7.09,10.12,4.17,13.04
13.529093265533447,5.82,10.19,-0.31,11.73
13.580152988433838,3.48,11.12,-4.78,12.59
13.58039903640747,0.13,13.53,-4.78,14.35
13.580660104751587,-0.5,14.17,-1.18,14.22
13.58091926574707,2.27,11.18,1.7,11.53
13.581178188323975,3.13,6.17,2.68,7.41
13.58847713470459,1.52,2.36,2.91,4.04
13.598828077316284,-4.03,0.36,-1.05,4.18
13.608270168304443,-6.77,2.12,-6.34,9.51
13.618280172348022,-1.74,5.46,-1.41,5.9
13.628951072692871,3.74,4.63,1.52,6.14
13.680152177810669,6.12,1.92,2.47,6.87
13.680421113967896,6.22,-0.07,3.31,7.04
13.680681228637695,5.69,-1.41,3.44,6.79
13.68093729019165,4.95,-2.33,3.37,6.42
13.681197166442871,4.21,-2.83,3.21,6.0
13.68846607208252,3.43,-2.76,3.07,5.36
13.698606014251709,2.44,-2.5,3.07,4.65
13.708049297332764,1.56,-2.51,3.17,4.33
13.718062162399292,0.51,-2.87,3.04,4.21
13.728890180587769,-0.34,-3.1,2.49,3.99
13.780266284942627,-0.65,-3.39,2.29,4.14
13.781100273132324,-0.33,-3.7,2.27,4.35
13.78139615058899,0.23,-3.82,1.99,4.31
13.781695127487183,0.71,-3.84,1.81,4.3
13.78198528289795,1.22,-3.88,1.56,4.35
13.788418292999268,1.25,-4.15,1.54,4.59
13.798542022705078,0.02,-4.29,1.53,4.55
13.808042049407959,-0.97,-4.34,0.65,4.49
13.817999124526978,-1.33,-4.1,-0.62,4.35
13.828619956970215,-2.63,-3.14,-2.21,4.65
13.838086128234863,-4.66,-2.32,-4.41,6.82
13.881200075149536,-6.44,-1.79,-5.08,8.39
13.881466150283813,-7.54,-1.8,-3.96,8.7
13.88172721862793,-7.74,-1.67,-3.98,8.86
13.881984233856201,-7.94,-0.81,-5.44,9.65
13.88791799545288,-8.07,0.27,-6.74,10.51
13.898382186889648,-7.7,0.9,-7.07,10.49
13.90782117843628,-7.87,1.18,-7.28,10.78
13.917849063873291,-8.93,1.26,-8.22,12.2
13.928514003753662,-9.38,0.96,-8.9,12.96
13.937875270843506,-8.93,-0.06,-8.77,12.51
13.981439113616943,-8.48,-2.08,-8.05,11.87
13.981702089309692,-8.68,-4.11,-7.16,11.97
13.981965065002441,-9.06,-4.34,-7.04,12.26
13.982225179672241,-9.09,-3.57,-7.38,12.24
13.987774133682251,-8.35,2.65,-6.42,10.86
13.998258113861084,-3.95,-2.32,-6.16,7.67
14.00759506225586,2.7,2.21,-3.09,4.66
14.017867088317871,15.87,14.2,19.39,28.8
14.028419971466064,17.95,14.4,6.47,23.9
14.03769302368164,2.06,16.16,-11.5,19.94
14.077070236206055,-7.25,2.97,-1.52,7.98
14.07749605178833,-11.28,-2.43,-3.11,11.95
14.077758073806763,-10.62,-4.4,-5.28,12.65
14.078015089035034,-9.89,-3.23,-6.16,12.09
14.08763313293457,-9.31,-2.57,-7.94,12.5
14.098174095153809,-5.78,0.57,-7.41,9.41
14.107532024383545,-4.15,1.67,-4.8,6.56
14.117614269256592,-2.0,0.52,-3.27,3.86
14.128288269042969,0.44,-0.19,-1.07,1.17
14.137673139572144,1.8,0.21,-0.93,2.03
14.178260087966919,1.54,0.58,-1.27,2.07
14.178528070449829,-0.01,0.69,-1.85,1.97
14.178788185119629,-1.21,0.89,-2.31,2.75
14.17904806137085,-1.3,0.82,-1.59,2.21
14.187471151351929,-1.08,0.37,-1.21,1.66
14.197953224182129,-0.98,-0.06,-1.07,1.45
14.207411289215088,-0.78,-0.27,-0.96,1.26
14.217406272888184,-0.47,-0.3,-1.07,1.2
14.228020191192627,-0.31,-0.23,-0.89,0.97
14.237508296966553,-0.4,-0.05,-0.43,0.58
14.278582096099854,-0.4,0.05,-0.47,0.61
14.278847217559814,-0.1,0.13,-0.27,0.31
14.279102087020874,0.14,0.22,0.18,0.31
14.279361248016357,0.05,0.11,0.4,0.41
14.287286281585693,-0.07,0.0,0.69,0.69
14.297858238220215,0.09,0.04,0.73,0.73
14.307240962982178,0.58,0.14,0.32,0.67
14.319268226623535,1.0,0.25,0.25,1.06
14.327993154525757,1.19,0.26,0.29,1.25
14.337284088134766,1.11,0.19,0.35,1.17
14.379280090332031,1.06,0.15,0.83,1.35
14.379545211791992,1.32,0.09,1.36,1.89
14.379807949066162,1.49,0.02,1.49,2.1
14.380048274993896,1.37,0.02,1.46,2.0
14.387115955352783,1.09,-0.01,1.35,1.73
14.397716045379639,1.01,0.05,1.08,1.47
14.407071113586426,1.18,0.14,0.72,1.38
14.417137145996094,1.1,0.28,0.38,1.19
14.428240299224854,0.91,0.4,0.4,1.07
14.437148094177246,0.93,0.3,0.65,1.17
14.479168176651001,1.25,0.19,0.86,1.52
14.4794282913208,1.82,0.15,1.12,2.14
14.479684114456177,2.27,0.33,1.49,2.73
14.479938983917236,2.26,0.63,1.64,2.86
14.486942291259766,2.2,1.34,1.65,3.05
14.497462272644043,1.52,1.9,1.72,2.97
14.506898164749146,0.86,2.15,1.76,2.9
14.516991138458252,1.07,2.3,1.8,3.11
14.527652263641357,1.68,2.3,1.97,3.46
14.53710412979126,2.5,2.29,2.01,3.94
14.57921028137207,3.1,2.37,2.14,4.45
14.579471111297607,3.37,2.49,2.37,4.81
14.579728126525879,3.34,2.56,2.57,4.93
14.579983234405518,3.28,2.93,2.81,5.21
14.586881160736084,3.43,4.13,2.88,6.09
14.597455024719238,4.49,6.06,3.05,8.13
14.60683298110962,5.72,7.06,4.49,10.13
14.616919994354248,5.68,7.82,5.54,11.14
14.627563953399658,6.24,9.42,7.0,13.29
14.636810302734375,7.13,10.72,8.05,15.18
14.67967414855957,6.71,10.72,7.85,14.88
14.679934024810791,5.34,9.45,6.37,12.58
14.680190086364746,5.51,9.13,1.37,10.75
14.680453300476074,5.83,10.19,-3.55,12.26
14.686702251434326,2.76,12.42,-5.32,13.79
14.697241067886353,-1.74,14.14,-3.06,14.57
14.706618070602417,-0.78,12.53,-0.69,12.57
14.716777086257935,2.5,8.6,-0.17,8.95
14.727388143539429,3.34,4.3,0.65,5.48
14.736683130264282,-0.93,1.13,0.21,1.47
14.780426979064941,-4.67,0.72,-5.33,7.12
14.780693054199219,-0.49,3.5,-2.71,4.45
14.780951976776123,4.65,3.46,1.13,5.9
14.781208038330078,7.19,1.5,2.24,7.67
14.786485195159912,7.0,-0.42,3.36,7.77
14.796998023986816,5.88,-1.69,3.18,6.89
14.806408166885376,4.93,-1.94,2.08,5.69
14.816573143005371,3.91,-1.66,1.26,4.43
14.827194213867188,3.2,-1.64,1.24,3.8
14.836589097976685,2.9,-1.95,1.49,3.79
14.881042957305908,2.63,-2.2,1.48,3.73
14.881306171417236,2.01,-2.5,1.27,3.45
14.881567001342773,1.15,-3.06,1.03,3.42
14.881824016571045,0.43,-3.48,0.88,3.61
14.88648009300232,0.3,-3.5,0.94,3.63
14.897011280059814,0.65,-3.27,1.02,3.48
14.906317234039307,1.17,-2.88,1.13,3.3
14.916475296020508,0.96,-2.12,0.9,2.49
14.927066087722778,0.26,-2.16,-0.21,2.18
14.936407089233398,-1.23,-2.92,-0.8,3.26
14.980624198913574,-2.37,-3.07,-2.59,4.66
14.980894088745117,-2.2,-3.02,-3.91,5.4
14.981153011322021,-2.11,-3.31,-1.51,4.2
14.98140811920166,-1.42,-3.78,-0.27,4.04
14.986166954040527,-1.25,-3.64,-1.08,3.99
14.996814250946045,-1.68,-3.15,-2.06,4.12
15.006164073944092,-2.62,-2.77,-2.29,4.44
15.016294956207275,-3.67,-2.35,-2.35,4.95
15.026942253112793,-4.6,-1.99,-3.23,5.96
15.036227226257324,-5.83,-1.54,-4.82,7.71
15.081714153289795,-6.92,-0.95,-5.94,9.16
15.081981182098389,-7.81,-0.55,-6.54,10.2
15.082245111465454,-8.74,-0.52,-7.15,11.3
15.08250904083252,-9.3,-0.81,-7.44,11.93
15.086042165756226,-8.81,-1.27,-6.58,11.06
15.096683025360107,-8.36,-1.79,-5.88,10.37
15.106321096420288,-8.5,-2.19,-6.19,10.74
15.11612606048584,-8.27,-2.35,-6.17,10.58
15.126793146133423,-7.6,-2.43,-5.65,9.77
15.136081218719482,-7.44,-2.58,-5.31,9.49
15.181527137756348,-7.76,-2.7,-4.78,9.5
15.18178915977478,-8.02,-2.86,-4.21,9.49
15.182048082351685,-8.83,-0.92,-4.34,9.88
15.182305097579956,-5.66,1.57,-4.63,7.47
15.186071157455444,-1.45,-3.76,-4.91,6.35
15.196437120437622,5.8,9.78,3.94,12.03
15.206254005432129,23.6,19.76,22.29,38.0
15.216008186340332,12.74,17.1,-0.94,21.34
15.226611137390137,-4.85,8.41,-5.76,11.28
15.235952138900757,-8.89,-3.21,1.68,9.59
15.282559156417847,-10.23,-1.0,-3.35,10.81
15.282824993133545,-10.29,-0.77,-2.68,10.66
15.283087253570557,-10.4,-3.15,-2.7,11.19
15.283347129821777,-8.36,-1.88,-6.34,10.65
15.285837173461914,-5.47,0.0,-5.22,7.56
15.29630708694458,-3.97,0.4,-3.11,5.05
15.306128978729248,-2.57,0.03,-2.24,3.4
15.315912246704102,-0.47,0.11,-2.71,2.75
15.326473236083984,1.18,0.56,-2.25,2.6
15.335774183273315,1.01,0.92,-1.16,1.79
15.382777214050293,-0.46,0.96,-1.26,1.64
15.383042097091675,-1.45,0.59,-2.06,2.58
15.383302211761475,-1.71,0.31,-1.63,2.38
15.383563995361328,-1.32,0.0,-0.54,1.42
15.385639190673828,-0.81,-0.27,-0.21,0.87
15.396196126937866,-0.74,-0.34,-0.54,0.97
15.405737161636353,-0.8,-0.35,-0.4,0.96
15.415837287902832,-0.51,-0.08,-0.26,0.57
15.426379203796387,-0.12,0.29,-0.52,0.6
15.43568229675293,0.16,0.38,-0.96,1.04
15.483072280883789,0.3,0.38,-1.02,1.12
15.483339071273804,0.36,0.32,-0.68,0.83
15.48360013961792,0.38,0.16,-0.25,0.48
15.483857154846191,0.22,-0.07,0.25,0.34
15.485504150390625,0.03,-0.07,0.86,0.86
15.496026992797852,0.29,0.17,0.76,0.83
15.505516052246094,0.91,0.31,0.38,1.03
15.515635013580322,1.4,0.35,0.28,1.46
15.526163101196289,1.49,0.23,0.48,1.58
15.53547716140747,1.3,0.11,0.75,1.5
15.583829164505005,1.04,-0.01,0.97,1.42
15.584092140197754,0.73,-0.11,1.13,1.34
15.584352970123291,0.65,-0.15,1.25,1.41
15.584609031677246,0.97,-0.18,1.62,1.89
15.585330963134766,1.36,-0.26,1.65,2.15
15.595880031585693,1.52,-0.34,1.29,2.02
15.605335235595703,1.51,-0.25,1.03,1.84
15.615482091903687,1.4,0.01,0.82,1.62
15.626152038574219,1.25,0.23,0.58,1.39
15.635324001312256,1.26,0.22,0.49,1.36
15.683380126953125,1.27,-0.02,0.65,1.42
15.683646202087402,1.16,-0.08,0.84,1.43
15.683895111083984,1.0,0.12,0.84,1.31
15.68415117263794,0.73,0.34,1.0,1.28
15.685286045074463,0.75,0.62,1.33,1.64
15.695708274841309,0.91,0.84,1.66,2.07
15.70515513420105,0.86,0.94,1.6,2.04
15.715274095535278,0.96,1.37,1.1,2.0
15.725852012634277,0.95,1.97,0.84,2.34
15.735198974609375,1.56,2.57,0.71,3.08
15.783689022064209,1.95,2.66,1.18,3.5
15.783953189849854,2.08,2.5,1.52,3.58
15.784209251403809,2.59,2.49,1.78,4.0
15.784473180770874,2.78,2.66,1.86,4.27
15.78497314453125,2.41,2.86,2.23,4.35
15.795536994934082,2.12,3.46,2.53,4.78
15.805118083953857,2.07,5.17,2.73,6.2
15.815169095993042,3.3,7.3,3.99,8.94
15.82581114768982,5.07,8.46,6.81,11.98
15.8351149559021,6.76,9.77,8.11,14.38
15.885135173797607,8.69,11.04,8.46,16.4
15.88540506362915,9.4,11.44,8.41,17.02
15.885668277740479,7.89,10.75,7.88,15.48
15.885924100875854,6.13,9.82,5.57,12.84
15.886181116104126,5.24,9.23,0.76,10.64
15.895467281341553,4.15,9.58,-3.72,11.08
15.904947280883789,0.27,12.22,-4.49,13.02
15.915165185928345,-3.48,13.74,-1.06,14.21
15.92560625076294,-1.19,11.52,-0.16,11.58
15.934954166412354,2.19,7.72,-0.88,8.07
15.985142230987549,2.24,3.65,0.96,4.38
15.985408067703247,-2.5,0.61,-0.18,2.57
15.985665082931519,-5.26,0.87,-6.0,8.02
15.98592209815979,-0.93,3.68,-2.15,4.36
15.98617696762085,4.01,3.38,1.19,5.37
15.995347023010254,6.7,1.39,1.74,7.06
16.004848957061768,6.75,-0.69,3.1,7.45
16.014901161193848,6.13,-2.07,2.99,7.12
16.025477170944214,5.84,-2.56,2.41,6.81
16.034797191619873,5.09,-2.38,2.2,6.03
16.0853590965271,3.97,-1.97,1.94,4.83
16.085626125335693,2.78,-1.8,1.63,3.69
16.08589220046997,1.63,-2.15,1.65,3.16
16.086161136627197,0.71,-2.71,1.83,3.34
16.086411952972412,0.28,-2.9,1.65,3.34
16.09517812728882,0.37,-2.93,1.46,3.29
16.104639053344727,0.61,-3.21,1.29,3.51
16.114704132080078,0.94,-3.46,1.13,3.75
16.125301122665405,1.34,-3.67,1.16,4.07
16.134757041931152,1.35,-3.75,0.84,4.07
16.186016082763672,0.39,-3.8,0.73,3.88
16.1862850189209,-1.26,-3.78,0.46,4.01
16.186542987823486,-2.12,-4.5,-0.28,4.98
16.186800956726074,-2.89,-4.71,-1.32,5.68
16.18705916404724,-3.79,-4.6,-3.18,6.75
16.1950421333313,-5.03,-4.41,-4.39,8.0
16.204483032226562,-6.13,-4.19,-3.43,8.17
16.214632034301758,-5.7,-4.2,-2.08,7.37
16.22509002685547,-5.08,-3.81,-2.04,6.66
16.234491109848022,-5.09,-2.89,-2.64,6.42
16.286192178726196,-5.05,-1.62,-3.08,6.13
16.28645420074463,-4.86,-0.45,-3.48,5.99
16.286715984344482,-5.22,0.37,-4.29,6.76
16.286977291107178,-5.76,1.14,-5.32,7.92
16.287236213684082,-6.78,1.75,-6.29,9.41
16.29481816291809,-7.82,1.68,-7.01,10.63
16.304450035095215,-8.54,0.86,-7.07,11.12
16.31454610824585,-8.71,-0.43,-6.56,10.91
16.32491397857666,-7.89,-1.62,-5.86,9.96
16.33438014984131,-6.64,-2.06,-5.28,8.72
16.38617515563965,-5.55,-2.07,-4.75,7.59
16.386441230773926,-5.1,-2.52,-4.23,7.08
16.386699199676514,-5.45,-2.47,-4.3,7.36
16.386956214904785,-6.06,2.25,-4.99,8.16
16.38721227645874,-2.01,-2.79,-6.11,7.01
16.394707202911377,0.43,0.49,-4.67,4.71
16.40427827835083,10.32,13.25,9.17,19.13
16.414873123168945,17.69,14.59,12.73,26.22
16.424767017364502,4.16,15.41,-8.87,18.26
16.434213161468506,-6.65,6.46,-4.82,10.44
16.486778259277344,-8.9,-0.93,-2.6,9.31
16.487060070037842,-10.61,-2.67,-3.52,11.49
16.487325191497803,-9.41,-2.54,0.49,9.75
16.48758316040039,-10.41,-3.18,-3.48,11.42
16.487839221954346,-8.71,-1.92,-5.31,10.38
16.49458122253418,-5.05,-0.59,-3.65,6.25
16.50408911705017,-2.19,-0.37,-1.81,2.86
16.51418709754944,-0.54,-0.04,-1.22,1.33
16.52466917037964,1.33,0.5,-1.93,2.39
16.53403329849243,2.62,0.91,-2.91,4.02
16.588280200958252,1.44,1.12,-2.77,3.31
16.588544130325317,-0.56,1.0,-2.59,2.83
16.588802099227905,-1.47,0.61,-2.26,2.76
16.589060068130493,-1.61,0.05,-2.04,2.59
16.58931827545166,-1.36,-0.25,-1.65,2.15
16.59621000289917,-1.05,-0.21,-1.12,1.54
16.604029178619385,-0.72,-0.06,-0.65,0.97
16.613999128341675,-0.39,0.18,-0.45,0.62
16.624694108963013,-0.25,0.25,-0.49,0.6
16.633933067321777,-0.26,0.2,-0.34,0.47
16.688176155090332,-0.14,0.18,-0.45,0.5
16.688440084457397,-0.04,0.15,-0.49,0.51
16.688700199127197,-0.03,0.11,-0.36,0.37
16.688960075378418,0.25,0.05,-0.13,0.28
16.689200162887573,0.77,0.05,0.05,0.77
16.694282054901123,0.83,0.08,-0.06,0.83
16.70382308959961,0.41,0.01,0.23,0.47
16.71391010284424,0.16,-0.07,0.62,0.64
16.724820137023926,0.59,-0.04,0.57,0.82
16.733846187591553,0.94,0.01,0.52,1.07
16.78819227218628,1.07,0.03,0.67,1.26
16.788451194763184,0.97,0.02,0.83,1.27
16.78870916366577,0.65,0.04,0.85,1.07
16.788965225219727,0.37,0.01,0.84,0.91
16.78922128677368,0.21,0.02,0.99,1.01
16.79411816596985,0.25,0.14,0.97,1.01
16.8036470413208,0.64,0.16,0.98,1.18
16.81379508972168,0.95,0.13,1.07,1.43
16.870652198791504,1.09,0.11,0.85,1.38
16.87091302871704,1.07,0.12,0.58,1.22
16.871169090270996,0.83,0.26,0.37,0.94
16.87142324447632,0.76,0.5,0.4,0.99
16.871678113937378,0.99,0.65,0.67,1.36
16.873438119888306,1.33,0.68,1.02,1.8
16.883584022521973,1.9,0.65,1.73,2.65
16.894140243530273,2.54,0.72,2.12,3.38
16.903558254241943,2.81,0.83,2.65,3.95
16.913629055023193,2.78,1.05,2.67,3.99
16.972578048706055,2.59,2.04,2.02,3.86
16.972859144210815,1.82,2.49,1.47,3.41
16.973286151885986,1.62,2.77,1.53,3.55
16.973894119262695,2.2,2.69,1.77,3.89
16.9741530418396,2.74,2.85,1.65,4.28
16.974409103393555,2.88,3.03,1.98,4.62
16.98345422744751,2.95,3.27,2.45,5.03
16.993947982788086,3.16,3.64,3.15,5.75
17.003435134887695,3.54,4.58,3.59,6.81
17.013511180877686,4.55,6.78,3.52,8.89
17.072360038757324,6.75,8.55,4.35,11.72
17.07264518737793,7.17,9.05,5.51,12.79
17.073079109191895,6.99,9.9,6.64,13.81
17.07334327697754,7.82,10.95,7.43,15.37
17.073951244354248,8.43,11.51,5.51,15.29
17.074213981628418,8.12,10.95,4.05,14.22
17.083317279815674,7.13,10.03,1.96,12.46
17.09381628036499,4.92,9.78,-1.53,11.05
17.103248119354248,1.9,11.47,-3.55,12.15
17.11346197128296,0.4,14.11,-2.57,14.34
17.17312002182007,1.63,12.16,0.79,12.29
17.17348003387451,2.48,7.1,1.77,7.72
17.174067974090576,1.87,3.62,-0.09,4.07
17.174331188201904,-2.91,1.29,-2.29,3.92
17.174588203430176,-7.09,0.87,-6.82,9.87
17.174857139587402,-2.02,3.77,-2.16,4.79
17.18313717842102,4.52,4.09,0.86,6.15
17.19361925125122,7.56,1.83,1.47,7.91
17.203103065490723,7.49,-0.8,3.51,8.31
17.213245153427124,6.4,-2.51,3.63,7.77
17.223738193511963,5.59,-3.32,2.81,7.08
17.274110078811646,4.4,-3.51,2.18,6.03
17.274372100830078,3.64,-3.31,1.6,5.17
17.274631023406982,3.37,-2.96,1.41,4.7
17.274899005889893,3.17,-2.79,1.41,4.45
17.275158166885376,2.71,-3.03,1.48,4.32
17.282965183258057,1.6,-3.38,1.22,3.93
17.293513298034668,0.79,-3.53,0.62,3.67
17.302993297576904,0.82,-3.66,0.68,3.81
17.313040256500244,1.16,-3.75,0.66,3.98
17.323636054992676,1.83,-3.54,0.39,4.0
17.373979091644287,2.53,-3.38,0.43,4.24
17.374240159988403,2.18,-2.99,0.61,3.75
17.374497175216675,1.32,-2.48,0.06,2.81
17.374753952026367,0.07,-3.05,-0.62,3.11
17.375041961669922,-1.92,-2.99,-2.1,4.12
17.382792949676514,-2.56,-2.48,-4.82,5.99
17.393362998962402,-3.6,-2.11,-5.23,6.69
17.402771949768066,-4.82,-2.33,-3.89,6.61
17.413045167922974,-5.14,-2.68,-3.93,7.0
17.423498153686523,-5.84,-2.4,-5.13,8.13
17.474926948547363,-6.55,-1.57,-5.98,9.0
17.47518825531006,-6.57,-0.65,-6.22,9.07
17.47544813156128,-6.4,-0.22,-5.94,8.73
17.4757080078125,-7.37,0.38,-6.75,10.0
17.47599697113037,-8.89,1.01,-8.11,12.07
17.482829093933105,-9.96,1.13,-8.31,13.02
17.493268966674805,-10.31,0.84,-8.19,13.19
17.50288414955139,-9.78,-0.05,-8.17,12.74
17.512747287750244,-8.83,-1.2,-7.39,11.57
17.5232892036438,-8.03,-1.92,-6.36,10.42
17.575261116027832,-7.58,-2.17,-5.76,9.76
17.575523138046265,-7.17,-2.74,-5.01,9.16
17.575788974761963,-7.35,-3.07,-4.5,9.14
17.576050281524658,-7.83,-2.64,-4.86,9.58
17.576309204101562,-7.69,1.71,-5.56,9.64
17.582502126693726,-1.01,2.9,-3.26,4.47
17.593056201934814,7.37,5.6,6.58,11.35
17.602503299713135,18.04,12.5,19.75,29.52
17.61268424987793,14.18,10.53,10.47,20.53
17.623112201690674,-1.58,7.64,-5.78,9.7
17.676079273223877,-7.85,5.85,-4.58,10.8
17.676340103149414,-8.5,0.38,-1.2,8.59
17.676603078842163,-7.66,1.48,-0.85,7.84
17.676860094070435,-7.59,-0.11,-3.61,8.4
17.677114963531494,-5.45,-1.04,-3.4,6.5
17.682435035705566,-3.4,-1.35,-5.74,6.8
17.692917108535767,-2.75,-1.39,-7.52,8.12
17.70241117477417,-2.81,-0.89,-5.73,6.44
17.71244716644287,-3.62,-0.25,-3.24,4.86
17.722990036010742,-3.18,0.34,-2.17,3.86
17.777148246765137,-2.04,0.41,-1.46,2.54
17.77741003036499,-0.89,0.57,-0.15,1.06
17.777667999267578,-0.68,0.72,0.9,1.33
17.77792501449585,-1.09,0.5,0.72,1.39
17.77818012237549,-1.35,0.09,0.02,1.35
17.782172203063965,-1.14,-0.06,-0.3,1.18
17.79279899597168,-0.86,-0.07,-0.54,1.01
17.802258014678955,-0.5,-0.08,-1.13,1.23
17.81231117248535,-0.44,-0.11,-1.67,1.73
17.822898149490356,-0.32,-0.09,-1.95,1.97
17.877264976501465,0.22,-0.01,-2.07,2.08
17.877531051635742,0.47,0.01,-1.94,1.99
17.87779426574707,0.29,0.03,-1.16,1.19
17.87805414199829,-0.14,0.21,-0.2,0.32
17.878318071365356,-0.62,0.39,0.49,0.88
17.882121086120605,-0.5,0.41,1.08,1.25
17.892390251159668,0.26,0.3,1.1,1.16
17.902047157287598,1.1,0.19,0.55,1.24
17.912216186523438,1.42,0.14,-0.08,1.42
17.922801971435547,1.27,0.09,-0.22,1.29
17.97746515274048,1.07,-0.02,0.06,1.07
17.977725982666016,1.12,-0.05,0.53,1.24
17.977982997894287,1.11,-0.02,0.98,1.48
17.978239059448242,0.91,-0.01,1.24,1.53
17.978495121002197,0.75,-0.02,1.22,1.43
17.98187017440796,0.48,-0.08,1.14,1.23
17.992316246032715,0.33,-0.12,0.92,0.98
18.001968145370483,0.7,-0.08,0.68,0.97
18.01190209388733,1.15,0.02,0.5,1.25
18.02260398864746,1.2,0.16,0.2,1.22
18.077320098876953,1.04,0.29,0.38,1.14
18.077579975128174,1.05,0.38,0.57,1.25
18.077839136123657,0.77,0.37,0.58,1.03
18.078094005584717,0.79,0.44,1.04,1.37
18.078350067138672,1.3,0.58,1.58,2.12
18.08164405822754,1.51,0.62,1.43,2.17
18.09220814704895,1.65,0.7,1.74,2.49
18.101672172546387,2.04,1.08,2.23,3.2
18.1117000579834,2.65,1.79,2.06,3.8
18.122343063354492,2.42,2.34,2.18,4.01
18.178143978118896,2.17,2.47,2.17,3.93
18.178405284881592,2.64,2.73,1.98,4.28
18.17867112159729,2.78,2.85,2.13,4.51
18.17892599105835,3.22,3.06,2.42,5.05
18.179183959960938,3.85,3.57,3.06,6.07
18.181560039520264,4.23,4.58,3.5,7.14
18.192199230194092,4.98,6.79,3.59,9.15
18.201497077941895,6.72,8.69,4.89,12.02
18.211613178253174,6.85,9.48,6.18,13.22
18.222297191619873,5.99,10.25,6.7,13.63
18.27875328063965,5.18,11.12,7.45,14.35
18.27901816368103,4.94,11.9,8.65,15.51
18.279287099838257,5.46,11.52,7.53,14.8
18.279541969299316,6.53,9.75,3.61,12.27
18.279798984527588,7.61,8.77,-1.08,11.66
18.281567096710205,5.83,10.16,-4.28,12.47
18.292413234710693,0.56,13.21,-3.85,13.77
18.30148696899414,-1.62,14.05,-1.67,14.24
18.311649084091187,-0.1,9.83,-1.04,9.88
18.322184085845947,1.19,4.88,0.35,5.03
18.379104137420654,-1.45,1.7,0.75,2.35
18.379366159439087,-4.62,0.72,-4.93,6.79
18.37962317466736,-0.45,3.62,-3.31,4.92
18.37987995147705,4.76,3.93,1.15,6.27
18.380134105682373,7.85,1.78,2.92,8.56
18.38130521774292,7.83,-0.1,3.59,8.61
18.392269134521484,6.5,-1.22,3.09,7.29
18.40140199661255,5.55,-1.99,2.3,6.32
18.411457061767578,4.34,-2.4,1.63,5.22
18.42203426361084,3.29,-2.49,1.16,4.28
18.480245113372803,2.64,-2.76,1.45,4.08
18.480535984039307,2.17,-3.29,1.99,4.41
18.480987071990967,1.83,-3.77,2.25,4.75
18.481252193450928,1.26,-4.31,2.22,5.0
18.481516122817993,0.68,-4.73,1.57,5.02
18.48177218437195,0.46,-5.02,1.3,5.2
18.492040157318115,0.43,-4.91,1.07,5.04
18.501265048980713,0.46,-4.56,0.65,4.62
18.511353969573975,0.53,-4.43,0.52,4.49
18.52198600769043,0.61,-4.62,0.73,4.71
18.582333087921143,0.12,-4.65,1.08,4.77
18.58264398574829,-0.6,-4.66,0.61,4.73
18.582945108413696,-1.25,-4.77,-0.74,4.98
18.58322811126709,-2.67,-4.42,-2.24,5.62
18.583515167236328,-4.32,-3.94,-4.03,7.1
18.583805084228516,-5.56,-3.62,-3.68,7.58
18.591887950897217,-5.31,-3.59,-1.6,6.6
18.601104259490967,-4.0,-3.19,-1.34,5.28
18.61110496520996,-4.16,-2.15,-2.74,5.42
18.62182116508484,-5.48,-0.75,-4.18,6.93
18.6806640625,-6.1,0.01,-4.74,7.72
18.680932998657227,-6.01,0.1,-5.11,7.88
18.68120813369751,-6.54,0.47,-6.03,8.9
18.68146514892578,-7.79,0.9,-6.8,10.37
18.681705951690674,-8.49,0.9,-7.0,11.04
18.68196201324463,-8.84,0.35,-7.6,11.66
18.691843032836914,-9.51,0.03,-8.38,12.67
18.700948238372803,-9.59,-0.18,-7.99,12.48
18.710995197296143,-8.45,-0.8,-6.95,10.97
18.721583127975464,-7.38,-1.63,-6.26,9.81
18.781305074691772,-7.13,-2.19,-5.9,9.51
18.781567096710205,-7.78,-1.6,-5.55,9.68
18.78182601928711,-5.93,2.07,-6.13,8.77
18.782083988189697,-1.07,0.71,-4.58,4.75
18.782340049743652,3.47,5.8,4.17,7.94
18.78259801864624,15.82,11.34,17.78,26.36
18.79127311706543,16.74,11.65,10.68,23.02
18.80080223083496,1.13,10.83,-6.66,12.76
18.810919284820557,-8.11,3.8,-3.07,9.46
18.82147717475891,-9.83,-3.94,-0.12,10.59
18.88166308403015,-10.27,-0.22,-0.89,10.31
18.88192915916443,-9.58,-0.71,-3.33,10.16
18.88219118118286,-6.4,-0.19,-4.41,7.77
18.88245725631714,-3.68,-0.05,-5.1,6.28
18.882713079452515,-2.12,-0.1,-5.31,5.71
18.88296914100647,-2.1,-0.01,-4.69,5.13
18.891119956970215,-1.62,0.25,-3.78,4.12
18.900646209716797,-0.48,0.58,-2.87,2.96
18.910611152648926,-0.14,0.78,-1.46,1.66
18.92122220993042,-0.69,0.85,-0.44,1.17
18.98194718360901,-1.3,0.48,-0.17,1.39
18.982210159301758,-1.32,0.06,-0.27,1.34
18.98247003555298,-1.02,-0.09,-0.44,1.11
18.982728004455566,-0.9,-0.11,-0.27,0.94
18.982985019683838,-0.95,-0.12,-0.21,0.98
18.983240127563477,-0.57,-0.09,-0.77,0.96
18.99096417427063,-0.27,-0.03,-1.1,1.13
19.000439167022705,0.34,0.02,-1.42,1.46
19.010457038879395,1.0,0.01,-1.69,1.96
19.02108407020569,1.07,-0.17,-1.12,1.55
19.081984043121338,0.64,-0.24,-0.19,0.7
19.082255125045776,0.14,-0.07,0.45,0.47
19.08251714706421,-0.23,0.23,0.77,0.83
19.08277416229248,-0.22,0.3,1.15,1.2
19.083033084869385,-0.03,0.12,1.21,1.21
19.08328914642334,0.32,0.06,0.81,0.87
19.090837001800537,0.73,0.17,0.37,0.83
19.10033416748047,1.12,0.3,0.34,1.2
19.110440254211426,1.54,0.35,0.55,1.67
19.120909214019775,1.55,0.19,0.87,1.78
19.182888984680176,1.24,0.04,1.05,1.62
19.183143138885498,0.77,0.04,1.01,1.27
19.183382987976074,0.16,0.04,1.04,1.05
19.183640003204346,-0.05,-0.02,1.15,1.15
19.183902263641357,0.34,-0.18,1.33,1.38
19.18415927886963,0.94,-0.35,1.11,1.49
19.19073510169983,1.4,-0.49,0.9,1.73
19.20023822784424,1.43,-0.39,0.56,1.58
19.210119247436523,1.19,-0.16,0.38,1.25
19.22087001800537,1.09,-0.04,0.51,1.2
19.283252239227295,1.26,0.03,0.96,1.58
19.283517122268677,1.52,0.33,1.27,2.0
19.28377413749695,1.48,0.64,1.48,2.18
19.284041166305542,1.27,0.85,1.64,2.24
19.284295082092285,1.33,1.22,1.37,2.26
19.284558296203613,1.3,1.76,1.07,2.43
19.290595054626465,1.5,2.33,1.2,3.01
19.30016803741455,1.68,2.64,1.59,3.51
19.310068130493164,2.3,2.94,2.02,4.24
19.320682048797607,3.21,3.14,2.26,5.02
19.38331127166748,3.62,3.19,2.82,5.58
19.383573055267334,3.98,3.35,3.16,6.08
19.38383197784424,4.06,3.81,3.24,6.44
19.384088039398193,3.98,4.92,3.12,7.05
19.384345054626465,4.15,6.65,3.22,8.47
19.384603023529053,5.2,7.93,4.42,10.46
19.39038896560669,4.99,8.43,5.89,11.43
19.399997234344482,5.27,10.09,6.58,13.14
19.409882068634033,7.15,11.8,7.82,15.85
19.420522212982178,8.15,12.28,7.02,16.32
19.48428511619568,7.74,11.56,5.45,14.94
19.48455309867859,7.57,10.43,2.33,13.09
19.484812259674072,6.24,9.68,-2.23,11.73
19.485069274902344,2.52,11.1,-4.92,12.4
19.48533296585083,-0.16,13.99,-3.33,14.38
19.485603094100952,1.29,13.69,0.24,13.75
19.490262985229492,2.6,9.62,-1.16,10.03
19.499787092208862,2.43,4.79,-1.61,5.6
19.509610176086426,-2.1,0.81,-0.91,2.42
19.520344257354736,-6.26,-0.26,-5.77,8.51
19.585400104522705,-1.84,2.79,-3.63,4.93
19.585665225982666,3.49,3.37,1.21,5.0
19.585927963256836,6.74,1.11,3.34,7.6
19.586186170578003,7.23,-1.11,4.72,8.7
19.58644413948059,6.39,-2.04,4.31,7.97
19.58670210838318,5.21,-2.21,3.14,6.47
19.590164184570312,3.64,-1.74,1.89,4.45
19.599663257598877,2.48,-1.47,1.33,3.17
19.609655141830444,2.02,-1.7,1.66,3.11
19.620267152786255,1.86,-2.06,1.82,3.31
19.68538522720337,1.4,-2.41,1.45,3.14
19.685646057128906,1.01,-2.71,1.08,3.08
19.685906171798706,0.97,-2.95,1.09,3.29
19.686167240142822,1.16,-3.07,1.47,3.59
19.686406135559082,1.46,-3.07,1.54,3.73
19.68666124343872,1.66,-3.06,1.49,3.78
19.68998408317566,1.74,-3.0,1.93,3.96
19.699493169784546,1.34,-2.71,2.14,3.7
19.709553241729736,0.63,-3.22,1.67,3.68
19.72011709213257,-1.15,-3.84,0.55,4.04
19.785964965820312,-1.76,-3.77,-1.51,4.42
19.786226272583008,-1.96,-3.55,-1.74,4.41
19.786484241485596,-2.94,-3.58,-0.74,4.69
19.78674030303955,-3.84,-3.57,-1.13,5.36
19.78699517250061,-4.83,-3.28,-2.06,6.19
19.7872531414032,-5.4,-2.74,-2.72,6.63
19.789817094802856,-5.35,-1.75,-3.21,6.47
19.799360275268555,-5.52,-0.76,-4.12,6.92
19.80962896347046,-6.71,-0.05,-5.84,8.89
19.81997299194336,-8.51,0.49,-7.1,11.09
19.886221170425415,-9.88,0.9,-7.78,12.6
19.88648796081543,-10.13,0.88,-7.98,12.92
19.886751174926758,-10.12,0.09,-7.81,12.78
19.88700819015503,-10.2,-1.04,-8.23,13.14
19.887267112731934,-9.96,-1.88,-8.85,13.45
19.887529134750366,-9.64,-1.92,-8.36,12.9
19.889599084854126,-9.33,-1.92,-7.58,12.17
19.899253129959106,-8.76,-2.99,-6.76,11.46
19.909587144851685,-8.84,-3.63,-6.68,11.65
19.91985011100769,-9.63,0.63,-7.6,12.28
19.986725091934204,-7.28,2.86,-5.77,9.71
19.986995220184326,3.43,-0.41,-4.0,5.28
19.987255096435547,19.09,13.12,15.39,27.81
19.987521171569824,19.34,15.68,10.72,27.1
19.98777723312378,6.64,13.04,-6.41,15.97
19.988037109375,-1.12,7.23,-6.44,9.74
19.989504098892212,-5.37,-1.01,-2.19,5.88
19.99913501739502,-7.13,-3.17,1.29,7.9
20.009114265441895,-10.17,-1.72,-1.32,10.39
20.01965618133545,-11.49,-2.76,-5.96,13.23
20.087003231048584,-6.66,-0.94,-8.1,10.52
20.087265968322754,-4.77,1.74,-6.66,8.37
20.087525129318237,-4.42,1.82,-4.29,6.42
20.087783098220825,-2.61,0.88,-3.42,4.39
20.088040113449097,-0.65,0.05,-2.39,2.47
20.088297128677368,-0.13,0.3,-2.01,2.03
20.089315176010132,-1.08,0.8,-1.9,2.32
20.098791122436523,-1.32,0.91,-1.95,2.52
20.10913324356079,-0.65,0.68,-2.09,2.29
20.11955213546753,-0.47,0.25,-1.69,1.77
20.187878131866455,-0.71,-0.03,-0.94,1.17
20.18815803527832,-0.79,-0.11,-0.57,0.98
20.188420295715332,-0.76,-0.32,-0.42,0.92
20.188838958740234,-0.89,-0.39,-0.37,1.03
20.18909502029419,-0.93,-0.27,-0.52,1.09
20.189351081848145,-0.78,-0.18,-0.63,1.01
20.19015908241272,-0.74,-0.05,-0.46,0.87
20.198759078979492,-0.53,0.02,-0.23,0.57
20.208867073059082,-0.15,0.04,0.08,0.17
20.219425201416016,0.11,0.05,0.37,0.38
20.288572072982788,0.24,0.03,0.42,0.48
20.288830280303955,0.5,0.08,0.39,0.63
20.289091110229492,0.9,0.17,0.42,1.0
20.289347171783447,1.36,0.19,0.35,1.41
20.289603233337402,1.64,0.12,0.48,1.71
20.289859294891357,1.48,0.0,0.8,1.68
20.290632247924805,1.26,-0.06,1.0,1.6
20.298624992370605,1.14,-0.13,1.12,1.6
20.308621168136597,1.02,-0.18,1.19,1.57
20.319175243377686,1.11,-0.11,1.38,1.77
20.388319969177246,1.3,-0.05,1.46,1.95
20.38857412338257,1.37,-0.18,1.39,1.95
20.388809204101562,1.37,-0.32,1.36,1.95
20.389066219329834,1.88,-0.33,1.65,2.52
20.389323234558105,2.64,-0.18,1.26,2.93
20.389578104019165,2.42,0.07,1.01,2.62
20.39037013053894,1.63,0.12,1.14,1.99
20.39846110343933,1.28,0.05,1.39,1.89
20.408615112304688,1.65,-0.03,1.64,2.32
20.41905927658081,2.14,0.09,1.82,2.81
20.48885416984558,2.29,0.35,1.77,2.91
20.489113092422485,1.95,0.5,1.57,2.55
20.489370107650757,1.61,0.7,1.7,2.44
20.489630222320557,1.46,1.22,1.75,2.58
20.48988628387451,1.23,1.62,1.61,2.59
20.490139961242676,1.2,2.03,1.4,2.74
20.490905284881592,1.5,2.89,1.46,3.56
20.498252153396606,1.89,3.76,2.02,4.66
20.508285999298096,1.86,3.51,2.45,4.66
20.51887321472168,2.12,3.87,2.73,5.18
20.588772296905518,2.88,4.99,2.77,6.39
20.589033126831055,4.66,6.57,3.19,8.66
20.58928918838501,5.62,6.89,4.79,10.09
20.589545249938965,5.71,7.86,5.09,10.96
20.589802265167236,6.77,9.47,5.78,12.99
20.590059280395508,7.03,10.82,7.19,14.77
20.5908260345459,6.84,11.95,9.06,16.48
20.598145008087158,7.11,12.16,7.84,16.12
20.608200073242188,7.87,11.01,5.7,14.68
20.618775129318237,7.52,9.54,2.32,12.36
20.689768075942993,6.1,9.04,-2.11,11.1
20.690030097961426,2.36,10.97,-4.04,11.92
20.690288066864014,-2.4,13.96,-1.93,14.29
20.6905460357666,-1.47,12.85,-0.59,12.94
20.690803050994873,0.29,7.66,-0.53,7.68
20.691059112548828,0.57,3.26,1.22,3.52
20.691826105117798,-3.93,1.05,-0.04,4.06
20.69796109199524,-6.87,1.59,-6.05,9.29
20.70801305770874,-1.95,4.5,-2.07,5.32
20.718598127365112,3.24,3.85,2.34,5.54
20.791269302368164,6.28,0.85,3.28,7.13
20.7915301322937,5.87,-1.55,4.12,7.33
20.791787147521973,4.53,-2.67,3.83,6.5
20.792044162750244,3.99,-3.09,3.46,6.11
20.792299270629883,3.38,-2.74,2.99,5.27
20.792554140090942,2.85,-1.97,2.4,4.21
20.79368305206299,2.33,-1.87,2.08,3.64
20.79785418510437,1.75,-2.42,2.15,3.67
20.807903289794922,1.38,-2.78,2.47,3.96
20.818474292755127,1.62,-2.94,2.66,4.28
20.89199709892273,2.08,-3.02,2.48,4.42
20.892263174057007,2.41,-3.15,2.44,4.65
20.89252209663391,2.32,-3.58,2.31,4.85
20.89278221130371,2.0,-4.03,1.85,4.86
20.89304208755493,1.89,-4.56,1.4,5.13
20.893665075302124,1.63,-5.14,1.02,5.48
20.894433975219727,1.15,-5.71,0.88,5.89
20.897789001464844,0.66,-6.17,0.56,6.23
20.9078049659729,0.35,-6.39,0.33,6.4
20.918382167816162,-0.32,-6.53,0.33,6.54
20.991899967193604,-1.15,-6.57,0.16,6.67
20.992176055908203,-1.29,-6.56,-0.47,6.7
20.99243402481079,-2.46,-5.82,-1.94,6.6
20.99268913269043,-4.56,-4.56,-4.28,7.73
20.992945194244385,-6.32,-3.05,-6.25,9.39
20.993548154830933,-7.07,-1.38,-6.3,9.56
20.99432110786438,-6.69,0.44,-6.3,9.19
20.997594118118286,-6.59,2.57,-7.85,10.56
21.007684230804443,-7.79,4.59,-10.12,13.57
21.018254280090332,-9.56,5.37,-11.32,15.75
21.092952251434326,-10.59,4.53,-11.22,16.07
21.093218088150024,-10.1,3.03,-10.73,15.04
21.093832969665527,-8.22,1.04,-9.77,12.81
21.094093084335327,-5.99,0.44,-9.06,10.87
21.094370126724243,-4.21,3.59,-6.84,8.79
21.09462809562683,-2.22,-4.56,-6.2,8.01
21.095405101776123,-5.67,-5.07,-7.61,10.75
21.097488164901733,2.11,8.74,8.72,12.52
21.107466220855713,9.58,15.81,26.47,32.28
21.118101119995117,2.34,10.14,-0.63,10.42
21.191572189331055,-4.28,3.74,-2.65,6.27
21.191838264465332,-8.01,1.35,-0.44,8.13
21.19209909439087,-7.67,-0.38,-0.06,7.67
21.192358016967773,-6.54,1.02,-2.55,7.09
21.192617177963257,-3.48,-1.04,-7.55,8.37
21.19287395477295,0.68,-0.09,-10.6,10.62
21.19405698776245,0.49,0.94,-9.39,9.44
21.197582244873047,-1.9,0.05,-6.17,6.45
21.207411289215088,-2.75,0.08,-5.43,6.08
21.21800708770752,-2.7,-0.09,-4.56,5.3
21.293015003204346,-2.53,-0.08,-3.34,4.19
21.2932710647583,-2.53,0.66,-1.78,3.16
21.2938871383667,-2.39,1.11,0.05,2.63
21.294147968292236,-1.95,0.83,0.96,2.32
21.29440927505493,-1.53,0.24,1.28,2.0
21.294685125350952,-1.31,-0.12,1.06,1.68
21.295443058013916,-1.32,-0.31,0.3,1.38
21.297132968902588,-1.04,-0.23,-0.67,1.25
21.30720615386963,-0.4,-0.02,-1.14,1.2
21.31779408454895,0.0,-0.03,-1.27,1.27
21.39303708076477,0.09,-0.09,-1.54,1.54
21.39330816268921,0.12,-0.17,-1.86,1.87
21.393893241882324,0.07,-0.15,-1.42,1.42
21.394153118133545,0.12,-0.01,-0.19,0.22
21.394411087036133,0.33,0.11,0.74,0.81
21.39468216896057,0.47,0.2,1.24,1.34
21.395458221435547,0.64,0.26,1.48,1.63
21.39709711074829,1.06,0.21,1.05,1.5
21.40704107284546,1.04,0.19,0.44,1.14
21.417662143707275,0.96,0.09,0.22,0.98
21.49326515197754,1.36,0.0,0.52,1.45
21.4935359954834,1.67,0.1,1.0,1.94
21.494129180908203,1.71,0.08,1.49,2.26
21.494388103485107,1.75,0.01,1.56,2.34
21.494649171829224,1.87,-0.03,1.46,2.37
21.49493718147278,1.73,-0.09,1.02,2.01
21.495678186416626,1.22,0.0,0.43,1.29
21.496922969818115,0.77,0.19,0.15,0.8
21.50689125061035,0.81,0.47,-0.15,0.94
21.517486095428467,0.82,0.73,-0.27,1.13
21.52689027786255,0.68,0.85,0.05,1.08
21.59375524520874,0.45,0.76,0.65,1.09
21.594016075134277,0.44,0.46,1.33,1.47
21.59427309036255,0.76,0.37,1.68,1.88
21.594529151916504,1.16,0.54,1.96,2.34
21.594787120819092,1.64,0.86,1.89,2.64
21.595571994781494,1.52,1.64,2.2,3.13
21.596830129623413,1.24,1.52,2.61,3.26
21.60683298110962,1.46,1.53,2.57,3.32
21.61729907989502,1.68,1.63,2.58,3.48
21.626739978790283,2.06,1.84,2.36,3.63
21.69406223297119,2.67,2.16,2.26,4.11
21.694324016571045,3.01,2.45,2.28,4.5
21.694611072540283,3.05,2.76,2.26,4.69
21.694879055023193,3.02,3.68,2.15,5.22
21.69513511657715,3.48,5.43,2.12,6.78
21.695955276489258,4.49,6.77,3.02,8.66
21.696612119674683,4.74,7.24,4.23,9.63
21.70664119720459,4.86,7.78,5.43,10.65
21.717113971710205,4.31,7.92,6.64,11.19
21.726574182510376,3.1,7.86,7.89,11.56
21.795001983642578,2.57,8.44,8.79,12.45
21.795266151428223,3.0,8.26,6.17,10.73
21.795530080795288,4.82,7.65,0.16,9.04
21.79582405090332,7.13,8.56,-3.83,11.78
21.796274185180664,5.24,11.47,-3.36,13.05
21.79706621170044,0.8,13.09,-0.24,13.11
21.79732894897461,1.19,11.25,0.83,11.34
21.80655002593994,2.86,7.96,0.1,8.45
21.817113161087036,3.27,4.53,0.99,5.67
21.82645320892334,-0.01,1.9,1.63,2.5
21.895339965820312,-4.24,1.18,-3.16,5.41
21.89562225341797,-1.96,3.7,-3.83,5.67
21.896074295043945,2.55,4.79,-0.13,5.42
21.896340131759644,5.89,3.13,1.67,6.87
21.89659810066223,6.91,1.14,2.64,7.48
21.897396087646484,6.43,-0.58,2.8,7.03
21.897655963897705,6.08,-1.72,2.69,6.86
21.90638518333435,5.31,-2.01,2.63,6.25
21.916906118392944,4.21,-1.83,2.53,5.24
21.926382064819336,3.52,-1.71,2.89,4.86
21.996138095855713,3.02,-1.98,3.28,4.87
21.99639916419983,2.53,-2.13,3.02,4.47
21.99665927886963,1.85,-2.2,2.57,3.85
21.9969162940979,0.92,-2.27,2.09,3.21
21.99717903137207,0.57,-2.08,1.4,2.57
21.997977256774902,0.75,-1.59,1.0,2.02
21.998234272003174,1.14,-1.32,0.79,1.91
22.006185054779053,1.33,-1.39,0.79,2.07
22.01682424545288,1.1,-1.66,0.85,2.16
22.02617311477661,0.78,-2.02,0.42,2.2
22.09643316268921,0.08,-2.39,-0.35,2.41
22.096703052520752,-1.15,-2.33,-1.8,3.16
22.096964120864868,-1.92,-2.26,-2.97,4.19
22.097227096557617,-2.42,-2.36,-2.47,4.18
22.09748601913452,-2.65,-2.61,-1.43,3.98
22.098302125930786,-2.6,-2.52,-1.3,3.84
22.098559141159058,-2.98,-2.02,-1.76,4.0
22.106057167053223,-3.99,-1.27,-2.52,4.88
22.116668224334717,-5.08,-0.54,-3.3,6.08
22.126060009002686,-5.68,-0.12,-3.75,6.8
22.19698214530945,-6.61,0.39,-4.86,8.21
22.197254180908203,-8.1,1.2,-6.5,10.45
22.197517156600952,-9.4,1.76,-7.5,12.15
22.19777512550354,-10.08,1.46,-7.79,12.82
22.19803524017334,-10.25,0.51,-7.74,12.85
22.198825120925903,-9.65,-0.36,-6.99,11.92
22.19908308982849,-9.14,-1.23,-5.95,10.97
22.20598602294922,-9.01,-2.18,-5.56,10.8
22.216472148895264,-9.01,-3.09,-5.48,10.98
22.225881099700928,-8.88,-4.09,-5.09,11.02
22.297554969787598,-8.87,-4.33,-4.8,10.97
22.297829151153564,-8.9,-3.91,-4.76,10.82
22.298091173171997,-9.39,0.15,-5.42,10.84
22.29834794998169,-4.82,0.52,-5.84,7.59
22.298607110977173,4.6,0.24,-1.96,5.0
22.299400091171265,15.81,10.22,12.3,22.48
22.299668073654175,18.43,11.9,12.02,25.01
22.30574607849121,7.37,11.53,-3.27,14.06
22.31638216972351,-1.62,9.38,-5.08,10.78
22.32565402984619,-6.25,1.3,-1.6,6.58
22.398309230804443,-7.98,1.39,-3.77,8.93
22.39857506752014,-11.7,0.07,-4.08,12.39
22.398836135864258,-13.13,-0.36,-2.08,13.29
22.399096965789795,-10.01,-1.75,-5.19,11.41
22.399353981018066,-6.23,-1.54,-7.97,10.23
22.40014123916626,-3.74,-0.74,-6.56,7.58
22.40039825439453,-2.8,-0.07,-3.9,4.8
22.405596256256104,-1.43,0.7,-2.79,3.21
22.416182041168213,-0.04,1.06,-2.09,2.34
22.425570964813232,0.28,0.98,-1.17,1.55
22.498716115951538,-0.55,0.67,-0.76,1.15
22.498987197875977,-1.47,0.27,-1.07,1.83
22.49926519393921,-1.82,0.16,-1.08,2.12
22.499539136886597,-1.83,0.21,-0.6,1.93
22.499802112579346,-1.88,0.03,0.02,1.88
22.50057601928711,-1.51,-0.12,0.28,1.54
22.500843048095703,-0.54,0.0,0.03,0.54
22.505373001098633,0.4,0.12,-0.5,0.65
22.516088008880615,1.04,-0.03,-1.09,1.5
22.525487184524536,1.08,-0.26,-0.93,1.44
22.59886407852173,0.82,-0.28,-0.58,1.04
22.599130153656006,0.71,-0.16,-0.32,0.79
22.599388122558594,0.59,0.04,-0.16,0.61
22.599647998809814,0.48,0.25,0.26,0.6
22.599921226501465,0.44,0.3,0.57,0.78
22.6007080078125,0.69,0.19,0.8,1.07
22.600965976715088,1.22,0.09,0.79,1.45
22.605435132980347,1.83,0.09,0.87,2.02
22.617733001708984,2.13,0.11,1.12,2.4
22.625317096710205,2.02,0.01,1.28,2.39
22.69921612739563,1.69,-0.22,1.42,2.21
22.69948101043701,1.35,-0.4,1.46,2.02
22.699740171432495,1.08,-0.48,1.62,2.0
22.69999599456787,1.28,-0.4,1.43,1.96
22.70025610923767,1.64,-0.15,0.96,1.9
22.701066970825195,1.22,-0.03,0.44,1.29
22.70132613182068,0.39,0.14,0.1,0.42
22.705206155776978,0.0,0.27,0.1,0.28
22.71567726135254,0.08,0.27,0.36,0.45
22.725147247314453,0.45,0.23,0.84,0.98
22.798915147781372,1.06,0.13,1.33,1.7
22.799180030822754,1.48,0.08,1.62,2.19
22.799438953399658,1.51,0.13,1.78,2.33
22.799699068069458,1.35,0.23,1.62,2.12
22.799959182739258,1.13,0.47,1.15,1.67
22.800738096237183,1.07,0.6,1.35,1.82
22.800995111465454,1.39,0.71,1.46,2.13
22.805052280426025,1.73,1.01,1.3,2.38
22.815584182739258,1.58,1.53,1.26,2.53
22.8249831199646,1.32,1.95,1.02,2.56
22.899367094039917,1.27,2.49,0.75,2.89
22.899639129638672,1.29,2.67,0.81,3.07
22.89990520477295,0.93,2.39,1.21,2.83
22.90016508102417,1.13,2.31,1.71,3.08
22.900428295135498,1.22,2.42,2.1,3.42
22.901243209838867,1.45,2.77,2.36,3.91
22.901504039764404,2.0,3.58,2.49,4.79
22.904879093170166,3.22,4.72,2.89,6.4
22.915462970733643,4.27,5.25,4.15,7.93
22.924821138381958,4.77,5.8,5.13,9.09
22.99934411048889,5.03,6.69,6.21,10.42
22.999611139297485,4.96,7.35,7.54,11.63
22.999873161315918,4.73,7.58,8.04,12.01
23.000129222869873,4.79,8.2,7.4,12.03
23.00038719177246,5.08,8.68,5.32,11.37
23.001193046569824,6.14,8.97,1.29,10.94
23.001460075378418,6.05,9.69,-2.02,11.6
23.004768133163452,2.89,11.85,-2.55,12.46
23.015297174453735,-1.2,12.78,0.02,12.83
23.024699211120605,-1.2,11.07,0.37,11.14
23.099590301513672,1.04,8.97,0.03,9.03
23.0998592376709,2.08,6.03,0.43,6.39
23.10012722015381,1.26,3.58,1.17,3.97
23.10039210319519,-3.14,2.44,-1.91,4.41
23.10065507888794,-3.89,4.57,-5.36,8.04
23.101436138153076,0.7,6.33,-1.16,6.47
23.101701259613037,4.36,4.95,1.62,6.79
23.104753017425537,5.77,2.67,2.5,6.83
23.115061283111572,5.31,0.71,2.69,5.99
23.124611139297485,5.21,-0.52,2.97,6.01
23.19956111907959,5.11,-1.07,3.36,6.2
23.199827194213867,4.43,-1.22,3.53,5.79
23.200090169906616,3.31,-1.28,3.46,4.95
23.200353145599365,2.07,-1.29,3.28,4.08
23.200595140457153,0.98,-1.24,3.28,3.64
23.201388120651245,0.26,-0.92,3.28,3.41
23.201650142669678,-0.14,-0.34,2.67,2.69
23.204529285430908,0.09,-0.08,2.08,2.08
23.215003967285156,0.69,-0.15,1.73,1.86
23.2244291305542,1.14,-0.45,1.41,1.86
23.29983901977539,1.27,-1.13,1.27,2.12
23.300103187561035,0.87,-2.0,0.94,2.37
23.300366163253784,0.1,-2.96,0.57,3.01
23.30063009262085,-1.07,-3.69,0.56,3.88
23.300901174545288,-2.11,-4.23,0.03,4.72
23.30172300338745,-2.4,-4.74,-0.87,5.38
23.301982164382935,-2.94,-5.03,-2.24,6.24
23.304365158081055,-3.61,-5.35,-3.92,7.55
23.314929008483887,-4.63,-5.36,-4.11,8.18
23.324271202087402,-5.33,-5.52,-2.8,8.16
23.400442123413086,-5.17,-5.62,-2.57,8.05
23.40070915222168,-5.07,-5.05,-3.57,7.99
23.400967121124268,-5.03,-4.08,-4.49,7.88
23.40123224258423,-4.5,-3.08,-4.98,7.38
23.4014949798584,-4.55,-2.33,-5.72,7.67
23.40229320526123,-5.75,-1.79,-7.28,9.44
23.402550220489502,-7.23,-1.16,-9.04,11.63
23.40422296524048,-8.49,-0.8,-10.5,13.52
23.41470718383789,-9.5,-1.05,-11.35,14.83
23.424151182174683,-10.14,-1.8,-11.34,15.31
23.499946117401123,-9.99,-2.83,-11.11,15.2
23.500251293182373,-8.93,-4.34,-10.41,14.38
23.50051212310791,-8.53,-5.24,-9.13,13.54
23.50077509880066,-8.69,0.2,-8.79,12.36
23.501034259796143,-5.28,3.17,-4.51,7.63
23.501819133758545,5.58,1.83,0.25,5.87
23.502079010009766,25.37,17.77,27.79,41.61
23.504318237304688,21.93,22.52,1.36,31.46
23.51455807685852,0.36,17.65,-15.46,23.46
23.52404808998108,-10.93,-1.63,-0.27,11.05
23.600563049316406,-17.22,-6.48,-0.72,18.41
23.600831031799316,-15.6,-7.0,-6.51,18.29
23.60110116004944,-13.64,-3.77,-9.38,16.97
23.601364135742188,-9.48,-0.35,-8.07,12.45
23.601628303527832,-3.64,2.39,-4.87,6.53
23.602419137954712,0.04,1.79,-3.64,4.05
23.60268211364746,1.81,0.7,-2.98,3.55
23.60397720336914,2.29,0.42,-2.13,3.15
23.6144962310791,1.55,0.41,-1.73,2.35
23.623894214630127,-0.25,0.55,-2.41,2.48
23.70075798034668,-1.18,0.54,-3.57,3.79
23.701032161712646,-0.7,0.69,-3.4,3.53
23.70130729675293,0.27,0.55,-2.0,2.09
23.70157814025879,0.69,0.25,-0.82,1.1
23.70184898376465,0.79,-0.13,-0.77,1.11
23.70267105102539,0.65,-0.38,-0.87,1.15
23.702929973602295,0.31,-0.35,-0.79,0.91
23.703691959381104,0.08,-0.15,-0.59,0.61
23.71426296234131,-0.08,-0.06,-0.28,0.29
23.72374200820923,-0.28,-0.17,0.24,0.4
23.800799131393433,-0.42,-0.22,0.51,0.69
23.801059246063232,-0.28,-0.22,0.73,0.81
23.801331043243408,0.09,-0.21,0.93,0.95
23.80160117149353,0.55,-0.14,0.99,1.14
23.801870107650757,1.02,-0.07,0.92,1.37
23.802709102630615,1.36,-0.05,0.83,1.59
23.80298900604248,1.48,0.0,0.81,1.68
23.803701162338257,1.57,0.04,0.79,1.75
23.814048290252686,1.7,0.02,0.84,1.89
23.823631286621094,1.71,0.01,0.92,1.94
23.901435136795044,1.51,-0.03,1.06,1.84
23.901716232299805,0.97,-0.09,1.17,1.52
23.90198802947998,0.3,-0.02,1.1,1.14
23.902258157730103,0.08,0.04,1.05,1.05
23.90252923965454,0.38,0.06,0.64,0.74
23.903569221496582,0.39,0.05,0.56,0.68
23.90384006500244,0.44,-0.07,1.16,1.24
23.90411114692688,1.06,-0.03,1.2,1.6
23.913767099380493,1.43,0.04,0.84,1.65
23.9234299659729,1.41,0.17,0.61,1.54
24.000211238861084,1.32,0.38,0.36,1.42
24.000473022460938,1.04,0.4,0.4,1.18
24.00073218345642,1.02,0.43,0.74,1.33
24.000972270965576,1.21,0.43,1.31,1.83
24.00122594833374,1.33,0.53,1.58,2.13
24.00202512741089,1.47,0.79,1.56,2.28
24.00228214263916,1.61,1.13,1.48,2.46
24.003157138824463,1.69,1.51,1.24,2.58
24.013731956481934,1.81,1.97,0.81,2.79
24.02320408821106,2.15,2.77,0.92,3.62
24.100043296813965,2.03,3.31,2.04,4.38
24.10030221939087,1.67,2.99,2.6,4.29
24.10055923461914,2.19,3.69,2.58,5.0
24.100813150405884,2.47,4.66,3.01,6.07
24.101067066192627,3.74,5.86,3.33,7.7
24.101864099502563,4.86,6.46,4.2,9.1
24.10212016105652,5.42,7.45,4.53,10.26
24.103044986724854,6.05,8.47,5.26,11.66
24.113518238067627,5.98,8.91,6.3,12.44
24.12301516532898,5.12,9.06,6.87,12.46
24.20032024383545,4.82,9.9,7.37,13.24
24.200592041015625,6.15,10.62,6.54,13.9
24.20085620880127,7.1,9.54,3.13,12.29
24.20111322402954,7.49,8.32,-0.67,11.21
24.201364040374756,6.5,8.36,-3.7,11.21
24.202166080474854,2.6,10.05,-4.3,11.23
24.20243811607361,-0.08,11.85,-1.36,11.92
24.202978134155273,0.43,10.33,1.38,10.43
24.21345806121826,0.95,6.23,-0.05,6.3
24.222997188568115,1.07,2.7,0.45,2.93
24.300559043884277,-2.77,0.07,0.11,2.77
24.30082416534424,-5.59,-0.05,-4.52,7.18
24.301087141036987,-1.55,2.94,-2.12,3.94
24.301347255706787,3.41,3.21,0.97,4.78
24.301603078842163,6.75,1.33,2.43,7.29
24.302471160888672,7.66,-0.97,4.3,8.83
24.302905082702637,6.86,-2.38,4.41,8.49
24.303160190582275,5.18,-2.81,3.3,6.75
24.313727140426636,3.41,-2.74,2.48,5.02
24.322911262512207,2.21,-2.65,2.48,4.24
24.401146173477173,1.3,-2.61,2.8,4.04
24.40141010284424,0.74,-2.58,2.85,3.91
24.401674270629883,0.42,-2.74,3.0,4.08
24.401931285858154,0.3,-3.01,2.72,4.06
24.402213096618652,0.49,-3.43,2.47,4.25
24.403192043304443,0.95,-3.81,2.35,4.57
24.403449058532715,1.59,-4.1,2.18,4.9
24.403706073760986,1.83,-4.15,2.29,5.08
24.413650035858154,1.14,-3.63,2.27,4.43
24.42280912399292,0.42,-3.5,1.73,3.92
24.5003399848938,-0.58,-4.08,0.84,4.2
24.50060510635376,-2.07,-3.96,-1.27,4.64
24.500872135162354,-2.47,-3.38,-3.46,5.43
24.501129150390625,-2.95,-2.97,-2.69,4.97
24.501386165618896,-3.29,-3.01,-1.3,4.64
24.502217292785645,-3.48,-2.67,-1.69,4.7
24.502724170684814,-4.02,-1.65,-2.68,5.1
24.50298023223877,-4.65,-0.49,-3.58,5.88
24.585132122039795,-5.32,0.6,-4.49,6.98
24.58540630340576,-5.58,1.39,-5.31,7.82
24.585668087005615,-6.02,1.94,-6.37,8.97
24.585927963256836,-7.2,2.48,-7.71,10.83
24.58618927001953,-8.14,2.44,-8.74,12.19
24.58644723892212,-8.66,1.73,-9.14,12.7
24.586708068847656,-9.19,0.58,-9.23,13.03
24.587512016296387,-8.88,-1.22,-8.54,12.38
24.59246015548706,-7.69,-2.99,-7.39,11.07
24.602633953094482,-6.56,-3.81,-6.73,10.14
24.68387222290039,-6.22,-3.67,-6.63,9.8
24.684134006500244,-6.32,-3.43,-6.5,9.69
24.684391975402832,-6.23,-3.49,-6.28,9.5
24.684648990631104,-6.2,0.13,-6.94,9.3
24.68490505218506,0.28,5.8,-3.08,6.57
24.685160160064697,7.36,4.15,6.31,10.54
24.6854190826416,9.75,5.23,14.98,18.62
24.686213970184326,10.42,6.59,14.65,19.14
24.692227125167847,5.01,5.35,-0.16,7.33
24.70219326019287,-2.79,8.63,-7.15,11.54
24.783818244934082,-6.68,9.12,-8.89,14.38
24.784093141555786,-5.6,2.8,-7.61,9.85
24.784358024597168,-7.67,1.23,2.36,8.11
24.784621238708496,-8.5,-3.29,1.43,9.22
24.784882068634033,-5.65,-4.04,-4.81,8.44
24.785144090652466,-4.01,-3.11,-6.71,8.41
24.78540015220642,-3.56,-1.04,-5.74,6.83
24.786156177520752,-3.18,0.86,-3.81,5.03
24.791999101638794,-1.28,1.61,-2.81,3.48
24.802109241485596,0.49,1.25,-2.52,2.85
24.883186101913452,0.88,0.8,-1.75,2.11
24.884719133377075,0.18,0.65,-0.44,0.8
24.88499402999878,-0.62,0.49,-0.67,1.03
24.88525414466858,-1.28,0.18,-1.13,1.71
24.885515213012695,-1.72,-0.05,-0.76,1.88
24.885772228240967,-1.92,-0.04,-0.47,1.97
24.886024951934814,-1.93,-0.16,-0.4,1.97
24.886787176132202,-1.63,-0.24,-0.46,1.71
24.8919939994812,-1.05,-0.17,-0.56,1.2
24.90224313735962,-0.29,0.0,-0.87,0.91
24.912631034851074,0.42,0.13,-1.11,1.19
24.984638214111328,0.54,0.12,-0.85,1.01
24.98491096496582,0.11,0.04,-0.05,0.12
24.985207080841064,-0.11,-0.03,0.71,0.71
24.985454082489014,-0.01,-0.03,0.88,0.88
24.9857120513916,0.2,0.08,0.58,0.61
24.98597002029419,0.6,0.14,0.49,0.78
24.98671817779541,1.02,0.18,0.19,1.05
24.99188995361328,1.23,0.25,-0.01,1.25
25.00191307067871,1.38,0.24,0.1,1.4
25.012572288513184,1.39,0.06,0.37,1.43
25.08451008796692,1.19,-0.05,0.61,1.33
25.084757089614868,1.16,-0.05,0.95,1.5
25.085018157958984,1.21,0.02,1.28,1.76
25.085278034210205,1.29,0.12,1.54,2.01
25.08553910255432,1.53,0.06,1.35,2.04
25.085795164108276,1.62,-0.14,1.01,1.91
25.086539268493652,1.51,-0.23,0.8,1.72
25.09187126159668,1.16,-0.13,0.62,1.32
25.101797103881836,0.65,-0.04,0.36,0.74
25.11225414276123,0.59,0.0,0.18,0.61
25.184453010559082,0.91,0.07,0.28,0.95
25.184730052947998,1.2,0.26,0.53,1.33
25.18499517440796,1.26,0.48,0.92,1.63
25.185258150100708,1.36,0.67,1.26,1.97
25.185517072677612,1.59,0.8,1.5,2.32
25.185776233673096,1.62,0.94,1.72,2.54
25.186528205871582,2.06,1.23,1.48,2.81
25.191559076309204,2.5,1.86,1.2,3.33
25.201775074005127,2.52,2.62,1.65,3.99
25.212197303771973,2.38,2.69,2.2,4.21
25.28458595275879,2.39,2.84,1.98,4.2
25.284855127334595,2.26,3.24,2.17,4.5
25.28512215614319,2.24,3.4,2.47,4.76
25.285383224487305,2.74,4.38,2.67,5.81
25.285640239715576,4.0,6.06,2.73,7.75
25.28589415550232,5.58,6.34,4.0,9.34
25.286712169647217,5.1,6.49,4.31,9.31
25.291468143463135,5.17,7.72,4.59,10.36
25.301488161087036,4.76,8.49,5.71,11.28
25.312045097351074,4.5,8.9,6.84,12.09
25.384644031524658,5.61,9.45,6.82,12.93
25.384904146194458,6.28,9.57,5.05,12.51
25.385164260864258,6.83,9.1,2.95,11.75
25.385425090789795,7.36,8.93,-0.53,11.58
25.385682106018066,5.57,9.4,-3.64,11.51
25.385940074920654,1.76,10.88,-4.31,11.83
25.38674306869507,0.46,12.59,-1.72,12.71
25.391283988952637,0.63,11.06,0.25,11.08
25.40145206451416,0.64,6.41,-2.26,6.82
25.41189217567444,0.88,2.39,-0.59,2.61
25.484541177749634,-2.26,-0.05,-0.16,2.26
25.484836101531982,-4.36,0.83,-4.97,6.66
25.485126972198486,0.21,3.75,-2.06,4.28
25.485432147979736,4.94,3.02,2.33,6.24
25.48570203781128,7.18,0.38,4.43,8.44
25.485958099365234,7.01,-1.15,4.6,8.46
25.486752033233643,5.74,-1.45,3.15,6.7
25.491141080856323,4.26,-1.49,2.08,4.96
25.50137996673584,2.8,-1.65,1.31,3.5
25.511780261993408,1.83,-2.1,1.64,3.23
25.58495306968689,1.23,-2.78,2.45,3.9
25.585230112075806,0.71,-3.14,2.55,4.1
25.585494995117188,0.2,-3.34,2.37,4.1
25.585761070251465,0.33,-3.4,2.51,4.23
25.586030960083008,0.68,-3.35,2.55,4.26
25.586323261260986,0.95,-3.1,2.41,4.03
25.58707904815674,0.99,-2.73,2.41,3.77
25.591135025024414,0.54,-2.13,2.21,3.11
25.60105323791504,0.01,-1.63,1.5,2.21
25.611611127853394,-0.37,-2.14,0.87,2.33
25.684131145477295,-1.06,-2.78,0.23,2.98
25.684394121170044,-1.12,-2.95,-0.65,3.22
25.684654235839844,-1.37,-3.11,-0.26,3.4
25.684929132461548,-1.72,-3.49,0.36,3.9
25.685189247131348,-1.77,-3.73,0.11,4.13
25.685448169708252,-2.09,-3.63,-0.28,4.19
25.686248302459717,-2.95,-3.18,-0.82,4.41
25.690858125686646,-3.6,-2.7,-1.12,4.63
25.700990200042725,-4.26,-2.55,-1.16,5.09
25.711474180221558,-5.25,-2.23,-1.61,5.92
25.785086154937744,-6.13,-1.69,-2.57,6.85
25.785359144210815,-6.88,-0.96,-4.11,8.07
25.785624980926514,-7.68,-0.13,-5.3,9.33
25.78588628768921,-8.82,0.47,-5.83,10.58
25.786165237426758,-9.94,0.42,-6.05,11.64
25.786426067352295,-10.53,-0.15,-6.41,12.32
25.787225246429443,-10.01,-0.66,-6.18,11.78
25.79072904586792,-8.98,-0.78,-5.27,10.44
25.800698280334473,-8.1,-0.76,-4.68,9.38
25.811228275299072,-7.17,-1.18,-4.11,8.34
25.886335134506226,-6.48,-2.01,-3.48,7.62
25.886609077453613,-6.38,-2.6,-3.25,7.61
25.88687515258789,-7.8,1.81,-4.07,8.98
25.88713502883911,-3.79,-1.48,-5.81,7.09
25.88739514350891,0.27,-3.41,-6.73,7.54
25.8876531124115,11.73,11.22,7.19,17.75
25.888419151306152,20.56,18.73,17.2,32.7
25.890567302703857,6.87,15.39,-1.68,16.93
25.90059804916382,-5.73,5.63,-5.13,9.53
25.91112995147705,-8.39,-4.45,-0.93,9.54
25.984647274017334,-9.3,-3.37,0.31,9.89
25.984917163848877,-10.35,-0.03,-1.73,10.49
25.985175132751465,-9.54,-0.89,-4.86,10.74
25.985435009002686,-7.48,0.95,-5.85,9.54
25.985692024230957,-5.66,0.17,-4.75,7.39
25.985949993133545,-3.98,-0.31,-3.69,5.43
25.986717224121094,-2.84,-0.64,-2.54,3.86
25.990442276000977,-0.59,-0.03,-2.04,2.12
26.00058913230896,0.64,0.74,-1.33,1.65
26.010919094085693,0.07,0.96,-1.41,1.7
26.085841178894043,-0.75,0.7,-2.05,2.29
26.086112022399902,-0.98,0.39,-1.91,2.18
26.086385250091553,-0.78,0.25,-1.24,1.48
26.086647987365723,-0.54,0.07,-0.52,0.75
26.086918115615845,-0.6,-0.01,-0.62,0.86
26.087180137634277,-0.78,-0.02,-0.99,1.26
26.087961196899414,-0.7,-0.01,-1.21,1.39
26.09027910232544,-0.44,0.02,-1.45,1.51
26.10036015510559,-0.31,0.06,-1.32,1.35
26.11095118522644,-0.29,0.14,-1.09,1.13
26.185466289520264,-0.14,0.23,-0.81,0.85
26.18571424484253,-0.11,0.23,-0.45,0.51
26.185978174209595,-0.22,0.16,-0.17,0.32
26.186236143112183,-0.18,0.02,0.02,0.18
26.18649911880493,0.14,-0.02,0.09,0.16
26.18675708770752,0.4,-0.01,0.03,0.4
26.187551021575928,0.49,0.06,-0.1,0.5
26.19015598297119,0.46,0.03,-0.01,0.46
26.20017099380493,0.43,0.02,0.04,0.43
26.210700035095215,0.47,0.04,0.15,0.49
26.285905122756958,0.35,0.03,0.56,0.66
26.28618097305298,0.18,0.01,0.99,1.0
26.28644609451294,0.35,0.03,1.25,1.29
26.28669309616089,0.67,0.03,1.4,1.55
26.28693914413452,1.05,0.03,1.45,1.79
26.287227153778076,1.65,-0.06,1.3,2.1
26.28800916671753,1.95,-0.22,1.04,2.22
26.29011297225952,1.94,-0.3,0.9,2.15
26.30001211166382,2.08,-0.2,0.9,2.27
26.31068229675293,1.98,0.05,0.78,2.12
26.385666131973267,1.67,0.28,0.71,1.83
26.385929107666016,1.48,0.44,1.1,1.89
26.386188983917236,1.52,0.42,1.52,2.19
26.386446952819824,1.79,0.38,1.9,2.63
26.38670301437378,2.15,0.43,2.28,3.16
26.38697099685669,2.54,0.76,2.5,3.64
26.387778282165527,2.67,1.21,1.81,3.44
26.389899253845215,2.28,1.6,1.15,3.01
26.399874210357666,2.04,2.19,0.91,3.12
26.410429000854492,2.12,2.67,1.25,3.63
26.485031127929688,1.87,3.23,1.79,4.13
26.485291004180908,2.21,3.46,2.12,4.62
26.485555171966553,2.37,3.49,2.68,4.99
26.485815048217773,2.46,3.58,2.88,5.21
26.48607110977173,2.75,4.39,2.86,5.91
26.486334085464478,3.47,5.72,2.84,7.26
26.487091064453125,4.89,7.19,3.17,9.25
26.48966908454895,5.85,7.41,4.66,10.52
26.499813079833984,5.91,7.83,5.76,11.37
26.51025915145874,6.93,9.0,7.32,13.51
26.5855450630188,7.95,10.26,7.13,14.8
26.585812091827393,7.93,10.73,6.63,14.89
26.586077213287354,7.15,9.96,6.49,13.87
26.586339950561523,6.77,8.82,2.45,11.38
26.5866060256958,6.29,8.7,-3.28,11.22
26.586872100830078,3.92,10.7,-6.59,13.16
26.587682247161865,0.8,13.63,-4.42,14.35
26.589543104171753,-0.01,12.89,-0.64,12.9
26.59960412979126,0.12,8.09,-1.8,8.28
26.610167026519775,1.53,3.84,-0.87,4.22
26.685270071029663,-1.12,1.73,1.1,2.33
26.6855411529541,-5.08,2.16,-4.46,7.09
26.685827255249023,-0.96,5.36,-2.36,5.93
26.686095237731934,4.19,5.25,1.15,6.81
26.686363220214844,7.45,2.67,1.99,8.16
26.686618089675903,7.31,0.42,2.25,7.65
26.687411069869995,5.6,-0.94,1.33,5.83
26.689524173736572,4.57,-1.85,0.97,5.02
26.699469089508057,3.46,-2.33,0.98,4.28
26.710071086883545,2.26,-2.65,1.17,3.67
26.78555727005005,1.22,-2.9,1.55,3.5
26.78582000732422,0.29,-3.21,1.73,3.65
26.786079168319702,-0.14,-3.53,1.76,3.94
26.786334991455078,0.08,-3.87,1.95,4.33
26.786591053009033,0.59,-4.03,1.83,4.46
26.78684711456299,1.09,-3.95,1.49,4.36
26.787646293640137,1.42,-3.93,1.15,4.33
26.789318084716797,1.6,-3.97,1.04,4.4
26.79932713508606,1.8,-4.18,1.17,4.69
26.809930086135864,1.66,-4.7,1.17,5.12
26.886235237121582,1.09,-5.5,1.11,5.71
26.886515140533447,0.73,-6.25,1.15,6.39
26.886778116226196,0.59,-6.66,1.37,6.82
26.887057304382324,0.56,-6.83,1.75,7.07
26.887336254119873,0.62,-6.62,1.57,6.83
26.887593269348145,0.05,-6.14,0.5,6.16
26.888395071029663,-2.0,-5.79,-1.11,6.22
26.889180183410645,-4.67,-4.94,-3.14,7.48
26.899176120758057,-6.48,-3.52,-4.16,8.46
26.909842014312744,-7.26,-2.36,-4.48,8.85
26.985372066497803,-7.44,-1.2,-5.7,9.44
26.985671997070312,-7.84,0.37,-7.54,10.88
26.985960960388184,-9.04,1.89,-9.43,13.19
26.986265182495117,-10.89,2.89,-10.69,15.53
26.986531257629395,-12.79,2.84,-11.13,17.19
26.986788272857666,-13.43,1.05,-10.63,17.15
26.987616062164307,-11.21,-0.63,-9.92,14.98
26.9890079498291,-8.51,-1.24,-8.82,12.31
26.99885129928589,-7.31,-1.4,-7.86,10.82
27.009554147720337,-6.76,-2.02,-6.95,9.9
27.0853910446167,-6.96,-3.16,-5.78,9.58
27.085690021514893,-8.02,1.62,-5.44,9.82
27.085984230041504,0.01,3.16,-2.48,4.01
27.086276054382324,15.87,4.32,8.6,18.56
27.086538076400757,26.1,13.82,22.6,37.18
27.086798191070557,16.51,13.48,5.03,21.89
27.087553024291992,-1.2,11.07,-10.09,15.02
27.088839054107666,-9.39,2.82,-3.91,10.55
27.09879207611084,-10.08,-2.99,-0.34,10.51
27.109390258789062,-11.48,0.51,-2.44,11.74
27.185306072235107,-12.76,-1.26,-4.05,13.44
27.18559718132019,-8.5,-0.72,-5.41,10.1
27.185884952545166,-4.48,-0.33,-6.03,7.51
27.186171054840088,-2.9,0.23,-4.55,5.4
27.1864652633667,-2.25,0.13,-3.49,4.15
27.18672013282776,-0.78,0.09,-2.99,3.09
27.18747115135193,0.0,0.38,-2.76,2.78
27.188694953918457,-0.13,0.77,-2.13,2.26
27.198647022247314,-0.43,0.89,-1.4,1.71
27.209282159805298,-0.41,0.72,-1.07,1.35
27.2860050201416,-0.25,0.42,-0.9,1.02
27.286278247833252,-0.35,0.18,-0.41,0.56
27.286542177200317,-0.64,0.07,-0.09,0.65
27.28680419921875,-0.61,-0.04,-0.39,0.72
27.28706121444702,-0.35,-0.18,-0.63,0.74
27.287333011627197,-0.21,-0.14,-0.76,0.8
27.288331985473633,-0.05,-0.05,-0.84,0.84
27.288599014282227,0.19,-0.07,-0.69,0.71
27.298620223999023,0.33,-0.11,-0.53,0.63
27.309219121932983,0.42,-0.1,-0.51,0.66
27.386044025421143,0.4,-0.09,-0.26,0.48
27.38631820678711,0.28,0.01,0.15,0.31
27.386587142944336,0.24,0.11,0.47,0.53
27.386861085891724,0.44,0.14,0.56,0.72
27.387125968933105,0.89,0.15,0.62,1.09
27.387396097183228,1.24,0.14,0.57,1.37
27.388378143310547,1.28,0.1,0.74,1.48
27.388634204864502,1.24,0.09,0.88,1.52
27.398619174957275,1.19,0.08,1.06,1.59
27.409083127975464,1.08,-0.05,1.07,1.52
27.485465049743652,0.87,-0.12,1.02,1.34
27.48575496673584,0.74,-0.13,1.13,1.35
27.486040115356445,0.82,-0.15,1.28,1.52
27.486329078674316,1.09,-0.18,1.03,1.51
27.486587047576904,1.24,-0.2,0.87,1.52
27.486844062805176,1.3,-0.24,1.02,1.66
27.48764419555664,1.45,-0.14,1.02,1.77
27.48827815055847,1.82,0.1,1.17,2.16
27.498595237731934,2.1,0.27,0.97,2.32
27.508851051330566,1.94,0.23,0.83,2.12
27.58506727218628,1.69,0.28,1.5,2.27
27.585330963134766,1.89,0.38,1.98,2.76
27.58559012413025,2.18,0.42,2.14,3.08
27.585848093032837,2.45,0.67,2.2,3.36
27.586098194122314,2.64,1.25,1.68,3.36
27.586356163024902,2.14,1.69,1.18,2.97
27.587110996246338,1.89,2.3,0.87,3.1
27.588097095489502,2.4,3.25,1.16,4.2
27.598552227020264,2.11,3.61,1.89,4.58
27.608702182769775,2.17,4.19,2.68,5.42
27.68466806411743,2.68,5.5,2.87,6.75
27.684935092926025,3.89,7.22,3.22,8.81
27.685197114944458,5.57,7.82,4.25,10.49
27.685451984405518,5.68,7.94,4.56,10.77
27.685707092285156,5.09,8.39,5.05,11.03
27.685965061187744,3.89,8.99,6.29,11.64
27.68675994873047,4.02,10.36,7.55,13.43
27.68791913986206,5.96,11.94,6.83,14.99
27.69797706604004,6.85,11.5,4.58,14.14
27.70857524871826,7.5,9.91,2.84,12.74
27.785198211669922,8.34,8.72,-1.08,12.11
27.78546714782715,7.41,9.23,-4.29,12.58
27.785730123519897,3.42,10.87,-4.33,12.19
27.78598713874817,-0.08,12.1,-2.13,12.28
27.786250114440918,-1.35,8.41,-0.79,8.55
27.78651213645935,-0.27,3.62,-0.06,3.63
27.78734517097473,-1.65,1.87,0.84,2.63
27.787837028503418,-5.71,1.22,-4.17,7.17
27.797904014587402,-2.02,3.47,-3.08,5.06
27.80844211578369,3.88,3.55,0.85,5.32
27.88610029220581,7.59,1.17,2.52,8.08
27.886367082595825,7.88,-0.86,3.11,8.51
27.886631965637207,6.48,-1.85,2.29,7.11
27.886898040771484,5.32,-2.43,1.68,6.08
27.88721227645874,4.17,-2.82,1.53,5.26
27.887632131576538,3.13,-3.24,1.81,4.85
27.888460159301758,2.41,-3.72,2.33,5.0
27.88872003555298,1.89,-4.0,2.67,5.16
27.897716999053955,1.45,-4.09,2.59,5.05
27.9082350730896,1.17,-4.1,2.54,4.96
27.985873222351074,1.11,-4.16,2.53,4.99
27.986140251159668,1.15,-4.18,2.28,4.89
27.986402988433838,1.09,-4.26,2.17,4.9
27.98666000366211,1.26,-4.28,2.11,4.93
27.98694109916687,1.58,-4.3,1.91,4.96
27.987375259399414,1.75,-4.52,1.87,5.19
27.988152027130127,1.31,-4.67,1.74,5.15
27.98841619491577,0.4,-4.63,1.51,4.88
27.99760413169861,0.02,-4.66,1.26,4.82
28.008193016052246,-0.44,-4.42,0.35,4.45
28.0853910446167,-1.4,-4.15,-0.89,4.46
28.085655212402344,-2.47,-3.79,-2.07,4.97
28.085917949676514,-3.93,-3.22,-2.51,5.66
28.086183071136475,-5.11,-2.72,-2.34,6.24
28.086443185806274,-5.63,-1.91,-2.56,6.47
28.086733102798462,-6.22,-0.67,-3.23,7.04
28.087684154510498,-6.82,0.82,-4.08,7.98
28.087943077087402,-6.97,2.16,-4.7,8.67
28.09753704071045,-7.23,3.25,-5.55,9.67
28.1080379486084,-8.58,4.04,-6.96,11.76
28.186100959777832,-10.12,4.03,-7.34,13.13
28.186378002166748,-10.75,3.15,-7.03,13.22
28.186658143997192,-10.06,1.54,-6.28,11.95
28.187121152877808,-8.92,-0.37,-5.24,10.35
28.18740701675415,-8.14,-1.76,-4.5,9.46
28.187673091888428,-7.69,-2.96,-4.16,9.23
28.188430070877075,-8.65,-0.84,-4.39,9.73
28.188688278198242,-6.6,-1.15,-5.91,8.93
28.197270154953003,-4.5,-4.07,-8.33,10.3
28.207842111587524,3.09,5.42,-0.45,6.25
28.28646421432495,15.45,11.97,14.67,24.43
28.28691530227661,12.74,10.1,6.97,17.68
28.287185192108154,0.08,10.33,-4.6,11.3
28.287446975708008,-5.82,2.66,-2.14,6.74
28.28770613670349,-6.88,-2.6,-2.1,7.64
28.28796410560608,-9.14,-1.07,-4.06,10.05
28.28872013092041,-9.49,-2.18,-4.59,10.76
28.28898000717163,-8.43,0.17,-3.85,9.26
28.29720115661621,-5.96,0.47,-4.36,7.39
28.3078031539917,-3.3,0.63,-4.27,5.43
28.386202096939087,-1.94,0.07,-2.61,3.25
28.386680126190186,-0.5,0.03,-2.0,2.06
28.386945247650146,0.32,0.36,-1.74,1.8
28.38720703125,0.01,0.65,-1.4,1.54
28.38745403289795,-0.76,0.65,-1.47,1.77
28.387718200683594,-1.15,0.45,-2.11,2.44
28.388511180877686,-1.05,0.41,-2.35,2.6
28.388753175735474,-1.05,0.26,-1.56,1.89
28.39701795578003,-1.25,0.05,-0.83,1.5
28.407647132873535,-1.44,-0.12,-0.67,1.59
28.486297130584717,-1.5,-0.17,-0.59,1.62
28.486719131469727,-1.02,-0.01,-0.68,1.22
28.48697805404663,-0.07,0.18,-0.85,0.87
28.48723602294922,0.61,0.27,-0.86,1.08
28.487492084503174,0.7,0.26,-0.57,0.93
28.487749099731445,0.39,0.16,-0.26,0.49
28.48850727081299,0.22,0.09,-0.11,0.26
28.488742113113403,0.21,0.09,-0.13,0.26
28.49695611000061,0.06,0.04,-0.14,0.15
28.50735306739807,0.01,0.11,-0.06,0.12
28.58626127243042,0.14,0.15,0.28,0.34
28.586692094802856,0.41,0.16,0.57,0.72
28.586956024169922,0.86,0.15,0.75,1.15
28.587221145629883,1.16,0.07,1.04,1.55
28.587507247924805,1.29,-0.04,1.31,1.83
28.587777137756348,1.37,-0.2,1.52,2.05
28.588548183441162,1.41,-0.37,1.84,2.34
28.588808059692383,1.99,-0.35,2.2,2.98
28.596687078475952,2.83,-0.17,1.7,3.3
28.60730814933777,2.73,-0.04,1.23,2.99
28.68726110458374,2.1,0.08,1.14,2.39
28.6875319480896,1.79,0.17,1.12,2.11
28.687798976898193,1.99,0.04,1.36,2.41
28.688068151474,2.69,-0.11,1.81,3.24
28.688335180282593,3.33,-0.05,1.76,3.76
28.688591957092285,3.24,0.05,2.06,3.83
28.689338207244873,2.57,0.2,2.38,3.5
28.689597129821777,2.09,0.62,2.2,3.09
28.696598052978516,1.82,1.13,1.93,2.88
28.70716094970703,1.81,1.73,1.43,2.88
28.78643798828125,2.09,2.68,1.07,3.56
28.786701202392578,2.35,3.54,1.2,4.41
28.786960124969482,1.88,4.05,2.2,4.97
28.78721523284912,1.67,3.79,2.85,5.02
28.787472248077393,1.75,4.2,3.14,5.52
28.78772497177124,2.24,5.77,3.08,6.91
28.78850221633911,4.35,7.44,3.76,9.4
28.788759231567383,5.51,7.63,4.98,10.64
28.79642105102539,5.78,8.29,4.94,11.24
28.807000160217285,6.07,9.48,5.74,12.63
28.88655114173889,6.22,10.6,7.58,14.43
28.88681697845459,6.43,11.55,8.08,15.49
28.887081146240234,6.48,11.63,6.52,14.82
28.887344121932983,7.74,10.88,4.33,14.03
28.887612104415894,10.53,9.22,0.56,14.0
28.88787007331848,11.23,8.11,-2.17,14.02
28.888689041137695,5.98,10.82,-3.36,12.81
28.88895010948181,0.35,13.89,-1.9,14.02
28.896319150924683,0.33,11.8,-0.25,11.8
28.906970024108887,1.95,6.21,-0.32,6.51
28.98563814163208,-0.96,3.79,-0.34,3.92
28.986090183258057,-7.06,3.06,-6.31,9.95
28.986354112625122,-4.58,5.18,-5.25,8.68
28.986610174179077,2.14,5.59,0.7,6.02
28.98686909675598,5.69,3.19,1.94,6.8
28.987128257751465,5.31,0.79,2.34,5.85
28.987936973571777,3.51,-0.87,2.63,4.47
28.98819398880005,2.58,-1.97,2.46,4.07
28.996167182922363,2.22,-2.47,2.25,4.01
29.006718158721924,2.01,-2.54,2.23,3.93
29.086320161819458,1.88,-2.62,2.83,4.29
29.086586952209473,1.59,-3.02,3.39,4.81
29.08684515953064,1.13,-3.47,3.72,5.21
29.087104082107544,1.0,-3.69,3.84,5.41
29.087363243103027,1.2,-3.85,3.89,5.6
29.087621212005615,1.43,-3.97,3.76,5.65
29.08841609954834,1.52,-3.9,3.41,5.39
29.088675022125244,1.42,-3.81,3.06,5.08
29.09603500366211,1.23,-4.0,2.71,4.98
29.106600284576416,0.98,-4.52,2.37,5.19
29.1859712600708,0.67,-5.17,1.87,5.53
29.186238288879395,0.51,-5.86,1.53,6.07
29.186500072479248,0.09,-6.62,1.31,6.74
29.18675994873047,-0.36,-7.32,0.75,7.36
29.187020301818848,-1.02,-7.59,-0.27,7.66
29.187289237976074,-2.25,-7.68,-1.09,8.07
29.188085079193115,-3.99,-7.66,-1.63,8.78
29.188342094421387,-5.65,-6.89,-2.92,9.37
29.19589614868164,-7.0,-5.5,-4.84,10.13
29.206475257873535,-7.7,-3.97,-6.53,10.84
29.215847969055176,-7.61,-2.35,-7.37,10.85
29.286333084106445,-7.67,-0.91,-7.43,10.71
29.28660011291504,-8.54,0.51,-8.25,11.88
29.286865234375,-9.63,1.9,-9.54,13.68
29.28712797164917,-10.66,2.78,-10.59,15.28
29.28739023208618,-10.99,2.21,-11.07,15.75
29.2881600856781,-9.83,0.48,-10.37,14.29
29.2884202003479,-8.16,-1.04,-9.04,12.22
29.295727252960205,-7.16,-2.61,-7.83,10.92
29.30630397796631,-7.29,3.02,-6.33,10.11
29.31566619873047,-2.88,-1.81,-4.77,5.85
29.38610315322876,5.36,-2.54,-4.83,7.64
29.386402130126953,29.45,17.81,25.63,42.91
29.386699199676514,22.03,26.02,1.54,34.12
29.386986255645752,-2.35,13.78,-11.78,18.28
29.387269973754883,-13.08,-2.27,-0.42,13.28
29.38806414604187,-15.98,-7.21,-6.4,18.66
29.388326168060303,-12.47,-2.27,-7.2,14.57
29.395607948303223,-12.62,-0.65,-5.1,13.62
29.40620517730713,-8.24,-0.75,-7.41,11.1
29.41554021835327,-3.86,0.9,-6.52,7.63
29.486472129821777,-0.3,0.51,-3.87,3.91
29.48673415184021,2.58,0.52,-2.87,3.89
29.486992120742798,3.55,1.01,-1.55,4.0
29.487248182296753,1.86,0.92,-0.28,2.09
29.48750400543213,-0.72,0.6,-0.76,1.2
29.48827028274536,-2.52,0.06,-2.54,3.57
29.48852825164795,-2.78,0.03,-2.71,3.88
29.495501041412354,-1.84,0.2,-1.33,2.27
29.506011962890625,-0.7,0.01,-0.36,0.78
29.515353202819824,-0.05,-0.1,-0.32,0.33
29.586647033691406,-0.15,-0.35,-0.55,0.66
29.586945056915283,-0.65,-0.45,-0.58,0.98
29.587244033813477,-0.8,-0.29,-0.17,0.86
29.587510108947754,-0.46,-0.14,0.12,0.49
29.587773084640503,0.02,-0.01,0.15,0.15
29.588543176651,0.42,0.05,0.21,0.47
29.58880114555359,0.66,0.11,0.53,0.85
29.595201015472412,0.79,0.12,0.74,1.08
29.60582208633423,1.02,0.11,0.72,1.25
29.61522912979126,1.25,0.1,0.64,1.4
29.687066078186035,1.47,0.12,0.55,1.57
29.687389135360718,1.52,0.11,0.69,1.67
29.687653064727783,1.77,0.14,0.99,2.03
29.687926292419434,2.03,0.18,1.09,2.31
29.688188076019287,1.79,0.13,0.96,2.03
29.688940048217773,1.2,0.02,0.78,1.43
29.68920612335205,0.63,-0.02,0.71,0.94
29.695183277130127,0.41,-0.06,0.73,0.83
29.705713272094727,0.41,-0.15,0.66,0.79
29.71504020690918,0.42,-0.21,0.6,0.76
29.786107063293457,0.64,-0.15,0.45,0.79
29.786372184753418,0.85,0.02,0.2,0.87
29.78663396835327,0.87,0.25,0.19,0.92
29.78689408302307,1.01,0.3,0.64,1.23
29.787151098251343,1.28,0.38,0.91,1.61
29.787963151931763,1.46,0.44,1.07,1.86
29.788239002227783,1.84,0.59,1.52,2.45
29.795101165771484,2.13,0.98,1.82,2.96
29.805543184280396,2.09,1.24,1.63,2.92
29.814934253692627,2.12,1.73,1.15,2.96
29.887343168258667,2.37,2.52,0.91,3.57
29.8876371383667,2.33,2.98,1.27,3.99
29.88791513442993,2.13,3.26,1.82,4.29
29.888175010681152,2.58,3.34,2.23,4.77
29.88843011856079,2.76,3.39,2.82,5.2
29.889193058013916,3.06,3.62,3.15,5.69
29.889458179473877,3.52,4.05,3.43,6.36
29.894840240478516,3.7,4.51,3.92,7.02
29.905384063720703,3.58,6.21,3.96,8.18
29.91481614112854,4.62,9.32,3.7,11.04
29.98607611656189,6.03,10.64,6.21,13.71
29.986350059509277,5.98,11.18,7.86,14.91
29.98661518096924,7.69,12.56,7.95,16.73
29.986878156661987,8.38,13.34,7.29,17.35
29.987139225006104,6.87,12.3,6.15,15.37
29.987961292266846,7.43,11.03,1.47,13.38
29.988242149353027,9.11,10.5,-3.91,14.44
29.994784116744995,6.81,12.81,-5.85,15.64
30.005287170410156,2.0,15.68,-3.95,16.29
30.014774084091187,0.66,13.19,-1.83,13.33
30.08609414100647,2.19,7.08,-2.11,7.7
30.086369037628174,0.4,3.32,0.1,3.34
30.086636066436768,-5.96,0.53,-3.22,6.79
30.086897134780884,-4.49,1.87,-4.45,6.59
30.087160110473633,1.1,3.31,0.42,3.51
30.087968111038208,4.87,1.68,2.05,5.54
30.088228225708008,5.95,-0.26,3.08,6.7
30.094604969024658,5.35,-1.55,3.29,6.46
30.105106115341187,4.71,-2.15,2.32,5.67
