time,ax,ay,az,atotal
0.0024330615997314453,0.29,-0.22,-0.54,0.65
0.0036880970001220703,-0.75,-0.82,-0.84,1.39
0.006684064865112305,-0.23,0.13,-0.82,0.86
0.0170440673828125,0.15,0.39,0.03,0.41
0.02679300308227539,-0.34,0.26,0.86,0.96
0.03667902946472168,-0.58,-0.16,0.64,0.87
0.046647071838378906,-0.35,-0.2,-0.17,0.43
0.05657601356506348,0.16,0.25,-0.22,0.36
0.06635117530822754,0.2,0.38,0.09,0.43
0.07893705368041992,0.05,0.0,0.03,0.05
0.10981607437133789,0.15,-0.31,-0.02,0.34
0.11146402359008789,0.1,-0.27,-0.07,0.29
0.11291909217834473,0.01,-0.16,0.05,0.16
0.1258561611175537,-0.01,-0.11,0.3,0.31
0.12729907035827637,-0.13,-0.06,0.32,0.35
0.14243698120117188,-0.21,0.0,0.14,0.25
0.14547419548034668,-0.1,0.02,0.05,0.11
0.15556693077087402,0.0,0.06,-0.04,0.07
0.16518187522888184,0.01,0.07,-0.11,0.13
0.17723798751831055,0.02,0.02,0.0,0.02
0.21045708656311035,0.03,0.03,0.04,0.05
0.21251201629638672,-0.07,0.04,-0.03,0.08
0.21406197547912598,-0.15,-0.01,0.01,0.15
0.22601819038391113,-0.06,-0.01,0.06,0.08
0.22756600379943848,0.09,-0.03,0.04,0.1
0.24227404594421387,0.08,-0.06,0.01,0.1
0.24484515190124512,-0.03,-0.02,0.01,0.03
0.261246919631958,-0.06,0.03,0.0,0.06
0.26607298851013184,-0.03,-0.02,-0.03,0.04
0.2751948833465576,0.01,-0.05,0.01,0.05
0.308427095413208,0.06,-0.06,0.05,0.09
0.31033897399902344,0.07,-0.12,0.04,0.14
0.3117821216583252,0.07,-0.08,0.08,0.13
0.326200008392334,0.12,-0.02,0.14,0.18
0.32766103744506836,0.22,0.0,0.17,0.27
0.342573881149292,0.35,-0.07,0.21,0.41
0.3441050052642822,0.51,-0.12,0.27,0.58
0.359389066696167,0.58,-0.2,0.32,0.69
0.3640611171722412,0.48,-0.19,0.41,0.65
0.37667393684387207,0.29,-0.09,0.44,0.53
0.40390610694885254,0.49,-0.15,0.46,0.68
0.4058060646057129,0.79,-0.38,0.53,1.02
0.4072911739349365,0.71,-0.4,1.18,1.43
0.4264380931854248,0.49,-0.08,1.5,1.58
0.4279501438140869,0.02,-0.05,1.12,1.12
0.4426150321960449,0.02,-0.21,0.59,0.62
0.44410204887390137,0.32,-0.22,0.41,0.56
0.45928001403808594,0.31,-0.24,0.55,0.67
0.4632298946380615,0.26,-0.08,0.57,0.63
0.4780690670013428,0.37,0.06,0.6,0.7
0.48363614082336426,0.44,-0.13,0.4,0.6
0.5116908550262451,0.51,-0.21,0.25,0.6
0.513167142868042,0.41,-0.11,0.35,0.55
0.5148661136627197,0.29,0.01,0.34,0.44
0.5261971950531006,0.22,-0.06,0.21,0.31
0.5329689979553223,0.2,-0.21,0.24,0.37
0.5426099300384521,0.03,-0.23,0.37,0.43
0.552541971206665,-0.52,-0.24,0.42,0.71
0.5625050067901611,-0.79,-0.15,0.46,0.92
0.572721004486084,-0.75,-0.08,0.33,0.82
0.5856368541717529,-0.67,-0.03,0.11,0.67
0.6074159145355225,-0.48,-0.03,-0.36,0.6
0.6090140342712402,-0.38,-0.08,-0.67,0.77
0.6121509075164795,-0.58,-0.07,-0.89,1.06
0.6264479160308838,-0.9,0.05,-1.0,1.34
0.6322691440582275,-1.11,0.14,-0.79,1.36
0.6424381732940674,-1.14,0.26,-0.52,1.27
0.6520490646362305,-1.38,0.26,-0.43,1.46
0.6619908809661865,-1.76,-0.02,-0.44,1.81
0.6724321842193604,-1.92,-0.27,0.08,1.94
0.6850740909576416,-1.5,-0.3,0.68,1.67
0.7094991207122803,-0.69,-0.05,0.8,1.05
0.7111241817474365,-0.13,0.01,0.52,0.53
0.7127890586853027,0.2,-0.04,0.31,0.37
0.7272751331329346,0.54,-0.03,0.25,0.59
0.7312819957733154,0.42,-0.09,0.08,0.43
0.7410850524902344,0.21,-0.05,0.23,0.31
0.7511031627655029,0.25,-0.05,0.48,0.54
0.7610859870910645,0.14,-0.15,0.48,0.52
0.7714231014251709,-0.04,-0.07,0.21,0.22
0.7836010456085205,-0.09,0.17,-0.15,0.24
0.8062710762023926,-0.34,0.33,-0.61,0.77
0.8078839778900146,-0.57,0.21,-0.72,0.94
0.8106391429901123,-0.3,-0.02,-0.38,0.48
0.8272979259490967,0.06,-0.04,-0.2,0.21
0.8305919170379639,0.12,-0.05,-0.13,0.18
0.8404960632324219,-0.04,-0.08,-0.27,0.28
0.8505280017852783,-0.41,-0.06,-0.48,0.63
0.8602190017700195,-0.59,0.01,-0.43,0.73
0.8705999851226807,-0.46,0.18,-0.26,0.55
0.8826501369476318,-0.46,0.23,-0.16,0.53
0.9153521060943604,-0.52,0.08,-0.25,0.58
0.9169681072235107,-0.56,0.09,-0.68,0.88
0.9186980724334717,-0.71,0.12,-0.94,1.18
0.9226791858673096,-0.57,0.11,-1.04,1.19
0.9299969673156738,-0.2,0.15,-1.18,1.2
0.9426329135894775,0.15,0.04,-1.27,1.27
0.949862003326416,0.24,0.03,-1.33,1.35
0.9595010280609131,0.02,0.37,-1.51,1.55
0.969696044921875,-0.4,0.44,-1.49,1.6
0.9818971157073975,-0.83,0.34,-1.34,1.61
1.0079460144042969,-1.16,0.29,-1.58,1.98
1.0097248554229736,-1.41,0.31,-1.95,2.42
1.0111870765686035,-1.51,0.44,-1.85,2.42
1.0272581577301025,-1.38,0.72,-1.78,2.36
1.0290348529815674,-1.31,1.1,-1.67,2.39
1.042626142501831,-1.58,1.01,-1.42,2.35
1.0491909980773926,-1.94,0.85,-1.21,2.43
1.0594151020050049,-2.14,1.09,-1.38,2.76
1.0690581798553467,-2.25,1.6,-1.83,3.31
1.0814201831817627,-2.22,2.17,-2.44,3.94
1.1148769855499268,-2.21,2.84,-3.28,4.86
1.1167199611663818,-1.94,3.32,-3.8,5.4
1.1182069778442383,-1.6,3.8,-4.05,5.77
1.1235530376434326,-2.66,5.01,-4.45,7.2
1.1283528804779053,-3.79,6.0,-4.06,8.17
1.1428730487823486,-3.72,4.94,-3.14,6.93
1.148212194442749,-2.86,2.98,-2.54,4.84
1.1580450534820557,-1.82,2.03,-2.32,3.57
1.168144941329956,-0.9,1.45,-2.41,2.95
1.178292989730835,-0.1,1.05,-2.08,2.33
1.2124898433685303,0.6,0.97,-1.55,1.92
1.2143640518188477,1.34,0.46,-1.64,2.16
1.215837001800537,1.87,0.33,-1.86,2.65
1.2269220352172852,2.27,1.3,-1.32,2.93
1.2283849716186523,1.53,1.29,-1.06,2.26
1.2429430484771729,-1.0,-0.14,-1.78,2.04
1.2473950386047363,-3.47,-1.55,-2.28,4.43
1.259680986404419,-4.43,-2.53,-1.62,5.35
1.2675259113311768,-4.26,-3.19,-0.32,5.33
1.2775449752807617,-3.66,-3.56,0.85,5.17
1.2906639575958252,-3.2,-3.81,1.42,5.17
1.3156578540802002,-3.01,-3.78,1.63,5.09
1.31728196144104,-3.11,-3.49,1.65,4.95
1.3189518451690674,-3.26,-3.26,1.68,4.9
1.3269000053405762,-3.17,-3.29,1.72,4.88
1.3366758823394775,-2.98,-3.4,1.64,4.8
1.346451997756958,-2.77,-3.49,1.31,4.64
1.3567140102386475,-2.54,-3.58,0.87,4.47
1.3666799068450928,-2.24,-3.65,0.57,4.32
1.3766350746154785,-1.84,-3.71,0.41,4.16
1.3892128467559814,-1.5,-3.77,0.29,4.06
1.411064863204956,-1.23,-3.73,0.22,3.93
1.4122469425201416,-0.85,-3.62,0.12,3.72
1.4159281253814697,-0.41,-3.39,0.27,3.42
1.4279558658599854,0.05,-3.21,0.56,3.25
1.4359891414642334,0.56,-3.04,1.02,3.25
1.4460790157318115,0.93,-2.97,1.42,3.42
1.455998182296753,0.98,-2.83,1.34,3.28
1.4657418727874756,0.72,-2.52,1.16,2.86
1.4758150577545166,0.5,-2.05,1.29,2.47
1.489288091659546,0.65,-1.57,1.35,2.17
1.5128719806671143,1.02,-1.19,1.21,1.98
1.5145509243011475,1.31,-0.89,0.91,1.82
1.5162599086761475,1.43,-0.58,0.69,1.69
1.5260660648345947,1.64,-0.24,1.02,1.94
1.535377025604248,2.03,0.17,1.41,2.47
1.5451970100402832,2.45,0.47,1.6,2.96
1.5551211833953857,2.71,0.49,1.92,3.35
1.5649831295013428,2.93,0.3,2.3,3.73
1.5750720500946045,3.33,0.01,2.88,4.4
1.585536003112793,3.87,-0.37,3.61,5.3
1.6135571002960205,4.4,-0.73,3.85,5.89
1.6152520179748535,4.82,-1.12,3.58,6.1
1.6168830394744873,5.08,-1.59,3.33,6.27
1.6244480609893799,5.19,-1.91,3.14,6.35
1.6346828937530518,5.1,-1.97,3.09,6.28
1.6444151401519775,4.97,-2.49,3.58,6.61
1.6544640064239502,5.22,-2.58,3.34,6.71
1.6642580032348633,-0.61,0.48,-3.44,3.52
1.6742680072784424,-17.83,18.22,-15.0,29.57
1.6841528415679932,-29.14,42.5,-21.97,56.01
1.7138400077819824,-10.72,28.94,-3.34,31.04
1.7156598567962646,10.61,-12.84,9.44,19.14
1.7171390056610107,15.86,-19.49,14.12,28.82
1.726473093032837,13.54,-8.96,8.18,18.18
1.733590841293335,7.07,-2.37,1.33,7.57
1.7435901165008545,0.62,-0.1,-0.31,0.7
1.7536430358886719,-3.42,2.92,-0.53,4.52
1.7634851932525635,-2.13,3.57,0.63,4.2
1.7776880264282227,0.78,0.09,1.58,1.76
1.7843329906463623,2.81,-1.36,1.15,3.32
1.8186500072479248,3.71,-0.01,-0.12,3.71
1.8202459812164307,3.66,0.91,-0.93,3.88
1.821639060974121,2.66,0.28,-0.39,2.7
1.823702096939087,0.89,-0.4,0.15,0.98
1.8329999446868896,-0.72,-0.38,0.19,0.83
1.8429901599884033,-1.06,-0.14,-0.01,1.06
1.8527281284332275,0.05,-0.01,-0.39,0.39
1.8630611896514893,1.07,-0.01,-0.57,1.21
1.872756004333496,1.1,-0.07,-0.21,1.12
1.8856379985809326,0.53,0.01,0.14,0.54
1.9122309684753418,0.1,0.36,0.04,0.37
1.9138681888580322,0.01,0.54,-0.13,0.55
1.9155759811401367,0.2,0.51,-0.17,0.57
1.928084135055542,0.54,0.37,0.02,0.65
1.9322431087493896,0.62,0.16,0.11,0.64
1.9431111812591553,0.24,-0.03,-0.1,0.26
1.9521710872650146,-0.45,-0.1,-0.22,0.51
1.9622299671173096,-1.02,-0.14,-0.18,1.04
1.9720799922943115,-1.1,-0.13,-0.14,1.11
1.9848530292510986,-0.9,0.12,-0.36,0.97
2.013761043548584,-0.76,0.41,-0.65,1.08
2.01541805267334,-0.83,0.43,-0.8,1.23
2.017155885696411,-0.81,0.28,-0.61,1.05
2.0276548862457275,-0.65,0.25,-0.55,0.88
2.031409978866577,-0.48,0.26,-0.47,0.72
2.0426270961761475,-0.26,0.25,-0.36,0.5
2.0514628887176514,-0.47,0.19,-0.38,0.63
2.0612871646881104,-0.95,0.2,-0.46,1.07
2.0718700885772705,-1.04,0.27,-0.59,1.22
2.0835909843444824,-0.78,0.24,-0.53,0.97
2.0933220386505127,-0.74,0.35,-0.63,1.03
2.116637945175171,-0.86,0.38,-1.13,1.47
2.1185150146484375,-1.03,0.48,-1.62,1.97
2.120487928390503,-1.08,0.52,-1.82,2.17
2.131026029586792,-1.16,0.66,-1.76,2.2
2.1435301303863525,-1.54,0.78,-1.69,2.41
2.150675058364868,-1.92,0.66,-1.69,2.64
2.160531997680664,-2.13,0.48,-1.61,2.71
2.1703929901123047,-2.19,0.59,-1.47,2.7
2.180567979812622,-1.91,0.88,-1.17,2.4
2.193418025970459,-1.48,1.25,-1.12,2.23
2.2131199836730957,-1.29,1.52,-1.42,2.44
2.2148091793060303,-1.47,1.89,-1.23,2.69
2.2197439670562744,-1.91,2.04,-1.34,3.09
2.229901075363159,-2.45,2.53,-1.64,3.88
2.240110158920288,-2.78,3.05,-1.7,4.46
2.2498340606689453,-3.1,3.31,-2.02,4.96
2.2599899768829346,-3.52,3.25,-2.63,5.46
2.2696290016174316,-3.87,3.37,-3.05,5.96
2.280179023742676,-4.26,3.99,-3.3,6.7
2.2919819355010986,-4.75,5.89,-3.65,8.4
2.31289005279541,-5.65,9.31,-4.07,11.62
2.3145978450775146,-7.5,12.31,-5.53,15.43
2.3191170692443848,-9.29,12.2,-7.52,17.07
2.329301118850708,-9.8,9.99,-8.54,16.39
2.3394010066986084,-9.48,10.6,-8.39,16.51
2.3489990234375,-8.21,12.0,-8.65,16.91
2.3600361347198486,-6.56,11.54,-9.23,16.16
2.368939161300659,-5.58,10.28,-7.73,14.02
2.3795180320739746,-5.18,9.14,-4.08,11.27
2.391738176345825,-3.34,8.77,-0.42,9.39
2.413856029510498,-0.39,8.29,0.47,8.31
2.4154980182647705,0.71,4.94,-0.89,5.06
2.418421983718872,0.46,-0.36,-1.79,1.88
2.428467035293579,1.0,-2.28,-1.34,2.82
2.438636064529419,3.98,-0.5,0.99,4.13
2.4482791423797607,4.2,-1.92,1.25,4.78
2.4585349559783936,0.82,-3.17,-0.39,3.29
2.468488931655884,-3.58,-2.39,-0.95,4.4
2.47851300239563,-7.25,-2.7,-0.76,7.77
2.4913899898529053,-8.58,-3.99,0.16,9.46
2.518502950668335,-7.16,-5.53,1.46,9.16
2.5201480388641357,-4.83,-6.74,2.18,8.57
2.521820068359375,-2.97,-7.21,1.98,8.04
2.527855157852173,-1.79,-7.27,0.82,7.53
2.5378401279449463,-1.3,-7.09,-0.29,7.21
2.547473192214966,-1.3,-6.98,-1.14,7.19
2.5576751232147217,-1.87,-6.66,-1.48,7.07
2.567600965499878,-2.43,-6.63,-1.78,7.28
2.5779809951782227,-3.04,-6.06,-1.77,7.0
2.589977979660034,-3.13,-5.97,-1.84,6.98
2.6171000003814697,-2.85,-6.41,-1.91,7.27
2.618756055831909,-2.81,-6.23,-1.61,7.02
2.620413064956665,-2.65,-6.04,-1.13,6.69
2.6269690990448,-2.37,-6.42,-0.65,6.87
2.643303155899048,-2.01,-6.72,-0.24,7.01
2.646739959716797,-1.69,-7.01,-0.02,7.21
2.6602718830108643,-1.49,-7.29,-0.09,7.44
2.666785955429077,-1.32,-7.31,-0.13,7.42
2.6769258975982666,-0.97,-6.8,-0.24,6.87
2.6897389888763428,-0.59,-5.8,-0.68,5.86
2.716003179550171,0.23,-4.84,-1.54,5.08
2.7176501750946045,2.32,-4.4,-1.19,5.11
2.7194230556488037,4.5,-3.77,0.63,5.9
2.726142168045044,5.14,-2.61,1.82,6.04
2.7361629009246826,5.21,-1.52,1.5,5.63
2.7460789680480957,5.68,-0.25,1.33,5.83
2.756258964538574,6.22,1.03,2.0,6.61
2.766084909439087,6.9,2.15,3.15,7.88
2.775938034057617,7.74,3.1,4.43,9.44
2.789202928543091,8.47,3.64,5.31,10.63
2.8159029483795166,8.82,3.85,5.48,11.07
2.8175461292266846,8.83,4.28,5.02,11.02
2.8193540573120117,8.95,4.96,4.69,11.25
2.8266241550445557,9.52,5.78,5.04,12.22
2.835569143295288,10.6,5.89,5.38,13.26
2.845270872116089,11.48,4.88,5.57,13.66
2.855449914932251,11.23,4.05,6.15,13.42
2.8654191493988037,10.36,3.16,6.79,12.78
2.875293016433716,5.47,2.36,3.06,6.69
2.8887460231781006,-8.09,2.53,-8.01,11.66
2.8954360485076904,-31.7,8.68,-21.87,39.47
2.924423933029175,-43.55,32.25,-16.9,56.76
2.9262869358062744,-16.36,37.99,6.58,41.88
2.9275920391082764,10.12,2.45,6.71,12.38
2.94461989402771,16.16,-12.65,15.45,25.68
2.946125030517578,13.44,-6.68,13.75,20.35
2.9606540203094482,10.46,-3.73,6.92,13.08
2.9643959999084473,5.31,-2.74,1.39,6.13
2.974560022354126,2.02,0.2,-0.95,2.24
2.9843719005584717,2.26,1.93,-1.7,3.42
2.994615077972412,4.91,1.15,-2.94,5.83
3.024132013320923,6.41,-0.58,-3.39,7.27
3.0259411334991455,6.18,-0.55,-2.6,6.72
3.0272390842437744,4.55,0.41,-0.88,4.65
3.044243097305298,2.27,0.49,0.74,2.43
3.045742988586426,-0.13,0.23,2.35,2.36
3.0606648921966553,-1.8,-0.13,3.4,3.84
3.0636990070343018,-2.36,-0.25,2.78,3.65
3.076936960220337,-2.29,0.09,1.55,2.76
3.083677053451538,-1.42,0.14,0.73,1.6
3.093938112258911,-0.45,-0.15,0.44,0.64
3.1220710277557373,0.19,-0.35,-0.24,0.46
3.1238269805908203,0.66,-0.32,-1.42,1.59
3.1253089904785156,0.87,-0.06,-2.51,2.65
3.1444551944732666,0.73,0.49,-2.63,2.77
3.145953893661499,0.34,0.87,-1.69,1.93
3.158454179763794,-0.11,0.73,-0.84,1.11
3.16294002532959,-0.68,0.46,-0.28,0.86
3.1771581172943115,-1.31,0.05,-0.26,1.33
3.1833879947662354,-1.83,-0.08,-0.42,1.87
3.1974689960479736,-2.03,0.04,-1.0,2.26
3.220738172531128,-1.79,0.24,-1.55,2.37
3.222784996032715,-1.37,0.42,-1.34,1.96
3.2241439819335938,-0.83,0.52,-0.58,1.13
3.232200860977173,-0.36,0.57,0.02,0.67
3.242511034011841,-0.36,0.34,0.22,0.54
3.2524800300598145,-0.63,-0.06,-0.08,0.63
3.2624199390411377,-0.85,-0.3,-0.46,1.01
3.2722761631011963,-1.05,-0.27,-0.86,1.38
3.2819039821624756,-1.09,0.0,-1.08,1.53
3.292180061340332,-0.88,0.27,-1.05,1.39
3.3286778926849365,-0.76,0.39,-0.86,1.21
3.330371141433716,-0.65,0.55,-0.66,1.07
3.3318068981170654,-0.52,0.81,-0.58,1.12
3.343705892562866,-0.59,0.99,-0.54,1.27
3.345197916030884,-0.86,1.0,-0.71,1.49
3.360581159591675,-1.3,0.86,-0.76,1.73
3.3620200157165527,-1.79,0.79,-0.83,2.12
3.376965045928955,-2.2,0.78,-1.29,2.66
3.38140606880188,-2.34,0.95,-1.21,2.8
3.395503044128418,-2.64,1.39,-1.19,3.21
3.4278619289398193,-2.51,2.02,-1.23,3.44
3.4295949935913086,-2.17,2.44,-1.67,3.66
3.4311039447784424,-2.35,2.68,-2.19,4.18
3.4468801021575928,-3.0,2.84,-2.69,4.92
3.4483768939971924,-3.76,3.12,-2.96,5.71
3.4602129459381104,-4.44,3.63,-3.18,6.55
3.461737871170044,-5.0,4.14,-3.54,7.39
3.4769070148468018,-5.55,4.74,-3.74,8.2
3.4804089069366455,-6.19,5.87,-3.77,9.32
3.4962289333343506,-7.31,7.63,-4.46,11.46
3.5225541591644287,-8.98,9.54,-5.48,14.2
3.5243639945983887,-10.43,11.44,-5.76,16.51
3.525714159011841,-11.13,12.08,-6.63,17.71
3.541948080062866,-10.49,11.16,-7.97,17.26
3.5434370040893555,-9.29,10.7,-9.24,16.91
3.5606019496917725,-8.39,11.89,-8.12,16.66
3.5621068477630615,-5.86,12.65,-3.86,14.46
3.577242136001587,-1.55,11.39,-1.83,11.63
3.579716920852661,0.98,9.92,-1.41,10.06
3.591201066970825,0.02,6.71,-3.11,7.39
3.625859022140503,-1.18,1.19,-3.71,4.07
3.6276161670684814,-0.64,-4.59,-2.37,5.2
3.6290881633758545,1.82,-4.64,-0.54,5.01
3.6448240280151367,5.73,-1.31,2.16,6.26
3.646339178085327,6.25,-1.51,1.48,6.59
3.6604058742523193,3.51,-3.1,-1.39,4.88
3.661836862564087,-1.46,-3.37,-3.55,5.1
3.677551031112671,-6.17,-4.07,-2.93,7.95
3.6790268421173096,-8.4,-5.74,-1.3,10.25
3.6970279216766357,-8.04,-6.91,0.63,10.62
3.70100998878479,-6.4,-7.01,2.52,9.82
3.7290751934051514,-4.66,-6.87,3.58,9.04
3.7307350635528564,-3.08,-6.97,2.9,8.15
3.7324399948120117,-1.84,-6.7,1.01,7.02
3.745857000350952,-1.38,-6.25,-0.72,6.44
3.7485039234161377,-1.49,-6.15,-1.71,6.55
3.760686159133911,-2.05,-6.19,-2.26,6.9
3.7683379650115967,-2.67,-5.7,-2.61,6.81
3.7782490253448486,-2.36,-5.72,-2.89,6.82
3.788347005844116,-2.05,-5.58,-2.72,6.53
3.800557851791382,-1.76,-5.47,-2.35,6.2
3.8257150650024414,-1.24,-6.37,-1.63,6.69
3.827338933944702,-0.96,-6.53,-0.62,6.62
3.828913927078247,-0.5,-6.97,-0.18,6.99
3.8452770709991455,-0.14,-7.44,0.17,7.44
3.847852945327759,0.12,-7.65,0.82,7.69
3.8606550693511963,0.19,-7.53,1.19,7.62
3.867825984954834,0.0,-6.76,0.85,6.81
3.877476930618286,0.3,-5.57,0.22,5.58
3.8873510360717773,1.99,-4.49,0.38,4.92
3.897433042526245,3.92,-3.39,1.54,5.4
3.926640033721924,5.07,-1.99,2.5,5.99
3.928550958633423,6.01,-0.56,3.34,6.89
3.9300239086151123,6.64,0.86,3.96,7.77
3.9446640014648438,7.03,2.51,4.18,8.55
3.947014093399048,7.47,4.24,4.65,9.76
3.960731029510498,7.85,5.45,5.05,10.8
3.9670450687408447,8.22,5.86,4.76,11.16
3.9771878719329834,8.65,5.87,4.11,11.23
3.986876964569092,9.14,5.96,3.91,11.59
3.996424913406372,9.64,5.83,3.84,11.9
4.025712966918945,10.16,5.07,3.56,11.89
4.027561902999878,10.76,4.03,3.35,11.96
4.028655052185059,10.85,3.31,3.57,11.89
4.04480504989624,10.01,3.75,3.81,11.34
4.046303033828735,5.8,4.77,0.92,7.56
4.06085991859436,-4.0,2.63,-6.27,7.88
4.066392183303833,-20.69,7.53,-14.29,26.24
4.077275991439819,-30.25,23.63,-14.5,41.03
4.086036920547485,-12.79,29.57,2.9,32.34
4.096091032028198,3.53,6.51,3.44,8.16
4.136469125747681,11.16,-7.32,7.33,15.22
4.1383280754089355,13.77,-5.69,11.96,19.1
4.139791011810303,12.5,-5.53,9.09,16.41
4.141669034957886,6.93,-5.0,5.11,9.95
4.145330190658569,1.54,-1.75,2.01,3.07
4.1555140018463135,-1.2,1.26,0.38,1.78
4.165611028671265,-1.17,2.48,-0.63,2.81
4.175493001937866,0.2,1.34,-2.29,2.66
4.185304880142212,2.18,-0.04,-3.32,3.97
4.195219993591309,4.21,-0.33,-2.24,4.78
4.227051019668579,5.3,-0.06,-0.3,5.3
4.2284791469573975,4.31,-0.07,0.54,4.34
4.22943902015686,1.75,-0.33,0.78,1.94
4.245645999908447,-0.07,-0.51,0.77,0.92
4.247091054916382,-0.3,-0.53,0.61,0.86
4.260224103927612,-0.09,-0.12,0.98,0.99
4.264731168746948,0.05,0.35,1.2,1.25
4.277238130569458,-0.26,0.44,1.33,1.42
4.284605026245117,-0.32,-0.02,0.9,0.95
4.294870138168335,0.33,-0.52,0.08,0.62
4.3336451053619385,1.01,-0.51,-0.47,1.22
4.335491895675659,0.99,-0.22,-0.58,1.16
4.336559057235718,0.32,0.16,-0.37,0.51
4.34049916267395,-0.02,0.43,-0.18,0.46
4.343692064285278,0.1,0.45,-0.13,0.47
4.36104416847229,-0.15,0.25,0.07,0.29
4.36388897895813,-0.63,0.03,0.23,0.67
4.377536058425903,-0.99,0.13,0.17,1.01
4.383732080459595,-1.03,0.4,-0.22,1.12
4.39345908164978,-0.57,0.53,-0.48,0.91
4.4264161586761475,0.11,0.52,-0.64,0.83
4.428287982940674,0.26,0.61,-0.79,1.03
4.429736852645874,-0.32,0.62,-0.74,1.01
4.445091009140015,-1.14,0.43,-0.6,1.35
4.446594953536987,-1.93,0.25,-0.91,2.14
4.461197137832642,-2.38,0.15,-1.22,2.67
4.4630820751190186,-2.21,0.2,-1.31,2.57
4.477505922317505,-1.61,0.4,-1.39,2.16
4.483008146286011,-1.14,0.53,-1.5,1.95
4.497121095657349,-0.98,0.5,-1.55,1.9
4.505850076675415,-0.95,0.5,-1.59,1.91
4.5328309535980225,-0.96,0.7,-1.4,1.83
4.534469842910767,-1.03,0.93,-0.93,1.67
4.535782098770142,-1.0,1.24,-0.44,1.65
4.543128967285156,-1.12,1.38,-0.36,1.81
4.55276894569397,-1.57,1.15,-0.34,1.97
4.562381029129028,-2.11,1.1,-0.4,2.41
4.572422981262207,-2.23,1.37,-0.76,2.72
4.582204103469849,-1.78,1.58,-0.81,2.51
4.592249155044556,-1.32,1.74,-0.88,2.35
4.602231979370117,-1.34,1.97,-1.36,2.74
4.632456064224243,-1.74,2.15,-1.41,3.1
4.634221076965332,-2.44,2.46,-1.38,3.72
4.635481119155884,-3.3,2.83,-1.57,4.62
4.642695188522339,-3.98,3.05,-1.83,5.33
4.651806116104126,-4.58,3.31,-2.28,6.09
4.661526918411255,-5.27,4.07,-3.09,7.34
4.671455144882202,-6.07,5.55,-3.85,9.08
4.6812779903411865,-7.0,7.9,-4.52,11.48
4.691496133804321,-8.69,10.84,-5.54,14.95
4.701402902603149,-10.58,12.26,-6.82,17.57
4.732493162155151,-10.94,12.04,-6.8,17.63
4.734259843826294,-10.74,11.73,-6.73,17.26
4.735406160354614,-10.42,11.55,-7.27,17.17
4.743962049484253,-8.86,12.0,-4.91,15.7
4.750931024551392,-6.0,12.4,-2.13,13.93
4.760729074478149,-3.12,11.6,-0.87,12.04
4.770732164382935,-1.75,9.75,-0.42,9.91
4.780760049819946,-1.81,6.0,-1.81,6.52
4.790796995162964,-2.16,0.73,-3.7,4.34
4.800666093826294,-2.24,-2.89,-5.19,6.34
4.831815004348755,1.58,-1.73,-3.3,4.04
4.8335840702056885,5.77,0.15,-0.44,5.78
4.834681034088135,6.1,-0.96,-1.18,6.28
4.843526124954224,2.59,-2.15,-3.31,4.72
4.850699186325073,-1.8,-2.1,-3.87,4.75
4.860109090805054,-4.58,-3.2,-3.54,6.61
4.8701441287994385,-5.73,-4.36,-2.95,7.78
4.88008189201355,-5.53,-5.43,-1.69,7.93
4.890069007873535,-4.74,-6.24,0.05,7.83
4.899943113327026,-4.04,-6.84,1.44,8.07
4.935506105422974,-3.57,-6.96,2.07,8.09
4.9369800090789795,-3.19,-6.41,1.9,7.4
4.937963962554932,-2.66,-5.78,1.32,6.49
4.9404990673065186,-2.23,-5.44,0.34,5.88
4.961303949356079,-2.24,-5.25,-0.46,5.72
4.962794065475464,-2.23,-5.2,-0.98,5.74
4.9775989055633545,-2.02,-5.18,-1.73,5.82
4.979104995727539,-1.79,-4.59,-2.45,5.5
4.99332594871521,-1.34,-4.95,-2.98,5.93
4.9995129108428955,-1.1,-5.45,-3.05,6.34
5.038663148880005,-0.79,-5.78,-2.77,6.45
5.039862871170044,-0.25,-6.51,-2.04,6.82
5.040869951248169,0.22,-6.87,-1.64,7.06
5.061801195144653,0.55,-7.0,-1.26,7.13
5.063299894332886,0.67,-7.07,-0.63,7.12
5.077646017074585,0.62,-7.01,-0.19,7.03
5.079120874404907,0.59,-6.7,-0.14,6.72
5.094372034072876,0.76,-6.13,-0.32,6.18
5.095873117446899,1.3,-5.48,0.11,5.63
5.110810041427612,1.9,-4.7,1.18,5.2
5.13678503036499,2.27,-3.6,2.02,4.71
5.1381590366363525,2.94,-2.26,2.15,4.28
5.139136075973511,4.28,-0.86,2.19,4.88
5.141489028930664,5.87,0.53,2.5,6.4
5.147615194320679,7.42,1.83,2.98,8.2
5.158231973648071,8.76,3.07,3.29,9.84
5.168009996414185,9.67,4.12,3.26,11.0
5.177992105484009,10.53,4.97,3.2,12.07
5.187625169754028,11.62,5.82,3.04,13.34
5.197728872299194,12.26,6.47,2.65,14.11
5.231136083602905,12.3,6.66,2.16,14.15
5.232460021972656,11.97,6.03,2.27,13.59
5.233489990234375,11.29,4.99,3.34,12.78
5.24495005607605,9.69,4.78,5.25,12.01
5.246809005737305,5.32,7.39,6.02,10.91
5.26119589805603,-2.66,6.0,0.66,6.59
5.267047166824341,-20.81,8.55,-7.98,23.87
5.277821063995361,-35.2,22.65,-13.4,43.95
5.287595987319946,-18.99,30.83,2.03,36.26
5.296918153762817,-2.12,11.35,3.59,12.09
5.306931018829346,8.9,-9.46,3.35,13.41
5.33646297454834,12.79,-8.69,9.71,18.25
5.337754011154175,13.1,-4.29,9.16,16.55
5.338912010192871,10.53,-4.83,3.95,12.23
5.346000909805298,6.48,-2.85,-0.21,7.08
5.356494188308716,3.24,0.4,-2.46,4.08
5.3665080070495605,2.7,1.75,-2.65,4.16
5.376435995101929,2.64,0.9,-2.35,3.64
5.386219024658203,2.64,0.2,-1.96,3.29
5.396136999130249,3.0,0.35,-0.64,3.08
5.40593409538269,2.76,0.42,0.94,2.94
5.43615198135376,1.61,-0.03,2.61,3.06
5.4377830028533936,0.09,-0.56,3.25,3.29
5.43940806388855,-0.88,-0.79,2.52,2.78
5.445219039916992,-0.85,-0.82,1.86,2.2
5.4556639194488525,-0.07,-0.68,1.04,1.24
5.465410947799683,1.03,-0.38,0.11,1.1
5.475581884384155,1.93,0.03,-0.78,2.08
5.485565900802612,2.2,0.52,-1.23,2.57
5.495445966720581,1.85,0.51,-0.92,2.12
5.505244970321655,1.33,0.1,-0.2,1.34
5.535034894943237,0.81,-0.25,0.39,0.93
5.5366339683532715,0.19,-0.47,0.65,0.82
5.538224935531616,-0.37,-0.31,0.83,0.96
5.54460597038269,-0.65,0.04,0.95,1.15
5.560183048248291,-0.63,0.33,0.89,1.13
5.564774990081787,-0.26,0.38,0.27,0.53
5.5768890380859375,0.42,0.15,-0.55,0.7
5.584512948989868,0.68,-0.07,-0.79,1.04
5.594525098800659,0.03,0.05,-0.62,0.62
5.604394197463989,-0.59,0.37,-0.13,0.7
5.635871171951294,-0.76,0.57,-0.01,0.95
5.6370790004730225,-0.61,0.62,-0.18,0.88
5.638314962387085,-0.45,0.56,-0.3,0.77
5.643800973892212,-0.53,0.45,-0.55,0.88
5.661743879318237,-0.88,0.3,-0.99,1.35
5.663956880569458,-1.18,0.09,-1.3,1.75
5.677980184555054,-1.35,0.07,-1.3,1.87
5.6837499141693115,-1.4,0.28,-1.12,1.81
5.694902181625366,-1.21,0.59,-1.0,1.67
5.703842878341675,-1.06,0.85,-1.09,1.74
5.743841886520386,-1.18,0.91,-1.14,1.87
5.745085000991821,-1.28,0.9,-0.99,1.85
5.746087074279785,-1.35,0.91,-1.07,1.94
5.7623209953308105,-1.66,1.0,-1.17,2.26
5.763825178146362,-2.01,1.31,-1.08,2.63
5.777935028076172,-2.29,1.53,-1.15,2.98
5.7793869972229,-2.49,1.81,-1.08,3.26
5.794834852218628,-2.64,2.05,-1.3,3.58
5.796270132064819,-2.71,2.14,-1.61,3.8
5.810386896133423,-2.72,2.17,-1.99,4.0
5.837583065032959,-2.72,2.44,-2.44,4.39
5.838918924331665,-2.72,2.75,-2.88,4.82
5.839895963668823,-2.95,3.0,-3.13,5.24
5.842360019683838,-3.56,3.41,-3.36,5.96
5.852402925491333,-4.48,4.21,-3.6,7.12
5.862702131271362,-5.41,5.45,-3.51,8.44
5.87260890007019,-6.32,7.56,-3.45,10.44
5.882552862167358,-8.0,10.14,-4.46,13.66
5.892606019973755,-9.64,10.96,-6.49,15.97
5.903048992156982,-9.53,10.93,-7.03,16.11
5.938947916030884,-9.1,11.68,-7.79,16.73
5.940387010574341,-8.39,12.09,-9.14,17.32
5.941406011581421,-7.3,11.43,-10.25,16.99
5.962431192398071,-6.38,10.8,-7.76,14.74
5.9639551639556885,-4.7,10.9,-2.51,12.13
5.978360891342163,-2.7,10.09,0.96,10.48
5.979848146438599,-2.57,7.95,-0.13,8.35
5.995092153549194,-3.32,4.25,-2.24,5.83
5.996526002883911,-3.14,-0.13,-3.12,4.42
6.011164903640747,-1.29,-1.52,-2.86,3.48
6.044157981872559,3.43,1.23,-0.02,3.64
6.045581102371216,5.69,-0.03,1.45,5.87
6.046602010726929,3.07,-3.27,-0.29,4.49
6.062448024749756,-1.29,-3.11,-1.66,3.75
6.06392502784729,-5.05,-2.79,-1.3,5.91
6.07819390296936,-6.96,-3.57,-0.47,7.83
6.079689979553223,-6.64,-4.15,0.22,7.83
6.0949108600616455,-5.22,-4.28,0.84,6.8
6.096372842788696,-3.97,-4.86,1.48,6.44
6.109436988830566,-3.2,-5.79,2.02,6.91
6.111643075942993,-2.81,-6.42,2.09,7.31
6.158114194869995,-2.69,-6.66,1.69,7.37
6.15935206413269,-2.72,-6.49,1.01,7.1
6.16034197807312,-2.86,-6.19,0.31,6.82
6.1788330078125,-3.0,-6.04,-0.1,6.74
6.180294990539551,-2.77,-6.19,-0.35,6.79
6.194803953170776,-2.59,-6.06,-0.61,6.61
6.196277856826782,-2.6,-5.71,-1.06,6.36
6.211668014526367,-2.62,-5.86,-1.16,6.52
6.213137865066528,-2.37,-6.6,-0.9,7.07
6.227228879928589,-1.84,-7.17,-0.77,7.44
6.253526926040649,-1.49,-7.31,-0.61,7.48
6.254719972610474,-1.3,-7.96,-0.24,8.06
6.255764961242676,-1.27,-8.41,0.06,8.5
6.25823187828064,-1.33,-8.38,0.45,8.49
6.259564161300659,-1.45,-7.8,1.13,8.01
6.269304037094116,-1.44,-6.88,1.27,7.14
6.279314994812012,-0.53,-5.96,1.09,6.08
6.28938102722168,1.49,-5.14,1.84,5.65
6.2994019985198975,3.35,-4.0,3.0,6.01
6.309364080429077,4.29,-2.59,3.42,6.06
6.3377158641815186,5.0,-1.13,3.34,6.11
6.338846921920776,5.95,0.61,3.6,6.98
6.339821100234985,6.99,2.58,3.98,8.44
6.348655939102173,8.0,4.12,4.11,9.89
6.358719110488892,9.0,4.92,3.86,10.95
6.368587970733643,10.21,5.78,3.26,12.17
6.3786780834198,11.77,6.83,2.53,13.84
6.388597011566162,13.2,7.62,1.63,15.32
6.398519992828369,13.91,8.0,0.49,16.05
6.40841007232666,14.06,7.26,-0.12,15.82
6.438590049743652,13.78,5.78,0.54,14.95
6.439764976501465,12.75,4.8,2.6,13.86
6.4407289028167725,7.84,5.82,4.1,10.58
6.462172031402588,-2.05,4.02,-1.19,4.66
6.463267087936401,-20.15,4.73,-10.75,23.32
6.478408098220825,-36.92,15.84,-15.98,43.23
6.479953050613403,-25.98,30.02,3.31,39.83
6.495350122451782,-6.1,20.2,6.55,22.09
6.497655153274536,8.65,-3.14,0.97,9.25
6.5107128620147705,13.76,-9.91,8.87,19.13
6.544501066207886,14.11,-5.77,12.01,19.4
6.545769929885864,12.87,-6.38,6.97,15.96
6.546818017959595,10.0,-4.52,1.27,11.04
6.562649965286255,4.96,-0.1,-2.62,5.61
6.5641090869903564,2.46,2.49,-2.84,4.5
6.578262090682983,1.87,2.49,-3.22,4.47
6.5796849727630615,2.14,1.71,-3.3,4.28
6.595072031021118,3.05,0.82,-2.31,3.91
6.596880197525024,3.7,0.06,-0.7,3.76
6.610579967498779,3.0,-0.46,0.81,3.14
6.6447460651397705,1.24,-0.77,2.07,2.53
6.64637303352356,-0.69,-0.74,3.08,3.24
6.6473610401153564,-1.75,-0.69,3.1,3.62
6.66274619102478,-1.11,-0.56,2.48,2.77
6.664231061935425,0.5,-0.36,1.58,1.69
6.679556131362915,1.58,-0.19,0.5,1.66
6.680994987487793,2.19,0.06,-0.28,2.2
6.694976091384888,2.47,0.15,-0.55,2.53
6.696423053741455,2.19,0.15,-0.42,2.23
6.710700988769531,1.53,0.23,0.0,1.54
6.746335983276367,0.7,0.18,0.22,0.75
6.747615098953247,-0.28,0.03,0.0,0.28
6.748620986938477,-0.92,-0.18,0.07,0.94
6.762513875961304,-1.45,-0.27,0.1,1.47
6.763530015945435,-1.88,-0.19,0.12,1.89
6.7785351276397705,-1.74,0.1,-0.32,1.77
6.779972076416016,-1.05,0.46,-0.81,1.4
6.795375108718872,-0.23,0.57,-1.13,1.28
6.7968339920043945,0.27,0.58,-1.01,1.19
6.810801982879639,-0.03,0.53,-0.97,1.1
6.842427968978882,-0.5,0.48,-0.8,1.05
6.843716859817505,-0.7,0.44,-0.71,1.08
6.844768047332764,-0.9,0.49,-0.85,1.33
6.862756013870239,-1.2,0.38,-0.93,1.56
6.864163160324097,-1.27,0.24,-0.93,1.59
6.87848687171936,-1.54,0.27,-1.1,1.91
6.879940032958984,-1.84,0.44,-1.28,2.28
6.895221948623657,-2.28,0.51,-1.62,2.84
6.89663290977478,-2.41,0.58,-1.63,2.96
6.911118984222412,-2.17,0.7,-1.66,2.82
6.914730072021484,-1.73,0.79,-1.52,2.43
6.955090045928955,-1.57,0.87,-1.52,2.35
6.956191062927246,-1.7,0.88,-1.57,2.47
6.9571568965911865,-1.89,0.82,-1.59,2.6
6.9593589305877686,-2.03,1.04,-1.4,2.67
6.96392297744751,-2.04,1.47,-1.58,2.96
6.974077939987183,-2.06,2.2,-1.45,3.34
6.984226942062378,-2.21,2.82,-1.52,3.89
6.994178056716919,-2.54,3.3,-1.76,4.52
7.004162073135376,-2.96,3.46,-1.79,4.89
7.013858079910278,-3.58,3.5,-2.13,5.44
7.044479131698608,-4.18,3.73,-2.45,6.11
7.045804977416992,-4.47,4.37,-2.64,6.78
7.0468080043792725,-4.96,5.56,-2.87,7.98
7.062515020370483,-5.81,7.21,-3.28,9.82
7.0635809898376465,-7.53,9.97,-3.78,13.05
7.0788209438323975,-10.58,12.15,-5.77,17.11
7.083471059799194,-11.53,11.69,-6.83,17.78
7.09313702583313,-10.42,10.56,-6.58,16.22
7.103133916854858,-9.5,10.46,-7.83,16.15
7.112923860549927,-8.7,10.31,-9.5,16.49
7.142951965332031,-7.1,10.34,-7.65,14.69
7.144213914871216,-4.17,11.06,-2.99,12.19
7.145236968994141,-1.08,11.04,-0.35,11.09
7.162405967712402,-0.56,8.79,-0.35,8.81
7.163409948348999,-1.5,3.95,-1.23,4.4
7.178606986999512,-1.48,-1.39,-3.31,3.88
7.1826159954071045,-0.68,-3.89,-4.67,6.11
7.195487976074219,2.79,-1.34,-2.0,3.68
7.202614068984985,4.53,-1.35,-0.07,4.72
7.212301015853882,2.36,-3.66,-0.77,4.42
7.243384122848511,-1.36,-3.91,-2.08,4.63
7.244629144668579,-5.01,-3.09,-2.28,6.31
7.24564003944397,-6.98,-3.67,-1.42,8.01
7.262491941452026,-7.28,-4.39,-0.47,8.51
7.263524055480957,-6.26,-5.01,0.8,8.05
7.278754949569702,-4.83,-5.7,2.29,7.81
7.281813859939575,-3.57,-6.45,3.08,7.98
7.295577049255371,-2.67,-6.72,2.42,7.62
7.3015968799591064,-1.98,-6.25,1.0,6.63
7.311511993408203,-1.63,-5.56,-0.34,5.8
7.349065065383911,-1.68,-4.85,-1.19,5.26
7.35036301612854,-1.48,-4.96,-1.83,5.49
7.3513710498809814,-1.29,-4.73,-2.35,5.43
7.362623929977417,-0.81,-4.44,-3.0,5.41
7.363676071166992,-0.85,-4.1,-2.77,5.02
7.378834009170532,-1.03,-4.51,-2.46,5.23
7.381004095077515,-0.56,-5.81,-2.29,6.27
7.395332098007202,-0.4,-5.62,-1.73,5.89
7.400935888290405,-0.17,-6.24,-1.08,6.33
7.411056995391846,-0.15,-6.75,-0.62,6.78
7.447700023651123,-0.28,-7.12,-0.07,7.12
7.449021100997925,-0.37,-7.44,0.68,7.48
7.450088024139404,-0.51,-7.44,1.1,7.53
7.451061964035034,-0.44,-7.03,0.82,7.09
7.460561990737915,0.53,-6.39,0.45,6.42
7.469988107681274,2.26,-5.94,1.01,6.43
7.480211973190308,3.76,-5.48,2.31,7.03
7.490323066711426,4.62,-4.62,3.25,7.29
7.500480890274048,5.11,-3.48,3.35,7.03
7.51020884513855,5.63,-2.09,3.08,6.74
7.545696020126343,6.46,-0.56,3.2,7.23
7.546862840652466,7.8,1.09,3.97,8.81
7.5478410720825195,9.22,2.7,5.21,10.92
7.562584161758423,10.18,4.15,6.1,12.57
7.563665151596069,10.62,5.33,6.53,13.55
7.578791856765747,10.72,6.43,6.53,14.1
7.580207109451294,11.06,7.4,6.25,14.7
7.59562611579895,11.5,7.61,6.22,15.12
7.59937310218811,11.48,6.82,6.24,14.73
7.609294176101685,10.85,6.19,6.15,13.92
7.646477937698364,7.38,7.62,3.54,11.18
7.647778034210205,-4.22,4.4,-6.35,8.8
7.648793935775757,-26.76,12.5,-21.61,36.59
7.66432785987854,-29.34,33.02,-21.12,48.96
7.665410041809082,-16.6,43.89,6.1,47.31
7.67903208732605,-0.76,7.9,4.8,9.27
7.680512189865112,9.46,-18.16,3.61,20.79
7.695415019989014,13.73,-16.43,12.56,24.82
7.6986470222473145,13.89,-7.43,12.05,19.83
7.7104010581970215,11.0,-3.1,5.57,12.71
7.718420028686523,4.94,-0.6,2.3,5.48
7.753609895706177,0.89,2.22,0.47,2.43
7.754745006561279,0.21,2.67,-0.73,2.77
7.756004095077515,0.5,1.55,-1.95,2.54
7.758454084396362,1.49,1.14,-2.51,3.13
7.77805495262146,2.92,0.87,-1.73,3.5
7.77918004989624,3.83,0.09,-0.1,3.83
7.794559001922607,3.3,-0.73,1.18,3.57
7.797951936721802,1.6,-0.98,1.39,2.33
7.812191009521484,0.13,-0.71,1.24,1.43
7.817754030227661,-0.11,-0.47,1.06,1.16
7.854172945022583,0.72,-0.53,0.67,1.11
7.8553431034088135,0.99,-0.19,0.54,1.14
7.85655403137207,0.6,0.31,0.62,0.91
7.8591039180755615,0.37,0.5,0.78,0.99
7.867372035980225,0.48,0.25,0.63,0.83
7.8772499561309814,0.75,-0.1,-0.13,0.76
7.887346982955933,0.67,-0.18,-0.76,1.02
7.897493124008179,0.26,0.05,-0.54,0.6
7.907138109207153,-0.16,0.22,0.03,0.27
7.917078971862793,-0.37,0.28,0.08,0.47
7.946995973587036,-0.59,0.3,-0.44,0.79
7.948394060134888,-0.84,0.14,-0.8,1.16
7.949440002441406,-1.04,0.07,-0.39,1.11
7.956815004348755,-1.24,0.29,-0.18,1.28
7.966639995574951,-1.24,0.5,-0.48,1.42
7.9767210483551025,-0.79,0.49,-0.82,1.23
7.986508131027222,-0.32,0.43,-0.7,0.88
7.9966230392456055,-0.41,0.45,-0.61,0.86
8.006247997283936,-0.8,0.53,-0.81,1.25
8.016509056091309,-1.39,0.39,-1.09,1.8
8.04651403427124,-1.66,0.11,-1.02,1.95
8.047906160354614,-1.71,-0.13,-0.87,1.92
8.048922061920166,-1.81,0.07,-1.19,2.16
8.06301498413086,-2.12,0.44,-1.46,2.61
8.065546035766602,-2.32,0.71,-1.67,2.94
8.078979015350342,-2.16,0.76,-1.72,2.86
8.08562684059143,-1.76,0.7,-1.65,2.51
8.096008062362671,-1.69,0.57,-1.43,2.28
8.105613946914673,-1.89,0.56,-1.61,2.54
8.115539073944092,-2.07,0.77,-1.81,2.85
8.152554988861084,-2.2,1.03,-1.74,2.98
8.153939008712769,-2.31,1.54,-1.65,3.22
8.15494990348816,-2.17,2.24,-1.86,3.63
8.15876317024231,-2.02,2.71,-2.14,4.0
8.16478705406189,-2.51,3.44,-1.86,4.64
8.179287195205688,-3.19,3.89,-2.21,5.49
8.185018062591553,-3.95,4.18,-2.28,6.18
8.196063041687012,-4.72,4.41,-2.46,6.91
8.204909086227417,-5.24,5.19,-2.79,7.88
8.215013980865479,-5.82,6.85,-2.87,9.43
8.251763105392456,-6.73,9.29,-3.45,11.97
8.253221988677979,-8.87,11.4,-5.51,15.45
8.254430055618286,-11.09,11.85,-7.02,17.68
8.261656999588013,-11.26,10.9,-6.51,16.96
8.2641019821167,-10.51,9.82,-7.03,16.0
8.278120994567871,-9.48,9.57,-8.36,15.85
8.28423285484314,-8.52,9.1,-9.45,15.64
8.296180009841919,-6.71,9.62,-7.05,13.68
8.303977966308594,-3.32,10.87,-2.5,11.63
8.313934087753296,-0.45,10.89,-0.38,10.9
8.351003885269165,-0.02,7.42,-1.37,7.54
8.352396965026855,-0.88,2.28,-2.85,3.75
8.35339093208313,-0.86,-3.04,-4.55,5.53
8.362802028656006,0.22,-4.9,-5.25,7.18
8.363875150680542,3.16,-1.09,-1.12,3.52
8.379317998886108,2.65,-2.37,0.96,3.68
8.383486032485962,-0.72,-5.18,0.06,5.23
8.394182920455933,-4.34,-4.45,-1.48,6.38
8.403459072113037,-7.47,-3.52,-2.31,8.57
8.413289070129395,-8.68,-3.96,-1.43,9.64
8.451065063476562,-7.77,-5.1,-0.01,9.29
8.452424049377441,-5.87,-6.22,1.34,8.65
8.453392028808594,-4.27,-7.0,2.74,8.64
8.454514026641846,-3.43,-7.34,3.27,8.73
8.462514162063599,-3.34,-7.11,2.52,8.24
8.472584009170532,-3.5,-6.18,1.42,7.24
8.482676982879639,-3.46,-5.29,0.62,6.35
8.492747068405151,-3.13,-4.9,-0.02,5.81
8.50276803970337,-2.69,-4.67,-0.95,5.47
8.512685060501099,-2.38,-4.28,-1.17,5.03
8.522280931472778,-2.37,-3.91,-1.79,4.91
8.557997941970825,-2.25,-3.74,-2.35,4.95
8.559285879135132,-1.86,-3.9,-1.99,4.75
8.56027603149414,-1.18,-4.28,-1.63,4.72
8.579081058502197,-0.62,-4.55,-1.18,4.74
8.580127000808716,-0.26,-4.86,-0.86,4.94
8.595983982086182,0.26,-5.14,-1.01,5.24
8.597431898117065,1.2,-5.23,-0.16,5.36
8.612582921981812,1.63,-4.89,1.63,5.4
8.614054918289185,1.4,-4.62,2.72,5.54
8.62822413444519,1.5,-4.21,3.46,5.65
8.65987515449524,1.83,-3.55,4.11,5.73
8.661258935928345,2.32,-2.81,4.35,5.67
8.66226601600647,3.24,-1.96,4.4,5.8
8.679805040359497,4.45,-0.9,4.48,6.37
8.680877923965454,5.99,0.08,4.6,7.55
8.695956945419312,7.52,0.79,4.74,8.92
8.696990013122559,8.95,1.9,5.24,10.54
8.71262812614441,10.51,3.15,5.76,12.39
8.714070081710815,12.18,4.21,5.4,13.97
8.728398084640503,13.46,5.03,4.51,15.06
8.758947134017944,14.39,5.89,3.42,15.92
8.760377168655396,15.2,6.49,2.43,16.7
8.761388063430786,15.6,5.86,2.65,16.87
8.779360055923462,13.57,7.54,3.1,15.83
8.780367136001587,7.14,8.64,-0.02,11.2
8.795018911361694,-7.13,7.98,-8.27,13.52
8.796092987060547,-24.3,23.77,-17.1,38.05
8.810999155044556,-19.79,40.04,-6.78,45.17
8.81246018409729,-11.78,22.89,10.47,27.79
8.828221082687378,1.37,-6.17,4.7,7.87
8.857699155807495,8.31,-12.49,3.22,15.34
8.858847856521606,11.84,-9.57,7.95,17.17
8.859652996063232,12.31,-6.43,10.5,17.41
8.87948489189148,7.9,-3.78,5.7,10.44
8.880532026290894,2.49,-1.11,0.38,2.75
8.896046876907349,-0.44,1.13,-1.58,1.99
8.897083044052124,-0.33,1.3,-1.6,2.08
8.912785053253174,1.52,0.93,-1.15,2.12
8.91421914100647,2.82,1.56,-1.49,3.55
8.928766012191772,3.17,1.45,-1.01,3.62
8.958162069320679,3.01,0.16,0.03,3.01
8.959370851516724,2.55,-0.74,0.19,2.66
8.960210084915161,1.83,-0.98,0.69,2.18
8.979238986968994,0.57,-0.8,1.5,1.79
8.980170011520386,-0.47,-0.47,1.92,2.03
8.992214918136597,-0.78,-0.13,1.41,1.61
8.993208169937134,-0.3,0.15,0.27,0.43
9.013520002365112,0.6,0.26,-0.4,0.76
9.01470398902893,1.23,0.28,-0.7,1.44
9.02875018119812,1.29,0.29,-0.77,1.53
9.05922818183899,1.0,0.19,-0.72,1.24
9.06053614616394,0.62,0.0,-0.74,0.96
9.061570882797241,0.24,0.01,-0.56,0.6
9.079750061035156,-0.3,0.07,0.08,0.31
9.080785989761353,-0.83,0.07,0.41,0.92
9.096094846725464,-0.97,0.14,0.34,1.03
9.097177982330322,-0.7,0.16,-0.16,0.73
9.113128900527954,-0.46,0.15,-0.42,0.64
9.114620923995972,-0.47,0.25,-0.48,0.71
9.128720045089722,-0.49,0.42,-0.37,0.74
9.16071105003357,-0.45,0.51,-0.29,0.73
9.162065029144287,-0.36,0.54,-0.35,0.73
9.16298508644104,-0.42,0.45,-0.45,0.76
9.17982792854309,-0.5,0.36,-0.43,0.75
9.180894136428833,-0.57,0.3,-0.44,0.78
9.196104049682617,-0.86,0.16,-0.47,0.99
9.197127103805542,-0.95,0.11,-0.45,1.05
9.213099002838135,-0.9,0.13,-0.57,1.07
9.214597940444946,-0.86,0.31,-0.73,1.16
9.22861099243164,-0.89,0.47,-1.06,1.46
9.258316040039062,-1.11,0.66,-1.35,1.86
9.259687185287476,-1.37,0.74,-1.49,2.15
9.260728120803833,-1.44,0.84,-1.28,2.1
9.279837846755981,-1.64,1.09,-0.89,2.16
9.280914068222046,-2.14,1.4,-1.1,2.78
9.29607605934143,-2.59,1.54,-1.01,3.17
9.297066926956177,-3.05,1.67,-0.8,3.56
9.312793016433716,-3.27,1.98,-1.33,4.04
9.314252138137817,-3.15,2.33,-1.89,4.35
9.328484058380127,-2.79,2.7,-2.53,4.63
9.329933881759644,-2.65,3.05,-3.2,5.15
9.375272989273071,-2.97,3.26,-3.43,5.58
9.376497030258179,-3.78,3.52,-3.51,6.24
9.377476930618286,-4.85,4.06,-3.66,7.3
9.396508932113647,-5.85,5.34,-3.78,8.77
9.397554159164429,-6.61,7.56,-3.79,10.73
9.412752866744995,-7.48,9.85,-4.83,13.27
9.413774013519287,-8.81,11.15,-6.95,15.81
9.426764011383057,-9.87,11.79,-7.53,17.12
9.42823600769043,-10.24,12.03,-7.53,17.5
9.445374011993408,-9.27,11.57,-8.27,16.97
9.47785997390747,-8.08,9.9,-9.83,16.12
9.479148149490356,-7.45,9.65,-9.53,15.47
9.48018503189087,-5.59,11.59,-4.67,13.68
9.497541189193726,-2.1,13.12,1.45,13.36
9.498554944992065,-0.99,10.21,1.94,10.43
9.512685060501099,-2.94,4.24,-1.71,5.43
9.51371693611145,-2.93,-0.9,-3.17,4.4
9.529986143112183,-0.23,-2.15,-3.16,3.82
9.531491994857788,4.34,0.65,0.41,4.4
9.545231103897095,4.03,-3.32,2.03,5.6
9.575156927108765,0.58,-5.72,0.18,5.75
9.576642990112305,-2.72,-4.29,-1.77,5.37
9.57766318321228,-5.65,-4.32,-1.29,7.22
9.596718072891235,-7.01,-5.39,0.12,8.84
9.597737073898315,-6.5,-5.95,1.17,8.88
9.612863063812256,-4.57,-6.38,1.43,7.97
9.613876104354858,-2.77,-7.13,1.11,7.72
9.630691051483154,-1.8,-8.01,0.38,8.21
9.632161855697632,-1.61,-8.25,-0.51,8.42
9.64538311958313,-1.89,-8.09,-1.21,8.39
9.675370931625366,-2.45,-7.79,-1.75,8.35
9.676499128341675,-2.88,-7.69,-2.22,8.5
9.677335023880005,-3.04,-7.7,-2.49,8.64
9.696830034255981,-3.11,-7.58,-2.5,8.56
9.697864055633545,-3.09,-7.53,-2.25,8.44
9.712937116622925,-2.87,-7.66,-1.96,8.41
9.713971853256226,-2.6,-7.55,-1.46,8.11
9.730053186416626,-2.21,-7.43,-0.93,7.8
9.731531858444214,-1.71,-7.69,-0.53,7.89
9.745262861251831,-1.49,-7.98,-0.07,8.11
9.775353193283081,-1.57,-8.07,-0.09,8.22
9.776648044586182,-1.59,-7.87,-0.56,8.04
9.77761697769165,-1.38,-7.49,-0.3,7.62
9.797887086868286,-1.41,-6.81,0.51,6.97
9.798866987228394,-1.76,-5.5,0.1,5.77
9.810848951339722,-0.79,-3.59,-1.02,3.81
9.811838865280151,2.24,-1.98,-0.76,3.08
9.830057859420776,5.15,0.22,0.71,5.2
9.831517934799194,7.18,2.78,2.21,8.01
9.845455884933472,8.65,4.46,2.89,10.15
9.87595009803772,9.44,6.12,2.99,11.64
9.877097845077515,9.64,8.47,2.82,13.13
9.877928972244263,9.69,9.91,2.41,14.06
9.896923065185547,9.84,10.11,2.01,14.25
9.897990942001343,10.25,10.43,1.89,14.74
9.91295313835144,10.22,10.1,2.12,14.52
9.913989067077637,9.1,9.08,3.29,13.26
9.929648160934448,7.26,8.02,4.73,11.8
9.930672883987427,6.02,7.11,6.59,11.41
9.945470094680786,4.95,7.91,8.15,12.38
9.974167108535767,2.18,7.37,6.42,10.01
9.976112127304077,-4.33,-0.09,-0.63,4.37
9.97694993019104,-15.79,-1.82,-7.99,17.78
9.997544050216675,-26.44,9.58,-12.23,30.66
9.998645067214966,-19.19,31.41,-1.16,36.82
10.013278007507324,-2.14,22.62,8.74,24.34
10.014293909072876,6.04,-0.19,1.54,6.23
10.029275178909302,9.42,-8.4,3.59,13.12
10.030357122421265,9.8,-5.18,7.44,13.35
10.045626878738403,9.97,-5.04,3.19,11.61
10.076282024383545,10.52,-4.62,1.35,11.56
10.077424049377441,7.9,-1.63,0.06,8.06
10.07821011543274,5.12,0.42,-0.41,5.15
10.095793962478638,4.07,1.36,-0.32,4.3
10.096794843673706,3.0,1.12,-0.41,3.22
10.110874891281128,2.07,0.51,-0.35,2.16
10.111893892288208,1.34,0.56,0.19,1.46
10.127629041671753,0.63,0.46,1.27,1.49
10.128638982772827,-0.08,-0.06,2.28,2.28
10.14578890800476,-0.67,-0.62,2.55,2.7
10.14728307723999,-1.01,-0.92,2.2,2.58
10.192888975143433,-0.82,-0.75,1.23,1.65
10.194068193435669,-0.06,-0.2,-0.32,0.38
10.195077180862427,0.82,0.35,-1.33,1.6
10.214043855667114,1.46,0.6,-1.57,2.22
10.215092897415161,1.63,0.37,-1.28,2.1
10.230355978012085,1.52,-0.16,-0.9,1.77
10.232007026672363,1.13,-0.47,-0.57,1.35
10.246914148330688,0.36,-0.22,0.14,0.44
10.248525857925415,-0.62,0.21,1.03,1.22
10.261452913284302,-1.34,0.36,1.3,1.9
10.29266095161438,-1.48,0.25,1.25,1.95
10.294091939926147,-1.21,0.0,0.58,1.34
10.295076131820679,-0.6,-0.13,-0.02,0.61
10.313785076141357,-0.03,0.09,-0.68,0.68
10.31484603881836,0.14,0.33,-1.54,1.58
10.329483985900879,-0.09,0.36,-1.54,1.58
10.330352067947388,-0.1,0.24,-0.87,0.9
10.346151113510132,0.06,0.31,-0.13,0.34
10.347200155258179,-0.2,0.41,0.3,0.54
10.36185908317566,-0.58,0.56,0.21,0.83
10.391977071762085,-1.22,0.48,-0.42,1.37
10.393462896347046,-1.7,0.31,-0.89,1.94
10.394474029541016,-1.75,0.08,-1.05,2.04
10.413562059402466,-1.51,0.01,-0.8,1.7
10.41459584236145,-1.27,0.23,-0.92,1.58
10.429810047149658,-1.31,0.6,-1.41,2.01
10.430860042572021,-1.47,0.86,-1.69,2.39
10.446730852127075,-1.59,0.89,-1.56,2.39
10.447656869888306,-1.56,1.0,-1.47,2.36
10.462552070617676,-1.84,1.06,-1.67,2.7
10.491508960723877,-2.08,0.99,-1.8,2.92
10.493292093276978,-1.99,1.16,-1.77,2.9
10.494130849838257,-2.01,1.54,-1.75,3.07
10.513980150222778,-2.12,2.35,-1.71,3.59
10.515024900436401,-2.45,3.01,-1.59,4.19
10.530027151107788,-3.1,3.41,-1.59,4.87
10.53099799156189,-3.78,3.62,-1.64,5.48
10.546941041946411,-4.48,3.75,-2.12,6.21
10.548421144485474,-5.15,4.18,-2.67,7.15
10.56242299079895,-5.49,5.37,-2.89,8.2
10.5917329788208,-5.94,7.36,-3.74,10.17
10.593122005462646,-7.23,9.94,-5.51,13.46
10.59411096572876,-8.95,11.8,-6.62,16.22
10.613123178482056,-10.4,12.3,-6.7,17.44
10.614137887954712,-11.34,12.4,-7.25,18.3
10.628448009490967,-11.1,12.27,-8.43,18.56
10.629451990127563,-9.97,11.08,-9.34,17.58
10.64778208732605,-9.0,9.46,-9.36,16.06
10.649257898330688,-6.85,9.47,-5.26,12.81
10.661803960800171,-2.67,11.09,0.48,11.41
10.690589189529419,-0.35,9.62,2.1,9.85
10.691827058792114,-1.88,3.42,-1.11,4.05
10.69260287284851,-2.34,-1.04,-2.78,3.77
10.714274168014526,-0.68,-2.34,-4.6,5.2
10.71531891822815,3.63,0.59,-2.04,4.2
10.73024296760559,4.04,-1.61,0.42,4.36
10.731302976608276,0.36,-4.78,-0.77,4.85
10.746733903884888,-3.23,-3.8,-2.18,5.44
10.748080015182495,-6.61,-3.05,-2.35,7.64
10.76267409324646,-8.43,-4.1,-1.0,9.42
10.792205095291138,-8.4,-5.11,0.6,9.85
10.793488025665283,-6.77,-5.71,1.71,9.02
10.79445195198059,-4.83,-6.36,2.35,8.32
10.813699007034302,-3.65,-6.79,2.42,8.07
10.814790964126587,-3.05,-6.81,1.56,7.62
10.830190896987915,-2.79,-6.39,0.46,6.98
10.831228017807007,-2.73,-6.16,-0.47,6.75
10.846728086471558,-2.69,-6.26,-0.79,6.85
10.847769021987915,-2.65,-6.73,-0.98,7.29
10.862787961959839,-2.54,-6.89,-1.6,7.51
10.891470193862915,-2.5,-6.53,-2.37,7.38
10.892760992050171,-2.5,-6.38,-2.19,7.19
10.89352798461914,-2.27,-6.66,-2.21,7.37
10.914108991622925,-1.48,-7.75,-2.08,8.15
10.91514801979065,-1.1,-8.07,-1.98,8.38
10.930091142654419,-0.83,-8.45,-1.82,8.68
10.931136846542358,-0.74,-8.58,-1.32,8.71
10.946845054626465,-0.9,-8.72,-0.42,8.77
10.947890996932983,-1.26,-8.68,0.7,8.79
10.96277403831482,-1.31,-8.18,1.66,8.44
10.964218854904175,-0.85,-7.34,2.93,7.94
11.007818937301636,-0.24,-6.04,3.28,6.87
11.008806943893433,1.25,-4.35,2.77,5.3
11.009592056274414,3.88,-2.72,3.33,5.79
11.031008958816528,6.07,-0.77,4.7,7.71
11.032052040100098,7.28,1.65,5.36,9.18
11.046106100082397,8.71,4.19,5.19,10.97
11.047160863876343,10.56,7.22,5.37,13.87
11.063590049743652,11.94,10.55,5.44,16.83
11.06510305404663,12.35,13.14,4.48,18.58
11.079328060150146,12.41,14.56,2.7,19.32
11.108808040618896,13.43,13.49,2.89,19.25
11.110030889511108,14.29,9.88,4.92,18.05
11.110835075378418,12.84,8.52,7.12,16.97
11.127137899398804,9.56,9.04,5.2,14.14
11.128233194351196,-0.83,0.98,-3.59,3.81
11.14684510231018,-20.54,0.9,-15.01,25.45
11.14794397354126,-31.33,19.32,-23.36,43.59
11.163685083389282,-19.85,41.95,3.75,46.56
11.164712190628052,-2.39,18.76,13.94,23.49
11.177994012832642,9.46,-10.04,4.0,14.36
11.206218004226685,15.13,-11.5,8.84,20.95
11.207382917404175,14.24,-4.01,10.76,18.29
11.208178043365479,10.53,-3.54,4.22,11.88
11.210327863693237,5.83,-2.81,0.24,6.47
11.211590051651001,1.96,0.21,-2.3,3.02
11.21273684501648,1.18,1.39,-2.81,3.34
11.213919878005981,1.71,1.09,-1.97,2.82
11.215088129043579,2.62,0.58,-0.29,2.69
11.221380949020386,3.21,0.64,0.68,3.34
11.231993913650513,2.56,0.11,0.6,2.63
11.259351968765259,1.09,-0.58,1.5,1.94
11.260265111923218,0.05,-0.66,1.52,1.65
11.261276006698608,-0.23,-0.49,1.22,1.33
11.279217958450317,-0.25,-0.57,1.36,1.49
11.28115200996399,0.36,-0.58,0.96,1.17
11.296826124191284,1.05,-0.22,0.23,1.09
11.301006078720093,1.25,0.23,-0.29,1.3
11.313390016555786,1.15,0.42,-0.59,1.35
11.321208000183105,0.94,0.44,-0.75,1.28
11.330862998962402,0.56,0.17,-0.69,0.9
11.365731954574585,0.09,-0.25,-0.76,0.8
11.366812944412231,-0.07,-0.37,-0.12,0.39
11.367650032043457,-0.17,-0.1,0.62,0.65
11.380903005599976,-0.4,0.15,0.86,0.96
11.381749868392944,-0.52,0.25,0.58,0.81
11.396846055984497,-0.4,0.15,0.09,0.43
11.400439023971558,-0.42,0.1,0.09,0.44
11.41364312171936,-0.51,0.16,-0.08,0.54
11.42038893699646,-0.43,0.39,-0.45,0.73
11.430129051208496,-0.26,0.61,-1.02,1.21
11.467679023742676,-0.37,0.73,-1.09,1.36
11.468930959701538,-0.7,0.85,-0.79,1.35
11.469799995422363,-1.07,0.85,-0.54,1.46
11.480857133865356,-1.38,0.62,-0.43,1.57
11.481780052185059,-1.58,0.19,-0.21,1.6
11.497071981430054,-1.62,0.05,-0.31,1.65
11.499660968780518,-1.61,0.17,-0.89,1.84
11.513705015182495,-1.43,0.59,-1.34,2.04
11.519487142562866,-1.35,0.94,-1.54,2.25
11.529453039169312,-1.51,1.09,-1.74,2.54
11.565163850784302,-1.93,0.95,-1.91,2.87
11.566274881362915,-2.29,0.61,-1.53,2.82
11.567107915878296,-2.49,0.68,-1.21,2.85
11.580908060073853,-2.55,0.86,-1.56,3.11
11.58196496963501,-2.74,1.58,-1.47,3.48
11.598306894302368,-2.84,2.15,-1.52,3.87
11.59934115409851,-2.78,2.56,-1.45,4.04
11.614326000213623,-2.86,3.01,-1.47,4.4
11.61868405342102,-3.26,3.33,-2.14,5.12
11.629660844802856,-3.83,3.67,-2.35,5.8
11.666743993759155,-4.51,4.11,-2.74,6.68
11.668055057525635,-5.24,5.06,-3.24,7.97
11.668936967849731,-6.09,6.53,-3.45,9.57
11.681061029434204,-7.36,8.92,-3.96,12.22
11.682119131088257,-9.7,11.99,-5.91,16.51
11.697214841842651,-11.72,13.16,-7.14,19.01
11.69827914237976,-11.83,11.96,-6.75,18.12
11.713671922683716,-11.34,10.67,-6.9,17.03
11.718998193740845,-11.22,11.04,-8.16,17.73
11.727971076965332,-10.24,12.16,-7.56,17.6
11.738754987716675,-6.91,12.89,-4.05,15.17
11.772562980651855,-2.42,11.97,-0.71,12.23
11.773530960083008,-0.6,9.21,-0.31,9.23
11.774696111679077,-1.52,4.89,-1.88,5.45
11.777282953262329,-1.96,-0.27,-3.48,4.0
11.78760313987732,-0.43,-3.45,-5.8,6.76
11.797569036483765,3.52,-0.29,-3.46,4.94
11.807311058044434,4.94,0.15,0.25,4.94
11.81740403175354,1.34,-3.69,-0.32,3.93
11.827347993850708,-2.67,-4.43,-2.36,5.68
11.837283849716187,-6.49,-3.3,-2.97,7.86
11.867743015289307,-8.77,-4.15,-2.07,9.92
11.86882996559143,-8.57,-5.41,-0.45,10.14
11.869651079177856,-6.7,-6.4,0.87,9.3
11.879504919052124,-4.57,-7.25,1.66,8.72
11.8868989944458,-3.06,-8.17,1.8,8.9
11.897152185440063,-2.52,-8.24,0.72,8.64
11.906960010528564,-2.53,-7.46,-0.83,7.92
11.916512966156006,-2.92,-6.6,-1.74,7.42
11.926671981811523,-3.13,-6.74,-2.22,7.75
11.936515092849731,-3.33,-6.96,-2.58,8.13
11.969810009002686,-3.62,-6.3,-2.74,7.76
11.971189975738525,-3.24,-6.58,-3.2,8.0
11.972263097763062,-2.85,-6.68,-3.09,7.89
11.98081088066101,-2.27,-6.71,-2.76,7.6
11.986013174057007,-1.44,-7.13,-2.66,7.74
11.99665093421936,-0.68,-7.61,-2.51,8.04
12.006083965301514,-0.1,-8.11,-2.58,8.51
12.015735864639282,0.26,-8.37,-2.52,8.74
12.02605414390564,0.63,-8.37,-1.96,8.61
12.03593897819519,1.08,-8.19,-0.62,8.28
12.068115949630737,1.08,-7.5,-0.47,7.59
12.069447994232178,1.96,-6.04,-1.2,6.46
12.070472955703735,4.33,-4.55,-0.21,6.28
12.081866979598999,6.43,-2.76,2.14,7.31
12.085268020629883,6.92,-0.62,3.86,7.94
12.09505295753479,6.72,1.48,3.4,7.67
12.105154991149902,7.05,4.0,2.94,8.62
12.114926099777222,8.16,7.1,3.82,11.47
12.12540602684021,10.09,10.22,5.04,15.22
12.135009050369263,12.17,12.44,5.62,18.28
12.174075841903687,13.34,12.6,4.81,18.96
12.175564050674438,13.45,11.48,3.86,18.09
12.176547050476074,12.88,9.93,3.98,16.74
12.178766965866089,12.09,7.96,5.23,15.39
12.184542894363403,10.58,6.92,7.23,14.56
12.194607019424438,7.37,8.29,6.48,12.84
12.204530000686646,-0.33,2.27,-1.79,2.9
12.214540004730225,-17.35,0.1,-11.63,20.88
12.224171876907349,-31.65,17.06,-20.32,41.29
12.235368967056274,-23.8,42.35,1.96,48.61
12.267840147018433,-7.64,26.42,17.12,32.39
12.269276857376099,5.88,-4.58,3.94,8.43
12.270320177078247,12.15,-13.15,3.11,18.17
12.2814359664917,14.54,-9.18,9.05,19.43
12.28375792503357,13.61,-6.54,6.03,16.25
12.297311067581177,11.21,-3.38,1.05,11.75
12.303538084030151,6.22,-0.17,-2.86,6.84
12.313966035842896,2.87,1.49,-2.44,4.05
12.324020147323608,1.66,1.59,-1.03,2.51
12.333769083023071,1.71,1.1,0.32,2.05
12.367981195449829,2.01,1.44,1.36,2.82
12.369258165359497,1.64,0.66,1.15,2.1
12.370260953903198,1.02,-0.6,2.18,2.48
12.381505012512207,0.65,-0.96,2.08,2.38
12.38279414176941,0.38,-0.69,1.16,1.4
12.39709997177124,-0.18,-0.69,1.18,1.37
12.402883052825928,-0.17,-0.58,0.82,1.01
12.413984060287476,0.79,-0.21,-0.25,0.85
12.423274040222168,1.65,0.32,-1.28,2.11
12.432790994644165,1.89,0.52,-1.59,2.52
12.468636989593506,1.44,0.34,-1.31,1.97
12.470031976699829,0.9,0.03,-0.71,1.14
12.471034049987793,0.5,-0.45,-0.08,0.67
12.481463193893433,-0.2,-0.48,0.66,0.84
12.482517957687378,-0.98,-0.16,1.34,1.66
12.497879028320312,-1.5,0.33,1.24,1.97
12.50241208076477,-1.3,0.76,-0.06,1.5
12.514219999313354,-0.27,0.57,-1.01,1.19
12.522197008132935,0.47,0.19,-1.11,1.22
12.53195309638977,0.19,-0.09,-0.67,0.7
12.54217004776001,-0.52,0.05,-0.24,0.57
12.573117017745972,-0.94,0.35,-0.26,1.03
12.574289083480835,-1.05,0.6,-0.58,1.34
12.575438976287842,-0.98,0.71,-0.62,1.35
12.581547021865845,-0.69,0.7,-0.33,1.03
12.591403007507324,-0.64,0.54,-0.3,0.88
12.601711988449097,-0.94,0.35,-0.51,1.12
12.61173415184021,-1.55,0.06,-0.77,1.73
12.621855020523071,-1.77,0.01,-0.86,1.96
12.631502866744995,-1.32,0.29,-0.99,1.67
12.64139199256897,-0.89,0.61,-1.34,1.72
12.67182207107544,-0.83,0.75,-1.52,1.88
12.67306399345398,-1.01,0.78,-1.68,2.1
12.674242973327637,-1.45,0.84,-1.49,2.24
12.680968046188354,-1.81,0.99,-1.41,2.49
12.698070049285889,-1.98,1.18,-1.4,2.69
12.700938940048218,-2.04,1.58,-1.29,2.88
12.714598894119263,-2.47,2.06,-1.5,3.54
12.720970869064331,-3.05,2.65,-1.58,4.33
12.730538129806519,-3.47,2.78,-1.31,4.63
12.740787029266357,-3.59,2.86,-1.32,4.77
12.772366046905518,-3.74,2.98,-1.61,5.04
12.77356219291687,-3.87,3.18,-2.02,5.4
12.774813890457153,-4.19,3.39,-2.36,5.88
12.780128002166748,-4.78,3.9,-2.66,6.71
12.79818606376648,-5.68,4.83,-2.98,8.02
12.80008602142334,-6.75,6.29,-3.36,9.81
12.814529180526733,-8.14,8.45,-3.88,12.35
12.820021867752075,-9.94,10.09,-5.75,15.28
12.829730987548828,-10.61,10.36,-7.2,16.48
12.839904069900513,-10.08,9.95,-6.93,15.76
12.870737075805664,-9.4,9.77,-7.37,15.43
12.871931076049805,-8.92,9.71,-9.15,16.04
12.873208999633789,-7.9,11.04,-7.85,15.68
12.879191160202026,-5.26,12.56,-3.75,14.12
12.889116048812866,-2.25,11.57,-0.49,11.79
12.899112939834595,-1.63,8.53,-0.5,8.69
12.909373998641968,-3.12,4.37,-2.45,5.9
12.91917109489441,-3.26,0.3,-2.54,4.14
12.929344892501831,-1.4,-3.01,-4.13,5.29
12.939181089401245,2.74,-0.91,-3.35,4.42
12.976430177688599,5.49,0.75,0.2,5.54
12.977818012237549,2.95,-3.07,0.42,4.27
12.97885799407959,-0.6,-4.06,-1.23,4.28
12.998595952987671,-4.3,-2.35,-2.56,5.52
13.0001060962677,-7.06,-2.55,-1.79,7.71
13.01485300064087,-7.95,-4.12,-0.18,8.95
13.01637601852417,-7.02,-5.33,1.55,8.94
13.031244039535522,-5.31,-6.14,2.65,8.53
13.032725095748901,-3.79,-6.96,2.97,8.46
13.047177076339722,-2.76,-7.66,2.65,8.56
13.076519966125488,-2.21,-7.41,1.67,7.91
13.077962160110474,-2.07,-6.64,0.67,6.98
13.078965902328491,-2.26,-6.24,-0.26,6.64
13.098239183425903,-2.57,-6.21,-1.08,6.8
13.099701166152954,-2.79,-6.1,-1.59,6.89
13.11494517326355,-2.51,-6.17,-1.89,6.92
13.116449117660522,-2.13,-6.16,-2.18,6.87
13.131494998931885,-1.92,-6.24,-2.2,6.88
13.132979154586792,-1.66,-6.88,-2.18,7.4
13.147148847579956,-1.39,-7.78,-1.88,8.12
13.175079107284546,-1.29,-8.51,-1.33,8.7
13.176437139511108,-1.24,-8.96,-0.73,9.07
13.177479982376099,-1.35,-9.03,0.25,9.13
13.198736906051636,-1.86,-8.72,1.32,9.01
13.19980001449585,-2.38,-7.89,1.11,8.31
13.215070009231567,-2.15,-6.58,0.59,6.94
13.216593027114868,-1.06,-5.38,1.39,5.65
13.231382131576538,-0.01,-4.17,3.18,5.24
13.232848882675171,0.56,-2.84,4.55,5.39
13.247130155563354,1.17,-1.12,4.56,4.83
13.277464151382446,2.4,1.35,3.71,4.62
13.278795957565308,4.55,3.97,2.93,6.71
13.279839038848877,7.12,6.06,2.46,9.66
13.299023866653442,9.38,7.58,2.26,12.26
13.300493001937866,11.46,8.68,2.2,14.54
13.315024137496948,13.24,9.26,2.24,16.31
13.316517114639282,14.1,9.12,2.41,16.96
13.331747055053711,13.79,9.58,2.34,16.95
13.333255052566528,12.96,10.45,2.57,16.84
13.346842050552368,12.43,9.7,3.31,16.11
13.348754167556763,11.13,9.67,4.41,15.38
13.398546934127808,7.61,10.89,4.08,13.89
13.399724006652832,1.37,3.93,-1.18,4.32
13.400766134262085,-11.78,0.87,-10.14,15.56
13.416167974472046,-23.75,12.4,-13.42,29.96
13.417680025100708,-18.32,31.41,-2.16,36.42
13.431638956069946,-4.25,20.04,9.44,22.55
13.433104038238525,4.04,-5.32,1.71,6.89
13.448016881942749,8.56,-12.78,3.8,15.84
13.449504137039185,9.95,-8.62,9.12,16.01
13.463683843612671,9.37,-1.26,6.68,11.57
13.493414163589478,7.14,0.24,1.01,7.21
13.494809865951538,4.21,1.26,-1.88,4.77
13.495812177658081,2.6,2.44,-1.87,4.02
13.515117883682251,2.72,0.66,-1.58,3.21
13.51660704612732,2.93,-0.65,-1.81,3.5
13.531551122665405,2.52,0.16,-1.12,2.76
13.533030986785889,2.03,0.65,0.62,2.21
13.548094987869263,1.55,-0.14,2.4,2.86
13.549606084823608,0.68,-0.81,3.26,3.42
13.564784049987793,-0.26,-0.89,2.91,3.05
13.593538999557495,-0.16,-0.71,1.67,1.82
13.59481406211853,0.69,-0.54,0.75,1.15
13.595789194107056,1.18,-0.41,0.06,1.25
13.615017175674438,1.4,-0.28,-0.4,1.48
13.616079092025757,1.63,-0.06,-0.57,1.72
13.631633996963501,1.73,0.14,-0.64,1.84
13.633095979690552,1.63,0.16,-0.45,1.69
13.648774862289429,1.23,0.08,-0.16,1.24
13.650234937667847,0.77,0.05,0.27,0.81
13.664028882980347,0.38,0.0,0.77,0.85
13.692403078079224,-0.07,-0.11,0.98,0.98
13.693825960159302,-0.39,-0.14,1.03,1.11
13.694823026657104,-0.48,-0.16,0.89,1.02
13.715359926223755,-0.35,-0.14,0.46,0.59
13.716423988342285,-0.11,-0.02,-0.06,0.12
13.731878995895386,0.17,0.15,-0.61,0.65
13.733352899551392,0.29,0.21,-0.81,0.88
13.748576879501343,-0.01,0.33,-0.38,0.5
13.750051021575928,-0.43,0.52,-0.07,0.67
13.764036893844604,-0.61,0.62,0.05,0.87
13.790619134902954,-0.56,0.62,0.08,0.83
13.791885137557983,-0.54,0.58,0.08,0.79
13.792836904525757,-0.79,0.43,-0.15,0.91
13.79494309425354,-1.31,0.27,-0.55,1.44
13.796390056610107,-1.81,0.26,-0.95,2.06
13.802491903305054,-1.93,0.31,-1.17,2.27
13.812350988388062,-1.78,0.44,-1.27,2.23
13.822305917739868,-1.57,0.62,-1.5,2.25
13.832632064819336,-1.56,0.83,-1.84,2.55
13.842150926589966,-1.93,0.87,-2.3,3.12
13.874873876571655,-2.49,0.7,-2.45,3.56
13.876054048538208,-2.85,0.43,-2.17,3.6
13.877187967300415,-2.9,0.46,-1.92,3.5
13.881708860397339,-2.55,0.79,-1.78,3.2
13.891793966293335,-1.78,1.27,-1.52,2.66
13.901550054550171,-1.25,1.9,-1.5,2.72
13.9117271900177,-1.11,2.42,-1.5,3.05
13.921603918075562,-1.38,2.69,-1.47,3.36
13.931721925735474,-2.42,3.32,-1.79,4.48
13.941418886184692,-3.5,3.83,-2.13,5.6
13.9772789478302,-4.31,4.04,-2.09,6.26
13.978744983673096,-4.67,4.28,-2.32,6.74
13.979762077331543,-4.61,5.2,-2.8,7.49
13.998727083206177,-5.0,7.01,-3.57,9.32
13.999808073043823,-6.39,9.18,-4.44,12.03
14.015099048614502,-8.51,11.42,-4.63,14.97
14.016628980636597,-10.94,12.64,-5.19,17.5
14.029825925827026,-12.31,12.56,-6.4,18.71
14.031376123428345,-11.99,11.98,-7.58,18.56
14.046098947525024,-11.05,11.47,-9.33,18.45
14.076493978500366,-10.3,11.19,-10.92,18.72
14.077936887741089,-8.11,11.69,-7.96,16.3
14.078962087631226,-3.7,12.01,-2.48,12.8
14.098859071731567,-0.06,10.39,0.91,10.42
14.099905967712402,-0.9,5.61,0.02,5.68
14.115190982818604,-2.48,1.28,-0.99,2.96
14.116624116897583,-1.34,-2.63,-2.73,4.02
14.132066011428833,2.38,-2.95,-4.22,5.67
14.133545160293579,6.5,-0.14,-0.5,6.52
14.14751410484314,4.65,-3.48,-0.17,5.81
14.149927854537964,0.33,-5.39,-2.66,6.01
14.193042993545532,-3.4,-3.52,-3.8,6.19
14.19422197341919,-6.4,-3.0,-3.4,7.84
14.195204973220825,-7.35,-4.04,-1.66,8.54
14.216223001480103,-6.31,-5.28,0.1,8.22
14.217722177505493,-4.38,-6.14,0.91,7.59
14.231828927993774,-2.82,-7.15,1.15,7.77
14.233289003372192,-2.04,-7.9,0.82,8.2
14.248568058013916,-2.01,-7.53,-0.11,7.79
14.250025033950806,-2.36,-6.78,-0.93,7.23
14.264303922653198,-2.68,-6.51,-1.53,7.2
14.292557954788208,-2.87,-6.68,-2.02,7.54
14.293859004974365,-2.79,-6.71,-2.19,7.58
14.29482102394104,-2.45,-6.78,-2.53,7.64
14.315675020217896,-2.38,-6.61,-2.76,7.54
14.316689014434814,-2.41,-6.66,-2.56,7.53
14.33195185661316,-2.15,-7.23,-2.32,7.89
14.333411931991577,-1.84,-7.68,-2.2,8.19
14.348820924758911,-1.57,-8.02,-2.2,8.46
14.350209951400757,-1.24,-8.29,-1.96,8.6
14.364335060119629,-1.09,-8.43,-1.43,8.61
14.3922860622406,-1.16,-8.18,-1.12,8.33
14.393707990646362,-0.91,-7.58,-1.52,7.78
14.394695043563843,0.13,-6.85,-1.6,7.03
14.415664911270142,1.56,-6.44,-0.57,6.65
14.416753053665161,2.65,-5.79,0.83,6.42
14.432129144668579,3.43,-4.37,2.35,6.03
14.433568000793457,4.27,-2.38,3.43,5.97
14.448951005935669,4.96,-0.25,3.66,6.16
14.450430154800415,5.58,2.09,3.65,6.98
14.464491128921509,6.5,4.7,4.06,8.99
14.49253797531128,7.7,7.14,4.5,11.42
14.493793964385986,9.25,8.94,4.75,13.71
14.494784116744995,10.81,9.9,4.51,15.33
14.512073040008545,12.08,11.38,3.77,17.01
14.513129949569702,12.69,12.19,3.44,17.92
14.529153108596802,12.95,10.47,4.48,17.24
14.530673027038574,11.73,10.84,5.12,16.77
14.549894094467163,6.96,12.76,4.39,15.18
14.551424026489258,2.24,7.95,-0.52,8.27
14.564602136611938,-11.13,4.28,-8.09,14.4
14.593291997909546,-23.15,19.27,-11.56,32.26
14.59473204612732,-18.36,37.08,-0.66,41.38
14.595741033554077,-9.45,22.02,13.12,27.31
14.615494966506958,4.15,-3.62,8.06,9.76
14.616538047790527,9.38,-12.6,1.67,15.79
14.631974935531616,12.59,-12.79,5.42,18.74
14.63346791267395,12.67,-7.16,8.42,16.81
14.648618936538696,8.76,-2.81,2.64,9.57
14.650093078613281,4.41,-0.83,-1.15,4.63
14.664377927780151,1.8,1.06,-2.2,3.03
14.693068027496338,0.89,1.1,-3.27,3.56
14.69441819190979,1.83,0.73,-1.57,2.51
14.695409059524536,2.55,1.06,1.14,2.98
14.716003179550171,2.11,1.05,1.96,3.06
14.717047929763794,1.18,0.01,1.7,2.06
14.732396841049194,0.76,-0.86,1.5,1.88
14.733841180801392,0.93,-1.0,1.1,1.75
14.748830080032349,0.82,-0.81,1.5,1.89
14.750291109085083,0.4,-0.6,1.43,1.6
14.764579057693481,0.49,-0.16,0.66,0.83
14.794593095779419,0.97,0.4,-0.65,1.23
14.795875072479248,1.5,0.63,-1.27,2.06
14.796879053115845,1.89,0.49,-1.3,2.34
14.816123008728027,1.72,0.24,-0.76,1.89
14.817629098892212,1.07,-0.22,-0.03,1.09
14.832188844680786,0.18,-0.39,0.4,0.58
14.833697080612183,-0.61,-0.09,0.29,0.68
14.848749876022339,-0.7,0.27,0.12,0.75
14.85020399093628,-0.27,0.37,0.05,0.46
14.864626169204712,0.1,0.17,-0.05,0.2
14.892807006835938,0.17,0.07,-0.13,0.22
14.894193887710571,0.01,0.09,-0.1,0.13
14.89520001411438,-0.11,0.23,-0.01,0.25
14.915733098983765,-0.26,0.45,-0.04,0.52
14.916800022125244,-0.42,0.68,-0.15,0.81
14.932383060455322,-0.7,0.91,-0.48,1.24
14.933807134628296,-1.06,1.08,-0.7,1.66
14.949007987976074,-1.38,1.11,-0.6,1.86
14.950432062149048,-1.77,0.83,-0.45,2.0
14.96452784538269,-1.99,0.51,-0.37,2.08
14.966027975082397,-1.97,0.31,-0.3,2.01
15.01141095161438,-1.8,0.28,-0.65,1.93
15.012593030929565,-1.68,0.56,-0.99,2.02
15.013604879379272,-1.72,1.15,-1.43,2.51
15.032984018325806,-1.92,1.39,-1.65,2.88
15.034505128860474,-2.02,1.31,-1.26,2.71
15.049004077911377,-2.16,1.18,-1.25,2.76
15.050503015518188,-2.38,1.13,-1.37,2.96
15.065698862075806,-2.45,1.16,-1.54,3.11
15.067149877548218,-2.3,1.23,-1.95,3.25
15.080885171890259,-1.95,1.58,-2.15,3.3
15.108597993850708,-1.76,1.96,-2.18,3.41
15.110552072525024,-1.94,2.21,-2.37,3.77
15.111670017242432,-2.49,2.5,-2.35,4.23
15.11373496055603,-3.39,2.88,-2.37,5.04
15.115226030349731,-4.31,3.3,-2.39,5.93
15.116565942764282,-4.93,3.64,-2.4,6.58
15.122175931930542,-5.45,4.04,-2.3,7.16
15.132739067077637,-6.15,5.15,-2.37,8.36
15.14248013496399,-7.55,6.94,-3.69,10.89
15.152654886245728,-9.05,8.71,-4.89,13.47
15.182737112045288,-10.01,10.05,-5.49,15.2
15.184031963348389,-10.14,10.56,-6.78,16.13
15.185074090957642,-9.58,9.89,-8.26,16.05
15.197955846786499,-8.85,10.07,-9.52,16.44
15.201786041259766,-7.92,12.66,-8.51,17.18
15.213255167007446,-6.09,15.76,-4.85,17.57
15.222527027130127,-3.53,15.1,-0.89,15.53
15.231858968734741,-2.52,10.47,-0.52,10.78
15.241950035095215,-3.64,4.92,-3.46,7.03
15.251523971557617,-4.75,1.41,-4.21,6.5
15.282127141952515,-3.35,-1.33,-3.84,5.26
15.283450841903687,2.01,0.0,-2.27,3.03
15.284422159194946,6.25,0.98,1.52,6.5
15.299880027770996,4.18,-3.68,1.67,5.81
15.300915002822876,0.17,-4.52,-1.44,4.74
15.31587290763855,-3.97,-2.47,-3.05,5.58
15.321271181106567,-7.19,-2.49,-2.09,7.89
15.33251690864563,-8.63,-3.66,-0.23,9.37
15.341068983078003,-7.8,-4.6,1.67,9.2
15.35123610496521,-5.55,-4.86,2.74,7.86
15.388203859329224,-3.47,-5.38,2.81,6.99
15.389579057693481,-2.09,-6.09,2.02,6.74
15.39061188697815,-1.53,-6.15,0.92,6.4
15.396283864974976,-1.57,-6.09,-0.05,6.28
15.400214910507202,-1.92,-6.37,-0.82,6.7
15.415807962417603,-2.36,-6.43,-1.45,7.0
15.420328855514526,-2.54,-6.21,-2.07,7.02
15.432435989379883,-2.21,-5.98,-2.62,6.89
15.44028902053833,-1.8,-5.78,-2.84,6.68
15.45004916191101,-1.49,-5.88,-2.66,6.62
15.487205982208252,-1.33,-6.23,-2.13,6.71
15.488533020019531,-1.16,-6.71,-1.45,6.96
15.489542007446289,-0.86,-7.23,-1.19,7.37
15.499250173568726,-0.42,-7.75,-1.06,7.83
15.500334024429321,-0.27,-8.0,-0.43,8.01
15.515707969665527,-0.54,-7.87,-0.06,7.88
15.519566059112549,-0.63,-7.3,-0.57,7.34
15.53355598449707,0.03,-6.29,-0.94,6.35
15.539764165878296,1.44,-5.58,-0.07,5.76
15.549207925796509,2.69,-5.19,1.24,5.97
15.586863994598389,3.2,-4.53,2.17,5.95
15.58816409111023,3.33,-3.22,2.92,5.47
15.58923888206482,3.82,-1.54,3.28,5.26
15.59960389137268,4.85,0.15,3.53,6.0
15.60061001777649,5.83,1.46,4.17,7.31
15.615553140640259,6.25,2.53,4.15,7.91
15.618824005126953,6.9,4.12,3.97,8.96
15.632170915603638,8.4,6.22,4.96,11.56
15.638659000396729,10.24,8.21,6.1,14.47
15.64852786064148,11.87,9.69,6.45,16.62
15.686882972717285,12.68,9.97,6.25,17.29
15.688274145126343,12.1,8.69,6.02,16.06
15.689304113388062,10.77,7.28,6.26,14.42
15.699635982513428,9.43,6.1,7.22,13.35
15.700700998306274,8.82,7.84,6.62,13.53
15.716130018234253,4.44,4.57,-0.09,6.37
15.717972993850708,-9.12,-2.14,-12.66,15.74
15.732773065567017,-24.78,7.94,-23.27,34.9
15.738005876541138,-19.99,35.64,-11.86,42.54
15.748435020446777,-10.97,40.43,14.62,44.36
15.757827997207642,1.48,7.44,9.5,12.15
15.789411067962646,6.66,-12.95,0.46,14.56
15.790601015090942,10.52,-13.14,5.29,17.64
15.792005062103271,11.66,-5.92,8.96,15.85
15.79711103439331,8.65,-3.82,4.46,10.45
15.807296991348267,5.6,-2.21,0.62,6.05
15.817561864852905,3.07,1.01,0.58,3.28
15.827347993850708,1.87,1.87,0.1,2.64
15.83716607093811,1.45,1.05,-1.55,2.36
15.846987962722778,1.32,0.95,-2.7,3.15
15.856984853744507,1.86,1.46,-1.85,3.0
15.888597965240479,2.72,0.62,0.05,2.79
15.889981031417847,2.82,-0.93,1.76,3.45
15.891061067581177,1.88,-1.34,2.25,3.22
15.898659944534302,0.61,-1.06,1.82,2.19
15.906399011611938,0.06,-0.68,1.32,1.48
15.916359186172485,0.45,-0.54,1.06,1.27
15.926533937454224,0.92,-0.45,0.7,1.24
15.936748027801514,1.03,-0.15,0.2,1.05
15.946521997451782,1.07,0.24,-0.15,1.1
15.956420183181763,1.12,0.42,-0.35,1.24
15.988885164260864,1.15,0.35,-0.39,1.26
15.990192174911499,1.05,0.25,-0.36,1.13
15.991291999816895,0.7,0.17,-0.43,0.83
15.996512174606323,0.16,0.08,-0.51,0.54
16.015856981277466,-0.32,0.0,-0.21,0.38
16.016911029815674,-0.83,0.01,0.05,0.83
16.032597064971924,-1.0,0.07,0.15,1.01
16.035806894302368,-0.78,0.06,0.24,0.81
16.048035860061646,-0.56,0.16,0.1,0.59
16.055512189865112,-0.44,0.34,-0.18,0.58
16.08937907218933,-0.43,0.4,-0.34,0.67
16.090587854385376,-0.7,0.59,-0.48,1.03
16.091822862625122,-0.85,0.72,-0.51,1.22
16.097527027130127,-0.64,0.56,-0.32,0.9
16.104987859725952,-0.63,0.46,-0.33,0.84
16.115767002105713,-0.96,0.31,-0.71,1.23
16.12508201599121,-1.29,0.23,-0.97,1.63
16.13507604598999,-1.42,0.35,-1.01,1.77
16.145015954971313,-1.49,0.47,-1.12,1.92
16.154958963394165,-1.47,0.61,-1.01,1.88
16.192601919174194,-1.38,0.7,-0.98,1.83
16.19401717185974,-1.36,0.81,-1.25,2.01
16.195021867752075,-1.62,0.9,-1.5,2.38
16.197144985198975,-1.83,1.04,-1.47,2.56
16.204344034194946,-1.74,1.34,-1.34,2.57
16.21422505378723,-1.78,1.46,-1.66,2.83
16.224395990371704,-2.25,1.5,-1.6,3.14
16.234524965286255,-2.94,1.82,-1.19,3.65
16.244338035583496,-3.3,2.26,-0.91,4.1
16.25421905517578,-3.28,2.64,-0.88,4.3
16.290827989578247,-3.21,2.79,-1.14,4.4
16.292212963104248,-3.27,2.92,-1.59,4.66
16.29322099685669,-3.57,3.25,-2.3,5.34
16.295375108718872,-4.14,3.83,-3.07,6.42
16.315920114517212,-4.73,4.77,-3.22,7.44
16.316960096359253,-5.48,5.93,-3.44,8.77
16.333114862442017,-6.67,8.07,-3.95,11.19
16.33457589149475,-8.88,11.6,-5.06,15.46
16.348559141159058,-10.96,13.37,-6.4,18.43
16.35334086418152,-11.14,12.53,-6.8,18.09
16.388844966888428,-10.33,11.45,-7.77,17.26
16.39002799987793,-9.53,10.73,-9.49,17.2
16.39122200012207,-8.63,10.7,-10.39,17.23
16.396869897842407,-6.63,12.37,-6.93,15.65
16.402639150619507,-3.8,13.44,-2.14,14.12
16.41252899169922,-1.96,11.39,0.46,11.56
16.42269492149353,-2.47,5.34,-0.88,5.94
16.432932138442993,-2.59,0.19,-1.7,3.1
16.442643880844116,-1.81,-2.92,-3.89,5.18
16.452744960784912,1.54,-0.94,-4.54,4.88
16.486500024795532,4.96,1.32,-0.26,5.13
16.487951040267944,2.44,-3.5,0.71,4.32
16.488963842391968,-1.75,-5.14,-1.24,5.56
16.499812841415405,-5.46,-3.24,-2.4,6.78
16.501792192459106,-8.21,-3.02,-1.59,8.89
16.516972064971924,-9.09,-4.37,-0.3,10.09
16.52164602279663,-7.84,-5.55,1.22,9.68
16.531852960586548,-5.65,-6.36,2.19,8.78
16.541892051696777,-3.92,-7.41,2.56,8.76
16.55176305770874,-3.0,-8.05,1.89,8.79
16.561856031417847,-2.68,-7.62,0.54,8.09
16.592671155929565,-2.74,-6.75,-0.65,7.31
16.593825101852417,-2.77,-6.33,-1.33,7.03
16.594781160354614,-2.73,-6.04,-1.7,6.84
16.601057052612305,-2.73,-5.83,-2.17,6.79
16.611357927322388,-3.01,-5.22,-2.57,6.55
16.621219873428345,-3.09,-4.96,-2.97,6.55
16.631323099136353,-2.71,-5.18,-2.95,6.54
16.641244173049927,-2.07,-5.54,-2.62,6.46
16.651211977005005,-1.33,-6.06,-2.29,6.61
16.66106605529785,-0.72,-6.81,-1.93,7.11
16.69220805168152,-0.3,-7.57,-1.39,7.7
16.693345069885254,-0.13,-7.96,-0.77,7.99
16.694540977478027,-0.13,-7.92,0.07,7.92
16.700434923171997,-0.27,-7.25,0.81,7.3
16.710422039031982,0.03,-5.84,0.44,5.85
16.720537900924683,1.66,-4.35,0.18,4.65
16.730686902999878,3.75,-3.48,1.13,5.23
16.740535974502563,4.79,-2.55,2.19,5.85
16.75036311149597,5.06,-1.04,2.48,5.73
16.76009702682495,6.1,1.14,2.54,6.7
16.79086995124817,7.88,3.34,3.1,9.1
16.79205584526062,9.48,5.06,4.28,11.56
16.793319940567017,10.51,6.39,5.32,13.4
16.79967713356018,11.08,7.53,5.71,14.56
16.816431045532227,11.75,8.37,5.81,15.55
16.819352865219116,12.56,8.21,5.8,16.08
16.833436965942383,13.11,8.18,5.7,16.47
16.83958601951599,13.35,8.43,5.16,16.61
16.849454164505005,13.48,7.62,4.43,16.1
16.85943102836609,12.86,6.73,3.9,15.02
16.891002893447876,7.72,7.04,1.98,10.63
16.892228841781616,-3.97,0.91,-7.35,8.4
16.893465995788574,-21.23,2.85,-19.03,28.65
16.898945093154907,-24.83,25.17,-16.22,38.89
16.91624093055725,-16.73,41.97,12.74,46.94
16.918681859970093,-4.99,16.35,16.74,23.92
16.93337893486023,6.16,-6.5,2.29,9.24
16.938956022262573,11.6,-9.37,1.45,14.98
16.948848009109497,13.92,-9.38,7.46,18.36
16.958822011947632,12.29,-7.03,7.67,16.1
16.996437072753906,7.51,-3.31,2.86,8.69
16.997655153274536,3.29,-1.75,0.47,3.75
16.998657941818237,0.37,0.53,-0.56,0.85
17.017048120498657,-1.16,1.85,-2.04,2.98
17.018527030944824,0.09,2.06,-1.27,2.42
17.03303599357605,2.5,1.45,0.27,2.9
17.034488916397095,3.45,0.28,-0.16,3.46
17.049774885177612,2.66,-0.85,0.02,2.79
17.051229000091553,1.5,-1.22,0.04,1.93
17.06543803215027,0.75,-0.98,0.11,1.23
17.09586501121521,0.05,-0.62,1.17,1.32
17.09726309776306,-0.57,-0.13,1.25,1.37
17.09826898574829,-0.25,0.21,0.47,0.57
17.116698026657104,0.62,0.33,-0.47,0.84
17.11768102645874,1.39,0.33,-1.1,1.8
17.133105993270874,1.68,0.28,-1.18,2.07
17.134580850601196,1.27,0.12,-0.67,1.44
17.149926900863647,0.59,0.05,-0.04,0.59
17.15141201019287,0.14,-0.24,0.63,0.68
17.16541600227356,-0.31,-0.57,0.77,1.0
17.193902015686035,-0.41,-0.47,0.69,0.93
17.195284128189087,-0.1,-0.11,0.95,0.96
17.196306943893433,0.3,0.1,1.11,1.15
17.21704602241516,0.56,0.04,0.42,0.7
17.218066930770874,0.6,-0.02,-0.37,0.7
17.233368158340454,0.37,0.03,-0.64,0.73
17.23483109474182,0.13,0.14,-0.27,0.33
17.24998116493225,-0.1,0.23,0.07,0.26
17.25141406059265,-0.12,0.21,0.35,0.42
17.265097856521606,-0.07,0.26,0.27,0.38
17.292646169662476,-0.29,0.37,0.05,0.47
17.29404306411743,-0.74,0.49,-0.12,0.89
17.295050859451294,-0.99,0.65,-0.23,1.2
17.297178030014038,-1.16,0.65,-0.47,1.41
17.305980920791626,-1.39,0.7,-0.57,1.65
17.316017866134644,-1.83,0.83,-0.81,2.16
17.32589101791382,-2.17,1.06,-1.07,2.64
17.336129903793335,-2.38,1.12,-1.38,2.97
17.346057176589966,-2.4,1.1,-1.8,3.19
17.355931043624878,-2.36,0.93,-2.08,3.28
17.36578607559204,-2.29,0.77,-2.29,3.32
17.39726185798645,-2.3,0.94,-2.31,3.39
17.398442029953003,-2.18,1.68,-1.86,3.32
17.3994460105896,-1.86,2.33,-2.12,3.65
17.416879892349243,-1.6,3.12,-1.9,3.98
17.41794514656067,-1.94,3.43,-1.82,4.34
17.43332600593567,-2.77,3.47,-1.42,4.66
17.434941053390503,-3.74,3.43,-1.03,5.17
17.45001196861267,-4.29,3.51,-1.22,5.67
17.454943895339966,-4.42,3.8,-1.55,6.03
17.46545386314392,-4.53,4.14,-2.03,6.46
17.495650053024292,-4.77,4.31,-2.68,6.96
17.49706196784973,-5.15,4.78,-2.65,7.5
17.498061895370483,-6.0,6.0,-2.51,8.84
17.517882108688354,-7.92,8.33,-3.41,11.98
17.51935601234436,-10.36,10.4,-5.66,15.73
17.5334050655365,-10.58,10.42,-6.87,16.36
17.534889936447144,-9.28,9.22,-7.69,15.17
17.55025887489319,-8.76,8.75,-9.62,15.67
17.554172039031982,-8.19,10.01,-10.52,16.67
17.564085006713867,-6.54,13.26,-6.89,16.31
17.59770107269287,-4.47,14.96,-2.92,15.88
17.598992109298706,-2.46,12.39,-0.46,12.64
17.599977016448975,-2.54,6.37,-1.4,6.99
17.616936922073364,-2.67,1.31,-3.2,4.36
17.61797595024109,-2.61,-2.24,-3.63,5.0
17.63342308998108,0.01,-2.68,-4.16,4.94
17.634902000427246,4.89,0.04,-1.27,5.05
17.650431871414185,4.03,-3.2,0.48,5.16
17.65344500541687,-0.1,-5.4,-1.59,5.63
17.66584086418152,-3.93,-3.17,-3.09,5.91
17.696035146713257,-7.15,-2.12,-2.58,7.89
17.69744610786438,-8.81,-2.73,-1.04,9.28
17.69845986366272,-8.31,-3.65,1.11,9.14
17.71741795539856,-6.24,-4.28,2.63,8.01
17.718909978866577,-4.17,-5.23,3.05,7.35
17.73325800895691,-2.82,-5.93,2.76,7.12
17.73474097251892,-2.25,-6.01,1.83,6.67
17.75024914741516,-2.31,-5.67,0.6,6.15
17.752652883529663,-2.66,-5.44,-0.41,6.06
17.7657790184021,-2.69,-5.43,-1.31,6.19
17.799975156784058,-2.65,-5.2,-1.89,6.13
17.801352977752686,-2.26,-5.2,-2.61,6.24
17.802322149276733,-1.73,-5.4,-3.37,6.59
17.817357063293457,-1.44,-5.61,-3.16,6.59
17.818685054779053,-1.47,-5.7,-2.82,6.52
17.83305597305298,-1.25,-5.94,-2.37,6.51
17.834530115127563,-0.99,-6.73,-1.29,6.92
17.850282907485962,-1.36,-7.19,-0.07,7.31
17.85188889503479,-2.13,-7.01,-0.08,7.32
17.86600089073181,-1.89,-6.37,-1.5,6.81
17.905071020126343,-0.3,-6.25,-1.39,6.4
17.90647602081299,0.62,-6.23,1.17,6.36
17.907478094100952,0.48,-6.4,2.73,6.97
17.91600799560547,0.54,-5.8,3.41,6.74
17.917062997817993,0.97,-4.35,4.43,6.28
17.93331503868103,1.92,-2.95,5.04,6.14
17.9343740940094,3.45,-1.69,4.89,6.21
17.950319051742554,4.94,-0.41,4.12,6.44
17.951786994934082,6.27,1.07,3.14,7.09
17.96588706970215,8.03,2.9,2.97,9.03
18.001322984695435,10.38,4.63,3.48,11.88
18.00262713432312,12.65,6.04,4.09,14.6
18.00362515449524,14.32,7.31,4.3,16.64
18.017359972000122,15.21,8.31,4.01,17.78
18.018429040908813,15.34,9.0,3.75,18.17
18.03327202796936,15.13,8.64,4.65,18.03
18.03430700302124,14.34,7.63,5.81,17.25
18.05043387413025,10.33,9.43,4.15,14.58
18.051923036575317,0.83,4.33,-4.75,6.48
18.065920114517212,-16.83,7.75,-16.11,24.55
18.097562074661255,-20.2,34.1,-14.38,42.16
18.098958015441895,-14.55,48.45,5.06,50.84
18.100011110305786,-8.03,13.58,10.62,19.01
18.117496967315674,1.24,-15.41,1.68,15.55
18.118579149246216,8.18,-15.51,2.24,17.67
18.133322954177856,13.11,-10.32,10.02,19.46
18.134392976760864,11.83,-6.65,9.66,16.65
18.150259017944336,4.7,-1.3,0.16,4.87
18.151726007461548,1.69,2.41,-1.86,3.48
18.166062116622925,1.1,1.67,-2.41,3.13
18.16950798034668,1.78,-0.22,-2.73,3.26
18.210490942001343,3.22,0.31,-0.09,3.23
18.21161699295044,2.7,1.65,1.31,3.42
18.212570905685425,1.71,1.0,1.23,2.33
18.234029054641724,1.63,-0.55,1.36,2.19
18.235088109970093,1.83,-1.28,0.86,2.39
18.249953985214233,1.37,-1.29,1.2,2.23
18.251317024230957,0.66,-1.03,1.44,1.88
18.26724886894226,0.86,-0.71,1.16,1.6
18.268718004226685,1.48,-0.36,0.6,1.63
18.282631158828735,1.64,-0.09,0.16,1.65
18.313647985458374,1.48,0.0,0.02,1.48
18.315023183822632,1.22,0.11,-0.07,1.22
18.316025018692017,0.88,0.14,0.02,0.89
18.334167003631592,0.5,0.05,0.33,0.6
18.335220098495483,0.15,0.06,0.29,0.33
18.35008215904236,0.08,0.04,0.35,0.36
18.351094961166382,0.05,0.01,0.43,0.43
18.367516040802002,0.0,-0.08,0.22,0.23
18.36891484260559,0.12,-0.16,0.0,0.2
18.38278317451477,0.3,-0.12,-0.37,0.49
18.41148018836975,0.24,0.0,-0.51,0.56
18.41295886039734,0.07,0.13,-0.34,0.37
18.413971185684204,-0.17,0.16,-0.02,0.23
18.43404984474182,-0.38,0.21,0.2,0.47
18.435107946395874,-0.46,0.32,0.39,0.68
18.449849843978882,-0.6,0.48,0.21,0.79
18.450841188430786,-0.66,0.7,0.07,0.96
18.467324018478394,-0.8,0.74,-0.23,1.11
18.468777894973755,-0.93,0.62,-0.59,1.26
18.48362398147583,-1.11,0.43,-0.97,1.53
18.512637853622437,-1.24,0.31,-1.07,1.66
18.513975858688354,-1.25,0.38,-1.02,1.65
18.514976024627686,-1.1,0.75,-0.95,1.63
18.533971071243286,-1.13,1.03,-1.15,1.91
18.534991979599,-1.35,1.1,-1.42,2.24
18.54892897605896,-1.57,0.96,-1.43,2.33
18.549973011016846,-1.83,0.8,-1.68,2.6
18.567277193069458,-2.15,0.81,-2.01,3.05
18.568761110305786,-2.26,1.36,-1.61,3.09
18.582633018493652,-2.27,1.89,-1.91,3.51
18.61071801185608,-2.32,2.51,-2.49,4.22
18.612061023712158,-2.42,3.05,-2.29,4.51
18.61303997039795,-2.58,3.4,-1.65,4.57
18.634225130081177,-2.83,3.66,-1.6,4.89
18.635271072387695,-3.26,3.8,-1.93,5.36
18.65023398399353,-3.8,3.89,-2.0,5.79
18.651236057281494,-4.47,4.32,-2.0,6.53
18.667224168777466,-5.32,5.08,-2.4,7.73
18.668676137924194,-6.24,6.28,-2.85,9.3
18.682870149612427,-7.29,8.23,-3.21,11.45
18.710954904556274,-8.91,10.17,-4.64,14.29
18.712270975112915,-10.49,11.15,-6.69,16.7
18.713270902633667,-10.64,11.02,-7.47,17.04
18.734511137008667,-9.8,10.32,-7.74,16.2
18.735545873641968,-8.93,9.86,-8.86,15.98
18.750148057937622,-8.37,9.89,-10.47,16.65
18.751206159591675,-7.44,11.75,-8.17,16.12
18.767645120620728,-5.26,13.89,-3.05,15.16
18.76908302307129,-2.76,13.14,0.44,13.43
18.782701015472412,-2.74,6.8,-1.31,7.44
18.812129020690918,-2.62,1.56,-3.11,4.35
18.813426971435547,-2.2,-1.8,-3.84,4.77
18.814494848251343,1.08,0.23,-3.53,3.69
18.83407711982727,4.72,2.58,0.42,5.39
18.835134983062744,2.15,-3.1,0.89,3.87
18.85065197944641,-1.38,-4.7,-1.71,5.18
18.852128982543945,-4.57,-2.64,-3.1,6.12
18.867321014404297,-7.07,-2.32,-2.67,7.9
18.868776082992554,-7.79,-3.44,-1.19,8.59
18.882703065872192,-6.72,-4.39,0.62,8.05
18.914826154708862,-4.8,-5.34,1.68,7.37
18.91617202758789,-3.15,-6.45,1.91,7.42
18.91718602180481,-2.19,-7.22,1.45,7.68
18.93447709083557,-1.88,-7.35,0.55,7.6
18.935518980026245,-2.06,-6.84,-0.2,7.14
18.949055910110474,-2.34,-6.57,-0.69,7.0
18.950434923171997,-2.53,-6.54,-1.22,7.11
18.96753716468811,-2.7,-6.22,-1.73,6.99
18.969043016433716,-2.76,-6.08,-2.15,7.01
18.982638120651245,-2.84,-5.98,-2.46,7.06
18.984086990356445,-2.78,-6.41,-2.65,7.47
19.030144929885864,-3.18,-6.09,-2.76,7.4
19.031306982040405,-3.05,-6.35,-2.57,7.49
19.032334089279175,-2.6,-7.31,-1.7,7.94
19.05133605003357,-2.29,-7.78,-0.96,8.16
19.05236005783081,-2.1,-8.11,-0.36,8.38
19.067278146743774,-2.17,-8.27,0.15,8.55
19.06876015663147,-2.48,-7.83,0.51,8.22
19.08376717567444,-2.34,-6.84,0.15,7.23
19.085222959518433,-1.4,-5.91,-0.17,6.07
19.099791049957275,-0.08,-5.25,0.75,5.3
19.13219714164734,1.3,-4.1,2.28,4.86
19.133517026901245,2.97,-2.51,3.76,5.4
19.134526014328003,4.59,-1.14,4.6,6.59
19.151021003723145,5.6,0.28,4.36,7.1
19.152029037475586,6.43,2.44,3.9,7.9
19.16745901107788,7.99,5.19,4.36,10.47
19.168951988220215,10.27,7.38,5.28,13.7
19.18410086631775,12.45,7.93,5.64,15.8
19.18559193611145,13.54,7.79,5.09,16.42
19.19983410835266,13.6,8.52,4.39,16.63
19.23004984855652,13.7,9.57,3.46,17.06
19.231455087661743,14.12,9.34,2.77,17.15
19.232467889785767,14.87,8.36,3.4,17.39
19.250809907913208,12.69,10.84,3.46,17.04
19.251829862594604,5.02,6.86,-2.59,8.88
19.266046047210693,-10.82,0.77,-13.73,17.49
19.267107009887695,-21.68,14.45,-19.06,32.28
19.284178018569946,-16.39,39.83,-0.34,43.07
19.285671949386597,-11.69,31.78,17.36,38.05
19.29996609687805,-0.61,-2.73,6.69,7.25
19.329975843429565,8.39,-10.51,2.33,13.64
19.331335067749023,13.03,-7.3,7.49,16.7
19.33235001564026,13.23,-7.87,8.77,17.71
19.351070165634155,10.56,-5.09,3.35,12.19
19.35211491584778,5.66,-0.15,-1.36,5.82
19.367472887039185,2.46,1.57,-1.55,3.3
19.368473052978516,0.95,1.57,-2.16,2.83
19.384252071380615,1.22,1.28,-2.0,2.66
19.385688066482544,2.62,0.76,0.38,2.75
19.399676084518433,2.85,0.03,1.59,3.26
19.427159070968628,1.91,-0.67,1.45,2.48
19.428487062454224,0.65,-0.73,1.25,1.58
19.42952799797058,-0.01,-0.36,0.93,0.99
19.432077169418335,-0.05,-0.04,0.77,0.77
19.433450937271118,-0.04,-0.27,0.8,0.84
19.434788942337036,0.33,-0.43,0.47,0.71
19.43948006629944,0.81,-0.27,-0.22,0.88
19.449661016464233,1.29,-0.02,-0.73,1.48
19.459712982177734,1.52,0.1,-0.81,1.72
19.46981692314148,1.14,0.2,-0.71,1.35
19.5055148601532,0.49,0.27,-0.73,0.91
19.506595849990845,-0.11,0.21,-0.29,0.37
19.50741219520569,-0.8,0.14,0.3,0.86
19.51427388191223,-1.44,0.11,0.69,1.6
19.519026041030884,-1.6,0.12,0.73,1.76
19.5333468914032,-1.26,0.2,0.19,1.28
19.53927493095398,-0.59,0.24,-0.61,0.88
19.550482988357544,0.0,0.15,-0.85,0.86
19.558940172195435,-0.04,0.15,-0.62,0.63
19.56905698776245,-0.54,0.33,-0.38,0.73
19.60528802871704,-0.79,0.43,-0.31,0.95
19.60667896270752,-0.78,0.53,-0.06,0.94
19.607743978500366,-0.73,0.6,0.07,0.94
19.61802887916565,-0.69,0.54,0.14,0.88
19.619039058685303,-0.6,0.41,-0.26,0.77
19.633980989456177,-0.35,0.12,-0.55,0.66
19.63811993598938,-0.28,-0.05,-0.59,0.65
19.648258924484253,-0.43,0.11,-0.61,0.75
19.65838313102722,-0.65,0.51,-0.73,1.1
19.66860795021057,-1.03,0.82,-0.94,1.61
19.705962896347046,-1.53,1.03,-1.07,2.13
19.707622051239014,-2.06,1.05,-1.04,2.53
19.70874810218811,-2.26,0.97,-0.97,2.64
19.718085050582886,-2.22,0.97,-1.0,2.62
19.719035863876343,-2.06,1.42,-0.96,2.67
19.73396396636963,-1.81,1.84,-1.29,2.88
19.737372159957886,-1.69,2.54,-1.46,3.38
19.750078916549683,-1.9,2.73,-1.19,3.53
19.75750708580017,-2.34,2.67,-1.0,3.68
19.767498016357422,-2.92,2.76,-1.31,4.22
19.777333974838257,-3.22,2.98,-1.53,4.64
19.81003499031067,-3.26,3.22,-1.75,4.9
19.811198949813843,-3.56,3.57,-2.08,5.45
19.8124258518219,-4.24,4.32,-2.22,6.44
19.81692099571228,-5.44,5.55,-2.49,8.16
19.827022075653076,-7.33,7.25,-3.25,10.8
19.836943864822388,-9.33,9.21,-3.83,13.65
19.846806049346924,-10.62,10.56,-4.35,15.59
19.856990098953247,-10.94,10.81,-5.49,16.33
19.867486000061035,-10.76,10.86,-6.9,16.77
19.87664818763733,-10.72,11.16,-8.46,17.63
19.90968918800354,-10.23,11.53,-8.66,17.68
19.910902976989746,-8.44,13.28,-5.45,16.65
19.91217803955078,-5.5,13.89,-1.92,15.06
19.916166067123413,-3.17,11.14,0.05,11.58
19.926192045211792,-2.34,6.28,-0.78,6.74
19.936137914657593,-1.07,1.34,-2.22,2.8
19.946108102798462,-0.12,-2.45,-4.03,4.71
19.95584797859192,1.28,-2.0,-5.79,6.25
19.966152906417847,4.91,1.87,-1.96,5.6
19.97610902786255,4.08,-1.16,0.92,4.34
20.007061004638672,-0.07,-4.29,-1.85,4.67
20.00835108757019,-3.73,-2.97,-3.96,6.19
20.00939917564392,-6.97,-1.72,-3.36,7.92
20.015323877334595,-8.8,-2.69,-1.6,9.34
20.025475025177002,-8.57,-4.22,0.19,9.55
20.03522300720215,-6.75,-5.2,1.35,8.62
20.045591115951538,-4.81,-6.32,1.73,8.12
20.05514407157898,-3.56,-7.29,1.86,8.32
20.065469980239868,-3.2,-7.28,1.43,8.07
20.07521891593933,-3.25,-6.54,0.33,7.31
20.10804295539856,-3.48,-5.81,-0.57,6.79
20.109377145767212,-3.61,-5.79,-1.35,6.95
20.110363006591797,-3.51,-5.74,-1.99,7.01
20.1149320602417,-3.17,-5.4,-2.45,6.72
20.134514093399048,-2.64,-5.41,-3.12,6.78
20.1355140209198,-2.24,-5.56,-3.2,6.79
20.1515691280365,-2.11,-5.72,-3.27,6.91
20.15462303161621,-1.98,-6.25,-3.02,7.21
20.16712784767151,-1.39,-7.23,-2.81,7.88
20.174691915512085,-0.79,-7.77,-2.83,8.3
20.211036920547485,-0.45,-8.38,-2.76,8.83
20.212178945541382,-0.42,-8.71,-2.22,8.99
20.213116884231567,-0.57,-8.55,-1.56,8.7
20.21576714515686,-0.76,-7.7,-1.45,7.87
20.224043130874634,-0.2,-6.54,-1.52,6.71
20.23364496231079,1.13,-5.94,-0.43,6.06
20.243590116500854,2.22,-5.24,1.45,5.87
20.25368905067444,2.96,-3.81,2.97,5.66
20.263768911361694,3.78,-1.81,3.8,5.65
20.27354097366333,4.64,0.32,4.17,6.24
20.31119418144226,5.67,2.73,4.21,7.57
20.31255793571472,7.35,5.46,4.68,10.28
20.313565015792847,9.35,7.94,5.34,13.37
20.31570792198181,11.34,10.44,5.61,16.4
20.323056936264038,13.09,12.59,5.47,18.96
20.334022998809814,14.21,13.02,5.14,19.94
20.343491077423096,14.77,11.41,5.2,19.37
20.352678060531616,15.0,8.89,5.81,18.37
20.363353967666626,14.49,7.3,7.15,17.73
20.373006105422974,10.72,8.87,6.77,15.47
20.40954613685608,4.3,3.61,0.46,5.63
20.410863161087036,-7.21,-2.79,-10.48,13.02
20.41184115409851,-17.06,5.79,-21.01,27.67
20.41421103477478,-17.66,33.72,-11.46,39.75
20.43154501914978,-18.0,41.49,18.03,48.68
20.432626962661743,-4.2,9.13,16.0,18.89
20.452054023742676,6.68,-6.47,5.26,10.68
20.453099966049194,9.09,-8.84,2.21,12.87
20.467326879501343,11.62,-10.69,4.8,16.5
20.472092866897583,11.3,-7.8,4.39,14.41
20.510852098464966,7.98,-1.75,-0.9,8.21
20.512001037597656,4.07,0.32,-2.76,4.92
20.512962102890015,1.27,0.34,-1.73,2.17
20.515280961990356,1.11,0.71,-0.03,1.31
20.52196502685547,1.89,1.55,1.43,2.83
20.53157687187195,1.4,1.14,0.47,1.86
20.541549921035767,0.98,-0.06,0.81,1.27
20.551358938217163,1.13,-0.58,0.77,1.48
20.56114888191223,1.08,-0.59,0.31,1.26
20.5715069770813,0.65,-0.44,0.58,0.97
20.581735849380493,0.29,-0.4,1.17,1.27
20.612065076828003,0.29,-0.35,0.83,0.94
20.613160848617554,0.8,-0.12,-0.21,0.83
20.614115953445435,1.44,0.11,-0.73,1.61
20.631070852279663,1.58,0.22,-0.7,1.74
20.63205599784851,0.95,0.09,-0.32,1.0
20.65059494972229,0.17,0.0,0.2,0.26
20.651663064956665,-0.43,0.09,0.47,0.64
20.668583154678345,-0.75,0.23,0.52,0.94
20.670621156692505,-0.93,0.22,0.35,1.01
20.683501958847046,-0.75,0.27,0.14,0.8
20.714371919631958,-0.42,0.25,-0.15,0.51
20.715662002563477,-0.28,0.22,-0.36,0.5
20.716749906539917,-0.34,0.21,-0.45,0.6
20.734878063201904,-0.42,0.14,-0.37,0.57
20.735946893692017,-0.64,0.24,-0.27,0.73
20.74001407623291,-1.0,0.47,-0.17,1.11
20.749873876571655,-1.09,0.54,-0.05,1.21
20.75994896888733,-0.74,0.44,-0.02,0.86
20.770260095596313,-0.35,0.29,-0.15,0.47
20.78004503250122,-0.19,0.1,-0.5,0.54
20.81233286857605,-0.08,-0.02,-0.58,0.58
20.81370997428894,-0.13,0.08,-0.55,0.57
20.814747095108032,-0.39,0.46,-0.52,0.79
20.835219144821167,-0.87,0.88,-0.51,1.33
20.83626914024353,-1.46,1.06,-0.7,1.93
20.851140022277832,-1.95,1.14,-0.99,2.46
20.852205991744995,-2.36,1.12,-0.93,2.77
20.868408918380737,-2.63,1.13,-0.88,2.99
20.869898080825806,-2.55,1.39,-1.24,3.15
20.883996963500977,-2.42,2.19,-1.57,3.62
20.912184953689575,-2.32,2.55,-1.45,3.73
20.913615942001343,-2.24,2.71,-1.4,3.78
20.914628982543945,-2.37,2.74,-1.69,3.99
20.93526816368103,-2.67,2.87,-1.94,4.37
20.936307191848755,-3.03,3.07,-2.04,4.77
20.951107025146484,-3.38,3.31,-2.31,5.26
20.952152967453003,-3.63,3.67,-2.39,5.68
20.968549966812134,-4.03,4.26,-2.52,6.38
20.970036029815674,-4.95,5.39,-3.11,7.95
20.983787059783936,-6.44,6.7,-3.48,9.92
21.01669406890869,-8.16,8.14,-3.22,11.96
21.018063068389893,-9.65,9.37,-3.63,13.93
21.019083976745605,-10.44,10.17,-4.88,15.37
21.03506112098694,-10.57,10.64,-6.51,16.34
21.036123037338257,-10.34,10.87,-7.9,16.95
21.04906702041626,-10.18,11.2,-9.15,17.68
21.05008292198181,-9.43,12.95,-7.21,17.56
21.065521001815796,-7.15,15.31,-2.08,17.02
21.067646980285645,-3.95,13.81,2.19,14.52
21.083819150924683,-3.03,7.87,0.59,8.45
21.115195989608765,-2.34,2.08,-2.78,4.18
21.116502046585083,-1.51,-2.02,-4.24,4.93
21.11749815940857,-0.74,-2.21,-4.92,5.44
21.1351580619812,4.07,2.45,-0.71,4.8
21.13627004623413,5.56,-0.76,3.3,6.51
21.151469945907593,1.85,-5.54,-0.2,5.84
21.152503967285156,-2.1,-4.36,-3.68,6.07
21.16845393180847,-5.66,-2.65,-3.51,7.16
21.169913053512573,-7.96,-3.21,-1.92,8.79
21.183876991271973,-8.16,-4.88,-0.09,9.5
21.215008974075317,-6.6,-6.04,0.88,8.98
21.216460943222046,-4.48,-6.81,1.35,8.26
21.21743893623352,-3.11,-7.09,1.25,7.84
21.235496044158936,-2.57,-6.93,0.72,7.42
21.236525058746338,-2.62,-6.39,0.12,6.9
21.251914024353027,-3.27,-5.93,-0.57,6.79
21.25342106819153,-4.04,-5.78,-1.22,7.15
21.268619060516357,-4.44,-5.74,-1.58,7.42
21.270076990127563,-4.31,-5.65,-1.83,7.33
21.28376793861389,-3.77,-5.59,-2.07,7.05
21.31336498260498,-3.31,-5.64,-2.15,6.88
21.31481385231018,-2.97,-5.92,-2.15,6.96
21.315741062164307,-2.63,-6.53,-2.1,7.34
21.33568787574768,-2.69,-6.64,-2.03,7.44
21.336715936660767,-2.47,-7.21,-1.84,7.84
21.35165810585022,-2.25,-7.86,-1.58,8.32
21.35269284248352,-2.22,-8.09,-0.91,8.43
21.36892604827881,-2.35,-7.85,-0.23,8.19
21.370408058166504,-2.45,-6.87,0.04,7.29
21.38409399986267,-1.66,-5.68,-0.47,5.93
21.385585069656372,0.22,-4.77,-0.49,4.8
21.42974019050598,2.45,-4.01,0.37,4.71
21.43089985847473,4.16,-2.84,1.48,5.24
21.431890964508057,5.51,-0.86,2.36,6.05
21.452791929244995,6.96,1.48,2.67,7.6
21.453840017318726,8.58,3.8,3.15,9.89
21.468281030654907,10.1,5.87,3.85,12.29
21.46975588798523,11.34,7.51,4.55,14.34
21.48525309562683,12.2,8.46,4.75,15.58
21.486711025238037,12.77,8.83,4.27,16.1
21.500890016555786,12.91,9.28,3.28,16.23
21.531519174575806,13.17,9.82,2.87,16.67
21.532799005508423,14.22,8.74,3.03,16.96
21.533849954605103,15.0,6.78,2.92,16.71
21.55231213569641,12.69,8.48,3.21,15.59
21.553356885910034,6.02,6.39,0.2,8.78
21.56808590888977,-5.32,-0.24,-8.94,10.4
21.569140195846558,-13.98,7.72,-15.19,22.04
21.582526922225952,-15.06,32.95,-6.26,36.76
21.58402419090271,-14.65,41.45,13.89,46.1
21.600828886032104,-7.68,6.14,9.09,13.39
21.630022048950195,1.64,-10.43,1.39,10.64
21.631465196609497,9.6,-8.22,4.23,13.32
21.632531881332397,13.41,-9.05,8.49,18.27
21.652026891708374,13.48,-7.91,5.15,16.45
21.653053045272827,9.21,-1.94,-0.52,9.42
21.66839289665222,3.01,1.56,-1.11,3.56
21.669389963150024,-0.55,1.23,-0.89,1.61
21.685147047042847,-0.71,0.75,-1.29,1.65
21.686658143997192,1.26,0.97,1.14,1.95
21.700884103775024,2.08,0.58,1.56,2.66
21.731290102005005,1.63,-0.32,0.4,1.7
21.732617139816284,1.57,-0.8,0.03,1.76
21.733626127243042,2.11,-0.84,-0.2,2.27
21.75211787223816,1.96,-0.86,0.59,2.22
21.75317096710205,1.07,-0.8,1.07,1.71
21.768319845199585,0.5,-0.45,0.74,1.0
21.76935601234436,0.53,0.05,0.27,0.59
21.785969972610474,0.79,0.31,-0.29,0.89
21.787446975708008,0.94,0.32,-0.57,1.14
21.800889015197754,0.88,0.27,-0.42,1.01
21.829082012176514,0.55,0.15,-0.34,0.66
21.830416917800903,0.11,0.11,-0.18,0.23
21.831444025039673,-0.33,0.24,-0.07,0.41
21.852125883102417,-0.67,0.35,-0.34,0.82
21.853180170059204,-0.74,0.29,-0.55,0.96
21.867444038391113,-0.41,0.09,-0.49,0.64
21.86846399307251,0.01,-0.13,-0.5,0.51
21.88492202758789,0.31,-0.29,-0.57,0.71
21.885918855667114,0.31,-0.38,-0.17,0.51
21.900973081588745,-0.09,-0.19,0.31,0.37
21.928683042526245,-0.42,0.14,0.57,0.72
21.930052995681763,-0.34,0.6,0.57,0.89
21.931046962738037,-0.3,0.73,0.21,0.81
21.952512979507446,-0.32,0.75,-0.03,0.81
21.953423023223877,-0.59,0.7,-0.18,0.93
21.968022108078003,-0.89,0.63,-0.13,1.09
21.969012022018433,-1.04,0.48,-0.07,1.14
21.98383903503418,-1.06,0.32,-0.09,1.11
21.985246896743774,-0.99,0.37,-0.32,1.1
22.00110101699829,-0.84,0.6,-0.7,1.24
22.03030300140381,-0.81,0.76,-0.84,1.39
22.03171396255493,-0.89,0.95,-0.69,1.47
22.03271794319153,-1.01,0.98,-0.66,1.55
22.052313089370728,-1.18,0.99,-0.56,1.63
22.053359031677246,-1.2,1.07,-0.2,1.62
22.068502187728882,-1.62,1.08,-0.49,2.0
22.06953501701355,-1.89,1.54,-0.88,2.59
22.08537793159485,-1.88,1.66,-0.8,2.63
22.086771965026855,-1.99,1.57,-0.66,2.61
22.10085415840149,-2.19,1.65,-0.76,2.84
22.128010988235474,-2.3,1.85,-0.93,3.09
22.129390954971313,-2.48,2.01,-1.13,3.38
22.13036298751831,-2.63,2.33,-1.33,3.75
22.132637977600098,-2.68,2.5,-1.58,3.99
22.134042024612427,-2.79,2.69,-2.03,4.37
22.139307022094727,-3.1,3.05,-2.29,4.91
22.149399042129517,-3.69,3.37,-2.34,5.51
22.159265995025635,-4.62,3.95,-2.28,6.49
22.169235944747925,-5.86,5.31,-2.3,8.23
22.17894196510315,-7.19,7.1,-2.37,10.37
22.189417123794556,-8.63,9.19,-2.93,12.94
22.219971895217896,-10.2,10.85,-5.03,15.71
22.2210750579834,-10.53,11.13,-6.54,16.65
22.221899032592773,-10.05,10.44,-6.79,16.0
22.236111879348755,-9.91,10.53,-7.13,16.12
22.238505125045776,-9.94,12.24,-6.49,17.05
22.251867055892944,-8.99,15.09,-4.04,18.02
22.258310079574585,-6.39,14.85,-1.45,16.23
22.268323183059692,-3.9,11.31,-0.2,11.96
22.278537034988403,-1.96,6.65,-1.28,7.05
22.28867506980896,-0.3,1.65,-3.62,3.98
22.32031512260437,0.67,-2.42,-6.14,6.63
22.321582078933716,1.87,-0.84,-6.49,6.8
22.322415113449097,5.25,2.71,-0.19,5.91
22.336119890213013,3.48,-1.79,2.0,4.39
22.33772587776184,-1.43,-3.85,-2.24,4.67
22.351781129837036,-5.23,-1.38,-3.97,6.7
22.357529878616333,-8.28,-0.56,-2.87,8.78
22.367861032485962,-9.73,-1.95,-1.13,9.98
22.377957105636597,-9.14,-3.5,0.9,9.82
22.38761591911316,-7.25,-5.01,2.3,9.1
22.418065071105957,-5.67,-6.29,2.65,8.87
22.419403076171875,-4.71,-7.16,2.74,8.99
22.420408010482788,-4.28,-7.29,2.28,8.75
22.436662912368774,-4.41,-6.62,1.18,8.04
22.437729120254517,-4.77,-5.91,0.06,7.59
22.45194411277771,-4.96,-5.56,-0.89,7.5
22.456935167312622,-4.66,-5.36,-1.58,7.27
22.469141960144043,-3.99,-5.24,-2.39,7.0
22.476974964141846,-3.2,-5.06,-3.03,6.71
22.48683500289917,-2.6,-4.9,-3.05,6.33
22.518314123153687,-2.15,-5.2,-2.67,6.22
22.519677877426147,-1.68,-5.84,-2.56,6.59
22.520736932754517,-1.18,-6.56,-2.68,7.18
22.536383867263794,-0.86,-7.23,-2.74,7.77
22.537454843521118,-0.71,-7.78,-2.27,8.13
22.55197501182556,-0.77,-8.07,-1.15,8.18
22.55613398551941,-1.09,-7.9,-0.23,7.97
22.5693461894989,-1.21,-7.15,-0.29,7.25
22.57641100883484,-0.59,-6.23,0.12,6.25
22.58644986152649,0.46,-5.46,1.96,5.81
22.624468088150024,1.21,-4.31,4.05,6.03
22.625916004180908,1.88,-2.63,5.11,6.04
22.62693500518799,3.1,-0.4,5.23,6.09
22.63598895072937,4.72,1.93,5.24,7.31
22.637046098709106,6.63,4.05,5.42,9.47
22.65207314491272,8.9,6.06,5.69,12.17
22.655394077301025,11.22,8.15,5.83,15.04
22.66920018196106,13.09,10.09,5.36,17.37
22.675801992416382,13.98,11.15,4.04,18.33
22.685497999191284,14.68,10.36,2.98,18.21
22.723597049713135,15.71,8.4,2.84,18.03
22.72502589225769,16.52,6.01,3.58,17.94
22.726057052612305,14.99,8.16,4.51,17.65
22.73482584953308,9.01,7.26,0.15,11.57
22.73589015007019,-1.85,-0.02,-9.17,9.35
22.752192974090576,-9.28,7.97,-14.11,18.67
22.754657983779907,-10.85,34.28,-4.4,36.22
22.768830060958862,-10.35,40.5,5.87,42.21
22.774376153945923,-8.03,7.13,3.9,11.42
22.78468918800354,0.18,-10.22,7.41,12.62
22.821173906326294,7.38,-6.27,6.15,11.47
22.82259488105774,10.91,-6.57,5.5,13.87
22.823601007461548,12.05,-7.62,1.24,14.31
22.836157083511353,9.85,-3.05,-2.0,10.5
22.837198972702026,5.28,0.92,-2.03,5.73
22.852195978164673,1.15,0.68,-1.2,1.79
22.853775024414062,-0.51,0.48,-0.4,0.8
22.868772983551025,0.35,1.5,2.03,2.54
22.873725175857544,1.16,1.03,2.19,2.68
22.88447403907776,1.12,-0.24,0.78,1.38
22.922672986984253,1.35,-0.72,0.27,1.55
22.923968076705933,1.67,-0.94,0.39,1.95
22.924999952316284,1.4,-1.03,1.04,2.02
22.935986042022705,0.76,-0.86,1.13,1.61
22.937054872512817,0.49,-0.35,0.6,0.85
22.952342987060547,0.52,0.17,-0.1,0.55
22.95337200164795,0.65,0.44,-0.8,1.12
22.969006061553955,0.94,0.39,-0.93,1.37
22.972910165786743,1.21,0.18,-0.59,1.35
22.9847571849823,0.95,-0.04,-0.23,0.97
22.993299961090088,0.32,-0.16,0.35,0.5
23.02792191505432,-0.39,-0.04,0.57,0.69
23.029133081436157,-1.02,0.1,0.32,1.07
23.03032898902893,-1.12,0.17,0.55,1.25
23.03267216682434,-0.77,0.17,0.57,0.97
23.042656183242798,-0.27,0.11,-0.19,0.34
23.05264902114868,0.07,0.12,-0.79,0.8
23.062363862991333,0.05,0.2,-0.86,0.88
23.07253384590149,-0.43,0.29,-0.68,0.85
23.082474946975708,-0.94,0.44,-0.17,1.05
23.092594861984253,-0.97,0.72,-0.05,1.2
23.125043153762817,-0.85,0.82,-0.3,1.21
23.12618398666382,-0.81,0.71,-0.36,1.13
23.12702202796936,-0.8,0.45,-0.44,1.01
23.13517117500305,-0.79,0.15,-0.69,1.05
23.141789197921753,-0.61,0.0,-0.9,1.08
23.15171504020691,-0.24,-0.03,-0.76,0.79
23.16196608543396,-0.01,0.15,-0.67,0.68
23.17143702507019,-0.01,0.45,-0.77,0.89
23.18221116065979,-0.23,0.75,-0.67,1.03
23.19150185585022,-0.6,0.97,-0.47,1.23
23.215594053268433,-1.11,1.01,-0.48,1.57
23.21684193611145,-1.34,1.15,-0.29,1.78
23.221431016921997,-1.48,1.08,-0.31,1.85
23.233309984207153,-1.73,1.31,0.19,2.17
23.241142988204956,-1.68,1.49,0.14,2.24
23.252711057662964,-1.58,1.59,-0.52,2.3
23.26163101196289,-1.63,1.82,-0.56,2.5
23.271108865737915,-1.67,2.11,-0.77,2.79
23.281162977218628,-1.79,2.33,-1.25,3.19
23.29105305671692,-2.07,2.85,-1.4,3.79
23.325067043304443,-2.6,3.24,-1.63,4.46
23.326385021209717,-3.29,3.5,-1.9,5.16
23.327428102493286,-3.83,3.82,-2.09,5.79
23.334574937820435,-4.17,4.3,-2.44,6.46
23.340404987335205,-4.64,5.1,-2.67,7.39
23.352414846420288,-5.67,6.51,-2.74,9.05
23.360066175460815,-7.42,9.0,-2.79,11.99
23.370198011398315,-9.71,11.53,-4.08,15.61
23.380712032318115,-11.21,12.2,-6.3,17.72
23.390043020248413,-11.31,11.81,-7.43,17.96
23.430236101150513,-10.87,10.93,-7.67,17.21
23.431558847427368,-10.93,10.49,-8.21,17.23
23.43259596824646,-10.86,12.43,-6.56,17.76
23.453091859817505,-8.58,15.35,-3.11,17.85
23.45415997505188,-4.97,14.29,-1.34,15.18
23.469279050827026,-2.25,9.18,-1.31,9.54
23.470338106155396,0.12,3.67,-2.64,4.52
23.48633313179016,0.65,-0.83,-4.37,4.49
23.487823963165283,-1.02,-2.47,-5.73,6.32
23.50175905227661,2.9,2.03,-2.02,4.07
23.531169176101685,6.61,0.74,3.3,7.42
23.53252911567688,2.38,-4.16,-0.53,4.82
23.533550024032593,-2.61,-3.18,-3.75,5.56
23.55288004875183,-6.26,-1.58,-3.48,7.33
23.55391001701355,-8.72,-2.26,-2.39,9.31
23.569247007369995,-9.61,-3.71,-0.43,10.31
23.570307970046997,-8.77,-5.31,1.35,10.34
23.58628010749817,-6.65,-6.94,2.67,9.97
23.587785959243774,-5.22,-8.11,3.1,10.13
23.601736068725586,-5.37,-7.99,2.26,9.88
23.63169503211975,-6.23,-6.78,0.95,9.25
23.63290810585022,-6.81,-5.62,-0.04,8.82
23.63372492790222,-6.68,-5.1,-0.61,8.42
23.65282106399536,-5.56,-4.99,-0.95,7.53
23.653856992721558,-4.22,-4.7,-1.2,6.42
23.669233083724976,-2.98,-4.63,-1.7,5.76
23.670295000076294,-2.12,-4.64,-2.33,5.6
23.68606686592102,-1.88,-4.63,-2.54,5.6
23.687380075454712,-2.22,-4.65,-2.39,5.68
23.70174813270569,-2.67,-4.69,-2.32,5.87
23.73375916481018,-2.33,-4.83,-2.93,6.11
23.73508596420288,-1.13,-5.34,-2.7,6.08
23.73610496520996,-0.62,-6.02,-0.75,6.09
23.753234148025513,-1.12,-6.6,0.69,6.72
23.754297971725464,-1.25,-6.11,1.9,6.51
23.7691810131073,-0.5,-4.99,3.28,5.99
23.77021598815918,0.86,-4.39,4.6,6.41
23.785768032073975,2.12,-3.63,5.2,6.68
23.786803007125854,3.06,-2.13,5.04,6.26
23.80188298225403,4.11,-0.28,4.54,6.13
23.80336308479309,5.91,1.67,4.34,7.52
23.851160049438477,8.37,3.18,4.32,9.94
23.8523428440094,10.78,4.47,3.97,12.32
23.853384017944336,13.2,6.15,4.09,15.12
23.870126008987427,15.19,7.42,3.91,17.35
23.871176958084106,16.35,8.06,4.3,18.72
23.88580298423767,17.23,7.99,5.38,19.73
23.886831998825073,18.28,6.72,6.29,20.46
23.90315318107605,18.25,3.79,6.16,19.63
23.904651880264282,14.43,3.95,5.49,15.93
23.917708158493042,6.86,4.09,0.1,7.98
23.948972940444946,-3.32,-1.01,-10.17,10.74
23.950114965438843,-11.51,14.25,-17.8,25.54
23.950970888137817,-12.55,50.01,-2.53,51.62
23.970391035079956,-11.13,48.21,4.44,49.67
23.971494913101196,-7.14,2.38,-3.71,8.39
23.985617876052856,0.97,-17.38,7.07,18.78
23.98667597770691,6.63,-20.33,8.69,23.08
24.0031578540802,11.23,-14.7,9.04,20.58
24.004215002059937,12.66,-3.79,6.41,14.68
24.018325090408325,8.18,-1.48,-0.73,8.34
24.04834485054016,4.17,2.74,-2.77,5.7
24.04944396018982,1.39,4.75,-2.44,5.51
24.050267934799194,0.5,2.11,-2.95,3.66
24.07012104988098,1.28,0.97,-2.59,3.04
24.071128129959106,1.6,0.47,-1.57,2.29
24.08592915534973,1.93,-0.8,0.32,2.11
24.086912870407104,2.01,-1.42,1.85,3.07
24.103328943252563,1.12,-1.04,1.72,2.3
24.104364156723022,0.26,-0.34,1.02,1.1
24.11870503425598,0.48,-0.05,0.63,0.79
24.147737979888916,0.99,-0.16,0.67,1.2
24.14885902404785,0.88,-0.34,0.91,1.31
24.149662017822266,0.66,-0.32,1.11,1.33
24.170351028442383,0.77,-0.24,1.24,1.47
24.171422004699707,0.99,-0.2,1.15,1.53
24.185807943344116,0.93,-0.15,0.58,1.1
24.186847925186157,0.7,0.06,-0.12,0.71
24.203041076660156,0.56,0.3,-0.62,0.88
24.204092979431152,0.43,0.37,-0.6,0.82
24.218941926956177,0.21,0.22,-0.24,0.38
24.248852968215942,-0.18,0.04,0.0,0.18
24.249934911727905,-0.6,-0.01,-0.35,0.69
24.25075602531433,-0.85,0.14,-0.89,1.23
24.2701518535614,-0.74,0.4,-0.79,1.15
24.271238088607788,-0.72,0.6,-0.44,1.03
24.285820960998535,-0.87,0.59,-0.29,1.09
24.286855936050415,-0.7,0.54,-0.16,0.89
24.3030788898468,-0.29,0.58,-0.38,0.75
24.304152965545654,-0.03,0.52,-0.68,0.85
24.318691968917847,-0.1,0.41,-0.61,0.74
24.34903311729431,-0.32,0.48,-0.47,0.74
24.350015878677368,-0.66,0.54,-0.55,1.01
24.35085415840149,-0.86,0.58,-0.71,1.25
24.370117902755737,-0.85,0.55,-0.78,1.27
24.3711941242218,-0.68,0.5,-0.75,1.12
24.387067079544067,-0.62,0.63,-0.82,1.2
24.388068914413452,-0.73,0.79,-0.83,1.35
24.403409004211426,-1.16,0.83,-0.99,1.73
24.404876947402954,-1.86,0.88,-1.1,2.33
24.418637990951538,-2.43,1.01,-1.15,2.87
24.44974398612976,-2.51,1.05,-1.43,3.07
24.451070070266724,-2.21,1.37,-1.27,2.89
24.451875925064087,-2.08,2.02,-0.93,3.04
24.47051215171814,-2.35,2.62,-0.68,3.58
24.471553087234497,-2.85,3.12,-0.34,4.23
24.486159086227417,-3.45,3.25,-0.58,4.77
24.487215042114258,-3.76,3.59,-0.65,5.23
24.503042936325073,-3.73,3.8,-0.85,5.39
24.50408387184143,-3.35,3.94,-1.46,5.37
24.518818140029907,-3.21,3.95,-2.1,5.5
24.5480740070343,-3.63,4.08,-2.5,6.0
24.549247980117798,-4.56,4.76,-2.34,6.99
24.55008602142334,-5.86,6.76,-1.76,9.11
24.566500902175903,-7.58,9.79,-2.21,12.57
24.567599058151245,-9.51,11.95,-4.76,15.99
24.5862238407135,-10.72,12.1,-7.05,17.63
24.587285041809082,-10.63,11.26,-7.35,17.14
24.603039979934692,-10.23,10.46,-7.4,16.39
24.604224920272827,-10.87,10.52,-8.61,17.4
24.616425037384033,-10.97,13.07,-6.55,18.27
24.617908000946045,-8.29,16.76,-2.35,18.84
24.6639621257782,-4.18,15.53,-1.59,16.16
24.665101051330566,-1.22,7.98,-2.13,8.34
24.665886163711548,1.45,1.41,-1.66,2.61
24.68737506866455,0.73,-2.99,-4.48,5.43
24.68843388557434,-0.21,-1.08,-6.34,6.43
24.70282292366028,4.88,3.25,-0.2,5.86
24.703870058059692,5.32,-1.43,1.28,5.65
24.719756841659546,0.65,-3.67,-3.28,4.96
24.7208149433136,-2.61,-1.21,-4.49,5.33
24.735617876052856,-5.2,-0.25,-4.09,6.62
24.76609706878662,-6.93,-1.49,-2.6,7.55
24.767389059066772,-7.29,-3.15,-0.79,7.98
24.76839518547058,-5.85,-5.04,0.26,7.72
24.78675103187561,-3.88,-6.71,0.48,7.76
24.787792921066284,-2.96,-7.69,-0.1,8.24
24.80307412147522,-2.89,-8.05,-0.62,8.57
24.8041410446167,-3.41,-7.37,-0.86,8.16
24.819681882858276,-3.94,-6.71,-1.08,7.85
24.820679903030396,-4.11,-6.57,-1.55,7.9
24.835684061050415,-3.93,-6.47,-2.25,7.89
24.86432385444641,-3.72,-5.99,-2.75,7.56
24.86545205116272,-3.33,-5.59,-2.91,7.12
24.866244077682495,-2.78,-5.39,-3.1,6.81
24.886759996414185,-2.19,-5.19,-2.99,6.37
24.887758016586304,-1.77,-5.53,-3.06,6.56
24.90345597267151,-1.64,-6.13,-3.05,7.04
24.904485940933228,-1.7,-6.88,-2.99,7.69
24.92014718055725,-1.85,-7.55,-2.63,8.2
24.921584844589233,-2.05,-8.04,-1.88,8.5
24.93594717979431,-2.19,-7.9,-0.75,8.23
24.965151071548462,-2.08,-7.25,0.15,7.54
24.96623706817627,-1.39,-6.35,-0.33,6.5
24.967079877853394,0.01,-5.66,-0.83,5.72
24.986902952194214,1.72,-5.39,-0.03,5.65
24.98792815208435,3.14,-4.72,1.43,5.84
25.002875089645386,4.48,-3.6,2.57,6.29
25.003885984420776,6.25,-2.21,3.18,7.35
25.019954919815063,7.95,-0.6,3.49,8.7
25.020997047424316,9.12,1.22,4.13,10.08
25.03574800491333,10.09,3.15,5.78,12.04
25.063618898391724,10.7,4.58,7.37,13.77
25.064764976501465,11.05,5.62,8.11,14.81
25.06558108329773,11.35,6.84,7.76,15.35
25.086884021759033,11.76,8.72,7.86,16.61
25.087968111038208,12.32,10.25,7.72,17.78
25.103451013565063,12.81,10.23,7.79,18.15
25.104490995407104,13.95,7.58,8.95,18.22
25.119976043701172,14.1,6.28,8.12,17.44
25.12101912498474,6.75,2.46,-1.21,7.28
25.134939908981323,-3.97,-4.86,-13.78,15.14
25.163892030715942,-14.26,4.4,-31.78,35.1
25.165076971054077,-20.14,42.2,-8.93,47.6
25.16587996482849,-17.98,56.43,18.23,61.96
25.186958074569702,-10.47,14.08,4.42,18.09
25.188031911849976,1.62,-6.58,8.58,10.93
25.203450918197632,7.55,-9.36,8.32,14.62
25.204528093338013,9.41,-12.6,3.13,16.03
25.219897985458374,10.39,-11.49,0.05,15.49
25.220900058746338,10.46,-6.73,-0.25,12.44
25.235900163650513,9.15,-1.4,-0.99,9.3
25.26436686515808,6.18,1.57,-2.47,6.83
25.265488862991333,2.03,2.63,-2.53,4.17
25.266279935836792,-0.49,2.72,-0.93,2.91
25.286904096603394,-0.66,1.67,1.01,2.06
25.28794002532959,0.07,-0.06,2.41,2.41
25.30342197418213,0.3,-1.21,2.81,3.07
25.30446219444275,-0.03,-1.36,1.88,2.32
25.320070028305054,-0.09,-0.75,0.59,0.95
25.321086168289185,0.62,-0.28,-0.41,0.79
25.335556983947754,1.35,-0.36,-0.77,1.59
25.363724946975708,1.29,-0.37,-0.28,1.37
25.364938974380493,0.9,-0.24,-0.01,0.93
25.365723848342896,0.71,-0.09,-0.36,0.8
25.387655019760132,0.67,0.05,-0.83,1.06
25.388705015182495,0.53,0.15,-1.1,1.23
25.403507947921753,0.13,0.22,-0.87,0.9
25.404531002044678,-0.21,0.3,-0.18,0.4
25.420510053634644,-0.58,0.29,0.32,0.72
25.422014951705933,-0.94,0.22,0.46,1.06
25.43568205833435,-1.02,0.08,0.15,1.03
25.43716311454773,-0.72,-0.03,-0.21,0.75
25.48322892189026,-0.36,0.0,-0.34,0.49
25.484387159347534,-0.3,0.14,-0.16,0.36
25.48534607887268,-0.51,0.36,-0.18,0.64
25.504049062728882,-0.66,0.44,-0.23,0.82
25.505112886428833,-0.47,0.5,0.02,0.68
25.51998996734619,-0.38,0.59,-0.04,0.7
25.52105689048767,-0.52,0.57,-0.28,0.82
25.536957025527954,-0.73,0.55,-0.51,1.04
25.538450002670288,-0.82,0.38,-0.39,0.98
25.552396059036255,-0.79,0.17,-0.02,0.8
25.582342863082886,-0.9,0.2,0.04,0.92
25.583654165267944,-0.99,0.41,-0.27,1.1
25.584633111953735,-0.83,0.57,-0.46,1.1
25.603780031204224,-0.64,0.66,-0.48,1.03
25.604862928390503,-0.58,0.63,-0.42,0.95
25.619392156600952,-0.54,0.59,-0.38,0.88
25.620455026626587,-0.75,0.71,-0.59,1.18
25.637147188186646,-1.24,0.84,-0.66,1.63
25.638592958450317,-1.75,0.9,-0.52,2.03
25.6513888835907,-1.91,1.06,-0.4,2.22
25.68213391304016,-1.76,1.12,-0.79,2.23
25.683451890945435,-1.8,1.61,-0.93,2.58
25.68427586555481,-1.81,2.18,-1.08,3.03
25.70402216911316,-2.09,2.61,-1.38,3.61
25.705087900161743,-2.35,2.98,-1.17,3.97
25.720582962036133,-2.63,3.05,-1.14,4.18
25.72161889076233,-2.81,3.19,-1.58,4.53
25.736754179000854,-3.04,3.6,-1.72,5.01
25.737818956375122,-3.71,4.16,-1.68,5.82
25.75078511238098,-4.8,5.01,-1.71,7.14
25.779428005218506,-6.07,6.85,-1.6,9.29
25.780804872512817,-7.72,9.45,-2.12,12.38
25.781682014465332,-10.05,12.21,-3.97,16.3
25.783868074417114,-11.61,13.63,-5.98,18.87
25.785078048706055,-12.17,13.17,-7.07,19.27
25.786410093307495,-12.34,11.85,-7.24,18.57
25.78761100769043,-12.42,12.38,-6.38,18.66
25.78881001472473,-11.72,14.79,-4.07,19.3
25.791638135910034,-8.22,16.98,-2.45,19.02
25.801605939865112,-3.82,15.46,-3.17,16.23
25.831202030181885,-0.4,9.78,-1.61,9.91
25.832043886184692,3.86,1.84,1.24,4.45
25.832717180252075,3.76,-3.76,-3.29,6.25
25.852792024612427,1.3,-1.4,-8.34,8.55
25.853602170944214,4.22,3.38,-2.1,5.8
25.869989156723022,3.9,-0.36,0.23,3.92
25.870893001556396,-1.11,-2.65,-3.97,4.9
25.886723041534424,-3.89,-0.75,-3.89,5.55
25.89101004600525,-5.65,-0.21,-3.02,6.4
25.90227198600769,-7.45,-1.69,-1.8,7.84
25.933995008468628,-7.99,-3.72,0.07,8.81
25.93507695198059,-7.03,-5.43,1.46,9.0
25.935889959335327,-5.16,-6.95,1.99,8.88
25.954131841659546,-3.9,-7.23,1.71,8.39
25.95501208305359,-3.6,-6.99,0.98,7.92
25.97009015083313,-3.76,-6.76,0.36,7.74
25.971158981323242,-4.12,-6.79,-0.25,7.94
25.986837148666382,-4.34,-6.77,-1.1,8.11
25.990243196487427,-4.14,-6.67,-2.03,8.1
26.00232195854187,-3.62,-6.64,-2.85,8.08
26.035106897354126,-3.21,-6.58,-3.18,7.98
26.03619694709778,-2.83,-7.14,-3.42,8.4
26.03702187538147,-2.61,-7.86,-3.53,9.0
26.05452299118042,-2.76,-7.78,-3.24,8.86
26.055583000183105,-3.06,-7.62,-3.11,8.78
26.070244073867798,-2.96,-8.45,-2.85,9.39
26.071310997009277,-2.68,-9.45,-2.42,10.11
26.087032079696655,-2.57,-10.14,-2.01,10.65
26.089428186416626,-2.5,-10.29,-1.63,10.71
26.102659940719604,-2.42,-10.19,-1.28,10.55
26.137866973876953,-2.53,-9.87,-0.46,10.19
26.1392719745636,-2.63,-9.24,0.06,9.6
26.140272855758667,-2.19,-8.09,-0.32,8.38
26.15433096885681,-0.89,-7.03,0.36,7.09
26.15539288520813,1.07,-5.69,2.45,6.28
26.169064044952393,3.09,-3.41,4.45,6.4
26.1700918674469,5.04,-0.89,5.38,7.42
26.18733501434326,6.62,1.6,5.18,8.55
26.188992977142334,7.92,4.7,4.72,10.34
26.20295214653015,9.49,8.17,4.61,13.34
26.208971977233887,11.59,10.95,4.9,16.68
26.24539804458618,13.52,12.8,4.4,19.13
26.246608018875122,15.1,14.5,3.84,21.28
26.24790096282959,16.69,15.36,3.39,22.93
26.25048804283142,17.81,14.83,3.07,23.37
26.27032208442688,16.86,16.19,1.89,23.45
26.271368980407715,11.06,8.09,-5.05,14.6
26.28696298599243,-0.21,-0.39,-12.21,12.21
26.287986040115356,-9.08,6.29,-11.86,16.2
26.302994966506958,-15.71,29.75,0.17,33.64
26.308577060699463,-18.98,34.77,1.29,39.63
26.343424081802368,-14.18,12.62,-1.24,19.02
26.344581842422485,1.34,-0.27,11.22,11.3
26.34582805633545,7.0,-7.45,9.42,13.9
26.35396099090576,8.47,-9.55,3.95,13.36
26.35749316215515,10.53,-9.81,2.07,14.53
26.370737075805664,10.83,-6.75,0.57,12.77
26.377346992492676,8.31,-2.29,-1.39,8.73
26.38715696334839,4.13,0.81,-2.84,5.07
26.39748215675354,0.67,2.5,-2.05,3.3
26.40729784965515,-0.49,2.39,-0.03,2.43
26.436907052993774,0.2,0.99,1.88,2.13
26.43821692466736,0.75,-0.36,2.47,2.6
26.439244031906128,0.41,-0.83,1.62,1.86
26.454654932022095,0.16,-0.48,0.66,0.83
26.45673704147339,0.49,-0.4,0.12,0.64
26.47049117088318,0.87,-0.63,0.2,1.09
26.47685408592224,0.96,-0.6,0.3,1.17
26.487335920333862,0.96,-0.29,-0.02,1.0
26.49697995185852,0.94,0.04,-0.18,0.95
26.5066180229187,0.9,0.2,-0.04,0.92
26.537608861923218,0.91,0.13,-0.1,0.92
26.53883194923401,0.86,-0.16,-0.33,0.93
26.53990912437439,0.65,-0.28,-0.19,0.73
26.5545871257782,0.3,-0.22,0.15,0.4
26.555901050567627,0.0,-0.16,0.51,0.53
26.570677995681763,-0.09,-0.08,0.83,0.83
26.57588219642639,-0.05,0.04,0.65,0.65
26.587056875228882,0.1,-0.01,-0.06,0.11
26.596158981323242,0.34,-0.09,-0.31,0.46
26.60602903366089,0.4,-0.12,-0.11,0.43
26.643935918807983,0.2,-0.06,0.08,0.22
26.645437002182007,-0.18,0.14,0.1,0.24
26.64646315574646,-0.47,0.48,-0.05,0.67
26.65129590034485,-0.65,0.71,-0.24,0.99
26.67065119743347,-0.86,0.84,-0.45,1.28
26.67170000076294,-1.11,0.79,-0.77,1.56
26.687268018722534,-1.45,0.57,-1.1,1.9
26.688738107681274,-1.85,0.38,-1.14,2.2
26.70306396484375,-2.03,0.36,-1.17,2.37
26.704957962036133,-1.96,0.56,-1.48,2.51
26.74882698059082,-1.65,0.85,-1.85,2.62
26.749972105026245,-1.19,0.9,-1.81,2.34
26.750941038131714,-0.91,0.85,-1.46,1.91
26.770627975463867,-0.93,1.0,-1.23,1.83
26.771825075149536,-1.29,1.16,-1.02,2.01
26.7848379611969,-1.7,1.21,-0.47,2.13
26.786262035369873,-1.66,1.18,-0.36,2.06
26.804556131362915,-1.69,1.2,-0.81,2.22
26.806002855300903,-1.97,1.69,-1.08,2.81
26.819708108901978,-2.19,2.17,-1.43,3.39
26.850051164627075,-2.14,2.85,-1.25,3.77
26.851376056671143,-2.11,3.26,-1.32,4.1
26.852385997772217,-2.12,3.56,-1.26,4.33
26.8715660572052,-2.43,3.78,-1.47,4.72
26.87309193611145,-3.05,4.02,-1.79,5.35
26.887557983398438,-3.76,4.34,-1.97,6.07
26.889045000076294,-4.7,5.25,-2.01,7.32
26.904454946517944,-5.7,7.48,-1.8,9.57
26.9059419631958,-6.78,10.65,-2.31,12.83
26.91950488090515,-8.28,13.55,-4.07,16.39
26.948307037353516,-9.76,14.1,-6.81,18.45
26.949744939804077,-9.7,12.55,-8.52,18.0
26.950780153274536,-8.89,10.77,-8.42,16.3
26.971328020095825,-8.6,10.16,-8.74,15.92
26.972431898117065,-9.17,11.24,-8.37,16.74
26.98742413520813,-7.62,14.79,-4.68,17.28
26.988951921463013,-3.84,17.01,-1.85,17.53
27.00418496131897,-0.73,12.48,-2.01,12.66
27.005674123764038,1.01,2.84,-1.93,3.57
27.019913911819458,-0.76,-2.48,-3.48,4.34
27.021427869796753,-0.49,-0.28,-3.95,3.99
27.068755865097046,4.15,2.38,1.41,4.98
27.06993317604065,2.54,-2.58,0.74,3.69
27.07095217704773,-2.66,-3.69,-2.93,5.41
27.088129997253418,-5.34,-1.07,-2.52,6.0
27.08919095993042,-7.51,-0.41,-2.4,7.89
27.104387998580933,-8.76,-1.64,-1.04,8.97
27.105858087539673,-8.06,-3.54,0.99,8.85
27.12113118171692,-5.78,-5.07,1.51,7.83
27.122601985931396,-3.75,-6.31,1.28,7.45
27.136647939682007,-3.11,-7.01,0.72,7.7
27.165455102920532,-3.57,-6.91,0.48,7.79
27.166857957839966,-4.16,-6.62,0.01,7.81
27.167877912521362,-4.71,-6.27,-0.57,7.86
27.18764305114746,-5.13,-6.07,-1.01,8.01
27.188696146011353,-5.12,-5.98,-1.43,8.0
27.204418897628784,-4.64,-5.95,-1.84,7.76
27.205888986587524,-4.15,-6.01,-2.1,7.59
27.22121500968933,-3.9,-6.09,-2.07,7.52
27.222633123397827,-3.78,-6.28,-1.97,7.58
27.23701786994934,-3.69,-6.51,-1.89,7.71
27.265061140060425,-3.51,-6.9,-1.82,7.95
27.266515016555786,-3.33,-7.38,-1.67,8.26
27.267513036727905,-3.25,-7.87,-1.39,8.62
27.287847995758057,-3.27,-8.33,-1.2,9.02
27.288886070251465,-3.34,-8.56,-0.86,9.22
27.304598093032837,-3.42,-8.03,-0.03,8.72
27.306037187576294,-3.18,-6.89,-0.12,7.58
27.321074962615967,-1.94,-6.02,-0.46,6.34
27.322525024414062,0.08,-5.73,0.48,5.75
27.337745904922485,1.81,-4.8,2.2,5.58
27.36717700958252,3.66,-3.26,4.03,6.34
27.36854100227356,6.16,-1.78,5.09,8.18
27.36954402923584,8.49,-0.22,5.6,10.17
27.38802218437195,10.02,1.94,6.18,11.93
27.389073133468628,10.85,4.09,6.32,13.2
27.404831171035767,11.61,6.09,6.48,14.62
27.406407117843628,12.94,7.97,6.78,16.64
27.420686960220337,14.2,9.51,6.52,18.29
27.422178030014038,15.01,11.42,6.6,19.98
27.43691611289978,16.65,12.23,7.88,22.11
27.46539306640625,18.53,9.05,8.82,22.42
27.46685290336609,18.93,5.34,7.54,21.06
27.467956066131592,9.72,0.63,-2.83,10.14
27.48473596572876,-3.49,-3.07,-18.08,18.66
27.485811948776245,-15.71,15.54,-35.37,41.7
27.504639863967896,-22.89,62.38,1.84,66.47
27.505706071853638,-19.79,50.98,7.61,55.21
27.521290063858032,-9.75,6.74,-0.74,11.87
27.522780179977417,2.34,-14.65,10.28,18.04
27.53686213493347,7.22,-19.82,11.61,24.07
27.564239025115967,10.44,-19.87,5.69,23.15
27.565654039382935,11.45,-13.68,1.22,17.88
27.566689014434814,10.42,-3.72,1.14,11.12
27.56884002685547,7.35,2.1,-0.7,7.67
27.570252180099487,2.95,3.21,-3.14,5.37
27.571624994277954,0.27,3.85,-2.31,4.49
27.578168153762817,0.17,3.58,0.97,3.71
27.588531017303467,0.64,0.95,3.03,3.23
27.598034143447876,0.48,-1.2,2.4,2.72
27.608304977416992,0.36,-2.0,0.59,2.11
27.64406704902649,1.12,-1.45,-0.44,1.88
27.645334005355835,1.78,-0.5,-0.35,1.88
27.646133184432983,1.6,-0.32,0.14,1.63
27.650738954544067,1.16,-0.45,0.41,1.31
27.670438051223755,0.89,-0.31,0.39,1.01
27.67146897315979,0.68,0.0,0.16,0.69
27.687416076660156,0.54,0.15,0.01,0.56
27.688419103622437,0.29,0.25,0.0,0.38
27.7032310962677,-0.18,0.5,0.01,0.53
27.707653999328613,-0.71,0.6,-0.04,0.93
27.744250059127808,-0.95,0.46,0.17,1.06
27.74540901184082,-0.76,0.14,0.32,0.83
27.746780157089233,-0.4,-0.1,0.11,0.42
27.753204107284546,-0.02,-0.16,-0.38,0.41
27.75701117515564,0.33,-0.22,-0.41,0.57
27.77123498916626,0.21,-0.14,-0.16,0.29
27.77702784538269,-0.32,0.18,0.04,0.36
27.78752899169922,-0.63,0.45,0.09,0.77
27.797073125839233,-0.59,0.56,0.0,0.81
27.806838989257812,-0.65,0.68,-0.18,0.95
27.817134141921997,-0.98,0.81,-0.41,1.33
27.84689998626709,-1.24,0.87,-0.57,1.61
27.848057985305786,-1.17,0.84,-0.66,1.58
27.849289178848267,-0.92,0.61,-0.77,1.34
27.856494188308716,-0.72,0.38,-0.9,1.21
27.86646604537964,-0.67,0.34,-0.85,1.13
27.87624502182007,-0.78,0.54,-0.84,1.26
27.886352062225342,-0.99,0.75,-0.96,1.56
27.89596199989319,-1.01,0.97,-0.89,1.65
27.90626311302185,-0.92,1.11,-0.73,1.61
27.916162967681885,-1.02,1.17,-0.27,1.57
27.945401906967163,-1.18,1.23,-0.1,1.7
27.94660496711731,-1.39,0.99,-0.57,1.79
27.947875022888184,-1.59,1.19,-0.75,2.12
27.95542311668396,-1.69,1.55,-0.95,2.48
27.971131086349487,-1.74,1.62,-1.05,2.59
27.975210905075073,-1.92,1.95,-1.09,2.94
27.986881017684937,-2.22,2.35,-1.2,3.44
27.995596170425415,-2.37,2.71,-1.23,3.8
28.005183935165405,-2.49,2.85,-1.48,4.06
28.015147924423218,-2.65,2.99,-1.85,4.4
28.046047925949097,-2.92,3.2,-2.0,4.77
28.047266006469727,-3.24,3.65,-1.92,5.24
28.048511028289795,-3.72,4.24,-1.9,5.95
28.054550886154175,-4.61,5.12,-1.78,7.11
28.071470022201538,-6.13,7.18,-1.76,9.6
28.074464082717896,-8.36,10.05,-2.42,13.29
28.087548971176147,-10.3,12.59,-3.56,16.65
28.095367193222046,-11.35,13.42,-5.45,18.4
28.104684114456177,-11.29,12.82,-6.9,18.42
28.114691972732544,-11.32,11.98,-8.41,18.5
28.145501852035522,-11.4,12.65,-8.25,18.92
28.146723985671997,-9.69,15.4,-5.3,18.95
28.148069143295288,-5.67,17.3,-3.51,18.54
28.154119968414307,-2.23,15.53,-3.98,16.18
28.171541929244995,-0.66,9.33,-4.57,10.41
28.17368507385254,1.34,2.1,-3.02,3.91
28.187090158462524,-0.04,-2.11,-3.81,4.35
28.19389796257019,1.22,0.95,-4.33,4.59
28.203806161880493,6.24,3.63,1.8,7.44
28.213899850845337,5.66,-0.15,1.09,5.76
28.252020120620728,0.05,-1.12,-4.69,4.82
28.253172159194946,-3.59,0.55,-4.36,5.67
28.25416898727417,-5.81,0.46,-3.39,6.74
28.272224187850952,-7.87,-0.93,-2.13,8.2
28.273491144180298,-8.88,-3.06,-0.21,9.39
28.287585020065308,-8.21,-5.47,1.35,9.95
28.28906798362732,-5.68,-7.8,1.65,9.78
28.30483603477478,-3.2,-8.73,1.12,9.36
28.30629301071167,-2.62,-7.99,0.29,8.41
28.321133852005005,-3.05,-6.84,-0.67,7.51
28.35243797302246,-3.72,-6.3,-1.77,7.52
28.35377287864685,-4.32,-6.04,-2.47,7.82
28.35479497909546,-4.25,-6.11,-3.21,8.1
28.372594118118286,-3.76,-6.16,-3.63,8.07
28.374099016189575,-3.23,-6.27,-3.75,7.98
28.38813805580139,-3.02,-6.55,-3.75,8.12
28.389564037322998,-3.19,-7.0,-3.7,8.53
28.404917001724243,-3.48,-7.51,-3.57,9.01
28.40638303756714,-3.49,-7.89,-3.29,9.23
28.42026996612549,-3.18,-8.48,-2.82,9.48
28.449676036834717,-2.82,-9.16,-2.52,9.91
28.451020002365112,-2.55,-9.44,-2.41,10.07
28.45202088356018,-2.22,-9.09,-1.91,9.55
28.471812963485718,-1.75,-8.27,-1.67,8.61
28.472848176956177,-0.78,-7.48,-2.34,7.87
28.487380027770996,0.77,-7.07,-2.58,7.56
28.48886799812317,2.14,-6.86,-1.35,7.31
28.505099058151245,2.97,-6.07,0.49,6.77
28.506591081619263,3.58,-4.56,1.84,6.08
28.52031111717224,4.49,-2.4,2.52,5.68
28.5486581325531,6.01,-0.02,3.6,7.0
28.550060033798218,8.1,1.83,5.12,9.75
28.55104088783264,10.44,3.2,6.39,12.65
28.57205104827881,12.62,4.56,7.86,15.55
28.573134183883667,14.61,6.1,9.18,18.3
28.58841586112976,15.85,7.7,9.28,19.91
28.589853048324585,16.01,10.19,8.3,20.71
28.604446172714233,15.76,13.06,8.51,22.16
28.605988025665283,16.23,13.31,10.25,23.35
28.620280027389526,16.4,11.48,7.72,21.45
28.62175488471985,8.95,4.34,-5.42,11.32
28.66505789756775,-3.17,-1.46,-19.42,19.73
28.6661479473114,-15.16,14.31,-29.72,36.3
28.667284965515137,-23.55,56.98,5.12,61.86
28.66892409324646,-21.38,49.02,8.43,54.13
28.670400857925415,-12.46,7.04,2.06,14.45
28.680243015289307,0.98,-12.69,12.12,17.57
28.69000792503357,8.03,-15.51,11.37,20.84
28.70013689994812,10.36,-16.61,3.91,19.96
28.710119009017944,11.0,-13.85,-1.26,17.73
28.720015048980713,11.32,-6.7,-0.34,13.15
28.75025701522827,10.25,-0.26,-0.02,10.25
28.751466989517212,6.21,2.37,-3.49,7.5
28.75248098373413,1.55,3.66,-3.66,5.4
28.77188515663147,0.09,4.34,1.18,4.49
28.772953033447266,0.1,1.62,3.99,4.3
28.787930965423584,0.56,-1.5,3.84,4.16
28.788976907730103,0.57,-2.36,2.13,3.22
28.805171966552734,0.6,-1.65,0.62,1.86
28.809200048446655,0.56,-0.51,0.36,0.83
28.820574045181274,0.49,0.09,0.29,0.57
28.851016998291016,0.71,0.12,-0.28,0.77
28.852439165115356,0.98,0.06,-0.69,1.2
28.853435039520264,1.15,0.04,-0.67,1.33
28.8721821308136,1.37,0.02,-0.55,1.47
28.873246908187866,1.27,0.0,-0.76,1.48
28.888141870498657,0.58,0.14,-0.91,1.08
28.889196157455444,-0.14,0.15,-0.45,0.49
28.90554404258728,-0.68,0.07,0.56,0.88
28.90840792655945,-1.07,0.07,1.37,1.73
28.92026686668396,-1.13,0.15,1.17,1.63
28.949331045150757,-0.88,0.1,0.05,0.88
28.950833082199097,-0.14,0.03,-0.72,0.73
28.951841115951538,0.55,-0.03,-0.81,0.97
28.958038091659546,0.54,0.03,-0.54,0.76
28.96798014640808,0.02,0.2,-0.2,0.28
28.97805094718933,-0.56,0.46,0.0,0.72
28.987884044647217,-0.94,0.78,-0.08,1.22
28.998122930526733,-1.11,0.97,-0.48,1.55
29.007900953292847,-1.16,1.0,-0.67,1.67
29.017871141433716,-1.18,0.88,-0.67,1.61
29.054421186447144,-1.29,0.62,-0.82,1.64
29.05561900138855,-1.52,0.55,-1.07,1.93
29.056626081466675,-1.62,0.69,-1.31,2.19
29.072654962539673,-1.48,1.02,-1.3,2.21
29.073721170425415,-1.35,1.35,-1.23,2.27
29.08791708946228,-1.5,1.48,-1.13,2.39
29.088947057724,-1.76,1.51,-0.76,2.44
29.105450868606567,-1.97,1.45,-0.39,2.47
29.106942892074585,-2.24,1.38,-0.51,2.67
29.11976408958435,-2.24,1.71,-0.59,2.87
29.154049158096313,-2.26,2.0,-0.8,3.12
29.155532121658325,-2.14,2.44,-0.7,3.32
29.15653395652771,-2.15,2.64,-0.79,3.49
29.172526121139526,-2.23,2.85,-1.0,3.75
29.173598051071167,-2.58,3.17,-1.38,4.31
29.188485860824585,-3.24,3.65,-1.5,5.1
29.189966917037964,-4.21,4.31,-1.66,6.24
29.205488920211792,-5.27,4.95,-1.95,7.48
29.206984996795654,-6.19,5.97,-2.04,8.83
29.220892190933228,-7.45,7.74,-2.34,10.99
29.251994848251343,-9.1,10.35,-2.86,14.07
29.253337144851685,-10.71,13.09,-4.55,17.51
29.254354000091553,-12.14,14.57,-6.7,20.11
29.270609140396118,-13.14,14.65,-7.36,21.01
29.27164101600647,-13.36,14.22,-6.88,20.68
29.285367965698242,-12.47,15.12,-4.95,20.21
29.286402940750122,-8.57,16.97,-2.98,19.24
29.303230047225952,-3.73,15.87,-4.32,16.86
29.305383920669556,-1.23,11.67,-5.25,12.85
29.321063995361328,1.15,5.83,-2.71,6.53
29.352761030197144,3.12,-2.06,-0.89,3.84
29.354079961776733,0.4,-3.29,-5.73,6.61
29.355072021484375,3.29,1.7,-2.95,4.73
29.372474908828735,5.68,0.3,1.85,5.98
29.3735191822052,1.09,-2.93,-2.72,4.14
29.38868999481201,-3.04,-1.73,-4.57,5.75
29.390194177627563,-4.86,-0.15,-3.71,6.11
29.405806064605713,-7.03,-0.94,-3.42,7.87
29.40727210044861,-8.76,-2.73,-1.93,9.37
29.42098903656006,-8.81,-4.99,-0.2,10.12
29.424484968185425,-7.49,-6.91,1.01,10.24
29.465365171432495,-5.21,-8.03,1.71,9.72
29.46652603149414,-3.9,-7.39,1.22,8.44
29.467494010925293,-3.91,-6.24,0.17,7.36
29.469804048538208,-4.31,-5.63,-0.67,7.12
29.47399115562439,-4.51,-5.52,-1.42,7.26
29.484107971191406,-4.39,-5.2,-1.53,6.97
29.494062185287476,-3.76,-5.07,-1.91,6.59
29.504164934158325,-3.06,-4.91,-2.38,6.25
29.51417088508606,-2.37,-5.06,-2.84,6.26
29.52393102645874,-2.02,-5.41,-3.07,6.54
29.555440187454224,-2.14,-5.65,-3.25,6.86
29.556770086288452,-2.3,-5.87,-3.37,7.14
