time,ax,ay,az,atotal
0.0024099349975585938,-0.04,-0.03,0.08,0.09
0.013113975524902344,-0.28,0.21,-0.03,0.35
0.02248406410217285,0.18,-0.07,-0.12,0.22
0.0324249267578125,0.01,-0.11,-0.02,0.11
0.043299198150634766,0.08,-0.08,0.03,0.11
0.07905292510986328,-0.03,-0.06,0.05,0.08
0.07931995391845703,-0.02,-0.05,0.06,0.08
0.07959103584289551,0.07,-0.03,0.1,0.12
0.08228206634521484,0.15,0.02,0.07,0.16
0.09230422973632812,0.18,0.01,0.01,0.18
0.10240316390991211,0.13,-0.01,0.0,0.13
0.11297106742858887,0.06,-0.01,-0.01,0.06
0.1222991943359375,0.02,0.01,0.01,0.02
0.1322941780090332,0.03,0.0,0.02,0.03
0.1432652473449707,-0.01,-0.01,0.0,0.01
0.17956113815307617,-0.03,-0.04,0.03,0.05
0.17983722686767578,0.0,-0.02,0.02,0.02
0.18010616302490234,0.02,0.02,0.03,0.04
0.1820821762084961,-0.01,0.01,0.05,0.05
0.19217300415039062,0.02,-0.02,0.07,0.07
0.20216107368469238,0.03,-0.02,0.03,0.04
0.21280503273010254,-0.01,-0.02,-0.01,0.02
0.22210121154785156,-0.01,-0.02,0.02,0.03
0.23213720321655273,0.0,0.0,0.02,0.02
0.24296808242797852,-0.04,-0.01,-0.02,0.04
0.2791142463684082,-0.04,0.0,0.01,0.04
0.2793922424316406,-0.06,0.01,-0.02,0.06
0.27963924407958984,-0.06,-0.02,-0.03,0.06
0.2818889617919922,-0.05,-0.02,-0.04,0.06
0.292464017868042,-0.02,-0.03,-0.04,0.05
0.30202412605285645,0.0,-0.05,-0.06,0.07
0.3126950263977051,-0.01,-0.04,-0.05,0.06
0.3220100402832031,-0.02,-0.04,-0.02,0.04
0.3320341110229492,-0.02,-0.01,0.0,0.02
0.34284496307373047,0.0,-0.01,0.03,0.03
0.3795890808105469,0.02,-0.01,0.03,0.03
0.3798651695251465,0.01,-0.02,0.04,0.04
0.3801441192626953,0.02,0.0,0.02,0.02
0.38172197341918945,-0.03,0.0,-0.03,0.04
0.3919100761413574,-0.02,-0.01,-0.04,0.04
0.4018101692199707,-0.04,-0.01,-0.03,0.05
0.4125020503997803,-0.02,-0.02,-0.02,0.03
0.42192792892456055,0.02,0.0,0.0,0.02
0.43184709548950195,0.03,-0.02,0.01,0.03
0.44266414642333984,0.01,-0.01,0.02,0.02
0.4799060821533203,-0.02,0.0,0.01,0.02
0.48017120361328125,-0.01,0.0,0.02,0.02
0.4804191589355469,-0.01,0.0,0.03,0.03
0.4817240238189697,0.03,0.0,0.03,0.04
0.4919290542602539,-0.03,-0.05,0.09,0.1
0.5016641616821289,-0.04,0.04,0.08,0.09
0.5123491287231445,-0.04,0.07,0.06,0.1
0.5217900276184082,-0.12,0.03,0.08,0.14
0.5317049026489258,0.0,-0.25,0.09,0.26
0.5425381660461426,-0.22,0.05,0.0,0.22
0.5804920196533203,-0.11,-0.03,0.02,0.11
0.5808119773864746,-0.1,-0.06,0.03,0.12
0.5811300277709961,-0.04,-0.04,-0.01,0.05
0.5815911293029785,0.08,0.04,-0.07,0.11
0.5915799140930176,0.61,0.29,-0.04,0.67
0.6015429496765137,0.51,0.07,-0.47,0.69
0.6121840476989746,-0.42,-0.07,-0.1,0.43
0.6215460300445557,-0.38,0.01,-0.18,0.42
0.631554126739502,-0.15,-0.05,-0.16,0.22
0.6424200534820557,-0.03,-0.15,0.11,0.18
0.6796631813049316,-0.07,0.02,0.02,0.07
0.6799349784851074,-0.05,-0.02,0.03,0.06
0.6802060604095459,-0.06,-0.04,0.11,0.13
0.6814460754394531,-0.04,-0.12,0.08,0.14
0.6914281845092773,0.01,0.05,-0.1,0.11
0.7012660503387451,-0.12,-0.05,0.04,0.13
0.7120041847229004,-0.08,-0.12,-0.01,0.14
0.7214200496673584,0.1,0.04,-0.07,0.12
0.7314581871032715,0.05,-0.04,0.07,0.09
0.7422690391540527,0.07,-0.01,0.04,0.08
0.7794520854949951,0.07,-0.03,0.12,0.14
0.7797389030456543,0.05,0.01,0.13,0.13
0.7800049781799316,0.06,-0.01,0.13,0.14
0.7812309265136719,0.05,-0.04,0.16,0.17
0.7912371158599854,0.06,-0.01,0.16,0.17
0.8011212348937988,0.1,-0.03,0.16,0.19
0.8119070529937744,0.15,-0.01,0.17,0.22
0.8212409019470215,0.18,0.03,0.14,0.23
0.8312430381774902,0.18,0.05,0.1,0.21
0.8421502113342285,0.09,0.1,-0.02,0.13
0.8793270587921143,0.04,0.09,-0.12,0.15
0.8795781135559082,0.04,0.09,-0.14,0.17
0.8798620700836182,0.17,0.12,-0.13,0.24
0.8811171054840088,0.27,-0.14,-0.13,0.33
0.8910951614379883,0.13,-0.25,0.0,0.28
0.9012742042541504,-0.06,-0.12,0.03,0.13
0.9117391109466553,-0.16,-0.02,0.12,0.2
0.9211249351501465,-0.12,-0.01,0.2,0.23
0.9311320781707764,0.06,-0.02,0.35,0.35
0.9420781135559082,0.17,-0.04,0.56,0.58
0.979733943939209,0.27,-0.07,0.67,0.72
0.9800262451171875,0.4,-0.03,0.65,0.76
0.9803452491760254,0.38,-0.01,0.44,0.58
0.9808611869812012,0.16,-0.02,0.1,0.18
0.9910058975219727,-0.15,-0.08,-0.05,0.17
1.0012540817260742,-0.25,-0.13,0.08,0.29
1.0116729736328125,-0.12,-0.07,0.1,0.17
1.0209312438964844,0.23,0.01,0.09,0.24
1.0309638977050781,0.59,0.03,0.15,0.6
1.0419158935546875,0.74,0.06,0.13,0.75
1.0795180797576904,0.63,0.07,0.13,0.64
1.0798048973083496,0.38,0.03,0.05,0.38
1.0801172256469727,0.23,-0.02,-0.04,0.23
1.0808238983154297,0.15,-0.05,-0.07,0.17
1.0908260345458984,0.02,-0.11,-0.11,0.15
1.1011581420898438,-0.1,-0.06,-0.14,0.18
1.1114659309387207,-0.11,0.08,-0.22,0.25
1.1209092140197754,-0.08,0.19,-0.35,0.4
1.13077712059021,0.05,0.22,-0.63,0.66
1.1418941020965576,0.32,0.16,-0.66,0.75
1.178947925567627,0.49,0.1,-0.5,0.7
1.1792359352111816,0.46,0.0,-0.29,0.54
1.1795291900634766,0.31,-0.09,-0.15,0.35
1.1806790828704834,0.03,-0.17,-0.02,0.17
1.190636157989502,-0.48,-0.23,0.09,0.53
1.2011590003967285,-0.81,-0.18,0.06,0.83
1.2113261222839355,-0.79,-0.12,0.16,0.81
1.220682144165039,-0.62,-0.15,0.36,0.73
1.2306721210479736,-0.47,-0.11,0.37,0.6
1.241684913635254,-0.26,0.02,0.31,0.4
1.2507150173187256,-0.03,0.08,0.22,0.23
1.2794952392578125,0.09,0.06,0.11,0.15
1.2798161506652832,0.06,0.04,-0.04,0.08
1.2804532051086426,0.03,0.0,-0.17,0.17
1.2905731201171875,0.03,-0.1,-0.23,0.25
1.300516128540039,0.04,-0.15,-0.24,0.28
1.3111472129821777,-0.01,-0.17,-0.17,0.24
1.3205020427703857,-0.21,-0.12,-0.17,0.29
1.3305869102478027,-0.34,-0.05,-0.16,0.37
1.3414292335510254,-0.27,0.0,-0.08,0.28
1.3505220413208008,-0.17,0.05,-0.02,0.17
1.3788189888000488,-0.08,0.05,-0.02,0.09
1.37910795211792,-0.06,0.04,-0.03,0.07
1.380599021911621,-0.06,0.04,-0.07,0.1
1.3903541564941406,-0.03,-0.01,-0.07,0.07
1.4004180431365967,0.03,-0.03,-0.07,0.08
1.4110450744628906,0.08,-0.04,-0.04,0.09
1.420647144317627,0.21,-0.03,-0.05,0.21
1.4303231239318848,0.28,0.02,-0.03,0.28
1.4412870407104492,0.26,0.0,-0.08,0.27
1.4503231048583984,0.11,-0.01,-0.21,0.23
1.479322910308838,0.0,0.01,-0.25,0.25
1.4796662330627441,0.01,0.02,-0.2,0.2
1.480159044265747,0.09,0.06,-0.2,0.22
1.4902310371398926,0.17,0.07,-0.17,0.25
1.5001811981201172,0.18,0.01,-0.14,0.22
1.510878086090088,0.1,0.01,-0.12,0.15
1.52024507522583,0.09,-0.01,-0.15,0.17
1.5303001403808594,-0.03,-0.01,-0.17,0.17
1.541086196899414,-0.15,0.05,-0.21,0.26
1.5503759384155273,-0.11,0.03,-0.19,0.22
1.5799360275268555,-0.03,0.01,-0.13,0.13
1.580245018005371,-0.05,0.0,-0.11,0.12
1.5805280208587646,-0.08,0.0,-0.14,0.16
1.5900459289550781,-0.08,0.02,-0.11,0.13
1.6000730991363525,0.0,0.0,-0.06,0.06
1.6107380390167236,0.07,0.01,-0.02,0.07
1.620131015777588,0.06,0.02,-0.04,0.07
1.6300592422485352,0.05,-0.01,-0.04,0.06
1.641045093536377,0.06,-0.05,-0.04,0.08
1.650291919708252,0.04,-0.04,0.0,0.05
1.680103063583374,0.1,-0.02,0.05,0.11
1.6804132461547852,0.11,-0.04,0.06,0.13
1.680699110031128,0.03,-0.05,0.06,0.08
1.6899831295013428,-0.12,-0.03,-0.02,0.12
1.699873924255371,-0.15,0.03,-0.08,0.17
1.7105600833892822,-0.1,0.0,-0.07,0.12
1.719858169555664,-0.06,-0.06,-0.01,0.08
1.7298321723937988,-0.06,-0.05,0.02,0.08
1.7407341003417969,-0.13,-0.04,-0.02,0.13
1.7499918937683105,-0.28,-0.03,-0.06,0.28
1.7799649238586426,-0.35,-0.05,-0.11,0.37
1.7802751064300537,-0.28,-0.04,-0.14,0.31
1.7805800437927246,-0.14,-0.07,-0.07,0.17
1.7896971702575684,-0.04,-0.11,-0.01,0.11
1.7996890544891357,-0.01,-0.07,0.02,0.07
1.8104019165039062,0.01,-0.01,0.02,0.02
1.8197021484375,0.05,-0.01,0.03,0.05
1.8298239707946777,-0.02,-0.04,0.0,0.04
1.8406672477722168,-0.06,-0.03,-0.05,0.08
1.8498821258544922,-0.07,-0.04,-0.06,0.1
1.8799540996551514,-0.12,-0.05,-0.08,0.15
1.8802480697631836,-0.12,-0.04,-0.06,0.13
1.8805510997772217,-0.17,-0.05,-0.08,0.19
1.8896031379699707,-0.21,-0.01,-0.09,0.22
1.8995680809020996,-0.18,-0.01,-0.07,0.19
1.9102749824523926,-0.11,-0.03,-0.07,0.13
1.9195940494537354,0.01,-0.02,-0.06,0.06
1.9295670986175537,0.08,-0.01,-0.01,0.08
1.9405570030212402,0.11,-0.02,-0.04,0.11
1.9496359825134277,0.07,0.0,-0.11,0.13
1.9792420864105225,0.02,0.03,-0.13,0.13
1.979506015777588,-0.04,0.03,-0.13,0.13
1.979811191558838,-0.13,0.01,-0.12,0.17
1.9894771575927734,-0.12,-0.03,-0.11,0.16
1.9993400573730469,-0.05,-0.01,-0.1,0.11
2.0100600719451904,-0.02,-0.01,-0.11,0.11
2.0192770957946777,-0.04,-0.02,-0.1,0.1
2.029482126235962,-0.05,-0.03,-0.02,0.06
2.04030704498291,-0.04,-0.05,0.02,0.06
2.0495100021362305,-0.11,-0.03,-0.01,0.11
2.0801072120666504,-0.15,-0.05,-0.03,0.16
2.0803871154785156,-0.15,-0.06,0.02,0.16
2.080698013305664,-0.12,-0.04,0.13,0.18
2.0892982482910156,-0.06,-0.07,0.19,0.21
2.0992631912231445,-0.05,-0.06,0.17,0.18
2.1101410388946533,-0.09,-0.03,0.08,0.12
2.119246006011963,-0.03,-0.01,0.0,0.03
2.1293540000915527,0.08,0.05,-0.1,0.13
2.140352249145508,0.13,0.03,-0.18,0.22
2.149433135986328,0.18,-0.04,-0.17,0.25
2.1811389923095703,0.07,-0.07,-0.18,0.2
2.181467056274414,-0.09,-0.02,-0.12,0.15
2.1817920207977295,-0.03,-0.05,-0.04,0.07
2.189061164855957,-0.03,-0.04,0.06,0.07
2.1991381645202637,-0.11,-0.05,0.14,0.18
2.209893226623535,-0.04,-0.06,0.21,0.22
2.2193589210510254,0.07,-0.1,0.28,0.3
2.229185104370117,-0.02,-0.07,0.28,0.28
2.240204095840454,-0.13,-0.07,0.17,0.22
2.2492880821228027,-0.13,-0.02,0.07,0.14
2.28059720993042,0.02,0.06,-0.08,0.1
2.280907154083252,0.27,0.06,-0.22,0.35
2.281233072280884,0.43,0.03,-0.25,0.49
2.289034128189087,0.25,-0.03,-0.28,0.37
2.299017906188965,-0.1,-0.01,-0.32,0.33
2.3097801208496094,-0.59,-0.01,-0.29,0.65
2.3192319869995117,-0.85,-0.01,-0.34,0.91
2.3290390968322754,-0.48,0.03,-0.37,0.6
2.340146064758301,-0.1,0.04,-0.16,0.19
2.3491930961608887,0.05,0.05,-0.09,0.11
2.3817639350891113,-0.02,-0.06,-0.02,0.06
2.382101058959961,-0.48,-0.15,0.03,0.5
2.38242506980896,-0.57,-0.14,-0.01,0.58
2.38889217376709,-0.65,-0.08,-0.1,0.66
2.399022102355957,-0.66,0.02,-0.26,0.7
2.4096081256866455,-0.39,0.03,-0.38,0.54
2.4193661212921143,-0.2,-0.06,-0.39,0.44
2.4289422035217285,-0.23,-0.17,-0.4,0.49
2.4400041103363037,-0.3,-0.08,-0.5,0.58
2.4489710330963135,-0.28,-0.04,-0.53,0.6
2.481187105178833,-0.37,0.01,-0.55,0.66
2.4815192222595215,-0.33,-0.05,-0.52,0.61
2.481851100921631,-0.18,-0.14,-0.45,0.5
2.4887380599975586,-0.04,-0.1,-0.31,0.32
2.498885154724121,-0.04,-0.05,-0.11,0.12
2.5096192359924316,-0.12,0.01,-0.08,0.14
2.5192131996154785,-0.09,0.02,-0.09,0.12
2.528717041015625,0.1,-0.01,0.02,0.1
2.539788246154785,0.48,0.1,0.09,0.49
2.5487940311431885,0.9,0.25,0.04,0.93
2.581636905670166,1.12,0.25,-0.09,1.15
2.5820090770721436,1.16,0.15,-0.11,1.17
2.582334041595459,0.76,0.18,-0.12,0.79
2.588588237762451,0.48,0.14,-0.11,0.51
2.5985331535339355,0.56,0.04,0.05,0.56
2.609355926513672,0.87,0.07,0.2,0.89
2.6191370487213135,1.07,0.14,0.18,1.09
2.6285810470581055,1.18,0.14,0.06,1.18
2.639626979827881,1.26,0.18,-0.09,1.27
2.648653984069824,1.32,0.08,-0.03,1.32
2.6806249618530273,1.34,0.06,0.05,1.34
2.680960178375244,1.14,0.09,-0.09,1.14
2.6812829971313477,0.81,-0.04,0.0,0.81
2.68843412399292,0.64,-0.21,0.21,0.7
2.698470115661621,1.07,-0.36,0.01,1.12
2.7092771530151367,1.33,-0.3,0.18,1.37
2.718487024307251,1.69,-0.48,-0.17,1.76
2.728553056716919,2.6,-0.32,-0.33,2.64
2.739561080932617,2.34,-0.27,-0.18,2.36
2.748426914215088,2.0,0.04,-0.19,2.0
2.7825021743774414,1.11,-0.08,-0.05,1.11
2.7828590869903564,0.24,-0.19,0.23,0.38
2.7832090854644775,-0.83,-0.01,0.49,0.96
2.788328170776367,-1.85,0.21,1.32,2.28
2.798267126083374,-3.65,0.04,1.95,4.13
2.8091681003570557,-4.36,-0.73,2.27,4.96
2.8183469772338867,-2.03,-1.39,2.04,3.19
2.8283960819244385,-0.35,-0.65,1.37,1.55
2.83943510055542,-0.85,-0.69,2.23,2.48
2.8484749794006348,-1.06,-0.76,2.54,2.85
2.88248610496521,-1.35,-0.71,2.17,2.65
2.8828420639038086,-1.86,-0.61,1.31,2.35
2.8831870555877686,-2.39,-0.47,0.77,2.55
2.888151168823242,-2.21,-0.37,0.56,2.3
2.89811110496521,-1.69,-0.18,0.26,1.71
2.9088921546936035,-1.49,-0.12,-0.56,1.59
2.9181199073791504,-1.12,-0.04,-1.43,1.81
2.928255081176758,-0.58,0.26,-1.89,1.99
2.9392571449279785,0.37,0.4,-1.67,1.75
2.948345184326172,1.01,0.35,-1.41,1.76
2.981243133544922,1.09,0.4,-1.61,1.98
2.9815969467163086,1.0,0.36,-1.48,1.82
2.981934070587158,1.01,0.45,-1.27,1.68
2.9879579544067383,0.97,0.56,-1.71,2.04
2.997951030731201,0.78,0.37,-1.86,2.05
3.008739948272705,0.27,0.31,-1.46,1.51
3.0179340839385986,-0.24,0.27,-0.63,0.72
3.028022050857544,-0.38,0.01,-0.17,0.41
3.0391180515289307,-0.5,-0.03,0.18,0.53
3.048476219177246,-0.43,-0.04,0.45,0.62
3.0804061889648438,-0.19,-0.01,0.53,0.56
3.0807461738586426,0.12,0.07,0.28,0.31
3.0810890197753906,0.4,0.13,-0.2,0.46
3.0877552032470703,0.35,0.15,-0.63,0.73
3.09780216217041,0.19,0.17,-0.87,0.9
3.108607053756714,0.28,0.16,-0.95,1.0
3.1178669929504395,0.37,0.1,-0.9,0.97
3.127948045730591,0.28,0.13,-0.77,0.82
3.1388940811157227,0.32,0.05,-0.57,0.65
3.1480021476745605,0.28,0.02,-0.31,0.41
3.181136131286621,0.4,0.11,-0.32,0.52
3.181489944458008,0.31,0.09,-0.51,0.6
3.1818389892578125,-0.03,0.08,-0.43,0.43
3.187671184539795,-0.3,0.16,-0.37,0.5
3.1976752281188965,0.0,0.17,-0.29,0.33
3.208475112915039,0.31,0.08,-0.28,0.42
3.2177200317382812,0.36,0.04,-0.1,0.37
3.2278270721435547,0.09,-0.1,0.05,0.14
3.238840103149414,-0.08,-0.1,0.1,0.16
3.247824192047119,0.03,-0.07,0.28,0.29
3.281035900115967,0.06,-0.13,0.46,0.48
3.281391143798828,0.15,-0.08,0.6,0.62
3.281740188598633,0.44,-0.02,0.79,0.9
3.2875280380249023,0.58,0.03,0.57,0.81
3.2974560260772705,0.39,0.01,0.21,0.44
3.308588981628418,0.32,0.06,-0.01,0.32
3.3176660537719727,0.25,0.04,-0.1,0.27
3.3276219367980957,0.27,-0.02,0.13,0.3
3.338550090789795,0.4,-0.03,0.47,0.61
3.3476829528808594,0.37,0.05,0.67,0.76
3.3812241554260254,0.39,0.09,0.79,0.88
3.3815810680389404,0.48,0.1,0.98,1.09
3.381917953491211,0.74,0.11,0.98,1.23
3.3872861862182617,1.15,0.16,1.3,1.74
3.3973660469055176,1.72,0.29,1.19,2.11
3.408186912536621,1.42,0.37,0.93,1.73
3.4175429344177246,1.26,0.39,1.16,1.75
3.4274630546569824,1.36,0.25,0.89,1.64
3.4383270740509033,0.6,0.29,0.57,0.87
3.4475722312927246,0.15,0.23,0.54,0.6
3.4812190532684326,0.3,0.28,0.6,0.72
3.481572151184082,0.51,0.41,0.59,0.88
3.4819180965423584,0.97,0.7,0.84,1.46
3.487039089202881,1.44,1.03,0.84,1.95
3.49727201461792,1.49,1.42,1.03,2.3
3.50817608833313,1.52,1.78,1.45,2.75
3.5172371864318848,1.47,1.7,1.57,2.74
3.527277946472168,2.01,2.29,1.61,3.44
3.5383520126342773,1.85,2.76,1.99,3.87
3.5473241806030273,1.61,2.86,2.72,4.26
3.581183910369873,1.85,2.83,2.96,4.49
3.58151912689209,1.29,4.2,2.96,5.29
3.581886053085327,2.54,7.89,1.4,8.4
3.587024211883545,6.16,7.49,3.41,10.27
3.5972111225128174,4.06,5.9,4.97,8.71
3.6079821586608887,4.11,7.24,4.57,9.49
3.6171300411224365,4.39,8.27,5.42,10.81
3.6272261142730713,4.38,9.45,5.1,11.59
3.6382980346679688,4.28,10.18,3.96,11.73
3.647278070449829,3.14,10.1,2.28,10.81
3.680851936340332,3.81,10.64,2.5,11.57
3.681225061416626,5.16,10.08,0.45,11.33
3.6815860271453857,4.89,9.46,-2.75,10.99
3.6871161460876465,4.33,8.83,-2.43,10.13
3.6970009803771973,2.79,8.21,-1.41,8.78
3.7078070640563965,0.61,6.95,-0.08,6.97
3.7170162200927734,1.44,4.3,1.74,4.85
3.727065086364746,1.09,1.87,2.75,3.49
3.762998104095459,-4.46,1.16,-2.88,5.43
3.763361930847168,-3.59,4.77,-4.81,7.66
3.763690948486328,1.81,4.73,1.23,5.21
3.7667880058288574,4.99,2.52,4.08,6.92
3.7767860889434814,5.6,0.96,4.19,7.05
3.7871689796447754,4.28,-0.23,3.48,5.52
3.7968480587005615,3.5,-0.95,2.91,4.64
3.807800054550171,2.99,-1.31,2.79,4.29
3.816847085952759,2.41,-1.5,2.87,4.03
3.8268752098083496,1.47,-1.51,2.84,3.53
3.864659070968628,0.26,-1.52,2.66,3.07
3.86501407623291,-1.08,-1.57,2.34,3.01
3.865368127822876,-2.07,-1.69,1.95,3.3
3.8665521144866943,-2.34,-1.96,1.58,3.43
3.876723051071167,-1.67,-2.2,1.33,3.06
3.8868861198425293,-0.8,-2.44,1.37,2.91
3.896596908569336,-0.07,-2.73,1.3,3.02
3.9076731204986572,0.31,-3.33,1.42,3.63
3.916706085205078,0.22,-4.09,1.49,4.35
3.9268269538879395,-0.23,-4.85,1.4,5.05
3.9651389122009277,-0.41,-5.63,1.5,5.84
3.965496063232422,-0.3,-6.3,1.67,6.52
3.9658889770507812,-0.12,-6.77,1.66,6.97
3.9664559364318848,0.09,-7.09,1.65,7.28
3.9765241146087646,0.24,-7.44,1.61,7.61
3.9864070415496826,0.37,-7.72,1.44,7.86
3.9965572357177734,0.41,-7.69,1.19,7.79
4.007511138916016,0.12,-7.48,0.9,7.53
4.016542911529541,-0.52,-7.01,0.48,7.04
4.026673078536987,-1.63,-6.19,-0.51,6.42
4.065262079238892,-2.92,-5.12,-2.24,6.3
4.065709114074707,-4.04,-3.98,-4.35,7.14
4.066318035125732,-4.84,-2.65,-6.01,8.15
4.066675186157227,-5.57,-1.55,-6.92,9.01
4.076350212097168,-6.19,-0.94,-7.66,9.89
4.08636212348938,-6.86,-0.51,-8.54,10.96
4.096394062042236,-7.39,-0.2,-9.18,11.78
4.107375144958496,-7.46,-0.24,-9.52,12.09
4.116434097290039,-6.47,-0.41,-9.22,11.27
4.126561164855957,-5.14,-0.73,-8.18,9.68
4.164591073989868,-4.82,-1.27,-7.78,9.23
4.1649580001831055,-4.88,-1.84,-8.32,9.81
4.165327072143555,-5.81,-2.17,-8.54,10.55
4.166108131408691,-6.98,4.06,-7.2,10.81
4.17621111869812,0.25,6.94,0.77,6.98
4.186188220977783,16.06,9.33,16.83,25.06
4.1968231201171875,22.05,13.64,19.8,32.62
4.207190036773682,5.49,15.43,-8.62,18.5
4.216329097747803,-1.54,11.22,-10.71,15.58
4.226311206817627,-11.53,-0.79,-0.28,11.56
4.26250696182251,-14.95,-8.34,-0.15,17.11
4.262894153594971,-8.13,-4.27,-6.46,11.22
4.263244152069092,-7.13,-1.08,-7.44,10.36
4.266070127487183,-3.94,1.14,-6.51,7.69
4.276090145111084,-1.43,2.16,-4.07,4.82
4.286070108413696,0.62,0.91,-2.7,2.91
4.296267986297607,2.05,0.49,-2.68,3.4
4.307162046432495,1.76,0.6,-2.05,2.76
4.316215991973877,-0.11,0.48,-1.22,1.31
4.326200008392334,-0.97,0.34,-1.14,1.53
4.3635149002075195,-0.57,0.56,-1.48,1.68
4.363914966583252,-0.27,0.58,-1.27,1.42
4.3643012046813965,-0.48,0.3,-0.8,0.98
4.36591911315918,-0.59,-0.07,-0.45,0.74
4.375945091247559,-0.27,-0.22,-0.35,0.49
4.385941028594971,0.04,-0.25,-0.26,0.36
4.395993232727051,0.06,-0.25,-0.33,0.41
4.406763076782227,-0.12,-0.25,-0.3,0.4
4.416111946105957,-0.2,-0.26,-0.25,0.41
4.426074028015137,-0.29,-0.2,-0.05,0.35
4.46380090713501,-0.4,-0.14,0.27,0.5
4.464198112487793,-0.28,-0.08,0.63,0.69
4.464584112167358,-0.03,0.04,0.76,0.76
4.465857982635498,0.23,0.11,0.73,0.77
4.475750923156738,0.62,0.17,0.78,1.01
4.48584508895874,1.03,0.13,0.9,1.37
4.496061086654663,1.2,0.02,1.0,1.56
4.506998062133789,1.07,-0.02,0.99,1.45
4.515937089920044,0.84,-0.05,0.91,1.23
4.526034116744995,0.62,-0.05,0.78,0.99
4.563115119934082,0.5,-0.05,0.68,0.84
4.563914060592651,0.63,-0.07,0.81,1.02
4.5642781257629395,1.04,-0.07,0.9,1.37
4.565670967102051,1.53,-0.02,0.86,1.75
4.575618028640747,1.92,0.04,1.06,2.19
4.585580110549927,2.17,0.06,0.87,2.33
4.5958099365234375,2.18,0.14,0.61,2.26
4.606801986694336,1.72,0.09,0.91,1.94
4.615782022476196,1.56,-0.03,1.21,1.97
4.6258769035339355,1.76,-0.02,1.4,2.24
4.636988162994385,1.69,0.06,1.46,2.23
4.663535118103027,1.62,0.14,1.46,2.18
4.6639180183410645,1.5,0.33,1.11,1.89
4.665440082550049,1.45,0.52,0.84,1.75
4.675497055053711,1.45,0.77,0.7,1.78
4.6857240200042725,1.18,1.03,0.52,1.65
4.695595026016235,0.86,1.4,0.5,1.71
4.706597089767456,0.86,1.92,0.4,2.14
4.715590000152588,1.4,2.92,0.62,3.29
4.725732088088989,1.58,3.04,1.5,3.74
4.736906051635742,1.09,3.21,2.28,4.08
4.763405084609985,1.53,4.29,2.59,5.23
4.763788223266602,2.06,7.15,2.6,7.88
4.765322208404541,4.77,8.97,3.96,10.9
4.7753729820251465,6.04,8.67,5.88,12.09
4.78542423248291,5.34,9.0,5.56,11.85
4.79558801651001,4.67,9.55,6.47,12.44
4.8064820766448975,4.18,10.6,7.54,13.66
4.815432071685791,5.97,11.47,6.98,14.69
4.825527191162109,7.57,10.76,4.52,13.91
4.836880207061768,7.69,9.65,3.19,12.74
4.864078998565674,7.75,8.98,1.02,11.9
4.8645710945129395,5.92,9.11,-2.47,11.14
4.86531400680542,0.77,9.76,-4.9,10.94
4.875185966491699,-4.81,12.16,-5.48,14.17
4.885220050811768,-3.91,7.97,-0.89,8.92
4.8954691886901855,0.38,2.99,2.84,4.14
4.906183242797852,-1.08,2.12,0.05,2.37
4.915285110473633,-2.52,3.92,-5.38,7.11
4.925417900085449,2.46,5.0,-0.6,5.6
4.936650037765503,6.22,2.99,3.49,7.73
4.9638872146606445,7.31,1.31,4.02,8.44
4.964362144470215,5.78,0.34,3.28,6.65
4.965035915374756,4.35,-0.4,2.44,5.0
4.975046157836914,3.61,-1.22,2.17,4.38
4.984983921051025,2.78,-1.9,2.63,4.27
4.9951441287994385,2.0,-2.24,3.06,4.28
5.006248950958252,1.55,-2.44,3.19,4.3
5.015124082565308,0.97,-2.65,3.1,4.19
5.025271892547607,0.27,-2.93,2.95,4.16
5.036602973937988,-0.01,-3.21,2.88,4.31
5.064121246337891,0.23,-3.45,2.78,4.43
5.064793109893799,0.78,-3.44,2.6,4.38
5.0652079582214355,1.38,-3.47,2.64,4.57
5.074965000152588,1.73,-3.63,2.8,4.89
5.0849151611328125,1.61,-3.93,2.59,4.97
5.095070123672485,1.19,-4.35,2.23,5.03
5.106245040893555,0.79,-4.91,2.02,5.36
5.1150312423706055,0.5,-5.35,1.74,5.64
5.125137090682983,0.18,-5.63,1.56,5.84
5.136394023895264,-0.05,-5.72,1.17,5.83
5.16389012336731,0.03,-5.96,1.14,6.06
5.164571046829224,-0.06,-6.13,1.32,6.27
5.164999008178711,-0.09,-5.95,1.33,6.09
5.174808025360107,-0.83,-5.34,0.49,5.42
5.184762001037598,-2.72,-4.48,-1.52,5.45
5.194950103759766,-4.62,-3.83,-2.67,6.56
5.20633602142334,-5.76,-2.94,-4.08,7.64
5.214910984039307,-6.2,-1.73,-5.74,8.62
5.224940061569214,-6.66,-0.67,-6.54,9.35
5.236237049102783,-7.9,0.3,-7.03,10.57
5.26438307762146,-9.78,1.19,-7.92,12.64
5.264810085296631,-11.33,1.59,-9.22,14.69
5.265200138092041,-12.18,1.09,-10.45,16.08
5.274647235870361,-11.62,0.06,-10.57,15.7
5.284744024276733,-9.34,-0.57,-9.72,13.49
5.2946929931640625,-6.83,-0.99,-8.51,10.95
5.3061909675598145,-5.43,-1.53,-7.26,9.19
5.3147292137146,-5.25,-2.28,-6.61,8.74
5.324789047241211,-7.31,2.58,-6.46,10.09
5.3360021114349365,-2.48,0.59,-5.63,6.18
5.36537504196167,9.97,2.72,3.27,10.83
5.365817070007324,25.48,13.88,24.12,37.73
5.366239070892334,17.18,18.03,6.1,25.64
5.3744940757751465,-1.75,18.98,-14.43,23.9
5.384459972381592,-9.55,2.77,-9.62,13.83
5.394529104232788,-13.15,-9.37,0.27,16.14
5.406171083450317,-12.37,-7.11,2.69,14.51
5.4145379066467285,-11.44,-4.23,-4.74,13.08
5.424773216247559,-9.27,-2.22,-6.45,11.5
5.435960054397583,-5.71,0.04,-3.66,6.78
5.464530944824219,-2.94,0.73,-1.28,3.28
5.464958190917969,-0.5,0.79,-1.55,1.81
5.465353965759277,1.82,1.17,-1.91,2.88
5.47441291809082,3.03,0.86,-1.23,3.38
5.484316110610962,1.4,0.53,-1.26,1.95
5.494426012039185,-0.98,0.31,-1.87,2.13
5.505935192108154,-1.36,0.23,-2.12,2.52
5.514400959014893,-0.85,0.21,-1.74,1.94
5.524522066116333,-0.51,-0.01,-1.43,1.51
5.53573203086853,-0.18,0.0,-1.56,1.57
5.564402103424072,-0.04,0.07,-1.67,1.67
5.564826965332031,0.11,0.12,-1.37,1.37
5.565253019332886,0.23,0.23,-0.8,0.86
5.574156045913696,0.02,0.23,-0.4,0.46
5.584193229675293,-0.47,0.13,-0.14,0.5
5.594281196594238,-0.82,0.0,0.2,0.84
5.60588812828064,-0.89,-0.07,0.37,0.96
5.614274024963379,-0.58,-0.05,0.33,0.66
5.624317169189453,-0.04,0.02,0.28,0.28
5.6356329917907715,0.44,0.07,0.37,0.57
5.665293216705322,0.87,0.18,0.61,1.07
5.665690898895264,1.26,0.18,0.73,1.46
5.666114091873169,1.38,0.15,0.56,1.49
5.6739959716796875,0.95,0.05,0.63,1.14
5.684141159057617,0.47,-0.06,0.69,0.83
5.694185018539429,0.34,-0.04,0.91,0.97
5.70569109916687,0.2,0.04,1.28,1.29
5.71409010887146,0.18,0.17,1.04,1.06
5.724152088165283,0.26,0.23,0.71,0.79
5.7353081703186035,0.38,0.24,0.92,1.02
5.7661120891571045,0.87,0.23,1.21,1.5
5.766528129577637,1.57,0.2,1.51,2.18
5.766942977905273,2.38,0.22,1.56,2.85
5.773890018463135,2.97,0.29,1.61,3.39
5.783785104751587,2.97,0.4,1.71,3.45
5.7939581871032715,2.55,0.53,1.36,2.93
5.805545091629028,2.07,0.5,1.24,2.46
5.81394100189209,1.83,0.56,1.33,2.33
5.824048042297363,1.93,0.99,1.19,2.47
5.835294246673584,1.99,1.75,1.32,2.96
5.865743160247803,1.79,2.05,1.49,3.1
5.866161108016968,1.24,2.57,1.73,3.33
5.86658501625061,1.27,2.86,2.3,3.88
5.873680114746094,1.91,3.12,2.65,4.51
5.883816242218018,2.73,3.29,3.03,5.24
5.893855094909668,3.46,3.83,3.07,6.0
5.905210971832275,3.73,5.03,3.06,6.96
5.913753032684326,4.17,7.41,2.44,8.84
5.923810958862305,6.02,8.48,3.55,10.98
5.935216903686523,5.44,8.15,4.95,10.97
5.964273929595947,3.75,8.32,6.2,11.03
5.964680194854736,3.92,9.13,7.72,12.58
5.965059041976929,5.71,9.98,7.09,13.5
5.973462104797363,6.99,10.22,5.18,13.42
5.983429908752441,6.88,9.4,4.24,12.39
5.993732929229736,6.22,7.9,1.45,10.15
6.004631042480469,4.16,7.28,-2.63,8.78
6.0136542320251465,0.61,8.29,-4.63,9.51
6.0235960483551025,-2.35,10.19,-2.56,10.76
6.034971237182617,-3.21,8.11,1.86,8.91
6.065060138702393,-2.16,3.48,2.11,4.6
6.065491199493408,-0.73,1.11,1.47,1.98
6.065907001495361,-3.1,0.2,-1.14,3.3
6.073490142822266,-2.56,3.07,-4.55,6.05
6.083279132843018,3.56,5.42,-0.68,6.52
6.093463897705078,8.93,3.59,1.93,9.81
6.104496955871582,11.67,1.24,3.24,12.17
6.1135759353637695,10.14,-0.24,3.69,10.79
6.1235511302948,7.44,-0.72,3.33,8.18
6.134825229644775,5.28,-0.85,3.52,6.4
6.164927959442139,3.49,-1.2,3.5,5.08
6.165349960327148,2.03,-1.66,2.94,3.93
6.165771961212158,0.81,-2.02,2.22,3.1
6.173191070556641,0.2,-2.18,1.91,2.9
6.183221101760864,0.12,-2.02,1.66,2.61
6.193362236022949,0.61,-1.8,1.92,2.7
6.204379081726074,0.74,-1.33,2.1,2.59
6.213298082351685,-0.32,-1.22,1.46,1.92
6.22339391708374,-1.8,-1.41,-0.31,2.3
6.234701156616211,-2.57,-1.4,-2.46,3.82
6.265702247619629,-2.99,-1.91,-2.17,4.15
6.26613712310791,-2.56,-2.67,-0.47,3.72
6.266537189483643,-1.15,-2.97,0.24,3.19
6.272954940795898,-0.13,-3.07,0.04,3.07
6.283041954040527,0.08,-3.17,-0.21,3.17
6.293124198913574,-0.67,-3.13,-0.49,3.23
6.304269075393677,-2.15,-2.85,-1.15,3.75
6.313164234161377,-3.98,-2.63,-2.39,5.33
6.323125123977661,-5.65,-2.63,-3.83,7.31
6.334546089172363,-6.77,-2.57,-5.11,8.86
6.365114212036133,-7.42,-2.28,-6.27,9.97
6.365499973297119,-8.25,-1.98,-7.71,11.46
6.365880966186523,-9.18,-1.59,-8.91,12.89
6.372712135314941,-9.6,-1.42,-9.09,13.29
6.382930040359497,-9.75,-1.82,-8.94,13.35
6.393074989318848,-9.59,-2.66,-9.05,13.45
6.40382194519043,-9.1,-3.81,-8.65,13.12
6.413079023361206,-9.03,-4.19,-8.29,12.95
6.423191070556641,-8.97,-4.16,-8.23,12.86
6.434368133544922,-8.42,-4.37,-8.36,12.64
6.466010093688965,-7.87,-4.71,-8.17,12.28
6.466433048248291,-7.49,-5.51,-7.3,11.82
6.466849088668823,-7.07,-5.6,-6.66,11.21
6.472748041152954,-7.98,0.93,-7.33,10.87
6.482758045196533,-2.69,9.16,0.97,9.59
6.492775917053223,18.35,5.72,18.27,26.51
6.503880023956299,27.13,11.23,22.37,36.91
6.513051986694336,5.08,17.67,-7.25,19.76
6.523166179656982,-4.6,15.65,-15.15,22.26
6.534308910369873,-9.44,2.25,-5.13,10.97
6.563733100891113,-12.07,-7.49,0.63,14.21
6.564157009124756,-8.37,-5.37,-0.41,9.95
6.564573049545288,-8.54,-3.02,-4.33,10.03
6.572750091552734,-5.51,-1.63,-6.74,8.85
6.582636117935181,-2.17,0.71,-4.67,5.19
6.592895030975342,-1.71,1.11,-2.67,3.35
6.603785991668701,-0.66,0.89,-2.65,2.87
6.612860202789307,0.88,0.82,-2.59,2.85
6.623212099075317,1.15,0.67,-1.65,2.11
6.634613037109375,-0.16,0.4,-1.29,1.36
6.6654791831970215,-0.88,0.16,-1.09,1.41
6.665960073471069,-0.43,0.35,-1.13,1.25
6.666423082351685,-0.15,0.42,-0.91,1.01
6.6729631423950195,-0.38,0.19,-0.76,0.87
6.682525157928467,-0.49,-0.02,-1.0,1.11
6.692727088928223,-0.34,-0.1,-1.28,1.32
6.703470230102539,-0.26,-0.14,-1.34,1.37
6.712673187255859,-0.3,-0.12,-1.01,1.06
6.723220109939575,-0.31,-0.06,-0.56,0.64
6.734453201293945,-0.3,0.01,-0.14,0.33
6.766840934753418,-0.36,0.05,0.03,0.36
6.767313003540039,-0.45,0.06,0.19,0.49
6.767787933349609,-0.37,0.04,0.45,0.58
6.772828102111816,-0.04,0.04,0.53,0.53
6.782438039779663,0.47,0.12,0.39,0.62
6.79265022277832,0.95,0.19,0.36,1.03
6.803724050521851,1.11,0.14,0.47,1.21
6.813183069229126,0.85,0.06,0.5,0.98
6.823265075683594,0.36,0.01,0.35,0.5
6.834295034408569,-0.22,-0.03,0.43,0.48
6.867615222930908,-0.69,-0.11,0.74,1.01
6.8680830001831055,-0.71,-0.15,1.05,1.27
6.868557929992676,-0.26,-0.11,1.01,1.04
6.872673988342285,0.51,-0.04,0.69,0.85
6.882233142852783,1.14,0.01,0.65,1.31
6.892426013946533,1.72,0.02,1.1,2.04
6.903523921966553,2.4,0.05,1.39,2.77
6.912383079528809,2.78,0.09,1.59,3.2
6.9229230880737305,3.21,0.04,1.77,3.66
6.93408203125,3.26,-0.01,1.65,3.65
6.9670140743255615,2.76,0.01,1.67,3.22
6.9674811363220215,2.16,-0.01,1.55,2.65
6.967940092086792,1.92,0.05,1.35,2.34
6.9719250202178955,2.02,0.27,1.16,2.34
6.982004165649414,1.94,0.65,1.07,2.3
6.992341995239258,1.87,1.09,0.81,2.31
7.00312614440918,1.84,1.34,0.69,2.37
7.012306213378906,1.87,1.72,0.51,2.59
7.022147178649902,1.97,2.41,0.79,3.21
7.034085035324097,1.5,2.78,1.86,3.66
7.067317962646484,1.19,3.72,2.23,4.49
7.0677430629730225,1.61,6.41,1.95,6.89
7.068166017532349,3.38,8.93,2.61,9.89
7.0719451904296875,4.77,7.81,4.73,10.3
7.081912994384766,3.79,7.55,4.98,9.8
7.092185020446777,3.15,8.68,5.11,10.55
7.102941989898682,3.05,10.03,5.29,11.74
7.111984014511108,3.1,11.48,4.14,12.59
7.121960163116455,3.1,11.74,3.61,12.66
7.133907079696655,3.66,10.44,3.04,11.47
7.166333198547363,4.16,8.06,1.66,9.22
7.166798114776611,4.18,5.1,-0.32,6.6
7.167212963104248,2.3,4.96,-2.86,6.17
7.171694040298462,0.57,7.58,-3.75,8.47
7.181797027587891,-0.66,9.24,-1.24,9.34
7.191984176635742,0.35,6.93,0.06,6.93
7.202817916870117,1.71,3.33,0.73,3.81
7.211944103240967,0.31,0.35,1.44,1.51
7.221864223480225,-1.69,-0.08,-2.46,2.98
7.233570098876953,1.6,3.16,-3.86,5.23
7.267471075057983,7.22,3.54,0.67,8.06
7.267941951751709,11.02,1.38,3.85,11.75
7.26835823059082,12.2,0.33,5.24,13.28
7.271536111831665,10.47,-0.46,5.51,11.84
7.281642913818359,8.04,-0.86,4.82,9.41
7.291808128356934,5.89,-0.73,4.17,7.25
7.3027520179748535,4.17,-0.67,4.15,5.92
7.311803102493286,2.89,-0.81,4.17,5.13
7.321810245513916,2.2,-1.11,3.99,4.68
7.333463191986084,1.55,-1.36,3.63,4.17
7.366786956787109,0.75,-1.46,2.95,3.37
7.367208957672119,0.17,-1.63,2.63,3.09
7.367624044418335,0.1,-1.94,2.99,3.56
7.3713600635528564,0.5,-2.01,3.32,3.91
7.381421089172363,1.13,-1.74,3.54,4.1
7.39157509803772,1.43,-1.35,3.96,4.42
7.40248703956604,0.42,-0.57,3.13,3.2
7.411498069763184,-1.71,-0.59,1.3,2.22
7.421595096588135,-3.99,-0.01,-1.35,4.21
7.432909965515137,-4.84,1.04,-4.4,6.62
7.4667980670928955,-5.14,1.27,-5.08,7.33
7.467221021652222,-5.7,0.53,-3.45,6.68
7.467637062072754,-4.97,-0.75,-2.03,5.42
7.471221923828125,-3.66,-0.75,-1.87,4.17
7.48137903213501,-3.13,-0.06,-2.95,4.3
7.491217136383057,-3.9,-0.05,-3.59,5.3
7.502364158630371,-5.81,0.03,-4.13,7.12
7.511404991149902,-7.24,0.2,-4.95,8.77
7.521390914916992,-7.47,0.47,-6.32,9.79
7.532774925231934,-7.03,0.86,-7.85,10.57
7.567409038543701,-6.64,0.45,-8.56,10.84
7.567829132080078,-6.67,-0.86,-8.42,10.77
7.568244934082031,-6.94,-2.55,-8.18,11.02
7.571049213409424,-7.08,-3.66,-8.04,11.32
7.581140995025635,-7.89,-1.9,-8.36,11.65
7.591093063354492,-6.91,-1.3,-6.49,9.56
7.6021881103515625,-6.39,-5.87,-7.64,11.56
7.611156940460205,-7.87,-4.59,-9.61,13.24
7.621260166168213,-4.83,0.4,-8.14,9.47
7.63257908821106,5.89,10.39,10.48,15.88
7.666664123535156,11.46,10.25,9.09,17.86
7.667099952697754,2.68,11.74,-11.05,16.34
7.6675262451171875,-3.63,5.3,-5.27,8.3
7.671051025390625,-7.26,-0.86,0.0,7.31
7.681066989898682,-9.19,-1.71,-7.02,11.69
7.690865993499756,-6.09,-2.16,-9.08,11.14
7.702060222625732,-8.73,-1.15,-5.14,10.19
7.711064100265503,-8.66,-1.59,-4.12,9.72
7.7211220264434814,-4.82,-0.49,-2.84,5.61
7.732450008392334,-1.9,-0.5,-1.97,2.78
7.767877101898193,0.46,-0.05,-1.26,1.34
7.768302917480469,1.52,0.43,-1.02,1.88
7.768721103668213,1.81,0.55,-1.36,2.32
7.77079701423645,1.25,0.72,-2.32,2.73
7.780822038650513,-0.04,0.68,-3.22,3.29
7.790924072265625,-1.13,0.41,-2.58,2.84
7.801904201507568,-1.42,0.04,-1.75,2.25
7.811017036437988,-1.07,-0.26,-1.58,1.92
7.820919990539551,-0.85,-0.29,-1.55,1.79
7.832655906677246,-0.38,-0.09,-1.48,1.53
7.868656158447266,0.25,0.12,-1.41,1.43
7.869075059890747,0.44,0.26,-1.22,1.32
7.869503021240234,0.04,0.25,-0.82,0.85
7.8707098960876465,-0.66,0.12,-0.29,0.73
7.8806540966033936,-1.16,0.01,0.18,1.17
7.8906049728393555,-1.22,-0.06,0.46,1.3
7.901627063751221,-0.92,-0.09,0.57,1.08
7.910610198974609,-0.53,-0.03,0.43,0.68
7.920793056488037,-0.17,0.01,0.21,0.27
7.932153224945068,0.15,0.0,-0.01,0.15
7.96777606010437,0.46,0.01,-0.05,0.46
7.968201160430908,0.77,0.02,0.04,0.77
7.968616008758545,0.99,0.08,0.17,1.0
7.970621109008789,1.16,0.17,0.43,1.24
7.980461120605469,1.03,0.21,0.55,1.18
7.990647077560425,0.42,0.21,0.41,0.62
8.001602172851562,-0.29,0.22,0.26,0.44
8.010590076446533,-0.73,0.19,0.44,0.87
8.020648956298828,-0.52,0.13,0.87,1.02
8.031959056854248,0.23,0.18,1.21,1.24
8.067745208740234,0.96,0.29,1.31,1.64
8.06816816329956,1.4,0.3,1.07,1.78
8.068589210510254,1.76,0.27,1.18,2.13
8.070296049118042,2.14,0.33,1.5,2.63
8.080410957336426,2.47,0.56,1.51,2.94
8.09075117111206,2.41,0.59,1.73,3.02
8.101455211639404,2.13,0.67,2.13,3.08
8.110651016235352,1.88,0.92,1.83,2.78
8.120503902435303,1.75,1.52,1.36,2.68
8.132133960723877,1.43,1.9,1.36,2.73
8.168269157409668,1.68,2.45,1.7,3.42
8.168691158294678,2.0,2.51,2.25,3.91
8.169126033782959,2.17,2.72,2.82,4.47
8.170180082321167,2.53,2.97,3.43,5.19
8.180202960968018,2.96,3.74,3.87,6.14
8.190798044204712,3.63,4.97,4.32,7.51
8.201303005218506,4.41,6.79,4.54,9.28
8.210215091705322,6.09,8.11,5.1,11.35
8.22035002708435,6.39,8.18,6.02,11.99
8.231750011444092,5.22,8.64,6.92,12.23
8.268319129943848,4.79,9.72,8.57,13.81
8.268743991851807,4.94,10.48,8.23,14.21
8.269180059432983,5.8,10.15,6.15,13.2
8.269874095916748,6.14,8.81,3.9,11.42
8.280118942260742,5.9,7.36,-0.27,9.43
8.290689945220947,5.3,8.05,-5.4,11.04
8.301121234893799,2.57,10.53,-6.56,12.66
8.309952020645142,-1.62,11.32,-2.51,11.7
8.32030200958252,-3.25,10.81,0.57,11.3
8.331615924835205,-3.29,7.53,0.94,8.27
8.368956089019775,-0.47,3.08,1.0,3.27
8.36974811553955,0.74,0.0,1.45,1.62
8.370250225067139,-2.27,-1.36,-3.0,4.0
8.370713233947754,-0.29,2.03,-4.43,4.88
8.379998207092285,3.89,3.1,0.14,4.97
8.389885902404785,6.57,1.16,2.79,7.23
8.400793075561523,8.44,-0.67,4.73,9.69
8.409934997558594,8.63,-2.3,5.87,10.68
8.419899940490723,7.43,-3.2,5.39,9.72
8.431289196014404,6.08,-3.22,4.43,8.18
8.439987182617188,4.92,-2.87,3.88,6.89
8.466062068939209,4.06,-2.51,3.79,6.09
8.46645212173462,3.23,-2.61,3.98,5.75
8.469595909118652,2.19,-2.94,3.99,5.41
8.47968602180481,1.2,-3.0,3.25,4.58
8.489827156066895,0.59,-2.95,2.41,3.85
8.500629901885986,0.38,-2.79,1.86,3.37
8.509763240814209,0.84,-2.65,1.63,3.22
8.519774913787842,1.19,-2.7,1.7,3.4
8.531236171722412,1.12,-2.53,1.34,3.07
8.539822101593018,0.62,-2.47,0.89,2.69
8.567223072052002,-0.42,-2.24,0.45,2.32
8.567644119262695,-1.1,-1.53,-0.24,1.89
8.569642066955566,-1.88,-0.75,-1.1,2.3
8.579569101333618,-2.73,0.62,-2.54,3.78
8.589694023132324,-3.57,2.23,-5.05,6.57
8.600555896759033,-4.62,3.16,-7.02,8.97
8.609678030014038,-5.55,3.66,-6.36,9.2
8.619801998138428,-6.36,3.92,-4.82,8.89
8.631412029266357,-7.19,4.33,-4.64,9.59
8.639708042144775,-7.97,5.51,-6.13,11.46
8.667978048324585,-8.64,7.68,-8.03,14.07
8.668412208557129,-9.33,8.72,-10.23,16.36
8.669284105300903,-8.63,5.84,-9.79,14.29
8.679431915283203,-6.28,-0.39,-7.68,9.92
8.689532041549683,-6.03,-6.3,-8.41,12.11
8.700387001037598,-9.4,-8.14,-8.99,15.34
8.70958423614502,-12.96,-7.52,-6.67,16.4
8.71961498260498,-10.73,-5.75,-6.56,13.82
8.731005191802979,-6.25,-3.01,-8.68,11.11
8.73974609375,-3.73,-1.25,-9.41,10.19
8.769809246063232,-4.04,-0.36,-9.27,10.11
8.770240068435669,-5.89,5.8,-6.98,10.81
8.770661115646362,-1.36,10.89,4.85,11.99
8.779246091842651,7.84,3.2,10.7,13.64
8.789443969726562,15.15,3.86,22.45,27.35
8.800174236297607,4.84,-2.12,3.32,6.24
8.809487104415894,-0.46,-2.25,-5.98,6.4
8.81934404373169,-1.78,6.83,-5.07,8.69
8.830799102783203,-8.98,14.63,-7.92,18.9
8.839441061019897,-6.99,10.77,-10.62,16.66
8.869533061981201,-3.72,6.17,-5.57,9.1
8.86995792388916,-8.05,-3.19,2.88,9.12
8.870391130447388,-6.36,-5.91,-2.84,9.13
8.879087924957275,-3.93,-3.64,-7.57,9.27
8.889250040054321,-3.45,-2.07,-6.13,7.33
8.900007247924805,-2.98,-0.19,-4.61,5.49
8.909220218658447,-1.75,1.23,-3.91,4.45
8.91936707496643,-0.14,1.57,-2.45,2.91
8.930536031723022,0.77,1.38,-1.67,2.29
8.939260005950928,0.24,0.82,-0.34,0.91
8.969329118728638,-0.87,0.09,0.49,1.0
8.969759941101074,-1.32,-0.22,0.09,1.34
8.970194101333618,-1.33,-0.18,-0.26,1.36
8.978838920593262,-1.49,-0.15,-0.35,1.53
8.989055156707764,-0.96,-0.01,-0.54,1.1
8.99988603591919,0.22,0.23,-0.56,0.64
9.009095191955566,1.14,0.34,-0.79,1.42
9.01898193359375,1.5,0.07,-0.97,1.78
9.030427932739258,1.02,-0.31,-0.64,1.24
9.03908920288086,0.24,-0.54,-0.28,0.65
9.069148063659668,-0.35,-0.31,0.11,0.48
9.069569110870361,-0.54,-0.02,0.92,1.06
9.069983005523682,-0.2,0.18,1.49,1.51
9.07878589630127,0.39,0.25,1.22,1.3
9.088912963867188,0.81,0.26,0.59,1.03
9.099781036376953,0.96,0.12,0.32,1.01
9.108808994293213,1.21,-0.06,0.33,1.25
9.118858098983765,1.81,-0.09,0.86,2.0
9.130330085754395,2.14,-0.11,1.46,2.59
9.138975143432617,2.0,-0.04,1.63,2.58
9.169421195983887,1.52,-0.08,1.32,2.01
9.16982913017273,0.72,-0.16,0.86,1.13
9.17021107673645,-0.14,-0.14,0.43,0.47
9.178692102432251,-0.72,-0.09,0.01,0.72
9.188633918762207,-0.86,-0.02,-0.15,0.87
9.199615955352783,-0.45,-0.03,0.14,0.47
9.208606243133545,0.38,-0.06,0.55,0.67
9.21875524520874,1.0,-0.01,0.93,1.36
9.23019790649414,1.32,0.14,1.12,1.73
9.23882508277893,1.45,0.48,1.14,1.9
9.269337177276611,1.37,0.86,1.3,2.07
9.269718170166016,1.0,1.0,1.65,2.17
9.27009916305542,0.73,1.23,1.73,2.24
9.27842402458191,1.11,1.75,1.43,2.51
9.288547039031982,1.57,2.25,1.29,3.03
9.299407958984375,1.81,2.42,0.82,3.13
9.308589935302734,1.93,2.43,0.34,3.12
9.318579196929932,1.35,2.17,0.82,2.68
9.329994201660156,1.13,2.03,1.39,2.7
9.338551044464111,1.39,2.33,2.08,3.41
9.369596004486084,1.73,2.7,2.64,4.15
9.369982242584229,2.16,3.27,2.99,4.92
9.370363235473633,2.79,3.75,3.38,5.76
9.378326892852783,3.08,4.21,3.9,6.51
9.38842511177063,3.38,5.05,4.22,7.39
9.39935302734375,3.71,5.56,5.09,8.4
9.408489227294922,3.56,6.37,6.27,9.62
9.418395042419434,4.01,7.69,8.09,11.86
9.429563999176025,4.71,8.6,8.52,12.98
9.43844223022461,5.17,8.69,7.41,12.53
9.46908712387085,5.16,8.1,4.74,10.7
9.469474077224731,6.54,8.29,-0.39,10.56
9.46985912322998,7.76,10.0,-5.2,13.68
9.478150129318237,4.24,12.94,-6.07,14.9
9.488184928894043,-1.05,12.49,-1.04,12.57
9.498971939086914,-1.24,9.95,1.35,10.11
9.50854206085205,1.32,7.4,-0.09,7.51
9.518233060836792,3.94,4.24,-0.26,5.79
9.529321193695068,3.15,1.23,2.0,3.92
9.538265228271484,0.08,-1.32,2.33,2.67
9.569361209869385,-2.54,-2.6,-2.87,4.63
9.569749116897583,-1.88,-0.73,-4.27,4.72
9.570137977600098,1.29,0.37,-2.31,2.67
9.57795000076294,5.45,-0.38,0.1,5.46
9.588233947753906,7.52,-1.57,2.38,8.04
9.598817110061646,7.86,-2.8,3.62,9.09
9.608415126800537,7.28,-3.27,3.96,8.9
9.618123054504395,6.51,-3.26,3.79,8.2
9.629234075546265,6.22,-3.15,3.61,7.85
9.638106107711792,5.91,-3.22,3.98,7.81
9.669968128204346,4.69,-3.37,3.8,6.91
9.67035722732544,2.48,-3.14,2.77,4.86
9.670738220214844,0.58,-2.24,1.31,2.65
9.67789101600647,-0.26,-0.96,-0.05,0.99
9.687888145446777,-0.36,0.08,-0.11,0.38
9.698676109313965,-0.15,0.28,0.4,0.51
9.708302974700928,0.56,-0.19,0.31,0.66
9.717893123626709,1.25,-0.49,0.08,1.34
9.729033946990967,1.67,-0.37,-0.3,1.73
9.737922191619873,1.17,-0.22,-0.56,1.31
9.769970893859863,-0.44,0.03,-1.07,1.15
9.770359992980957,-1.79,0.7,-1.69,2.55
9.77075719833374,-3.21,1.64,-2.37,4.31
9.777736186981201,-4.6,2.94,-3.65,6.56
9.78773808479309,-5.98,4.43,-5.04,8.98
9.798498153686523,-7.26,5.55,-6.34,11.12
9.80819320678711,-7.73,5.84,-6.7,11.77
9.817627906799316,-7.64,5.37,-5.53,10.85
9.828902244567871,-7.3,5.05,-4.84,10.11
9.837711095809937,-7.03,6.25,-6.05,11.18
9.869623184204102,-6.87,7.39,-8.15,12.97
9.870016098022461,-6.12,3.98,-5.68,9.24
9.870407104492188,-6.29,-2.4,-3.37,7.52
9.877501964569092,-7.2,-5.95,-6.04,11.12
9.887596130371094,-8.69,-6.86,-6.81,12.99
9.898427963256836,-9.19,-6.8,-5.07,12.5
9.907640933990479,-7.03,-3.82,-5.93,9.95
9.917573928833008,-4.34,-1.02,-6.5,7.88
9.92878007888794,-3.7,-0.24,-4.69,5.97
9.93761920928955,-4.45,-0.23,-3.56,5.7
9.971052169799805,-5.41,-0.37,-4.19,6.85
9.971406936645508,-6.52,-0.69,-5.05,8.27
9.971755981445312,-7.52,-0.85,-5.26,9.21
9.977363109588623,-8.35,3.28,-4.59,10.07
9.987388134002686,-1.88,5.43,-0.06,5.74
9.998234033584595,3.47,-0.19,2.4,4.22
10.007390975952148,6.07,1.91,9.35,11.3
10.017482042312622,8.71,3.76,11.33,14.77
10.028640031814575,3.21,1.85,-1.2,3.89
10.037497997283936,-3.02,12.05,-7.23,14.37
10.070004940032959,-5.36,14.62,-13.68,20.72
10.070375919342041,-0.92,8.1,-8.4,11.7
10.07072901725769,-7.25,-1.54,7.82,10.77
10.077176094055176,-11.94,-6.93,3.07,14.14
10.087393045425415,-8.53,-4.88,-3.49,10.42
10.098039150238037,-5.86,-3.43,-3.44,7.61
10.107317924499512,-2.95,-1.09,-3.9,5.01
10.117273092269897,-1.28,0.69,-3.46,3.75
10.12853193283081,-0.8,1.32,-2.75,3.15
10.137255191802979,0.12,1.0,-2.51,2.7
10.170379161834717,1.06,0.61,-2.35,2.64
10.17073392868042,1.22,0.6,-1.71,2.18
10.17108702659607,0.28,0.49,-0.86,1.02
10.177001953125,-0.97,0.09,-0.92,1.33
10.187160968780518,-1.76,-0.26,-0.91,1.99
10.197922229766846,-1.91,-0.35,-0.34,1.97
10.207008123397827,-1.45,-0.14,-0.32,1.49
10.217137098312378,-0.61,0.09,-0.59,0.85
10.228310108184814,0.29,0.05,-0.68,0.74
10.237133979797363,0.57,-0.03,-0.63,0.85
10.27001404762268,0.02,-0.14,-0.32,0.34
10.27037501335144,-0.67,-0.1,-0.13,0.68
10.270727157592773,-0.85,0.09,-0.14,0.86
10.276901245117188,-0.77,0.18,-0.04,0.79
10.287039041519165,-0.59,0.17,0.04,0.61
10.29756212234497,-0.27,0.1,0.06,0.29
10.306904077529907,0.07,0.11,0.19,0.23
10.316962242126465,0.42,0.13,0.37,0.57
10.327990055084229,0.98,0.21,0.25,1.03
10.336992025375366,1.32,0.3,0.13,1.35
10.371254920959473,1.01,0.2,0.13,1.03
10.371614933013916,0.6,-0.02,0.49,0.77
10.37198805809021,0.7,-0.16,1.11,1.32
10.376692056655884,1.0,-0.18,1.4,1.72
10.386837005615234,1.26,-0.1,1.26,1.78
10.397470951080322,1.5,-0.02,1.59,2.18
10.406726121902466,2.02,-0.1,1.7,2.64
10.416810989379883,2.17,-0.09,1.46,2.61
10.42772912979126,1.83,0.01,1.5,2.36
10.436782121658325,1.65,-0.05,1.59,2.29
10.471970081329346,1.63,-0.05,1.39,2.14
10.472323894500732,1.51,-0.07,1.45,2.09
10.472673892974854,1.58,0.1,1.62,2.26
10.476519107818604,1.82,0.47,1.42,2.35
10.486656188964844,1.76,0.72,1.19,2.24
10.497292041778564,1.53,0.95,1.32,2.23
10.506572246551514,1.37,1.33,1.29,2.3
10.516633987426758,1.53,2.07,1.15,2.81
10.527542114257812,1.96,2.98,1.39,3.82
10.536699056625366,1.87,3.41,1.62,4.21
10.571546077728271,1.96,3.76,1.83,4.61
10.57190203666687,2.1,4.76,1.96,5.55
10.572248935699463,2.81,5.81,2.5,6.92
10.576229095458984,3.68,6.32,3.48,8.09
10.586483001708984,3.92,6.83,4.14,8.89
10.597094058990479,3.69,7.26,4.76,9.43
10.606434106826782,2.68,7.91,5.61,10.06
10.616508960723877,2.43,8.78,7.48,11.78
10.627432107925415,3.56,9.55,8.46,13.24
10.636599063873291,4.8,9.45,7.35,12.89
10.671265125274658,4.93,8.0,6.01,11.15
10.671603202819824,5.27,6.41,3.58,9.03
10.671937942504883,6.17,5.77,-1.7,8.61
10.676100015640259,5.27,7.88,-5.66,11.04
10.686345100402832,1.11,10.75,-3.66,11.41
10.69701099395752,-1.66,10.69,0.34,10.82
10.706238031387329,-0.74,7.94,1.59,8.13
10.71624207496643,2.19,4.81,1.27,5.43
10.72711706161499,2.6,1.7,2.01,3.7
10.736279964447021,-0.33,-0.6,1.27,1.44
10.770409107208252,-3.19,-1.07,-4.48,5.6
10.770742893218994,-0.61,2.14,-4.84,5.32
10.771068096160889,4.77,3.05,-0.32,5.67
10.775940895080566,8.23,1.53,2.36,8.69
10.786166191101074,9.34,-0.46,4.14,10.22
10.796878099441528,8.97,-2.0,4.89,10.41
10.806150913238525,7.6,-2.72,4.64,9.31
10.816190242767334,5.41,-3.02,3.87,7.3
10.827285051345825,3.8,-3.27,3.33,6.01
10.836174011230469,2.89,-3.39,3.09,5.42
10.871990203857422,2.34,-3.33,2.77,4.92
10.872329235076904,1.58,-2.97,2.29,4.06
10.872651100158691,0.8,-2.7,1.75,3.31
10.87596321105957,0.17,-2.76,1.34,3.07
10.886040210723877,0.06,-3.05,1.62,3.45
10.896743059158325,0.23,-3.46,1.7,3.86
10.905928134918213,0.49,-3.43,1.18,3.66
10.916007041931152,0.45,-3.36,0.73,3.46
10.927305221557617,0.24,-3.39,0.44,3.42
10.936129093170166,-0.44,-3.44,0.48,3.5
10.972331047058105,-1.19,-2.99,-0.03,3.21
10.97266411781311,-2.14,-1.96,-1.18,3.13
10.972991943359375,-3.62,-0.64,-3.47,5.05
10.975976943969727,-4.84,0.74,-5.33,7.23
10.985836029052734,-6.0,1.62,-6.21,8.78
10.996361017227173,-7.21,2.24,-6.1,9.7
11.005677223205566,-8.83,2.87,-5.17,10.62
11.015841960906982,-10.75,3.45,-5.56,12.58
11.05289101600647,-10.99,3.74,-7.2,13.66
11.053200244903564,-9.25,4.07,-8.62,13.28
11.053505897521973,-7.41,3.02,-9.2,12.19
11.055593013763428,-5.8,0.16,-7.63,9.58
11.065577030181885,-5.05,-2.26,-5.02,7.47
11.075881958007812,-5.93,-3.6,-5.05,8.58
11.085784912109375,-8.14,-5.11,-6.11,11.38
11.096410036087036,-10.59,-4.49,-7.45,13.7
11.10570502281189,-10.54,0.18,-6.94,12.62
11.115691184997559,-4.98,0.11,-6.85,8.46
11.15514612197876,0.1,6.4,0.07,6.4
11.155482053756714,6.56,4.96,9.26,12.38
11.155806064605713,8.82,0.57,9.1,12.68
11.156129121780396,5.04,-0.53,2.86,5.81
11.165435075759888,0.33,7.05,-4.95,8.62
11.175936222076416,-8.06,15.56,-11.64,21.03
11.185572147369385,-5.35,10.99,-13.64,18.31
11.196201086044312,-6.28,2.31,-0.59,6.71
11.205754041671753,-8.55,-6.71,2.08,11.06
11.215604066848755,-7.86,-5.68,-4.13,10.54
11.25416898727417,-6.92,-3.85,-5.55,9.67
11.25452995300293,-4.65,-1.58,-4.0,6.33
11.255081176757812,-2.43,0.87,-3.05,3.99
11.255401134490967,-0.6,1.53,-1.88,2.49
11.265324115753174,0.64,1.01,-1.01,1.56
11.275310039520264,0.94,0.69,-1.47,1.87
11.285459041595459,0.15,0.4,-1.47,1.53
11.296024084091187,-0.67,0.26,-1.31,1.49
11.305360078811646,-1.05,0.35,-1.21,1.63
11.315396070480347,-1.2,0.34,-1.05,1.63
11.354900121688843,-1.26,0.23,-0.76,1.48
11.355232238769531,-1.05,0.15,-0.58,1.2
11.355561017990112,-0.47,0.2,-0.59,0.78
11.3558931350708,-0.04,0.17,-0.88,0.89
11.36519718170166,0.01,-0.05,-0.99,0.99
11.375148057937622,-0.18,-0.17,-0.55,0.6
11.38532304763794,-0.26,-0.23,-0.07,0.35
11.3960599899292,0.05,-0.23,0.32,0.39
11.405142068862915,0.51,-0.07,0.5,0.71
11.415313243865967,0.66,0.11,0.31,0.73
11.4552321434021,0.5,0.14,0.12,0.53
11.455541133880615,0.41,0.12,0.12,0.44
11.455870151519775,0.61,0.13,0.31,0.69
11.456177234649658,1.03,0.22,0.68,1.25
11.465024948120117,1.28,0.3,0.99,1.64
11.474964141845703,1.15,0.26,1.24,1.71
11.485132217407227,1.07,0.13,1.35,1.72
11.495719909667969,1.02,0.04,1.36,1.7
11.505134105682373,0.73,-0.04,1.33,1.51
11.515035152435303,0.53,0.04,1.04,1.16
11.554317951202393,0.69,0.18,0.8,1.07
11.554832935333252,0.87,0.36,0.72,1.18
11.555139064788818,1.04,0.45,0.92,1.45
11.555438041687012,1.3,0.44,1.2,1.82
11.564839124679565,1.34,0.21,1.74,2.2
11.574798107147217,1.46,0.04,2.15,2.59
11.584942102432251,1.58,0.16,2.38,2.86
11.595669031143188,1.7,0.45,2.19,2.8
11.605012893676758,1.94,1.1,1.97,2.97
11.614988088607788,1.47,1.8,1.88,2.98
11.625854015350342,1.17,2.17,1.54,2.9
11.655033111572266,1.11,2.4,1.64,3.11
11.655345916748047,1.2,2.2,1.99,3.2
11.655649185180664,1.6,2.21,2.2,3.5
11.664677143096924,1.99,2.42,2.32,3.89
11.674636125564575,2.3,2.66,2.44,4.28
11.684758186340332,2.47,3.14,2.44,4.68
11.695555210113525,2.91,4.1,2.52,5.62
11.704864978790283,3.47,4.93,3.12,6.78
11.714753150939941,3.67,5.63,4.26,7.95
11.7257080078125,4.26,6.72,5.91,9.91
11.754441022872925,4.99,7.69,7.11,11.6
11.754746913909912,4.64,8.34,7.59,12.19
11.755048036575317,3.6,8.85,8.35,12.68
11.764479160308838,2.34,8.52,9.11,12.69
11.774410247802734,0.9,6.72,6.6,9.46
11.78467607498169,2.7,5.52,-0.74,6.18
11.795321941375732,5.48,8.16,-6.57,11.82
11.804594993591309,3.78,12.82,-6.6,14.9
11.814598083496094,-0.12,13.8,-1.5,13.88
11.854887008666992,-1.08,11.42,1.72,11.59
11.855639934539795,1.13,7.18,1.07,7.34
11.855961084365845,3.78,2.77,0.71,4.73
11.856266975402832,0.6,0.52,0.35,0.86
11.864341020584106,-4.26,0.13,-3.49,5.5
11.874321937561035,-3.87,1.89,-5.23,6.77
11.884407043457031,1.03,3.29,-1.18,3.64
11.895100116729736,5.58,2.0,2.03,6.26
11.904333114624023,8.33,-0.57,3.94,9.23
11.91442608833313,9.37,-2.49,5.29,11.04
11.925509929656982,8.29,-3.34,5.08,10.28
11.955780982971191,6.75,-3.22,3.97,8.46
11.956082105636597,5.62,-2.98,3.5,7.26
11.956366062164307,4.33,-2.85,3.24,6.11
11.964198112487793,3.12,-2.72,2.98,5.1
11.974133014678955,2.01,-2.73,2.9,4.46
11.984232902526855,1.26,-2.87,2.6,4.07
11.994837045669556,0.82,-3.1,2.17,3.87
12.004224061965942,0.69,-3.39,1.71,3.85
12.014286994934082,0.71,-3.67,1.45,4.0
12.025151014328003,0.69,-3.76,0.83,3.91
12.056648015975952,0.62,-3.68,0.29,3.74
12.056962013244629,0.42,-3.5,-0.21,3.53
12.057253122329712,-0.15,-3.41,-0.46,3.44
12.064051151275635,-1.27,-3.14,-0.89,3.5
12.07402515411377,-2.05,-2.58,-1.71,3.71
12.084172248840332,-2.9,-1.51,-3.04,4.46
12.094604015350342,-4.05,0.21,-4.99,6.43
12.104081153869629,-5.2,1.74,-7.12,8.98
12.114224910736084,-5.83,2.61,-8.22,10.41
12.124988079071045,-5.94,3.53,-7.05,9.87
12.156038045883179,-6.13,4.59,-5.45,9.39
12.156332969665527,-6.72,5.78,-5.69,10.53
12.156620025634766,-7.39,6.65,-6.95,12.13
12.164009094238281,-7.69,7.13,-8.42,13.44
12.173892974853516,-7.45,5.91,-9.07,13.14
12.183913230895996,-6.62,2.01,-6.74,9.65
12.194523096084595,-5.37,-2.73,-5.3,8.02
12.203764915466309,-4.84,-5.23,-6.56,9.68
12.213896036148071,-7.03,-6.17,-7.52,12.0
12.224836111068726,-9.16,-6.52,-5.65,12.58
12.255584239959717,-7.48,-4.29,-5.69,10.33
12.255866050720215,-4.68,-1.29,-7.2,8.68
12.256134986877441,-4.22,0.65,-6.48,7.76
12.263715028762817,-3.78,6.83,-3.7,8.63
12.273802042007446,2.76,8.61,3.06,9.54
12.28382396697998,2.26,2.99,3.72,5.28
12.29453706741333,0.78,2.54,8.48,8.88
12.303797245025635,4.16,3.92,14.51,15.59
12.313753128051758,1.09,-1.34,4.74,5.04
12.3246910572052,-5.22,-1.8,-7.91,9.64
12.356616020202637,-7.54,10.92,-8.95,16.0
12.356908082962036,-4.68,11.79,-14.25,19.07
12.35720705986023,-0.8,7.2,-2.43,7.64
12.363610029220581,-4.58,-2.42,4.73,7.01
12.373748064041138,-6.26,-4.93,-1.95,8.2
12.383683204650879,-5.55,-3.88,-4.65,8.21
12.394540071487427,-4.57,-2.78,-3.81,6.56
12.40366506576538,-2.95,-0.76,-3.34,4.52
12.413629055023193,-1.83,0.85,-2.43,3.15
12.42451000213623,-0.89,1.14,-2.13,2.57
12.456620216369629,-0.16,0.72,-1.97,2.1
12.456914901733398,0.03,0.47,-1.57,1.63
12.457199096679688,-0.41,0.36,-0.56,0.78
12.46336317062378,-0.87,0.07,-0.27,0.91
12.473319053649902,-1.05,-0.02,-0.73,1.27
12.483468055725098,-1.21,0.03,-0.77,1.43
12.494493007659912,-1.17,0.12,-0.61,1.32
12.5034499168396,-0.8,0.21,-0.78,1.13
12.513397216796875,-0.26,0.22,-0.84,0.9
12.52433705329895,0.21,0.12,-0.67,0.71
12.55668592453003,0.51,-0.02,-0.53,0.73
12.556976079940796,0.73,-0.14,-0.24,0.78
12.557262897491455,0.74,-0.18,0.27,0.8
12.563199996948242,0.58,-0.21,0.79,1.0
12.573243141174316,0.59,-0.07,0.93,1.1
12.583300113677979,0.73,0.08,0.84,1.11
12.594370126724243,0.8,0.16,0.39,0.9
12.603247165679932,0.78,0.22,0.21,0.83
12.613326072692871,0.77,0.08,0.59,0.97
12.624252080917358,1.08,-0.03,0.99,1.46
12.656922101974487,1.79,-0.04,1.25,2.18
12.657179117202759,2.31,-0.04,1.7,2.86
12.657451152801514,2.36,-0.08,1.79,2.96
12.663116931915283,1.99,-0.09,1.56,2.53
12.673120021820068,1.27,-0.06,1.14,1.7
12.683218955993652,0.53,-0.01,0.58,0.78
12.694005012512207,0.22,0.13,0.47,0.53
12.703087091445923,0.4,0.25,0.37,0.59
12.713130950927734,0.66,0.29,0.36,0.8
12.723893165588379,0.91,0.34,0.69,1.19
12.757034063339233,1.09,0.31,1.27,1.7
12.757304191589355,1.1,0.43,1.56,1.95
12.757572174072266,0.92,0.6,1.33,1.72
12.762944221496582,0.9,1.08,1.11,1.79
12.77300500869751,0.79,1.8,0.79,2.11
12.783027172088623,0.87,2.63,0.82,2.88
12.793898105621338,0.43,2.8,1.54,3.22
12.80298900604248,1.09,2.75,2.0,3.57
12.812952995300293,1.83,2.76,2.48,4.13
12.823704242706299,2.24,2.88,2.61,4.48
12.857970237731934,2.77,3.34,2.5,5.0
12.858243942260742,3.08,4.04,2.5,5.66
12.858520030975342,3.43,5.05,2.58,6.62
12.862748146057129,4.03,5.85,3.53,7.93
12.872826099395752,4.5,6.51,5.12,9.42
12.88297414779663,5.31,7.47,6.43,11.19
12.893387079238892,6.09,8.33,6.93,12.42
12.902801990509033,6.27,8.64,7.1,12.82
12.912836074829102,5.59,8.27,7.06,12.22
12.923831939697266,5.04,7.6,6.45,11.16
12.958306074142456,4.7,6.83,3.54,9.01
12.958583116531372,4.31,6.61,-1.88,8.11
12.95886516571045,3.36,8.02,-6.53,10.87
12.962657928466797,-0.3,11.46,-5.9,12.89
12.972527027130127,-3.36,11.66,0.07,12.13
12.982713222503662,-1.68,8.76,2.61,9.29
12.993265151977539,2.44,5.29,0.84,5.88
13.002650022506714,2.44,1.76,0.83,3.12
13.012667179107666,-0.55,-0.54,0.81,1.11
13.023530006408691,-3.92,-1.03,-4.54,6.08
13.05761194229126,-1.61,1.86,-5.39,5.92
13.057884216308594,4.1,2.93,-0.04,5.03
13.058151245117188,7.79,1.32,3.4,8.6
13.062487125396729,8.72,-0.85,5.19,10.18
13.072516918182373,8.46,-2.28,6.2,10.73
13.082642078399658,7.17,-2.95,5.66,9.59
13.093041896820068,5.48,-2.99,4.77,7.85
13.102514028549194,4.03,-2.77,4.37,6.55
13.11250114440918,2.84,-2.59,4.01,5.55
13.123348236083984,1.67,-2.5,3.64,4.72
13.158305168151855,0.6,-2.4,3.01,3.89
13.158577919006348,0.01,-2.43,2.35,3.38
13.158843040466309,-0.22,-2.61,1.97,3.27
13.162299156188965,-0.2,-2.84,1.69,3.31
13.174525022506714,-0.03,-2.92,1.09,3.11
13.18241024017334,0.13,-2.86,0.67,2.94
13.19280195236206,-0.12,-2.94,0.49,2.98
13.20231294631958,-0.44,-3.12,0.15,3.15
13.212300062179565,-1.17,-3.38,-0.02,3.57
13.22321605682373,-1.81,-3.51,-0.38,3.96
13.257775068283081,-2.24,-3.16,-1.05,4.01
13.258038997650146,-2.83,-2.14,-2.41,4.28
13.258303165435791,-3.77,-0.72,-4.68,6.05
13.262194156646729,-5.39,0.68,-7.06,8.9
13.272141933441162,-6.67,1.49,-7.38,10.05
13.283370018005371,-6.95,1.8,-5.56,9.08
13.292693138122559,-7.05,2.37,-4.87,8.89
13.30215311050415,-7.35,3.21,-6.43,10.27
13.312137126922607,-7.77,4.03,-8.7,12.34
13.322987079620361,-7.73,4.15,-10.32,13.54
13.358798027038574,-6.89,2.01,-10.31,12.56
13.3590669631958,-5.91,-1.5,-8.58,10.52
13.3593270778656,-5.84,-4.01,-7.67,10.44
13.362038135528564,-7.05,-4.59,-8.56,12.0
13.372148036956787,-8.89,-0.51,-8.35,12.2
13.382074117660522,-6.43,-1.53,-6.05,8.96
13.392516136169434,-4.18,-4.48,-7.19,9.44
13.402054071426392,-2.41,2.74,-2.76,4.57
13.411989212036133,4.29,8.95,13.9,17.07
13.422770977020264,7.92,5.22,15.97,18.57
13.458765029907227,3.23,2.78,-2.19,4.79
13.45903491973877,-1.36,5.89,-5.88,8.43
13.45929503440857,-6.93,9.38,-6.59,13.39
13.461730003356934,-6.57,3.09,-8.46,11.14
13.471817016601562,-3.16,1.17,-2.94,4.47
13.481916904449463,-5.67,-1.8,-1.46,6.12
13.492345094680786,-5.8,-3.01,-5.14,8.31
13.501887083053589,-4.44,-2.02,-6.53,8.15
13.511806964874268,-3.33,-0.89,-5.09,6.14
13.52255916595459,-2.61,0.32,-3.17,4.11
13.559041976928711,-1.51,0.99,-1.73,2.5
13.559307098388672,-0.19,0.73,-0.94,1.2
13.559566974639893,0.22,0.48,-0.62,0.81
13.561614990234375,-0.16,0.39,-1.08,1.15
13.57176399230957,-0.28,0.41,-1.69,1.76
13.581737995147705,-0.1,0.42,-1.66,1.71
13.5923011302948,-0.21,0.31,-1.33,1.38
13.601736068725586,-0.5,0.22,-1.31,1.41
13.611690044403076,-0.77,0.17,-1.33,1.54
13.622467041015625,-0.86,0.04,-1.36,1.6
13.658852100372314,-0.83,-0.06,-1.26,1.51
13.659118175506592,-0.69,-0.11,-1.06,1.26
13.659378051757812,-0.5,-0.1,-0.69,0.85
13.661550045013428,-0.41,-0.08,-0.15,0.44
13.671532154083252,-0.45,-0.01,0.25,0.51
13.681610107421875,-0.52,0.01,0.56,0.76
13.69220495223999,-0.46,0.03,0.79,0.91
13.7015700340271,-0.24,0.1,0.73,0.77
13.711623191833496,0.14,0.15,0.43,0.47
13.722325086593628,0.42,0.18,0.15,0.48
13.759229183197021,0.65,0.19,-0.03,0.67
13.759494066238403,1.04,0.08,0.11,1.04
13.759754180908203,1.28,-0.06,0.51,1.37
13.761504173278809,1.23,-0.12,1.28,1.77
13.771344184875488,1.09,-0.02,1.76,2.07
13.781434059143066,1.11,0.09,1.78,2.09
13.791928052902222,1.46,-0.01,1.59,2.15
13.801368236541748,1.63,-0.12,1.38,2.13
13.812095165252686,1.47,-0.12,1.37,2.01
13.822121143341064,1.36,-0.07,1.29,1.87
13.860321044921875,1.48,-0.06,1.25,1.93
13.860605239868164,1.84,0.07,1.21,2.2
13.861459016799927,2.17,0.25,1.34,2.56
13.861721992492676,2.07,0.27,1.63,2.64
13.871236085891724,1.83,0.21,1.86,2.61
13.881343126296997,1.51,0.38,1.95,2.49
13.891793012619019,1.13,0.89,1.67,2.2
13.901289939880371,1.03,1.59,1.23,2.25
13.911654949188232,0.66,2.23,0.88,2.48
13.92200517654419,0.93,2.93,0.77,3.16
13.96104097366333,1.03,2.91,1.52,3.44
13.96130108833313,0.83,2.51,1.98,3.3
13.96156120300293,1.35,2.65,2.03,3.6
13.96181607246399,1.53,2.9,2.22,3.95
13.971020221710205,1.55,3.71,2.13,4.55
13.981110095977783,2.38,4.9,2.54,6.01
13.991683006286621,3.35,5.62,3.62,7.47
14.001130104064941,3.94,6.01,4.6,8.53
14.011044025421143,4.29,6.51,5.49,9.53
14.021911144256592,4.38,7.39,6.92,11.03
14.060728073120117,4.79,8.59,8.51,13.0
14.060995101928711,5.47,8.58,9.0,13.58
14.061604976654053,5.87,7.34,7.76,12.18
14.06186294555664,5.91,5.73,5.49,9.89
14.070919036865234,6.07,5.61,0.53,8.28
14.080953121185303,5.84,7.36,-4.34,10.34
14.091476917266846,2.48,11.2,-6.3,13.08
14.10090708732605,-2.39,12.41,-1.24,12.69
14.110920906066895,-3.33,9.64,2.3,10.45
14.12170696258545,0.23,6.79,1.59,6.97
14.161345958709717,2.96,3.57,1.28,4.81
14.161608219146729,1.37,1.2,1.7,2.49
14.161869049072266,-2.74,0.28,-1.48,3.12
14.162132024765015,-3.13,2.36,-5.55,6.79
14.170764923095703,1.84,4.75,-2.69,5.76
14.18073320388794,6.76,3.77,1.16,7.82
14.191280126571655,9.47,1.41,3.17,10.08
14.200747966766357,9.71,-0.66,4.62,10.77
14.210784912109375,8.35,-1.76,4.76,9.77
14.22153615951538,6.36,-2.14,3.73,7.67
14.262245178222656,4.65,-2.22,2.71,5.82
14.262507915496826,3.41,-2.18,2.56,4.78
14.262766122817993,2.39,-2.11,2.97,4.35
14.26302719116211,1.52,-1.91,2.99,3.85
14.270564079284668,0.84,-1.67,2.44,3.07
14.28061819076538,0.62,-1.78,1.7,2.53
14.291177034378052,0.71,-2.1,1.16,2.5
14.30063009262085,1.23,-2.51,1.21,3.04
14.310634136199951,1.68,-2.79,1.23,3.48
14.321382999420166,1.9,-2.76,0.69,3.42
14.362183094024658,1.68,-2.86,0.5,3.35
14.362446069717407,0.77,-2.94,0.27,3.05
14.36270809173584,-0.34,-3.02,-0.22,3.04
14.362966060638428,-1.51,-2.75,-1.1,3.32
14.370435237884521,-2.5,-1.99,-2.93,4.33
14.380593061447144,-3.26,-0.89,-5.37,6.34
14.391046047210693,-4.5,-0.06,-7.61,8.84
14.400493144989014,-6.03,0.09,-7.8,9.85
14.410446166992188,-7.03,-0.41,-5.38,8.86
14.421135902404785,-7.7,-0.02,-4.21,8.77
14.462756156921387,-7.89,1.73,-6.47,10.34
14.463022232055664,-8.29,3.22,-8.65,12.4
14.463281154632568,-9.35,3.96,-10.23,14.41
14.463541030883789,-10.49,3.39,-10.83,15.45
14.470376968383789,-10.58,1.15,-9.72,14.41
14.480434894561768,-9.52,-1.97,-9.06,13.28
14.49093508720398,-8.41,-4.7,-8.98,13.17
14.500409126281738,-8.55,-4.54,-8.23,12.7
14.510300159454346,-9.4,0.94,-6.36,11.38
14.5210862159729,-6.11,-1.98,-5.81,8.66
14.562609195709229,-6.21,-3.64,-7.09,10.1
14.562873125076294,-2.18,4.58,0.33,5.08
14.563133239746094,7.31,8.99,18.21,21.58
14.563395977020264,9.92,5.48,9.7,14.91
14.570168018341064,2.42,11.03,-8.55,14.16
14.580254077911377,-5.19,12.61,-12.26,18.33
14.590718030929565,-3.73,3.61,-9.6,10.91
14.600754022598267,-6.31,-1.16,2.2,6.78
14.610218048095703,-8.63,-5.14,0.64,10.06
14.620872020721436,-8.82,-4.29,-6.55,11.79
14.6630220413208,-7.88,-2.56,-6.65,10.62
14.663286209106445,-5.43,-0.53,-3.99,6.75
14.663551092147827,-2.81,0.8,-2.54,3.87
14.663808107376099,-0.76,0.9,-1.62,2.0
14.669953107833862,1.13,0.61,-1.42,1.91
14.67993712425232,2.37,0.58,-1.27,2.75
14.690516948699951,1.52,0.61,-1.42,2.16
14.700109004974365,0.0,0.56,-1.48,1.58
14.710042953491211,-1.04,0.36,-1.1,1.55
14.720747947692871,-1.44,0.02,-0.67,1.58
14.763330936431885,-1.24,-0.06,-0.68,1.41
14.763602018356323,-1.04,-0.01,-0.92,1.38
14.763869047164917,-0.75,0.06,-1.27,1.47
14.764130115509033,-0.23,0.05,-1.14,1.16
14.76993203163147,0.05,-0.03,-0.7,0.7
14.779787063598633,0.08,-0.04,-0.28,0.29
14.7904691696167,0.03,-0.08,-0.04,0.09
14.799866199493408,0.05,-0.14,0.1,0.17
14.809947967529297,0.07,-0.12,0.31,0.33
14.820699214935303,0.12,-0.05,0.39,0.41
14.863468170166016,0.2,0.04,0.29,0.35
14.86372995376587,0.24,0.1,0.17,0.31
14.863991022109985,0.37,0.09,0.11,0.39
14.864253044128418,0.63,0.05,0.01,0.63
14.869708061218262,0.95,0.03,0.04,0.95
14.879640102386475,1.03,0.0,0.44,1.12
14.890312194824219,0.86,-0.03,0.79,1.16
14.899691104888916,0.6,-0.06,0.97,1.14
14.909704208374023,0.63,-0.04,0.89,1.09
14.920473098754883,0.88,0.02,0.74,1.14
14.964293003082275,0.64,-0.06,0.42,0.76
14.964555025100708,-0.06,-0.09,0.08,0.13
14.964797019958496,-0.36,-0.09,-0.03,0.37
14.965054988861084,0.04,-0.15,0.31,0.34
14.969971179962158,1.03,-0.22,0.89,1.37
14.979398012161255,2.13,-0.23,1.62,2.68
14.99007511138916,3.01,-0.18,2.53,3.93
14.99953007698059,3.73,-0.35,3.32,5.0
15.009547233581543,3.75,-0.22,3.48,5.12
15.020318031311035,3.21,0.23,2.48,4.06
15.065101146697998,2.35,0.55,1.69,2.94
15.065368175506592,1.66,0.97,1.06,2.19
15.065629005432129,1.42,1.39,0.87,2.16
15.0658860206604,1.43,1.81,1.04,2.53
15.069344997406006,1.72,2.3,1.12,3.08
15.079406023025513,2.12,3.44,1.26,4.23
15.089957237243652,2.09,4.51,1.88,5.31
15.099329948425293,1.46,5.6,2.28,6.22
15.109396934509277,2.42,6.57,2.59,7.46
15.12017011642456,2.97,6.34,3.67,7.9
15.165163040161133,2.96,6.13,4.54,8.18
15.165425062179565,2.94,6.61,5.47,9.06
15.165685176849365,3.42,7.68,6.51,10.63
15.165945053100586,4.44,8.55,6.96,11.88
15.16935396194458,4.83,9.12,6.72,12.31
15.179301023483276,4.4,8.73,6.86,11.94
15.18977403640747,4.33,7.13,6.33,10.47
15.199207067489624,5.16,5.88,3.53,8.58
15.209367036819458,6.6,5.79,-1.3,8.87
15.219988107681274,6.18,7.6,-6.59,11.8
15.264741897583008,1.6,11.42,-6.62,13.29
15.26500415802002,-2.67,12.32,-1.16,12.65
15.26526403427124,-1.75,10.13,1.24,10.35
15.265525102615356,2.19,6.47,-0.17,6.83
15.26909589767456,3.27,2.4,0.29,4.06
15.279343128204346,1.25,-0.01,1.05,1.63
15.289689064025879,-2.49,-0.65,-4.17,4.9
15.299072027206421,-0.72,2.41,-5.82,6.34
15.309086084365845,4.2,3.79,-1.29,5.8
15.319914102554321,7.62,1.76,1.8,8.02
15.36580514907837,9.31,-0.68,3.82,10.08
15.366066932678223,9.19,-2.27,5.08,10.74
15.366327047348022,7.43,-2.98,4.93,9.4
15.366588115692139,5.58,-2.99,4.09,7.53
15.368922233581543,4.17,-2.74,3.56,6.12
15.379333019256592,3.14,-2.49,3.02,5.01
15.389524936676025,2.52,-2.46,2.73,4.45
15.398918151855469,2.04,-2.57,2.4,4.06
15.408934116363525,1.67,-2.5,1.83,3.51
15.419810056686401,1.38,-2.54,1.55,3.28
15.465342044830322,1.32,-2.88,1.61,3.55
15.46648120880127,1.21,-3.26,1.65,3.84
15.466747045516968,0.95,-3.48,1.15,3.78
15.467008113861084,0.36,-3.72,0.89,3.84
15.468717098236084,-0.35,-4.1,0.68,4.17
15.478745937347412,-0.84,-4.53,0.33,4.61
15.489395141601562,-1.53,-4.8,-0.01,5.03
15.498727083206177,-2.32,-4.7,-0.58,5.27
15.508685111999512,-2.7,-3.98,-1.22,4.96
15.51955795288086,-3.34,-2.77,-2.22,4.87
15.528786182403564,-4.76,-1.2,-3.74,6.17
15.566479206085205,-6.59,0.86,-5.96,8.92
15.566745042800903,-8.13,2.87,-7.36,11.33
15.56701111793518,-9.14,4.33,-6.43,11.98
15.568610191345215,-10.01,5.32,-5.51,12.6
15.578743934631348,-11.07,6.3,-6.6,14.34
15.589292049407959,-11.46,7.0,-8.99,16.16
15.598576068878174,-10.09,5.72,-11.3,16.19
15.60863208770752,-6.76,1.13,-9.47,11.68
15.61939001083374,-4.61,-3.29,-5.84,8.13
15.628763198852539,-5.01,-4.87,-5.47,8.87
15.667073011398315,-8.36,-2.69,-6.16,10.72
15.667334079742432,-9.02,-4.13,-7.31,12.32
15.667594909667969,-8.49,-1.5,-7.12,11.18
15.668431043624878,-2.69,6.42,1.81,7.19
15.678462982177734,7.23,8.84,16.6,20.14
15.688998222351074,10.46,3.94,10.15,15.09
15.698427200317383,4.59,1.16,-2.03,5.15
15.708517074584961,-0.66,6.98,-5.86,9.13
15.719237089157104,-6.46,10.33,-11.67,16.87
15.728575229644775,-3.87,7.35,-9.87,12.9
15.767292022705078,-7.47,1.76,-0.59,7.69
15.767558097839355,-8.73,-5.65,-1.32,10.48
15.768013000488281,-6.31,-4.93,-6.12,10.07
15.76828408241272,-5.05,-3.2,-6.11,8.54
15.778325080871582,-3.46,-1.07,-4.19,5.53
15.788884162902832,-2.05,0.47,-2.66,3.39
15.798302173614502,-1.21,1.09,-1.4,2.14
15.808335065841675,-0.71,0.84,-1.05,1.52
15.818982124328613,-0.48,0.55,-1.2,1.4
15.828303098678589,-0.54,0.55,-0.83,1.13
15.86805009841919,-0.57,0.61,-0.69,1.08
15.868313074111938,-0.43,0.42,-0.83,1.02
15.868571043014526,-0.27,0.14,-0.65,0.71
15.86883020401001,-0.38,-0.04,-0.4,0.55
15.878235101699829,-0.52,-0.12,-0.61,0.81
15.888752937316895,-0.4,-0.14,-0.79,0.89
15.898181915283203,-0.17,-0.08,-0.93,0.94
15.908175945281982,0.13,-0.03,-1.15,1.15
15.918896198272705,0.29,0.05,-0.97,1.01
15.928143978118896,0.21,0.04,-0.44,0.48
15.968725204467773,0.06,0.03,0.16,0.17
15.968991041183472,0.04,0.0,0.68,0.68
15.969238042831421,0.14,0.0,0.95,0.96
15.96949815750122,0.21,0.13,0.75,0.78
15.977946043014526,0.13,0.14,0.14,0.23
15.988562107086182,0.15,0.05,-0.23,0.27
15.997958183288574,0.49,0.04,-0.04,0.49
16.008052110671997,0.9,0.07,0.43,0.99
16.01875591278076,1.16,0.15,0.71,1.36
16.02811622619629,1.18,0.14,1.09,1.61
16.0693039894104,0.93,0.01,1.36,1.64
16.06957197189331,0.63,-0.03,1.32,1.46
16.0698299407959,0.61,-0.02,1.03,1.19
16.070086002349854,0.6,0.0,0.84,1.03
16.077954053878784,0.49,0.14,0.6,0.78
16.088454246520996,0.22,0.23,0.4,0.51
16.097880125045776,0.19,0.29,0.39,0.52
16.10783290863037,0.61,0.21,0.79,1.01
16.118560075759888,1.18,0.2,1.07,1.6
16.12785816192627,1.67,0.24,1.33,2.14
16.169164180755615,1.9,0.38,1.93,2.73
16.169432163238525,1.85,1.01,2.16,3.01
16.169692993164062,1.72,1.65,1.75,2.95
16.1699481010437,1.31,2.27,1.31,2.93
16.177767038345337,1.05,2.66,1.66,3.3
16.18824291229248,1.38,2.79,1.96,3.67
16.197756052017212,1.89,2.88,2.33,4.15
16.207690238952637,2.41,3.05,2.72,4.74
16.2184419631958,2.7,3.39,2.99,5.26
16.2277250289917,2.86,3.93,3.21,5.82
16.269633054733276,3.02,5.14,3.34,6.83
16.26989507675171,3.69,6.44,3.9,8.38
16.27015709877014,4.0,7.13,5.05,9.6
16.27041506767273,3.95,8.12,6.4,11.06
16.277554988861084,4.83,9.78,8.33,13.72
16.28807497024536,5.73,10.82,9.24,15.33
16.297537088394165,5.58,10.76,8.71,14.92
16.30756402015686,5.49,9.42,7.93,13.48
16.318336963653564,5.56,7.24,3.86,9.91
16.327560901641846,6.1,6.9,-2.92,9.66
16.370103120803833,4.62,10.3,-8.01,13.84
16.370369911193848,-0.61,14.35,-4.85,15.15
16.37062907218933,-3.21,12.84,2.3,13.43
16.370886087417603,-1.1,8.58,2.63,9.04
16.37741208076477,2.06,3.94,0.67,4.49
16.387993097305298,0.51,0.84,1.31,1.63
16.397334098815918,-4.07,-0.5,-2.16,4.63
16.40737295150757,-4.09,1.42,-6.53,7.83
16.418103218078613,1.42,3.88,-2.53,4.84
16.427423000335693,6.59,2.8,1.63,7.34
16.470592975616455,9.75,0.02,3.89,10.49
16.470863103866577,10.69,-2.38,5.79,12.38
16.47112202644348,9.26,-3.42,5.53,11.31
16.47139024734497,7.13,-3.46,4.17,8.95
16.47729802131653,5.55,-3.31,3.4,7.3
16.487847089767456,4.37,-3.02,2.87,6.03
16.49716806411743,3.51,-2.92,2.78,5.34
16.507366180419922,2.7,-2.93,2.81,4.87
16.517945051193237,2.23,-3.1,2.44,4.53
16.52738904953003,1.89,-3.43,2.0,4.39
16.571022987365723,1.36,-3.68,1.28,4.12
16.571290016174316,0.87,-4.02,0.78,4.18
16.57155203819275,0.59,-4.16,0.39,4.21
16.571815967559814,0.49,-3.98,0.22,4.01
16.57718515396118,0.39,-3.7,0.13,3.72
16.587615966796875,0.15,-3.65,-0.25,3.66
16.597167015075684,-0.92,-3.35,-0.55,3.51
16.60710096359253,-1.61,-2.44,-1.29,3.19
16.617785930633545,-2.51,-0.83,-2.45,3.6
16.627110958099365,-3.97,1.35,-4.2,5.93
16.671422004699707,-4.79,3.43,-6.48,8.75
16.671690940856934,-5.12,5.08,-7.45,10.36
16.671951055526733,-6.29,6.51,-6.93,11.4
16.672218084335327,-7.75,7.5,-6.44,12.56
16.676952123641968,-8.99,8.33,-6.26,13.76
16.68747091293335,-10.11,9.02,-8.09,15.78
16.697176933288574,-10.59,8.43,-11.92,18.03
16.706933975219727,-9.68,3.16,-11.22,15.15
16.717514038085938,-7.8,-3.77,-7.86,11.69
16.72700595855713,-6.34,-6.1,-5.85,10.56
16.772239208221436,-8.77,-6.08,-5.26,11.89
16.772507190704346,-9.92,-6.85,-4.32,12.8
16.772772073745728,-6.72,-5.1,-4.64,9.62
16.773032188415527,-4.32,-2.35,-6.1,7.83
16.77678608894348,-4.85,2.75,-6.65,8.67
16.787301063537598,0.1,9.11,-0.16,9.11
16.797049045562744,5.96,3.19,4.66,8.21
16.806843042373657,4.79,1.7,4.68,6.9
16.81744408607483,5.25,2.59,7.84,9.78
16.826741218566895,-0.72,-1.91,2.97,3.6
16.872382164001465,-4.75,-1.4,0.54,4.98
16.872644901275635,-4.83,1.46,-2.47,5.61
16.872907161712646,-4.38,5.66,-6.82,9.88
16.873167991638184,-5.72,12.2,-6.23,14.84
16.876599073410034,-4.0,9.22,-10.56,14.57
16.887062072753906,1.46,5.56,-5.53,7.97
16.896727085113525,-4.55,-2.01,1.81,5.29
16.906618118286133,-8.25,-4.88,-2.35,9.86
16.91730809211731,-7.21,-3.93,-6.37,10.39
16.92662000656128,-6.46,-2.61,-5.27,8.73
16.972448110580444,-5.17,-0.25,-4.13,6.62
16.97271490097046,-3.35,1.33,-3.19,4.81
16.972974061965942,-1.13,1.41,-2.45,3.04
16.973233222961426,0.67,1.19,-2.16,2.55
16.97628402709961,0.98,1.02,-1.4,1.99
16.986967086791992,0.09,0.61,-0.95,1.13
16.99646306037903,-0.67,0.17,-1.12,1.31
17.00641703605652,-1.15,-0.18,-0.97,1.51
17.01714515686035,-1.52,-0.37,-0.5,1.64
17.026472091674805,-1.23,-0.34,-0.09,1.27
17.073995113372803,-0.39,-0.01,-0.13,0.41
17.074265003204346,0.27,0.17,-0.44,0.54
17.074522972106934,0.46,0.03,-0.68,0.82
17.074783086776733,0.15,-0.2,-0.59,0.64
17.076269149780273,-0.23,-0.38,-0.3,0.53
17.086807012557983,-0.53,-0.31,0.19,0.64
17.096214056015015,-0.56,-0.14,0.5,0.76
17.106341123580933,-0.32,0.12,0.52,0.62
17.116966247558594,0.14,0.32,0.52,0.62
17.12642502784729,0.66,0.34,0.52,0.9
17.173891067504883,1.06,0.27,0.62,1.25
17.174160957336426,1.1,0.2,0.8,1.37
17.174423217773438,1.11,0.09,0.97,1.47
17.174691200256348,1.32,-0.03,1.34,1.88
17.17613911628723,1.64,-0.29,1.54,2.26
17.186710119247437,1.75,-0.54,1.38,2.29
17.1961669921875,1.64,-0.65,1.56,2.35
17.206170082092285,2.03,-0.48,1.85,2.78
17.21682906150818,2.57,-0.08,1.34,2.89
17.22617816925049,2.37,0.29,0.76,2.5
17.27368402481079,1.52,0.38,0.27,1.58
17.2739520072937,0.96,0.25,-0.02,0.99
17.27420997619629,0.68,0.1,0.38,0.78
17.274468898773193,0.55,0.03,0.9,1.05
17.276057243347168,0.59,0.04,1.17,1.31
17.28653907775879,0.87,-0.07,1.74,1.94
17.29602313041687,1.13,0.04,2.11,2.39
17.305987119674683,1.43,0.41,1.96,2.46
17.316757202148438,1.55,0.79,1.57,2.34
17.325973987579346,1.4,1.21,1.16,2.18
17.374310970306396,1.05,1.82,0.79,2.24
17.374573230743408,0.95,2.34,0.91,2.68
17.37483501434326,0.63,2.84,1.25,3.16
17.3750901222229,1.16,3.22,1.76,3.84
17.37587308883667,1.27,3.45,2.26,4.31
17.38645911216736,1.65,4.5,2.56,5.43
17.395793914794922,3.03,5.72,3.06,7.15
17.405824184417725,4.0,6.44,4.17,8.65
17.416569232940674,4.47,7.33,4.88,9.87
17.425917148590088,4.67,8.12,5.75,10.99
17.47482395172119,4.4,9.13,7.09,12.36
17.47508716583252,4.73,10.56,8.45,14.32
17.475345134735107,5.69,10.56,8.85,14.9
17.47576093673706,5.62,8.96,7.82,13.15
17.476016998291016,5.15,6.81,5.52,10.16
17.48625612258911,4.77,6.4,0.31,7.98
17.495666980743408,4.81,8.57,-4.67,10.88
17.505846977233887,1.69,13.27,-5.86,14.6
17.51642894744873,-2.85,14.04,-2.39,14.52
17.525708198547363,-3.84,10.53,0.31,11.21
17.57554006576538,0.02,5.67,0.98,5.75
17.5757999420166,2.63,1.84,2.4,4.0
17.576056957244873,-1.2,0.07,0.92,1.51
17.576316118240356,-3.43,1.86,-5.38,6.64
17.57657289505005,0.8,4.98,-2.72,5.73
17.586040019989014,4.66,3.63,1.65,6.13
17.595630168914795,8.0,0.41,3.82,8.87
17.605555057525635,10.01,-1.59,4.61,11.13
17.61622905731201,8.66,-2.38,3.47,9.62
17.625545978546143,6.6,-2.58,2.88,7.64
17.67590093612671,5.2,-2.24,3.1,6.45
17.67616891860962,4.26,-1.79,3.02,5.52
17.67643117904663,3.42,-1.77,2.92,4.83
17.676692962646484,2.82,-1.9,2.88,4.45
17.676950931549072,2.66,-1.93,2.82,4.33
17.685848236083984,2.65,-2.03,2.59,4.22
17.69544219970703,2.62,-2.07,2.3,4.05
17.70542001724243,2.48,-2.3,2.25,4.06
17.715963125228882,2.05,-2.67,1.88,3.85
17.725434064865112,1.41,-2.88,1.21,3.42
17.775979042053223,0.37,-3.21,0.76,3.31
17.776246070861816,-0.59,-3.8,0.56,3.88
17.77650809288025,-1.18,-4.44,0.34,4.6
17.77676510810852,-1.52,-5.09,0.13,5.31
17.77702307701111,-1.63,-5.56,-0.1,5.79
17.785738945007324,-1.78,-5.61,-0.12,5.88
17.795226097106934,-2.29,-5.29,-0.76,5.81
17.80522108078003,-2.91,-4.79,-1.96,5.93
17.81574821472168,-3.94,-4.06,-2.91,6.36
17.825250148773193,-5.34,-2.76,-4.28,7.37
17.8765070438385,-6.18,-0.86,-5.98,8.64
17.876774072647095,-6.12,1.32,-6.54,9.05
17.877048015594482,-5.63,3.79,-6.48,9.38
17.87731695175171,-5.24,6.36,-7.09,10.87
17.87757921218872,-5.97,7.74,-8.71,13.09
17.88555407524109,-7.97,7.11,-10.88,15.24
17.89508295059204,-10.37,5.12,-12.67,17.15
17.905046939849854,-11.2,1.71,-12.52,16.88
17.915616989135742,-9.65,-2.39,-9.87,14.0
17.925201892852783,-6.57,-3.78,-8.4,11.31
17.977206230163574,-5.54,-3.65,-8.4,10.7
17.977482080459595,-7.09,0.62,-6.39,9.56
17.977744102478027,-4.12,-1.29,-4.61,6.31
17.9780011177063,1.51,1.67,-0.3,2.27
17.978260040283203,8.01,7.71,19.09,22.09
17.985383987426758,9.35,3.62,16.29,19.12
17.994892120361328,2.11,0.41,1.37,2.54
18.00494623184204,-2.6,0.73,-4.66,5.38
18.01572012901306,-6.75,9.62,-7.58,13.98
18.0249080657959,-8.06,10.99,-10.76,17.36
18.076975107192993,-2.66,7.39,-7.38,10.77
18.077235221862793,-6.03,-0.97,-0.44,6.12
18.077494144439697,-6.3,-5.66,-3.11,9.02
18.0777530670166,-3.85,-4.19,-6.85,8.9
18.078011989593506,-3.12,-2.36,-5.83,7.02
18.085265159606934,-3.16,0.19,-3.95,5.06
18.09470224380493,-2.64,1.27,-2.87,4.1
18.10484004020691,-1.56,0.8,-1.91,2.59
18.115747928619385,-0.69,0.42,-1.73,1.9
18.124774932861328,-0.18,0.44,-0.87,0.99
18.177004098892212,-0.36,0.35,0.03,0.5
18.177271127700806,-1.04,0.19,-0.42,1.13
18.17753505706787,-1.59,0.06,-1.09,1.92
18.177791118621826,-1.63,0.11,-1.02,1.92
18.178051948547363,-0.99,0.25,-0.96,1.4
18.18515920639038,-0.05,0.2,-1.37,1.38
18.194644927978516,0.37,0.18,-1.83,1.87
18.204678058624268,0.32,0.1,-1.86,1.88
18.25951910018921,0.09,-0.03,-1.4,1.4
18.259788990020752,-0.06,-0.11,-0.64,0.65
18.260047912597656,-0.08,-0.08,0.35,0.36
18.260304927825928,0.0,0.0,0.94,0.94
18.260560035705566,0.37,0.15,1.19,1.25
18.264817237854004,0.74,0.3,1.37,1.58
18.274485111236572,0.82,0.24,0.78,1.15
18.284977912902832,0.65,0.12,0.02,0.66
18.294442176818848,0.72,-0.05,0.26,0.76
18.304609060287476,1.42,-0.04,0.92,1.69
18.36161518096924,2.06,0.11,1.5,2.55
18.361877918243408,2.13,0.15,1.61,2.67
18.362144947052002,1.94,0.07,1.52,2.46
18.362406015396118,1.57,-0.09,1.35,2.07
18.362669944763184,0.96,-0.05,0.95,1.35
18.364341020584106,0.51,0.22,0.4,0.68
18.37442398071289,0.27,0.49,0.02,0.55
18.384851932525635,0.29,0.8,-0.1,0.85
18.394300937652588,0.46,0.99,0.2,1.1
18.404338121414185,0.72,0.88,0.66,1.31
18.461974143981934,1.26,0.77,1.15,1.87
18.462237119674683,1.86,0.81,1.75,2.67
18.462497234344482,2.23,1.27,2.57,3.63
18.462759017944336,1.71,1.63,2.95,3.77
18.463014125823975,1.57,2.05,2.78,3.79
18.464179039001465,1.76,2.34,2.77,4.03
18.474249124526978,1.83,2.08,3.05,4.12
18.484745025634766,2.27,2.06,3.2,4.43
18.494175910949707,3.03,2.59,3.5,5.3
18.504228115081787,3.91,3.59,3.74,6.49
18.562616109848022,4.54,5.33,3.73,7.93
18.56287908554077,5.3,7.29,3.68,9.73
18.563138008117676,5.36,7.68,4.75,10.5
18.563399076461792,4.04,8.28,6.1,11.04
18.563828945159912,4.87,9.7,8.0,13.48
18.564088106155396,5.8,9.96,8.48,14.3
18.574191093444824,4.99,9.28,7.55,12.96
18.584490060806274,4.26,8.13,5.88,10.9
18.594006061553955,4.23,6.81,1.17,8.1
18.604054927825928,4.91,6.82,-5.53,10.05
18.61483407020569,3.33,9.88,-9.29,13.96
18.663774013519287,-1.16,12.87,-5.63,14.09
18.66404914855957,-1.88,11.94,-0.3,12.09
18.664313077926636,1.42,8.37,-0.44,8.5
18.664577960968018,3.62,3.82,-1.94,5.6
18.665171146392822,2.56,0.45,-0.29,2.61
18.67394208908081,-1.64,-1.8,-2.01,3.15
18.68454122543335,-3.53,-0.06,-6.98,7.82
18.693918228149414,0.93,3.34,-3.09,4.64
18.703877925872803,5.43,3.04,1.41,6.38
18.714599132537842,7.49,0.64,3.98,8.5
18.76421022415161,8.28,-1.39,6.17,10.41
18.764473915100098,7.83,-2.13,5.78,9.96
18.764745235443115,6.5,-2.06,3.76,7.78
18.765331029891968,5.11,-2.24,2.93,6.3
18.765576124191284,4.19,-2.78,2.93,5.81
18.773824214935303,3.69,-3.27,3.24,5.89
18.784480094909668,2.82,-3.56,3.58,5.78
18.79393196105957,1.44,-3.74,3.26,5.16
18.803921222686768,0.34,-3.95,2.75,4.82
18.814402103424072,-0.06,-4.3,2.65,5.05
18.86506223678589,0.04,-4.68,2.58,5.34
18.865324020385742,0.23,-4.85,2.45,5.43
18.86558198928833,0.13,-4.81,2.01,5.21
18.865827083587646,-0.21,-4.81,1.47,5.03
18.866117000579834,-0.75,-5.03,1.06,5.19
18.873616218566895,-1.26,-5.14,0.41,5.3
18.884021043777466,-1.61,-5.02,-0.27,5.27
18.89353895187378,-2.06,-4.53,-1.12,5.1
18.903575897216797,-2.72,-3.59,-1.88,4.88
18.914233207702637,-3.48,-2.13,-2.82,4.95
18.966252088546753,-4.27,-0.06,-3.97,5.83
18.96656107902527,-4.96,2.63,-4.69,7.31
18.96684694290161,-5.46,6.17,-5.5,9.9
18.967109203338623,-5.3,10.14,-6.16,12.99
18.967388153076172,-4.96,13.52,-6.15,15.65
18.973963022232056,-6.39,15.31,-6.35,17.76
18.983784198760986,-9.15,13.95,-8.61,18.77
18.993392944335938,-10.17,7.08,-8.93,15.27
19.003400087356567,-9.88,-4.34,-4.94,11.86
19.01411199569702,-9.34,-11.83,-5.58,16.07
19.066383123397827,-8.26,-11.66,-6.57,15.72
19.066648960113525,-7.39,-7.62,-5.51,11.95
19.066915035247803,-4.58,-2.76,-7.25,9.0
19.067182064056396,-2.5,3.31,-7.1,8.22
19.06745409965515,1.08,6.87,-1.24,7.06
19.073259115219116,1.21,3.83,1.22,4.19
19.08370590209961,-0.36,3.27,2.68,4.24
19.093276023864746,2.91,6.97,11.47,13.73
19.10324716567993,3.75,6.15,10.1,12.4
19.113873958587646,-5.23,7.43,-11.64,14.76
19.167042016983032,-4.8,12.76,-14.81,20.12
19.16730499267578,-9.59,9.06,-3.08,13.54
19.167563915252686,-10.93,-5.97,5.2,13.49
19.167820930480957,-7.03,-7.83,-2.57,10.83
19.16807794570923,-4.06,-4.58,-4.73,7.73
19.173078060150146,-2.45,-2.8,-3.93,5.41
19.183557987213135,-1.51,-0.34,-4.09,4.37
19.19303798675537,-0.92,1.17,-3.86,4.13
19.203108072280884,-1.28,0.79,-3.4,3.71
19.21373224258423,-2.52,-0.12,-3.14,4.02
19.266683101654053,-2.74,-0.14,-3.21,4.22
19.26695489883423,-1.87,0.79,-2.29,3.06
19.267219066619873,-0.92,1.39,-0.48,1.73
19.26747989654541,-0.49,1.16,-0.2,1.27
19.267742156982422,-0.57,0.52,-0.9,1.18
19.27303409576416,-0.8,0.05,-0.97,1.25
19.283348083496094,-0.83,-0.22,-0.64,1.07
19.292866230010986,-0.62,-0.32,-0.75,1.02
19.302930116653442,-0.3,-0.29,-0.74,0.84
19.313584089279175,-0.03,-0.29,-0.39,0.48
19.36684513092041,0.02,-0.18,-0.01,0.18
19.367112159729004,0.04,-0.03,0.07,0.08
19.367356061935425,0.21,0.04,0.07,0.22
19.367624044418335,0.4,0.03,0.25,0.47
19.367866039276123,0.53,0.03,0.38,0.65
19.37291717529297,0.46,0.01,0.58,0.74
19.383337020874023,0.42,0.04,0.68,0.8
19.39276909828186,0.6,0.06,0.36,0.7
19.40274405479431,0.97,0.11,0.16,0.98
19.413486003875732,1.24,0.14,0.06,1.24
19.46682596206665,1.33,0.16,0.04,1.34
19.467094898223877,1.15,0.19,0.4,1.23
19.467339038848877,0.83,0.19,0.73,1.12
19.467600107192993,0.63,0.07,0.97,1.15
19.467844009399414,0.49,-0.06,0.97,1.08
19.47265100479126,0.51,-0.26,0.93,1.09
19.483338117599487,0.67,-0.36,0.99,1.24
19.49267601966858,0.86,-0.26,0.68,1.12
19.502663135528564,0.7,-0.02,0.36,0.78
19.51336097717285,0.59,0.21,0.28,0.68
19.567445039749146,0.93,0.3,0.54,1.11
19.567707061767578,1.26,0.24,0.82,1.52
19.567965984344482,1.33,0.17,1.05,1.7
19.56822395324707,1.5,0.14,1.64,2.22
19.568481922149658,1.56,0.25,2.35,2.83
19.572511196136475,1.71,0.83,1.93,2.7
19.583324909210205,1.69,1.62,1.3,2.67
19.592559099197388,1.83,2.37,1.16,3.21
19.602516174316406,1.62,2.66,1.3,3.37
19.61314105987549,1.38,3.05,1.85,3.82
19.668476104736328,2.07,3.38,2.31,4.58
19.668745040893555,2.68,3.71,2.85,5.39
19.669007062911987,3.11,3.99,3.35,6.06
19.66926908493042,3.33,4.8,3.57,6.84
19.66952610015869,3.55,6.68,3.26,8.23
19.672393083572388,4.48,8.16,3.82,10.06
19.683202028274536,4.15,8.58,5.1,10.8
19.692280054092407,3.39,9.54,6.63,12.1
19.702385902404785,4.37,10.51,7.88,13.84
19.712997913360596,5.98,10.89,7.63,14.57
19.768726110458374,6.32,10.08,6.79,13.69
19.768994092941284,5.89,8.33,5.58,11.62
19.769252061843872,5.69,6.68,1.61,8.92
19.769509077072144,4.66,6.93,-3.9,9.21
19.769768238067627,1.6,9.77,-6.47,11.82
19.772322177886963,-2.09,12.76,-2.52,13.17
19.783006191253662,-1.76,11.48,1.54,11.71
19.792136192321777,1.48,7.55,0.92,7.74
19.802152156829834,1.58,3.25,0.49,3.64
19.813136100769043,-0.49,-0.25,1.3,1.41
19.86932611465454,-3.51,-1.8,-3.65,5.37
19.869596004486084,-1.77,1.65,-5.96,6.43
19.86985492706299,3.59,3.96,-0.97,5.43
19.870115041732788,7.68,2.52,2.26,8.39
19.870378017425537,9.47,0.1,4.26,10.38
19.871962070465088,9.47,-1.83,5.45,11.07
19.882850170135498,8.12,-2.7,5.07,9.94
19.892096996307373,5.97,-2.89,3.95,7.71
19.902016162872314,4.5,-2.77,2.95,6.05
19.912725925445557,3.9,-2.63,2.45,5.3
19.97014307975769,3.51,-2.67,2.33,4.98
19.970407009124756,2.94,-2.69,2.03,4.47
19.970706939697266,2.2,-2.63,1.39,3.69
19.971002101898193,1.53,-2.55,0.87,3.09
19.971298217773438,1.19,-2.38,0.31,2.67
19.97181510925293,1.29,-2.34,0.48,2.71
19.98232412338257,1.44,-2.51,0.63,2.96
19.991837978363037,1.41,-2.6,0.71,3.04
20.001935958862305,0.86,-2.72,0.46,2.88
20.01255512237549,-0.29,-2.53,-0.01,2.54
20.070292949676514,-1.34,-2.04,-1.08,2.66
20.070563077926636,-2.45,-1.49,-2.12,3.56
20.070827960968018,-3.28,-0.22,-3.55,4.83
20.071101188659668,-3.74,1.37,-6.08,7.26
20.071378231048584,-4.66,2.48,-7.68,9.31
20.07180905342102,-6.02,2.58,-6.88,9.49
20.08224105834961,-7.94,2.27,-5.56,9.95
20.091702938079834,-10.23,2.56,-6.65,12.46
20.10179305076599,-10.36,2.92,-8.11,13.47
20.112398147583008,-8.98,3.01,-8.75,12.89
20.170132160186768,-8.49,2.92,-9.79,13.28
20.17039704322815,-8.5,1.72,-10.26,13.43
20.170656204223633,-8.0,-0.95,-9.06,12.12
20.170944213867188,-7.35,-4.04,-8.44,11.89
20.17121696472168,-7.83,-5.47,-8.16,12.56
20.17163610458374,-9.7,-5.15,-6.97,13.0
20.1820170879364,-10.01,-4.11,-6.49,12.61
20.19157123565674,-8.23,-2.69,-7.39,11.38
20.20155096054077,-7.49,2.33,-8.06,11.24
20.212189197540283,-0.75,7.86,-1.65,8.06
20.269328117370605,7.2,4.62,6.0,10.44
20.269594192504883,9.14,2.89,10.93,14.53
20.26988697052002,6.8,1.1,10.14,12.25
20.270148038864136,2.8,0.39,0.68,2.9
20.27041006088257,-0.03,8.23,-7.69,11.26
20.271448135375977,-4.76,16.56,-13.55,21.92
20.28186011314392,-3.41,9.71,-11.81,15.66
20.29132890701294,-5.86,0.25,3.12,6.64
20.301452159881592,-10.33,-5.89,1.81,12.02
20.312042236328125,-8.61,-4.88,-4.59,10.9
20.369709968566895,-7.28,-3.91,-4.3,9.31
20.369972229003906,-6.1,-2.06,-3.89,7.52
20.370238065719604,-5.07,0.35,-3.64,6.25
20.370497226715088,-3.13,1.44,-3.21,4.7
20.370774030685425,-0.39,1.28,-2.53,2.86
20.3712100982666,1.32,1.09,-1.69,2.4
20.381680011749268,1.22,1.09,-1.12,1.98
20.39125919342041,0.61,0.72,-1.34,1.63
20.401278018951416,0.0,0.16,-1.82,1.82
20.411899089813232,-1.03,-0.25,-1.48,1.82
20.46928906440735,-1.87,-0.38,-0.67,2.02
20.469556093215942,-1.88,-0.25,-0.17,1.9
20.469826221466064,-0.96,-0.03,-0.4,1.04
20.470088958740234,0.62,-0.04,-1.06,1.22
20.47033405303955,1.43,-0.04,-1.01,1.75
20.471086025238037,0.95,-0.11,-0.24,0.98
20.481576919555664,0.09,-0.17,0.26,0.32
20.49109697341919,-0.01,0.05,0.34,0.34
20.501097202301025,0.32,0.33,0.45,0.64
20.511786937713623,0.46,0.29,0.54,0.76
20.569572925567627,0.45,0.05,0.38,0.59
20.56983709335327,0.53,-0.01,0.2,0.56
20.570096015930176,0.86,0.08,0.18,0.88
20.570355892181396,1.35,0.21,0.36,1.41
20.570784091949463,1.7,0.28,0.92,1.95
20.571043014526367,1.69,0.17,1.43,2.22
20.58130693435669,1.26,-0.1,1.64,2.07
20.590845108032227,0.71,-0.33,1.59,1.77
20.600815057754517,0.73,-0.51,1.49,1.73
20.611550092697144,0.83,-0.57,1.32,1.66
20.66945791244507,0.72,-0.34,1.03,1.3
20.669719219207764,0.76,0.0,0.69,1.02
20.669976234436035,0.84,0.24,0.42,0.96
20.670236110687256,1.12,0.29,0.36,1.21
20.670669078826904,1.28,0.22,0.66,1.45
20.670907974243164,1.49,0.22,0.91,1.75
20.681171894073486,1.61,0.19,1.27,2.05
20.690612077713013,1.74,0.41,1.73,2.48
20.700674057006836,1.91,0.89,1.78,2.75
20.711441040039062,2.02,1.43,1.49,2.88
20.769368171691895,1.84,1.92,1.39,3.0
20.76962900161743,2.06,2.52,1.52,3.59
20.769885063171387,2.46,3.43,2.44,4.87
20.770144939422607,2.27,3.44,3.22,5.23
20.770566940307617,2.99,3.85,3.21,5.83
20.770822048187256,3.21,4.34,3.53,6.44
20.780986070632935,3.19,5.51,3.26,7.15
20.790537118911743,3.75,6.98,3.5,8.66
20.800509929656982,4.04,7.95,4.34,9.91
20.811232089996338,3.66,8.71,5.61,10.98
20.869861125946045,3.38,9.89,7.67,12.96
20.870309114456177,4.12,11.42,8.38,14.75
20.87057113647461,5.77,12.24,8.12,15.78
20.870831966400146,5.83,10.88,7.73,14.56
20.871092081069946,5.54,8.36,5.45,11.41
20.87135124206543,5.9,6.36,-0.08,8.67
20.881004095077515,4.79,7.36,-6.3,10.8
20.890439987182617,0.08,11.81,-6.05,13.26
20.900472164154053,-4.49,13.2,0.54,13.95
20.911176204681396,-2.43,10.41,1.8,10.84
20.97060489654541,1.81,5.48,0.27,5.77
20.97087001800537,1.08,1.12,1.16,1.94
20.971131086349487,-2.21,-1.24,-0.93,2.69
20.971394062042236,-3.02,0.01,-5.81,6.54
20.971655130386353,1.34,3.34,-2.6,4.43
20.971915245056152,6.19,2.76,1.79,7.0
20.980863094329834,9.08,0.05,4.21,10.0
20.990369081497192,10.4,-2.39,5.92,12.2
21.000627040863037,9.37,-3.48,5.69,11.5
21.01108407974243,6.19,-3.21,4.21,8.14
21.071424961090088,3.73,-2.4,3.03,5.37
21.071692943572998,2.52,-1.97,2.41,4.0
21.071959018707275,2.02,-1.83,2.02,3.39
21.07221508026123,1.82,-1.7,1.6,2.96
21.07247805595398,1.74,-1.81,1.0,2.7
21.07274103164673,1.47,-2.06,0.64,2.61
21.080697059631348,1.22,-2.22,0.59,2.6
21.09015989303589,1.24,-2.44,0.87,2.87
21.10056710243225,1.51,-2.86,1.14,3.42
21.11090111732483,1.53,-3.21,0.96,3.68
21.171643018722534,1.11,-3.4,0.58,3.62
21.17192316055298,0.21,-3.43,0.19,3.44
21.1721830368042,-0.6,-3.54,-0.18,3.59
21.17244291305542,-1.43,-3.18,-0.79,3.57
21.172701120376587,-2.37,-2.41,-2.61,4.27
21.172965049743652,-3.62,-1.34,-5.89,7.04
21.180490016937256,-5.09,-0.36,-8.22,9.67
21.19002389907837,-5.79,-0.33,-6.65,8.82
21.200003147125244,-6.01,-0.84,-3.59,7.05
21.210780143737793,-6.52,-0.17,-3.92,7.6
21.27229905128479,-7.46,1.38,-6.46,9.96
21.272565126419067,-8.63,2.84,-8.24,12.26
21.272830963134766,-9.37,3.8,-9.25,13.7
21.273087978363037,-9.69,3.29,-9.34,13.85
21.273351192474365,-9.56,1.48,-8.77,13.05
21.273608207702637,-8.58,-0.26,-8.34,11.96
21.280261039733887,-7.36,-0.96,-7.89,10.83
21.289963245391846,-6.7,-1.6,-7.0,9.82
21.299859046936035,-6.68,-2.83,-5.93,9.36
21.31052017211914,-6.82,-3.61,-5.04,9.21
21.3717679977417,-6.7,-3.6,-4.68,8.93
21.37203598022461,-6.2,-3.33,-4.53,8.36
21.37229824066162,-6.26,-2.24,-4.96,8.29
21.372559070587158,-5.87,4.44,-4.71,8.73
21.37281894683838,3.23,4.69,1.83,5.98
21.37308120727539,9.33,2.68,9.84,13.82
21.380256175994873,9.84,3.48,11.2,15.3
21.389720916748047,4.55,3.87,6.28,8.66
21.399659156799316,-0.98,4.41,-2.4,5.11
21.410347938537598,-4.43,9.6,-5.24,11.8
21.47139310836792,-7.18,10.93,-6.7,14.69
21.471667051315308,-4.48,5.48,-8.54,11.09
21.471930027008057,-7.05,3.47,1.68,8.03
21.47219705581665,-9.25,-3.36,2.7,10.2
21.472454071044922,-6.36,-4.47,-3.38,8.47
21.472712993621826,-4.75,-3.07,-5.82,8.11
21.480045080184937,-3.62,-1.0,-5.06,6.3
21.489551067352295,-2.82,0.93,-3.91,4.9
21.499510049819946,-1.57,1.34,-3.6,4.14
21.51016616821289,-0.33,0.6,-2.56,2.65
21.57103705406189,0.16,0.34,-1.88,1.91
21.57130193710327,0.09,0.54,-1.03,1.16
21.571595191955566,-0.73,0.55,-0.19,0.93
21.57185697555542,-1.43,0.25,-0.38,1.5
21.572118043899536,-1.76,-0.15,-0.44,1.82
21.57237410545349,-1.51,-0.35,-0.14,1.55
21.579864978790283,-0.51,-0.16,-0.1,0.54
21.589359045028687,1.02,0.02,-0.31,1.06
21.59935212135315,2.04,0.01,-0.73,2.16
21.61003303527832,2.01,-0.22,-1.04,2.27
21.671398162841797,0.86,-0.3,-1.04,1.38
21.67166805267334,-0.41,-0.04,-0.91,0.99
21.671929121017456,-0.83,0.2,-0.77,1.14
21.67217707633972,-0.83,0.19,-0.53,1.0
21.672432899475098,-0.81,-0.05,0.07,0.81
21.672691106796265,-0.62,-0.18,0.48,0.8
21.679692029953003,-0.07,-0.04,0.39,0.39
21.689208030700684,0.73,0.13,0.27,0.78
21.699270248413086,1.35,0.23,0.45,1.44
21.70985221862793,1.68,0.26,0.51,1.77
21.771320104599,1.53,0.16,0.45,1.6
21.771585941314697,1.03,-0.02,0.62,1.2
21.771849155426025,0.52,-0.2,0.6,0.81
21.772106170654297,0.23,-0.33,0.58,0.7
21.772361040115356,0.35,-0.39,0.66,0.84
21.77259922027588,0.8,-0.39,0.9,1.26
21.779629230499268,1.41,-0.2,1.17,1.84
21.789112091064453,1.95,0.08,1.32,2.35
21.799153089523315,2.01,0.17,0.93,2.22
21.80973720550537,1.73,0.07,0.51,1.8
21.872108936309814,1.53,-0.01,0.87,1.76
21.872374057769775,1.46,-0.1,1.37,2.0
21.872637033462524,1.54,-0.06,1.63,2.24
21.872899055480957,1.91,0.22,1.99,2.76
21.873165130615234,2.29,0.38,2.27,3.24
21.873430013656616,2.3,0.44,2.36,3.32
21.879432201385498,2.08,0.51,2.04,2.95
21.888981103897095,1.88,0.66,1.66,2.59
21.898917198181152,1.67,1.19,1.14,2.34
21.909632205963135,1.43,1.71,0.71,2.33
21.972558975219727,1.53,2.61,0.6,3.08
21.972826957702637,1.79,3.62,1.34,4.25
21.97309923171997,1.17,4.3,2.22,4.97
21.973355054855347,1.82,5.75,2.33,6.46
21.973613023757935,3.09,7.52,2.76,8.58
21.973876953125,4.14,7.76,4.24,9.76
21.97920799255371,3.78,8.26,4.7,10.22
21.98877716064453,3.29,8.75,5.47,10.83
21.998703002929688,2.6,10.04,6.86,12.43
22.00947093963623,3.65,10.95,8.43,14.29
22.072611093521118,5.3,10.84,7.67,14.29
22.07287311553955,5.94,9.44,6.19,12.75
22.073130130767822,6.12,7.49,3.94,10.44
22.07338809967041,7.15,6.43,-0.57,9.63
22.07364797592163,6.25,7.66,-4.81,10.99
22.07390308380127,1.78,9.83,-4.08,10.79
22.07922601699829,-1.86,10.8,-0.48,10.96
22.08872103691101,-1.27,8.96,0.28,9.05
22.098963022232056,1.96,5.45,0.26,5.79
22.10935115814209,2.52,1.74,1.67,3.48
22.173274040222168,-0.92,-1.37,1.08,1.97
22.17353916168213,-4.48,-1.73,-5.27,7.12
22.173810958862305,-0.71,2.21,-5.62,6.08
22.174074172973633,5.56,3.67,-0.42,6.67
22.17434310913086,9.15,2.18,2.64,9.76
22.174604892730713,10.69,-0.19,4.16,11.47
22.178956985473633,10.58,-1.91,5.0,11.85
22.188534021377563,8.21,-2.54,4.41,9.65
22.198447227478027,5.69,-2.48,3.01,6.89
22.209132194519043,4.04,-2.36,2.07,5.11
22.273136138916016,2.94,-2.44,1.82,4.23
22.273401021957397,2.24,-2.58,1.8,3.86
22.273663997650146,1.51,-2.68,1.44,3.39
22.273925065994263,0.91,-2.55,0.94,2.86
22.27418303489685,0.6,-2.45,1.08,2.74
22.274442195892334,0.71,-2.59,1.36,3.01
22.278794050216675,1.11,-2.85,1.76,3.52
22.288307189941406,1.39,-2.91,1.74,3.66
22.29833221435547,1.41,-2.7,1.29,3.3
22.308977127075195,1.13,-2.76,1.03,3.15
22.373398065567017,0.36,-3.0,0.85,3.13
22.3736629486084,-0.44,-3.08,0.61,3.17
22.373926162719727,-1.09,-2.67,0.3,2.89
22.37418508529663,-1.78,-1.86,-0.78,2.69
22.374445915222168,-2.72,-0.84,-2.45,3.75
22.37470293045044,-3.79,0.32,-4.33,5.76
22.37865400314331,-4.88,1.52,-5.04,7.17
22.38813591003418,-5.99,2.64,-4.11,7.72
22.39812421798706,-7.22,4.19,-3.45,9.03
22.40885019302368,-8.55,6.04,-4.95,11.57
22.473417043685913,-9.98,7.27,-7.94,14.67
22.47368621826172,-10.12,7.54,-11.36,16.97
22.473947048187256,-9.43,5.36,-13.49,17.3
22.47420907020569,-11.12,0.26,-11.96,16.33
22.47447395324707,-12.05,-5.16,-8.58,15.66
22.474733114242554,-10.38,-5.98,-7.86,14.32
22.478424072265625,-10.81,-5.42,-7.75,14.36
22.48795509338379,-11.97,-5.67,-6.77,14.87
22.49803113937378,-12.05,-4.81,-5.93,14.26
22.508636951446533,-10.55,-3.62,-5.77,12.55
22.57195806503296,-7.73,1.02,-5.32,9.43
22.573331117630005,-0.81,5.42,0.26,5.48
22.573605060577393,5.59,1.59,4.13,7.12
22.573875904083252,5.34,7.44,11.13,14.41
22.574138164520264,2.72,13.13,2.88,13.71
22.574400901794434,3.82,21.32,-16.54,27.25
22.578418016433716,8.27,21.15,-13.32,26.32
22.588674068450928,4.2,-3.42,2.61,6.01
22.597848892211914,-9.39,-15.24,3.09,18.16
22.608508110046387,-15.23,-10.92,-1.74,18.82
22.618017196655273,-15.69,-3.65,-2.94,16.37
22.67271900177002,-9.35,0.22,-3.47,9.97
22.672986030578613,-2.14,2.32,-2.69,4.14
22.673253059387207,2.19,2.39,-0.39,3.26
22.67351007461548,2.88,0.9,-0.97,3.16
22.67376708984375,2.95,-0.05,-2.56,3.9
22.67815113067627,2.67,0.37,-2.46,3.64
22.687684059143066,1.35,1.09,-1.74,2.45
22.697711944580078,0.08,0.95,-0.99,1.37
22.708349227905273,-0.5,0.25,-0.88,1.04
22.717737197875977,-1.37,-0.23,-0.94,1.67
22.77210307121277,-2.22,-0.26,-0.43,2.27
22.77237105369568,-1.88,-0.13,-0.18,1.89
22.772634983062744,-0.22,-0.14,-0.43,0.5
22.772900104522705,1.05,-0.3,-0.45,1.18
22.773160934448242,0.94,-0.36,-0.13,1.01
22.778029918670654,-0.03,-0.36,0.1,0.37
22.787519931793213,-0.55,-0.06,-0.05,0.55
22.797673225402832,-0.54,0.25,-0.22,0.63
22.80822515487671,-0.77,0.27,-0.51,0.96
22.817555904388428,-0.97,0.06,-0.64,1.16
22.872765064239502,-0.59,-0.03,-0.13,0.6
22.873033046722412,0.22,0.22,0.19,0.36
22.87329411506653,1.13,0.65,0.37,1.35
22.873559951782227,1.5,0.75,0.26,1.69
22.873815059661865,1.24,0.37,0.31,1.33
22.87790298461914,0.71,-0.2,0.93,1.18
22.88744807243347,0.33,-0.39,1.24,1.34
22.897422075271606,0.2,-0.13,1.07,1.09
22.908018112182617,0.35,0.15,0.9,0.97
22.91738796234131,0.56,0.27,0.93,1.11
22.973278045654297,0.83,0.33,0.8,1.19
22.973546981811523,1.12,0.36,0.82,1.43
22.97380805015564,1.2,0.31,1.03,1.61
22.97406816482544,1.17,0.19,1.24,1.71
22.974327087402344,1.35,0.13,1.48,2.0
22.97767400741577,1.82,0.23,1.6,2.43
22.987215995788574,1.94,0.26,2.24,2.97
22.997230052947998,2.03,0.77,2.42,3.25
23.007884979248047,2.09,1.48,2.04,3.27
23.01731300354004,1.52,1.95,2.3,3.37
23.073472023010254,1.67,2.26,2.57,3.8
23.073730945587158,2.02,2.63,2.51,4.15
23.073992013931274,2.14,2.8,2.65,4.4
23.074252128601074,2.49,2.9,2.73,4.69
23.07451105117798,2.98,3.09,2.99,5.23
23.077510118484497,3.5,3.5,3.24,5.91
23.0870840549469,4.0,4.35,3.47,6.85
23.097071170806885,4.79,5.59,3.62,8.2
23.10771417617798,5.25,6.31,4.31,9.27
23.11732816696167,4.54,7.14,4.72,9.68
23.173732042312622,4.35,8.34,5.54,10.91
23.174000024795532,4.65,9.35,7.52,12.86
23.174262046813965,5.11,10.19,7.73,13.77
23.174521923065186,5.26,9.71,7.03,13.09
23.174777030944824,4.98,8.18,5.27,10.93
23.17745018005371,5.26,7.12,0.36,8.85
23.187055110931396,5.63,8.23,-5.35,11.31
23.1969211101532,3.34,12.34,-7.24,14.69
23.207598209381104,-0.7,13.69,-2.0,13.85
23.21690011024475,-2.15,11.39,2.02,11.76
23.274054050445557,0.08,7.6,0.51,7.61
23.274322986602783,2.65,3.22,-0.54,4.2
23.274588108062744,0.14,0.38,-0.07,0.41
23.27485203742981,-3.6,-0.99,-4.63,5.94
23.275111198425293,-1.71,1.7,-5.43,5.94
23.277262210845947,3.71,2.84,-0.56,4.7
23.286745071411133,7.99,0.83,2.37,8.37
23.29675006866455,10.0,-1.34,4.13,10.9
23.30752992630005,9.87,-2.65,4.95,11.35
23.316765069961548,8.16,-3.06,4.4,9.76
23.37432098388672,6.04,-2.98,3.35,7.52
23.37458610534668,4.88,-2.62,2.56,6.1
23.374844074249268,4.34,-2.32,2.09,5.34
23.375102043151855,3.71,-2.45,2.17,4.94
23.37535810470581,2.91,-2.5,2.11,4.37
23.377084016799927,2.15,-2.39,1.51,3.55
23.38654899597168,1.5,-2.41,0.97,2.99
23.396618127822876,1.21,-2.6,0.78,2.97
23.40726089477539,0.95,-2.94,0.74,3.17
23.416758060455322,0.66,-2.98,0.26,3.06
23.474497079849243,0.45,-2.82,0.02,2.85
23.474767208099365,0.16,-2.98,-0.12,2.98
23.47503423690796,-0.7,-3.29,-0.13,3.36
23.47529411315918,-1.79,-3.33,-0.45,3.8
23.4755539894104,-2.39,-2.92,-1.24,3.97
23.476898193359375,-2.93,-1.91,-2.38,4.23
23.486377239227295,-3.81,-0.57,-4.02,5.56
23.496453046798706,-4.96,0.69,-6.17,7.94
23.50712013244629,-5.66,1.57,-6.85,9.02
23.516473054885864,-6.07,2.03,-5.15,8.21
23.57459807395935,-6.67,2.64,-3.75,8.09
23.574862003326416,-7.88,3.75,-4.35,9.75
23.575125217437744,-9.35,5.37,-6.07,12.37
23.575393199920654,-9.72,6.81,-7.82,14.21
23.575675010681152,-8.28,7.64,-9.56,14.77
23.576746940612793,-6.09,6.67,-8.96,12.72
23.586237907409668,-3.59,1.86,-5.14,6.53
23.59632110595703,-2.71,-3.97,-4.53,6.6
23.60692811012268,-4.97,-6.54,-7.44,11.08
23.616281032562256,-10.14,-6.86,-6.93,14.06
23.674095153808594,-14.67,-6.61,-4.75,16.77
23.674363136291504,-11.37,-4.09,-6.87,13.89
23.674622058868408,-5.07,-0.76,-8.72,10.11
23.674880027770996,-3.16,4.09,-7.56,9.15
23.675137042999268,0.82,10.13,-0.28,10.16
23.676555156707764,4.8,5.15,2.73,7.55
23.686100959777832,2.15,3.5,6.03,7.29
23.696242094039917,5.79,5.45,15.47,17.39
23.706809043884277,4.68,0.17,4.52,6.5
23.716351985931396,-5.0,5.83,-11.93,14.18
23.773698091506958,-6.34,11.61,-14.36,19.52
23.773962020874023,-3.66,8.84,-9.41,13.41
23.774220943450928,-7.89,-0.72,3.09,8.5
23.7744779586792,-8.6,-5.59,0.99,10.3
23.77474594116211,-8.26,-4.39,-4.46,10.36
23.7765531539917,-6.61,-3.13,-3.78,8.23
23.78623390197754,-4.07,-1.39,-3.15,5.33
23.795902013778687,-2.67,0.23,-2.35,3.56
23.806543111801147,-1.72,0.8,-2.75,3.34
23.816487073898315,-0.15,0.88,-3.47,3.58
23.872956037521362,1.11,0.93,-2.5,2.88
23.873223066329956,0.9,0.95,-0.61,1.44
23.873484134674072,-0.2,0.65,-0.05,0.68
23.873744010925293,-0.84,0.23,-0.63,1.07
23.874002933502197,-1.07,-0.02,-0.69,1.27
23.87620711326599,-1.18,-0.08,-0.37,1.23
23.886113166809082,-0.74,0.07,-0.3,0.8
23.895729064941406,-0.01,0.21,-0.46,0.5
23.906419038772583,0.98,0.21,-0.86,1.32
23.915791988372803,1.49,0.07,-0.82,1.7
23.973510026931763,1.11,-0.1,-0.25,1.14
23.973780155181885,0.7,-0.23,0.24,0.77
23.974046230316162,0.49,-0.16,0.5,0.71
23.974313020706177,0.19,0.02,0.64,0.66
23.97458004951477,-0.07,0.14,0.38,0.41
23.976009130477905,-0.04,0.14,0.29,0.32
23.98560905456543,0.16,0.15,0.15,0.26
23.995688915252686,0.54,0.19,-0.03,0.57
24.006351947784424,0.87,0.24,0.17,0.91
24.015785217285156,1.12,0.18,0.78,1.37
24.073713064193726,1.3,0.08,1.29,1.83
24.07398009300232,1.34,-0.03,1.6,2.08
24.074224948883057,1.37,-0.19,1.6,2.11
24.074486017227173,1.07,-0.33,1.3,1.71
24.074745178222656,0.52,-0.32,0.9,1.08
24.07592511177063,0.29,-0.12,0.5,0.59
24.085504055023193,0.51,0.18,0.23,0.58
24.095530033111572,0.73,0.35,0.32,0.87
24.106223106384277,0.87,0.4,0.61,1.13
24.115684986114502,0.99,0.34,0.77,1.29
24.173774242401123,0.98,0.15,1.49,1.78
24.174044132232666,1.01,0.25,1.86,2.13
24.174314975738525,1.08,0.65,1.65,2.07
24.174575090408325,1.13,1.11,1.42,2.12
24.174835205078125,1.25,1.85,1.16,2.51
24.17579698562622,0.99,2.17,1.31,2.72
24.185422897338867,1.12,2.33,1.45,2.96
24.195483207702637,1.9,2.67,1.64,3.66
24.206030130386353,2.29,2.67,2.06,4.07
24.215385913848877,2.56,2.98,2.11,4.45
24.27407693862915,2.77,3.47,2.18,4.94
24.274343967437744,2.71,4.37,2.26,5.61
24.274622917175293,3.36,5.38,2.76,6.91
24.275074005126953,3.84,5.73,3.81,7.88
24.275332927703857,3.74,6.17,4.86,8.69
24.276121139526367,4.06,7.19,6.35,10.41
24.285238027572632,5.06,8.32,7.16,12.08
24.29524302482605,6.19,9.2,7.13,13.18
24.30585503578186,6.08,9.22,6.9,13.02
24.315194129943848,5.24,8.58,6.09,11.75
24.374776124954224,4.79,7.6,4.0,9.83
24.37504506111145,4.71,6.85,-1.01,8.37
24.3753080368042,4.21,8.11,-6.11,10.99
24.375572204589844,0.41,11.76,-5.94,13.18
24.375831127166748,-3.29,12.01,0.02,12.45
24.37662410736084,-2.06,9.47,2.17,9.93
24.38510799407959,1.79,5.91,0.23,6.17
24.395127058029175,2.71,2.15,0.5,3.49
24.40574812889099,0.67,-0.24,0.75,1.03
24.415143966674805,-2.03,-0.85,-4.21,4.75
24.475027084350586,0.42,2.36,-5.65,6.13
24.475292205810547,6.24,3.92,-1.28,7.47
24.475552082061768,10.31,1.72,2.16,10.67
24.475815057754517,11.5,-0.75,4.29,12.29
24.476075172424316,10.56,-2.1,5.11,11.91
24.476871967315674,8.19,-2.3,4.69,9.71
24.48491907119751,5.7,-1.9,4.23,7.34
24.494946002960205,3.77,-1.65,3.82,5.61
24.50563406944275,2.61,-1.77,3.62,4.8
24.515083074569702,1.7,-2.12,3.7,4.59
24.575353145599365,0.74,-2.18,3.31,4.03
24.575619220733643,-0.1,-2.15,2.36,3.19
24.575878143310547,-0.54,-2.19,1.69,2.81
24.576136112213135,-0.39,-2.4,1.75,2.99
24.576394081115723,0.01,-2.49,1.93,3.15
24.577163219451904,0.52,-2.39,1.94,3.12
24.584769248962402,0.52,-2.34,1.55,2.85
24.59477996826172,-0.16,-2.39,1.27,2.71
24.60539197921753,-1.48,-2.28,0.79,2.83
24.61474323272705,-2.74,-1.99,0.03,3.38
24.67574119567871,-3.91,-1.21,-1.32,4.3
24.676006078720093,-4.72,0.09,-3.85,6.09
24.67626714706421,-5.4,0.89,-5.67,7.88
24.676525115966797,-5.85,0.94,-4.63,7.51
24.676783084869385,-5.95,0.78,-2.38,6.45
24.677574157714844,-6.43,1.4,-2.01,6.88
24.684614181518555,-7.04,2.74,-3.06,8.15
24.6947500705719,-7.43,3.85,-4.42,9.46
24.705159187316895,-7.29,4.51,-5.88,10.39
24.71463108062744,-7.43,4.72,-6.97,11.22
24.776328086853027,-8.11,3.89,-7.85,11.93
24.77659511566162,-8.62,0.91,-8.2,11.93
24.776856899261475,-8.96,-3.09,-7.97,12.38
24.777122974395752,-9.27,-5.13,-6.94,12.66
24.777369022369385,-10.46,-4.8,-6.94,13.43
24.77815818786621,-10.88,-3.86,-7.24,13.62
24.784457206726074,-9.33,-3.31,-7.29,12.29
24.794517993927002,-7.51,-2.98,-7.3,10.88
24.804874897003174,-6.44,-0.86,-7.7,10.07
24.81450319290161,-6.58,5.07,-4.68,9.53
24.875859022140503,-0.02,0.37,-1.72,1.75
24.876131057739258,6.24,-0.4,1.97,6.55
24.876403093338013,8.63,1.39,8.33,12.07
24.876665115356445,7.0,2.78,2.99,8.1
24.876928091049194,2.93,18.22,-8.95,20.5
24.877695083618164,3.8,24.27,-22.34,33.2
24.884335041046143,2.48,9.91,-5.09,11.41
24.894344091415405,-6.44,-8.52,8.82,13.85
24.90485405921936,-11.23,-11.1,1.49,15.86
24.91446304321289,-14.03,-7.06,-5.83,16.75
24.975165128707886,-12.23,-4.16,-5.26,13.94
24.975430965423584,-6.31,-0.4,-3.56,7.25
24.97569513320923,-1.81,2.18,-2.01,3.47
24.97596502304077,1.36,2.42,-0.64,2.84
24.976226091384888,3.68,1.86,-1.78,4.49
24.977013111114502,4.29,1.46,-2.89,5.37
24.984107971191406,2.23,0.93,-2.21,3.27
24.994165897369385,-0.29,0.29,-1.8,1.84
25.004707098007202,-1.17,0.07,-1.75,2.1
25.01417303085327,-1.46,0.15,-1.68,2.23
25.074960231781006,-1.87,0.03,-1.43,2.35
25.07522702217102,-1.8,-0.09,-0.72,1.94
25.075486183166504,-1.02,-0.08,-0.26,1.05
25.075745105743408,-0.17,-0.02,0.21,0.27
25.07601809501648,0.45,0.0,0.49,0.66
25.076798915863037,0.76,-0.11,0.61,0.98
25.084033966064453,0.95,-0.18,0.72,1.2
25.094027042388916,0.99,-0.2,0.75,1.25
25.10475206375122,0.82,-0.07,0.64,1.04
25.114013195037842,0.61,0.02,0.39,0.72
25.174660205841064,0.52,0.04,-0.03,0.52
25.174936056137085,0.67,0.02,-0.11,0.67
25.175194025039673,0.98,0.03,0.14,0.99
25.175480127334595,1.17,0.06,0.56,1.29
25.175745964050293,1.21,0.03,1.05,1.6
25.176557064056396,1.0,0.0,1.12,1.5
25.183979988098145,0.66,-0.01,1.05,1.24
25.19397211074829,0.46,-0.09,1.03,1.13
25.257898092269897,0.4,-0.29,1.08,1.18
25.258167028427124,0.42,-0.39,1.01,1.16
25.258440017700195,0.72,-0.28,0.8,1.11
25.258703231811523,1.05,0.02,0.6,1.2
25.258955001831055,1.07,0.24,0.51,1.2
25.25921607017517,0.82,0.13,0.8,1.15
25.26371192932129,0.92,0.02,1.24,1.54
25.27418804168701,1.2,0.02,1.17,1.67
25.283730030059814,1.27,-0.02,1.62,2.05
25.29377317428589,1.37,0.09,1.98,2.4
25.35866904258728,1.57,0.42,1.69,2.34
25.358931064605713,1.54,0.84,1.26,2.15
25.3591890335083,1.13,1.14,0.98,1.88
25.359445095062256,0.94,1.48,0.8,1.92
25.35970115661621,1.03,1.89,0.93,2.34
25.359957218170166,1.3,2.33,1.35,2.99
25.36360001564026,1.47,2.84,1.27,3.44
25.37403702735901,1.67,2.89,1.45,3.63
25.38355302810669,1.36,2.86,1.88,3.68
25.393528938293457,1.36,2.93,2.14,3.87
25.459410190582275,1.89,3.51,2.22,4.56
25.459675073623657,2.34,4.75,2.35,5.79
25.459938049316406,3.12,5.91,3.03,7.33
25.460195064544678,3.51,6.71,4.43,8.77
25.46045708656311,4.21,7.79,5.92,10.65
25.46071195602417,5.15,9.02,7.32,12.7
25.46345806121826,5.58,10.12,7.88,13.98
25.47398090362549,5.32,10.0,8.57,14.2
25.483407020568848,4.62,8.59,8.67,13.04
25.49342918395996,4.19,6.54,6.51,10.13
25.559144020080566,4.93,5.74,0.99,7.63
25.55941390991211,6.15,7.22,-4.08,10.32
25.559678077697754,4.5,10.78,-6.13,13.19
25.559941053390503,-0.12,12.23,-1.83,12.36
25.560209035873413,-2.76,9.87,1.84,10.41
25.560472011566162,-2.09,6.54,1.6,7.04
25.563323974609375,0.79,2.97,1.28,3.32
25.573775053024292,0.71,0.77,0.84,1.34
25.583378076553345,-2.72,0.44,-3.46,4.42
25.593257904052734,-0.76,3.16,-5.19,6.12
25.65923023223877,4.2,4.54,-0.66,6.21
25.659497022628784,7.72,2.37,1.76,8.26
25.659761905670166,10.07,-0.17,3.2,10.56
25.66002321243286,10.31,-1.85,4.01,11.21
25.660283088684082,8.31,-2.71,3.28,9.33
25.660542964935303,6.42,-2.93,2.32,7.42
25.66315221786499,5.18,-2.79,2.05,6.23
25.67358112335205,4.13,-2.66,1.95,5.28
25.683135986328125,3.15,-2.58,1.85,4.47
25.69311809539795,2.27,-2.47,1.81,3.81
25.70376706123352,1.59,-2.47,1.61,3.34
25.759796142578125,1.24,-2.77,1.39,3.33
25.76004910469055,1.24,-3.11,1.31,3.59
25.760313987731934,1.48,-3.4,1.26,3.91
25.760576248168945,1.69,-3.49,1.37,4.11
25.760836124420166,1.67,-3.44,1.04,3.96
25.763041973114014,1.16,-3.45,1.05,3.78
25.773513078689575,-0.17,-3.39,0.76,3.47
25.782952070236206,-1.23,-2.9,-0.1,3.15
25.7929630279541,-2.19,-2.3,-1.12,3.36
25.803707122802734,-3.15,-1.09,-2.55,4.19
25.860883235931396,-3.85,0.06,-4.69,6.06
25.86115312576294,-4.7,0.54,-5.66,7.37
25.861413955688477,-5.27,0.59,-4.52,6.96
25.86167621612549,-5.77,0.77,-3.48,6.78
25.861938953399658,-6.74,2.04,-4.45,8.33
25.862828016281128,-8.3,3.97,-6.24,11.11
25.873308181762695,-9.42,5.16,-7.76,13.25
25.88277006149292,-9.16,5.41,-8.74,13.76
25.89279794692993,-8.06,5.2,-8.58,12.86
25.90354013442993,-7.02,2.78,-8.52,11.38
25.96074390411377,-5.8,-1.33,-8.49,10.36
25.96101212501526,-4.44,-3.9,-7.21,9.32
25.961281061172485,-5.48,-4.72,-6.03,9.41
25.9615421295166,-8.82,-4.66,-6.28,11.78
25.96180820465088,-11.71,-1.58,-6.4,13.43
25.962671041488647,-8.64,-0.7,-5.97,10.52
25.973098039627075,-3.76,-0.63,-7.21,8.15
25.982506036758423,-1.72,3.7,-3.29,5.24
25.99264621734619,2.73,6.09,6.64,9.41
26.003353118896484,8.05,2.84,8.74,12.21
26.05996012687683,6.35,1.1,1.4,6.59
26.06022310256958,2.19,3.41,-3.92,5.63
26.060485124588013,-4.66,11.73,-8.45,15.18
26.060744047164917,-6.05,8.53,-10.62,14.9
26.061002016067505,-1.79,2.47,-2.65,4.04
26.06260108947754,-4.86,-2.75,0.51,5.6
26.0729820728302,-5.81,-3.83,-4.95,8.53
26.082492113113403,-6.43,-2.94,-6.5,9.6
26.092477083206177,-5.7,-2.16,-4.69,7.69
26.1031711101532,-3.63,-0.66,-2.89,4.68
26.160139083862305,-1.59,0.66,-1.68,2.4
26.16038703918457,0.21,1.06,-1.68,1.99
26.16064691543579,1.52,0.95,-1.51,2.34
26.160906076431274,1.32,0.63,-0.67,1.6
26.161165237426758,-0.16,0.45,-0.66,0.81
26.162415981292725,-1.18,0.27,-1.24,1.73
26.17285919189453,-1.57,0.08,-1.23,1.99
26.18235492706299,-1.64,0.01,-0.87,1.85
26.192307949066162,-1.51,0.01,-0.85,1.73
26.202998161315918,-1.33,0.0,-1.2,1.79
26.26018714904785,-1.07,0.04,-1.43,1.78
26.260454177856445,-0.43,0.07,-1.3,1.37
26.260716915130615,0.06,0.11,-0.91,0.91
26.260973930358887,0.09,0.15,-0.53,0.55
26.261229991912842,-0.01,0.1,-0.1,0.14
26.262242078781128,0.04,0.06,0.33,0.33
26.272561073303223,0.35,0.0,0.61,0.7
26.282126903533936,0.5,0.05,0.56,0.75
26.292139053344727,0.49,0.15,0.33,0.6
26.302958965301514,0.52,0.15,0.16,0.56
26.359793186187744,0.61,0.15,0.21,0.66
26.360055923461914,0.73,0.12,0.27,0.78
26.360313892364502,0.83,0.04,0.48,0.95
26.36057209968567,1.12,-0.02,0.93,1.45
26.360831022262573,1.42,-0.15,1.42,2.01
26.362088203430176,1.28,-0.13,1.56,2.02
26.372416973114014,0.95,-0.03,1.28,1.59
26.382100105285645,0.71,-0.04,1.05,1.26
26.392044067382812,0.42,-0.09,0.82,0.92
26.40269708633423,0.32,-0.04,0.59,0.67
26.460155963897705,0.49,-0.06,0.52,0.71
26.460427045822144,0.86,0.04,0.69,1.1
26.460690021514893,1.28,0.1,1.18,1.74
26.460948944091797,1.85,0.22,1.3,2.27
26.46123695373535,2.14,0.3,1.59,2.68
26.46193218231201,1.83,0.32,2.08,2.78
26.47235918045044,1.36,0.51,1.57,2.13
26.48183822631836,0.8,0.8,1.11,1.58
26.49187421798706,0.46,1.14,1.1,1.64
26.502528190612793,0.53,1.52,1.45,2.16
26.561729907989502,1.06,2.27,1.23,2.79
26.56199812889099,1.96,3.16,1.41,3.97
26.562254905700684,2.02,3.18,1.61,4.09
26.56251311302185,1.99,3.06,2.0,4.16
26.562772035598755,2.05,3.1,2.14,4.28
26.56302809715271,2.04,3.58,2.33,4.73
26.572472095489502,2.18,4.53,2.58,5.65
26.58166790008545,2.99,5.79,3.04,7.19
26.591751098632812,4.05,6.64,4.41,8.94
26.602453231811523,4.82,7.35,6.02,10.65
26.66105008125305,5.61,8.18,7.19,12.25
26.66152811050415,5.99,8.95,7.52,13.13
26.66179323196411,5.42,9.18,7.98,13.31
26.662053108215332,4.6,8.28,8.27,12.57
26.66231107711792,3.97,6.51,6.68,10.13
26.662569999694824,3.87,5.4,1.45,6.79
26.672495126724243,4.58,6.47,-4.5,9.11
26.681528091430664,2.55,10.46,-7.21,12.95
26.69160223007202,-1.83,12.66,-2.97,13.13
26.70226812362671,-3.04,10.52,1.22,11.01
26.76218891143799,-1.02,7.9,0.72,7.99
26.76245403289795,2.39,4.03,0.46,4.7
26.762726068496704,2.34,0.82,1.26,2.78
26.76298999786377,-0.64,-0.61,-0.48,1.0
26.763251066207886,-2.19,0.06,-5.16,5.6
26.763508081436157,1.37,2.88,-3.93,5.06
26.772383213043213,6.0,2.86,-0.17,6.64
26.78139591217041,8.79,0.82,1.98,9.04
26.791454076766968,9.75,-1.29,3.69,10.5
26.8020920753479,9.3,-2.74,4.04,10.5
26.861813068389893,7.51,-3.12,2.99,8.66
26.862082958221436,5.86,-2.93,2.51,7.01
26.862350940704346,4.81,-2.84,2.72,6.21
26.862607955932617,3.88,-2.79,2.68,5.47
26.862868070602417,2.87,-2.81,2.48,4.72
26.863110065460205,1.76,-2.81,1.8,3.77
26.872112035751343,1.01,-2.68,0.93,3.01
26.881237983703613,0.88,-2.66,0.75,2.9
26.89119815826416,1.37,-2.73,1.15,3.26
26.901889085769653,1.99,-2.75,1.14,3.58
26.963128089904785,2.2,-2.84,0.89,3.7
26.963391065597534,1.44,-2.82,0.44,3.19
26.963653087615967,0.42,-2.66,0.23,2.7
26.963916063308716,-0.42,-2.26,0.03,2.29
26.964174032211304,-1.25,-1.48,-0.78,2.08
26.964431047439575,-2.17,-0.26,-2.51,3.32
26.971907138824463,-3.55,0.96,-4.7,5.96
26.980998992919922,-4.7,2.14,-6.52,8.31
26.99111795425415,-4.54,2.98,-5.95,8.05
27.001703023910522,-4.14,3.52,-4.06,6.78
27.063310146331787,-4.76,4.44,-3.35,7.32
27.06358289718628,-6.24,5.67,-4.65,9.62
27.063846111297607,-7.3,6.78,-5.67,11.46
27.064104080200195,-8.17,8.05,-7.03,13.45
27.064367055892944,-9.04,8.49,-9.45,15.59
27.064627170562744,-8.67,4.45,-8.83,13.15
27.071460247039795,-6.6,-2.43,-4.92,8.58
27.08096694946289,-5.91,-5.87,-3.49,9.03
27.09105110168457,-7.65,-5.92,-5.54,11.14
27.10161018371582,-9.47,-5.21,-6.48,12.6
27.162739038467407,-8.56,-3.12,-6.04,10.93
27.163007020950317,-5.48,-1.3,-5.41,7.8
27.163270950317383,-3.53,0.15,-4.86,6.0
27.163530111312866,-3.48,0.86,-5.0,6.15
27.163793087005615,-4.75,0.49,-5.41,7.21
27.16405200958252,-6.99,1.72,-5.48,9.04
27.171359062194824,-3.66,4.68,-1.87,6.22
27.18078112602234,-0.68,-0.4,0.56,0.96
27.190859079360962,-2.76,-0.89,2.81,4.03
27.20146417617798,0.29,1.5,6.21,6.39
27.262537002563477,4.38,1.04,7.08,8.39
27.262811183929443,0.85,6.41,-3.37,7.29
27.26307511329651,-1.25,16.78,-14.85,22.44
27.263341903686523,4.55,14.67,-11.57,19.22
27.26360321044922,-0.93,-1.01,5.8,5.96
27.263870239257812,-9.3,-7.24,4.81,12.72
27.271146059036255,-10.29,-5.3,-2.19,11.78
27.280663013458252,-9.9,-4.54,-1.79,11.03
27.29068112373352,-6.21,-2.69,-1.97,7.04
27.30129098892212,-1.72,0.16,-2.38,2.94
27.362104892730713,0.39,1.45,-1.27,1.96
27.36237096786499,1.03,1.07,-1.89,2.4
27.36263608932495,1.54,0.54,-3.23,3.61
27.362895965576172,1.62,0.84,-2.86,3.39
27.36315393447876,0.64,1.0,-1.55,1.95
27.36341094970703,-0.49,0.65,-1.42,1.63
27.371055126190186,-0.85,0.26,-1.84,2.04
27.380436897277832,-1.03,0.03,-1.76,2.03
27.390374183654785,-1.22,0.02,-1.47,1.91
27.40110206604004,-1.29,-0.01,-0.85,1.54
27.461571216583252,-1.02,-0.08,-0.05,1.02
27.461836099624634,-0.66,-0.16,0.45,0.81
27.462081909179688,-0.39,-0.17,0.45,0.61
27.4623441696167,-0.22,-0.1,0.19,0.3
27.46260690689087,-0.05,0.01,-0.1,0.11
27.462865114212036,0.09,0.06,-0.11,0.15
27.470839023590088,0.05,0.06,0.01,0.07
27.480411052703857,-0.03,0.12,0.01,0.12
27.49034023284912,0.26,0.16,0.01,0.3
27.50101089477539,0.55,0.16,0.22,0.61
27.561880111694336,0.73,0.12,0.1,0.74
27.56211519241333,1.07,0.12,0.1,1.08
27.5623779296875,1.12,0.06,0.53,1.24
27.562633991241455,0.92,-0.06,0.83,1.24
27.562894105911255,0.79,-0.01,1.0,1.27
27.56315803527832,0.65,-0.03,1.22,1.38
27.570709228515625,0.57,-0.13,1.33,1.45
27.580201148986816,0.76,-0.16,1.23,1.45
27.5901141166687,1.03,-0.2,1.01,1.45
27.60079002380371,1.19,-0.1,0.89,1.48
27.661883115768433,1.25,0.11,0.86,1.52
27.662151098251343,1.26,0.18,0.93,1.57
27.662411212921143,1.25,0.17,0.9,1.54
27.662670135498047,1.2,0.09,1.04,1.59
27.66295099258423,1.35,0.15,1.39,1.94
27.66321110725403,1.59,0.49,1.3,2.11
27.670546054840088,1.56,0.84,0.84,1.96
27.680017948150635,1.41,1.11,0.41,1.84
27.690030097961426,1.21,1.49,0.38,1.95
27.700658082962036,1.41,2.09,0.5,2.57
27.762176990509033,1.5,2.35,0.66,2.86
27.762437105178833,1.4,2.87,1.14,3.39
27.762694120407104,1.65,2.92,1.52,3.68
27.762950897216797,1.71,3.18,1.82,4.04
27.763206958770752,1.92,3.51,2.22,4.57
27.76346206665039,2.11,4.6,2.13,5.49
27.770313024520874,3.28,5.75,2.37,7.03
27.779767990112305,4.04,6.05,3.38,8.02
27.78975510597229,3.94,6.18,3.84,8.27
27.800419092178345,3.56,6.5,4.45,8.64
27.86228108406067,3.35,6.84,5.95,9.66
27.862544059753418,3.98,7.17,7.08,10.83
27.86280393600464,5.3,7.54,6.81,11.45
27.86306095123291,5.95,7.44,5.98,11.24
27.86331796646118,5.79,6.96,5.24,10.46
27.863582134246826,6.05,6.45,2.73,9.25
27.87007713317871,5.73,6.69,-1.02,8.86
27.879598140716553,3.66,7.96,-3.65,9.49
27.88960909843445,0.3,9.82,-2.85,10.22
27.900175094604492,-1.32,9.98,0.64,10.08
27.96305799484253,-0.89,7.77,2.33,8.16
27.963322162628174,1.28,4.81,1.41,5.17
27.963592052459717,2.24,2.21,1.62,3.53
27.96385097503662,-0.86,-0.28,1.37,1.64
27.96410894393921,-3.83,0.14,-4.28,5.74
27.964370012283325,0.23,3.59,-3.02,4.69
27.970046997070312,4.5,3.22,1.63,5.76
27.979483127593994,6.66,1.14,3.54,7.62
27.9895601272583,7.71,-0.78,4.87,9.15
28.000245094299316,7.18,-2.27,5.29,9.2
28.0640230178833,5.76,-2.72,4.53,7.81
28.064297199249268,4.59,-2.4,3.52,6.26
28.06455898284912,3.62,-2.15,3.23,5.3
28.064815998077393,2.76,-2.1,3.26,4.75
28.065076112747192,2.15,-2.12,3.29,4.46
28.06533193588257,1.67,-2.22,3.1,4.16
28.06987714767456,1.12,-2.26,2.69,3.68
28.0794460773468,0.82,-2.25,2.29,3.31
28.089611053466797,1.0,-2.35,2.21,3.37
28.100056171417236,1.5,-2.51,2.18,3.64
28.164034128189087,1.88,-2.5,2.41,3.94
28.164305210113525,1.81,-2.17,2.31,3.64
28.16456890106201,1.12,-1.83,2.18,3.05
28.164834022521973,-0.03,-1.65,1.19,2.03
28.165098190307617,-0.98,-1.04,-0.59,1.54
28.16535520553589,-1.8,-0.2,-2.52,3.1
28.16967511177063,-2.41,0.41,-3.7,4.43
28.179211139678955,-2.83,0.6,-3.27,4.36
28.189500093460083,-3.42,0.49,-2.32,4.16
28.199893951416016,-4.34,0.83,-2.39,5.02
28.264461040496826,-5.73,1.82,-3.51,6.96
28.26473093032837,-7.21,3.02,-5.38,9.48
28.264994144439697,-7.84,3.79,-6.93,11.12
28.265262126922607,-7.91,4.45,-7.86,12.0
28.265522956848145,-8.14,4.89,-9.69,13.56
28.265785217285156,-7.61,3.62,-12.22,14.84
28.269543170928955,-8.09,-0.21,-12.75,15.1
28.27904510498047,-11.38,-5.33,-10.69,16.49
28.28949809074402,-14.57,-6.45,-9.42,18.51
28.299757957458496,-13.64,-2.09,-7.45,15.68
28.365039110183716,-7.8,-4.74,-7.39,11.74
28.36543107032776,-6.11,-3.22,-7.06,9.87
28.365718126296997,-5.81,-1.04,-5.78,8.26
28.366005897521973,-2.16,5.82,3.39,7.07
28.366291046142578,8.81,8.09,16.09,20.04
28.366576194763184,6.9,15.21,-2.39,16.87
28.3695170879364,1.14,14.21,-19.0,23.75
28.378992080688477,3.37,5.08,-4.96,7.85
28.388951063156128,-6.83,-7.23,5.4,11.31
28.39959192276001,-10.84,-7.97,-3.15,13.81
28.463222980499268,-10.52,-4.91,-7.59,13.87
28.46349310874939,-9.36,-2.67,-4.79,10.84
28.463764190673828,-4.55,0.61,-2.49,5.22
28.464030027389526,-0.46,1.88,-1.75,2.6
28.464293003082275,1.37,1.29,-1.51,2.41
28.464555025100708,2.22,0.64,-2.43,3.35
28.4692120552063,1.35,0.65,-2.9,3.26
28.47881007194519,-0.81,0.8,-1.69,2.03
28.488755226135254,-1.43,0.61,-0.53,1.64
28.49946904182434,-0.8,0.4,-0.6,1.07
28.562798023223877,-0.7,0.23,-1.0,1.24
28.563069105148315,-0.85,0.08,-1.43,1.66
28.56333589553833,-1.01,0.02,-1.47,1.78
28.563594102859497,-0.82,-0.06,-1.31,1.54
28.563854217529297,-0.47,-0.08,-0.76,0.89
28.564116954803467,-0.26,-0.07,-0.25,0.36
28.56913995742798,0.03,0.0,-0.01,0.03
28.57863211631775,0.48,0.04,0.13,0.49
28.58875608444214,0.81,0.11,0.32,0.87
28.599261045455933,0.72,0.07,0.22,0.75
28.663054943084717,0.32,0.06,0.2,0.38
28.66332197189331,0.03,0.08,0.36,0.37
28.663584232330322,0.3,0.09,0.59,0.66
28.66385793685913,1.03,0.18,0.8,1.31
28.664124011993408,1.88,0.19,1.04,2.15
28.664385080337524,2.22,0.13,1.44,2.64
28.668965101242065,2.0,0.01,1.61,2.56
28.678500175476074,1.65,-0.08,1.54,2.25
28.688473224639893,1.58,-0.09,1.52,2.19
28.699157238006592,1.48,0.03,1.44,2.06
28.763125896453857,1.05,0.17,1.07,1.5
28.763390064239502,0.62,0.3,0.51,0.85
28.76365089416504,0.36,0.37,0.4,0.65
28.763906955718994,0.58,0.5,0.52,0.92
28.76416802406311,1.06,0.58,0.77,1.43
28.764409065246582,1.34,0.58,0.92,1.72
28.76877212524414,1.21,0.62,1.23,1.83
28.77837109565735,1.1,0.9,1.29,1.91
28.78828716278076,1.23,1.3,1.51,2.34
28.798984050750732,0.75,1.62,1.84,2.56
28.863534927368164,0.48,1.9,2.03,2.82
28.86380100250244,0.89,2.17,1.74,2.92
28.86406707763672,1.29,2.36,1.94,3.31
28.864346027374268,1.89,2.51,2.1,3.77
28.86460590362549,2.48,2.8,2.38,4.43
28.86486506462097,2.83,3.02,2.83,5.01
28.868690013885498,3.04,3.64,3.06,5.64
28.87814712524414,3.87,5.11,2.97,7.06
28.888122081756592,4.98,6.11,3.88,8.78
28.898818969726562,5.08,6.51,4.81,9.55
28.963613033294678,4.98,6.93,5.74,10.28
28.96387815475464,4.38,7.19,6.79,10.81
28.964138984680176,3.28,7.73,8.17,11.71
28.964395999908447,3.18,8.23,8.87,12.51
28.964657068252563,3.51,7.47,7.2,10.95
28.96491503715515,4.12,6.45,2.93,8.19
28.9685001373291,5.82,6.93,-2.01,9.27
28.977930068969727,6.04,9.37,-5.33,12.35
28.987966060638428,2.54,12.09,-4.12,13.02
28.99857807159424,-1.45,11.62,0.61,11.72
29.064894199371338,-2.43,8.73,2.01,9.28
29.065169095993042,0.17,5.51,1.15,5.63
29.06543207168579,1.93,2.47,1.53,3.48
29.06569814682007,-1.41,0.73,0.43,1.64
29.065961122512817,-3.78,1.38,-5.07,6.47
29.066233158111572,0.35,4.25,-3.53,5.53
29.068340063095093,4.92,3.75,0.79,6.23
29.07783794403076,8.01,1.17,2.9,8.59
29.08784818649292,9.79,-0.81,4.36,10.74
29.09867000579834,9.07,-1.93,4.34,10.23
29.16448402404785,7.37,-2.36,3.23,8.38
29.16475009918213,5.96,-2.51,2.61,6.97
29.16501522064209,4.89,-2.35,2.33,5.9
29.165273189544678,3.9,-2.13,2.35,5.02
29.1655330657959,2.98,-2.08,2.61,4.47
29.165791034698486,2.26,-2.17,2.65,4.1
29.168228149414062,1.63,-2.19,2.14,3.46
29.177727222442627,1.36,-2.15,1.23,2.82
29.187644958496094,1.36,-2.15,0.56,2.6
29.198354244232178,1.71,-2.03,0.41,2.68
29.264986038208008,2.31,-2.23,0.81,3.31
29.26525592803955,2.32,-2.41,0.95,3.47
29.265515089035034,1.38,-2.56,0.77,3.0
29.265773057937622,0.05,-2.81,0.44,2.84
29.266032218933105,-1.22,-2.87,-0.13,3.12
29.2662992477417,-2.06,-2.42,-1.22,3.4
29.268091201782227,-2.45,-1.68,-2.72,4.02
29.277556896209717,-3.0,-1.01,-3.99,5.09
29.287550926208496,-3.49,-0.55,-3.9,5.26
29.29826021194458,-3.79,-0.3,-2.94,4.8
29.365200996398926,-4.32,0.22,-2.7,5.09
29.365467071533203,-5.2,1.25,-3.44,6.35
29.365726947784424,-6.32,2.62,-4.49,8.18
29.36598491668701,-7.66,3.71,-6.18,10.51
29.366244077682495,-9.24,4.24,-8.4,13.18
29.36650323867798,-10.66,4.12,-9.77,15.03
29.36782693862915,-10.96,3.27,-9.14,14.64
29.377397060394287,-9.99,1.39,-7.8,12.75
29.38758111000061,-8.67,-1.35,-6.99,11.21
29.398022174835205,-7.1,-3.74,-6.29,10.19
29.464900016784668,-6.37,-4.55,-5.47,9.54
29.465166091918945,-7.82,-2.01,-5.29,9.65
29.465429067611694,-6.6,-1.86,-4.55,8.22
29.465687036514282,-4.16,-4.61,-5.97,8.61
29.465944051742554,-6.27,-2.09,-5.3,8.47
29.466206073760986,-2.39,5.2,0.68,5.76
29.467711925506592,6.21,7.9,14.7,17.8
29.477232933044434,7.41,3.41,5.45,9.81
29.48728895187378,2.14,4.46,-7.47,8.95
29.497873067855835,-4.04,12.65,-7.97,15.48
29.564624071121216,-3.9,8.65,-12.75,15.89
29.564892053604126,-4.02,4.33,-1.18,6.02
29.56515598297119,-8.63,-4.31,4.56,10.66
29.56541919708252,-9.34,-5.81,-4.66,11.94
29.565677165985107,-9.28,-4.08,-7.02,12.33
29.565941095352173,-7.42,-2.25,-5.1,9.28
29.56753396987915,-4.24,-0.18,-3.34,5.4
29.57710599899292,-1.59,1.0,-1.74,2.56
29.58704423904419,0.65,1.27,-1.52,2.08
29.597736120224,2.58,1.35,-1.67,3.35
29.664303064346313,2.68,1.05,-1.45,3.22
29.66457223892212,1.04,0.53,-1.46,1.86
29.664839029312134,-0.25,0.24,-1.51,1.54
29.66510510444641,-0.66,-0.03,-1.33,1.48
29.665369987487793,-0.91,-0.1,-1.03,1.37
29.665627002716064,-1.22,0.04,-1.06,1.61
29.66745090484619,-1.22,0.0,-1.14,1.66
29.676882028579712,-0.63,-0.03,-1.14,1.3
29.68694806098938,-0.14,-0.05,-0.93,0.94
29.697617053985596,-0.01,-0.04,-0.59,0.59
29.763638973236084,-0.13,0.03,-0.36,0.38
29.763915061950684,-0.24,0.06,-0.1,0.26
29.764182090759277,-0.16,0.01,-0.05,0.16
29.76443910598755,-0.06,0.05,-0.32,0.32
29.764695167541504,-0.16,0.08,-0.54,0.56
29.764955043792725,-0.29,0.05,-0.52,0.59
29.767248153686523,-0.13,-0.04,-0.13,0.18
29.776845932006836,0.21,0.04,0.2,0.29
29.786755084991455,0.63,0.18,0.38,0.75
29.79740309715271,0.91,0.19,0.56,1.08
29.806798934936523,0.99,0.07,0.83,1.29
29.863673210144043,0.94,-0.05,1.02,1.38
29.86393690109253,0.95,-0.12,1.07,1.43
29.864195108413696,0.85,-0.1,1.23,1.49
29.864452123641968,0.7,-0.03,1.25,1.43
29.86470890045166,0.76,-0.07,0.92,1.19
29.867078065872192,1.04,0.07,0.61,1.2
29.876573085784912,1.47,0.25,0.7,1.64
29.886610984802246,1.73,0.37,0.74,1.91
29.89727210998535,1.96,0.19,1.19,2.3
29.906822204589844,2.26,-0.03,2.43,3.31
29.963669061660767,2.64,0.03,2.54,3.66
29.96393394470215,2.81,0.19,1.91,3.4
29.964195013046265,2.15,0.56,1.44,2.64
29.964452028274536,1.18,0.83,1.3,1.94
29.964715003967285,0.96,1.37,1.24,2.08
29.966938972473145,0.6,1.72,1.45,2.32
29.97644305229187,0.85,2.41,1.71,3.07
29.9864239692688,1.41,2.41,1.88,3.36
29.99709701538086,1.77,2.42,2.15,3.68
30.006502151489258,2.32,2.46,2.34,4.11
30.064255237579346,2.49,2.84,2.28,4.41
30.064524173736572,2.48,4.01,2.24,5.21
30.064780235290527,3.08,5.96,2.28,7.08
30.065040111541748,4.62,7.32,3.33,9.27
30.065295219421387,5.53,7.52,4.96,10.57
30.066751956939697,5.77,7.72,6.6,11.68
30.076349020004272,6.19,8.41,8.09,13.2
30.08639907836914,6.65,9.1,8.38,14.04
30.096991062164307,6.9,9.03,7.47,13.59
30.106324195861816,6.84,8.21,5.47,12.0
30.16391110420227,6.32,7.52,1.93,10.01
30.164175987243652,5.98,7.91,-3.03,10.36
30.16443920135498,4.17,10.08,-6.33,12.61
30.16470193862915,-1.18,12.47,-3.76,13.07
30.164968013763428,-3.42,11.56,0.48,12.06
