time,ax,ay,az,atotal
0.015990257263183594,0.1,0.13,-0.2,0.25
0.017913103103637695,0.12,-0.02,-0.08,0.14
0.026206016540527344,0.08,0.01,-0.24,0.25
0.03619813919067383,0.06,0.01,-0.21,0.21
0.04610300064086914,-0.01,0.0,-0.07,0.07
0.0561070442199707,-0.07,-0.01,0.09,0.11
0.06601715087890625,-0.13,-0.04,0.17,0.21
0.07592511177062988,-0.13,-0.04,0.17,0.21
0.08627104759216309,-0.17,-0.03,0.15,0.22
0.09608316421508789,-0.2,-0.05,0.08,0.22
0.11541509628295898,-0.13,-0.02,0.02,0.13
0.11719608306884766,-0.06,-0.02,0.01,0.06
0.12601900100708008,-0.02,0.0,-0.03,0.03
0.1360001564025879,-0.01,0.01,-0.04,0.04
0.14597225189208984,0.08,0.0,-0.04,0.08
0.15604925155639648,0.19,-0.02,-0.05,0.19
0.16589808464050293,0.19,0.0,-0.05,0.19
0.1764512062072754,0.09,0.0,-0.11,0.14
0.18656396865844727,0.02,-0.01,-0.05,0.05
0.19608592987060547,-0.03,-0.01,0.07,0.07
0.2182760238647461,0.0,-0.03,0.13,0.13
0.22029399871826172,-0.01,-0.04,0.12,0.12
0.22571706771850586,-0.03,-0.06,0.12,0.13
0.23796415328979492,-0.02,-0.01,0.21,0.21
0.24584627151489258,-0.12,-0.02,0.15,0.19
0.25581812858581543,-0.21,-0.04,0.1,0.23
0.26578521728515625,-0.13,-0.06,0.14,0.2
0.2758769989013672,-0.1,-0.07,0.19,0.22
0.28603219985961914,-0.19,-0.03,0.11,0.22
0.29581308364868164,-0.25,-0.04,0.06,0.26
0.31470394134521484,-0.25,-0.05,-0.02,0.25
0.31597423553466797,-0.15,-0.01,-0.06,0.16
0.32584095001220703,0.0,-0.02,0.01,0.02
0.3356032371520996,-0.05,-0.02,0.15,0.15
0.34564924240112305,-0.23,-0.04,0.16,0.28
0.3557772636413574,-0.31,-0.08,0.17,0.36
0.3655121326446533,-0.31,-0.08,0.14,0.34
0.3756442070007324,-0.15,-0.05,0.16,0.22
0.38640499114990234,0.03,-0.04,0.25,0.25
0.39598512649536133,0.01,-0.07,0.29,0.29
0.418942928314209,-0.16,-0.04,0.13,0.21
0.4211461544036865,-0.22,-0.05,0.1,0.24
0.425626277923584,-0.1,-0.08,0.22,0.25
0.43562793731689453,-0.08,-0.04,0.23,0.24
0.4455530643463135,-0.1,-0.02,0.17,0.19
0.4556400775909424,0.07,-0.1,0.29,0.31
0.46543407440185547,0.06,-0.12,0.32,0.34
0.4754819869995117,-0.29,-0.07,0.17,0.34
0.4855380058288574,-0.21,0.07,0.1,0.24
0.4959220886230469,-0.15,-0.07,0.14,0.21
0.5194940567016602,-0.16,-0.13,0.08,0.22
0.521538257598877,-0.12,-0.11,0.11,0.19
0.5253582000732422,-0.03,0.0,0.09,0.09
0.5353250503540039,0.15,0.02,0.08,0.17
0.5453171730041504,0.12,-0.08,0.04,0.14
0.5553851127624512,-0.01,-0.14,-0.1,0.17
0.5654349327087402,0.01,-0.06,0.05,0.07
0.5753700733184814,0.2,-0.03,0.21,0.29
0.5853099822998047,0.0,-0.14,0.23,0.26
0.595393180847168,0.17,0.04,0.03,0.17
0.6183080673217773,0.51,0.07,0.01,0.51
0.6195149421691895,0.51,-0.11,0.05,0.52
0.625150203704834,0.35,-0.2,-0.03,0.4
0.6351432800292969,0.28,-0.07,-0.05,0.29
0.6452240943908691,0.44,-0.03,0.02,0.44
0.6552119255065918,0.37,-0.11,0.12,0.4
0.6651661396026611,0.43,0.06,0.01,0.43
0.675015926361084,0.42,-0.17,0.12,0.46
0.6851930618286133,0.19,-0.23,0.17,0.34
0.695122241973877,0.25,0.07,-0.02,0.26
0.7161080837249756,0.21,0.11,-0.11,0.26
0.7173221111297607,0.08,-0.1,0.07,0.14
0.7254881858825684,0.26,-0.14,0.31,0.42
0.7349462509155273,0.48,-0.07,0.38,0.61
0.74505615234375,0.49,-0.03,0.23,0.54
0.7550601959228516,0.2,-0.16,0.08,0.26
0.7650930881500244,0.29,0.04,-0.07,0.3
0.7751412391662598,0.45,0.02,0.05,0.45
0.7849359512329102,0.44,-0.03,-0.1,0.45
0.795051097869873,0.41,-0.11,-0.18,0.46
0.8180451393127441,0.5,-0.07,-0.18,0.53
0.8192300796508789,0.54,0.06,-0.3,0.62
0.8248960971832275,0.55,-0.03,-0.2,0.58
0.8349089622497559,0.39,0.02,0.0,0.39
0.8449890613555908,0.31,-0.04,0.26,0.4
0.8549160957336426,0.38,-0.24,0.51,0.67
0.8649930953979492,0.74,-0.15,0.57,0.94
0.8749752044677734,1.1,-0.16,0.65,1.28
0.8851051330566406,1.0,-0.1,0.57,1.15
0.8948192596435547,0.32,0.0,0.12,0.34
0.917351245880127,-0.46,0.08,-0.78,0.9
0.9191501140594482,-0.87,0.19,-0.73,1.15
0.9247450828552246,-0.79,-0.01,-0.18,0.81
0.9349491596221924,-0.84,-0.11,-0.16,0.86
0.9446730613708496,-0.94,0.13,-0.42,1.03
0.9548051357269287,-0.51,0.18,-0.17,0.56
0.964738130569458,0.15,-0.01,0.31,0.34
0.9746861457824707,0.48,-0.06,-0.05,0.48
0.9852809906005859,0.25,0.18,-0.71,0.77
0.9947481155395508,-0.22,0.16,-0.52,0.58
1.0181190967559814,-0.45,-0.04,-0.22,0.5
1.0200610160827637,-0.62,0.01,-0.49,0.79
1.024585247039795,-0.44,-0.02,-0.47,0.64
1.0345120429992676,-0.33,-0.09,-0.48,0.58
1.0445189476013184,-0.33,0.11,-0.94,1.0
1.0546469688415527,0.13,0.01,-0.32,0.34
1.0646791458129883,0.59,-0.14,0.15,0.62
1.0746581554412842,0.36,0.01,-0.32,0.48
1.084583044052124,0.11,0.05,-0.4,0.41
1.0945651531219482,0.08,-0.03,-0.19,0.2
1.1207451820373535,0.02,0.04,-0.2,0.2
1.1219401359558105,-0.05,0.1,-0.27,0.29
1.1243562698364258,-0.05,0.04,-0.31,0.31
1.134364128112793,-0.09,-0.01,-0.47,0.47
1.144456148147583,-0.19,-0.05,-0.48,0.51
1.1544411182403564,-0.27,0.02,-0.37,0.45
1.1642441749572754,-0.3,0.14,-0.47,0.57
1.1744091510772705,-0.2,0.12,-0.43,0.48
1.1843781471252441,-0.17,0.04,-0.39,0.42
1.1942691802978516,-0.1,0.03,-0.38,0.39
1.2188050746917725,0.01,0.07,-0.48,0.48
1.2206921577453613,-0.21,0.1,-0.67,0.7
1.2242212295532227,-0.32,0.05,-0.66,0.73
1.234231948852539,-0.23,0.09,-0.57,0.62
1.2442600727081299,-0.3,0.17,-0.7,0.78
1.2541720867156982,-0.27,0.17,-0.63,0.7
1.2642779350280762,-0.14,0.27,-0.55,0.62
1.2743139266967773,0.02,0.35,-0.68,0.76
1.2842040061950684,0.11,0.09,-0.5,0.51
1.2941491603851318,0.1,-0.15,-0.07,0.19
1.3194942474365234,0.41,-0.13,0.29,0.51
1.3212461471557617,0.96,-0.03,0.47,1.06
1.3241190910339355,1.39,0.07,0.59,1.51
1.3341422080993652,1.61,0.24,0.74,1.78
1.344135046005249,1.54,0.29,0.73,1.72
1.3541369438171387,1.64,0.13,0.51,1.72
1.3641772270202637,2.0,0.01,0.4,2.03
1.3742671012878418,2.25,0.08,0.42,2.29
1.384110927581787,2.41,0.32,0.44,2.47
1.3941330909729004,2.36,0.38,0.47,2.43
1.4188110828399658,2.49,0.27,0.33,2.52
1.4207782745361328,1.84,0.48,0.45,1.95
1.42405104637146,1.92,0.18,0.1,1.93
1.4339642524719238,2.1,0.53,-0.01,2.16
1.4439172744750977,1.83,1.0,-0.51,2.14
1.4540510177612305,1.51,1.31,-0.83,2.16
1.4639902114868164,0.97,2.36,-1.21,2.82
1.4739911556243896,1.37,3.39,-1.16,3.83
1.483799934387207,2.57,3.12,-0.16,4.04
1.494490146636963,2.73,2.86,0.0,3.95
1.518808126449585,2.5,2.92,-0.68,3.9
1.52081298828125,2.4,2.91,-1.08,3.92
1.5237431526184082,2.43,2.67,-1.19,3.8
1.5337772369384766,2.2,2.55,-1.09,3.53
1.543769121170044,2.09,2.04,-1.23,3.16
1.5539031028747559,1.83,1.75,-1.35,2.86
1.5637800693511963,2.07,0.93,-1.36,2.64
1.573836088180542,2.57,-0.16,-0.65,2.65
1.5837349891662598,3.53,-0.6,-0.07,3.58
1.593804121017456,4.35,-0.07,0.65,4.39
1.6190650463104248,3.49,0.16,1.36,3.74
1.6208250522613525,4.75,-0.94,0.38,4.85
1.6236751079559326,6.28,-0.68,0.66,6.35
1.6336290836334229,6.7,-0.46,1.51,6.88
1.6436371803283691,6.31,-0.49,1.75,6.56
1.6536641120910645,5.66,-0.35,1.39,5.83
1.6634840965270996,5.33,-0.09,0.98,5.42
1.6735849380493164,5.04,0.0,0.87,5.11
1.6834981441497803,4.57,-0.04,1.18,4.72
1.69407320022583,3.9,-0.01,1.48,4.17
1.721142053604126,3.05,0.09,1.45,3.37
1.7224230766296387,2.22,0.28,1.16,2.52
1.7236242294311523,1.69,0.58,0.75,1.93
1.733443260192871,1.28,0.91,0.39,1.61
1.7435040473937988,0.86,1.12,0.23,1.43
1.7534570693969727,0.37,1.2,0.33,1.29
1.7634272575378418,-0.12,1.08,0.41,1.16
1.7734532356262207,-0.43,0.88,0.44,1.07
1.7834551334381104,-0.71,0.68,0.5,1.1
1.7933681011199951,-0.89,0.47,0.49,1.11
1.818648099899292,-1.05,0.32,0.6,1.25
1.820925235748291,-1.25,0.22,0.71,1.45
1.8233981132507324,-1.59,0.32,0.76,1.79
1.833240032196045,-1.7,0.57,0.64,1.9
1.8432650566101074,-1.65,0.93,0.44,1.94
1.853135108947754,-1.43,1.2,0.28,1.88
1.8632380962371826,-1.16,1.33,0.15,1.77
1.8733010292053223,-1.15,1.17,0.06,1.64
1.8832781314849854,-1.43,1.07,0.0,1.78
1.893373966217041,-2.1,0.89,-0.18,2.28
1.9208581447601318,-2.72,0.66,-0.32,2.81
1.922131061553955,-2.95,0.4,-0.31,2.99
1.9233531951904297,-3.1,0.17,-0.29,3.11
1.9331402778625488,-3.47,-0.19,-0.42,3.5
1.9431791305541992,-3.98,-0.68,-0.67,4.09
1.9530611038208008,-4.28,-1.12,-0.97,4.52
1.9630799293518066,-4.03,-1.48,-1.08,4.42
1.9731769561767578,-3.82,-1.41,-1.11,4.22
1.9831299781799316,-3.75,-1.25,-1.42,4.2
1.9931049346923828,-4.03,-1.2,-1.96,4.63
2.020954132080078,-4.5,-1.31,-2.4,5.26
2.02232027053833,-4.85,-1.57,-2.66,5.75
2.0234999656677246,-4.94,-1.8,-2.71,5.91
2.032942056655884,-4.95,-1.14,-2.47,5.64
2.0430421829223633,-2.81,6.08,-2.75,7.24
2.0530941486358643,-1.42,4.46,-1.82,5.02
2.0629971027374268,0.94,-1.9,-1.11,2.39
2.0730490684509277,6.93,-1.15,3.29,7.75
2.0830390453338623,5.96,-0.17,5.91,8.39
2.093008041381836,2.18,-0.13,1.12,2.45
2.121493101119995,-0.86,0.83,-2.93,3.16
2.1228489875793457,-1.66,2.18,-2.48,3.69
2.124032974243164,0.06,2.72,-0.92,2.87
2.1328649520874023,1.35,3.7,-0.71,4.0
2.1429409980773926,0.71,4.73,-0.37,4.79
2.153205156326294,-2.1,4.2,-0.45,4.71
2.1628620624542236,-4.66,2.33,-0.94,5.29
2.172927141189575,-4.97,0.7,-1.12,5.14
2.182803153991699,-4.02,-0.28,-0.92,4.13
2.193528175354004,-2.85,0.34,-1.11,3.07
2.221696138381958,-2.49,-0.56,-2.46,3.54
2.2231030464172363,-1.47,-0.71,-2.79,3.23
2.224290132522583,-0.27,-0.32,-0.96,1.04
2.2326149940490723,-0.79,-1.51,-0.42,1.75
2.2427351474761963,-0.97,-1.67,-1.64,2.53
2.2527050971984863,0.43,-1.15,-1.29,1.78
2.262683153152466,1.15,-1.16,0.34,1.66
2.2727279663085938,-0.18,-0.98,0.52,1.12
2.2827401161193848,-2.15,1.15,-0.18,2.44
2.292729139328003,-2.18,2.11,-1.36,3.32
2.319711208343506,-1.53,0.54,-0.63,1.74
2.322772979736328,-1.11,-0.59,0.28,1.28
2.323974132537842,-1.27,-0.69,0.26,1.46
2.3325209617614746,-2.05,-0.64,0.16,2.15
2.342470169067383,-2.74,-0.27,0.53,2.8
2.3525230884552,-3.35,-0.03,0.87,3.46
2.3626132011413574,-3.01,-0.16,0.73,3.1
2.372533082962036,-2.13,-0.14,0.69,2.24
2.3825490474700928,-1.57,-0.05,1.03,1.87
2.392538070678711,-1.04,-0.11,1.17,1.56
2.4029080867767334,-0.76,-0.3,1.0,1.29
2.423037052154541,-0.54,-0.12,0.67,0.86
2.4242310523986816,-0.87,0.04,-0.03,0.87
2.4323272705078125,-1.15,0.23,-0.53,1.28
2.4424591064453125,-2.13,0.03,-0.31,2.15
2.45237398147583,-2.76,0.08,-0.3,2.77
2.4624409675598145,-2.16,0.13,-0.38,2.19
2.4724690914154053,-1.49,0.04,-0.69,1.64
2.482285976409912,-1.29,0.09,-1.06,1.67
2.4923529624938965,-0.7,0.27,-1.08,1.31
2.502835273742676,-0.38,0.2,-0.54,0.68
2.522202968597412,-0.34,-0.05,-0.52,0.62
2.523393154144287,-0.45,-0.19,-1.01,1.12
2.5321860313415527,-0.65,-0.25,-1.34,1.51
2.5423102378845215,-0.51,-0.31,-1.35,1.47
2.5522470474243164,-0.35,-0.33,-1.26,1.34
2.562359094619751,-0.23,-0.36,-1.21,1.28
2.5724620819091797,0.03,-0.48,-1.13,1.22
2.5821940898895264,0.35,-0.66,-1.18,1.39
2.5923409461975098,0.49,-0.72,-1.35,1.6
2.602297067642212,0.53,-0.5,-1.23,1.42
2.6234641075134277,0.82,-0.39,-1.3,1.58
2.624690055847168,0.97,-0.17,-1.41,1.71
2.632049083709717,0.74,0.23,-1.04,1.29
2.642008066177368,0.63,0.12,-0.67,0.92
2.652061939239502,0.87,-0.02,-1.21,1.49
2.662100076675415,1.16,-0.15,-1.66,2.03
2.6721770763397217,0.93,-0.53,-1.48,1.82
2.6820192337036133,0.44,-0.45,-1.35,1.48
2.692091941833496,0.29,0.11,-0.9,0.95
2.702101230621338,0.21,0.37,-0.7,0.81
2.720005989074707,0.37,-0.07,0.5,0.62
2.7219271659851074,0.32,-0.27,0.57,0.7
2.7318849563598633,0.2,-0.04,1.05,1.06
2.741901159286499,0.4,0.27,1.32,1.4
2.7518491744995117,0.75,0.5,0.61,1.08
2.7618942260742188,1.1,0.34,0.07,1.15
2.771976947784424,1.47,-0.11,0.13,1.47
2.7819321155548096,1.36,-0.01,0.16,1.36
2.8043222427368164,0.91,0.17,0.67,1.14
2.8055219650268555,0.43,0.19,0.93,1.04
2.8117480278015137,0.45,0.29,1.06,1.18
2.8216772079467773,0.72,0.16,1.19,1.4
2.831697940826416,0.78,-0.04,1.08,1.33
2.8417272567749023,0.67,-0.09,0.94,1.15
2.8517861366271973,0.43,-0.01,0.86,0.96
2.861783981323242,0.07,-0.07,0.6,0.6
2.871833086013794,-0.08,-0.02,0.12,0.14
2.8817362785339355,0.08,0.07,-0.01,0.1
2.9045119285583496,0.11,0.18,-0.09,0.22
2.905750274658203,-0.08,0.24,-0.2,0.32
2.911550998687744,-0.09,0.2,-0.37,0.43
2.921584129333496,-0.19,0.18,-0.35,0.43
2.9316771030426025,0.01,0.17,-0.02,0.17
2.9416799545288086,0.39,0.25,0.56,0.72
2.9516382217407227,1.08,0.36,0.87,1.43
2.9615321159362793,1.73,0.58,0.78,1.98
2.9715662002563477,2.4,0.79,0.5,2.57
2.9815781116485596,2.84,0.92,0.18,2.99
3.006279945373535,3.29,0.95,-0.19,3.42
3.0081300735473633,3.22,1.09,0.09,3.4
3.0114269256591797,2.38,1.6,0.4,2.89
3.0213890075683594,1.65,1.63,-0.04,2.31
3.031482219696045,0.52,2.7,-0.57,2.8
3.041388988494873,1.27,3.77,-0.17,3.98
3.051396131515503,2.22,3.54,1.42,4.41
3.0614571571350098,2.55,3.09,1.04,4.13
3.0714192390441895,2.3,3.0,0.17,3.78
3.0814762115478516,1.74,3.26,-0.39,3.71
3.105429172515869,1.33,3.13,-0.23,3.4
3.107288122177124,1.25,2.08,0.14,2.43
3.1112730503082275,1.14,1.39,0.19,1.8
3.121148109436035,1.24,1.14,-0.04,1.68
3.131248950958252,1.99,0.78,-0.52,2.19
3.141280174255371,3.53,0.56,-0.5,3.6
3.1512742042541504,4.67,0.79,0.7,4.78
3.1612300872802734,4.41,1.19,2.02,4.99
3.1712522506713867,4.89,0.99,1.02,5.09
3.1813671588897705,5.7,0.45,1.04,5.81
3.2056660652160645,5.57,0.38,2.43,6.08
3.2074310779571533,5.91,-0.11,2.99,6.62
3.2111871242523193,5.71,-0.44,2.66,6.31
3.22114896774292,5.29,-0.3,2.03,5.67
3.2311320304870605,5.02,-0.13,1.8,5.33
3.241223096847534,4.76,0.07,1.82,5.09
3.2511141300201416,4.32,0.15,1.85,4.7
3.261168956756592,3.96,0.23,1.77,4.34
3.2713489532470703,3.59,0.28,1.63,3.95
3.281126022338867,3.14,0.32,1.46,3.47
3.3057589530944824,2.73,0.39,1.34,3.06
3.3076729774475098,2.3,0.54,1.22,2.65
3.3109970092773438,1.81,0.72,0.98,2.18
3.3211312294006348,1.47,0.9,0.69,1.85
3.3309731483459473,1.32,1.1,0.35,1.75
3.341017246246338,1.05,1.21,0.17,1.61
3.350931167602539,0.59,1.25,0.21,1.39
3.360934257507324,0.19,1.26,0.22,1.29
3.3715462684631348,-0.19,1.32,0.02,1.33
3.3809330463409424,-1.07,1.33,-0.18,1.71
3.406096935272217,-1.97,1.1,-0.26,2.27
3.4078359603881836,-2.3,0.86,-0.48,2.5
3.410830020904541,-2.16,0.82,-0.63,2.39
3.4213991165161133,-1.8,0.77,-0.46,2.01
3.4308371543884277,-1.53,0.63,-0.15,1.66
3.4408249855041504,-1.48,0.55,0.0,1.57
3.4508070945739746,-1.53,0.48,-0.12,1.6
3.4608681201934814,-1.67,0.37,-0.25,1.72
3.470863103866577,-1.48,0.47,-0.03,1.55
3.4807939529418945,-1.28,0.62,0.11,1.42
3.5058422088623047,-1.36,0.49,-0.18,1.45
3.5075111389160156,-1.45,0.1,-1.1,1.82
3.510611057281494,-2.39,-0.05,-2.52,3.47
3.5205559730529785,-4.79,-0.36,-3.92,6.2
3.5306410789489746,-8.19,-1.53,-4.93,9.68
3.5407042503356934,-10.34,-2.8,-5.15,11.88
3.5505731105804443,-10.28,-2.69,-4.89,11.69
3.5607709884643555,-10.43,-1.75,-5.83,12.07
3.5707201957702637,-9.27,-2.06,-6.36,11.42
3.580641269683838,-5.02,6.95,-4.8,9.82
3.6057939529418945,-2.85,6.86,-2.73,7.91
3.6078929901123047,-0.85,-2.6,-2.92,4.0
3.610495090484619,11.58,-0.79,4.99,12.63
3.6205520629882812,17.12,-0.02,15.27,22.94
3.630491256713867,9.45,0.12,5.38,10.87
3.6405670642852783,-0.46,1.17,-3.22,3.45
3.6504812240600586,-5.06,0.42,-3.6,6.22
3.660515069961548,-3.05,0.33,-2.42,3.9
3.670452117919922,-0.76,2.31,-2.95,3.82
3.6804871559143066,-1.03,3.96,-2.68,4.89
3.705540180206299,-3.77,3.72,-2.46,5.83
3.7076101303100586,-6.21,1.62,-3.24,7.18
3.7103121280670166,-5.64,0.19,-3.81,6.8
3.7203149795532227,-2.79,3.31,-4.03,5.91
3.730401039123535,-4.49,1.67,-5.48,7.27
3.7404041290283203,-3.9,0.03,-4.17,5.7
3.750307083129883,-1.19,-1.58,1.12,2.27
3.7603111267089844,-2.28,-3.55,1.72,4.55
3.7700881958007812,-3.04,-3.05,-0.45,4.32
3.780379056930542,-1.51,-2.0,-0.08,2.5
3.8068971633911133,-0.09,-0.57,-0.11,0.58
3.8084769248962402,-0.69,0.94,-1.26,1.71
3.8100500106811523,-2.26,1.93,-0.56,3.02
3.8201889991760254,-2.64,1.93,-0.16,3.27
3.8302290439605713,-2.51,0.06,0.58,2.57
3.8402440547943115,-3.61,-1.05,1.47,4.03
3.850172996520996,-4.84,-1.0,1.19,5.08
3.8601951599121094,-5.53,-0.76,0.97,5.66
3.8701040744781494,-5.03,-0.72,0.57,5.11
3.8801522254943848,-3.38,-0.9,0.16,3.5
3.9089932441711426,-1.35,-0.62,0.2,1.49
3.9101972579956055,-0.26,0.07,0.22,0.34
3.9113731384277344,0.42,0.38,-0.65,0.86
3.920030117034912,1.12,0.46,-1.21,1.71
3.9300832748413086,1.39,0.53,-2.0,2.49
3.9399290084838867,1.35,0.28,-2.2,2.59
3.9499502182006836,0.97,0.25,-1.89,2.13
3.9600162506103516,0.17,0.4,-1.5,1.56
3.969942092895508,-0.37,0.33,-0.99,1.1
3.9800491333007812,-0.37,0.14,-0.85,0.93
4.009051084518433,-0.19,0.01,-0.74,0.76
4.010129928588867,0.03,0.02,-0.32,0.32
4.011183261871338,-0.02,-0.05,0.26,0.26
4.019883155822754,-0.33,-0.06,0.83,0.89
4.029890060424805,-0.79,-0.02,1.05,1.31
4.0398101806640625,-0.93,-0.07,1.13,1.46
4.049850940704346,-0.83,-0.14,0.72,1.1
4.0598671436309814,-1.0,-0.15,0.42,1.09
4.069834232330322,-1.15,-0.05,0.5,1.25
4.079797267913818,-1.14,0.02,0.72,1.34
4.1079981327056885,-1.03,-0.04,0.83,1.32
4.109054088592529,-1.02,0.01,0.6,1.18
4.110089063644409,-0.96,0.15,0.26,1.0
4.119784116744995,-0.61,0.22,-0.13,0.66
4.129676103591919,0.04,0.14,0.23,0.27
4.139683246612549,0.46,0.09,0.27,0.54
4.149639129638672,0.55,0.17,0.0,0.57
4.15976619720459,0.52,0.15,-0.63,0.83
4.169744968414307,0.47,-0.04,-1.29,1.37
4.179677963256836,0.59,-0.01,-1.17,1.31
4.209188938140869,0.96,0.13,-0.78,1.24
4.210276126861572,1.06,0.05,-0.91,1.39
4.211345195770264,0.63,-0.22,-1.31,1.47
4.219532012939453,0.24,-0.32,-1.25,1.31
4.229568958282471,-0.12,-0.28,-0.94,0.98
4.239483118057251,-0.39,-0.19,-0.77,0.88
4.249354124069214,-0.07,0.0,-0.45,0.45
4.259551048278809,0.59,0.13,-0.54,0.81
4.269484043121338,1.11,-0.12,-0.4,1.18
4.279486179351807,1.07,-0.53,-0.72,1.39
4.308355093002319,0.45,-0.58,-1.22,1.42
4.309459209442139,-0.05,-0.1,-1.58,1.58
4.310523986816406,0.31,-0.08,-1.15,1.19
4.319361209869385,0.67,-0.39,-0.25,0.81
4.329358100891113,0.7,-0.08,-0.26,0.75
4.339259147644043,-0.21,0.26,-0.21,0.39
4.349316120147705,-0.8,0.33,0.95,1.28
4.359391212463379,-0.77,0.28,1.09,1.36
4.3693461418151855,-0.88,0.11,0.77,1.17
4.379353046417236,-0.55,0.03,0.55,0.77
4.409326076507568,-0.25,-0.06,0.06,0.26
4.41038703918457,0.12,-0.04,-0.24,0.27
4.411442279815674,0.6,0.03,-0.38,0.71
4.419204235076904,0.76,0.02,-0.35,0.83
4.429245948791504,0.45,-0.07,-0.16,0.48
4.4393310546875,-0.14,-0.13,0.16,0.24
4.449223041534424,-0.67,-0.26,0.34,0.79
4.459235191345215,-0.84,-0.4,0.18,0.94
4.4691619873046875,-0.39,-0.36,-0.12,0.54
4.4792160987854,0.46,0.03,-0.41,0.61
4.508721113204956,0.91,0.34,0.12,0.97
4.509781122207642,0.86,0.21,0.65,1.09
4.5107550621032715,0.61,0.11,0.28,0.68
4.518993139266968,0.27,0.11,-0.12,0.31
4.529024124145508,-0.17,-0.07,-0.18,0.25
4.539420127868652,-0.43,-0.05,-0.34,0.55
4.5490031242370605,-0.06,0.02,-0.42,0.42
4.558990001678467,0.64,0.05,-0.57,0.85
4.569019079208374,1.5,0.32,-0.62,1.65
4.579035043716431,2.41,0.6,0.2,2.49
4.609960079193115,3.08,0.9,0.64,3.27
4.61099910736084,3.41,1.14,0.79,3.68
4.611932277679443,3.31,1.13,1.05,3.65
4.618868112564087,3.23,1.06,1.16,3.59
4.6288981437683105,3.72,1.05,1.18,4.04
4.638874053955078,4.33,0.88,1.8,4.77
4.648770093917847,4.87,1.31,1.75,5.33
4.658926963806152,4.31,2.74,1.21,5.24
4.668816089630127,3.26,4.04,1.19,5.32
4.678892135620117,2.76,5.42,-0.96,6.15
4.688879013061523,2.5,5.55,-0.14,6.08
4.71134614944458,2.0,5.0,0.36,5.39
4.7122802734375,1.6,5.3,-1.12,5.64
4.718746185302734,2.99,6.84,-0.87,7.51
4.728779077529907,6.47,8.21,-0.46,10.46
4.738701105117798,8.19,7.67,-0.6,11.23
4.74862813949585,6.27,5.85,-1.66,8.73
4.758780002593994,3.06,4.51,-2.22,5.88
4.768698215484619,0.37,2.8,-1.99,3.45
4.778745174407959,-1.57,1.46,-0.54,2.21
4.788730144500732,-3.22,0.21,-0.38,3.24
4.811501979827881,-2.35,-1.02,-1.43,2.93
4.812451124191284,0.93,-1.28,-0.48,1.65
4.818521022796631,4.25,-2.37,0.81,4.93
4.828640937805176,4.66,-3.02,1.31,5.7
4.8385701179504395,5.8,-2.91,-0.85,6.54
4.848441123962402,7.59,-2.45,0.19,7.97
4.8586812019348145,8.38,-2.33,2.7,9.1
4.868534088134766,8.45,-2.9,3.23,9.49
4.878564119338989,7.75,-3.52,2.98,9.01
4.888510227203369,7.43,-3.88,2.67,8.79
4.911350250244141,7.49,-3.62,2.42,8.66
4.912307262420654,7.38,-3.11,2.32,8.33
4.918385028839111,6.86,-2.73,2.35,7.74
4.928429126739502,5.72,-2.36,2.48,6.66
4.938292980194092,4.44,-1.7,2.67,5.45
4.948308944702148,3.28,-0.7,2.4,4.12
4.958415985107422,2.42,0.38,1.71,2.98
4.968378067016602,2.09,1.53,1.05,2.79
4.978443145751953,1.75,2.62,0.39,3.17
4.988431930541992,1.1,4.17,-0.35,4.32
5.011306047439575,0.29,5.89,-1.22,6.02
5.012222051620483,-0.68,6.6,-1.81,6.87
5.018237113952637,-4.36,6.9,-1.39,8.27
5.028195142745972,-6.31,6.31,-2.21,9.19
5.038227081298828,-6.6,5.79,-3.37,9.4
5.048460006713867,-5.76,5.27,-3.93,8.74
5.058406114578247,-4.29,3.82,-3.61,6.78
5.06826114654541,-3.98,2.03,-3.08,5.42
5.078252077102661,-4.76,1.04,-3.36,5.91
5.088221073150635,-6.13,0.31,-3.98,7.31
5.110956192016602,-7.54,-0.78,-4.16,8.64
5.111832141876221,-8.47,-1.97,-3.79,9.48
5.118093013763428,-8.85,-2.59,-3.48,9.85
5.128284931182861,-8.37,-2.62,-3.34,9.38
5.138047218322754,-7.16,-2.47,-3.04,8.16
5.148075103759766,-5.82,-1.91,-2.91,6.78
5.158153057098389,-4.97,-1.07,-3.24,6.02
5.168079137802124,-4.54,-0.86,-3.33,5.69
5.178097248077393,-4.47,-1.08,-2.95,5.46
5.18804407119751,-4.72,-1.57,-2.48,5.55
5.211550235748291,-5.03,-2.02,-2.27,5.87
5.212517261505127,-4.12,1.75,-2.58,5.16
5.217919111251831,2.38,6.15,-2.56,7.07
5.2280120849609375,10.17,5.83,2.06,11.9
5.237895965576172,15.18,2.4,12.82,20.01
5.247931003570557,9.69,-2.28,11.9,15.51
5.257897138595581,1.47,-2.08,1.65,3.03
5.26792311668396,-3.7,-1.72,-2.81,4.95
5.278018951416016,-4.76,0.33,-2.38,5.33
5.287905216217041,-2.44,2.3,-1.58,3.7
5.312155246734619,-0.16,3.1,-0.74,3.19
5.313571929931641,0.04,3.19,0.37,3.21
5.317780017852783,-1.88,3.13,0.33,3.66
5.327761173248291,-4.18,3.27,-0.6,5.34
5.337733268737793,-4.52,2.99,-1.69,5.67
5.347758054733276,-3.04,0.78,-2.2,3.83
5.357654094696045,-0.47,-1.53,-1.68,2.32
5.367710113525391,0.85,-3.31,-0.07,3.41
5.377737998962402,-1.1,-2.32,-0.4,2.59
5.387689113616943,-5.75,-3.71,-6.29,9.29
5.412243127822876,-8.61,1.45,-7.13,11.27
5.41359806060791,-6.74,4.4,-1.19,8.13
5.417542934417725,-3.73,0.23,2.19,4.33
5.427637100219727,-0.86,-1.15,0.16,1.44
5.437535047531128,1.47,-0.29,-2.12,2.59
5.447550058364868,2.08,-0.34,-0.92,2.29
5.457517147064209,1.28,-0.27,0.28,1.33
5.4675211906433105,-0.33,0.74,0.05,0.81
5.47761607170105,-2.22,0.8,0.29,2.37
5.48753023147583,-3.51,0.22,0.56,3.56
5.513611078262329,-3.79,-0.18,0.03,3.79
5.514491081237793,-3.82,-0.66,-0.57,3.91
5.517473220825195,-3.5,-0.99,-0.59,3.68
5.527493000030518,-3.05,-0.78,-0.14,3.15
5.537422180175781,-2.5,-0.53,0.19,2.56
5.547450065612793,-1.74,-0.3,0.53,1.84
5.55731725692749,-1.51,0.0,0.66,1.64
5.567490100860596,-1.44,0.16,0.76,1.63
5.577820062637329,-1.07,0.05,1.02,1.47
5.587438106536865,-0.77,0.23,1.01,1.29
5.613687038421631,-0.53,0.38,0.56,0.85
5.614563941955566,-0.46,-0.03,0.12,0.47
5.617325067520142,-0.78,-0.17,-0.34,0.86
5.6273181438446045,-1.2,0.01,-0.44,1.27
5.637248992919922,-1.43,-0.08,-0.23,1.45
5.647323131561279,-1.26,-0.02,-0.29,1.29
5.657217025756836,-0.77,-0.04,-0.35,0.84
5.66735315322876,-0.56,-0.11,-0.66,0.87
5.677369117736816,-0.33,-0.05,-1.02,1.07
5.687282085418701,0.02,-0.16,-1.03,1.04
5.714637279510498,0.05,-0.1,-0.95,0.95
5.715525150299072,-0.25,0.25,-0.68,0.76
5.717085123062134,-0.42,0.3,-0.2,0.55
5.727307081222534,-0.46,0.03,-0.43,0.63
5.737100124359131,-0.33,-0.22,-0.81,0.9
5.7471630573272705,-0.16,-0.36,-0.92,1.0
5.757246971130371,-0.03,-0.38,-0.98,1.05
5.767128944396973,0.26,-0.26,-0.66,0.75
5.777241230010986,0.65,-0.19,-0.6,0.9
5.78718113899231,0.74,-0.19,-0.74,1.06
5.8136749267578125,0.6,-0.2,-0.98,1.16
5.814552068710327,0.61,-0.38,-1.22,1.41
5.817060947418213,0.71,-0.29,-1.55,1.72
5.827085018157959,0.78,0.0,-1.15,1.38
5.836979150772095,0.8,0.03,-0.6,1.0
5.846948146820068,0.59,0.0,-0.36,0.69
5.856963157653809,0.32,0.08,-0.37,0.49
5.866815090179443,0.36,0.04,-0.49,0.6
5.87692403793335,0.49,-0.05,-0.63,0.79
5.88699197769165,0.36,0.06,-0.52,0.63
5.914499044418335,0.19,0.05,-0.46,0.5
5.915369987487793,0.28,-0.04,-1.16,1.19
5.916741132736206,0.3,-0.2,-1.76,1.79
5.926859140396118,0.34,-0.59,-1.68,1.81
5.936811923980713,0.43,-0.69,-1.68,1.86
5.946767091751099,0.39,-0.36,-1.95,2.02
5.956768989562988,0.01,0.05,-1.29,1.29
5.966615200042725,-0.21,0.35,-0.45,0.6
5.976798057556152,-0.2,0.14,0.39,0.46
5.986809253692627,-0.23,0.01,0.9,0.92
6.014594078063965,-0.06,0.18,1.32,1.33
6.015488147735596,-0.02,0.11,1.6,1.6
6.016607046127319,-0.05,0.07,1.21,1.21
6.0267181396484375,0.12,0.12,1.01,1.02
6.036670207977295,0.22,0.08,0.81,0.84
6.046615123748779,0.36,0.07,0.54,0.65
6.056581020355225,0.77,0.1,0.38,0.86
6.0665812492370605,1.34,0.04,0.77,1.54
6.076643943786621,1.89,-0.04,1.22,2.24
6.086521148681641,1.72,-0.15,1.86,2.53
6.115056991577148,1.34,-0.12,2.38,2.73
6.11594295501709,1.17,0.11,1.78,2.13
6.116790056228638,0.86,0.15,0.99,1.31
6.126595973968506,0.76,0.08,0.76,1.07
6.136415958404541,0.89,0.04,0.58,1.06
6.146539211273193,0.88,0.11,0.4,0.97
6.15645694732666,0.82,0.1,0.34,0.89
6.166365146636963,1.25,0.13,0.2,1.27
6.176541090011597,2.05,0.16,0.28,2.07
6.186429023742676,2.8,0.26,0.26,2.82
6.214816093444824,3.2,0.79,-0.36,3.31
6.2156782150268555,3.25,1.47,-0.86,3.66
6.216508150100708,3.59,1.94,-0.93,4.18
6.22633695602417,3.23,1.9,-0.74,3.81
6.2362799644470215,2.29,1.76,-0.27,2.9
6.246397018432617,1.02,2.16,0.23,2.39
6.256315231323242,0.57,3.85,-0.44,3.91
6.266348123550415,2.6,4.98,0.22,5.62
6.276381969451904,2.81,4.26,2.06,5.5
6.286306142807007,3.0,3.92,0.29,4.94
6.315634250640869,3.24,4.7,-0.02,5.7
6.316529273986816,4.05,5.3,0.16,6.67
6.317348003387451,4.79,5.44,-0.38,7.25
6.326288223266602,4.48,5.28,-0.89,6.98
6.336179256439209,3.19,4.31,-1.22,5.49
6.346233129501343,1.92,3.57,-1.57,4.34
6.356123924255371,1.13,2.91,-1.75,3.57
6.366199970245361,0.88,1.86,-1.78,2.72
6.3761820793151855,0.63,1.05,-1.12,1.65
6.386185169219971,1.85,0.68,-0.57,2.05
6.415771961212158,3.84,-0.56,0.65,3.93
6.416653156280518,2.7,-1.02,2.28,3.67
6.417466163635254,3.83,-1.17,0.12,4.0
6.426091194152832,6.3,-0.94,-0.27,6.37
6.435917139053345,7.68,-0.62,1.31,7.81
6.446049213409424,8.07,-1.39,2.17,8.47
6.456017017364502,7.36,-1.83,2.22,7.9
6.465933084487915,6.72,-1.65,2.0,7.2
6.47602915763855,6.39,-1.26,1.91,6.78
6.485939025878906,5.87,-1.15,1.84,6.25
6.516668081283569,5.08,-1.27,1.7,5.5
6.517477035522461,4.11,-1.32,1.36,4.52
6.51826810836792,3.5,-1.26,0.83,3.81
6.52577018737793,3.27,-1.05,0.79,3.52
6.535848140716553,2.97,-0.64,1.19,3.26
6.545880079269409,2.43,-0.16,1.17,2.7
6.555819988250732,1.21,0.41,0.9,1.56
6.5658440589904785,-0.35,1.01,0.36,1.12
6.5757012367248535,-1.07,1.81,-0.5,2.16
6.585755109786987,-1.01,2.75,-1.17,3.15
6.617051124572754,-0.98,3.58,-1.33,3.94
6.6178600788116455,-0.88,3.47,-1.2,3.77
6.618669033050537,-1.03,2.88,-0.75,3.14
6.625586032867432,-3.05,2.35,0.17,3.85
6.635752201080322,-3.62,1.74,0.19,4.02
6.645738124847412,-3.21,1.72,-0.22,3.64
6.6556971073150635,-2.75,2.41,-0.82,3.74
6.665521144866943,-2.86,2.97,-1.22,4.29
6.6755781173706055,-3.23,3.08,-1.42,4.68
6.685647010803223,-3.64,2.43,-1.55,4.64
6.7164201736450195,-4.07,1.63,-1.74,4.71
6.717203140258789,-4.36,0.9,-1.75,4.78
6.717931270599365,-4.74,0.47,-1.54,5.0
6.725511074066162,-5.57,0.46,-1.57,5.8
6.735502243041992,-5.99,0.25,-1.81,6.26
6.745602130889893,-5.61,-0.77,-1.89,5.96
6.755523204803467,-5.81,-0.9,-1.53,6.07
6.765557050704956,-5.97,-1.02,-1.34,6.2
6.775568962097168,-6.18,-1.43,-1.69,6.56
6.785537242889404,-6.35,-1.82,-2.54,7.07
6.816528081893921,-5.99,-2.19,-3.53,7.28
6.817348957061768,-5.49,-1.39,-4.03,6.95
6.818112134933472,-5.4,-0.72,-3.8,6.64
6.82534122467041,-5.77,-1.04,-2.96,6.56
6.835330009460449,-5.89,0.04,-2.26,6.3
6.845386028289795,-3.05,9.55,-2.15,10.25
6.855349063873291,-0.04,5.55,-2.38,6.03
6.865321159362793,6.32,-4.06,-1.27,7.61
6.875448226928711,15.61,-3.68,8.22,18.02
6.885373115539551,13.28,-1.44,11.28,17.48
6.914016246795654,4.25,1.19,2.79,5.22
6.914855003356934,-4.92,1.01,-2.61,5.66
6.91564416885376,-6.28,1.16,-2.35,6.8
6.925509929656982,-3.33,2.5,-1.09,4.3
6.935213088989258,-1.78,3.88,-1.03,4.39
6.945199012756348,-2.22,5.12,-0.74,5.62
6.955196142196655,-4.02,5.31,-1.22,6.77
6.96514105796814,-3.73,2.6,-2.01,4.97
6.975577116012573,-1.61,-0.12,-1.6,2.27
6.985203266143799,-0.64,-1.98,-1.01,2.31
7.016409158706665,-0.72,-1.79,-0.55,2.0
7.017230033874512,-2.29,-1.98,-1.7,3.47
7.018040180206299,-4.16,-2.11,-2.91,5.49
7.025049209594727,-5.18,-0.38,-2.6,5.8
7.034910202026367,-5.63,0.2,-1.95,5.96
7.045177936553955,-5.47,-0.11,-1.79,5.75
7.055078983306885,-4.12,0.03,-1.98,4.57
7.065025091171265,-1.82,1.05,-1.85,2.79
7.075041055679321,0.15,2.11,-1.59,2.64
7.085000038146973,0.78,2.12,-0.92,2.43
7.1166672706604,1.19,0.42,-0.52,1.36
7.117479085922241,0.38,-0.47,0.12,0.61
7.118268013000488,-1.15,-0.6,0.35,1.34
7.124896049499512,-2.04,-0.86,0.46,2.26
7.134781122207642,-2.39,-1.02,0.5,2.64
7.144866943359375,-2.22,-0.91,0.18,2.4
7.154935121536255,-1.91,-0.54,-0.16,1.99
7.164955139160156,-1.72,-0.28,-0.23,1.75
7.174953937530518,-1.45,-0.15,-0.2,1.47
7.184788227081299,-1.43,0.04,-0.18,1.44
7.216701030731201,-1.29,0.16,-0.28,1.32
7.217522144317627,-1.08,0.17,0.02,1.09
7.21832799911499,-0.96,0.04,0.44,1.05
7.2248711585998535,-0.15,-0.06,0.41,0.44
7.2347731590271,-0.15,0.04,0.84,0.85
7.244802951812744,-0.69,0.09,0.98,1.2
7.2546892166137695,-0.65,-0.16,0.59,0.89
7.264674186706543,-0.56,-0.32,0.57,0.86
7.274646043777466,-0.62,-0.28,0.16,0.69
7.284633159637451,-0.73,-0.19,-0.07,0.75
7.317084074020386,-0.75,-0.33,0.07,0.82
7.317904949188232,-0.59,-0.34,-0.16,0.69
7.3187031745910645,-0.06,-0.31,-0.22,0.38
7.324594020843506,0.17,-0.14,0.03,0.22
7.334558963775635,0.32,-0.07,-0.01,0.32
7.34466814994812,0.88,-0.06,-0.02,0.88
7.354557037353516,1.12,0.19,-0.37,1.19
7.364624977111816,0.18,0.35,-1.52,1.57
7.374558925628662,-1.28,0.05,-1.63,2.07
7.3845601081848145,-1.86,-0.23,-1.15,2.19
7.417089939117432,-1.48,0.06,-0.68,1.62
7.417911052703857,-0.6,0.11,0.27,0.66
7.418704032897949,0.05,-0.04,0.61,0.61
7.424391269683838,0.1,-0.02,-0.04,0.1
7.434421062469482,-0.42,0.08,-0.29,0.51
7.444518089294434,-0.67,0.03,-0.28,0.72
7.454493045806885,-0.44,0.04,-0.38,0.58
7.4644410610198975,-0.06,0.18,-0.62,0.64
7.474374055862427,0.16,0.14,-0.9,0.92
7.484255075454712,0.02,-0.12,-1.06,1.06
7.516170024871826,-0.26,-0.3,-1.19,1.25
7.516955137252808,-0.31,-0.16,-1.07,1.12
7.5176849365234375,-0.01,-0.14,-0.73,0.74
7.524276256561279,0.42,-0.09,-0.77,0.88
7.534252166748047,0.71,-0.19,-0.7,1.01
7.544342041015625,0.88,-0.03,-0.32,0.93
7.554234981536865,0.99,0.02,0.21,1.01
7.564269065856934,0.82,0.11,0.41,0.92
7.574141025543213,0.5,-0.01,0.44,0.66
7.584188938140869,0.53,0.05,0.08,0.53
7.6165571212768555,0.69,0.04,-0.29,0.74
7.6173601150512695,0.71,0.03,-0.33,0.78
7.618112087249756,0.55,-0.02,-0.39,0.67
7.624104976654053,0.15,-0.14,-0.48,0.52
7.634156227111816,-0.09,0.06,-0.52,0.53
7.6440229415893555,0.17,-0.07,-0.43,0.46
7.654041051864624,0.46,-0.06,-0.37,0.59
7.664132118225098,0.18,-0.1,-0.56,0.59
7.674033164978027,-0.31,-0.07,-0.79,0.85
7.6841349601745605,-0.51,-0.14,-0.73,0.9
7.717038154602051,-0.56,-0.13,-0.47,0.74
7.7178521156311035,-0.48,-0.05,-0.32,0.57
7.718670129776001,-0.38,0.13,-0.18,0.44
7.724008083343506,-0.26,0.28,0.06,0.38
7.733953952789307,-0.1,0.3,0.39,0.5
7.743978977203369,-0.24,0.09,0.43,0.5
7.753950119018555,-0.47,0.02,0.18,0.5
7.7639970779418945,-0.56,0.04,0.09,0.56
7.7739362716674805,-0.35,-0.02,-0.02,0.35
7.7838640213012695,0.05,0.0,-0.19,0.19
7.817315101623535,0.33,0.0,-0.57,0.65
7.818079948425293,0.29,0.05,-0.58,0.65
7.819248199462891,0.4,0.17,-0.26,0.5
7.82383394241333,0.63,0.21,-0.03,0.66
7.833797931671143,0.93,0.16,0.12,0.95
7.843708038330078,1.19,0.07,0.17,1.2
7.853783130645752,1.19,-0.02,0.28,1.22
7.863786220550537,1.07,-0.08,0.42,1.15
7.873813152313232,1.25,-0.01,0.4,1.31
7.883680105209351,1.75,0.05,0.27,1.77
7.9167160987854,2.36,0.04,0.5,2.41
7.917457103729248,3.16,0.13,0.7,3.23
7.918210029602051,3.85,0.42,0.69,3.93
7.923784255981445,4.54,0.81,0.67,4.66
7.933617115020752,4.82,1.11,0.72,4.99
7.943487167358398,4.51,1.45,0.97,4.83
7.953498125076294,3.96,1.95,1.32,4.6
7.9635772705078125,3.32,2.45,1.57,4.41
7.9735002517700195,2.69,3.11,1.05,4.24
7.9836320877075195,2.2,3.21,-1.74,4.26
8.018160104751587,2.69,4.06,-3.64,6.08
8.019302129745483,2.61,5.69,-2.02,6.57
8.020030975341797,2.22,5.91,-1.64,6.52
8.02348804473877,3.28,6.1,-2.52,7.37
8.033603191375732,4.72,6.3,-3.41,8.57
8.043539047241211,5.36,6.12,-3.25,8.76
8.053487062454224,4.9,4.18,-2.35,6.85
8.063473224639893,4.28,1.54,-1.69,4.85
8.073459148406982,4.19,-0.67,-0.26,4.25
8.083518028259277,4.44,-1.08,1.19,4.72
8.117936134338379,3.76,-1.5,1.75,4.41
8.11909294128418,4.64,-1.96,-0.04,5.03
8.119826078414917,6.34,-0.7,-0.32,6.38
8.123357057571411,8.93,-0.55,1.09,9.01
8.133305072784424,10.18,-0.85,1.97,10.4
8.14356803894043,9.04,-0.42,1.75,9.21
8.153298139572144,7.23,0.37,1.34,7.36
8.163358211517334,6.07,0.9,1.21,6.25
8.173265933990479,5.94,0.48,1.31,6.1
8.183261156082153,6.23,0.38,1.33,6.38
8.218886137008667,6.17,0.7,0.98,6.28
8.219627141952515,5.56,1.02,0.18,5.65
8.220354080200195,4.67,1.43,-0.75,4.94
8.22324514389038,3.59,1.83,-1.4,4.26
8.233253955841064,2.04,2.05,-1.92,3.47
8.2435302734375,0.5,2.25,-2.42,3.34
8.253221035003662,-1.61,2.52,-2.55,3.93
8.263167142868042,-3.02,2.35,-2.67,4.66
8.27315616607666,-3.34,2.01,-2.71,4.74
8.283120155334473,-2.1,1.32,-2.9,3.81
8.29316520690918,-3.03,0.72,-1.6,3.5
8.319578170776367,-4.08,-0.03,-0.68,4.13
8.320312023162842,-4.3,-0.21,-0.53,4.33
8.323097229003906,-4.48,0.29,-1.05,4.61
8.333091259002686,-4.38,0.56,-0.94,4.51
8.343017101287842,-4.25,0.79,-0.59,4.36
8.353065967559814,-4.08,1.14,-0.54,4.27
8.363018989562988,-3.56,1.56,-0.99,4.01
8.372981071472168,-2.82,2.18,-1.44,3.84
8.38295316696167,-2.51,2.59,-1.61,3.94
8.392945051193237,-3.06,2.18,-1.49,4.04
8.419214248657227,-4.29,1.23,-1.08,4.59
8.419907093048096,-5.12,0.31,-0.74,5.18
8.422849178314209,-5.57,-0.57,-0.57,5.62
8.432997226715088,-5.56,-1.09,-0.5,5.68
8.442851066589355,-5.23,-1.15,-0.44,5.37
8.452832221984863,-4.43,-1.04,-0.4,4.56
8.462870121002197,-3.68,-1.06,-0.75,3.9
8.472819089889526,-3.16,-1.14,-1.19,3.56
8.48278522491455,-2.97,-1.34,-1.62,3.63
8.49277400970459,-3.44,-1.36,-2.04,4.22
8.518700122833252,-4.35,-1.05,-2.26,5.01
8.519399166107178,-5.04,-1.0,-2.16,5.57
8.522711277008057,-5.33,-1.12,-2.03,5.81
8.532762050628662,-5.41,-1.41,-2.1,5.97
8.542556047439575,-5.44,-1.67,-2.29,6.13
8.552666187286377,-5.21,-0.68,-2.19,5.69
8.562932014465332,-0.96,8.83,-2.99,9.37
8.572598934173584,5.3,5.97,-0.97,8.04
8.582634925842285,10.09,-2.31,3.5,10.92
8.59266710281372,10.29,-2.45,9.87,14.46
8.619115114212036,1.95,-1.83,5.45,6.07
8.61981201171875,-6.39,-1.5,-3.93,7.65
8.622519969940186,-8.38,0.68,-5.71,10.16
8.63257122039795,-2.85,4.05,-1.48,5.16
8.642502069473267,1.7,6.61,-0.29,6.83
8.652550220489502,1.44,8.87,-0.82,9.02
8.66240906715393,-2.52,8.92,-1.71,9.42
8.672527074813843,-5.49,4.68,-2.66,7.68
8.682517051696777,-5.89,1.16,-2.39,6.46
8.69249415397644,-5.17,-0.03,-2.21,5.62
8.71956205368042,-3.38,-0.32,-2.45,4.18
8.720258235931396,-2.21,-1.2,-2.19,3.33
8.722245216369629,-0.93,-1.31,-1.39,2.12
8.732337951660156,-0.72,-2.23,-0.13,2.34
8.742257118225098,-2.38,-3.02,0.0,3.84
8.752201080322266,-4.36,-2.39,-1.24,5.12
8.762428045272827,-4.69,-1.05,-2.25,5.3
8.772414207458496,-3.13,0.24,-1.77,3.6
8.801614046096802,-1.12,0.88,-0.47,1.49
8.802276134490967,0.25,0.66,0.12,0.71
8.802916049957275,1.13,0.49,0.18,1.24
8.812355041503906,1.3,0.52,0.33,1.43
8.82226014137268,0.59,0.19,0.07,0.62
8.832247257232666,-0.38,0.11,-0.5,0.63
8.84222412109375,-0.67,0.28,-0.6,0.94
8.852251052856445,-0.71,0.27,-0.38,0.84
8.862200260162354,-0.84,-0.28,-0.44,0.98
8.872214078903198,-1.41,-0.66,-1.01,1.85
8.903078079223633,-1.85,-0.44,-1.83,2.63
8.903779029846191,-1.95,-0.39,-1.34,2.39
8.904425144195557,-1.86,-0.13,-0.53,1.93
8.912106037139893,-1.52,0.08,-0.2,1.53
8.922040939331055,-1.11,-0.18,0.02,1.12
8.932063102722168,-1.07,-0.1,-0.26,1.1
8.942049026489258,-0.92,0.27,-0.19,0.97
8.952086925506592,-0.76,0.15,0.17,0.79
8.962090015411377,-0.87,-0.06,0.36,0.94
8.972191095352173,-0.94,-0.13,0.3,0.99
9.00309705734253,-1.09,-0.18,0.39,1.17
9.003774166107178,-1.3,-0.09,0.66,1.46
9.004400253295898,-1.45,-0.09,0.62,1.57
9.011889934539795,-1.34,-0.15,0.31,1.38
9.021907091140747,-0.99,-0.24,0.09,1.02
9.031901121139526,-0.77,-0.18,0.02,0.79
9.041827201843262,-0.59,-0.08,0.06,0.59
9.051937103271484,-0.68,0.04,-0.29,0.74
9.061783075332642,-0.36,-0.19,-0.87,0.96
9.071752071380615,-0.05,-0.1,-0.64,0.64
9.103452205657959,-0.13,0.11,-0.88,0.89
9.104160070419312,0.03,-0.17,-1.04,1.05
9.104844093322754,0.39,-0.09,-0.65,0.76
9.111629009246826,0.32,0.09,-0.24,0.41
9.121731042861938,0.24,0.09,-0.05,0.26
9.13175916671753,0.22,-0.14,-0.02,0.26
9.141725063323975,0.12,-0.05,-0.06,0.14
9.151735067367554,0.27,0.03,0.08,0.28
9.161592960357666,0.14,-0.21,0.4,0.47
9.171566009521484,-0.29,-0.27,0.53,0.66
9.203418254852295,-0.52,-0.16,0.59,0.8
9.204051971435547,-0.6,-0.05,0.59,0.84
9.204655170440674,-0.3,0.08,0.12,0.33
9.211491107940674,0.1,0.09,-0.52,0.53
9.221580982208252,0.26,-0.08,-0.98,1.01
9.231624126434326,0.08,0.09,-1.14,1.14
9.241501092910767,0.42,0.38,-1.32,1.43
9.251556158065796,0.75,0.19,-1.46,1.65
9.261614084243774,0.7,-0.11,-1.28,1.46
9.271628141403198,0.44,0.15,-1.02,1.12
9.303612232208252,0.3,0.09,-0.58,0.65
9.30427598953247,0.2,0.02,-0.26,0.32
9.304920196533203,0.03,-0.08,-0.09,0.12
9.311572074890137,-0.17,-0.23,0.22,0.36
9.321304082870483,-0.37,-0.16,0.47,0.61
9.33151626586914,-0.33,-0.15,0.91,0.97
9.34143614768982,-0.29,-0.14,0.95,1.0
9.351447105407715,-0.25,-0.11,0.46,0.53
9.361756086349487,0.01,0.01,0.11,0.11
9.37143611907959,0.34,0.06,-0.35,0.49
9.40395712852478,0.64,0.0,-0.63,0.89
9.404608249664307,0.8,-0.01,-0.71,1.06
9.405248165130615,0.66,0.1,-0.56,0.87
9.411628246307373,0.3,-0.02,-0.32,0.43
9.421278953552246,0.09,0.01,-0.25,0.26
9.431268215179443,0.04,0.0,-0.18,0.18
9.441294193267822,0.1,-0.06,-0.33,0.35
9.45124626159668,0.19,-0.07,-0.38,0.43
9.461230278015137,0.11,0.01,-0.15,0.18
9.471271991729736,0.03,0.05,0.13,0.14
9.503673076629639,-0.25,0.1,0.03,0.27
9.50432825088501,-0.47,0.19,-0.1,0.51
9.504975080490112,0.17,0.25,-0.45,0.54
9.511145114898682,1.13,0.2,-0.53,1.26
9.521130084991455,1.46,0.07,-0.22,1.47
9.531209945678711,1.18,0.01,0.04,1.18
9.541079998016357,0.68,-0.09,0.25,0.73
9.551151275634766,0.28,-0.15,0.27,0.41
9.561093091964722,0.24,-0.2,0.25,0.4
9.571187973022461,0.43,-0.14,0.36,0.57
9.605052947998047,0.7,0.02,0.37,0.79
9.606058120727539,0.92,0.02,0.48,1.03
9.606662273406982,1.18,0.11,0.7,1.37
9.61100721359253,1.33,0.28,0.87,1.61
9.620959043502808,1.38,0.44,1.06,1.79
9.630980968475342,1.46,0.63,0.89,1.82
9.640984058380127,1.76,0.62,0.5,1.93
9.65094518661499,2.13,0.5,0.26,2.2
9.66094708442688,2.27,0.55,0.19,2.34
9.670951128005981,1.81,0.93,0.11,2.03
9.704707145690918,1.12,1.12,0.03,1.58
9.705368995666504,0.85,1.06,-0.13,1.36
9.7063570022583,0.33,1.0,-0.73,1.28
9.710837125778198,-0.02,2.87,-1.53,3.25
9.720836162567139,1.16,4.68,-0.62,4.86
9.730868101119995,1.36,4.61,0.5,4.83
9.740839004516602,1.94,4.51,-0.76,4.96
9.750787258148193,2.9,4.51,-1.34,5.52
9.760722160339355,3.35,3.87,-1.07,5.22
9.770754098892212,3.27,3.45,-1.61,5.01
9.80443000793457,3.8,3.69,-2.45,5.83
9.805106163024902,5.06,4.06,-2.53,6.96
9.806088924407959,5.07,3.62,-2.57,6.73
9.810657978057861,3.66,2.49,-2.26,4.97
9.820701122283936,2.74,1.08,-1.78,3.44
9.830779075622559,2.39,0.01,-0.82,2.52
9.840641975402832,1.82,-0.28,0.19,1.85
9.850664138793945,0.05,0.09,0.94,0.94
9.860594272613525,0.14,-0.3,0.01,0.33
9.870594024658203,3.06,-0.76,-0.12,3.15
9.904850959777832,7.5,-0.55,1.41,7.65
9.905797004699707,9.65,-0.56,2.39,9.95
9.90640115737915,9.41,-0.99,2.54,9.79
9.910531997680664,8.99,-1.14,2.26,9.33
9.920416116714478,8.63,-1.22,2.1,8.96
9.930556058883667,7.84,-1.39,2.36,8.3
9.940567970275879,6.88,-1.49,2.53,7.48
9.950595140457153,6.11,-1.42,2.37,6.7
9.960511207580566,5.37,-1.2,1.96,5.84
9.970349073410034,4.48,-0.86,1.43,4.78
10.005520105361938,3.49,-0.4,0.96,3.64
10.006333112716675,2.56,0.1,0.7,2.65
10.006937980651855,1.79,0.56,0.44,1.92
10.010342121124268,1.01,0.84,0.33,1.35
10.020348072052002,0.36,0.88,0.39,1.02
10.03039026260376,0.2,1.09,0.26,1.13
10.040328025817871,-0.26,1.47,0.09,1.49
10.05041217803955,-2.29,1.72,0.46,2.9
10.060342073440552,-3.67,1.89,0.13,4.13
10.070277214050293,-4.0,2.39,-0.4,4.67
10.105719089508057,-3.63,2.89,-0.87,4.72
10.10633897781372,-3.15,3.16,-0.95,4.56
10.106931209564209,-2.93,3.02,-0.86,4.29
10.110137939453125,-2.69,2.5,-0.85,3.76
10.12020206451416,-2.27,2.2,-0.93,3.29
10.130157947540283,-1.85,2.39,-1.0,3.18
10.140146255493164,-1.56,2.72,-1.18,3.35
10.15018105506897,-1.95,3.07,-1.43,3.9
10.160116195678711,-2.7,3.03,-1.85,4.46
10.170187950134277,-3.09,2.69,-2.11,4.6
10.205855131149292,-2.95,1.84,-1.73,3.88
10.206462144851685,-2.42,0.59,-1.53,2.92
10.20705795288086,-2.19,-0.29,-1.61,2.73
10.210055112838745,-2.11,-1.21,-1.58,2.9
10.220025062561035,-1.97,-1.95,-1.5,3.15
10.229926109313965,-1.96,-2.08,-1.46,3.2
10.239814043045044,-1.79,-2.3,-1.59,3.31
10.25001311302185,-1.69,-2.18,-1.73,3.25
10.259952068328857,-1.87,-1.71,-2.03,3.24
10.269842147827148,-2.19,-1.72,-2.23,3.56
10.306137084960938,-2.42,-2.26,-2.23,3.99
10.306710243225098,-2.69,-2.42,-2.01,4.13
10.307305097579956,-3.29,-2.03,-1.82,4.27
10.30985713005066,-3.97,-1.67,-1.91,4.71
10.319898128509521,-4.83,-1.53,-2.18,5.51
10.329791069030762,-5.73,-1.52,-2.44,6.41
10.33987808227539,-5.45,-1.5,-2.54,6.19
10.349910259246826,-3.45,1.76,-2.12,4.41
10.359811067581177,2.14,7.36,-0.74,7.7
10.3698251247406,4.58,4.58,1.86,6.73
10.406527042388916,10.41,1.28,8.79,13.68
10.407133102416992,8.93,-2.39,13.09,16.02
10.407727241516113,2.03,-2.29,2.26,3.8
10.409809112548828,-4.23,-1.3,-4.84,6.55
10.419806957244873,-6.15,0.79,-4.52,7.67
10.429652214050293,-4.39,3.04,-2.95,6.1
10.439702033996582,-2.06,5.0,-2.85,6.11
10.44977617263794,-1.95,5.7,-2.11,6.38
10.459682941436768,-3.44,4.62,-2.07,6.12
10.469645977020264,-3.64,1.39,-2.53,4.64
10.507416248321533,-3.24,-0.23,-1.78,3.7
10.508021116256714,-4.27,2.27,-1.98,5.22
10.508615970611572,-7.82,0.33,-5.8,9.74
10.509506225585938,-7.07,0.43,-4.39,8.33
10.519474983215332,-2.63,-1.03,0.15,2.82
10.529782056808472,-1.54,-2.34,0.72,2.89
10.539392948150635,-1.72,-1.62,-1.69,2.9
10.549612045288086,-1.48,-1.36,-1.7,2.63
10.559515953063965,-0.96,-0.7,-1.0,1.55
10.569615125656128,-0.77,0.71,-0.6,1.2
10.606449127197266,-0.1,2.06,-1.21,2.39
10.607771158218384,0.4,1.0,-0.6,1.23
10.608355045318604,0.63,-0.23,0.49,0.83
10.609395027160645,0.35,-0.81,0.37,0.95
10.619438171386719,-1.49,-0.93,0.05,1.75
10.629399061203003,-3.32,-0.72,-0.16,3.4
10.639254093170166,-4.04,-0.55,0.18,4.08
10.649412155151367,-3.87,-0.41,0.09,3.89
10.659387111663818,-2.95,-0.17,-0.51,2.99
10.669425964355469,-1.6,-0.43,-0.58,1.75
10.67933702468872,-0.47,-0.23,-0.35,0.62
10.708389043807983,0.01,-0.07,0.46,0.46
10.708992958068848,0.19,0.1,1.33,1.34
10.709577083587646,0.12,0.26,0.96,1.0
10.719199180603027,0.49,0.04,-0.14,0.51
10.729167938232422,0.15,-0.06,-0.74,0.75
10.739176273345947,-1.32,-0.1,-0.94,1.62
10.749191045761108,-2.83,-0.25,-0.62,2.9
10.75917100906372,-3.16,-0.33,-0.37,3.19
10.769179105758667,-2.42,-0.33,-0.48,2.48
10.779174089431763,-1.38,-0.23,-0.52,1.49
10.808310985565186,-1.02,-0.19,-0.18,1.05
10.808938980102539,-0.9,-0.2,0.24,0.95
10.809523105621338,-1.07,-0.26,0.46,1.19
10.819119930267334,-1.12,-0.18,0.57,1.26
10.829028129577637,-0.71,-0.11,0.86,1.12
10.839035034179688,-0.74,-0.09,0.9,1.16
10.849203109741211,-0.56,-0.01,0.53,0.77
10.859052181243896,-0.21,0.18,-0.17,0.32
10.869033098220825,-0.81,0.27,-0.64,1.06
10.879012107849121,-1.16,0.16,-0.33,1.21
10.908050060272217,-0.59,-0.23,0.15,0.65
10.908644199371338,-0.33,-0.22,0.15,0.42
10.909200191497803,-0.43,-0.26,0.02,0.5
10.91900110244751,-0.67,-0.32,0.52,0.9
10.928799152374268,-1.02,-0.12,0.93,1.38
10.938926219940186,-1.18,0.1,0.94,1.51
10.948974132537842,-1.02,0.04,0.18,1.03
10.958936214447021,-0.62,-0.08,-0.88,1.07
10.968986988067627,-0.13,-0.44,-1.52,1.58
10.978836059570312,0.46,-0.47,-1.57,1.7
11.008702278137207,0.86,-0.05,-1.3,1.55
11.009298086166382,0.79,0.15,-1.51,1.71
11.00989294052124,0.32,0.05,-1.77,1.79
11.018857955932617,-0.06,-0.17,-1.79,1.79
11.028744220733643,0.16,-0.22,-1.54,1.56
11.038668155670166,0.64,-0.21,-1.14,1.32
11.048718929290771,0.87,-0.21,-0.78,1.18
11.058714151382446,1.19,-0.07,-0.51,1.29
11.06874418258667,1.38,-0.08,-0.57,1.49
11.078720092773438,1.31,-0.14,-1.07,1.69
11.109032154083252,1.12,0.03,-1.12,1.58
11.109630107879639,0.63,-0.13,-0.24,0.68
11.110217094421387,0.31,-0.19,0.33,0.49
11.118656158447266,0.39,0.18,0.13,0.44
11.128615140914917,0.55,0.19,0.6,0.83
11.138625144958496,1.09,0.03,0.99,1.47
11.148652076721191,1.23,-0.01,0.56,1.35
11.15856409072876,1.3,0.06,0.32,1.34
11.168585062026978,0.79,-0.06,0.0,0.79
11.178520202636719,0.41,-0.04,0.0,0.41
11.209327220916748,0.54,0.14,0.09,0.56
11.209923267364502,0.4,0.1,0.03,0.41
11.210501194000244,0.08,-0.02,-0.28,0.29
11.218542098999023,-0.32,-0.07,-0.27,0.42
11.228446006774902,-0.53,0.01,-0.11,0.54
11.238440990447998,-0.54,0.03,-0.15,0.56
11.248510122299194,-0.53,0.06,-0.34,0.63
11.258416175842285,-0.51,0.09,-0.33,0.61
11.268434047698975,-0.3,0.05,-0.38,0.48
11.27834701538086,-0.12,0.09,-0.26,0.3
11.309536933898926,0.13,0.14,-0.13,0.23
11.31013298034668,0.36,0.06,0.03,0.36
11.310708999633789,0.35,-0.05,0.02,0.35
11.31833004951477,0.32,-0.09,-0.04,0.33
11.328279972076416,0.2,-0.1,0.02,0.22
11.338267087936401,0.0,-0.11,0.02,0.11
11.348155975341797,-0.16,-0.18,0.23,0.33
11.358166217803955,-0.23,-0.08,0.13,0.27
11.36828899383545,-0.05,0.01,-0.19,0.19
11.37811803817749,0.49,-0.04,-0.33,0.59
11.410284996032715,1.2,0.03,-0.45,1.28
11.410882949829102,1.82,0.01,-0.15,1.82
11.411468029022217,2.09,0.11,-0.08,2.09
11.41821813583374,1.91,0.36,-0.19,1.95
11.428122997283936,1.54,0.45,0.04,1.6
11.43816614151001,1.41,0.47,0.03,1.48
11.447998046875,1.44,0.42,-0.12,1.5
11.458106994628906,1.46,0.35,-0.17,1.51
11.468122005462646,1.58,0.24,-0.12,1.6
11.478103160858154,1.83,0.44,-0.14,1.88
11.50996208190918,1.86,0.75,0.29,2.02
11.5105562210083,1.97,0.88,0.56,2.22
11.51113224029541,2.09,1.31,-0.03,2.46
11.518188953399658,1.89,1.96,-0.19,2.72
11.5279860496521,1.92,2.81,0.07,3.4
11.53797721862793,1.89,3.97,0.22,4.4
11.547796249389648,3.57,4.89,-1.02,6.13
11.557963132858276,4.91,5.88,0.56,7.68
11.568026065826416,5.1,5.78,1.37,7.82
11.57780408859253,4.92,5.29,0.44,7.23
11.610719203948975,4.47,5.44,-0.16,7.04
11.611309051513672,3.94,5.06,-0.62,6.44
11.611891269683838,3.11,3.9,-0.77,5.04
11.617897033691406,2.37,3.1,-0.87,3.99
11.627864122390747,1.4,2.09,-1.22,2.79
11.637707233428955,0.72,0.48,-1.37,1.62
11.647809982299805,0.86,-0.23,-0.67,1.11
11.657770156860352,1.4,-0.56,0.41,1.56
11.667863130569458,0.62,-1.23,1.65,2.14
11.67777395248413,1.5,-0.46,0.91,1.81
11.711769104003906,5.73,-0.56,-0.84,5.81
11.712666988372803,8.1,-0.37,0.76,8.14
11.713251113891602,7.75,-1.02,2.78,8.29
11.717661142349243,6.55,-2.06,3.3,7.61
11.727578163146973,5.96,-2.33,2.48,6.86
11.737627029418945,5.87,-2.01,1.81,6.46
11.747995138168335,5.71,-1.85,1.82,6.27
11.757463932037354,5.32,-1.86,1.99,5.97
11.7676100730896,4.79,-1.93,1.97,5.52
11.777579069137573,4.25,-1.66,1.85,4.92
11.811735153198242,3.69,-1.12,1.66,4.19
11.812664985656738,3.28,-0.49,1.45,3.61
11.813257217407227,3.01,0.16,1.31,3.28
11.817553997039795,2.69,0.83,1.31,3.1
11.82752013206482,2.29,1.52,1.34,3.05
11.837509155273438,1.7,2.29,1.21,3.09
11.847475051879883,0.99,2.89,0.82,3.16
11.857509136199951,0.36,3.09,-0.01,3.11
11.867465019226074,-1.8,3.17,0.19,3.65
11.877449989318848,-3.82,3.01,0.09,4.86
11.913007259368896,-3.98,2.85,-0.64,4.93
11.913603067398071,-3.22,2.89,-1.07,4.45
11.914202213287354,-2.07,2.81,-1.53,3.81
11.91740608215332,-1.41,2.5,-1.79,3.38
11.927272081375122,-1.15,1.96,-1.8,2.89
11.937335014343262,-1.47,1.6,-1.81,2.82
11.947349071502686,-2.56,1.19,-1.97,3.44
11.957313060760498,-3.88,1.05,-2.35,4.65
11.967360019683838,-4.82,1.19,-2.55,5.58
11.977278232574463,-5.18,1.08,-2.6,5.89
12.013124942779541,-5.0,0.83,-2.59,5.69
12.013729095458984,-4.66,0.37,-2.48,5.29
12.014317035675049,-4.28,-0.94,-1.96,4.8
12.017184257507324,-4.07,-2.45,-1.28,4.91
12.027197122573853,-4.48,-3.22,-0.92,5.59
12.037208080291748,-4.66,-3.18,-0.96,5.72
12.04718017578125,-4.4,-2.74,-1.32,5.34
12.057194232940674,-4.22,-1.6,-1.87,4.88
12.067248106002808,-4.35,-0.93,-2.38,5.04
12.077188968658447,-5.02,-0.85,-3.0,5.9
12.113532066345215,-5.47,-0.98,-3.43,6.53
12.114123106002808,-5.46,-1.39,-2.87,6.32
12.11508321762085,-5.83,-1.63,-2.33,6.48
12.11702013015747,-4.41,3.83,-2.82,6.48
12.126958131790161,1.98,7.05,-3.75,8.22
12.137042045593262,8.56,3.02,0.64,9.09
12.147009134292603,15.27,-0.44,10.54,18.55
12.156999111175537,10.27,-1.19,11.01,15.1
12.167120933532715,0.07,-0.59,0.41,0.72
12.177070140838623,-7.7,-1.12,-5.92,9.77
12.214355945587158,-6.46,1.57,-4.35,7.94
12.2153000831604,-2.45,3.19,-2.02,4.5
12.215888023376465,-0.82,4.56,-1.26,4.8
12.217083930969238,-1.27,5.86,0.01,5.99
12.22686505317688,-4.02,5.02,0.06,6.43
12.23684024810791,-6.68,2.55,-1.14,7.24
12.246870040893555,-5.7,0.89,-1.83,6.05
12.25663709640503,-3.28,0.1,-1.49,3.6
12.26689100265503,-2.33,2.08,-2.08,3.75
12.276803016662598,-2.55,-0.23,-4.1,4.83
12.314489126205444,-1.83,-0.4,-3.56,4.02
12.315415143966675,-1.8,-0.03,-1.66,2.44
12.31600308418274,-2.31,-0.93,-1.1,2.72
12.317201137542725,-2.48,-0.92,-1.62,3.1
12.32669711112976,-1.93,-0.85,-1.33,2.49
12.336724042892456,-0.92,-0.58,-0.65,1.26
12.346683025360107,0.31,0.19,0.15,0.39
12.356665134429932,1.05,0.34,0.28,1.13
12.366711139678955,1.39,-0.36,0.47,1.51
12.376708030700684,0.58,-1.1,1.02,1.6
12.41575002670288,-1.1,-0.84,0.91,1.65
12.416385173797607,-2.76,-0.22,-0.05,2.76
12.416975975036621,-3.29,-0.02,0.0,3.29
12.41812515258789,-2.22,-0.07,-0.46,2.26
12.42655897140503,-1.1,-0.33,-0.9,1.45
12.437726020812988,-1.0,-0.36,-0.44,1.15
12.446605205535889,-1.91,-0.01,-0.27,1.92
12.456578254699707,-2.24,-0.06,-0.22,2.25
12.46664309501648,-1.97,-0.23,-0.16,1.98
12.476525068283081,-1.29,-0.09,-0.39,1.35
12.51495909690857,-0.58,-0.2,-0.7,0.93
12.515868186950684,-0.26,-0.06,-0.7,0.74
12.516440153121948,0.07,0.1,-0.63,0.64
12.517657279968262,-0.28,-0.08,-0.69,0.74
12.526432037353516,-0.67,0.04,-0.98,1.18
12.536424160003662,-0.9,0.18,-0.53,1.05
12.546332120895386,-0.88,0.16,-0.08,0.89
12.556427955627441,-0.86,-0.11,0.04,0.86
12.566477060317993,-1.03,-0.14,0.02,1.03
12.576355934143066,-1.11,-0.01,0.1,1.11
12.615986108779907,-1.14,-0.13,0.41,1.21
12.616582155227661,-1.47,-0.28,0.59,1.6
12.617166996002197,-1.64,-0.18,0.73,1.8
12.618335247039795,-1.61,-0.11,0.88,1.83
12.626261234283447,-1.7,-0.09,0.55,1.78
12.636279106140137,-1.69,-0.13,0.02,1.69
12.646208047866821,-1.46,-0.07,-0.46,1.53
12.65618109703064,-0.95,-0.07,-0.88,1.29
12.666126251220703,-0.35,0.02,-1.09,1.14
12.67617416381836,0.23,0.23,-1.27,1.31
12.716206073760986,0.61,0.14,-1.57,1.69
12.716797113418579,0.74,-0.03,-1.76,1.9
12.71737813949585,0.65,0.01,-1.51,1.64
12.718509197235107,0.4,0.0,-0.87,0.95
12.72607421875,0.2,0.01,-0.39,0.43
12.736127138137817,0.06,0.11,0.12,0.17
12.746098041534424,-0.05,0.02,0.65,0.65
12.756093978881836,-0.11,-0.12,0.8,0.81
12.765944957733154,-0.08,-0.26,0.68,0.73
12.7760329246521,0.22,-0.28,0.49,0.6
12.81660008430481,0.73,-0.2,0.5,0.9
12.817193031311035,1.35,-0.1,0.69,1.51
12.817780017852783,1.22,-0.13,0.92,1.53
12.818950176239014,0.94,-0.17,0.35,1.01
12.825912952423096,0.91,-0.15,-0.77,1.2
12.835941076278687,1.21,-0.16,-1.11,1.64
12.84586215019226,1.21,-0.14,-1.22,1.72
12.855908155441284,1.05,-0.17,-1.1,1.53
12.865806102752686,0.99,0.01,-0.53,1.12
12.875915050506592,1.04,0.07,-0.02,1.04
12.916834115982056,0.58,0.01,-0.3,0.65
12.917428970336914,-0.1,0.02,-0.73,0.73
12.918028116226196,-0.02,0.12,-0.31,0.33
12.91919994354248,0.27,0.19,0.12,0.35
12.925770044326782,0.25,0.24,0.06,0.35
12.93578314781189,0.11,0.19,0.05,0.22
12.94575023651123,-0.42,0.07,-0.14,0.44
12.95573115348816,-1.06,0.07,-0.66,1.25
12.965916156768799,-1.54,0.07,-0.92,1.79
12.975763082504272,-1.68,0.07,-0.95,1.93
13.017218112945557,-1.43,0.06,-0.8,1.63
13.017815113067627,-1.04,0.11,-0.36,1.1
13.018402099609375,-0.55,0.09,-0.06,0.56
13.019575119018555,-0.01,-0.02,0.04,0.04
13.025601148605347,0.29,-0.13,0.18,0.36
13.035747051239014,0.23,-0.15,0.3,0.4
13.045584201812744,-0.06,-0.06,0.43,0.43
13.055663108825684,-0.24,0.0,0.41,0.47
13.065577983856201,-0.05,-0.01,0.0,0.05
13.07558298110962,0.42,-0.09,-0.41,0.59
13.118324279785156,1.16,-0.16,-0.64,1.33
13.118921279907227,1.92,-0.22,-0.33,1.96
13.119506120681763,2.17,-0.13,-0.02,2.17
13.120995998382568,1.53,0.07,0.12,1.53
13.125432968139648,0.47,0.04,0.23,0.52
13.135479927062988,-0.21,0.08,0.23,0.32
13.145446062088013,-0.36,0.14,0.15,0.41
13.155401229858398,-0.17,0.08,0.0,0.18
13.165434122085571,0.43,0.12,-0.22,0.49
13.175384998321533,1.27,0.11,-0.09,1.27
13.218340158462524,2.3,0.09,0.07,2.3
13.21893310546875,3.07,0.1,0.25,3.08
13.219511985778809,3.87,0.2,0.58,3.91
13.221053123474121,4.13,0.24,0.89,4.23
13.225317001342773,3.78,0.41,0.87,3.9
13.235262155532837,3.18,0.64,0.84,3.35
13.245138168334961,2.94,0.91,0.9,3.2
13.255284070968628,2.83,1.33,0.77,3.22
13.26524019241333,2.42,1.62,0.68,2.99
13.275195121765137,1.81,1.89,0.32,2.63
13.318734169006348,0.99,3.26,0.38,3.42
13.319323062896729,0.41,4.99,0.44,5.02
13.320273160934448,2.43,5.96,-1.43,6.59
13.321444988250732,3.2,5.92,-0.15,6.73
13.32517409324646,2.89,5.41,-0.11,6.13
13.3352210521698,3.9,5.36,-1.26,6.74
13.345133066177368,5.1,4.9,-1.45,7.21
13.35515308380127,4.87,3.78,-1.75,6.4
13.365119934082031,3.48,3.11,-2.57,5.32
13.375110149383545,2.04,2.75,-3.08,4.6
13.419422149658203,1.17,2.12,-2.56,3.52
13.420340061187744,1.12,1.04,-1.4,2.07
13.420926094055176,2.35,-0.67,-0.68,2.53
13.422086238861084,1.69,-1.32,0.92,2.33
13.425015926361084,2.27,-1.17,-0.23,2.56
13.434994220733643,4.56,-1.26,-0.84,4.8
13.445042133331299,6.78,-0.94,1.0,6.91
13.454914093017578,7.69,-1.31,2.28,8.12
13.4649019241333,7.34,-1.75,2.1,7.83
13.474864959716797,7.21,-1.91,1.42,7.59
13.519540071487427,7.38,-1.9,1.29,7.72
13.520448207855225,7.13,-1.82,1.66,7.54
13.521026134490967,6.1,-1.77,1.9,6.62
13.522150039672852,5.1,-1.7,1.76,5.65
13.52489709854126,4.27,-1.47,1.46,4.74
13.534839153289795,3.91,-0.89,1.23,4.19
13.544689178466797,3.8,-0.17,1.22,3.99
13.554797172546387,3.13,0.37,1.36,3.43
13.56472110748291,2.25,0.93,1.22,2.72
13.574762105941772,1.26,1.72,0.62,2.22
13.62056827545166,0.36,2.24,-0.15,2.27
13.621171951293945,-0.3,2.73,-0.75,2.84
13.62175703048706,-0.63,3.14,-0.93,3.33
13.622936248779297,-0.39,3.09,-1.14,3.31
13.624645233154297,-0.53,2.74,-0.68,2.87
13.634689092636108,-3.36,1.87,0.4,3.86
13.64453911781311,-4.37,1.37,0.05,4.57
13.654702186584473,-5.01,1.79,-0.83,5.38
13.664653062820435,-4.68,2.43,-1.68,5.53
13.674615144729614,-4.29,2.51,-1.67,5.24
13.721142053604126,-4.21,2.43,-1.65,5.13
13.721740245819092,-3.94,2.08,-1.68,4.76
13.722329139709473,-4.04,1.84,-1.61,4.72
13.723511219024658,-4.46,1.23,-1.62,4.9
13.724699974060059,-5.04,0.68,-1.71,5.36
13.734490156173706,-5.47,0.31,-1.77,5.75
13.744486093521118,-5.79,0.13,-1.63,6.01
13.754481077194214,-5.73,-0.16,-1.59,5.94
13.764461994171143,-5.25,-0.81,-1.52,5.52
13.774410247802734,-4.6,-1.32,-1.41,4.98
13.821433067321777,-4.11,-1.62,-1.47,4.65
13.822035074234009,-3.64,-1.64,-1.72,4.34
13.822629928588867,-3.43,-1.35,-2.14,4.26
13.823781967163086,-3.49,-1.08,-2.61,4.48
13.82489824295044,-3.58,-1.01,-2.95,4.74
13.834310054779053,-3.49,-0.94,-3.19,4.82
13.84439206123352,-3.41,-0.64,-3.27,4.76
13.854418277740479,-3.99,-0.67,-3.49,5.34
13.864291191101074,-4.81,0.34,-3.56,5.99
13.874293088912964,-1.28,9.68,-4.41,10.71
13.92204213142395,5.24,5.14,-2.82,7.86
13.922636985778809,13.41,-2.57,4.2,14.28
13.923227071762085,16.02,-2.67,13.2,20.92
13.92442011833191,7.24,-0.82,7.53,10.47
13.925565242767334,-2.27,0.03,0.51,2.32
13.934102058410645,-6.22,-0.5,-0.12,6.24
13.944013118743896,-4.56,0.57,1.58,4.85
13.954226970672607,-3.41,1.93,1.02,4.04
13.964124202728271,-3.93,2.39,-0.29,4.6
13.974193096160889,-4.25,3.01,-0.62,5.24
14.022724151611328,-4.45,3.23,-1.36,5.66
14.023324012756348,-4.22,3.37,-3.26,6.3
14.023909091949463,-2.33,2.86,-4.84,6.08
14.025073051452637,-0.75,1.36,-4.08,4.36
14.026217937469482,-1.24,0.08,-2.6,2.88
14.033926010131836,-1.63,-1.08,-1.08,2.23
14.043980121612549,-1.0,-0.66,0.22,1.21
14.054047107696533,-1.61,-1.32,-0.96,2.29
14.063884258270264,-2.85,-1.32,-2.71,4.14
14.074177265167236,-2.83,0.25,-1.75,3.33
14.123384952545166,-2.96,-0.09,-0.29,2.97
14.12400197982788,-2.77,-1.05,-0.6,3.02
14.124588012695312,-1.7,-0.59,-0.76,1.95
14.125750064849854,-0.59,0.05,-0.14,0.6
14.126901149749756,-0.62,0.41,-0.19,0.76
14.13398027420044,-1.1,0.98,-0.39,1.52
14.143945217132568,-0.55,0.85,-0.89,1.34
14.15592098236084,0.28,-0.06,-0.72,0.77
14.16385793685913,0.09,-0.62,-0.14,0.64
14.173909187316895,-0.6,-0.86,-0.52,1.17
14.223642110824585,-1.81,-0.76,-1.08,2.24
14.224256038665771,-2.97,-0.34,-1.7,3.43
14.224857091903687,-3.71,0.12,-2.26,4.34
14.22605013847351,-3.27,0.37,-2.32,4.02
14.22720193862915,-1.66,0.19,-2.02,2.62
14.233659267425537,-0.32,-0.24,-1.18,1.24
14.243730068206787,0.17,-0.12,-0.58,0.61
14.25373125076294,-0.1,-0.02,-0.49,0.5
14.26367998123169,-0.12,-0.18,-0.36,0.42
14.273657083511353,0.14,-0.41,-0.05,0.43
14.283652067184448,0.38,-0.48,0.49,0.78
14.324149131774902,0.35,-0.3,0.68,0.82
14.3247389793396,0.14,-0.18,0.44,0.49
14.325886249542236,-0.24,-0.1,-0.04,0.26
14.327013969421387,-0.38,0.02,-0.76,0.84
14.333538055419922,-0.2,-0.01,-0.9,0.92
14.34354019165039,-0.16,-0.06,-0.46,0.49
14.353547096252441,-0.31,0.07,0.06,0.32
14.363522052764893,-0.76,0.17,0.38,0.86
14.373548030853271,-1.12,0.17,0.44,1.21
14.383508205413818,-1.02,-0.01,-0.23,1.04
14.424378156661987,-0.36,-0.25,-0.34,0.55
14.424979209899902,-0.19,-0.01,0.26,0.32
14.426126956939697,-0.46,0.07,0.76,0.89
14.427256107330322,-0.61,-0.07,1.1,1.25
14.43336820602417,-0.68,-0.14,0.82,1.07
14.443432092666626,-0.22,-0.19,0.63,0.69
14.453357219696045,0.11,-0.1,0.65,0.66
14.463429927825928,-0.55,-0.12,0.41,0.69
14.473391056060791,-0.88,-0.11,0.55,1.04
14.483327150344849,-0.8,-0.09,0.6,1.0
14.524006128311157,-0.96,-0.03,0.23,0.98
14.524606227874756,-1.16,-0.06,-0.11,1.16
14.525747060775757,-0.99,-0.11,-0.14,1.0
14.526854038238525,-0.55,-0.06,0.0,0.55
14.533278942108154,-0.43,-0.05,-0.04,0.43
14.543281078338623,-0.5,-0.02,-0.31,0.58
14.553293228149414,-0.21,0.06,-0.65,0.68
14.56403398513794,0.13,0.0,-1.03,1.03
14.573209047317505,0.38,-0.1,-1.37,1.42
14.583364963531494,0.26,-0.12,-1.23,1.26
14.624333143234253,-0.01,0.02,-0.8,0.8
14.624911069869995,0.09,0.02,-0.6,0.6
14.626014232635498,0.34,-0.07,-0.49,0.6
14.627114057540894,0.47,-0.08,-0.38,0.6
14.63309907913208,0.54,0.0,-0.04,0.54
14.643106937408447,0.62,-0.11,0.29,0.69
14.653088092803955,0.27,-0.19,0.4,0.51
14.663121223449707,0.07,-0.02,0.41,0.41
14.673099040985107,-0.06,0.01,0.47,0.47
14.683061122894287,-0.54,-0.09,-0.02,0.54
14.725289106369019,-0.71,0.04,-0.53,0.88
14.725879192352295,-0.45,0.06,-0.44,0.63
14.727012157440186,-0.14,-0.05,-0.23,0.27
14.728439092636108,0.03,-0.01,-0.04,0.05
14.732932090759277,0.31,0.07,0.17,0.36
14.742922067642212,0.22,0.0,0.03,0.22
14.753019094467163,0.17,-0.05,-0.43,0.46
14.762916088104248,0.35,0.15,-0.86,0.94
14.808016061782837,0.61,0.01,-0.77,0.98
14.808794021606445,0.81,-0.04,-0.6,1.0
14.809370994567871,1.15,0.04,-0.32,1.19
14.809945106506348,1.4,-0.04,-0.09,1.4
14.812786102294922,1.38,-0.06,-0.15,1.38
14.822891235351562,1.09,0.05,-0.23,1.11
14.83276915550232,0.6,0.11,-0.11,0.61
14.842799186706543,0.31,0.06,-0.07,0.32
14.852766036987305,0.24,-0.01,-0.13,0.27
14.862786054611206,0.14,-0.04,-0.15,0.2
14.909724235534668,-0.01,-0.04,-0.26,0.26
14.910287141799927,-0.16,-0.07,-0.18,0.25
14.91087818145752,-0.28,-0.05,-0.09,0.29
14.911448001861572,-0.35,-0.05,-0.1,0.36
14.912699222564697,-0.26,-0.02,-0.01,0.26
14.922693252563477,-0.11,0.13,-0.15,0.22
14.932619094848633,0.05,0.25,-0.47,0.53
14.942580223083496,0.35,0.05,-0.26,0.43
14.952585220336914,0.72,-0.04,-0.08,0.72
14.962602138519287,1.29,0.1,-0.11,1.29
15.009928226470947,2.06,0.2,-0.25,2.08
15.010528087615967,2.6,0.25,-0.19,2.61
15.01111125946045,3.12,0.3,0.24,3.14
15.011688232421875,3.71,0.39,0.45,3.75
15.01280403137207,3.71,0.49,0.64,3.79
15.022521018981934,3.48,0.85,0.67,3.64
15.032500267028809,3.27,1.23,0.75,3.57
15.042421102523804,3.29,1.52,0.77,3.7
15.052411079406738,3.22,1.66,0.88,3.72
15.062417984008789,2.46,2.03,0.8,3.28
15.109897136688232,1.4,3.43,0.46,3.73
15.110496044158936,1.56,5.77,-1.31,6.11
15.111078262329102,3.26,6.63,-0.36,7.39
15.11166524887085,2.86,6.13,0.76,6.8
15.112861156463623,3.37,6.41,-1.36,7.36
15.12239122390747,5.11,7.29,-0.96,8.95
15.13231110572815,6.49,7.03,-0.62,9.58
15.142344951629639,5.93,6.01,-1.42,8.56
15.152156114578247,4.57,4.66,-1.82,6.77
15.16227102279663,2.78,3.09,-2.06,4.63
15.210430145263672,0.72,2.0,-1.77,2.76
15.211022138595581,-0.33,0.42,-1.31,1.41
15.211605072021484,-1.02,-0.57,-0.75,1.38
15.212214946746826,-0.66,-1.4,-0.45,1.61
15.213350057601929,2.3,-2.17,-0.02,3.16
15.22217607498169,3.13,-2.77,1.9,4.59
15.232152938842773,3.0,-2.75,1.22,4.24
15.24213695526123,6.05,-2.8,-0.84,6.71
15.25205111503601,8.37,-1.97,0.79,8.63
15.262107133865356,8.73,-2.12,2.88,9.43
15.311137199401855,7.38,-3.04,3.29,8.63
15.311766147613525,6.21,-3.39,2.6,7.53
15.312355041503906,5.91,-3.28,2.22,7.11
15.312916278839111,5.71,-2.91,2.22,6.78
15.314020156860352,5.0,-2.41,2.19,5.96
15.322023153305054,4.21,-2.04,1.97,5.07
15.331878185272217,3.64,-1.7,1.77,4.39
15.342021942138672,3.24,-1.22,1.67,3.84
15.352269172668457,2.82,-0.65,1.6,3.3
15.361955165863037,1.9,0.27,1.55,2.46
15.411709070205688,1.07,1.33,1.2,2.08
15.41229510307312,0.45,2.39,0.18,2.43
15.412874221801758,0.36,2.96,-1.0,3.14
15.413457155227661,-2.04,4.2,-0.35,4.68
15.414566040039062,-4.54,4.3,-0.39,6.26
15.421854019165039,-5.53,4.19,-0.72,6.97
15.431698083877563,-5.54,4.07,-0.9,6.93
15.441899061203003,-4.26,3.67,-0.92,5.69
15.451794147491455,-2.91,3.55,-0.89,4.67
15.461773157119751,-1.9,3.41,-1.03,4.03
15.512517929077148,-1.88,2.98,-1.43,3.8
15.513114929199219,-2.64,2.43,-1.95,4.08
15.513699054718018,-3.66,1.75,-2.47,4.74
15.51427412033081,-4.62,1.26,-2.71,5.5
15.515380144119263,-5.26,0.68,-2.56,5.88
15.521749019622803,-5.37,-0.2,-2.16,5.79
15.531668186187744,-5.24,-1.08,-1.92,5.68
15.541659116744995,-5.03,-1.73,-1.85,5.63
15.551746129989624,-4.74,-2.03,-1.87,5.48
15.56164026260376,-4.15,-2.09,-1.93,5.03
15.612991094589233,-3.56,-2.02,-2.06,4.58
15.613584041595459,-3.11,-2.06,-2.22,4.34
15.614161014556885,-2.64,-2.07,-2.31,4.07
15.614745140075684,-2.4,-2.04,-2.06,3.76
15.615893125534058,-2.53,-1.91,-1.5,3.5
15.621598243713379,-3.39,-2.0,-1.69,4.28
15.631444931030273,-4.37,-2.18,-2.27,5.38
15.641545057296753,-4.78,-1.63,-2.29,5.54
15.651477098464966,-1.63,5.32,-2.67,6.17
15.66151213645935,1.56,5.89,-1.96,6.4
15.714146137237549,5.59,1.97,0.93,5.99
15.71473503112793,10.69,-1.16,8.02,13.41
15.715320110321045,7.67,-2.11,8.61,11.72
15.715925216674805,1.83,-1.44,0.56,2.39
15.717381000518799,-2.45,-0.3,-3.94,4.64
15.72151803970337,-2.55,2.3,-2.95,4.52
15.731394052505493,-0.65,3.82,-1.49,4.15
15.741374969482422,-0.67,4.51,-1.12,4.69
15.751334190368652,-3.05,4.45,-0.58,5.42
15.761353969573975,-5.44,3.71,-1.17,6.68
15.813802242279053,-5.25,1.69,-2.51,6.05
15.814390182495117,-2.69,-0.23,-3.07,4.08
15.814967155456543,-1.02,-1.46,-1.59,2.38
15.815542221069336,-1.43,-0.19,-0.22,1.45
15.81699013710022,-4.32,-0.9,-2.23,4.94
15.82135009765625,-5.02,-0.51,-3.61,6.2
15.831223011016846,-2.55,-0.27,-1.33,2.88
15.84122896194458,-0.53,-1.69,0.64,1.88
15.85122013092041,-0.41,-2.4,0.22,2.44
15.861234188079834,-0.54,-1.27,-0.16,1.38
15.914896965026855,-0.77,1.17,0.23,1.41
15.915504932403564,-0.51,2.3,-1.04,2.57
15.91640305519104,-0.78,0.94,-0.68,1.39
15.916978120803833,-1.26,-0.19,-0.06,1.27
15.918130159378052,-1.92,-0.69,-0.2,2.04
15.921164989471436,-2.85,-1.14,-0.25,3.07
15.931061267852783,-3.19,-1.0,-0.23,3.35
15.941066265106201,-2.3,-0.24,-0.14,2.31
15.951017141342163,-0.31,0.28,-0.35,0.54
15.960930109024048,0.92,0.01,-0.56,1.07
16.0152530670166,0.82,-0.33,-0.6,1.06
16.016178131103516,-0.22,-0.47,-0.84,0.98
16.01675510406494,-0.63,-0.27,-0.48,0.83
16.017333030700684,-0.98,-0.06,-0.56,1.13
16.01844310760498,-0.58,0.03,-0.77,0.96
16.020912170410156,-0.41,-0.08,-0.65,0.77
16.03089427947998,-0.77,-0.16,-0.6,0.98
16.040903091430664,-1.29,-0.17,-0.51,1.39
16.050894260406494,-1.72,-0.18,-0.7,1.86
16.060688972473145,-1.61,-0.07,-0.46,1.67
16.11593723297119,-1.24,-0.15,-0.31,1.28
16.11672616004944,-1.0,-0.23,-0.33,1.07
16.117303133010864,-1.07,-0.12,-0.64,1.25
16.1178879737854,-1.02,-0.23,-0.57,1.19
16.11908197402954,-1.2,-0.33,-0.29,1.27
16.120777130126953,-1.62,-0.16,-0.33,1.66
16.13078022003174,-1.46,-0.11,-0.24,1.48
16.140838146209717,-0.98,-0.12,-0.24,1.01
16.150701999664307,-0.8,-0.17,-0.03,0.81
16.16074013710022,-0.84,-0.1,0.15,0.85
16.216453075408936,-0.77,-0.05,0.16,0.78
16.217047214508057,-0.68,-0.1,0.04,0.68
16.217628002166748,-0.64,-0.12,-0.13,0.66
16.218204021453857,-0.71,0.0,-0.03,0.71
16.219327926635742,-0.85,0.06,0.08,0.85
16.22081995010376,-1.0,0.03,0.12,1.0
16.23059892654419,-0.88,-0.01,0.19,0.9
16.240692138671875,-0.64,-0.17,0.17,0.68
16.25056004524231,-0.41,-0.19,0.11,0.46
16.260568141937256,-0.26,-0.15,-0.03,0.3
16.31668710708618,-0.16,-0.16,-0.07,0.23
16.31727409362793,-0.19,-0.1,-0.2,0.29
16.31783413887024,-0.04,-0.1,-0.74,0.74
16.31837797164917,0.3,-0.21,-0.64,0.73
16.3199200630188,0.11,-0.07,-0.55,0.56
16.32106614112854,-0.01,0.01,-0.64,0.64
16.330472946166992,0.13,-0.02,-0.55,0.56
16.340474128723145,0.22,-0.1,-0.64,0.68
16.350439071655273,0.14,-0.09,-0.79,0.8
16.360263109207153,0.21,-0.15,-0.5,0.56
16.417184114456177,0.4,-0.13,0.2,0.46
16.417773246765137,0.48,-0.03,0.69,0.84
16.418352127075195,0.69,0.19,0.46,0.85
16.41892719268799,1.16,-0.01,0.1,1.16
16.42039203643799,1.35,-0.11,-0.21,1.37
16.421528100967407,1.2,-0.04,-0.54,1.31
16.430246114730835,0.86,0.08,-0.52,1.0
16.44023895263672,0.72,0.08,0.1,0.73
16.4501850605011,0.24,0.07,-0.61,0.65
16.460185050964355,-0.7,-0.12,-1.44,1.6
16.517964124679565,-0.94,-0.25,-0.91,1.33
16.518588066101074,-0.83,-0.21,-0.32,0.91
16.51918315887451,-0.16,-0.2,-0.1,0.27
16.52021026611328,0.71,0.15,0.01,0.72
16.521398067474365,1.31,0.17,-0.09,1.32
16.522563934326172,1.44,0.19,-0.14,1.45
16.530107975006104,1.16,0.03,0.22,1.18
16.540170192718506,0.63,0.0,0.3,0.69
16.55007004737854,0.13,-0.05,-0.03,0.14
16.56009817123413,-0.06,-0.03,-0.26,0.26
16.618083953857422,0.07,0.02,-0.31,0.31
16.61867618560791,0.28,-0.03,-0.26,0.38
16.619262218475342,0.32,-0.01,-0.18,0.36
16.62015199661255,0.42,-0.01,-0.1,0.43
16.621225118637085,0.57,-0.01,-0.13,0.58
16.622302055358887,0.3,-0.05,-0.24,0.38
16.63016700744629,-0.41,-0.1,-0.34,0.54
16.640067100524902,-0.89,-0.02,-0.3,0.93
16.649940967559814,-0.88,0.0,-0.19,0.9
16.660053253173828,-0.83,-0.01,-0.21,0.85
16.66999101638794,-0.67,0.02,-0.26,0.71
16.719454050064087,-0.52,0.04,-0.47,0.7
16.720373153686523,-0.44,0.12,-0.68,0.81
16.720940113067627,-0.29,0.12,-0.75,0.81
16.722079277038574,-0.27,0.07,-0.58,0.64
16.72324514389038,-0.36,0.03,0.34,0.49
16.729841232299805,-0.24,0.05,0.51,0.56
16.739871978759766,0.13,-0.04,0.06,0.14
16.74966526031494,0.62,0.02,-0.25,0.66
16.75975799560547,1.39,0.09,-0.4,1.44
16.769597053527832,2.14,0.08,-0.32,2.16
16.818355083465576,2.53,0.07,0.09,2.53
16.81893825531006,2.52,0.16,0.45,2.56
16.819517135620117,2.26,0.18,0.43,2.3
16.82099199295044,2.15,0.1,0.52,2.21
16.82211923599243,2.39,0.13,0.61,2.47
16.829556941986084,2.55,0.26,0.48,2.6
16.83967399597168,2.65,0.3,0.43,2.7
16.849616050720215,2.74,0.33,0.51,2.8
16.85959506034851,2.52,0.54,0.24,2.58
16.869582176208496,2.19,0.81,0.16,2.34
16.91920518875122,1.82,1.05,0.05,2.1
16.919803142547607,1.22,1.34,-0.05,1.81
16.920753002166748,0.8,1.57,0.14,1.76
16.921947956085205,0.43,2.35,-0.09,2.39
16.92312002182007,1.96,3.76,-0.92,4.33
16.92948818206787,2.49,3.52,1.23,4.48
16.939424991607666,2.72,3.29,0.24,4.27
16.949440002441406,2.92,3.73,-0.02,4.73
16.959452152252197,3.43,4.08,0.53,5.35
16.969398021697998,4.99,4.55,0.84,6.8
17.019536018371582,5.7,5.07,0.83,7.67
17.02013397216797,4.62,5.46,0.25,7.15
17.02104616165161,3.35,6.01,-0.54,6.9
17.022223949432373,2.59,5.77,-0.27,6.33
17.0234112739563,1.62,4.46,0.01,4.74
17.029348134994507,0.46,3.74,-0.64,3.82
17.039361000061035,-0.44,2.88,-1.25,3.17
17.04931402206421,-1.14,1.87,-0.83,2.34
17.05930519104004,-2.49,1.93,-0.77,3.24
17.069268226623535,-0.86,0.88,-2.77,3.03
17.120103120803833,3.56,-0.65,-2.39,4.33
17.121082067489624,8.29,-2.83,0.38,8.76
17.121686935424805,9.32,-2.35,2.3,9.88
17.122871160507202,7.26,-1.9,0.72,7.53
17.124378204345703,6.3,-1.67,1.78,6.75
17.129199981689453,6.44,-1.65,2.54,7.11
17.139135122299194,6.4,-2.17,2.29,7.13
17.14927911758423,5.95,-2.68,1.78,6.76
17.15914297103882,5.87,-2.89,1.49,6.71
17.169170141220093,5.57,-2.62,1.52,6.34
17.221641063690186,4.98,-2.39,1.67,5.77
17.222236156463623,4.12,-2.34,1.88,5.09
17.222820043563843,3.37,-2.09,1.81,4.35
17.224313259124756,2.99,-1.7,1.56,3.77
17.225450038909912,2.67,-1.24,1.19,3.17
17.22899293899536,2.02,-0.72,0.8,2.28
17.23912525177002,1.11,-0.18,0.5,1.23
17.248945236206055,0.48,0.41,0.13,0.64
17.259077072143555,0.34,1.3,-0.44,1.41
17.2689790725708,0.35,2.17,-0.77,2.32
17.322363138198853,-1.72,3.26,-0.55,3.72
17.322967052459717,-2.77,3.36,-1.6,4.63
17.32390022277832,-3.13,4.52,-2.71,6.12
17.325071096420288,-3.42,4.92,-3.14,6.76
17.326256275177002,-4.08,4.98,-3.4,7.28
17.328845024108887,-4.96,5.55,-4.54,8.71
17.338943004608154,-5.87,5.41,-5.2,9.52
17.348653078079224,-6.89,4.44,-4.62,9.4
17.358860969543457,-7.68,2.52,-3.86,8.95
17.36879825592041,-8.42,-0.22,-3.36,9.06
17.421643257141113,-8.62,-2.95,-2.78,9.52
17.422255039215088,-7.75,-4.47,-2.17,9.2
17.422882080078125,-6.91,-4.1,-1.86,8.24
17.424382209777832,-6.15,-1.99,-2.06,6.78
17.425547122955322,-4.78,-1.26,-2.2,5.41
17.42869806289673,-3.6,-1.22,-1.85,4.22
17.438483238220215,-2.9,-1.7,-1.32,3.61
17.448513984680176,-2.6,-2.23,-1.0,3.56
17.45875310897827,-2.75,-1.78,-0.68,3.34
17.468642234802246,-1.0,4.06,-0.82,4.26
17.522562980651855,2.17,4.42,-0.52,4.95
17.523519039154053,7.22,3.75,1.47,8.26
17.524127960205078,12.2,0.72,8.37,14.81
17.525290966033936,6.98,-1.82,8.51,11.15
17.526456117630005,-0.66,-1.56,0.7,1.83
17.52853512763977,-6.33,-1.12,-3.07,7.12
17.53840923309326,-6.43,0.48,-2.54,6.93
17.548509120941162,-2.75,1.64,-1.63,3.59
17.55855894088745,0.0,2.8,-1.47,3.16
17.56854009628296,-0.14,3.83,-1.13,3.99
17.622960090637207,-2.42,4.51,-1.18,5.25
17.623876094818115,-5.0,3.34,-2.03,6.34
17.624459266662598,-4.64,1.25,-2.07,5.23
17.625631093978882,-3.64,2.36,-1.51,4.59
17.626824140548706,-4.01,1.03,-4.44,6.07
17.628360271453857,-3.44,-0.5,-4.42,5.62
17.63821005821228,-1.27,0.13,-0.57,1.39
17.648486137390137,-0.21,-1.35,1.32,1.89
17.65836811065674,-1.03,-2.28,0.43,2.53
17.66831612586975,-1.91,-2.26,-0.59,3.01
17.72464609146118,-2.08,-1.32,-0.78,2.58
17.72524404525757,-1.94,1.34,-0.52,2.41
17.725847244262695,-0.03,1.97,-1.54,2.5
17.727002143859863,0.93,-0.06,-0.84,1.25
17.728146076202393,0.38,-0.74,-0.77,1.13
17.728721141815186,-0.19,-0.43,-1.15,1.24
17.73826313018799,-0.5,-0.15,-0.92,1.05
17.74812912940979,-0.99,-0.59,-0.1,1.15
17.758169174194336,-1.55,-0.81,0.4,1.79
17.768157958984375,-1.71,-0.12,-0.25,1.73
17.824401140213013,-1.86,0.03,-0.48,1.92
17.824998140335083,-1.64,-0.08,-0.29,1.66
17.825582027435303,-0.83,-0.29,-0.18,0.89
17.82671594619751,-0.63,-0.43,-0.21,0.79
17.82780408859253,-0.85,-0.55,-0.04,1.01
17.828384160995483,-1.12,-0.22,0.54,1.26
17.83840799331665,-1.22,-0.07,0.74,1.42
17.84805202484131,-1.44,-0.21,0.51,1.54
17.858103275299072,-1.52,-0.12,0.35,1.56
17.868038177490234,-1.72,0.05,0.32,1.75
17.924756050109863,-1.5,-0.1,0.32,1.53
17.925328254699707,-1.32,-0.24,-0.01,1.34
17.925913095474243,-1.49,-0.04,-0.28,1.51
17.927109241485596,-1.28,0.0,-0.18,1.29
17.928232192993164,-0.7,-0.14,-0.05,0.71
17.928811073303223,-0.57,-0.02,-0.31,0.64
17.937918186187744,-0.69,-0.02,-0.5,0.85
17.947916984558105,-0.92,-0.15,-0.63,1.12
17.957881927490234,-1.2,-0.06,-0.74,1.41
17.96781301498413,-1.18,0.09,-0.6,1.32
18.025474071502686,-0.95,-0.12,-0.44,1.05
18.02607297897339,-0.77,-0.14,-0.39,0.87
18.02665424346924,-0.54,-0.09,-0.36,0.65
18.027857065200806,-0.43,-0.19,-0.3,0.55
18.029008150100708,-0.54,-0.14,-0.26,0.61
18.029590129852295,-0.45,-0.1,-0.33,0.56
18.037748098373413,-0.3,-0.12,-0.45,0.55
18.04766607284546,-0.12,-0.05,-0.48,0.49
18.057724952697754,0.03,0.01,-0.45,0.45
18.067686080932617,0.11,-0.03,-0.42,0.43
18.12572407722473,0.01,-0.07,-0.47,0.47
18.12634015083313,-0.07,0.0,-0.67,0.67
18.126938104629517,0.0,-0.06,-0.88,0.88
18.128153085708618,0.21,0.1,-1.12,1.14
18.129311084747314,0.3,-0.1,-0.84,0.89
18.129873275756836,0.15,-0.17,-0.84,0.87
18.13758897781372,-0.03,-0.26,-0.76,0.8
18.147469997406006,-0.31,-0.21,-0.6,0.7
18.15760898590088,-0.42,-0.02,-0.67,0.79
18.167470932006836,-0.21,0.0,-0.66,0.69
18.22615098953247,0.25,-0.19,-0.35,0.47
18.22677206993103,0.69,-0.28,-0.19,0.76
18.22737693786621,1.02,-0.06,-0.53,1.15
18.228538990020752,0.96,0.0,-1.16,1.5
18.229677200317383,0.91,-0.23,-0.93,1.32
18.230255126953125,0.72,-0.08,-0.46,0.85
18.237439155578613,0.56,-0.01,0.04,0.56
18.247454166412354,0.11,0.1,0.28,0.31
18.257480144500732,-0.38,0.21,0.47,0.63
18.267374992370605,-0.45,0.1,0.62,0.77
18.32634401321411,-0.21,-0.1,0.39,0.45
18.32698392868042,0.4,-0.05,-0.02,0.4
18.327577114105225,1.01,-0.06,0.17,1.02
18.328715085983276,1.32,-0.15,0.46,1.4
18.329834938049316,1.21,-0.04,0.53,1.32
18.330410957336426,0.85,-0.05,0.41,0.94
18.33724808692932,0.27,-0.03,0.05,0.27
18.347206115722656,-0.06,0.09,-0.39,0.4
18.357269048690796,0.16,0.13,-0.46,0.5
18.367146968841553,0.25,0.05,-0.18,0.31
18.42646813392639,-0.06,0.05,-0.11,0.13
18.427048206329346,-0.2,0.06,-0.03,0.21
18.42763900756836,0.17,0.01,0.29,0.33
18.428749084472656,0.65,-0.05,0.35,0.73
18.42983913421631,0.71,-0.12,0.36,0.8
18.430422067642212,0.85,-0.11,0.24,0.89
18.437121152877808,1.02,-0.08,0.15,1.03
18.447099208831787,0.99,-0.09,0.21,1.01
18.45713520050049,0.9,-0.01,-0.11,0.9
18.467127084732056,0.68,0.07,-0.33,0.75
18.526535987854004,0.01,0.11,-0.58,0.59
18.527178049087524,-0.56,0.14,-0.67,0.88
18.52775812149048,-0.76,0.14,-0.46,0.89
18.52883005142212,-0.71,0.06,-0.06,0.71
18.529917240142822,-0.3,0.03,0.23,0.37
18.530478954315186,0.07,0.03,0.19,0.2
18.536890983581543,0.21,0.06,-0.12,0.24
18.546930074691772,0.5,0.14,-0.49,0.71
18.55691623687744,0.76,0.06,-0.48,0.9
18.566956996917725,0.71,0.01,-0.35,0.79
18.626461029052734,0.79,0.04,-0.26,0.83
18.627056121826172,1.15,0.02,-0.33,1.19
18.62765407562256,1.57,0.06,-0.38,1.61
18.628783226013184,2.1,0.12,-0.18,2.11
18.62987995147705,2.19,0.21,-0.22,2.21
18.630460262298584,1.72,0.44,-0.34,1.8
18.636765956878662,1.24,0.46,-0.17,1.33
18.64678716659546,0.85,0.36,0.02,0.92
18.656768083572388,0.55,0.32,0.05,0.63
18.66675901412964,0.34,0.33,-0.06,0.47
18.727657079696655,0.32,0.3,-0.11,0.45
18.728228092193604,0.32,0.2,-0.31,0.48
18.72877025604248,0.36,0.19,-0.61,0.73
18.72990608215332,0.52,0.31,-0.46,0.76
18.73099708557129,0.75,1.06,-0.53,1.4
18.73189401626587,1.36,1.89,0.06,2.32
18.736571073532104,1.67,1.81,0.71,2.56
18.746652126312256,1.99,1.77,0.42,2.69
18.756554126739502,2.1,2.09,0.64,3.03
18.766589164733887,2.13,2.41,0.53,3.25
18.827195167541504,2.13,2.79,0.2,3.51
18.827747106552124,2.29,3.17,0.06,3.91
18.828328132629395,2.36,3.44,-0.06,4.17
18.829498052597046,2.6,3.94,-0.59,4.75
18.830650091171265,4.03,4.6,-1.13,6.21
18.831552028656006,5.58,4.55,-1.2,7.29
18.836498260498047,5.37,3.44,-1.22,6.49
18.846562147140503,3.98,3.01,-1.49,5.2
18.856345176696777,2.55,3.06,-1.89,4.4
18.86647915840149,1.4,2.8,-1.67,3.54
18.92795419692993,0.86,2.49,-1.86,3.22
18.928555011749268,1.22,0.98,-2.03,2.56
18.929139137268066,0.87,0.71,-0.9,1.43
18.930313110351562,1.61,1.21,-0.89,2.2
18.931780099868774,4.0,0.06,-0.11,4.0
18.932363033294678,3.12,-0.28,1.59,3.51
18.936350107192993,0.92,-0.17,1.18,1.5
18.946319103240967,2.75,-0.57,-0.32,2.82
18.95646619796753,6.96,-0.36,0.43,6.98
18.96628713607788,8.88,-0.38,2.1,9.13
19.028465270996094,8.54,-1.1,2.86,9.07
19.029064178466797,7.79,-1.46,2.74,8.38
19.029649257659912,7.25,-1.43,2.38,7.76
19.030843257904053,6.81,-1.23,1.93,7.18
19.032296180725098,6.19,-1.09,1.56,6.47
19.032886028289795,5.34,-1.08,1.23,5.58
19.03616213798523,4.24,-1.06,0.89,4.46
19.046245098114014,3.24,-0.87,0.66,3.41
19.05613112449646,2.46,-0.55,0.39,2.55
19.066111087799072,1.99,-0.23,0.11,2.0
19.12870502471924,1.65,0.07,-0.02,1.65
19.129298210144043,1.18,0.3,-0.15,1.22
19.129874229431152,0.53,0.63,-0.45,0.93
19.131348133087158,-0.32,0.89,-0.87,1.28
19.132455110549927,-0.93,1.1,-1.12,1.82
19.13303518295288,-1.07,1.47,-1.34,2.25
19.1359441280365,-0.9,1.68,-1.51,2.43
19.145950078964233,0.07,2.12,-1.83,2.8
19.155991077423096,-2.08,2.81,-0.65,3.55
19.16579008102417,-3.37,2.24,-1.0,4.16
19.22974705696106,-3.34,2.23,-1.75,4.38
19.23035192489624,-3.44,2.93,-2.18,5.01
19.23125410079956,-2.94,3.42,-2.6,5.2
19.232397079467773,-2.69,3.63,-2.58,5.2
19.233524084091187,-2.6,3.4,-2.17,4.79
19.23408794403076,-2.6,2.73,-1.78,4.16
19.235802173614502,-3.18,2.06,-1.44,4.05
19.245808124542236,-4.57,1.32,-0.95,4.85
19.255799055099487,-6.22,0.19,-0.88,6.28
19.265637159347534,-7.2,-1.08,-1.07,7.35
19.329925060272217,-6.56,-2.0,-1.04,6.93
19.330862998962402,-5.01,-2.3,-0.94,5.59
19.331456184387207,-3.69,-1.71,-0.88,4.16
19.332621097564697,-2.97,-1.07,-0.97,3.3
19.33376693725586,-2.78,-0.83,-1.13,3.11
19.334352016448975,-2.84,-0.95,-1.2,3.22
19.33572816848755,-3.23,-1.49,-1.22,3.76
19.34573006629944,-3.58,-1.94,-1.14,4.22
19.355647087097168,-3.78,-1.87,-1.07,4.35
19.36560606956482,-3.21,3.02,-1.31,4.59
19.430650234222412,-1.57,3.55,-1.06,4.02
19.43143916130066,-0.73,-0.51,-1.44,1.69
19.43202805519104,4.85,-0.81,1.04,5.02
19.433184146881104,7.88,-1.17,5.91,9.91
19.43430209159851,4.97,-0.43,3.27,5.96
19.434908151626587,-0.87,0.23,-2.64,2.78
19.436105251312256,-5.03,1.17,-3.82,6.42
19.445580005645752,-4.84,2.48,-2.32,5.91
19.4555082321167,-2.32,4.91,-0.59,5.46
19.465518951416016,-1.63,6.92,0.4,7.12
19.530930995941162,-2.93,4.51,-0.72,5.42
19.531721115112305,-2.97,0.82,-1.87,3.6
19.532304048538208,-2.17,-1.48,-1.28,2.92
19.533472061157227,-2.13,-1.49,-1.08,2.81
19.534635066986084,-4.55,-2.63,-3.96,6.58
19.535231113433838,-5.1,-1.19,-5.23,7.4
19.536402225494385,-2.62,0.43,-2.43,3.59
19.545400142669678,-1.31,-1.62,-0.11,2.08
19.555299043655396,-1.38,-1.58,0.27,2.11
19.565403938293457,-0.87,1.41,-1.86,2.49
19.6319899559021,-1.26,1.22,-1.32,2.19
19.6325900554657,-1.46,-0.37,1.2,1.92
19.633173942565918,-2.14,-0.52,0.8,2.34
19.63433814048767,-3.62,-0.4,-0.06,3.64
19.63550615310669,-4.06,-0.19,-0.47,4.09
19.636085033416748,-3.16,-0.48,-0.18,3.2
19.637259006500244,-1.75,-0.36,-0.18,1.79
19.64526605606079,-1.33,-0.41,-0.39,1.44
19.655214071273804,-1.97,-0.52,-0.34,2.06
19.66511297225952,-2.75,-0.34,-0.4,2.79
19.731709003448486,-2.99,-0.03,-0.36,3.01
19.732309103012085,-2.12,0.05,-0.55,2.19
19.73289394378662,-1.03,0.11,-0.69,1.24
19.734082221984863,-0.45,0.03,-0.86,0.97
19.735239028930664,-0.61,-0.03,-1.0,1.17
19.735816955566406,-1.08,0.04,-1.07,1.52
19.737028121948242,-1.32,-0.03,-1.15,1.75
19.745057106018066,-1.17,0.0,-1.33,1.77
19.754943132400513,-0.79,0.0,-1.26,1.48
19.764968156814575,-0.62,-0.03,-0.85,1.05
19.831899166107178,-0.62,-0.07,-0.36,0.72
19.832459926605225,-0.66,-0.15,-0.13,0.68
19.833048105239868,-0.74,-0.2,-0.18,0.78
19.834214210510254,-0.71,-0.04,-0.94,1.17
19.835378170013428,-0.08,-0.15,-0.88,0.89
19.83596420288086,0.44,-0.34,0.56,0.78
19.837175130844116,0.13,-0.18,1.08,1.1
19.844985008239746,-0.13,-0.17,1.22,1.23
19.854976177215576,-0.17,-0.33,1.24,1.29
19.864988088607788,-0.04,-0.4,0.66,0.77
19.932790279388428,0.05,-0.35,0.23,0.42
19.933390140533447,0.03,-0.25,0.12,0.27
19.93397808074951,-0.14,-0.17,-0.03,0.22
19.935107231140137,-0.31,-0.05,-0.21,0.37
19.93619394302368,-0.3,0.17,-0.41,0.53
19.936772108078003,-0.14,0.3,-0.33,0.46
19.937917232513428,-0.12,0.25,-0.08,0.28
19.94477105140686,0.01,-0.06,-0.02,0.06
19.954719066619873,0.11,-0.17,-0.18,0.27
19.964821100234985,-0.05,-0.18,-0.43,0.46
20.03265905380249,-0.1,-0.04,-0.58,0.58
20.033254146575928,0.1,0.04,-0.43,0.44
20.03384304046631,0.49,-0.03,-0.36,0.6
20.034993171691895,0.85,-0.05,-0.55,1.01
20.036087036132812,1.01,-0.04,-0.66,1.2
20.036664962768555,1.1,-0.05,-0.65,1.27
20.03781223297119,1.26,-0.06,-0.34,1.3
20.044554233551025,1.18,0.04,-0.03,1.18
20.054593086242676,1.07,0.11,0.08,1.07
20.064594268798828,0.69,0.08,0.3,0.75
20.133138179779053,0.24,0.08,0.33,0.41
20.133697986602783,0.22,0.1,0.13,0.27
20.134323120117188,0.37,0.01,0.16,0.4
20.135476112365723,0.79,0.07,0.13,0.8
20.13661527633667,1.33,0.12,0.1,1.33
20.137195110321045,1.4,-0.21,0.51,1.5
20.13837504386902,0.37,-0.49,0.29,0.67
20.1444571018219,-1.1,-0.44,-0.56,1.31
20.154417037963867,-1.94,-0.08,-0.8,2.1
20.164348125457764,-1.87,0.23,-0.54,1.95
20.233487129211426,-1.4,0.18,-0.36,1.45
20.23411798477173,-1.0,0.05,-0.45,1.09
20.2346830368042,-0.54,0.05,-0.52,0.75
20.235795974731445,0.01,0.04,-0.45,0.45
20.23692011833191,0.51,0.02,-0.51,0.72
20.23749613761902,0.87,0.08,-0.63,1.07
20.238670110702515,1.1,0.09,-0.51,1.21
20.244215965270996,1.16,0.05,-0.36,1.21
20.254218101501465,0.79,0.02,-0.35,0.86
20.26426911354065,0.28,-0.1,-0.3,0.42
20.274134159088135,-0.02,-0.12,-0.34,0.36
20.334689140319824,0.03,-0.05,-0.45,0.45
20.335275173187256,0.51,0.07,-0.4,0.65
20.33638620376587,0.93,0.15,0.03,0.94
20.337475061416626,1.03,0.07,0.49,1.14
20.33805227279663,1.06,-0.05,0.68,1.26
20.339524269104004,0.88,-0.14,0.54,1.04
20.34413194656372,0.27,-0.23,0.04,0.35
20.3540940284729,-0.43,-0.16,-0.52,0.69
20.364126205444336,-0.88,-0.04,-0.84,1.21
20.374131202697754,-0.88,-0.05,-0.64,1.08
20.43441605567932,-0.44,-0.01,-0.31,0.53
20.43500518798828,0.05,0.08,-0.52,0.52
20.436177253723145,0.28,0.09,-0.7,0.75
20.437310218811035,0.16,0.06,-0.83,0.84
20.43789005279541,-0.13,0.04,-0.84,0.85
20.439431190490723,-0.3,0.12,-0.69,0.76
20.443894147872925,-0.22,0.13,-0.63,0.67
20.45383906364441,0.03,0.07,-0.43,0.43
20.463911056518555,0.35,0.1,-0.44,0.57
20.473856925964355,0.71,0.07,-0.32,0.78
20.534139156341553,1.02,0.01,0.1,1.02
20.534727096557617,1.17,-0.03,0.28,1.2
20.53587508201599,1.1,-0.01,0.32,1.14
20.536992073059082,0.97,0.03,0.39,1.04
20.537590980529785,0.96,0.1,0.19,0.98
20.539091110229492,1.11,0.12,-0.14,1.12
20.54381513595581,1.38,0.15,-0.27,1.41
20.553767204284668,1.68,0.16,-0.15,1.69
20.56456422805786,1.98,0.12,0.31,2.0
20.573719024658203,2.31,0.11,0.58,2.38
20.634599208831787,2.54,0.28,0.33,2.57
20.635168075561523,2.54,0.58,0.21,2.61
20.636285066604614,2.55,0.95,0.3,2.73
20.63741707801819,2.59,1.34,0.27,2.92
20.637989044189453,2.15,1.51,0.17,2.63
20.639534950256348,1.65,1.99,-0.48,2.62
20.64362907409668,1.77,4.2,-1.19,4.71
20.6535382270813,4.17,5.73,-0.25,7.09
20.66368007659912,4.96,4.84,1.72,7.14
20.673563957214355,5.32,4.94,0.38,7.26
20.735470056533813,4.93,5.68,-0.39,7.53
20.73606514930725,4.38,5.91,-0.73,7.39
20.737195014953613,3.87,6.13,-1.1,7.33
20.738628149032593,3.37,6.11,-1.3,7.09
20.73920202255249,3.04,5.97,-1.49,6.86
20.740382194519043,2.43,5.39,-1.32,6.05
20.743507146835327,1.48,3.58,-1.3,4.08
20.753464221954346,0.63,1.97,-1.26,2.42
20.76349401473999,-1.11,0.22,-0.57,1.26
20.773433208465576,-3.41,-0.83,0.13,3.51
20.835374116897583,-1.5,-1.2,-1.37,2.35
20.83596897125244,2.63,-1.64,-0.99,3.25
20.837142944335938,6.62,-2.99,0.99,7.33
20.838595151901245,5.46,-3.39,1.82,6.67
20.83917212486267,5.9,-3.34,-0.42,6.79
20.8403000831604,7.98,-3.22,0.32,8.61
20.843338012695312,9.17,-3.44,2.64,10.14
20.853305101394653,8.68,-3.68,3.79,10.16
20.863272190093994,6.98,-4.1,3.79,8.93
20.87333607673645,6.02,-3.91,3.03,7.79
20.936306953430176,5.66,-3.43,2.34,7.01
20.936891078948975,5.3,-3.1,1.95,6.44
20.938340187072754,4.54,-2.66,1.56,5.48
20.939472198486328,3.56,-2.32,1.15,4.4
20.940049171447754,2.79,-1.68,0.79,3.35
20.9412260055542,2.39,-0.65,0.52,2.53
20.94322109222412,2.53,0.54,0.37,2.61
20.953140258789062,3.01,1.84,0.31,3.54
21.019365072250366,3.22,3.36,0.59,4.69
21.019963264465332,1.53,4.57,1.03,4.92
21.020545959472656,0.13,5.35,-0.12,5.35
21.021127223968506,-1.47,6.26,-1.89,6.7
21.022313117980957,-3.47,6.9,-3.42,8.44
21.023494243621826,-5.18,7.27,-4.32,9.91
21.024079084396362,-5.78,6.37,-4.05,9.5
21.03303098678589,-5.52,4.52,-3.3,7.86
21.043074131011963,-4.61,2.58,-2.61,5.89
21.05299997329712,-3.92,1.29,-1.9,4.54
21.12048101425171,-3.8,0.4,-1.91,4.27
21.121071100234985,-4.27,-0.04,-2.74,5.07
21.12165594100952,-5.57,0.11,-3.52,6.58
21.12223196029663,-7.12,0.06,-3.88,8.1
21.12336826324463,-7.78,-0.66,-3.3,8.47
21.124484062194824,-7.45,-1.34,-2.21,7.88
21.12506413459778,-6.54,-1.96,-1.52,6.99
21.132859230041504,-5.31,-2.56,-1.53,6.09
21.142828941345215,-3.81,-2.72,-1.14,4.81
21.152897119522095,-2.41,-2.13,-0.8,3.31
21.220943927764893,-2.67,-1.8,-1.26,3.45
21.221556186676025,-3.67,-2.03,-1.76,4.54
21.22214412689209,-3.95,-0.74,-1.79,4.39
21.222767114639282,-1.66,7.76,-1.59,8.09
21.22399616241455,0.57,5.53,-1.75,5.82
21.22520923614502,8.06,-1.29,0.14,8.16
21.22618818283081,12.6,-2.73,7.83,15.08
21.232741117477417,6.6,-2.04,6.2,9.28
21.24256205558777,-0.57,0.46,-1.05,1.28
21.25270414352417,-4.86,0.74,-3.58,6.08
21.321176052093506,-3.14,0.8,-2.07,3.84
21.32177495956421,0.01,1.87,-1.41,2.34
21.322376251220703,0.68,2.71,-1.43,3.13
21.322965145111084,-0.26,3.29,-0.52,3.34
21.324186086654663,-2.95,3.57,0.22,4.63
21.32570505142212,-5.94,2.64,-0.28,6.5
21.32633113861084,-6.05,1.02,-0.89,6.19
21.33259105682373,-4.05,-0.03,-0.97,4.16
21.342463970184326,-3.1,0.72,-1.19,3.39
21.35247015953064,-4.33,-1.54,-3.13,5.56
21.421144008636475,-3.48,-0.88,-4.23,5.54
21.421738147735596,-2.26,-0.01,-3.03,3.78
21.42234992980957,-2.04,-0.96,-1.06,2.49
21.422935009002686,-1.18,-0.94,-1.0,1.8
21.42408800125122,-0.2,-0.33,-1.56,1.6
21.42521905899048,-0.52,0.23,-0.27,0.62
21.426186084747314,0.37,0.66,-0.3,0.81
21.432422161102295,0.63,0.39,-0.24,0.77
21.442543983459473,0.49,-0.41,0.26,0.68
21.45247220993042,-0.25,-0.81,0.17,0.86
21.521320104599,-1.8,-0.43,-0.41,1.89
21.521912097930908,-2.04,-0.04,-0.7,2.15
21.522501945495605,-1.54,0.04,-0.75,1.71
21.52307915687561,-1.16,0.05,-0.8,1.41
21.52422308921814,-0.91,-0.37,-0.93,1.35
21.52536106109619,-1.03,-0.6,-0.53,1.3
21.526283264160156,-1.3,-0.22,-0.25,1.34
21.532288074493408,-0.89,-0.1,0.13,0.9
21.54253315925598,-0.53,0.09,0.03,0.53
21.55245614051819,-0.05,-0.05,-0.38,0.38
21.621462106704712,0.06,-0.43,-0.39,0.58
21.622072219848633,-0.6,-0.39,-0.5,0.87
21.62265706062317,-1.3,-0.13,-0.37,1.35
21.62324094772339,-1.56,0.01,-0.3,1.58
21.624430179595947,-1.4,-0.06,-0.38,1.45
21.62558126449585,-1.14,-0.19,-0.43,1.23
21.626549243927002,-1.29,-0.21,-0.45,1.38
21.63208508491516,-1.34,-0.18,-0.21,1.36
21.642054080963135,-1.26,0.02,-0.13,1.26
21.652040004730225,-0.99,0.02,-0.27,1.02
21.721166133880615,-0.59,-0.11,-0.42,0.73
21.721740245819092,-0.59,-0.07,-0.3,0.66
21.722286224365234,-0.85,0.03,-0.05,0.85
21.722846031188965,-0.85,-0.04,0.09,0.85
21.723928928375244,-0.96,-0.17,0.18,0.99
21.72503900527954,-1.09,-0.04,0.23,1.11
21.725615978240967,-0.93,-0.1,0.39,1.01
21.73191499710083,-0.81,-0.14,0.43,0.92
21.741884231567383,-0.8,-0.04,0.29,0.85
21.75193500518799,-0.69,-0.07,0.22,0.72
21.82102918624878,-0.67,-0.13,0.03,0.68
21.821650981903076,-0.64,-0.01,-0.23,0.68
21.82222318649292,-0.43,-0.06,-0.55,0.7
21.822819232940674,-0.29,-0.24,-0.48,0.61
21.823976039886475,-0.09,0.05,-0.29,0.3
21.82508611679077,-0.02,0.11,-0.42,0.43
21.825663089752197,-0.01,0.02,-0.91,0.91
21.831783056259155,0.04,0.0,-1.08,1.08
21.841755151748657,0.05,-0.02,-0.98,0.98
21.85177707672119,0.09,0.05,-0.95,0.95
21.920605182647705,0.18,-0.04,-0.86,0.87
21.921210050582886,0.5,-0.12,-0.8,0.95
21.921792030334473,0.59,-0.02,-0.64,0.87
21.922369956970215,0.57,-0.24,-0.43,0.75
21.923530101776123,0.22,-0.18,-0.37,0.46
21.924625158309937,0.07,-0.18,-0.05,0.19
21.925167083740234,0.01,-0.08,0.22,0.23
21.931668043136597,0.11,0.04,0.1,0.15
21.94159507751465,0.32,-0.03,-0.03,0.32
21.951581954956055,0.63,0.01,-0.1,0.63
22.020910263061523,0.64,-0.05,-0.3,0.7
22.02154016494751,0.39,-0.1,-0.48,0.62
22.022127151489258,0.51,-0.04,-0.2,0.54
22.0227210521698,0.78,0.01,-0.09,0.78
22.023895263671875,0.87,-0.01,-0.15,0.88
22.025041103363037,1.0,0.08,-0.19,1.02
22.025625228881836,0.89,0.11,-0.03,0.89
22.031558990478516,0.63,0.01,0.02,0.63
22.04143714904785,0.45,-0.08,0.03,0.45
22.05144214630127,0.35,-0.07,0.09,0.36
22.120355129241943,0.11,-0.08,0.09,0.16
22.12093210220337,-0.24,-0.1,-0.13,0.29
22.121519088745117,-0.54,-0.07,-0.34,0.64
22.122107982635498,-0.45,-0.02,-0.29,0.53
22.123284101486206,-0.05,0.05,-0.05,0.08
22.12448215484619,0.32,0.06,0.19,0.37
22.12506103515625,0.7,0.03,0.23,0.73
22.131344079971313,1.08,-0.01,0.17,1.09
22.141301155090332,1.22,0.03,-0.05,1.22
22.151268005371094,0.95,0.03,-0.06,0.95
22.220145225524902,0.44,-0.01,-0.02,0.44
22.22075319290161,0.04,0.05,0.05,0.08
22.22134017944336,-0.03,0.19,0.0,0.19
22.221914052963257,0.36,0.22,-0.1,0.43
22.22310709953308,0.96,0.14,-0.06,0.97
22.224273204803467,1.48,0.12,0.29,1.51
22.22484827041626,1.98,0.08,1.0,2.21
22.23112916946411,2.16,0.14,1.09,2.42
22.241047143936157,1.98,0.2,0.73,2.11
22.251068115234375,1.76,0.26,0.29,1.8
22.320054054260254,1.69,0.58,-0.1,1.78
22.320677280426025,1.78,0.88,-0.25,2.0
22.321263074874878,1.86,1.12,-0.18,2.17
22.3218412399292,1.34,1.4,0.03,1.93
22.323008060455322,0.77,1.29,0.09,1.5
22.32415008544922,0.16,1.67,-0.53,1.75
22.324728965759277,1.56,4.1,-1.52,4.64
22.33109426498413,3.64,4.94,0.52,6.15
22.340868949890137,3.58,4.63,1.5,6.04
22.350926160812378,3.0,4.58,-0.07,5.47
22.420907974243164,2.91,4.58,-0.89,5.49
22.421468257904053,2.82,4.24,-0.46,5.11
22.422044277191162,2.29,3.79,-0.31,4.43
22.422619104385376,2.44,3.76,-0.97,4.58
22.42371892929077,3.18,3.84,-1.08,5.1
22.424801111221313,3.36,3.16,-0.86,4.69
22.425375938415527,2.58,2.05,-1.1,3.47
22.43091607093811,1.94,1.26,-1.37,2.68
22.44080924987793,1.92,0.66,-1.28,2.4
22.450910091400146,2.74,-0.16,-0.78,2.85
22.521048069000244,3.53,-0.07,0.62,3.58
22.52164125442505,3.25,-0.63,1.19,3.51
22.5222270488739,2.22,-1.12,0.96,2.66
22.522807121276855,3.38,-1.45,-0.08,3.67
22.523982048034668,5.56,-0.94,0.16,5.64
22.52513813972473,6.77,-0.87,1.28,6.94
22.526028156280518,6.73,-1.48,1.67,7.09
22.530657052993774,6.21,-1.73,1.16,6.55
22.540602207183838,5.83,-1.79,0.72,6.14
22.550678253173828,5.44,-1.92,0.65,5.8
22.6213641166687,4.91,-2.06,0.86,5.39
22.621939182281494,4.17,-2.06,0.97,4.75
22.622483253479004,3.33,-1.8,0.88,3.88
22.623055934906006,2.6,-1.26,0.9,3.02
22.624186992645264,2.25,-0.64,0.79,2.46
22.625487089157104,2.12,-0.01,0.61,2.2
22.62622904777527,2.14,0.61,0.54,2.28
22.630573272705078,2.34,1.22,0.51,2.68
22.640488147735596,2.28,1.64,0.57,2.86
22.650525093078613,1.55,1.99,0.78,2.64
22.72186803817749,-0.47,2.02,1.09,2.34
22.722453117370605,-1.86,1.82,0.8,2.72
22.72303295135498,-2.78,2.12,0.4,3.51
22.723612070083618,-3.13,2.48,0.03,3.99
22.724759101867676,-2.99,2.36,-0.11,3.81
22.72619104385376,-2.67,2.19,-0.16,3.45
22.72676706314087,-1.96,2.02,-0.11,2.81
22.73037314414978,-1.54,1.95,-0.13,2.48
22.740428924560547,-1.66,2.02,-0.44,2.65
22.75040626525879,-1.82,2.16,-0.71,2.91
22.760301113128662,-2.14,2.32,-0.61,3.21
22.822456121444702,-2.77,2.4,-0.48,3.69
22.823039054870605,-3.57,2.31,-0.7,4.3
22.823620080947876,-4.65,1.97,-1.21,5.19
22.82478904724121,-5.27,1.4,-1.59,5.67
22.82624101638794,-5.6,0.56,-2.34,6.09
22.826845169067383,-6.18,-0.8,-2.71,6.79
22.830188274383545,-6.4,-1.99,-2.6,7.18
22.84016513824463,-6.01,-2.12,-2.56,6.86
22.850542068481445,-5.25,-1.52,-2.69,6.09
22.860133171081543,-3.96,-1.63,-2.62,5.02
22.922894954681396,-3.37,-0.32,-2.21,4.04
22.92349100112915,-2.32,5.9,-1.88,6.61
22.924074172973633,-4.03,1.56,-2.35,4.91
22.92554211616516,-5.28,-3.13,-3.96,7.3
22.926653146743774,0.29,-2.3,-2.58,3.46
22.927611112594604,9.72,-0.34,4.08,10.54
22.93002700805664,13.12,0.25,8.05,15.39
22.940115928649902,7.29,0.94,3.64,8.2
22.95008897781372,-1.55,1.82,-0.79,2.51
22.95999813079834,-5.8,0.47,-2.17,6.21
23.02265214920044,-3.71,-0.14,-1.67,4.07
23.023245096206665,-2.3,1.19,-2.31,3.47
23.023823261260986,-2.57,2.62,-2.42,4.39
23.02529811859131,-2.45,4.01,-1.75,5.01
23.026385068893433,-2.28,3.86,-1.08,4.61
23.026960134506226,-2.06,0.69,-0.66,2.27
23.029935121536255,-1.24,-0.69,-1.16,1.83
23.040109157562256,-3.15,-3.41,-2.96,5.5
23.049932956695557,-3.98,-2.39,-4.2,6.26
23.059694051742554,-3.6,0.23,-2.44,4.35
23.12282705307007,-3.42,-0.44,0.38,3.46
23.12342405319214,-3.41,-2.25,0.5,4.11
23.124022006988525,-3.02,-1.68,-0.77,3.54
23.125553131103516,-2.76,0.13,-0.25,2.77
23.126691102981567,-1.47,2.41,1.12,3.03
23.127274990081787,-0.2,2.55,-0.25,2.57
23.1297390460968,-0.47,0.43,-0.45,0.77
23.139799118041992,-0.2,-0.63,-0.33,0.73
23.14974594116211,-0.04,-0.55,-0.79,0.96
23.15968894958496,-0.26,-0.57,-0.7,0.93
23.223063945770264,-1.51,-0.55,0.18,1.61
23.22368311882019,-2.49,-0.45,0.6,2.6
23.22460126876831,-2.79,-0.29,0.02,2.8
23.22582197189331,-2.33,-0.25,-0.77,2.46
23.226981163024902,-1.76,-0.45,-0.62,1.91
23.227925062179565,-1.45,-0.25,-0.99,1.77
23.22952914237976,-1.04,-0.14,-1.38,1.73
23.23945426940918,-0.45,-0.53,-1.08,1.28
23.249516010284424,-0.64,-0.22,-0.51,0.84
23.259490966796875,-1.21,0.32,-0.54,1.36
23.32322907447815,-1.1,0.38,-0.82,1.42
23.32385015487671,-0.87,0.05,-0.96,1.29
23.324742078781128,-0.78,-0.14,-1.06,1.32
23.325899124145508,-1.1,-0.06,-1.29,1.69
23.32703924179077,-1.18,-0.08,-1.29,1.75
23.327579975128174,-0.82,-0.3,-0.76,1.15
23.329362154006958,-0.84,-0.2,-0.45,0.97
23.3392550945282,-0.99,-0.13,-0.33,1.05
23.349419116973877,-0.93,-0.16,-0.24,0.97
23.359313011169434,-0.85,-0.09,-0.25,0.89
23.423157215118408,-0.79,-0.04,-0.4,0.88
23.423766136169434,-0.59,-0.12,-0.12,0.61
23.42463493347168,-0.59,-0.09,0.22,0.63
23.42573118209839,-0.65,-0.05,0.45,0.79
23.42682909965515,-0.63,-0.05,0.61,0.87
23.427374124526978,-0.87,-0.07,0.66,1.09
23.429166078567505,-0.86,-0.09,0.78,1.16
23.439110279083252,-0.67,-0.12,0.54,0.86
23.44926404953003,-0.54,-0.17,0.22,0.6
23.459172248840332,-0.45,-0.14,0.15,0.49
23.52260112762451,-0.29,-0.08,0.2,0.36
23.52319312095642,-0.26,-0.03,0.07,0.27
23.524121046066284,-0.28,0.02,-0.17,0.32
23.525328159332275,-0.29,-0.01,-0.65,0.71
23.526473999023438,-0.01,0.03,-1.27,1.27
23.527058124542236,0.6,-0.06,-1.34,1.46
23.529043197631836,1.02,-0.1,-1.05,1.46
23.538994073867798,0.96,-0.18,-0.85,1.29
23.549090147018433,0.68,-0.19,-0.42,0.82
23.559062004089355,0.54,0.03,-0.21,0.58
23.622823238372803,0.42,-0.08,-0.33,0.54
23.623454093933105,0.37,0.0,-0.72,0.8
23.624351978302002,0.46,0.05,-0.64,0.78
23.625524044036865,0.42,-0.03,-0.37,0.56
23.626686096191406,0.31,-0.1,-0.18,0.37
23.627277135849,0.27,0.04,0.08,0.28
23.628826141357422,0.08,0.07,0.19,0.21
23.638971090316772,-0.07,0.02,-0.02,0.07
23.648988246917725,-0.01,-0.02,-0.03,0.03
23.658947944641113,-0.15,-0.09,-0.1,0.2
23.722299098968506,-0.2,0.02,-0.29,0.35
23.72290325164795,0.05,0.06,-0.2,0.21
23.72382402420044,0.18,-0.07,0.12,0.22
23.725029945373535,0.25,-0.06,0.15,0.29
23.726176261901855,0.57,-0.11,0.17,0.6
23.72676992416382,0.74,-0.14,0.16,0.76
23.72864818572998,0.76,0.0,-0.05,0.76
23.738754272460938,0.83,0.0,0.06,0.83
23.748796939849854,0.49,-0.03,0.09,0.49
23.758774280548096,0.24,0.01,0.13,0.27
23.822182178497314,0.17,-0.03,0.31,0.35
23.822772979736328,0.01,-0.06,0.12,0.13
23.823631048202515,0.14,0.01,-0.12,0.18
23.824759006500244,0.53,-0.01,-0.12,0.54
23.82584810256958,0.73,-0.04,-0.22,0.76
23.82645320892334,0.66,-0.02,-0.35,0.74
23.828765153884888,0.23,0.01,-0.43,0.48
23.838579177856445,-0.21,0.07,-0.51,0.55
23.848679065704346,-0.48,0.1,-0.29,0.56
23.85847520828247,-0.6,0.14,-0.24,0.66
23.9221830368042,-0.47,0.05,-0.22,0.52
23.922780990600586,-0.15,0.08,-0.21,0.27
23.92374324798584,0.21,0.06,-0.11,0.24
23.924914121627808,0.45,0.01,0.05,0.45
23.926082134246826,0.88,0.11,-0.14,0.89
23.926688194274902,1.5,0.19,-0.2,1.52
23.92873525619507,2.15,0.21,-0.14,2.16
23.938400268554688,2.28,0.12,-0.09,2.28
23.948466062545776,2.51,0.04,0.32,2.53
23.95842409133911,2.46,0.1,0.66,2.54
24.022541999816895,2.21,0.12,0.99,2.42
24.02345108985901,1.98,0.22,0.86,2.16
24.024030208587646,1.78,0.67,0.49,1.96
24.025155067443848,1.75,0.99,0.49,2.06
24.02624797821045,2.03,1.23,0.19,2.38
24.02683401107788,2.23,1.8,-0.18,2.87
24.028159141540527,2.0,2.33,0.1,3.07
24.038331985473633,1.23,3.19,-0.18,3.42
24.048341274261475,2.77,5.35,-1.82,6.29
24.058316230773926,3.65,5.77,0.86,6.88
24.122977256774902,3.14,5.46,0.99,6.37
24.123897075653076,3.15,5.32,-0.82,6.23
24.124475955963135,3.58,5.63,-1.15,6.77
24.125638961791992,4.3,5.83,-0.9,7.29
24.126779079437256,5.05,6.2,-1.09,8.07
24.127357006072998,5.36,5.91,-1.85,8.19
24.128561973571777,3.99,4.56,-1.73,6.3
24.138129234313965,1.76,2.7,-1.27,3.46
24.148147106170654,0.14,0.59,-1.39,1.51
24.1581392288208,-0.64,-1.37,-0.85,1.73
24.223381996154785,-0.52,-1.44,-0.19,1.54
24.224173069000244,2.52,-2.11,-0.6,3.34
24.224765062332153,2.91,-2.07,1.69,3.95
24.22594904899597,4.01,-2.32,0.8,4.7
24.227102279663086,6.86,-2.51,0.01,7.3
24.227699279785156,7.23,-2.22,1.79,7.77
24.229268074035645,6.91,-2.45,3.09,7.95
24.23779606819153,5.76,-3.13,3.35,7.36
24.248183250427246,5.17,-3.2,2.59,6.6
24.257951259613037,5.03,-2.68,2.04,6.05
24.324140071868896,4.71,-2.24,1.89,5.54
24.3247332572937,4.22,-2.05,1.8,5.02
24.325324058532715,3.55,-1.91,1.88,4.44
24.32646608352661,2.91,-1.69,1.85,3.84
24.32764506340027,2.44,-1.25,1.65,3.19
24.328233242034912,2.23,-0.65,1.41,2.71
24.329787254333496,2.14,-0.02,1.23,2.46
24.33784008026123,2.02,0.59,0.96,2.31
24.34781312942505,1.88,1.23,0.66,2.34
24.3577880859375,1.64,1.72,0.51,2.43
24.424150943756104,1.26,1.98,0.28,2.36
24.42474603652954,1.63,2.04,-0.27,2.62
24.42534303665161,0.11,2.71,0.14,2.71
24.42652702331543,-1.7,2.47,-0.23,3.0
24.427709102630615,-2.64,2.79,-1.03,3.97
24.428301095962524,-3.04,3.35,-1.71,4.83
24.429842948913574,-3.43,3.11,-2.02,5.05
24.437709093093872,-3.8,2.29,-1.86,4.81
24.44770622253418,-3.95,1.46,-1.59,4.5
24.457598209381104,-4.07,0.91,-1.51,4.43
24.5245201587677,-4.16,0.81,-1.91,4.64
24.52512216567993,-3.84,0.98,-2.17,4.51
24.525728225708008,-3.66,0.72,-2.09,4.27
24.526862144470215,-4.01,0.43,-2.19,4.58
24.527987957000732,-4.81,0.14,-2.34,5.35
24.528568267822266,-5.5,-0.35,-2.12,5.9
24.530073165893555,-6.38,-0.8,-2.11,6.76
24.537503242492676,-6.82,-1.11,-2.44,7.32
24.547636032104492,-6.66,-1.6,-2.52,7.29
24.557395935058594,-6.39,-1.85,-2.38,7.06
24.624345064163208,-4.84,2.82,-2.71,6.22
24.62497901916504,-1.45,4.15,-2.8,5.21
24.625571250915527,-2.09,0.03,-1.43,2.53
24.626755237579346,-1.39,-1.23,-1.84,2.61
24.627933979034424,4.15,0.15,0.07,4.15
24.62851905822754,8.36,0.48,4.36,9.44
24.63007402420044,8.42,0.1,3.63,9.16
24.637317180633545,4.61,0.28,0.02,4.61
24.64735507965088,0.31,0.9,-1.91,2.13
24.657170057296753,-0.84,0.7,-2.24,2.49
24.724213123321533,0.22,0.58,-2.22,2.3
24.72481107711792,0.53,0.62,-2.33,2.46
24.725389003753662,-0.8,0.8,-1.85,2.16
24.72659397125244,-2.92,1.71,-0.64,3.44
24.72777509689331,-5.38,1.72,-0.39,5.66
24.728358268737793,-5.91,3.73,-2.38,7.38
24.72990608215332,-6.85,2.55,-6.8,9.98
24.73721218109131,-6.78,0.62,-6.35,9.3
24.747148990631104,-0.96,0.23,1.71,1.97
24.757091999053955,-0.96,-2.89,5.41,6.2
24.823934078216553,-4.91,-3.8,2.52,6.7
24.82456111907959,-3.31,-2.78,0.31,4.33
24.825148105621338,-0.85,-2.24,-0.44,2.43
24.826317071914673,-0.84,-0.76,-2.37,2.62
24.827489137649536,-1.64,2.06,-2.68,3.75
24.8280770778656,-1.51,3.29,-2.4,4.34
24.829276084899902,-0.65,1.21,-1.15,1.79
24.837017059326172,0.37,-0.31,-0.05,0.48
24.846895217895508,1.35,-0.83,-0.39,1.63
24.857020139694214,0.95,-0.72,-0.47,1.28
24.9239981174469,-0.86,-0.47,-0.14,0.98
24.924593925476074,-2.16,-0.27,-0.31,2.19
24.925175189971924,-2.79,-0.36,-0.82,2.93
24.926314115524292,-3.54,-0.49,-0.68,3.63
24.92747402191162,-3.57,-0.33,-0.42,3.6
24.928065061569214,-2.7,-0.19,-0.35,2.72
24.929251194000244,-1.76,-0.15,-0.37,1.8
24.93689203262329,-1.13,-0.13,-0.18,1.15
24.946688175201416,-1.05,-0.17,0.13,1.07
24.956878185272217,-0.4,-0.38,-0.11,0.56
25.023751258850098,0.51,-0.23,1.05,1.18
25.0243501663208,-0.45,0.37,0.52,0.78
25.024932146072388,-1.36,0.1,0.15,1.37
25.026109218597412,-1.83,-0.19,0.33,1.86
25.02729892730713,-1.91,-0.21,-0.08,1.92
25.02788209915161,-1.28,-0.19,-0.56,1.41
25.02908706665039,-0.72,-0.51,-0.18,0.9
25.036773204803467,-1.43,-0.37,-0.2,1.49
25.046850204467773,-1.71,-0.09,-0.02,1.71
25.056766033172607,-1.13,-0.19,0.29,1.18
25.123692989349365,-0.83,-0.21,-0.04,0.85
25.124284267425537,-0.68,-0.19,-0.32,0.77
25.124845027923584,-0.59,-0.19,-0.47,0.77
25.125953197479248,-0.84,0.01,-0.54,0.99
25.127114057540894,-0.66,0.04,-0.28,0.71
25.127697944641113,-0.27,-0.22,-0.05,0.35
25.12890911102295,-0.42,-0.19,-0.35,0.57
25.13666009902954,-0.41,-0.13,-0.58,0.72
25.14682912826538,-0.14,-0.13,-0.55,0.58
25.15661907196045,0.03,-0.23,-0.53,0.57
25.224420070648193,0.08,-0.18,-0.39,0.43
25.225037097930908,0.21,0.0,-0.28,0.35
25.22563123703003,0.34,-0.05,-0.26,0.43
25.226781129837036,0.4,-0.12,-0.43,0.59
25.227869033813477,0.2,-0.2,-0.57,0.63
25.22844910621643,0.05,-0.08,-0.55,0.55
25.229588985443115,0.1,-0.06,-0.46,0.47
25.236425161361694,0.17,0.02,-0.51,0.53
25.246366024017334,0.14,-0.02,-0.34,0.36
25.25630521774292,0.07,-0.1,-0.34,0.36
25.323769092559814,-0.03,-0.11,-0.3,0.32
25.324364185333252,-0.11,-0.13,-0.37,0.4
25.324942111968994,-0.09,-0.07,-0.32,0.33
25.326155185699463,-0.08,-0.07,-0.08,0.13
25.327287197113037,-0.19,-0.11,0.18,0.28
25.327885150909424,-0.05,0.08,0.1,0.13
25.329098224639893,0.33,0.07,-0.1,0.35
25.336295127868652,0.49,-0.02,-0.59,0.76
25.346240997314453,0.62,0.04,-0.89,1.08
25.35622501373291,0.59,0.19,-0.81,1.01
25.424461126327515,0.18,0.3,-0.69,0.77
25.4250590801239,-0.1,0.27,-0.28,0.4
25.425644159317017,-0.08,0.15,0.28,0.32
25.426805019378662,0.06,-0.05,0.18,0.19
25.427911043167114,0.17,-0.17,-0.27,0.36
25.428492069244385,0.06,-0.06,-0.41,0.41
25.42965602874756,-0.05,0.0,-0.45,0.45
25.4360830783844,0.32,0.01,-0.26,0.41
25.446051120758057,0.86,0.02,-0.04,0.86
25.45602011680603,1.3,-0.06,0.11,1.3
25.52376914024353,1.36,-0.13,0.03,1.36
25.524359226226807,0.94,-0.09,-0.07,0.94
25.524927139282227,0.49,-0.09,-0.16,0.52
25.52607011795044,0.6,-0.01,-0.11,0.61
25.52720308303833,1.09,0.05,0.02,1.09
25.527804136276245,1.35,-0.07,0.15,1.36
25.528999090194702,0.96,-0.28,-0.02,1.0
25.53597116470337,0.05,-0.33,-0.33,0.46
25.545917987823486,-0.76,-0.12,-0.47,0.9
25.555898189544678,-0.9,0.16,-0.49,1.03
25.62400197982788,-0.58,0.19,-0.34,0.69
25.62459707260132,-0.21,0.03,-0.13,0.24
25.625175952911377,-0.17,-0.07,-0.24,0.3
25.626349925994873,-0.28,-0.05,-0.42,0.5
25.62747097015381,-0.37,-0.02,-0.36,0.51
25.628051042556763,-0.35,0.08,-0.31,0.47
25.629240036010742,-0.15,0.09,-0.17,0.24
25.635828971862793,0.04,-0.04,-0.05,0.07
25.645763158798218,0.03,-0.06,-0.28,0.28
25.65565299987793,-0.05,0.0,-0.56,0.56
25.72416400909424,-0.24,-0.03,-0.41,0.47
25.72476315498352,-0.43,0.02,-0.3,0.52
25.725375175476074,-0.36,0.09,-0.31,0.48
25.72653102874756,-0.22,0.04,-0.36,0.42
25.72767210006714,-0.11,0.01,-0.38,0.39
25.72825527191162,-0.03,0.03,-0.44,0.44
25.729423999786377,0.16,0.03,-0.55,0.57
25.735676050186157,0.39,-0.08,-0.6,0.72
25.74562406539917,0.66,-0.19,-0.35,0.77
25.755649089813232,1.05,-0.11,-0.09,1.05
25.824420928955078,1.43,0.01,0.0,1.43
25.825019121170044,1.67,0.11,0.11,1.67
25.825627088546753,1.84,0.13,-0.01,1.84
25.826786994934082,2.04,0.07,0.02,2.04
25.8279230594635,2.37,-0.05,0.29,2.38
25.82850694656372,2.84,-0.13,0.42,2.87
25.82970404624939,3.42,-0.02,0.68,3.48
25.835458278656006,3.73,0.12,1.22,3.92
25.845437049865723,4.28,0.24,1.84,4.66
25.85547924041748,4.73,0.45,1.68,5.03
25.92487096786499,4.64,0.7,1.24,4.85
25.92548418045044,4.46,1.23,1.06,4.74
25.926059246063232,3.61,2.43,0.15,4.35
25.92719602584839,1.76,3.67,-0.5,4.1
25.92830801010132,0.06,5.33,0.35,5.34
25.928887128829956,-0.51,6.5,-0.27,6.52
25.93009305000305,3.12,6.91,-3.02,8.16
25.935328006744385,3.66,7.13,0.03,8.01
25.945353984832764,5.02,6.98,-0.4,8.6
25.955381155014038,6.33,7.06,-2.09,9.7
26.02521514892578,5.77,6.6,-2.56,9.13
26.025813102722168,4.74,4.95,-2.5,7.29
26.02638006210327,3.06,3.35,-2.5,5.18
26.027482986450195,1.18,1.91,-1.67,2.79
26.02860713005066,0.02,0.22,-0.91,0.93
26.029191970825195,-0.68,-0.77,-0.32,1.07
26.03071928024292,-0.2,-1.54,-0.01,1.55
26.035206079483032,2.6,-2.61,0.32,3.69
26.04519009590149,3.62,-3.2,1.78,5.14
26.0551700592041,5.25,-2.44,0.04,5.78
26.125648021697998,7.54,-1.92,-0.35,7.78
26.126249074935913,8.04,-1.89,2.12,8.52
26.12683415412903,7.56,-2.87,3.42,8.77
26.12800908088684,6.16,-3.82,3.39,8.0
26.129157066345215,5.12,-3.77,2.64,6.88
26.130089044570923,4.75,-3.33,2.21,6.2
26.131639003753662,4.58,-2.8,2.02,5.73
26.135038137435913,4.32,-2.31,1.83,5.22
26.14487600326538,3.8,-1.93,1.67,4.57
26.1549711227417,3.05,-1.56,1.7,3.82
26.22533106803894,2.45,-1.28,1.81,3.3
26.225954055786133,1.89,-0.85,1.89,2.8
26.226531982421875,1.27,-0.08,1.69,2.11
26.227694034576416,0.63,1.0,1.11,1.62
26.228836059570312,-0.35,1.94,0.38,2.0
26.22944211959839,-0.76,2.8,-0.43,2.93
26.230963230133057,-0.76,3.54,-1.11,3.78
26.234862089157104,-0.01,4.07,-1.22,4.24
26.244810104370117,-1.8,4.74,-0.06,5.07
26.254825115203857,-3.43,4.54,-0.16,5.69
26.325762271881104,-4.49,4.54,-0.82,6.43
26.32633399963379,-5.02,4.2,-1.68,6.75
26.326935052871704,-4.89,3.27,-2.1,6.24
26.328164100646973,-4.49,2.12,-2.12,5.39
26.32938814163208,-4.36,1.58,-2.36,5.2
26.330294132232666,-4.17,1.3,-2.86,5.22
26.331872940063477,-3.92,1.36,-3.3,5.3
26.334676265716553,-4.06,0.76,-3.26,5.26
26.34468412399292,-4.6,-0.47,-2.37,5.19
26.35465908050537,-5.61,-0.91,-1.5,5.87
26.364599227905273,-6.59,-1.37,-1.48,6.89
26.426291942596436,-7.16,-2.07,-2.1,7.74
26.426877975463867,-6.77,-2.57,-2.89,7.79
26.428046226501465,-5.49,-1.74,-3.46,6.71
26.42921209335327,-4.7,-0.56,-3.6,5.94
26.430113077163696,-4.45,-1.06,-2.8,5.36
26.43131923675537,-4.49,-1.65,-1.76,5.09
26.434539079666138,-3.63,3.29,-1.47,5.11
26.44452714920044,-1.39,6.4,-1.66,6.75
26.454493045806885,2.26,-0.26,-0.99,2.48
26.46442413330078,9.68,-2.97,4.5,11.08
26.525175094604492,9.91,-2.74,8.98,13.65
26.52577495574951,4.5,-1.19,4.94,6.78
26.526941061019897,-1.59,-0.25,-0.32,1.64
26.52808904647827,-4.73,-0.41,-2.28,5.26
26.528676986694336,-2.48,0.81,-1.32,2.92
26.530210971832275,0.21,2.68,-0.51,2.73
26.53433609008789,1.39,4.15,-0.33,4.38
26.54440712928772,0.93,4.98,0.23,5.07
26.554378986358643,-1.48,3.62,0.47,3.93
26.564300060272217,-3.54,3.13,0.28,4.73
26.625352144241333,-5.13,2.17,-1.94,5.89
26.62595009803772,-6.48,-1.06,-2.24,6.93
26.627134084701538,-4.64,-0.53,-1.62,4.94
26.62828302383423,-2.91,-1.12,-0.78,3.21
26.629199028015137,-2.66,-3.6,-0.13,4.47
26.630383014678955,-3.44,-4.8,-1.64,6.12
26.634253978729248,-2.95,-2.48,-2.9,4.82
26.64428210258484,-1.86,0.58,-2.11,2.87
26.6542329788208,-0.74,1.71,-1.34,2.29
26.66420006752014,-0.08,2.31,-1.45,2.72
26.72610116004944,0.8,1.95,-1.99,2.89
26.72669816017151,1.66,0.55,-1.66,2.41
26.7278470993042,1.52,-0.1,-1.35,2.03
26.729310989379883,0.71,-0.15,-1.52,1.68
26.729892253875732,-0.58,-0.24,-1.45,1.58
26.731081008911133,-1.58,-0.22,-0.95,1.85
26.733994007110596,-1.88,-0.45,-0.6,2.02
26.74407410621643,-1.45,-1.03,-0.95,2.01
26.754048109054565,-1.68,-0.89,-0.3,1.92
26.763983249664307,-1.97,-0.12,-0.53,2.04
26.825589179992676,-1.55,-0.2,-0.69,1.7
26.82617998123169,-1.62,-0.31,0.09,1.65
26.82735013961792,-1.51,-0.35,0.88,1.78
26.82849407196045,-1.12,-0.42,1.32,1.78
26.829387187957764,-0.35,-0.34,1.57,1.64
26.830578088760376,0.13,-0.09,1.22,1.23
26.83382797241211,0.13,-0.01,0.1,0.16
26.843994140625,-0.02,-0.02,-0.84,0.84
26.853765964508057,-0.11,-0.15,-0.8,0.82
26.86380100250244,-0.89,-0.26,-0.8,1.22
26.928348064422607,-1.52,-0.11,-1.58,2.19
26.929384231567383,-0.99,-0.16,-1.77,2.03
26.93067502975464,-0.25,-0.28,-1.07,1.13
26.931823253631592,-0.37,-0.03,-0.99,1.05
26.932685136795044,-0.5,0.03,-1.11,1.21
26.933849096298218,-0.5,0.12,-1.55,1.63
26.934985160827637,-0.43,0.1,-2.02,2.06
26.943614959716797,-0.15,0.01,-1.17,1.17
27.015825271606445,-0.36,0.22,-0.5,0.65
27.016417980194092,-0.64,0.23,-0.01,0.68
27.017000198364258,-0.49,0.0,0.3,0.57
27.01758098602295,-0.48,-0.07,0.42,0.64
27.019106149673462,-0.67,-0.11,0.68,0.96
27.02024507522583,-0.72,-0.27,1.12,1.35
27.02083396911621,-0.64,-0.17,1.26,1.42
27.023558139801025,-0.69,-0.21,1.39,1.56
27.033560276031494,-0.96,-0.29,1.44,1.75
27.043564081192017,-0.69,-0.11,1.1,1.3
27.115875244140625,-0.18,-0.11,0.67,0.7
27.116430044174194,-0.08,-0.19,0.5,0.54
27.11701512336731,-0.19,0.03,0.12,0.22
27.11759614944458,-0.41,0.12,-0.37,0.56
27.119131088256836,-0.51,0.04,-0.64,0.81
27.12028217315674,-0.4,0.06,-1.1,1.17
27.120864152908325,-0.2,0.03,-1.37,1.38
27.123371124267578,-0.21,-0.02,-1.21,1.22
27.13323712348938,-0.17,0.08,-0.77,0.79
27.1433162689209,0.13,0.11,-0.25,0.3
27.216053009033203,0.32,-0.11,-0.23,0.4
27.21664524078369,0.39,-0.21,-0.14,0.46
27.21722412109375,0.19,-0.13,0.04,0.23
27.217787265777588,-0.15,-0.13,0.34,0.39
27.219284057617188,-0.19,0.1,0.41,0.46
27.22041606903076,-0.04,0.1,0.03,0.11
27.22096610069275,0.02,0.0,-0.66,0.66
27.223319053649902,0.16,-0.1,-0.87,0.89
27.23321294784546,0.11,-0.05,-0.33,0.35
27.243310928344727,-0.17,0.03,-0.27,0.32
27.315564155578613,-0.33,0.06,-0.46,0.56
27.316548109054565,-0.3,0.02,-0.33,0.44
27.3171329498291,-0.21,-0.01,-0.11,0.23
27.31772804260254,0.18,0.03,0.04,0.18
27.319294929504395,0.57,0.03,-0.01,0.57
27.320423126220703,0.77,0.0,-0.32,0.83
27.321007251739502,0.62,0.07,-0.62,0.87
27.32307720184326,0.53,-0.12,-0.48,0.72
27.332874059677124,0.46,-0.11,-0.22,0.52
27.34302306175232,0.49,-0.01,-0.05,0.49
27.415435075759888,0.72,-0.06,-0.09,0.72
27.41640305519104,0.55,-0.16,-0.29,0.64
27.41699504852295,0.04,-0.23,-0.27,0.35
27.41757607460022,-0.35,-0.26,-0.18,0.47
27.41908025741577,-0.4,-0.19,-0.13,0.46
27.420234203338623,-0.07,-0.09,0.07,0.13
27.420810222625732,0.36,-0.04,0.07,0.36
27.42296314239502,0.72,0.03,-0.06,0.72
27.4329891204834,1.08,0.14,-0.2,1.1
27.442931175231934,1.11,0.04,-0.31,1.15
27.515408039093018,0.74,-0.05,-0.41,0.84
27.516340255737305,0.33,-0.01,-0.41,0.52
27.516900062561035,0.27,-0.09,-0.13,0.31
27.51747703552246,0.29,-0.12,0.06,0.31
27.51897621154785,0.26,-0.03,-0.12,0.28
27.520112991333008,0.2,-0.04,-0.2,0.28
27.52068305015564,-0.07,-0.03,-0.38,0.38
27.522794246673584,-0.45,0.02,-0.69,0.82
27.53307604789734,-0.77,0.05,-0.87,1.16
27.542739152908325,-0.92,0.05,-0.79,1.21
27.615432262420654,-0.84,0.03,-0.66,1.06
27.6160249710083,-0.46,-0.03,-0.43,0.63
27.616968154907227,0.03,0.03,-0.27,0.27
27.617884159088135,0.52,0.16,-0.1,0.55
27.619060039520264,1.04,0.22,0.09,1.06
27.620208263397217,1.45,0.27,0.04,1.47
27.62079095840454,1.65,0.26,0.44,1.72
27.622626066207886,1.57,0.15,0.72,1.73
27.63262104988098,1.38,0.11,0.61,1.51
27.642593145370483,1.15,0.09,0.57,1.28
27.71606707572937,1.13,0.1,0.67,1.31
27.71698522567749,1.34,0.07,0.71,1.51
27.717918157577515,1.6,0.01,0.74,1.76
27.718517065048218,1.86,0.17,0.63,1.97
27.719694137573242,1.99,0.32,0.17,2.02
27.72083616256714,1.61,0.49,-0.01,1.68
27.72141695022583,1.0,0.75,-0.03,1.25
27.72263193130493,0.56,0.9,-0.22,1.08
27.732522010803223,0.24,1.0,-0.35,1.08
27.74248695373535,0.04,0.99,-0.62,1.16
27.81711196899414,0.01,1.64,-2.05,2.62
27.81805109977722,1.51,3.88,-0.78,4.23
27.818639278411865,2.27,3.62,1.1,4.41
27.819226264953613,2.99,3.86,-0.47,4.9
27.82041311264038,3.11,4.31,-0.1,5.31
27.82155418395996,3.31,4.56,0.06,5.63
27.82212805747986,3.93,4.77,-0.26,6.18
27.823310136795044,4.65,5.1,-0.23,6.9
27.83235502243042,4.7,5.17,-0.74,7.02
27.842284202575684,4.69,5.26,-1.61,7.22
27.916994094848633,4.12,4.5,-1.29,6.23
27.917919158935547,2.27,2.39,-1.35,3.56
27.918498992919922,0.94,2.12,-1.59,2.81
27.91907811164856,0.99,2.17,-1.57,2.85
27.92030906677246,1.32,1.03,-1.33,2.13
27.921457052230835,0.75,0.47,-0.16,0.89
27.922048091888428,0.77,0.27,-0.43,0.92
27.92323613166809,3.07,-1.16,-0.39,3.3
27.932147979736328,4.59,-2.4,1.79,5.48
27.942126274108887,4.12,-2.31,1.4,4.92
28.017930030822754,6.0,-1.69,0.43,6.24
28.018749237060547,7.19,-1.34,1.93,7.56
28.019374132156372,7.41,-1.82,2.5,8.02
28.01996612548828,6.47,-2.67,2.37,7.38
28.021148204803467,5.78,-2.83,2.02,6.74
28.022319078445435,5.47,-2.59,1.83,6.32
28.022908210754395,5.07,-2.33,1.71,5.83
28.02411699295044,4.53,-2.13,1.67,5.27
28.03200912475586,3.87,-1.99,1.55,4.61
28.04288411140442,3.04,-1.71,1.39,3.75
28.11706805229187,2.25,-1.29,1.28,2.89
28.117876052856445,1.81,-0.83,1.14,2.29
28.118454933166504,1.31,-0.39,0.81,1.58
28.119056224822998,0.47,0.0,0.32,0.56
28.1202712059021,0.0,0.45,-0.31,0.54
28.12141704559326,0.51,1.03,-1.12,1.6
28.12202501296997,-0.23,2.19,-0.65,2.29
28.123216152191162,-2.15,2.33,-0.15,3.17
28.13173007965088,-2.84,2.15,-0.34,3.57
28.141860961914062,-2.89,2.88,-0.63,4.12
28.217430114746094,-2.46,3.48,-0.85,4.34
28.218229055404663,-2.11,3.48,-0.89,4.16
28.21878409385681,-1.87,3.04,-0.91,3.68
28.21937894821167,-2.12,2.74,-1.21,3.66
28.22057604789734,-2.88,2.17,-1.64,3.96
28.221755027770996,-3.13,1.83,-1.92,4.1
28.222337245941162,-2.62,1.74,-2.02,3.73
28.223526000976562,-2.27,1.85,-2.01,3.55
28.23171305656433,-2.45,1.64,-2.0,3.56
28.241673946380615,-3.02,1.07,-1.83,3.68
28.317371129989624,-3.69,0.45,-1.7,4.08
28.318169116973877,-4.04,-0.35,-1.48,4.31
28.318753242492676,-4.15,-0.95,-1.16,4.41
28.319340229034424,-4.06,-1.26,-1.08,4.38
28.320577144622803,-3.78,-1.55,-1.11,4.23
28.321764945983887,-3.51,-1.56,-1.09,3.99
28.32234001159668,-3.31,-1.19,-1.11,3.68
28.32354211807251,-3.26,-1.07,-1.31,3.67
28.33152413368225,-3.11,-0.94,-1.48,3.57
28.34150505065918,-2.21,2.88,-1.64,3.98
28.41795825958252,-0.58,2.74,-1.55,3.2
28.418589115142822,-2.4,-0.64,-0.34,2.5
28.41917896270752,-3.72,-1.32,-0.41,3.96
28.41978693008423,-2.92,-1.5,-0.96,3.42
28.420989990234375,1.28,-0.37,-0.13,1.33
28.42212724685669,5.1,0.39,2.77,5.81
28.42270803451538,5.17,0.3,3.2,6.08
28.423885107040405,2.03,0.37,0.58,2.14
28.43138027191162,-1.39,0.75,-0.89,1.81
28.441370010375977,-2.66,0.68,-0.42,2.77
28.517275094985962,-2.13,0.93,-0.53,2.38
28.518054008483887,-0.82,1.7,-1.01,2.14
28.518660068511963,-0.41,2.68,-0.74,2.81
28.519253253936768,-1.27,3.88,-0.74,4.14
28.52042293548584,-2.14,2.95,-1.27,3.85
28.521594047546387,-2.2,0.12,-0.9,2.38
28.522176265716553,-2.16,-0.43,0.1,2.2
28.523375988006592,-3.84,-1.44,-1.41,4.33
28.531232118606567,-5.03,-2.43,-3.24,6.45
28.54121494293213,-3.46,-0.34,-2.3,4.16
28.617725133895874,-2.42,-0.08,-0.34,2.44
28.618314266204834,-2.2,-1.05,-0.2,2.44
28.61890697479248,-2.13,-0.71,-0.99,2.45
28.619483947753906,-2.41,0.87,-0.91,2.71
28.620705127716064,-2.08,2.1,-1.64,3.38
28.62180209159851,-1.82,0.9,-1.64,2.6
28.622347116470337,-1.75,-0.21,-0.85,1.95
28.62348508834839,-2.03,-0.79,-0.37,2.2
28.63109302520752,-2.29,-0.62,-0.47,2.41
28.641001224517822,-1.77,-0.32,-0.81,1.97
28.717469215393066,-1.44,-0.08,-0.62,1.56
28.718060970306396,-1.27,0.05,-0.41,1.33
28.71863317489624,-1.27,0.02,-0.21,1.28
28.71917414665222,-1.33,-0.03,0.02,1.33
28.720360279083252,-1.39,-0.19,0.21,1.41
28.721477031707764,-1.39,-0.21,0.31,1.43
28.722036123275757,-1.19,-0.08,0.24,1.21
28.723166942596436,-0.78,-0.15,0.34,0.86
28.73094415664673,-0.57,-0.11,0.39,0.69
28.740981101989746,-0.28,-0.14,0.15,0.34
28.81841015815735,-0.2,-0.24,0.07,0.32
28.819015979766846,-0.32,-0.08,0.0,0.32
28.819586277008057,-0.18,-0.1,-0.34,0.39
28.820181131362915,-0.19,-0.2,-0.21,0.34
28.821386098861694,-0.51,0.0,-0.2,0.54
28.822503089904785,-0.72,0.04,-0.47,0.86
28.8230619430542,-0.72,-0.08,-0.43,0.84
28.82418727874756,-0.71,-0.07,-0.31,0.77
28.83067226409912,-0.63,-0.04,-0.43,0.76
28.840705156326294,-0.67,-0.01,-0.64,0.92
28.850791931152344,-0.69,-0.02,-0.73,1.0
28.917832136154175,-0.57,0.03,-0.53,0.77
28.918419122695923,-0.21,0.0,-0.38,0.43
28.91899609565735,0.12,-0.12,-0.25,0.3
28.920133113861084,0.16,-0.26,-0.29,0.42
28.92128014564514,0.14,-0.19,-0.53,0.58
28.92188310623169,0.17,0.22,-0.54,0.6
28.92302703857422,0.03,0.37,-0.21,0.42
28.930583953857422,0.15,-0.07,0.0,0.16
28.940566062927246,0.11,-0.06,-0.18,0.21
28.950574159622192,-0.01,-0.32,-0.43,0.53
29.01776695251465,-0.04,-0.16,-0.49,0.51
29.018355131149292,-0.03,-0.14,-0.36,0.38
29.018959999084473,0.2,0.07,-0.17,0.27
29.02011513710022,0.45,0.04,-0.24,0.51
29.02126121520996,0.47,-0.07,-0.27,0.54
29.021821975708008,0.47,-0.22,-0.39,0.64
29.02292513847351,0.74,-0.14,-0.42,0.86
29.030373096466064,1.09,-0.02,-0.35,1.14
29.040366172790527,1.16,0.12,-0.12,1.17
29.05038809776306,0.87,0.1,0.11,0.88
29.117483139038086,0.53,-0.19,0.3,0.63
29.118454933166504,-0.06,-0.21,0.14,0.25
29.11905527114868,-0.65,0.09,-0.02,0.65
29.120230197906494,-0.59,-0.02,0.0,0.59
29.121369123458862,-0.11,-0.02,-0.24,0.26
29.12191915512085,0.63,-0.05,-0.4,0.74
29.12308692932129,1.28,0.02,-0.3,1.31
29.130259037017822,1.45,-0.06,-0.16,1.46
29.140318155288696,0.85,-0.06,-0.36,0.92
29.150297164916992,-0.02,-0.17,-0.42,0.45
29.21751594543457,-0.47,-0.04,-0.7,0.84
29.21846103668213,-0.45,0.01,-1.02,1.11
29.21904706954956,-0.29,-0.05,-1.33,1.36
29.22020411491394,-0.04,-0.06,-1.17,1.17
29.221320152282715,0.16,0.0,-0.97,0.98
29.22191619873047,0.29,-0.03,-0.55,0.62
29.223051071166992,0.52,0.06,-0.17,0.55
29.230113983154297,0.65,0.03,0.21,0.68
29.24017095565796,0.3,0.05,0.28,0.41
29.25010919570923,-0.29,0.11,0.19,0.36
29.317748069763184,-0.63,-0.02,0.22,0.66
29.318665981292725,-0.56,-0.01,0.18,0.58
29.319268226623535,-0.33,0.14,0.09,0.36
29.320456981658936,0.1,0.06,0.19,0.22
29.32162308692932,0.63,-0.05,0.23,0.67
29.322209119796753,1.05,-0.02,0.1,1.05
29.323378086090088,1.25,-0.03,0.14,1.25
29.3299400806427,1.13,-0.1,0.22,1.15
29.340059280395508,0.84,-0.1,0.23,0.87
29.349952220916748,0.49,-0.08,0.22,0.54
29.417880058288574,0.31,-0.08,0.27,0.41
29.41877317428589,0.24,-0.09,0.25,0.35
29.419355154037476,0.21,-0.07,0.05,0.22
29.42055106163025,0.17,-0.06,-0.15,0.23
29.421693086624146,0.15,0.0,-0.16,0.21
29.422290086746216,0.17,0.07,-0.16,0.24
29.423418045043945,0.1,0.07,-0.4,0.41
29.429774045944214,-0.09,0.04,-0.6,0.6
29.439794063568115,-0.31,0.06,-0.65,0.72
29.449932098388672,-0.32,0.05,-0.55,0.63
29.517836093902588,-0.33,0.04,-0.45,0.55
29.518782138824463,-0.33,0.03,-0.35,0.48
29.51936626434326,-0.25,-0.01,-0.39,0.46
29.520512104034424,0.0,0.0,-0.48,0.48
29.521644115447998,0.32,0.1,-0.51,0.61
29.522237062454224,0.44,0.16,-0.48,0.67
29.523375988006592,0.58,0.16,-0.42,0.73
29.529540061950684,0.9,0.19,-0.45,1.02
29.539672136306763,1.17,0.22,-0.38,1.24
29.549602031707764,1.43,0.2,-0.18,1.45
29.61798906326294,1.61,0.13,0.01,1.61
29.61892795562744,1.78,0.11,0.1,1.78
29.61951494216919,2.1,0.15,0.22,2.11
29.620716094970703,2.42,0.08,0.39,2.45
29.62188410758972,2.74,0.23,0.76,2.85
29.62246799468994,2.98,0.72,0.57,3.11
29.623647212982178,2.9,1.23,0.13,3.15
29.62950325012207,2.37,1.28,0.24,2.7
29.639541149139404,1.8,1.48,0.18,2.33
29.64945912361145,1.47,1.92,0.2,2.42
29.717900276184082,1.4,2.55,0.26,2.92
29.718497276306152,1.94,3.17,-0.33,3.73
29.71943712234497,2.72,3.55,0.62,4.51
29.72061824798584,2.74,3.49,1.33,4.63
29.721801042556763,2.71,3.49,0.38,4.43
29.722371101379395,2.62,3.86,0.22,4.67
29.72355008125305,3.57,4.59,-0.01,5.81
29.7293381690979,4.74,5.26,-0.13,7.08
29.739373207092285,4.88,5.56,-0.45,7.41
29.749199151992798,4.33,5.69,-1.18,7.24
29.818511962890625,3.55,5.41,-1.63,6.67
29.81955313682556,2.69,4.81,-1.37,5.67
29.82016110420227,1.74,3.5,-1.39,4.14
29.82128620147705,1.02,2.01,-1.45,2.68
29.82237720489502,0.23,1.73,-0.64,1.85
29.82295513153076,-0.41,1.29,0.2,1.36
29.82443904876709,1.6,-0.44,0.1,1.66
29.82927703857422,3.84,-1.68,1.11,4.33
29.83923101425171,3.37,-2.06,2.41,4.62
29.84911608695984,2.52,-2.18,0.96,3.46
29.91854214668274,5.28,-1.74,-0.82,5.61
29.919424057006836,8.13,-0.73,0.7,8.19
29.92002511024475,9.16,-0.89,2.44,9.52
29.921142101287842,8.09,-1.79,3.2,8.88
29.922264099121094,6.78,-2.69,3.08,7.91
29.922842025756836,6.12,-3.04,2.64,7.32
29.92432403564453,5.76,-2.86,2.4,6.86
29.929014205932617,5.43,-2.52,2.2,6.37
29.93903923034668,4.81,-2.35,2.05,5.73
29.94899892807007,3.82,-2.24,1.94,4.83
30.01797604560852,3.01,-1.91,1.66,3.93
30.018609046936035,2.44,-1.17,1.35,3.02
30.01950216293335,2.08,-0.49,1.17,2.43
30.020637035369873,1.62,0.33,0.99,1.92
30.021759033203125,1.21,1.58,0.39,2.02
30.02236008644104,0.4,2.77,-0.72,2.88
30.023536205291748,-0.08,3.78,-1.91,4.23
30.028876066207886,-0.88,4.55,-2.69,5.35
30.038966178894043,-0.64,4.98,-3.54,6.14
30.048879146575928,-1.99,5.44,-3.35,6.69
30.11887812614441,-4.9,4.55,-3.8,7.69
30.1198251247406,-6.19,4.05,-5.04,8.95
30.120432138442993,-6.15,3.72,-4.92,8.71
30.121603965759277,-5.89,3.04,-4.07,7.77
30.122770071029663,-6.57,2.17,-4.27,8.13
30.123361110687256,-7.84,0.33,-5.09,9.35
30.124807119369507,-8.7,-1.38,-5.61,10.44
