time,ax,ay,az,atotal
0.0051670074462890625,0.06,-0.27,-0.33,0.43
0.011764049530029297,-0.03,-0.03,0.44,0.44
0.021786928176879883,-0.31,-0.04,0.78,0.84
0.049285173416137695,-0.23,-0.12,0.33,0.41
0.0511171817779541,0.14,0.01,-0.66,0.67
0.05255007743835449,0.36,0.21,-0.7,0.81
0.06677508354187012,0.18,0.17,-0.21,0.32
0.07123017311096191,-0.03,0.09,-0.09,0.13
0.08423686027526855,-0.1,0.04,0.01,0.1
0.0910789966583252,-0.28,-0.03,0.17,0.32
0.10112690925598145,-0.36,-0.06,0.38,0.52
0.11106300354003906,-0.33,-0.13,0.66,0.74
0.12149906158447266,-0.22,-0.17,0.73,0.78
0.15634608268737793,-0.03,-0.14,0.48,0.5
0.15823912620544434,0.18,-0.12,0.18,0.28
0.15974116325378418,0.28,0.01,-0.02,0.28
0.16380000114440918,0.26,0.05,-0.02,0.26
0.1708080768585205,0.2,0.0,0.05,0.2
0.18448090553283691,0.11,-0.02,0.03,0.11
0.19033098220825195,0.0,-0.08,0.0,0.08
0.20049405097961426,-0.04,-0.1,0.1,0.14
0.21054601669311523,0.01,-0.06,0.12,0.13
0.220811128616333,0.06,-0.08,0.08,0.12
0.23257994651794434,0.09,-0.1,0.17,0.21
0.25737905502319336,0.12,-0.1,0.3,0.33
0.2589759826660156,0.18,-0.05,0.31,0.36
0.2608048915863037,0.24,0.01,0.22,0.32
0.2698500156402588,0.19,-0.03,0.13,0.23
0.28002500534057617,0.02,-0.12,0.03,0.12
0.28966689109802246,-0.12,-0.14,0.0,0.18
0.2999889850616455,0.12,-0.09,0.1,0.18
0.3097720146179199,0.52,-0.12,0.15,0.55
0.3196220397949219,0.72,-0.25,0.3,0.81
0.33258509635925293,0.44,-0.34,0.53,0.76
0.3563060760498047,0.28,-0.16,0.63,0.7
0.3579518795013428,0.42,0.06,0.68,0.8
0.35950708389282227,0.51,-0.01,0.62,0.8
0.36908888816833496,0.42,-0.13,0.72,0.84
0.37926316261291504,0.32,-0.08,0.43,0.54
0.3889591693878174,0.21,-0.17,-0.04,0.27
0.39913201332092285,0.29,-0.08,-0.37,0.47
0.409045934677124,0.56,-0.02,-0.48,0.73
0.4194459915161133,0.65,0.0,-0.12,0.66
0.43138599395751953,0.43,-0.04,0.33,0.54
0.4524838924407959,0.08,-0.11,0.68,0.69
0.4541041851043701,-0.18,-0.17,0.78,0.81
0.45830512046813965,-0.27,-0.13,0.71,0.77
0.4683239459991455,-0.25,-0.06,0.6,0.65
0.4783151149749756,-0.16,-0.11,0.51,0.54
0.4881479740142822,-0.01,-0.2,0.31,0.36
0.498337984085083,0.14,-0.2,0.2,0.31
0.5081799030303955,0.24,-0.09,0.29,0.38
0.5188119411468506,0.21,-0.09,0.51,0.55
0.530738115310669,-0.03,-0.2,0.67,0.69
0.5534219741821289,-0.31,-0.25,0.75,0.84
0.5550119876861572,-0.52,-0.27,0.8,0.99
0.5576670169830322,-0.6,-0.22,0.74,0.97
0.5678961277008057,-0.6,-0.14,0.63,0.88
0.5776519775390625,-0.6,-0.15,0.53,0.81
0.5875871181488037,-0.53,-0.2,0.41,0.69
0.5976700782775879,-0.36,-0.18,0.41,0.57
0.6072990894317627,-0.25,-0.11,0.61,0.66
0.6178538799285889,-0.36,-0.11,0.72,0.81
0.6308438777923584,-0.65,-0.16,0.68,0.95
0.6619021892547607,-0.91,-0.17,0.51,1.05
0.6637799739837646,-0.86,-0.03,0.36,0.93
0.6652460098266602,-0.74,-0.07,0.26,0.78
0.6853611469268799,-0.67,-0.08,0.3,0.73
0.6868810653686523,-0.62,-0.1,0.45,0.77
0.7012121677398682,-0.69,-0.17,0.42,0.82
0.7027008533477783,-0.95,-0.2,0.24,1.0
0.7186629772186279,-1.1,-0.05,0.19,1.11
0.720952033996582,-1.2,-0.14,0.26,1.23
0.7352721691131592,-1.15,-0.18,0.44,1.24
0.7586791515350342,-1.06,-0.13,0.53,1.19
0.7604320049285889,-1.02,-0.07,0.46,1.12
0.7614200115203857,-1.07,-0.07,0.35,1.12
0.7661879062652588,-1.1,-0.1,0.27,1.13
0.7848100662231445,-1.04,-0.13,0.16,1.06
0.7862920761108398,-0.97,-0.21,0.03,0.99
0.8012831211090088,-0.89,-0.23,-0.02,0.91
0.8058979511260986,-0.7,-0.2,0.08,0.73
0.8157470226287842,-0.53,-0.19,0.19,0.59
0.8257291316986084,-0.48,-0.08,0.29,0.56
0.8624670505523682,-0.35,0.15,0.4,0.55
0.8640260696411133,-0.3,0.27,0.4,0.56
0.8654129505157471,-0.41,0.11,0.35,0.55
0.8855640888214111,-0.57,-0.11,0.24,0.62
0.8870069980621338,-0.68,-0.23,0.11,0.72
0.9013869762420654,-0.83,-0.25,-0.07,0.86
0.9028499126434326,-0.92,-0.11,-0.48,1.04
0.9188768863677979,-0.62,0.05,-0.74,0.96
0.9211781024932861,-0.15,0.12,-0.67,0.69
0.9374330043792725,-0.02,0.09,-0.55,0.55
0.9591639041900635,-0.28,0.07,-0.7,0.75
0.961047887802124,-0.72,0.09,-1.33,1.51
0.9625399112701416,-0.87,0.17,-1.82,2.02
0.9646399021148682,-0.23,-0.42,-1.75,1.81
0.9848999977111816,0.48,-0.35,-1.17,1.31
0.9863770008087158,0.89,-0.11,-0.58,1.06
1.0014410018920898,0.87,-0.14,-0.13,0.89
1.0043761730194092,0.77,0.06,0.57,0.95
1.0146758556365967,0.53,0.29,0.93,1.1
1.0248658657073975,-0.03,0.21,0.52,0.56
1.0366151332855225,-0.47,-0.09,-0.13,0.49
1.0605440139770508,-0.51,-0.3,-0.58,0.82
1.0622739791870117,-0.24,-0.3,-0.89,0.96
1.063904047012329,0.18,-0.18,-1.1,1.12
1.0740010738372803,0.71,-0.18,-1.31,1.5
1.0840120315551758,1.14,-0.35,-1.24,1.72
1.093926191329956,1.35,-0.16,-0.76,1.55
1.103909969329834,0.99,0.48,-0.36,1.15
1.1139938831329346,0.02,0.62,-0.66,0.9
1.1237108707427979,-0.77,0.34,-0.98,1.29
1.1334750652313232,-1.0,0.02,-0.91,1.35
1.1595509052276611,-0.84,-0.19,-0.89,1.23
1.1611368656158447,-0.33,-0.29,-0.85,0.95
1.1632001399993896,0.17,-0.37,-0.71,0.81
1.173577070236206,0.38,-0.27,-0.55,0.72
1.1846601963043213,0.45,-0.17,-0.07,0.48
1.1931099891662598,0.52,-0.02,0.46,0.69
1.2026731967926025,0.42,0.12,0.58,0.72
1.21309494972229,0.27,0.09,0.36,0.45
1.2227189540863037,0.13,-0.29,-0.1,0.33
1.2356388568878174,0.36,-0.63,-0.5,0.88
1.260951042175293,0.9,-0.56,-0.59,1.21
1.2622559070587158,1.36,-0.46,-0.3,1.46
1.2632510662078857,1.49,-0.3,0.0,1.51
1.2727601528167725,1.08,-0.02,0.36,1.13
1.282569169998169,0.43,0.0,0.75,0.86
1.2924699783325195,-0.06,-0.08,1.08,1.08
1.302412986755371,-0.22,0.03,1.14,1.16
1.3122270107269287,-0.23,0.05,0.8,0.83
1.3221020698547363,-0.21,-0.08,0.08,0.23
1.3349390029907227,-0.09,-0.11,-0.76,0.77
1.3596689701080322,0.27,-0.06,-1.09,1.12
1.3608829975128174,0.91,-0.02,-1.0,1.35
1.3621480464935303,1.25,0.19,-0.79,1.49
1.3720080852508545,1.07,0.04,-0.56,1.2
1.385256052017212,0.82,-0.19,-0.12,0.85
1.3918259143829346,0.76,-0.12,0.36,0.84
1.4016048908233643,0.51,-0.18,0.56,0.77
1.4115879535675049,0.22,-0.35,0.72,0.83
1.4214119911193848,0.3,-0.15,0.69,0.76
1.4344229698181152,0.34,0.15,0.54,0.65
1.4660670757293701,0.32,0.17,0.44,0.56
1.4675891399383545,0.32,0.01,0.31,0.44
1.468926191329956,0.34,-0.12,0.2,0.41
1.4854929447174072,0.36,-0.09,0.15,0.4
1.486954927444458,0.32,0.0,0.05,0.32
1.5021250247955322,0.17,0.07,-0.07,0.19
1.5035431385040283,0.07,0.07,-0.11,0.14
1.5182230472564697,0.08,-0.04,-0.08,0.12
1.5205118656158447,0.2,-0.03,0.01,0.2
1.5341460704803467,0.27,-0.02,0.02,0.27
1.5667650699615479,0.23,-0.1,0.01,0.25
1.5686039924621582,0.16,-0.11,0.05,0.2
1.570085048675537,0.13,-0.05,0.07,0.15
1.5857031345367432,0.14,-0.07,0.14,0.21
1.587066888809204,0.22,-0.07,0.23,0.32
1.6012089252471924,0.23,-0.09,0.23,0.33
1.602597951889038,0.28,-0.07,0.25,0.38
1.618321180343628,0.32,-0.01,0.25,0.4
1.6196858882904053,0.26,-0.01,0.17,0.31
1.6359820365905762,0.11,-0.1,0.1,0.17
1.6604039669036865,0.12,-0.11,0.13,0.2
1.6621711254119873,0.22,-0.09,0.14,0.27
1.6636149883270264,0.15,-0.04,0.09,0.17
1.6692240238189697,-0.01,0.01,0.05,0.05
1.679521083831787,-0.12,0.03,0.06,0.13
1.6898109912872314,-0.08,0.04,0.11,0.14
1.6994578838348389,0.02,-0.02,0.14,0.14
1.7100541591644287,0.1,-0.04,0.15,0.18
1.7192142009735107,0.18,-0.01,0.22,0.28
1.7290940284729004,0.18,0.01,0.3,0.35
1.7631800174713135,0.1,0.02,0.32,0.33
1.7648751735687256,-0.01,0.02,0.28,0.28
1.766197919845581,-0.19,-0.02,0.16,0.24
1.7856619358062744,-0.17,-0.01,0.1,0.19
1.7871429920196533,0.01,-0.03,0.16,0.16
1.8015401363372803,0.13,0.04,0.03,0.13
1.8029789924621582,0.24,0.11,0.02,0.26
1.8191189765930176,0.2,0.02,0.09,0.22
1.8213989734649658,0.1,-0.01,0.05,0.11
1.8359959125518799,0.01,-0.01,0.04,0.04
1.8392589092254639,0.01,-0.07,0.06,0.09
1.874601125717163,0.15,-0.04,0.17,0.23
1.8762049674987793,0.2,0.03,0.2,0.28
1.877816915512085,0.08,0.04,0.16,0.18
1.8828651905059814,-0.05,0.03,0.13,0.14
1.8878271579742432,-0.17,0.03,0.05,0.17
1.9013268947601318,-0.06,0.08,0.01,0.1
1.907776117324829,0.14,0.01,0.06,0.15
1.9182310104370117,0.22,-0.05,-0.03,0.22
1.9278481006622314,0.23,-0.02,-0.05,0.23
1.937892198562622,0.13,0.01,0.07,0.14
1.9656879901885986,-0.04,0.05,0.13,0.14
1.9673821926116943,-0.15,0.04,0.14,0.2
1.9688031673431396,-0.16,0.0,0.15,0.21
1.9860310554504395,-0.13,-0.08,0.12,0.19
1.987537145614624,-0.03,-0.05,0.08,0.09
2.00187611579895,0.11,0.03,0.12,0.16
2.0072829723358154,0.26,0.01,0.08,0.27
2.018341064453125,0.32,0.01,0.05,0.32
2.0271708965301514,0.28,-0.04,0.05,0.28
2.0392990112304688,0.2,-0.09,0.01,0.21
2.0628678798675537,0.1,-0.03,0.04,0.11
2.0642330646514893,-0.05,-0.02,0.23,0.23
2.0662829875946045,-0.07,0.05,0.31,0.32
2.085754156112671,0.12,0.19,0.36,0.42
2.0872230529785156,0.25,0.1,0.3,0.4
2.1019299030303955,0.28,-0.02,0.17,0.32
2.1063930988311768,0.26,-0.08,0.09,0.28
2.1183440685272217,0.2,-0.11,0.0,0.22
2.1262800693511963,0.24,-0.06,-0.05,0.25
2.13870906829834,0.26,0.03,-0.1,0.28
2.1671230792999268,0.21,0.0,-0.09,0.22
2.1689260005950928,0.03,-0.08,-0.05,0.09
2.1700639724731445,-0.13,-0.14,-0.03,0.19
2.186145067214966,-0.14,-0.02,0.09,0.16
2.1875269412994385,-0.24,0.15,0.09,0.29
2.2020230293273926,-0.16,0.22,0.12,0.29
2.205579996109009,0.16,0.01,0.26,0.3
2.2182929515838623,0.43,-0.16,0.43,0.62
2.225473165512085,0.44,-0.2,0.47,0.67
2.2352421283721924,0.07,-0.17,0.43,0.46
2.272228956222534,-0.41,-0.1,0.18,0.45
2.2740590572357178,-0.51,0.0,0.06,0.51
2.27551007270813,-0.32,-0.12,-0.1,0.35
2.2859880924224854,0.08,-0.1,-0.15,0.19
2.2874670028686523,0.33,0.11,-0.02,0.34
2.3019180297851562,0.4,0.13,0.04,0.42
2.3048059940338135,0.33,0.08,0.07,0.34
2.318411111831665,0.3,0.07,-0.03,0.3
2.325087070465088,0.29,0.12,-0.17,0.35
2.3344619274139404,0.26,0.04,-0.3,0.39
2.3718059062957764,0.38,-0.16,-0.25,0.48
2.373718023300171,0.51,-0.19,-0.11,0.55
2.3751399517059326,0.39,-0.08,-0.09,0.4
2.386017084121704,0.33,-0.02,0.0,0.33
2.3875200748443604,0.19,0.0,0.12,0.22
2.4021620750427246,0.03,0.07,0.03,0.08
2.4041149616241455,0.32,0.02,0.0,0.32
2.4186079502105713,0.59,0.03,-0.04,0.59
2.4241340160369873,0.32,0.19,-0.39,0.53
2.4343931674957275,0.13,0.2,-0.51,0.56
2.469956159591675,0.12,0.02,-0.44,0.45
2.4717490673065186,0.12,-0.18,-0.38,0.43
2.473043203353882,-0.01,-0.29,-0.34,0.44
2.487946033477783,-0.14,-0.28,-0.11,0.33
2.489434003829956,-0.05,-0.01,0.02,0.05
2.5015809535980225,-0.02,0.35,-0.32,0.47
2.5032708644866943,-0.14,0.41,-0.68,0.8
2.5188040733337402,-0.57,0.48,-1.12,1.34
2.5232670307159424,-1.36,0.74,-1.5,2.15
2.5340049266815186,-2.11,1.14,-1.36,2.75
2.5707080364227295,-3.16,1.88,-1.54,3.98
2.5725271701812744,-3.82,2.71,-1.72,4.98
2.573629140853882,-3.94,3.27,-1.59,5.36
2.586364984512329,-4.37,3.61,-1.14,5.78
2.587855100631714,-5.27,4.3,-0.75,6.84
2.60201096534729,-6.14,5.14,-1.52,8.15
2.6034839153289795,-6.63,5.32,-3.26,9.1
2.6189658641815186,-6.09,4.99,-2.99,8.42
2.6224749088287354,-4.83,4.76,-0.98,6.85
2.6324779987335205,-4.16,4.44,0.12,6.08
2.6424200534820557,-4.17,4.14,-0.14,5.87
2.6727540493011475,-4.11,3.68,-0.29,5.52
2.6739261150360107,-3.54,2.99,-0.04,4.63
2.6751320362091064,-2.73,2.06,0.12,3.42
2.6870970726013184,-2.2,0.8,0.18,2.34
2.691981077194214,-1.92,-0.61,0.09,2.01
2.7019760608673096,-1.5,-2.08,-0.17,2.57
2.711907148361206,-0.55,-3.71,-0.51,3.78
2.7217459678649902,0.89,-4.3,-0.93,4.48
2.731896162033081,1.56,-3.96,-0.79,4.32
2.7421810626983643,0.22,-4.48,-0.07,4.48
2.775052070617676,-1.52,-5.14,0.25,5.36
2.7765140533447266,-2.69,-5.77,-0.01,6.36
2.7776291370391846,-3.41,-6.17,-0.41,7.06
2.784148931503296,-3.92,-6.12,-0.3,7.27
2.7912189960479736,-4.11,-5.7,0.39,7.03
2.802273988723755,-3.9,-5.21,0.86,6.56
2.8111531734466553,-3.22,-4.71,0.75,5.75
2.8210389614105225,-2.37,-4.1,0.46,4.75
2.8310840129852295,-1.68,-3.53,0.25,3.91
2.841259002685547,-1.21,-3.16,0.06,3.38
2.870316982269287,-0.98,-2.92,-0.12,3.08
2.871701955795288,-0.83,-2.66,-0.32,2.8
2.8727200031280518,-0.73,-2.3,-0.52,2.46
2.886528968811035,-0.57,-1.85,-0.68,2.05
2.890451192855835,-0.4,-1.49,-0.79,1.73
2.902196168899536,-0.26,-1.2,-0.85,1.49
2.9104931354522705,-0.07,-0.94,-0.79,1.22
2.9203360080718994,0.14,-0.61,-0.55,0.83
2.93023419380188,0.25,-0.22,-0.27,0.42
2.940196990966797,0.25,0.06,-0.06,0.26
2.970182180404663,0.12,0.18,-0.04,0.21
2.971560001373291,-0.07,0.28,-0.1,0.3
2.9725840091705322,-0.08,0.43,-0.11,0.45
2.9863929748535156,-0.07,0.66,-0.03,0.66
2.9898788928985596,-0.09,0.96,0.16,0.97
3.0000150203704834,-0.06,1.16,0.4,1.22
3.009650945663452,-0.09,1.29,0.62,1.43
3.0195391178131104,-0.1,1.3,0.81,1.53
3.0293571949005127,-0.06,1.23,1.08,1.63
3.0401370525360107,0.08,1.16,1.38,1.8
3.077315092086792,0.22,1.05,1.65,1.96
3.0787899494171143,0.39,0.94,1.89,2.14
3.0797359943389893,0.71,0.84,2.14,2.4
3.0819919109344482,1.13,0.74,2.21,2.59
3.0886759757995605,1.56,0.69,2.18,2.76
3.0993058681488037,1.92,0.66,2.11,2.92
3.10900616645813,1.99,0.96,1.97,2.96
3.119127035140991,1.17,2.67,1.62,3.33
3.1287410259246826,2.08,3.56,1.54,4.4
3.1387670040130615,3.7,4.51,2.18,6.22
3.1732099056243896,4.91,5.75,2.65,8.01
3.1748080253601074,3.67,4.0,1.19,5.55
3.1758201122283936,-2.17,2.39,-1.62,3.61
3.185922861099243,-6.48,5.28,-1.86,8.56
3.18815016746521,-4.52,6.78,2.45,8.5
3.201357126235962,0.1,0.64,4.24,4.28
3.2081220149993896,2.44,-4.08,2.54,5.38
3.219326972961426,4.39,-1.17,1.72,4.85
3.228098154067993,5.99,3.56,1.31,7.09
3.237868070602417,4.93,3.02,-1.21,5.9
3.2731080055236816,3.23,1.27,-1.28,3.69
3.274501085281372,2.77,-1.26,0.34,3.06
3.2755229473114014,3.31,-2.56,-0.2,4.18
3.285918951034546,3.29,-1.18,-1.09,3.66
3.287576913833618,2.39,0.45,-1.02,2.63
3.3023669719696045,1.07,0.9,0.16,1.4
3.3074119091033936,0.06,0.39,1.38,1.43
3.318969964981079,-0.41,-0.18,1.91,1.96
3.3274319171905518,-0.42,-0.38,1.6,1.69
3.3371970653533936,0.26,-0.5,0.99,1.13
3.3756191730499268,1.46,-0.38,0.45,1.57
3.3769071102142334,1.97,-0.15,-0.17,1.98
3.3779399394989014,1.8,-0.02,-0.72,1.93
3.3817050457000732,1.49,0.02,-0.88,1.73
3.4025189876556396,1.27,-0.02,-0.68,1.44
3.4040720462799072,1.0,-0.13,-0.27,1.04
3.419153928756714,0.71,-0.18,0.15,0.74
3.421006917953491,0.5,-0.1,0.38,0.63
3.426403045654297,0.43,-0.01,0.31,0.53
3.4366090297698975,0.49,-0.02,0.12,0.5
3.446777105331421,0.65,-0.08,0.13,0.66
3.4785940647125244,0.55,-0.09,-0.14,0.57
3.479719877243042,0.4,-0.05,-0.25,0.47
3.4806711673736572,0.32,0.06,-0.15,0.35
3.4855730533599854,0.06,0.08,0.06,0.11
3.4960381984710693,-0.11,0.0,0.17,0.2
3.506110906600952,-0.23,0.03,0.31,0.38
3.5161421298980713,-0.52,0.09,0.41,0.66
3.5259640216827393,-0.75,0.22,0.17,0.79
3.5357749462127686,-0.74,0.33,-0.17,0.82
3.5461909770965576,-0.8,0.26,0.1,0.84
3.576422929763794,-0.83,0.15,0.24,0.87
3.577951192855835,-0.76,0.17,0.05,0.78
3.5791728496551514,-0.81,0.22,-0.1,0.84
3.585049867630005,-0.7,0.15,-0.4,0.82
3.6027090549468994,-0.45,0.15,-0.59,0.75
3.6052091121673584,-0.28,0.32,-0.39,0.57
3.619194984436035,-0.32,0.41,-0.34,0.62
3.6251370906829834,-0.48,0.58,-0.47,0.88
3.6350271701812744,-0.59,0.73,-0.6,1.11
3.6449801921844482,-0.83,0.86,-0.72,1.39
3.674330949783325,-1.24,1.01,-0.85,1.81
3.675507068634033,-1.63,1.07,-0.98,2.18
3.6766579151153564,-2.0,1.15,-1.09,2.55
3.687105894088745,-2.41,1.15,-1.09,2.88
3.6948540210723877,-2.85,1.22,-1.2,3.32
3.704490900039673,-3.19,1.43,-1.31,3.73
3.7147161960601807,-3.45,1.82,-1.32,4.11
3.7244770526885986,-3.6,2.32,-1.25,4.46
3.734466075897217,-3.66,2.53,-1.11,4.58
3.7476699352264404,-3.7,2.79,-1.36,4.82
3.771660089492798,-3.84,3.16,-1.43,5.17
3.7728679180145264,-4.1,3.28,-1.33,5.41
3.7741591930389404,-4.56,3.36,-1.44,5.84
3.7878429889678955,-4.82,3.44,-1.43,6.09
3.794236898422241,-4.59,3.69,-1.6,6.1
3.8037331104278564,-4.61,4.3,-2.04,6.62
3.813791036605835,-4.74,4.59,-2.35,7.0
3.8235371112823486,-4.88,4.54,-2.58,7.14
3.8338301181793213,-5.32,4.91,-2.78,7.75
3.8435230255126953,-5.92,5.94,-2.95,8.89
3.88395094871521,-6.88,7.11,-4.04,10.68
3.8855011463165283,-8.11,7.36,-5.2,12.12
3.8865139484405518,-8.1,6.9,-4.45,11.53
3.9032509326934814,-7.52,6.79,-4.03,10.9
3.9047629833221436,-6.96,7.23,-3.71,10.69
3.9192490577697754,-5.74,7.82,-3.14,10.19
3.920715093612671,-4.1,7.74,-3.32,9.36
3.936116933822632,-3.29,6.93,-3.81,8.56
3.9375720024108887,-3.24,5.39,-3.41,7.15
3.9522039890289307,-3.32,2.33,-2.44,4.73
3.978931188583374,-3.6,-2.19,-1.32,4.41
3.980419874191284,-2.05,-4.58,1.12,5.14
3.9814770221710205,1.42,-2.91,3.64,4.87
3.983574151992798,0.82,-2.87,1.72,3.44
3.9922778606414795,-3.1,-2.32,-0.07,3.87
4.002407073974609,-7.18,-2.68,-0.23,7.66
4.012243986129761,-9.63,-4.08,0.79,10.48
4.022400140762329,-9.91,-5.27,1.92,11.38
4.032701015472412,-8.29,-5.68,2.65,10.39
4.042029142379761,-6.16,-5.78,2.73,8.87
4.07775092124939,-4.49,-5.68,2.55,7.67
4.079184055328369,-3.53,-5.53,2.07,6.87
4.080169916152954,-3.4,-5.65,1.43,6.74
4.082467079162598,-3.78,-5.97,0.92,7.12
4.091570138931274,-4.17,-6.28,0.68,7.56
4.101654052734375,-4.29,-6.42,0.61,7.74
4.111482858657837,-3.97,-6.28,0.57,7.45
4.121523141860962,-3.32,-5.9,0.38,6.78
4.13152003288269,-2.83,-5.55,0.05,6.23
4.141270875930786,-2.47,-5.11,0.05,5.67
4.1806230545043945,-1.97,-4.38,-0.29,4.81
4.18198299407959,-1.61,-3.39,0.22,3.75
4.182981014251709,-1.76,-2.09,0.83,2.85
4.203289985656738,-1.72,-0.45,0.9,1.99
4.204767942428589,-0.55,1.56,0.43,1.7
4.219503164291382,1.14,3.85,0.06,4.01
4.220967054367065,1.92,6.02,0.35,6.32
4.236188173294067,1.69,7.78,0.11,7.96
4.2376580238342285,1.78,8.79,0.55,8.98
4.255234003067017,2.81,8.51,1.29,9.05
4.257878065109253,4.54,8.37,1.71,9.67
4.291136026382446,6.29,8.52,2.4,10.85
4.292301893234253,7.46,8.19,2.64,11.38
4.29351806640625,7.92,7.39,1.8,10.98
4.300824880599976,7.73,6.49,0.63,10.11
4.302350044250488,7.77,5.48,-0.08,9.5
4.319470167160034,8.48,4.76,-0.52,9.73
4.320964097976685,9.3,5.08,-1.06,10.64
4.336035966873169,9.6,5.63,-1.02,11.17
4.339781999588013,9.82,4.57,-0.61,10.84
4.351551055908203,10.08,4.43,0.05,11.01
4.37972617149353,10.5,4.92,0.45,11.6
4.381388902664185,9.39,2.41,-0.92,9.73
4.382396936416626,1.53,-2.17,-4.6,5.31
4.389299154281616,-8.44,-0.56,-5.42,10.04
4.399538040161133,-10.78,4.98,0.88,11.9
4.409427881240845,-4.89,8.37,6.21,11.51
4.419372081756592,-0.18,7.51,3.74,8.39
4.429081201553345,2.99,5.73,2.33,6.87
4.439157009124756,5.49,2.27,2.84,6.58
4.449311971664429,6.03,-1.01,3.11,6.85
4.477933168411255,5.98,-0.45,2.41,6.46
4.479101896286011,5.34,1.63,0.66,5.62
4.480409860610962,4.1,1.05,-2.66,4.99
4.488754034042358,4.35,0.13,-3.98,5.89
4.498768091201782,5.13,-0.71,-2.78,5.87
4.508671045303345,5.72,-1.03,-1.69,6.05
4.518498182296753,5.01,-0.71,-0.87,5.13
4.528470039367676,3.27,0.05,-0.19,3.27
4.538370847702026,1.45,0.59,0.71,1.71
4.548487901687622,0.13,0.54,1.72,1.8
4.577941179275513,-0.72,0.09,2.33,2.44
4.579164028167725,-0.91,-0.23,2.37,2.54
4.581111192703247,-0.64,-0.25,1.94,2.05
4.587692975997925,-0.44,-0.14,1.21,1.29
4.598011016845703,-0.4,-0.1,0.27,0.49
4.60815691947937,-0.26,-0.11,-0.64,0.69
4.617940187454224,0.12,-0.13,-1.24,1.25
4.627762079238892,0.57,-0.2,-1.46,1.58
4.6377739906311035,0.87,-0.22,-1.34,1.61
4.647723913192749,0.85,-0.21,-0.94,1.28
4.685037851333618,0.65,-0.19,-0.4,0.78
4.686717987060547,0.31,-0.13,0.07,0.34
4.68769097328186,-0.12,-0.05,0.3,0.32
4.7040979862213135,-0.4,0.13,0.43,0.6
4.705528020858765,-0.62,0.26,0.35,0.75
4.717501878738403,-0.64,0.27,0.29,0.75
4.718804121017456,-0.42,0.31,0.27,0.58
4.732980966567993,-0.24,0.34,0.3,0.51
4.736760854721069,-0.44,0.37,0.16,0.59
4.749505043029785,-1.04,0.27,-0.36,1.13
4.784613847732544,-1.51,0.07,-0.83,1.72
4.786010026931763,-1.88,-0.09,-0.84,2.06
4.78698205947876,-2.19,-0.1,-0.52,2.25
4.801385164260864,-2.09,0.02,-0.52,2.15
4.802715063095093,-1.94,0.21,-0.63,2.05
4.817625045776367,-1.92,0.4,-1.01,2.2
4.819029092788696,-1.68,0.43,-1.16,2.08
4.834617853164673,-1.26,0.3,-1.32,1.84
4.836065053939819,-0.91,0.29,-1.37,1.67
4.850986003875732,-0.97,0.34,-1.1,1.5
4.883111000061035,-1.44,0.38,-0.91,1.74
4.884434938430786,-1.87,0.45,-0.89,2.11
4.88549017906189,-2.35,0.46,-0.77,2.51
4.901709079742432,-2.83,0.63,-1.07,3.09
4.903166055679321,-2.98,1.06,-1.37,3.44
4.917882204055786,-2.81,1.53,-1.52,3.54
4.919419050216675,-2.59,2.11,-1.73,3.76
4.934180974960327,-2.66,2.75,-1.69,4.18
4.935626029968262,-3.1,3.45,-1.31,4.81
4.951370000839233,-3.89,4.09,-0.81,5.7
4.982676029205322,-4.68,4.38,-1.06,6.49
4.983991861343384,-5.55,4.71,-1.51,7.43
4.984967947006226,-5.98,5.14,-1.69,8.06
5.001190900802612,-6.42,6.01,-2.3,9.08
5.0025999546051025,-6.98,6.72,-2.53,10.01
5.017298936843872,-7.23,7.05,-2.54,10.41
5.018724203109741,-7.6,8.05,-2.76,11.4
5.034741163253784,-8.88,9.57,-4.33,13.75
5.036229848861694,-9.99,10.25,-5.8,15.44
5.050752878189087,-9.08,9.35,-5.92,14.31
5.054322957992554,-7.98,7.97,-6.23,12.88
5.09689998626709,-7.31,8.07,-5.85,12.36
5.098083019256592,-5.46,9.63,-4.06,11.79
5.099039077758789,-2.69,9.88,-2.7,10.58
5.101325988769531,-2.23,7.86,-3.31,8.81
5.104068040847778,-4.03,5.29,-3.8,7.65
5.113739967346191,-4.3,1.85,-2.35,5.23
5.124140024185181,-2.75,-2.75,-1.41,4.13
5.133958101272583,0.3,-3.96,-0.35,3.98
5.1439878940582275,3.56,-3.18,1.16,4.91
5.15362811088562,2.63,-3.81,-0.09,4.63
5.182569980621338,-1.28,-4.22,-1.68,4.71
5.183700084686279,-5.74,-4.71,-2.07,7.7
5.184656858444214,-9.34,-5.86,-1.25,11.09
5.201183080673218,-10.62,-7.09,-0.1,12.76
5.203480005264282,-9.28,-7.95,0.71,12.24
5.217939138412476,-7.05,-8.09,1.25,10.8
5.2231481075286865,-5.61,-7.42,1.36,9.4
5.234883069992065,-4.69,-6.6,0.9,8.14
5.24320912361145,-4.17,-6.14,0.29,7.42
5.253028154373169,-3.97,-5.97,0.03,7.16
5.285236120223999,-3.97,-5.96,-0.03,7.16
5.286373853683472,-3.97,-5.93,-0.24,7.14
5.287276029586792,-3.99,-5.74,-0.8,7.03
5.301935911178589,-3.85,-5.44,-1.31,6.79
5.303373098373413,-3.25,-5.1,-1.59,6.25
5.317936182022095,-2.36,-4.83,-1.8,5.66
5.322576999664307,-1.45,-4.53,-1.74,5.06
5.334729909896851,-0.75,-4.06,-2.0,4.58
5.342640161514282,-0.11,-3.49,-2.52,4.3
5.356008052825928,0.38,-3.02,-1.45,3.37
5.385246992111206,0.49,-2.07,-0.68,2.23
5.386468172073364,0.65,-0.64,-0.92,1.29
5.387448072433472,1.78,1.0,-1.14,2.33
5.400451898574829,3.13,3.33,-0.68,4.62
5.401417970657349,3.3,5.9,0.29,6.76
5.41736102104187,2.65,8.66,0.18,9.05
5.421918153762817,2.78,11.75,-0.54,12.08
5.440258979797363,4.6,13.04,-0.68,13.84
5.441932916641235,7.34,12.05,-1.52,14.19
5.451618909835815,9.09,11.14,-2.74,14.63
5.487942934036255,9.31,10.31,-2.5,14.11
5.489224195480347,8.61,8.45,-0.72,12.08
5.490308046340942,8.01,6.6,2.25,10.61
5.506871938705444,7.92,5.8,5.21,11.11
5.508358001708984,8.41,5.73,6.31,11.97
5.51960301399231,8.09,5.86,5.25,11.28
5.521363019943237,7.35,5.66,4.27,10.21
5.539792060852051,7.01,5.22,3.87,9.55
5.54137396812439,5.59,4.48,3.15,7.82
5.554762125015259,1.4,1.14,0.65,1.91
5.588127851486206,-5.47,-5.67,-3.69,8.69
5.589462995529175,-11.99,-7.48,-6.05,15.37
5.5904810428619385,-10.21,1.93,0.08,10.39
5.607120990753174,-1.21,9.29,5.18,10.7
5.6086061000823975,2.92,11.19,3.57,12.1
5.620913028717041,4.16,12.59,4.95,14.15
5.622551202774048,4.57,7.58,3.95,9.69
5.637646913528442,3.77,0.6,1.45,4.08
5.6402199268341064,3.02,-1.0,0.96,3.32
5.654917001724243,4.26,1.21,1.06,4.55
5.687313079833984,5.6,2.21,-2.61,6.56
5.688611030578613,7.77,0.6,-5.52,9.55
5.689576864242554,9.22,-1.19,-4.73,10.43
5.706753969192505,9.95,-1.57,-3.07,10.53
5.707826852798462,8.74,-1.29,-1.99,9.05
5.72258996963501,5.37,-0.45,-0.62,5.42
5.72428297996521,1.79,0.4,0.95,2.06
5.736649990081787,-0.86,0.75,2.77,2.99
5.739415884017944,-2.11,0.42,4.5,4.98
5.754893064498901,-1.79,-0.13,4.77,5.09
5.785788059234619,-0.82,-0.34,3.37,3.48
5.787154912948608,-0.6,-0.05,1.69,1.79
5.788151979446411,-0.45,0.45,-0.1,0.64
5.806756973266602,-0.52,0.3,-1.31,1.44
5.808227062225342,-0.8,-0.92,-1.68,2.07
5.819156885147095,-0.05,-1.54,-1.92,2.46
5.8207361698150635,1.65,-1.02,-1.97,2.76
5.8397910594940186,2.47,-0.17,-1.21,2.75
5.841336965560913,1.49,0.49,0.08,1.57
5.854900121688843,0.24,0.52,0.91,1.07
5.858619928359985,-0.66,0.57,1.67,1.88
5.90608811378479,-1.25,0.49,0.38,1.39
5.907166004180908,-1.62,0.23,-0.73,1.79
5.908157110214233,-1.7,0.0,-1.42,2.21
5.923714876174927,-1.66,-0.14,-1.41,2.18
5.9253551959991455,-1.4,-0.02,-0.95,1.69
5.936982870101929,-1.01,0.24,-0.31,1.08
5.938442945480347,-0.86,0.3,0.16,0.92
5.9560019969940186,-0.93,0.19,0.17,0.96
5.957599878311157,-0.96,0.0,0.06,0.96
5.9702980518341064,-1.08,-0.16,-0.19,1.1
5.9981529712677,-0.91,-0.19,-0.28,0.97
5.999459981918335,-0.47,-0.03,-0.25,0.53
6.000413179397583,-0.11,0.28,-0.41,0.5
6.0025880336761475,-0.01,0.4,-0.53,0.66
6.007251977920532,-0.2,0.36,-0.56,0.69
6.017412900924683,-0.79,0.37,-0.54,1.02
6.027147054672241,-1.58,0.45,-0.51,1.72
6.037398099899292,-2.22,0.48,-0.5,2.32
6.0471251010894775,-2.42,0.7,-0.7,2.61
6.057263135910034,-2.41,1.03,-0.84,2.75
6.085726022720337,-2.35,1.05,-0.87,2.71
6.087018013000488,-2.27,1.15,-0.87,2.68
6.087950944900513,-2.57,1.46,-0.96,3.1
6.106770992279053,-3.07,2.06,-1.14,3.86
6.107850074768066,-3.56,2.72,-1.26,4.65
6.119499921798706,-3.61,3.35,-1.43,5.12
6.126464128494263,-3.46,3.77,-1.66,5.37
6.138552904129028,-3.71,3.92,-1.73,5.66
6.146687030792236,-4.2,4.1,-2.01,6.2
6.156470060348511,-4.99,4.83,-2.17,7.27
6.1873719692230225,-6.11,5.73,-2.39,8.71
6.188667058944702,-7.07,6.42,-2.53,9.87
6.189718008041382,-7.67,7.13,-2.51,10.76
6.20713210105896,-8.2,8.2,-2.58,11.88
6.208165884017944,-9.01,9.42,-3.65,13.53
6.2190940380096436,-9.61,9.55,-4.66,14.32
6.226027011871338,-8.78,8.41,-4.28,12.88
6.240015983581543,-7.66,7.06,-4.58,11.37
6.245920896530151,-6.99,7.39,-4.86,11.27
6.255892992019653,-5.79,9.42,-3.28,11.53
6.293102979660034,-4.05,10.24,-1.94,11.18
6.294440984725952,-3.71,8.78,-1.93,9.72
6.295489072799683,-4.55,5.61,-2.17,7.54
6.304672002792358,-4.28,1.64,-1.73,4.89
6.305721044540405,-3.01,-2.78,-2.1,4.6
6.3209710121154785,-0.56,-4.4,-1.8,4.78
6.325298070907593,3.3,-3.26,-0.04,4.63
6.339762926101685,3.83,-3.86,-0.23,5.44
6.344939947128296,0.75,-4.16,-2.0,4.67
6.354946851730347,-3.52,-4.37,-2.63,6.19
6.3920838832855225,-7.58,-5.54,-2.26,9.65
6.393342018127441,-10.15,-6.83,-1.15,12.28
6.394320011138916,-10.1,-7.57,0.12,12.62
6.402818918228149,-7.84,-7.84,1.08,11.13
6.404008150100708,-5.72,-7.5,1.6,9.56
6.423992872238159,-4.39,-6.82,1.65,8.27
6.425673007965088,-3.81,-6.27,1.16,7.42
6.436667203903198,-3.73,-6.05,0.58,7.13
6.444381952285767,-3.81,-6.07,0.3,7.17
6.454194068908691,-3.97,-6.09,0.03,7.26
6.490624189376831,-4.09,-5.98,-0.47,7.26
6.491731882095337,-4.06,-5.72,-1.08,7.09
6.492863893508911,-3.83,-5.38,-1.68,6.81
6.49386191368103,-3.27,-5.01,-1.88,6.27
6.503720045089722,-2.36,-4.67,-1.84,5.54
6.513651132583618,-1.42,-4.34,-1.9,4.94
6.523595094680786,-0.71,-3.79,-2.37,4.52
6.533514976501465,-0.25,-3.3,-1.99,3.86
6.543669939041138,-0.34,-2.46,-0.82,2.61
6.553477048873901,-0.65,-0.84,-0.55,1.19
6.590631008148193,0.06,1.31,-0.95,1.61
6.591809988021851,1.93,3.84,-1.52,4.55
6.592840909957886,2.9,6.53,-0.92,7.2
6.6071460247039795,2.42,8.96,0.51,9.29
6.608248949050903,2.32,11.18,1.2,11.48
6.620200872421265,3.69,12.05,1.04,12.64
6.622752904891968,5.95,11.52,-0.64,12.98
6.637364149093628,7.39,11.26,-2.74,13.74
6.6428139209747314,7.67,10.95,-3.13,13.73
6.652568101882935,7.14,9.45,-2.16,12.03
6.662868976593018,7.14,7.32,0.76,10.25
6.696007013320923,8.39,5.89,4.0,11.0
6.697092056274414,9.18,5.18,4.75,11.56
6.698247194290161,7.88,5.61,4.37,10.61
6.7020440101623535,5.86,6.43,4.01,9.57
6.722930192947388,4.42,7.64,3.85,9.62
6.724524974822998,5.99,7.44,4.53,10.57
6.736295938491821,5.54,1.34,2.2,6.1
6.742014169692993,-1.3,-5.06,-2.82,5.93
6.75508713722229,-9.21,-3.6,-4.7,10.94
6.761766195297241,-9.58,4.25,1.42,10.57
6.798780202865601,-2.87,8.58,6.46,11.11
6.799844026565552,2.82,9.57,3.92,10.71
6.800785064697266,5.4,8.88,2.42,10.67
6.80229115486145,5.79,2.51,2.08,6.64
6.811546087265015,5.11,-0.59,2.42,5.68
6.8209168910980225,4.64,1.58,1.94,5.27
6.831286191940308,4.28,0.76,-1.41,4.56
6.841470003128052,5.91,-0.84,-2.84,6.61
6.85126805305481,7.24,-2.05,-1.99,7.78
6.861212968826294,8.14,-2.28,-1.48,8.58
6.893090009689331,7.86,-1.22,-1.29,8.05
6.894381999969482,5.56,0.04,-0.59,5.59
6.895318031311035,2.51,0.71,0.53,2.66
6.900553941726685,0.01,0.62,1.88,1.97
6.910693883895874,-1.25,0.0,3.38,3.6
6.920354127883911,-1.33,-0.62,3.99,4.25
6.930678129196167,-0.46,-0.54,3.19,3.26
6.940582036972046,0.53,-0.36,1.5,1.63
6.950406074523926,1.35,-0.36,-0.3,1.42
6.9604809284210205,1.89,-0.07,-1.27,2.27
6.991851091384888,2.13,0.34,-1.38,2.56
6.993138074874878,1.99,0.33,-1.21,2.35
6.994067907333374,1.31,-0.04,-1.0,1.64
6.999970197677612,0.44,-0.37,-0.88,1.05
7.009915113449097,-0.09,-0.46,-0.78,0.91
7.019484996795654,-0.61,-0.02,-0.16,0.63
7.029754877090454,-1.07,0.43,0.79,1.39
7.039759874343872,-1.14,0.46,0.73,1.42
7.0498621463775635,-0.79,0.28,-0.14,0.84
7.059624910354614,-0.57,0.02,-0.67,0.87
7.095746040344238,-0.97,-0.06,-0.86,1.29
7.097084045410156,-1.64,0.05,-0.88,1.86
7.098021030426025,-1.78,0.19,-0.57,1.87
7.100775957107544,-1.57,0.34,-0.37,1.64
7.1179211139678955,-1.3,0.37,-0.06,1.35
7.11892294883728,-1.14,0.26,0.26,1.19
7.135861158370972,-0.88,0.16,0.38,0.97
7.139024972915649,-0.57,-0.02,0.27,0.63
7.15113091468811,-0.47,-0.22,0.04,0.52
7.158855199813843,-0.43,-0.22,-0.05,0.48
7.195812940597534,-0.1,-0.07,0.22,0.25
7.196934938430786,0.18,0.22,0.08,0.29
7.198117017745972,0.02,0.37,-0.29,0.47
7.200988054275513,-0.67,0.43,-0.54,0.96
7.218104124069214,-1.58,0.42,-0.63,1.75
7.21927285194397,-2.45,0.33,-0.81,2.6
7.235480070114136,-2.97,0.35,-0.87,3.11
7.238008975982666,-3.06,0.58,-0.85,3.22
7.2518110275268555,-2.82,0.9,-1.03,3.13
7.258159875869751,-2.43,1.27,-1.26,3.01
7.293347120285034,-2.23,1.71,-1.37,3.12
7.294404983520508,-2.29,2.23,-1.37,3.47
7.295549154281616,-2.61,2.99,-1.44,4.22
7.301696062088013,-3.15,3.67,-1.45,5.04
7.3077309131622314,-3.54,4.12,-1.45,5.62
7.318572044372559,-3.72,3.95,-1.35,5.59
7.327675104141235,-4.11,3.93,-1.3,5.83
7.3373658657073975,-4.83,4.31,-1.5,6.64
7.347516059875488,-5.5,4.94,-1.62,7.56
7.357395887374878,-6.34,5.48,-1.93,8.59
7.394273996353149,-7.28,6.0,-2.08,9.66
7.395539045333862,-8.1,6.77,-2.05,10.75
7.396492004394531,-9.16,8.04,-2.93,12.53
7.4016900062561035,-10.63,9.31,-4.47,14.82
7.406975984573364,-11.13,10.13,-4.64,15.74
7.418545961380005,-10.56,10.19,-4.98,15.49
7.427008867263794,-10.07,9.36,-6.61,15.25
7.436487913131714,-9.41,9.19,-6.19,14.53
7.44711709022522,-7.38,10.26,-3.55,13.12
7.456735849380493,-4.93,11.29,-1.3,12.38
7.466694116592407,-4.48,10.32,-1.47,11.34
7.49878191947937,-5.79,7.24,-2.82,9.68
7.499868154525757,-5.75,3.56,-2.31,7.14
7.501024007797241,-3.09,0.11,-1.47,3.42
7.5062479972839355,2.04,0.72,-0.82,2.31
7.5161449909210205,6.63,1.1,-0.1,6.72
7.526254892349243,6.04,0.09,-0.93,6.11
7.53603196144104,1.32,-0.24,-2.72,3.03
7.546442031860352,-3.89,-1.51,-2.6,4.91
7.556113004684448,-7.71,-3.48,-0.95,8.51
7.566035032272339,-9.41,-5.2,1.65,10.87
7.596602201461792,-8.79,-6.07,3.33,11.18
7.597678899765015,-6.31,-5.73,3.58,9.24
7.598852872848511,-3.84,-5.31,3.22,7.3
7.6054298877716064,-2.35,-5.42,2.63,6.46
7.623198986053467,-1.83,-5.75,2.04,6.36
7.625437021255493,-1.99,-6.16,1.59,6.66
7.636528968811035,-2.63,-6.66,1.19,7.25
7.645180940628052,-3.48,-6.91,0.74,7.77
7.654949903488159,-3.84,-6.99,0.34,7.98
7.665215969085693,-3.54,-7.03,-0.1,7.87
7.6974639892578125,-3.04,-7.16,-0.37,7.78
7.698413133621216,-2.36,-7.32,-0.22,7.69
7.699408054351807,-1.65,-7.53,0.4,7.71
7.704478979110718,-0.98,-7.6,0.39,7.67
7.723505020141602,-0.51,-7.71,0.44,7.73
7.724630117416382,-0.3,-7.79,0.95,7.85
7.736685037612915,-0.36,-7.39,1.6,7.56
7.7446229457855225,-0.71,-6.54,1.59,6.76
7.755807161331177,-0.1,-5.48,0.75,5.53
7.764602899551392,2.14,-4.12,0.66,4.68
7.797352075576782,4.21,-2.63,2.04,5.36
7.798301935195923,5.58,-1.46,2.55,6.3
7.799217939376831,6.59,0.07,2.17,6.93
7.803929090499878,7.51,2.12,2.13,8.08
7.82332706451416,8.71,4.23,2.13,9.91
7.824421167373657,9.84,6.25,1.54,11.75
7.840553045272827,10.54,7.76,0.48,13.09
7.843657970428467,11.3,9.19,-0.57,14.57
7.853700876235962,12.27,9.81,-1.01,15.74
7.863858938217163,12.98,7.94,-1.27,15.26
7.900796175003052,13.42,6.18,-1.05,14.81
7.901900053024292,13.65,4.92,0.09,14.5
7.902743101119995,13.17,3.88,1.15,13.77
7.92399001121521,11.35,6.94,1.27,13.36
7.9251110553741455,5.77,3.23,-2.13,6.94
7.939207077026367,-10.07,0.2,-9.14,13.6
7.940202951431274,-23.89,9.82,-11.44,28.24
7.953016996383667,-20.9,28.85,3.46,35.79
7.954081058502197,-8.71,25.44,10.69,28.93
7.972478151321411,3.85,-0.72,-0.99,4.03
8.0017831325531,9.3,-7.71,3.61,12.6
8.003046035766602,11.34,-4.41,7.16,14.11
8.003825902938843,11.06,-1.38,4.13,11.88
8.023838996887207,8.57,-0.39,-0.81,8.61
8.025012016296387,6.04,1.29,-4.58,7.68
8.036516904830933,4.66,2.32,-4.84,7.1
8.03755807876587,4.72,0.95,-4.04,6.28
8.052340030670166,4.58,-0.24,-2.73,5.33
8.053462982177734,3.86,0.0,-1.52,4.14
8.068497896194458,2.92,0.45,-0.42,2.98
8.098253965377808,1.85,0.53,1.04,2.18
8.099488973617554,0.5,0.18,2.32,2.38
8.100252866744995,-0.84,-0.29,3.24,3.35
8.102500200271606,-1.64,-0.62,3.56,3.96
8.111556053161621,-1.28,-0.76,2.86,3.22
8.121678113937378,-0.09,-0.59,1.27,1.4
8.13132119178772,0.95,-0.31,-0.08,1.0
8.141526937484741,1.43,-0.13,-1.14,1.83
8.151205062866211,1.48,-0.04,-1.5,2.1
8.161323070526123,1.14,0.11,-1.5,1.88
8.196928024291992,0.53,0.29,-1.66,1.76
8.19805097579956,-0.15,0.38,-1.4,1.45
8.198807954788208,-1.01,0.31,-0.66,1.24
8.201596975326538,-2.28,0.17,0.01,2.28
8.218505144119263,-3.35,0.14,0.3,3.36
8.220947980880737,-3.39,0.19,0.1,3.39
8.235795021057129,-2.76,0.24,-0.41,2.8
8.240773916244507,-2.05,0.3,-0.71,2.19
8.251873970031738,-1.45,0.32,-0.73,1.65
8.260812997817993,-1.0,0.39,-0.73,1.29
8.270641088485718,-0.91,0.32,-0.35,1.02
8.30441689491272,-0.97,0.02,0.09,0.97
8.305705070495605,-1.1,-0.26,0.28,1.16
8.306656122207642,-1.29,-0.32,-0.02,1.32
8.319409132003784,-1.46,-0.15,-0.3,1.49
8.320672988891602,-1.64,0.19,-0.6,1.75
8.335771083831787,-1.67,0.31,-1.04,1.99
8.339977025985718,-1.77,0.28,-1.09,2.09
8.352070093154907,-1.92,0.17,-0.85,2.1
8.360334157943726,-1.98,0.31,-0.58,2.08
8.369853019714355,-1.89,0.62,-0.37,2.02
8.402996063232422,-1.61,0.79,-0.35,1.82
8.404320001602173,-1.23,0.87,-0.48,1.58
8.405189990997314,-0.92,1.31,-0.59,1.7
8.41890001296997,-0.88,1.85,-0.63,2.14
8.420101881027222,-1.2,2.13,-0.65,2.52
8.435940027236938,-2.0,2.61,-0.57,3.33
8.43923020362854,-2.81,3.06,-0.28,4.16
8.452056169509888,-3.45,3.17,-0.53,4.71
8.459182977676392,-4.22,3.37,-0.83,5.46
8.46915602684021,-4.89,3.61,-1.06,6.16
8.500727891921997,-5.37,4.0,-1.33,6.82
8.502000093460083,-5.81,4.66,-1.54,7.6
8.502947092056274,-6.6,6.11,-1.83,9.17
8.518842935562134,-8.45,7.56,-2.48,11.6
8.519950151443481,-10.32,8.32,-3.24,13.64
8.528741121292114,-11.29,9.11,-3.54,14.93
8.53856110572815,-11.89,10.53,-4.3,16.45
8.548278093338013,-12.04,11.96,-5.61,17.87
8.558410882949829,-11.27,12.95,-6.29,18.28
8.568608045578003,-9.23,12.78,-5.33,16.64
8.599621057510376,-6.25,11.25,-3.04,13.22
8.600713968276978,-3.97,10.56,-1.31,11.35
8.601475954055786,-3.75,9.61,-1.37,10.4
8.618776082992554,-4.57,6.64,-2.52,8.44
8.619937181472778,-3.88,2.5,-2.68,5.33
8.635958909988403,-1.54,-0.38,-2.75,3.17
8.637691020965576,3.34,1.23,-1.9,4.03
8.652507066726685,6.67,0.6,-0.34,6.7
8.65776515007019,6.32,-0.59,-1.32,6.48
8.67314100265503,1.71,-1.35,-4.68,5.16
8.706171035766602,-4.11,-2.93,-4.46,6.73
8.707481145858765,-7.61,-4.93,-1.74,9.23
8.708456039428711,-8.78,-6.69,0.47,11.04
8.7240731716156,-7.64,-7.47,1.3,10.76
8.725169897079468,-5.27,-7.43,1.69,9.26
8.738452196121216,-3.3,-7.52,1.74,8.39
8.739511966705322,-1.93,-7.61,1.08,7.92
8.757583856582642,-1.45,-7.38,-0.16,7.52
8.759217023849487,-1.98,-7.08,-1.21,7.45
8.771011114120483,-2.94,-7.1,-1.6,7.84
8.805011987686157,-3.72,-7.28,-1.64,8.33
8.806402921676636,-4.02,-7.41,-1.67,8.59
8.807345151901245,-3.66,-7.4,-1.74,8.43
8.82433295249939,-3.03,-7.27,-1.87,8.09
8.825528860092163,-2.47,-7.16,-1.85,7.79
8.83856201171875,-1.93,-7.26,-1.66,7.69
8.839658975601196,-1.4,-7.42,-1.14,7.63
8.85659909248352,-0.98,-7.46,-1.14,7.6
8.858067035675049,-0.62,-7.26,-1.45,7.42
8.87277603149414,-0.12,-6.8,-0.87,6.85
8.9059579372406,0.39,-6.32,-0.58,6.35
8.907135009765625,0.78,-5.84,-0.9,5.96
8.908071041107178,1.9,-5.12,-1.37,5.63
8.924411058425903,3.44,-3.55,-0.64,4.98
8.92552900314331,4.71,-1.46,0.72,4.98
8.937016010284424,5.72,0.48,1.0,5.82
8.938151121139526,6.12,2.84,0.96,6.81
8.957990884780884,6.28,5.94,1.11,8.71
8.95952296257019,6.97,9.01,0.9,11.42
8.968983888626099,8.49,10.98,-0.35,13.88
9.005411863327026,10.41,11.81,-1.35,15.8
9.006780862808228,12.09,11.34,-1.06,16.6
9.007785081863403,13.0,9.45,-0.93,16.09
9.022065877914429,12.02,8.23,-0.81,14.59
9.02309799194336,10.53,7.89,0.64,13.17
9.037863969802856,9.33,6.97,2.12,11.83
9.03891897201538,8.45,5.54,3.99,10.86
9.054687976837158,7.47,5.17,5.76,10.75
9.055969953536987,4.91,6.74,5.94,10.23
9.07047700881958,0.84,3.51,4.38,5.67
9.0748450756073,-8.71,-1.9,-0.33,8.92
9.116672992706299,-19.97,-1.36,-3.89,20.39
9.117913961410522,-22.49,8.71,1.4,24.15
9.118923902511597,-8.81,18.46,10.88,23.16
9.138263940811157,3.39,12.19,0.53,12.66
9.139314889907837,7.43,2.07,-4.62,8.99
9.154433012008667,8.47,-2.37,2.13,9.04
9.155429124832153,7.69,-3.49,1.74,8.62
9.171797037124634,7.14,-2.56,0.49,7.6
9.173309087753296,5.71,-0.51,-2.13,6.11
9.187138080596924,5.42,1.11,-4.77,7.3
9.218941926956177,6.65,2.18,-4.64,8.39
9.220262050628662,6.71,1.23,-2.67,7.32
9.221281051635742,5.63,-0.28,-0.97,5.71
9.238435983657837,3.78,-0.32,0.53,3.83
9.239498853683472,1.51,0.26,1.78,2.34
9.254471063613892,-0.48,0.44,3.11,3.17
9.255506038665771,-1.6,0.18,3.78,4.1
9.271732091903687,-1.6,-0.22,3.22,3.6
9.272686004638672,-0.83,-0.46,1.9,2.12
9.28714919090271,0.04,-0.35,0.75,0.82
9.314911127090454,0.98,-0.07,-0.49,1.09
9.316075086593628,1.71,-0.08,-1.3,2.14
9.316871881484985,1.79,-0.35,-1.22,2.19
9.338452100753784,1.69,-0.57,-1.17,2.13
9.339457035064697,1.52,-0.53,-1.14,1.97
9.354598045349121,0.91,-0.1,-0.63,1.11
9.355638027191162,0.03,0.33,0.05,0.33
9.372406005859375,-0.58,0.49,0.79,1.09
9.37342095375061,-1.1,0.36,0.85,1.43
9.387466192245483,-1.55,0.25,0.4,1.62
9.415838956832886,-1.69,0.13,-0.08,1.69
9.417018175125122,-1.49,0.12,-0.75,1.67
9.417825937271118,-1.1,0.16,-0.84,1.39
9.438580989837646,-0.8,0.13,-0.62,1.02
9.439625024795532,-0.65,0.19,-0.2,0.7
9.454792022705078,-0.66,0.33,0.12,0.74
9.455855131149292,-0.81,0.36,0.08,0.89
9.471394062042236,-0.93,0.27,0.2,0.98
9.472414016723633,-1.08,0.15,0.21,1.11
9.487468957901001,-1.11,-0.04,0.28,1.14
9.517257928848267,-1.0,-0.07,0.08,1.0
9.518405199050903,-0.86,0.15,-0.31,0.92
9.519286870956421,-0.82,0.32,-0.76,1.16
9.538583040237427,-1.17,0.38,-1.13,1.67
9.539631128311157,-1.69,0.32,-1.35,2.18
9.554867029190063,-2.17,0.18,-1.19,2.48
9.555915117263794,-2.42,0.33,-0.99,2.63
9.571217060089111,-2.38,0.79,-0.59,2.57
9.572228193283081,-2.17,1.27,-0.39,2.54
9.587455034255981,-2.0,1.68,-0.43,2.64
9.616225957870483,-2.11,2.0,-0.67,2.98
9.61736798286438,-2.38,2.33,-0.88,3.44
9.618175029754639,-2.94,2.79,-1.06,4.18
9.638467073440552,-3.8,3.43,-0.94,5.2
9.639526128768921,-4.24,3.72,-0.92,5.71
9.654680013656616,-4.41,3.92,-1.13,6.0
9.655718088150024,-4.68,4.16,-1.36,6.4
9.67146611213684,-5.22,4.62,-1.62,7.15
9.672938108444214,-6.19,5.24,-1.72,8.29
9.687506914138794,-7.44,5.91,-1.8,9.67
9.71694803237915,-8.96,6.66,-1.95,11.33
9.718263864517212,-10.16,7.29,-1.82,12.63
9.719094038009644,-10.62,8.19,-1.86,13.53
9.738553047180176,-11.56,9.64,-3.35,15.42
9.73958706855774,-12.31,10.5,-4.49,16.79
9.754960060119629,-11.69,10.44,-5.81,16.71
9.756017923355103,-10.58,11.08,-6.18,16.51
9.769554853439331,-8.79,11.94,-4.1,15.38
9.770608186721802,-6.19,11.98,-1.9,13.61
9.787645101547241,-4.76,11.03,-1.82,12.15
9.81689715385437,-5.4,8.25,-2.77,10.24
9.81822419166565,-5.49,4.27,-2.58,7.41
9.819023847579956,-3.48,-0.06,-2.19,4.11
9.838598012924194,0.79,-1.01,-1.75,2.16
9.839662075042725,5.88,0.29,-0.45,5.9
9.855020999908447,6.98,-1.15,0.25,7.07
9.856044054031372,3.96,-1.86,-2.06,4.83
9.87135100364685,-1.67,-2.44,-3.88,4.87
9.872399091720581,-6.44,-3.9,-3.23,8.19
9.887842893600464,-9.16,-5.61,-0.44,10.75
9.88930606842041,-9.57,-7.3,1.77,12.16
9.93451714515686,-8.0,-7.87,3.01,11.61
9.93569302558899,-5.8,-7.71,3.56,10.28
9.936681985855103,-4.25,-7.53,3.51,9.33
9.955724954605103,-3.53,-7.37,2.9,8.67
9.956798076629639,-3.61,-6.99,2.03,8.12
9.971219062805176,-4.28,-6.73,1.4,8.09
9.972257852554321,-5.09,-6.91,1.06,8.64
9.988731145858765,-5.52,-7.25,0.71,9.13
9.99022102355957,-5.53,-7.35,0.22,9.2
10.00403618812561,-4.9,-7.22,-0.13,8.72
10.03463101387024,-3.66,-7.17,-0.34,8.05
10.036005020141602,-2.34,-7.32,-0.44,7.69
10.037039041519165,-1.27,-7.6,-0.72,7.73
10.055777072906494,-0.57,-7.8,-1.39,7.94
10.056841135025024,-0.07,-7.59,-1.89,7.82
10.071563005447388,0.61,-6.76,-1.3,6.91
10.072580099105835,1.12,-5.72,-0.83,5.88
10.088749170303345,1.7,-4.69,-0.89,5.06
10.090209007263184,3.47,-3.28,-0.56,4.8
10.104166030883789,5.37,-0.68,1.52,5.62
10.135935068130493,6.39,2.22,3.13,7.45
10.13712191581726,6.48,4.8,3.45,8.77
10.137941122055054,6.29,8.07,3.68,10.87
10.152904033660889,6.83,11.76,3.16,13.96
10.153968095779419,8.49,14.49,1.09,16.82
10.171616077423096,10.45,15.31,0.04,18.53
10.17265796661377,12.36,12.65,-0.17,17.68
10.188279867172241,12.79,9.32,-0.34,15.82
10.18930697441101,12.13,7.59,0.87,14.33
10.204127073287964,12.19,6.27,2.45,13.92
10.234395027160645,11.36,6.79,3.2,13.61
10.235637903213501,9.73,5.55,2.75,11.53
10.236422061920166,3.89,-1.61,-1.01,4.32
10.252226114273071,-10.72,-3.94,-7.69,13.76
10.253298997879028,-21.56,6.44,-7.65,23.76
10.27161192893982,-16.7,28.78,3.77,33.48
10.272662878036499,-5.22,25.09,7.21,26.62
10.288306951522827,3.67,-0.66,-1.87,4.17
10.289331197738647,8.98,-8.0,2.42,12.26
10.30425500869751,12.85,-2.41,6.04,14.4
10.332093954086304,13.38,-1.83,1.26,13.56
10.333214044570923,11.45,-1.69,-2.48,11.83
10.334034204483032,8.26,0.07,-3.54,8.98
10.357172012329102,6.26,1.03,-3.65,7.31
10.358236074447632,4.83,0.02,-2.32,5.35
10.369197130203247,3.27,-0.56,-0.15,3.32
10.370182037353516,2.42,-0.2,1.54,2.87
10.38863492012024,2.03,0.21,2.59,3.29
10.389634847640991,1.06,0.2,3.01,3.19
10.404514074325562,-0.25,0.01,2.75,2.76
10.432790994644165,-0.68,-0.03,1.76,1.88
10.433937072753906,0.09,-0.14,1.19,1.2
10.434725046157837,1.1,-0.41,0.9,1.47
10.455762147903442,1.64,-0.45,0.17,1.7
10.456820011138916,1.58,-0.1,-0.73,1.74
10.471889019012451,1.35,0.18,-1.88,2.32
10.472908020019531,1.29,0.16,-2.11,2.47
10.488821983337402,0.85,0.01,-1.26,1.51
10.489850997924805,-0.25,-0.02,-0.18,0.3
10.503980875015259,-1.47,-0.04,0.26,1.49
10.531835079193115,-2.08,0.11,0.22,2.09
10.53306794166565,-1.98,0.36,0.03,2.01
10.53388500213623,-1.73,0.44,-0.42,1.83
10.536306142807007,-1.68,0.44,-0.98,1.99
10.537346124649048,-1.71,0.38,-1.17,2.1
10.53898000717163,-1.86,0.32,-1.09,2.17
10.543508052825928,-1.9,0.42,-0.76,2.08
10.553729057312012,-1.72,0.57,-0.28,1.83
10.563299894332886,-1.42,0.55,0.06,1.52
10.573649168014526,-1.25,0.3,0.05,1.28
10.607197999954224,-1.1,0.04,0.08,1.1
10.608337163925171,-0.91,-0.09,0.15,0.92
10.609148025512695,-0.88,0.01,-0.03,0.88
10.620692014694214,-1.0,0.29,-0.3,1.08
10.622974157333374,-1.17,0.44,-0.53,1.35
10.638436079025269,-1.55,0.51,-0.71,1.77
10.64293885231018,-2.06,0.5,-0.62,2.2
10.655253171920776,-2.51,0.28,-0.67,2.61
10.66273808479309,-2.84,0.39,-0.66,2.94
10.672677040100098,-2.64,0.82,-0.66,2.84
10.68296217918396,-2.33,1.49,-0.82,2.88
10.714734077453613,-2.43,2.52,-0.76,3.58
10.715665102005005,-2.43,3.07,-0.66,3.97
10.716723203659058,-2.73,3.22,-0.65,4.27
10.7221360206604,-3.45,3.23,-0.53,4.75
10.732261896133423,-4.23,3.38,-0.49,5.43
10.742486000061035,-4.69,3.65,-0.61,5.97
10.75219988822937,-5.0,4.06,-0.88,6.5
10.762286901473999,-5.46,4.67,-1.36,7.31
10.771972894668579,-6.12,5.45,-2.06,8.44
10.782227993011475,-7.29,6.13,-2.93,9.96
10.814468145370483,-8.7,6.64,-3.16,11.39
10.815433025360107,-9.46,7.2,-2.81,12.21
10.816725015640259,-9.71,8.25,-3.07,13.1
10.821544885635376,-9.76,9.5,-4.48,14.33
10.831850051879883,-10.1,10.16,-6.97,15.93
10.841688871383667,-10.46,11.36,-7.16,17.02
10.851630926132202,-8.79,11.93,-4.9,15.6
10.861387014389038,-5.1,11.64,-2.4,12.93
10.871074914932251,-2.89,11.05,-0.67,11.44
10.881111860275269,-3.96,8.3,-2.09,9.43
10.91284704208374,-5.41,4.27,-3.8,7.87
10.913879156112671,-4.72,0.48,-3.83,6.09
10.914829969406128,-1.61,-1.13,-3.05,3.62
10.920686960220337,4.02,1.46,-0.76,4.34
10.938781976699829,6.76,0.81,0.99,6.87
10.940734148025513,4.82,-0.69,-1.12,4.99
10.955535173416138,-0.64,-1.49,-3.19,3.57
10.96058702468872,-6.19,-3.19,-3.16,7.64
10.970335006713867,-9.73,-5.38,-1.45,11.21
10.98086404800415,-10.82,-7.52,1.58,13.27
11.012251138687134,-9.32,-8.65,3.64,13.22
11.013215065002441,-6.62,-8.4,4.25,11.5
11.0142982006073,-4.47,-8.0,4.03,10.01
11.019983053207397,-3.37,-7.67,2.91,8.86
11.030114889144897,-3.31,-7.42,1.65,8.29
11.040245056152344,-3.76,-7.41,0.94,8.36
11.050026178359985,-4.36,-7.52,0.6,8.71
11.059843063354492,-4.81,-7.61,0.12,9.0
11.069783926010132,-4.86,-7.5,-0.47,8.94
11.080084085464478,-4.46,-7.27,-1.06,8.59
11.118216037750244,-3.55,-7.09,-1.41,8.05
11.119577169418335,-2.27,-7.06,-1.67,7.6
11.120543003082275,-0.99,-7.15,-1.89,7.46
11.138835191726685,-0.24,-7.09,-2.15,7.41
11.139845132827759,0.29,-6.7,-2.89,7.3
11.155992984771729,0.93,-5.87,-2.11,6.3
11.157052993774414,1.71,-4.92,-1.29,5.36
11.172393083572388,2.67,-4.17,-1.41,5.14
11.173892974853516,3.87,-2.95,-0.97,4.96
11.188045978546143,4.62,-0.65,1.18,4.81
11.218860864639282,4.84,1.96,3.12,6.08
11.22025203704834,4.68,5.03,3.48,7.7
11.221273183822632,4.43,9.3,3.03,10.73
11.239535093307495,5.07,13.67,2.0,14.71
11.24062204360962,6.9,15.44,0.27,16.91
11.253965139389038,9.51,13.74,-0.73,16.72
11.255019903182983,11.79,11.09,-1.59,16.26
11.272103071212769,12.53,10.07,-1.12,16.11
11.27314305305481,11.32,9.48,-0.5,14.77
11.288186073303223,10.74,7.93,0.72,13.36
11.317141056060791,10.3,7.14,2.36,12.75
11.318442106246948,9.38,7.56,2.85,12.37
11.3192880153656,7.49,4.84,2.58,9.28
11.340424060821533,1.17,1.72,-0.18,2.08
11.341429948806763,-7.98,-0.54,-3.29,8.64
11.355511903762817,-15.14,0.02,-2.72,15.38
11.35656189918518,-12.93,7.19,3.11,15.11
11.372648000717163,-3.21,12.54,5.71,14.14
11.373669862747192,2.2,9.2,-0.81,9.49
11.388176202774048,5.24,2.24,-0.51,5.72
11.417736053466797,6.62,-2.92,2.18,7.55
11.418958902359009,7.45,-1.89,2.35,8.03
11.419777154922485,7.88,0.62,0.12,7.9
11.439373016357422,7.11,-0.24,-3.83,8.07
11.440474033355713,6.35,0.22,-4.6,7.84
11.455873966217041,5.28,0.16,-3.16,6.15
11.45691990852356,4.54,-0.58,-1.01,4.68
11.4727041721344,3.68,-0.78,1.18,3.94
11.4741690158844,2.18,-0.16,2.16,3.07
11.48820185661316,0.51,0.43,2.61,2.69
11.489661931991577,-0.78,0.33,2.62,2.75
11.53613018989563,-1.22,-0.04,1.93,2.28
11.537291049957275,-0.55,-0.11,0.8,0.97
11.538307905197144,0.52,-0.12,0.24,0.58
11.556638956069946,1.3,-0.17,-0.04,1.31
11.557693004608154,1.94,-0.04,-0.85,2.11
11.571976900100708,2.5,-0.03,-1.4,2.86
11.573055982589722,2.46,-0.23,-1.14,2.72
11.589086055755615,1.68,-0.36,-0.19,1.72
11.590609073638916,0.54,-0.21,0.53,0.78
11.604694128036499,-0.45,-0.04,0.67,0.8
11.635941982269287,-0.78,0.02,0.47,0.91
11.637333154678345,-0.57,0.14,0.19,0.61
11.63833212852478,-0.29,0.18,-0.34,0.48
11.656593084335327,-0.09,0.17,-0.78,0.8
11.657603979110718,-0.09,0.14,-0.7,0.71
11.672322034835815,-0.28,0.16,-0.49,0.58
11.673383951187134,-0.63,0.22,-0.23,0.7
11.689235925674438,-1.05,0.27,0.0,1.08
11.690742015838623,-1.29,0.25,0.2,1.32
11.70478892326355,-1.2,0.29,0.28,1.26
11.736643075942993,-1.12,0.38,0.22,1.2
11.737915992736816,-1.11,0.4,0.0,1.17
11.73891806602478,-1.0,0.33,-0.14,1.06
11.756261110305786,-0.9,0.25,-0.21,0.95
11.757313966751099,-0.93,0.11,-0.4,1.01
11.772364854812622,-0.92,0.1,-0.58,1.09
11.773396968841553,-0.79,0.27,-0.69,1.08
11.789259195327759,-0.76,0.46,-0.71,1.13
11.790712118148804,-0.91,0.51,-0.79,1.3
11.805096864700317,-1.3,0.62,-1.0,1.75
11.836211919784546,-1.97,0.79,-0.88,2.29
11.837498903274536,-2.42,0.74,-0.62,2.6
11.838495016098022,-2.67,0.65,-0.5,2.79
11.856413125991821,-2.85,1.01,-0.28,3.03
11.857481002807617,-3.36,1.69,-0.22,3.76
11.87229609489441,-3.68,2.23,-0.32,4.31
11.87331509590149,-3.56,2.44,-0.59,4.35
11.889507055282593,-3.44,2.82,-0.82,4.52
11.89093804359436,-3.49,3.15,-1.12,4.83
11.905053853988647,-3.7,3.54,-1.33,5.29
11.935753107070923,-4.27,4.05,-1.49,6.07
11.93694806098938,-4.93,4.72,-1.37,6.96
11.937761068344116,-5.82,5.68,-2.44,8.49
11.956329107284546,-7.64,6.66,-4.35,11.02
11.957324028015137,-9.77,7.4,-4.24,12.96
11.972609043121338,-10.46,8.02,-2.91,13.49
11.973654985427856,-10.58,8.73,-3.61,14.18
11.989639043807983,-11.24,9.56,-4.51,15.42
11.991069078445435,-11.14,10.08,-4.51,15.68
12.005130052566528,-10.67,9.98,-3.91,15.12
12.033613920211792,-9.73,9.75,-2.09,13.93
12.034808874130249,-6.49,9.04,-0.75,11.15
12.035606145858765,-2.04,7.72,-0.31,7.99
12.056663990020752,-0.12,6.0,-0.25,6.0
12.057739973068237,-1.43,3.23,-0.96,3.66
12.072520971298218,-1.93,-0.28,-1.94,2.75
12.073553085327148,-1.08,-3.43,-3.37,4.92
12.089555025100708,1.72,-2.85,-2.8,4.34
12.090792894363403,5.32,-0.9,-0.29,5.4
12.105096101760864,5.1,-1.31,-1.1,5.37
12.135029077529907,1.55,-1.38,-4.19,4.67
12.136332988739014,-3.39,-1.83,-5.06,6.35
12.137351989746094,-6.7,-2.96,-3.83,8.26
12.156646013259888,-7.74,-4.55,-1.96,9.18
12.157708883285522,-7.09,-5.82,-0.71,9.2
12.172282934188843,-5.37,-6.11,0.0,8.13
12.173339128494263,-3.79,-5.92,0.48,7.04
12.18946099281311,-2.94,-5.68,0.64,6.42
12.190552949905396,-2.75,-5.47,0.3,6.12
12.205536127090454,-2.86,-5.49,-0.09,6.19
12.232998132705688,-3.2,-5.79,-0.34,6.62
12.234223127365112,-3.52,-6.01,-0.54,6.98
12.235005140304565,-3.42,-6.14,-0.88,7.08
12.256416082382202,-3.04,-6.08,-1.46,6.95
12.25747799873352,-2.56,-5.81,-1.8,6.59
12.272459983825684,-2.15,-5.69,-1.9,6.37
12.273492097854614,-1.79,-5.73,-2.13,6.36
12.289480924606323,-1.36,-5.76,-2.08,6.27
12.290503978729248,-0.65,-5.59,-1.65,5.86
12.305263996124268,0.25,-5.37,-1.52,5.58
12.306709051132202,1.47,-5.14,-2.08,5.73
12.351919889450073,3.05,-4.75,-2.46,6.15
12.35310697555542,4.04,-4.05,-2.1,6.09
12.354102849960327,4.2,-3.19,-1.58,5.5
12.373459100723267,4.64,-1.99,-1.26,5.2
12.374513864517212,5.71,-0.43,-0.46,5.74
12.389283895492554,6.5,1.19,0.55,6.63
12.390331983566284,6.84,3.09,1.33,7.62
12.406253099441528,7.17,5.34,1.23,9.02
12.407731056213379,7.69,7.56,-0.02,10.78
12.421810865402222,8.72,9.14,-1.19,12.68
12.451843023300171,9.89,9.72,-1.52,13.94
12.453137159347534,11.2,8.32,-1.2,14.0
12.454171895980835,11.49,7.48,-0.59,13.72
12.472985982894897,10.55,7.51,0.73,12.97
12.474004030227661,9.27,7.01,2.2,11.82
12.48946213722229,7.85,6.13,3.75,10.64
12.490505933761597,6.67,5.21,5.44,10.06
12.506654024124146,5.28,5.23,6.88,10.12
12.508157968521118,1.6,5.99,6.46,8.95
12.521964073181152,-3.71,4.21,5.48,7.84
12.552758932113647,-9.32,-0.61,2.82,9.75
12.554096937179565,-16.75,-3.52,-1.12,17.15
12.555109024047852,-21.68,2.72,0.44,21.85
12.573127031326294,-10.47,15.48,7.24,20.04
12.57419204711914,3.03,14.83,0.01,15.13
12.589247941970825,7.89,3.67,-5.03,10.05
12.59029507637024,9.95,-3.3,1.64,10.61
12.606251955032349,10.02,-0.4,1.9,10.2
12.607729196548462,8.92,3.14,-1.4,9.55
12.62186884880066,7.41,2.41,-5.65,9.62
12.653136014938354,7.0,-0.19,-5.43,8.86
12.654555082321167,7.86,-0.95,-3.13,8.51
12.65556788444519,7.79,-1.06,-2.36,8.2
12.673420190811157,5.75,-0.48,-1.29,5.91
12.67449688911438,2.93,0.36,0.12,2.95
12.689413070678711,0.51,0.68,1.7,1.9
12.690458059310913,-0.96,0.51,3.24,3.41
12.7067391872406,-1.32,0.15,4.05,4.26
12.708213090896606,-0.73,-0.1,3.85,3.91
12.72203516960144,0.06,-0.41,2.78,2.81
12.754767179489136,0.34,-0.58,1.94,2.05
12.75608205795288,0.48,-0.49,0.84,1.08
12.756978034973145,0.71,-0.34,-0.48,0.92
12.773390054702759,0.9,-0.18,-1.69,1.92
12.77443814277649,0.85,0.0,-2.56,2.69
12.789384126663208,0.59,0.16,-2.69,2.75
12.790436029434204,0.37,0.25,-2.37,2.41
12.806288957595825,0.29,0.14,-1.66,1.69
12.807331085205078,0.13,0.03,-0.67,0.68
12.82217001914978,-0.37,0.1,0.29,0.48
12.851221084594727,-1.25,0.22,0.93,1.57
12.85244107246399,-2.17,0.25,1.14,2.46
12.853249073028564,-2.86,0.07,0.77,2.96
12.87312912940979,-2.92,0.05,0.19,2.92
12.874175071716309,-2.36,0.12,-0.37,2.39
12.889546155929565,-1.62,0.1,-0.78,1.8
12.890582084655762,-0.87,0.01,-0.86,1.22
12.906249046325684,-0.5,-0.1,-0.95,1.07
12.90730595588684,-0.81,-0.26,-1.06,1.35
12.922173023223877,-1.4,-0.3,-0.81,1.64
12.950070142745972,-1.97,-0.14,-0.47,2.03
12.95129108428955,-2.23,0.18,-1.02,2.45
12.95206904411316,-2.16,0.44,-1.33,2.57
12.973391056060791,-2.15,0.33,-1.37,2.57
12.974323034286499,-2.43,0.34,-1.49,2.87
12.98953104019165,-2.62,0.59,-1.47,3.06
12.990586996078491,-2.74,0.84,-1.3,3.14
13.006240129470825,-2.76,1.0,-1.42,3.26
13.007264852523804,-2.68,1.31,-1.79,3.47
13.022257089614868,-2.23,1.82,-1.81,3.4
13.049942970275879,-1.83,2.5,-2.02,3.69
13.051111936569214,-2.08,3.45,-2.11,4.54
13.051891088485718,-3.2,4.83,-1.83,6.07
13.073516130447388,-4.72,5.81,-0.68,7.51
13.074578046798706,-6.24,6.3,-0.88,8.91
13.089838027954102,-7.39,7.2,-1.34,10.4
13.090853929519653,-8.22,8.16,-1.77,11.71
13.106409072875977,-8.47,8.89,-2.63,12.55
13.107444047927856,-7.94,9.9,-2.96,13.03
13.122539043426514,-8.27,11.12,-4.75,14.64
13.124011993408203,-9.73,11.2,-7.43,16.59
13.170284032821655,-10.12,9.74,-7.85,16.09
13.171386003494263,-8.86,8.09,-7.85,14.33
13.172327995300293,-7.92,7.57,-7.54,13.29
13.190682172775269,-6.7,8.88,-5.78,12.53
13.19168210029602,-3.89,10.71,-2.57,11.68
13.206112146377563,-1.91,10.61,-0.78,10.8
13.207145929336548,-2.32,7.15,-1.07,7.59
13.223263025283813,-2.0,1.41,-1.85,3.06
13.224726915359497,-0.8,-1.58,-2.19,2.81
13.238842010498047,2.12,-0.49,0.53,2.23
13.270931005477905,2.15,-3.4,1.97,4.47
13.27223801612854,-1.39,-5.62,0.01,5.78
13.273338079452515,-6.25,-5.19,-0.52,8.14
13.290361166000366,-9.78,-4.95,0.61,10.97
13.291423082351685,-10.68,-5.66,1.94,12.24
13.307435989379883,-8.9,-6.21,2.87,11.22
13.308474063873291,-6.37,-6.8,3.29,9.88
13.323768854141235,-4.57,-7.55,3.38,9.45
13.325201034545898,-3.75,-8.08,3.11,9.43
13.338987112045288,-3.92,-8.01,2.42,9.24
13.368824005126953,-4.61,-7.61,1.76,9.06
13.369997024536133,-5.29,-7.49,1.41,9.27
13.370803117752075,-5.72,-7.63,1.25,9.61
13.390508890151978,-5.6,-7.69,1.06,9.57
13.391565084457397,-4.98,-7.54,0.64,9.05
13.406373023986816,-4.21,-7.24,0.28,8.37
13.407401084899902,-3.13,-6.98,0.13,7.65
13.423130989074707,-1.98,-6.96,-0.07,7.23
13.424121141433716,-1.11,-6.95,-0.32,7.04
13.439006090164185,-0.54,-6.86,-0.76,6.92
13.470669984817505,-0.29,-6.53,-1.21,6.64
13.471849203109741,-0.37,-5.86,-0.54,5.89
13.47268795967102,-0.69,-4.97,0.39,5.03
13.490554094314575,-0.74,-3.97,0.29,4.04
13.491599082946777,0.45,-2.8,0.04,2.83
13.506518125534058,2.25,-0.7,1.85,2.99
13.507590055465698,3.51,1.77,4.62,6.06
13.52153205871582,3.76,4.21,5.16,7.64
13.522561073303223,3.48,7.6,4.44,9.46
13.537069082260132,3.74,11.57,3.43,12.63
13.568361043930054,5.12,14.35,1.77,15.33
13.569573163986206,7.26,16.14,0.46,17.7
13.57045292854309,9.86,15.37,-0.08,18.26
13.590595006942749,11.84,12.05,0.44,16.89
13.591634035110474,11.18,9.74,1.46,14.89
13.60666799545288,10.48,8.17,1.98,13.43
13.607712984085083,11.11,6.66,3.09,13.31
13.623267889022827,10.4,7.01,3.28,12.96
13.624292135238647,8.42,5.86,1.86,10.42
13.636847972869873,0.84,0.68,-2.66,2.87
13.666753053665161,-11.92,-2.27,-7.87,14.46
13.667915105819702,-19.08,2.84,-4.49,19.8
13.668699026107788,-12.35,16.06,8.2,21.85
13.670851945877075,0.47,17.53,8.81,19.62
13.672023057937622,5.74,7.52,-0.31,9.46
13.673188924789429,7.95,-1.93,2.49,8.55
13.674484014511108,7.59,-3.78,4.32,9.51
13.6757071018219,6.65,-3.37,1.97,7.71
13.680142164230347,5.35,-0.48,0.39,5.38
13.690422058105469,4.12,1.56,-2.87,5.25
13.722609043121338,5.6,1.73,-4.3,7.26
13.723457098007202,7.08,0.11,-3.4,7.85
13.724118947982788,7.88,-0.59,-1.87,8.12
13.739280939102173,7.09,-0.62,-0.5,7.13
13.740130186080933,4.22,0.15,0.86,4.3
13.756432056427002,1.37,0.78,2.33,2.81
13.759843111038208,-0.56,0.47,3.53,3.6
13.773230075836182,-1.24,-0.11,3.74,3.94
13.780097007751465,-0.9,-0.41,2.76,2.93
13.789572954177856,-0.09,-0.34,1.44,1.48
13.824702978134155,1.0,-0.26,0.2,1.05
13.82576298713684,1.7,-0.25,-0.9,1.93
13.8264901638031,1.79,-0.17,-1.26,2.19
13.840523958206177,1.5,-0.02,-1.32,1.99
13.841389894485474,1.12,-0.01,-1.54,1.9
13.856579065322876,0.72,-0.17,-1.32,1.51
13.85917592048645,0.14,-0.22,-0.31,0.4
13.873372077941895,-0.63,0.05,0.77,0.99
13.878936052322388,-1.41,0.31,1.23,1.89
13.8889000415802,-1.75,0.42,0.86,1.99
13.899097204208374,-1.69,0.44,0.07,1.74
13.930305004119873,-1.62,0.44,-0.56,1.76
13.931187868118286,-1.62,0.39,-1.02,1.95
13.932246923446655,-1.6,0.4,-1.25,2.06
13.938554048538208,-1.59,0.43,-1.24,2.06
13.948487997055054,-1.79,0.23,-0.91,2.02
13.958420038223267,-2.07,0.06,-0.56,2.14
13.968581914901733,-2.28,-0.08,-0.48,2.33
13.978340864181519,-2.34,-0.07,-0.51,2.39
13.988340139389038,-2.08,-0.01,-0.51,2.14
13.998548984527588,-1.58,0.08,-0.44,1.64
14.028960943222046,-1.04,0.28,-0.56,1.21
14.030131101608276,-0.77,0.38,-0.72,1.12
14.030883073806763,-0.94,0.38,-0.73,1.24
14.040616035461426,-1.25,0.27,-0.61,1.41
14.047916173934937,-1.66,0.19,-0.43,1.72
14.057671070098877,-2.07,0.21,-0.3,2.1
14.06764006614685,-2.43,0.45,-0.46,2.51
14.077605962753296,-2.66,0.86,-0.67,2.87
14.087722063064575,-2.63,1.65,-0.7,3.18
14.097563982009888,-2.36,2.52,-0.6,3.5
14.130537986755371,-2.46,3.32,-0.63,4.17
14.1316499710083,-3.08,4.28,-0.73,5.32
14.13254714012146,-3.64,4.39,-0.61,5.73
14.137009859085083,-4.17,4.18,-0.5,5.92
14.15716290473938,-4.7,4.38,-0.68,6.46
14.158200979232788,-5.1,4.81,-1.08,7.09
14.173060178756714,-5.73,5.47,-1.57,8.07
14.176922082901001,-6.89,6.34,-1.89,9.55
14.187294006347656,-8.07,7.36,-2.09,11.12
14.197149991989136,-9.56,8.59,-3.03,13.2
14.230484008789062,-10.87,9.65,-3.9,15.04
14.231458902359009,-10.63,10.14,-3.64,15.13
14.233219861984253,-9.65,9.78,-5.05,14.63
14.236731052398682,-9.73,9.46,-7.39,15.45
14.246592044830322,-9.73,10.11,-5.88,15.21
14.257117986679077,-7.59,10.9,-2.42,13.5
14.266434907913208,-4.68,11.79,-0.19,12.68
14.276077032089233,-4.56,10.14,-0.4,11.12
14.286247968673706,-5.6,5.42,-1.97,8.03
14.296180963516235,-5.06,0.85,-3.26,6.07
14.335230112075806,-2.84,-2.31,-3.75,5.24
14.336379051208496,1.96,-0.9,-1.92,2.88
14.337220907211304,5.1,-0.67,0.15,5.14
14.357131004333496,4.14,-1.57,-0.93,4.52
14.358217000961304,-0.43,-2.16,-2.56,3.37
14.373325109481812,-5.71,-3.53,-3.03,7.36
14.374435186386108,-9.14,-5.47,-2.06,10.84
14.390353918075562,-10.22,-7.35,0.37,12.59
14.391417026519775,-8.65,-8.69,1.8,12.39
14.406028985977173,-6.35,-8.71,2.28,11.01
14.437106847763062,-4.73,-8.05,2.28,9.61
14.438256978988647,-3.66,-7.4,1.39,8.37
14.439087152481079,-3.24,-7.18,0.37,7.88
14.457995176315308,-3.25,-7.05,-0.01,7.76
14.459034204483032,-3.54,-6.91,-0.15,7.76
14.473556995391846,-3.89,-6.92,-0.37,7.94
14.474606990814209,-4.15,-7.0,-1.0,8.19
14.490437984466553,-4.17,-7.02,-1.46,8.29
14.491481065750122,-3.55,-6.88,-1.66,7.91
14.50625491142273,-2.55,-6.78,-1.79,7.46
14.534854173660278,-1.43,-6.7,-1.9,7.1
14.536012887954712,-0.52,-6.47,-1.93,6.77
14.536823987960815,0.07,-6.0,-2.66,6.56
14.557737112045288,0.57,-5.34,-2.17,5.79
14.558809041976929,0.81,-4.34,-1.02,4.53
14.573471069335938,1.14,-3.14,-0.55,3.38
14.574445962905884,2.12,-2.07,0.03,2.96
14.590411901473999,3.52,0.29,1.5,3.83
14.591409921646118,4.42,3.3,3.22,6.38
14.606260061264038,4.28,6.5,3.62,8.58
14.634907960891724,3.75,10.8,3.09,11.84
14.636067152023315,4.31,14.59,1.55,15.29
14.636857986450195,6.22,15.81,-0.6,17.0
14.653544187545776,8.75,14.73,-2.06,17.25
14.654425859451294,11.46,12.04,-2.21,16.76
14.67371916770935,12.88,9.59,-0.6,16.06
14.674779176712036,12.11,8.0,0.78,14.53
14.690621137619019,11.45,6.69,1.89,13.39
14.691595077514648,10.82,6.89,2.96,13.16
14.706151008605957,9.93,6.81,3.46,12.52
14.707648992538452,8.46,5.72,3.69,10.85
14.751599073410034,3.54,4.24,1.88,5.83
14.752771139144897,-4.82,0.26,-1.99,5.22
14.753783941268921,-13.08,-1.04,-2.95,13.44
14.7742760181427,-13.49,6.25,1.45,14.93
14.775352001190186,-3.39,13.56,7.02,15.64
14.790475130081177,4.09,9.14,-0.41,10.02
14.791535139083862,7.07,0.12,-3.66,7.96
14.807610034942627,9.24,-1.3,2.93,9.78
14.808682203292847,10.34,1.69,2.71,10.82
14.822896003723145,8.49,0.52,-1.6,8.65
14.855590105056763,5.89,-0.72,-3.1,6.69
14.856850862503052,4.71,-1.69,-2.29,5.5
14.857848882675171,5.08,-1.93,-1.18,5.56
14.874192953109741,4.9,-1.13,1.7,5.3
14.875262975692749,3.33,0.05,2.81,4.35
14.890744924545288,1.41,0.68,1.75,2.34
14.891736030578613,-0.25,0.49,1.27,1.38
14.907175064086914,-0.78,0.05,1.98,2.12
14.90854811668396,-0.07,-0.25,2.03,2.04
14.923343896865845,0.7,-0.24,1.22,1.42
14.956237077713013,1.25,0.0,-0.13,1.25
14.957556962966919,1.98,0.21,-1.1,2.27
14.958561182022095,2.55,0.26,-1.48,2.95
14.974353075027466,2.3,0.23,-1.22,2.61
14.975425004959106,1.13,0.08,-0.35,1.18
14.990620851516724,-0.63,-0.32,0.65,0.96
14.99168610572815,-1.52,-0.65,0.99,1.92
15.007478952407837,-1.02,-0.34,0.2,1.09
15.008936166763306,-0.09,0.33,-0.43,0.54
15.022889852523804,0.38,0.63,-0.41,0.84
15.052892923355103,0.32,0.55,-0.38,0.74
15.05410885810852,-0.11,0.33,-0.6,0.69
15.054931879043579,-0.76,0.21,-0.98,1.25
15.074082136154175,-1.39,0.37,-0.98,1.74
15.075051069259644,-1.78,0.62,-0.33,1.91
15.090569019317627,-1.99,0.59,-0.12,2.07
15.091629028320312,-1.87,0.52,-0.19,1.95
15.107306003570557,-1.41,0.56,-0.13,1.52
15.108332872390747,-0.92,0.42,-0.12,1.01
15.12288784980774,-0.71,0.14,-0.21,0.75
15.153501033782959,-0.62,-0.08,-0.06,0.62
15.154728174209595,-0.6,-0.05,-0.12,0.61
15.155543088912964,-0.78,-0.01,-0.33,0.84
15.174437999725342,-0.86,0.01,-0.44,0.96
15.175472021102905,-1.04,0.14,-0.42,1.13
15.190551996231079,-1.53,0.42,-0.55,1.67
15.191577196121216,-1.84,0.85,-0.24,2.04
15.20704698562622,-1.92,1.13,0.09,2.22
15.208101987838745,-2.17,1.36,0.38,2.58
15.223134994506836,-2.69,1.48,0.59,3.12
15.252156972885132,-3.36,1.6,0.49,3.75
15.253385066986084,-3.86,1.71,-0.1,4.22
15.254194974899292,-3.77,1.98,-0.48,4.28
15.275634050369263,-3.31,2.55,-1.29,4.37
15.276676893234253,-2.99,3.15,-2.16,4.85
15.29064393043518,-3.36,3.6,-2.45,5.5
15.291691064834595,-4.11,4.09,-2.29,6.23
15.307352066040039,-5.14,4.87,-2.21,7.41
15.308397054672241,-6.37,5.63,-2.16,8.77
15.323261976242065,-7.12,6.19,-1.81,9.6
15.351953029632568,-7.66,6.8,-2.3,10.49
15.353049993515015,-8.78,7.24,-3.9,12.02
15.35384202003479,-9.28,7.85,-4.06,12.81
15.374268054962158,-8.88,8.28,-3.94,12.76
15.375338077545166,-8.15,8.27,-4.94,12.61
15.390689134597778,-7.67,9.29,-5.54,13.25
15.391753911972046,-7.02,10.97,-4.72,13.85
15.407385110855103,-5.05,11.64,-2.93,13.02
15.408438920974731,-3.23,11.55,-1.29,12.06
15.423194169998169,-4.0,9.26,-1.37,10.17
15.45067286491394,-6.11,5.13,-2.46,8.34
15.451843023300171,-6.16,1.18,-2.88,6.9
15.452616930007935,-3.56,-2.12,-2.51,4.84
15.454775094985962,1.23,-0.82,-0.61,1.59
15.455952882766724,5.59,0.03,1.76,5.86
15.457152128219604,5.27,-1.35,1.24,5.57
15.467305898666382,0.52,-2.11,-1.04,2.4
15.477420091629028,-5.14,-2.98,-1.81,6.21
15.487464189529419,-9.05,-4.64,-1.29,10.25
15.497320890426636,-10.67,-6.58,0.8,12.56
15.507150888442993,-9.74,-7.97,2.49,12.82
15.536622047424316,-7.41,-7.86,2.95,11.19
15.537564039230347,-5.31,-7.35,2.84,9.5
15.538384199142456,-3.94,-7.11,2.42,8.48
15.557870149612427,-3.33,-6.99,1.81,7.95
15.55870795249939,-3.13,-6.87,1.25,7.65
15.57412314414978,-3.31,-7.05,0.74,7.82
15.576444864273071,-3.75,-7.29,0.25,8.2
15.590744018554688,-4.18,-7.37,-0.29,8.47
15.596412897109985,-4.34,-7.27,-0.76,8.5
15.60641884803772,-3.87,-7.13,-1.02,8.17
15.636968851089478,-2.87,-6.98,-1.2,7.64
15.638129949569702,-1.86,-6.93,-0.93,7.23
15.638952016830444,-1.12,-6.76,-1.21,6.95
15.658092021942139,-0.55,-6.38,-1.79,6.64
15.659151077270508,-0.19,-5.79,-1.06,5.88
15.673969030380249,-0.14,-4.77,-0.21,4.77
15.675676107406616,0.23,-3.61,0.0,3.61
15.69088101387024,1.67,-2.51,-0.02,3.01
15.695647954940796,3.04,-0.34,1.11,3.25
15.706559896469116,3.72,2.56,2.62,5.22
15.738739967346191,3.82,5.56,3.0,7.38
15.739822149276733,3.57,8.99,2.56,10.0
15.740645170211792,4.06,11.75,1.4,12.51
15.758465051651001,6.03,12.71,0.07,14.06
15.759559869766235,8.51,12.94,-0.76,15.5
15.773458003997803,11.22,11.74,-1.19,16.28
15.774965047836304,12.89,9.37,-1.88,16.04
15.79101014137268,12.12,7.88,-1.49,14.53
15.794893026351929,10.62,6.76,-0.46,12.59
15.805073976516724,11.01,5.38,0.55,12.26
15.83775019645691,11.34,5.22,1.24,12.54
15.838804006576538,9.57,7.64,1.69,12.36
15.839598894119263,5.93,5.32,1.76,8.15
15.858295202255249,-1.68,1.73,-1.14,2.66
15.859381914138794,-11.21,-0.09,-4.33,12.01
15.874023199081421,-17.34,1.8,-2.57,17.62
15.875115156173706,-13.54,11.92,6.05,19.02
15.888373136520386,-1.62,15.55,7.25,17.23
15.893928050994873,3.96,7.87,-2.64,9.19
15.906080961227417,6.29,-1.41,-0.71,6.48
15.943490028381348,7.51,-5.12,3.29,9.66
15.94466519355774,8.78,-2.73,2.69,9.58
15.945460081100464,8.3,-0.92,-0.5,8.36
15.958160161972046,7.07,-0.32,-3.35,7.83
15.959218978881836,6.33,0.69,-3.81,7.42
15.974127054214478,5.9,0.63,-2.69,6.51
15.975167989730835,5.53,0.14,-1.36,5.69
15.991216897964478,4.4,-0.04,0.04,4.4
15.993304967880249,2.56,0.43,1.29,2.89
16.00632905960083,0.99,0.56,2.65,2.88
16.04095196723938,-0.08,0.04,3.48,3.48
16.042032957077026,-0.73,-0.34,3.16,3.26
16.042787075042725,-0.61,-0.34,2.1,2.21
16.05825114250183,0.22,-0.18,0.79,0.83
16.059279203414917,1.22,-0.18,-0.34,1.27
16.073932886123657,1.87,-0.18,-1.0,2.12
16.074876070022583,2.05,-0.1,-1.34,2.45
16.091036081314087,1.8,0.0,-1.42,2.29
16.092629194259644,1.35,0.0,-1.27,1.85
16.105929136276245,0.86,0.0,-0.57,1.03
16.142024993896484,0.2,0.09,0.41,0.46
16.143126010894775,-0.7,0.16,0.94,1.18
16.143935918807983,-1.35,0.19,1.2,1.81
16.159106969833374,-1.33,0.14,0.75,1.53
16.160130977630615,-0.75,0.09,0.01,0.75
16.17421793937683,-0.35,0.04,-0.65,0.73
16.175148010253906,-0.5,0.04,-1.16,1.26
16.190693140029907,-0.83,0.15,-1.06,1.35
16.191787004470825,-1.04,0.32,-0.55,1.21
16.206789016723633,-1.13,0.47,-0.2,1.24
16.24058699607849,-1.1,0.47,0.03,1.19
16.24170207977295,-1.11,0.41,-0.06,1.18
16.242496967315674,-1.27,0.35,-0.14,1.32
16.243360996246338,-1.52,0.29,-0.33,1.58
16.251650094985962,-1.61,0.22,-0.61,1.73
16.261854887008667,-1.36,0.13,-0.76,1.56
16.271605014801025,-0.98,0.13,-0.9,1.33
16.281589031219482,-0.8,0.23,-0.94,1.25
16.291353940963745,-0.81,0.3,-1.03,1.34
16.301186084747314,-1.14,0.47,-1.03,1.6
16.31145215034485,-1.62,0.71,-0.88,1.97
16.344990015029907,-1.92,0.8,-0.84,2.24
16.346104860305786,-2.1,0.82,-0.96,2.45
16.346930980682373,-2.38,0.9,-0.82,2.67
16.358619928359985,-2.76,1.04,-0.58,3.0
16.36072087287903,-3.16,1.63,-0.93,3.67
16.373955965042114,-3.18,2.41,-0.91,4.09
16.38074517250061,-2.98,3.06,-0.62,4.31
16.390989065170288,-3.16,3.55,-0.87,4.83
16.40070104598999,-3.51,3.69,-1.04,5.19
16.41069197654724,-4.15,3.86,-1.26,5.8
16.444382905960083,-4.87,4.16,-1.52,6.58
16.445523023605347,-5.37,4.72,-1.86,7.38
16.44635319709778,-6.22,5.76,-2.51,8.84
16.458616971969604,-7.27,6.69,-3.09,10.35
16.459872007369995,-8.07,7.47,-3.15,11.43
16.474323987960815,-8.81,8.71,-3.06,12.76
16.47988200187683,-9.92,10.26,-4.29,14.9
16.48975896835327,-10.73,10.3,-6.64,16.28
16.49985909461975,-9.93,8.64,-6.52,14.68
16.50991201400757,-9.09,7.31,-7.14,13.67
16.543298959732056,-8.29,8.41,-6.43,13.44
16.54435420036316,-6.74,10.63,-3.72,13.12
16.545168161392212,-4.45,11.9,-2.15,12.88
16.55877709388733,-4.39,9.77,-2.66,11.03
16.559860944747925,-5.64,5.2,-3.49,8.42
16.574383020401,-4.9,0.86,-3.5,6.08
16.579105138778687,-2.58,-1.79,-3.39,4.62
16.591161966323853,1.96,-0.11,-1.78,2.64
16.599115133285522,4.81,-0.77,0.24,4.87
16.609225034713745,3.72,-2.56,-0.85,4.59
16.644432067871094,-0.38,-2.98,-2.34,3.8
16.64553713798523,-4.91,-3.68,-2.62,6.67
16.64635396003723,-8.17,-5.34,-2.19,10.0
16.658262968063354,-9.42,-6.66,-0.44,11.54
16.65938115119934,-8.17,-7.74,0.87,11.28
16.674535036087036,-6.08,-8.07,1.26,10.18
16.67839002609253,-4.63,-7.73,1.39,9.11
16.689510107040405,-3.74,-7.18,1.27,8.19
16.698431968688965,-3.44,-6.72,0.9,7.6
16.708287000656128,-3.57,-6.53,0.64,7.46
16.74820303916931,-3.75,-6.68,0.58,7.68
16.74948000907898,-3.83,-6.99,0.48,7.98
16.750331163406372,-3.98,-7.09,-0.04,8.13
16.751185178756714,-4.07,-6.92,-0.53,8.04
16.774555921554565,-3.69,-6.67,-0.68,7.65
16.77561116218567,-2.91,-6.44,-0.84,7.11
16.791287183761597,-2.01,-6.25,-1.0,6.64
16.792330026626587,-1.25,-6.04,-1.16,6.27
16.806835889816284,-0.71,-5.6,-1.99,5.98
16.808300971984863,-0.32,-4.89,-1.87,5.24
16.85239005088806,-0.15,-3.75,-0.87,3.85
16.853374004364014,0.29,-2.51,-0.46,2.56
16.854132890701294,2.0,-1.48,-0.54,2.54
16.875365018844604,4.05,0.46,0.23,4.08
16.876432180404663,4.97,3.37,1.95,6.31
16.891495943069458,4.79,6.7,2.7,8.66
16.892554998397827,4.26,10.47,2.25,11.52
16.906970024108887,4.78,13.83,0.97,14.66
16.90812397003174,6.86,15.28,-0.15,16.74
16.92178702354431,9.8,13.58,-0.79,16.76
16.95037603378296,12.14,10.78,-1.81,16.33
16.95153498649597,12.58,8.73,-1.26,15.36
16.952352046966553,10.94,7.85,-0.06,13.46
16.954784154891968,10.24,7.54,1.22,12.77
16.956164121627808,11.27,6.51,2.47,13.24
16.96610403060913,12.82,5.26,2.91,14.15
16.976364850997925,12.86,4.81,3.15,14.08
16.986199140548706,8.31,5.66,3.03,10.5
16.99620795249939,3.0,6.22,2.55,7.36
17.00619912147522,-1.28,1.8,1.72,2.79
17.04354214668274,-8.23,-5.18,-1.13,9.78
17.04450011253357,-16.61,-5.05,-2.83,17.58
17.045357942581177,-18.18,7.4,3.03,19.86
17.059159994125366,-5.15,18.47,10.42,21.82
17.060204029083252,4.63,11.76,-1.14,12.68
17.074651956558228,8.01,-0.62,-4.62,9.26
17.075700998306274,10.1,-1.65,4.74,11.27
17.090878009796143,10.54,1.45,2.7,10.97
17.095256090164185,9.42,0.13,-1.82,9.59
17.10730504989624,7.26,-1.56,-3.42,8.17
17.11563205718994,6.45,-1.14,-2.78,7.11
17.154344081878662,6.17,-0.82,-3.05,6.93
17.155384063720703,5.27,-0.59,-1.35,5.47
17.156190156936646,3.46,-0.31,0.55,3.51
17.175153017044067,1.87,0.08,1.18,2.21
17.17615294456482,0.75,0.15,2.1,2.23
17.191465139389038,-0.05,0.02,3.35,3.35
17.1925208568573,-0.3,-0.13,3.48,3.49
17.20852494239807,0.53,-0.07,1.91,1.98
17.20955801010132,1.52,0.0,0.75,1.69
17.224146127700806,1.82,0.01,0.24,1.83
17.25632405281067,1.45,0.01,0.12,1.45
17.257390022277832,0.74,-0.07,-0.26,0.78
17.258225202560425,0.84,-0.38,-1.25,1.55
17.27530789375305,1.17,-0.55,-1.92,2.31
17.276373147964478,1.03,-0.31,-1.19,1.6
17.291728019714355,0.42,0.2,0.42,0.62
17.292798042297363,-0.33,0.44,0.89,1.04
17.306972980499268,-0.77,0.44,0.42,0.98
17.307985067367554,-0.76,0.36,0.04,0.84
17.324326038360596,-0.8,0.23,-0.12,0.84
17.353627920150757,-0.96,0.28,-0.55,1.14
17.354816198349,-1.22,0.38,-0.93,1.58
17.355632066726685,-1.54,0.36,-0.91,1.82
17.374919176101685,-1.8,0.34,-0.66,1.94
17.375917196273804,-1.8,0.33,-0.33,1.85
17.39172911643982,-1.6,0.28,-0.12,1.62
17.39274001121521,-1.44,0.07,0.05,1.44
17.408063173294067,-1.55,-0.15,-0.26,1.57
17.40904998779297,-1.55,-0.06,-0.65,1.68
17.42395520210266,-1.22,0.29,-0.74,1.45
17.453566074371338,-0.93,0.56,-1.0,1.47
17.454730987548828,-0.84,0.62,-1.15,1.55
17.455533027648926,-0.98,0.44,-1.1,1.53
17.47504496574402,-1.4,0.32,-1.01,1.75
17.475911855697632,-1.96,0.42,-0.81,2.16
17.491737127304077,-2.41,0.5,-0.7,2.55
17.492783069610596,-2.58,0.89,-0.42,2.76
17.508343935012817,-2.37,1.44,-0.18,2.77
17.509409189224243,-2.41,2.09,-0.24,3.19
17.523874044418335,-2.87,3.34,-0.1,4.4
17.551578998565674,-3.26,3.61,-0.12,4.86
17.55276894569397,-3.82,3.27,-0.36,5.04
17.55355715751648,-4.25,3.1,-0.49,5.28
17.5559241771698,-4.5,3.45,-1.02,5.76
17.56161904335022,-4.86,4.05,-1.67,6.54
17.572088956832886,-5.36,4.68,-2.31,7.48
17.581840991973877,-6.22,5.78,-2.79,8.93
17.59180498123169,-7.19,6.99,-2.89,10.43
17.601539850234985,-7.91,8.14,-3.03,11.74
17.611564874649048,-8.62,9.3,-3.51,13.15
17.64919686317444,-8.96,10.18,-3.48,14.0
17.65035319328308,-8.53,10.24,-3.72,13.83
17.651182889938354,-8.62,9.1,-6.27,14.01
17.65479803085327,-9.61,8.7,-7.08,14.77
17.675342082977295,-9.51,9.25,-4.25,13.93
17.676396131515503,-7.06,10.69,-1.11,12.85
17.691704034805298,-5.06,11.45,-0.15,12.51
17.69276213645935,-5.02,8.09,-0.76,9.55
17.707327127456665,-4.59,3.3,-2.44,6.15
17.710612058639526,-3.64,-0.84,-4.33,5.71
17.75037693977356,-1.43,-2.24,-4.13,4.91
17.7513370513916,2.67,-1.03,-1.75,3.35
17.752771139144897,3.85,-1.83,-0.68,4.31
17.754771947860718,1.68,-2.63,-2.4,3.93
17.760159015655518,-3.04,-3.19,-3.64,5.71
17.77047300338745,-7.58,-4.07,-2.94,9.09
17.780323028564453,-10.26,-5.21,-0.89,11.54
17.790349006652832,-10.05,-6.71,1.05,12.12
17.800170183181763,-7.39,-7.75,1.98,10.89
17.81002688407898,-5.02,-7.65,2.71,9.54
17.846758127212524,-3.67,-7.06,2.89,8.46
17.847738027572632,-3.27,-6.55,1.72,7.52
17.848546028137207,-3.28,-6.51,0.45,7.3
17.85810899734497,-3.4,-6.57,-0.08,7.39
17.859431982040405,-3.5,-6.34,-0.09,7.24
17.87512516975403,-3.43,-5.92,-0.19,6.84
17.87942385673523,-3.38,-5.4,-0.89,6.43
17.891692876815796,-3.31,-4.93,-1.55,6.13
17.899322986602783,-2.87,-4.7,-1.8,5.79
17.909214973449707,-2.06,-4.78,-1.93,5.55
17.91926908493042,-1.1,-4.86,-1.89,5.32
17.951004028320312,-0.28,-4.72,-2.34,5.27
17.951967000961304,0.44,-4.42,-1.87,4.81
17.95321488380432,0.71,-3.67,-0.54,3.77
17.958688974380493,0.83,-2.92,-0.17,3.04
17.968473196029663,1.96,-2.2,-0.35,2.96
17.978924989700317,3.86,-0.67,0.52,3.95
17.988826036453247,5.19,1.37,2.59,5.95
17.99868607521057,5.45,3.35,3.33,7.21
18.008536100387573,5.06,5.87,2.64,8.18
18.018465042114258,4.88,8.71,1.52,10.09
18.052775144577026,5.94,10.95,0.06,12.45
18.053694009780884,7.87,12.11,-0.85,14.46
18.054512977600098,10.02,11.0,-0.78,14.89
18.075822114944458,11.61,9.06,-0.46,14.73
18.07691502571106,11.51,7.93,0.27,13.97
18.091942071914673,10.51,6.87,1.19,12.61
18.092957019805908,9.78,5.61,2.1,11.46
18.10906195640564,9.55,4.4,2.89,10.9
18.110085010528564,9.77,3.8,3.14,10.94
18.1245219707489,9.6,3.81,2.79,10.69
18.154844999313354,6.98,5.67,2.16,9.24
18.155920028686523,3.42,3.78,1.07,5.2
18.15673804283142,-1.73,-0.32,-1.47,2.29
18.1755211353302,-10.24,-3.23,-4.45,11.62
18.176585912704468,-15.8,1.59,-3.39,16.23
18.191888093948364,-9.82,15.06,4.68,18.57
18.192929983139038,0.46,16.2,6.62,17.5
18.208359003067017,4.02,6.72,-2.68,8.27
18.20939612388611,5.85,-1.68,-0.99,6.16
18.225210905075073,8.24,-0.59,4.1,9.22
18.25450110435486,9.35,0.95,2.84,9.81
18.256391048431396,7.93,-1.38,0.03,8.04
18.25722098350525,6.75,-1.74,-1.43,7.11
18.275768995285034,5.79,-1.15,-1.64,6.12
18.276812076568604,5.25,-0.62,-2.02,5.65
18.292075872421265,4.4,-0.25,-0.91,4.5
18.293125867843628,2.81,0.06,0.58,2.86
18.30843710899353,1.61,0.39,0.99,1.92
18.309460878372192,0.87,0.38,1.16,1.49
18.3234760761261,0.24,0.11,1.64,1.66
18.352996110916138,0.29,-0.11,2.03,2.05
18.3542320728302,0.93,-0.17,1.4,1.68
18.355054140090942,1.53,-0.22,0.41,1.59
18.376001119613647,1.99,-0.23,-0.27,2.02
18.37704110145569,1.87,-0.16,-0.59,1.96
18.39209818840027,1.58,0.11,-0.59,1.69
18.393043994903564,1.06,0.13,-0.32,1.11
18.408639192581177,0.43,-0.21,-0.03,0.47
18.409680128097534,0.13,-0.56,-0.01,0.57
18.424787044525146,-0.13,-0.48,0.09,0.5
18.45676589012146,-0.45,0.04,0.38,0.59
18.45798087120056,-0.48,0.45,0.38,0.75
18.458718061447144,-0.16,0.46,-0.01,0.48
18.476203203201294,-0.04,0.29,-0.22,0.36
18.477248907089233,-0.44,0.18,-0.4,0.62
18.492334127426147,-0.98,0.17,-0.6,1.16
18.493396997451782,-1.04,0.22,-0.61,1.22
18.508631944656372,-1.01,0.31,-0.51,1.17
18.509666204452515,-1.08,0.46,-0.44,1.25
18.524576902389526,-0.98,0.6,-0.19,1.16
18.55659008026123,-0.68,0.59,-0.03,0.9
18.55769419670105,-0.48,0.37,-0.09,0.61
18.55848503112793,-0.4,0.14,-0.09,0.43
18.57565712928772,-0.52,0.05,-0.05,0.52
18.576714038848877,-0.91,0.19,-0.17,0.94
18.59093689918518,-1.25,0.31,-0.57,1.4
18.591954946517944,-1.55,0.35,-0.99,1.87
18.608527898788452,-1.88,0.3,-1.15,2.22
18.609503030776978,-1.93,0.3,-1.06,2.22
18.6245858669281,-1.87,0.5,-1.05,2.2
18.653050184249878,-2.03,0.95,-0.67,2.33
18.654176950454712,-2.51,1.34,-0.37,2.86
18.654977083206177,-2.92,1.79,-0.31,3.43
18.675873041152954,-2.98,2.63,-0.16,3.97
18.676940202713013,-2.9,2.73,-0.49,4.01
18.692327976226807,-3.04,2.8,-0.45,4.15
18.693346977233887,-3.35,2.87,-0.67,4.46
18.708922147750854,-3.69,3.19,-1.08,4.99
18.709928035736084,-4.14,3.54,-1.46,5.63
18.72439408302307,-4.64,3.89,-1.7,6.28
18.725609064102173,-5.31,4.31,-1.94,7.1
18.770815134048462,-6.3,5.11,-2.27,8.42
18.77199387550354,-7.67,6.19,-2.65,10.2
18.77279305458069,-8.95,7.31,-2.95,11.92
18.792703866958618,-9.81,8.54,-2.8,13.3
18.793760061264038,-10.59,9.45,-3.23,14.55
18.808727025985718,-10.88,9.31,-4.03,14.87
18.809746026992798,-10.45,8.4,-4.56,14.16
18.825695991516113,-10.06,8.14,-5.5,14.06
18.826727151870728,-8.27,9.72,-4.6,13.56
18.84175992012024,-4.82,11.65,-2.97,12.95
18.873154878616333,-2.46,12.0,-2.06,12.42
18.87444519996643,-2.56,8.94,-1.92,9.49
18.8754780292511,-3.36,4.46,-2.32,6.04
18.89287805557251,-3.75,0.22,-2.98,4.79
18.893959999084473,-3.33,-3.66,-3.11,5.84
18.90902304649353,-0.01,-3.09,-1.52,3.44
18.910070180892944,3.42,-1.37,0.65,3.74
18.925562143325806,3.15,-2.5,-0.44,4.04
18.92661213874817,-0.27,-3.34,-2.03,3.91
18.941410064697266,-4.65,-3.93,-2.31,6.51
18.970595121383667,-8.26,-5.55,-1.6,10.07
18.97177505493164,-9.93,-6.92,0.2,12.1
18.97258687019348,-9.15,-7.96,1.76,12.25
18.992664098739624,-7.28,-8.44,2.32,11.38
18.99373197555542,-5.71,-7.94,2.31,10.04
19.0090229511261,-4.43,-7.15,1.79,8.59
19.010117053985596,-3.46,-6.48,1.14,7.43
19.02561593055725,-3.07,-5.8,0.9,6.62
19.026655912399292,-3.13,-5.44,0.93,6.34
19.041640043258667,-3.48,-5.57,0.66,6.6
19.07349705696106,-3.94,-5.77,0.09,6.98
19.074822187423706,-4.02,-5.85,-0.33,7.1
19.07580590248108,-3.55,-5.81,-0.76,6.85
19.09334707260132,-2.83,-5.74,-1.11,6.49
19.09437584877014,-1.93,-5.74,-1.02,6.14
19.109137058258057,-1.04,-5.73,-1.17,5.93
19.11012601852417,-0.4,-5.34,-1.85,5.66
19.125763177871704,0.07,-4.53,-1.13,4.66
19.12723708152771,0.24,-3.18,-0.13,3.19
19.141441106796265,0.82,-2.05,0.15,2.21
19.1706280708313,3.06,-0.77,-0.49,3.19
19.171950101852417,5.54,1.57,-0.78,5.81
19.172738075256348,6.84,4.76,0.09,8.33
19.19293713569641,6.94,8.04,0.44,10.63
19.19395089149475,6.62,11.16,0.12,12.97
19.20688509941101,7.33,13.95,-0.6,15.76
19.207995176315308,9.21,13.89,-1.09,16.7
19.22579312324524,11.2,11.47,-1.67,16.11
19.22687602043152,12.05,9.73,-0.91,15.51
19.241564989089966,10.9,8.56,0.88,13.88
19.273421049118042,9.7,7.23,2.51,12.35
19.274606943130493,9.62,5.62,4.1,11.87
19.27544617652893,9.77,5.23,5.08,12.19
19.29346489906311,8.77,6.87,4.51,12.01
19.29448699951172,7.19,6.02,4.27,10.3
19.308948040008545,2.52,3.22,2.13,4.61
19.309984922409058,-5.72,-0.42,-2.39,6.21
19.3262300491333,-13.94,-1.05,-4.06,14.55
19.32774519920349,-16.35,4.87,1.29,17.1
19.341715097427368,-5.61,12.19,10.72,17.17
19.372282028198242,4.2,9.99,2.97,11.23
19.3734769821167,6.84,2.99,-3.73,8.34
19.374325037002563,7.52,-1.65,1.88,7.92
19.393265962600708,7.84,0.3,3.13,8.44
19.3942768573761,7.53,2.06,0.37,7.81
19.409056901931763,6.47,0.83,-3.38,7.34
19.410115957260132,5.95,-0.97,-4.07,7.27
19.42593002319336,6.28,-1.48,-2.91,7.07
19.426990032196045,6.69,-1.07,-2.16,7.11
19.441506147384644,5.53,-0.45,-0.42,5.56
19.47064518928528,3.1,0.44,1.24,3.36
19.471789121627808,0.79,0.66,2.22,2.44
19.472595930099487,-0.7,0.1,3.03,3.11
19.493218183517456,-1.16,-0.21,3.55,3.74
19.494311094284058,-0.51,-0.3,2.78,2.84
19.509059190750122,0.77,-0.36,1.07,1.36
19.51010012626648,1.96,-0.37,-0.14,1.99
19.526005029678345,2.51,-0.17,-0.98,2.69
19.527021169662476,2.44,0.14,-0.95,2.62
19.5418221950531,1.79,0.16,-0.86,1.99
19.543298959732056,1.01,-0.05,-0.7,1.22
19.58873701095581,0.82,-0.41,-0.5,1.04
19.589686155319214,0.86,-0.64,-0.34,1.12
19.590515851974487,0.57,-0.36,0.0,0.67
19.60979700088501,-0.01,0.24,0.83,0.86
19.610831022262573,-0.5,0.51,0.8,1.07
19.62565016746521,-0.56,0.41,-0.05,0.69
19.62668490409851,-0.19,0.18,-0.26,0.36
19.64285111427307,-0.1,-0.06,-0.21,0.24
19.64425492286682,-0.46,0.04,-0.21,0.5
19.658339023590088,-0.9,0.34,-0.21,0.98
19.68876814842224,-1.06,0.54,-0.06,1.19
19.689893007278442,-1.05,0.49,0.16,1.16
19.690702199935913,-1.06,0.33,0.18,1.12
19.709934949874878,-1.21,0.22,0.21,1.24
19.71100687980652,-1.69,0.06,0.09,1.69
19.725818872451782,-2.1,-0.06,-0.36,2.13
19.726802110671997,-2.14,0.08,-0.59,2.22
19.74281907081604,-2.12,0.46,-0.91,2.35
19.743830919265747,-2.28,0.7,-1.52,2.82
19.75847315788269,-2.48,0.54,-1.82,3.12
19.788312196731567,-2.56,0.29,-1.92,3.21
19.789453983306885,-2.53,0.31,-1.73,3.08
19.790292978286743,-2.4,0.52,-1.21,2.73
19.809953927993774,-2.15,0.76,-0.87,2.44
19.810957193374634,-2.01,1.2,-0.54,2.4
19.826922178268433,-2.08,1.53,-0.47,2.62
19.827924966812134,-2.29,1.98,-0.14,3.03
19.843038082122803,-2.7,2.4,-0.08,3.61
19.844027996063232,-3.31,3.06,-0.54,4.53
19.858111143112183,-3.4,3.34,-0.72,4.82
19.885690927505493,-3.41,3.32,-0.93,4.84
19.88681387901306,-3.75,3.52,-1.32,5.3
19.887619018554688,-4.17,3.84,-1.6,5.89
19.88994598388672,-4.56,4.47,-1.83,6.64
19.89112901687622,-5.62,5.45,-2.07,8.09
19.892436981201172,-7.06,6.44,-2.24,9.81
19.89461588859558,-8.35,7.19,-2.72,11.34
19.90465497970581,-9.64,7.84,-3.42,12.88
19.914802074432373,-10.19,8.51,-3.25,13.66
19.924609899520874,-9.85,8.51,-3.44,13.46
19.958734035491943,-9.3,7.83,-4.82,13.07
19.959691047668457,-9.34,7.47,-5.5,13.16
19.96039891242981,-8.28,8.12,-4.16,12.32
19.975087881088257,-5.05,8.84,-2.09,10.39
19.975939989089966,-1.97,9.9,-1.2,10.16
19.992537021636963,-1.81,9.03,-1.34,9.3
19.993837118148804,-3.03,5.18,-2.09,6.35
20.009664058685303,-3.61,1.38,-3.33,5.1
20.013846158981323,-3.31,-2.39,-4.14,5.81
20.024705171585083,-0.55,-2.59,-2.94,3.95
20.058799982070923,2.86,-1.19,-0.83,3.2
20.05988097190857,2.74,-1.5,-0.99,3.27
20.060697078704834,0.34,-1.99,-2.04,2.87
20.076528072357178,-4.08,-3.01,-2.55,5.67
20.07735800743103,-7.89,-4.6,-2.28,9.41
20.09294605255127,-9.56,-6.13,-0.37,11.36
20.094002962112427,-8.83,-7.52,1.43,11.68
20.1095290184021,-6.77,-7.86,1.89,10.54
20.11318302154541,-5.07,-7.16,1.96,8.98
20.124819040298462,-3.89,-6.44,1.61,7.69
20.158679008483887,-3.47,-6.1,0.83,7.06
20.159767866134644,-3.43,-5.92,0.46,6.85
20.160590887069702,-3.41,-5.75,0.36,6.69
20.176486015319824,-3.56,-5.66,0.06,6.68
20.177311182022095,-3.82,-5.58,-0.55,6.78
20.193959951400757,-3.98,-5.41,-1.2,6.82
20.19499897956848,-3.79,-5.16,-1.72,6.62
20.209787130355835,-3.06,-5.05,-2.06,6.25
20.21233296394348,-1.82,-5.12,-2.07,5.81
20.22487998008728,-0.53,-5.16,-2.02,5.56
20.258800983428955,0.49,-4.99,-2.53,5.61
20.259921073913574,1.26,-4.85,-1.99,5.39
20.260735988616943,1.43,-4.3,-1.33,4.72
20.276686906814575,1.36,-3.44,-1.73,4.08
20.27774691581726,2.63,-2.55,-2.15,4.24
20.292853116989136,4.96,-0.9,-1.24,5.19
20.293916940689087,6.69,1.27,0.53,6.83
20.3095920085907,7.12,3.45,1.51,8.05
20.311604022979736,6.1,5.98,1.22,8.62
20.325314044952393,5.41,9.21,0.1,10.68
20.331629037857056,6.43,12.1,-1.12,13.74
20.36985206604004,8.48,11.86,-1.65,14.67
20.370954990386963,10.35,10.46,-1.67,14.8
20.371723890304565,11.06,9.87,-0.7,14.84
20.37402105331421,11.07,8.62,0.2,14.03
20.381201028823853,10.66,6.72,1.4,12.67
20.39128088951111,10.09,5.8,2.85,11.98
20.40097212791443,8.61,7.61,3.57,12.03
20.41140604019165,7.5,7.84,4.24,11.64
20.420870065689087,5.51,7.1,4.6,10.09
20.430850982666016,-0.51,3.66,1.41,3.95
20.462796926498413,-9.62,-0.17,-2.92,10.05
20.463873147964478,-16.05,1.61,-1.36,16.18
20.46470808982849,-13.46,10.42,6.74,18.3
20.47669816017151,-1.32,11.66,8.34,14.39
20.48028016090393,5.74,3.85,-3.17,7.6
20.490833044052124,8.3,-2.67,-2.78,9.15
20.500314950942993,9.7,-0.5,3.43,10.3
20.510303020477295,10.39,0.5,0.9,10.44
20.520002126693726,9.48,-0.51,-2.17,9.73
20.529937982559204,7.35,-0.93,-2.6,7.85
20.56351900100708,6.05,-0.99,-1.89,6.41
20.564611196517944,5.49,-0.87,-1.84,5.85
20.565453052520752,4.15,-0.12,-0.24,4.15
20.576686143875122,1.98,0.55,1.04,2.3
20.579466104507446,0.34,0.72,1.59,1.77
20.592859029769897,-0.58,0.32,2.25,2.34
20.599443197250366,-0.68,-0.28,2.81,2.9
20.609309911727905,0.33,-0.52,1.96,2.05
20.619396924972534,1.66,-0.53,0.56,1.83
20.629143953323364,2.52,-0.41,-0.5,2.6
20.66045594215393,2.9,-0.1,-0.88,3.03
20.661576986312866,2.5,0.27,-0.77,2.62
20.66237998008728,1.61,0.27,-0.41,1.68
20.67693305015564,0.89,0.08,-0.19,0.91
20.67881417274475,0.45,-0.12,-0.2,0.5
20.691527128219604,0.15,-0.29,-0.07,0.33
20.69896912574768,-0.19,-0.24,0.26,0.4
20.709562063217163,-0.37,0.07,0.63,0.73
20.718780994415283,-0.17,0.36,0.23,0.45
20.72844386100769,0.21,0.31,-0.31,0.48
20.76871418952942,0.26,0.05,-0.58,0.63
20.76980185508728,-0.16,-0.03,-0.83,0.84
20.77059006690979,-0.61,0.16,-0.66,0.91
20.773040056228638,-0.87,0.39,-0.24,0.98
20.778033018112183,-1.03,0.52,0.13,1.16
20.78831696510315,-1.17,0.5,0.41,1.33
20.798182010650635,-1.13,0.36,0.24,1.21
20.80813717842102,-0.93,0.21,0.05,0.95
20.817996978759766,-0.93,0.08,-0.25,0.96
20.827906847000122,-1.14,-0.12,-0.39,1.21
20.865331888198853,-1.34,-0.23,-0.47,1.43
20.86627697944641,-1.6,-0.05,-0.58,1.7
20.86710500717163,-1.78,0.31,-0.78,1.96
20.876978158950806,-1.57,0.65,-0.93,1.93
20.877852201461792,-1.46,0.75,-1.09,1.97
20.89324116706848,-1.69,0.72,-1.04,2.11
20.897202014923096,-1.9,0.63,-0.83,2.16
20.907505989074707,-2.01,0.66,-0.99,2.33
20.917102098464966,-2.0,1.01,-0.83,2.38
20.9270920753479,-1.91,1.47,-0.82,2.54
20.966413974761963,-2.0,1.98,-1.03,2.99
20.967534065246582,-2.08,2.6,-0.96,3.46
20.96849799156189,-2.28,3.04,-1.02,3.93
20.973743200302124,-2.65,3.26,-0.97,4.31
20.976459980010986,-3.06,3.19,-1.1,4.55
20.99342107772827,-3.47,3.31,-1.33,4.97
20.996558904647827,-3.89,3.56,-1.66,5.52
21.009809017181396,-4.21,3.83,-1.96,6.01
21.016541004180908,-4.61,4.34,-2.42,6.77
21.026319980621338,-5.4,5.12,-2.69,7.91
21.066951990127563,-6.53,5.99,-2.96,9.34
21.06803798675537,-8.23,6.89,-3.55,11.3
21.068877935409546,-9.73,8.08,-3.67,13.16
21.07316517829895,-10.22,8.83,-4.21,14.14
21.093410968780518,-9.69,8.52,-5.49,14.02
21.094463109970093,-8.56,7.54,-6.56,13.15
21.109745025634766,-7.94,7.57,-7.63,13.36
21.110780000686646,-7.33,9.76,-6.0,13.6
21.12553095817566,-5.33,11.76,-3.19,13.29
21.12702703475952,-3.09,11.47,-1.94,12.03
21.140944004058838,-3.48,8.08,-2.96,9.28
21.171551942825317,-5.32,4.1,-3.79,7.71
21.172913074493408,-5.55,0.7,-3.21,6.44
21.17369818687439,-3.38,-1.78,-2.16,4.38
21.194591999053955,0.99,0.25,-0.51,1.14
21.195677042007446,3.71,-0.26,1.23,3.91
21.20991587638855,2.47,-2.19,0.42,3.32
21.21095299720764,-1.39,-2.56,-1.19,3.14
21.226908922195435,-5.91,-3.19,-1.6,6.9
21.228373050689697,-9.31,-4.48,-1.03,10.38
21.242708921432495,-10.74,-5.66,1.03,12.18
21.272947072982788,-9.79,-6.55,2.74,12.09
21.274082899093628,-7.34,-6.78,3.31,10.52
21.27489686012268,-5.15,-6.76,3.1,9.04
21.293745040893555,-3.93,-6.65,2.58,8.14
21.29478907585144,-3.51,-6.4,2.04,7.57
21.31013298034668,-3.39,-6.41,1.64,7.43
21.3111732006073,-3.54,-6.65,1.21,7.63
21.32663607597351,-3.87,-6.78,0.62,7.83
21.327666997909546,-4.03,-6.77,0.07,7.87
21.34248185157776,-3.82,-6.6,-0.39,7.63
21.37176489830017,-3.39,-6.48,-0.98,7.37
21.372812032699585,-2.56,-6.44,-1.32,7.05
21.37360692024231,-1.5,-6.45,-1.17,6.72
21.394165992736816,-0.61,-6.32,-1.47,6.51
21.395225048065186,0.01,-5.96,-2.28,6.38
21.409947156906128,0.41,-5.47,-1.77,5.76
21.41099500656128,0.51,-4.61,-0.56,4.67
21.426531076431274,0.68,-3.49,-0.27,3.56
21.427573919296265,1.81,-2.47,-0.22,3.07
21.442625045776367,3.23,-0.39,1.2,3.46
21.47103190422058,4.02,2.87,3.26,5.91
21.472166061401367,4.19,6.51,4.33,8.87
21.47296690940857,4.12,10.27,4.44,11.92
21.49388289451599,4.76,13.63,3.45,14.84
21.494928121566772,6.51,15.32,1.33,16.69
21.50740694999695,8.98,15.11,-1.19,17.61
21.508493185043335,11.5,12.89,-3.02,17.53
21.527144193649292,12.62,10.15,-2.28,16.35
21.528188943862915,10.21,10.23,-0.46,14.46
21.54236102104187,9.84,8.49,1.29,13.06
21.570689916610718,10.53,6.28,1.8,12.39
21.571833848953247,10.01,6.29,2.03,11.99
21.572646856307983,7.65,6.2,1.74,9.99
21.594186067581177,0.48,2.24,-1.76,2.88
21.595239877700806,-9.75,1.97,-4.61,10.96
21.610214948654175,-12.89,6.01,-0.9,14.25
21.611289978027344,-5.7,8.05,5.99,11.54
21.627207040786743,2.51,4.38,4.34,6.65
21.628671884536743,5.96,0.99,-0.99,6.12
21.642579078674316,7.15,-2.09,1.09,7.52
21.67468500137329,8.28,-1.31,3.65,9.14
21.67599606513977,9.57,1.89,3.01,10.2
21.677000045776367,7.48,1.61,-0.87,7.7
21.694236993789673,5.1,1.46,-2.36,5.8
21.69529700279236,4.1,0.38,-1.1,4.26
21.710033178329468,3.9,-1.01,-0.28,4.03
21.71106219291687,3.61,-1.04,-0.07,3.75
21.726555109024048,2.97,-0.36,0.13,2.99
21.728025197982788,2.26,0.04,0.19,2.26
21.742609977722168,1.73,-0.1,0.85,1.93
21.773308038711548,1.27,-0.33,1.76,2.19
21.774363040924072,0.93,-0.4,2.08,2.31
21.775152921676636,0.83,-0.33,1.25,1.53
21.79420018196106,1.26,-0.22,0.08,1.28
21.795196056365967,1.88,0.0,-0.37,1.91
21.81018090248108,2.21,0.09,-0.54,2.27
21.811259031295776,2.16,0.08,-0.51,2.22
21.826680898666382,1.83,0.04,-0.28,1.85
21.827692985534668,1.4,0.04,0.01,1.4
21.842610120773315,0.96,0.08,0.15,0.97
21.873328924179077,0.46,0.14,0.2,0.52
21.87484908103943,-0.15,0.07,0.33,0.36
21.875691175460815,-0.64,-0.06,0.32,0.71
21.894567012786865,-1.03,-0.08,-0.16,1.04
21.895622968673706,-0.95,0.01,-0.53,1.08
21.910165071487427,-0.55,0.06,-0.77,0.94
21.911207914352417,-0.28,0.14,-0.69,0.75
21.927273988723755,-0.32,0.26,-0.24,0.47
21.92834210395813,-0.74,0.34,0.02,0.81
21.94284415245056,-1.03,0.32,0.18,1.09
21.944359064102173,-1.02,0.27,0.2,1.07
21.989743947982788,-1.08,0.23,0.09,1.1
21.990665197372437,-1.04,0.2,0.01,1.05
21.991480112075806,-0.84,0.13,-0.05,0.85
22.010955095291138,-0.7,0.07,-0.11,0.71
22.011994123458862,-0.76,0.02,-0.3,0.81
22.02572512626648,-0.97,0.08,-0.55,1.11
22.02678108215332,-1.21,0.23,-0.5,1.32
22.04388689994812,-1.37,0.35,-0.46,1.48
22.04536509513855,-1.33,0.31,-0.44,1.43
22.059640169143677,-1.15,0.08,-0.54,1.27
22.089249849319458,-1.13,0.02,-0.64,1.29
22.090513944625854,-1.4,0.09,-0.49,1.48
22.09136199951172,-1.77,0.26,-0.33,1.81
22.110718965530396,-1.97,0.53,-0.37,2.07
22.111744165420532,-1.93,0.72,-0.66,2.16
22.127084970474243,-1.69,0.89,-0.89,2.1
22.12807011604309,-1.45,1.13,-0.98,2.08
22.143519163131714,-1.13,1.53,-1.1,2.19
22.144529104232788,-0.93,2.0,-1.16,2.49
22.16048789024353,-0.9,2.04,-1.18,2.52
22.19047498703003,-1.5,2.57,-1.35,3.26
22.191779851913452,-1.9,2.93,-1.18,3.68
22.19280505180359,-2.29,2.95,-1.12,3.89
22.210949182510376,-3.01,3.29,-1.27,4.63
22.211952924728394,-3.74,3.83,-1.32,5.51
22.227200031280518,-4.18,4.28,-1.53,6.17
22.228258848190308,-4.86,4.81,-1.74,7.05
22.243908166885376,-5.74,5.43,-1.75,8.09
22.24498200416565,-6.82,6.36,-1.79,9.49
22.25985598564148,-8.12,8.01,-1.8,11.54
22.28830599784851,-9.87,9.62,-2.76,14.05
22.289361000061035,-10.85,10.07,-3.6,15.23
22.290173053741455,-10.22,9.36,-3.48,14.28
22.310746908187866,-9.44,8.11,-5.22,13.49
22.311826944351196,-9.43,7.36,-7.11,13.91
22.32712197303772,-8.83,8.14,-5.21,13.09
22.328155040740967,-6.84,9.84,-2.27,12.19
22.344194173812866,-4.58,11.08,-0.07,11.98
22.345649003982544,-4.47,9.55,-0.15,10.54
22.359868049621582,-4.79,5.28,-1.15,7.22
22.3906991481781,-4.18,1.33,-2.05,4.84
22.39263606071472,-2.51,-0.76,-3.2,4.13
22.393654108047485,2.52,1.14,-2.5,3.72
22.410943031311035,6.35,0.83,-1.45,6.56
22.41198992729187,5.25,-0.09,-3.4,6.25
22.426914930343628,0.21,-0.42,-5.72,5.73
22.42798399925232,-4.49,-1.27,-4.62,6.56
22.444141149520874,-6.74,-3.25,-2.45,7.87
22.445700883865356,-6.94,-5.1,-1.13,8.68
22.459820985794067,-5.46,-6.1,-0.39,8.19
22.488868951797485,-3.51,-6.54,0.24,7.42
22.490194082260132,-2.24,-7.17,0.56,7.53
22.490980863571167,-1.58,-7.54,0.31,7.71
22.510946035385132,-1.37,-7.35,-0.41,7.48
22.512035131454468,-1.73,-7.15,-0.99,7.42
22.526909112930298,-2.38,-7.25,-1.3,7.74
22.527948141098022,-3.0,-7.39,-1.62,8.13
22.5439031124115,-3.45,-7.44,-1.91,8.42
22.545191049575806,-3.39,-7.43,-1.93,8.39
22.559823989868164,-2.87,-7.4,-1.85,8.14
22.58960795402527,-2.22,-7.4,-1.81,7.93
22.590911149978638,-1.64,-7.4,-1.79,7.78
22.59187602996826,-1.2,-7.43,-1.74,7.72
22.61101198196411,-0.85,-7.47,-1.84,7.74
22.612033128738403,-0.59,-7.38,-1.98,7.66
22.626857042312622,-0.41,-6.96,-2.02,7.25
22.62788701057434,-0.24,-6.22,-1.23,6.34
22.64471411705017,-0.15,-5.59,-0.28,5.59
22.646185159683228,-0.03,-4.83,0.18,4.83
22.660011053085327,0.96,-3.32,0.33,3.47
22.690923929214478,2.19,-0.86,1.83,2.98
22.692182064056396,2.81,1.47,3.36,4.62
22.693214178085327,2.92,3.79,2.88,5.58
22.711125135421753,2.8,6.6,1.18,7.26
22.712208032608032,3.24,9.07,-0.93,9.67
22.72434687614441,5.11,10.28,-2.95,11.85
22.725409984588623,7.76,10.66,-4.1,13.8
22.74411416053772,10.25,10.58,-4.79,15.49
22.745176076889038,12.22,10.45,-5.2,16.89
22.759989976882935,13.36,9.45,-5.08,17.13
22.761489152908325,13.5,6.75,-4.61,15.78
22.804229974746704,12.64,4.44,-4.12,14.01
22.805364847183228,11.98,3.98,-2.8,12.93
22.806329011917114,10.18,6.3,-1.31,12.04
22.8086199760437,7.28,7.94,0.34,10.77
22.810052156448364,3.52,6.91,2.96,8.3
22.811465978622437,-2.9,4.34,3.77,6.43
22.81294298171997,-9.88,1.55,2.39,10.28
22.823253870010376,-14.79,0.87,3.33,15.18
22.833318948745728,-15.09,3.38,7.18,17.04
22.843144178390503,-4.53,7.45,8.13,11.92
22.871773958206177,3.24,5.89,0.7,6.75
22.87271285057068,6.23,2.74,-2.38,7.21
22.873521089553833,8.12,3.63,2.18,9.15
22.892954111099243,8.07,3.25,0.76,8.73
22.89380407333374,6.84,0.7,-3.21,7.58
22.910922050476074,5.75,-1.96,-5.7,8.33
22.912299871444702,5.64,-3.3,-5.37,8.45
22.927621126174927,6.41,-2.46,-4.66,8.29
22.932295083999634,6.64,-0.74,-3.22,7.41
22.942826986312866,4.99,0.85,-0.76,5.11
22.973450899124146,2.13,1.79,1.88,3.35
22.974581956863403,-0.53,1.33,4.04,4.28
22.975417852401733,-2.44,0.1,4.18,4.84
22.994556188583374,-3.11,-0.41,2.88,4.25
22.995625019073486,-2.65,-0.29,1.43,3.02
23.010725021362305,-1.16,-0.27,0.29,1.22
23.01175808906555,0.63,-0.23,-0.76,1.01
23.027371168136597,1.89,-0.17,-1.99,2.74
23.03153109550476,2.67,-0.12,-2.32,3.53
23.0433030128479,3.09,-0.04,-2.58,4.02
23.074054956436157,3.33,-0.07,-2.17,3.97
23.075149059295654,2.41,-0.25,-0.49,2.47
23.075979948043823,0.59,-0.14,1.54,1.65
23.09457302093506,-0.95,0.12,2.44,2.62
23.09564995765686,-1.32,0.16,1.89,2.31
23.11069107055664,-0.42,0.03,1.01,1.09
23.11172890663147,0.79,-0.16,0.18,0.82
23.127290964126587,1.21,-0.19,-0.52,1.33
23.13070297241211,0.73,-0.01,-0.96,1.2
23.144045114517212,0.03,0.24,-0.84,0.87
23.179632902145386,-0.23,0.4,-0.27,0.53
23.180915117263794,-0.54,0.4,0.02,0.67
23.18188214302063,-0.77,0.35,0.11,0.85
23.195428133010864,-0.91,0.3,0.24,0.98
23.196495056152344,-1.08,0.39,0.13,1.15
23.21064591407776,-1.16,0.44,-0.17,1.25
23.21169900894165,-1.21,0.42,-0.36,1.33
23.22794008255005,-1.2,0.38,-0.54,1.36
23.23036789894104,-1.01,0.28,-0.72,1.27
23.243231058120728,-0.89,0.28,-0.97,1.34
23.279744863510132,-0.91,0.4,-1.3,1.63
23.281135082244873,-0.9,0.57,-1.38,1.74
23.282131910324097,-1.23,0.66,-1.56,2.09
23.295171976089478,-1.67,0.84,-1.29,2.27
23.29625916481018,-2.12,0.94,-1.03,2.53
23.31089186668396,-2.63,1.34,-1.13,3.16
23.31192898750305,-2.85,1.79,-0.64,3.42
23.327677965164185,-3.17,2.01,-0.23,3.76
23.32921814918518,-3.54,2.38,-0.38,4.28
23.3433358669281,-3.7,2.8,-0.8,4.7
23.377291917800903,-3.83,3.04,-1.39,5.08
23.378639936447144,-3.92,3.34,-1.91,5.49
23.379637002944946,-4.06,4.06,-2.32,6.19
23.394857168197632,-4.57,4.78,-2.4,7.03
23.395910024642944,-5.33,5.08,-2.41,7.74
23.410606145858765,-6.3,5.94,-2.3,8.95
23.4116530418396,-7.58,7.93,-2.36,11.22
23.427704095840454,-9.47,10.01,-3.57,14.23
23.428742170333862,-11.67,10.35,-5.46,16.52
23.4434711933136,-12.01,8.88,-5.28,15.84
23.477050065994263,-10.92,7.6,-5.09,14.24
23.478469133377075,-9.77,7.18,-6.05,13.55
23.479511976242065,-8.36,8.26,-5.56,13.0
23.495071172714233,-5.98,9.89,-3.96,12.21
23.496124029159546,-2.38,10.16,-2.56,10.74
23.511025190353394,-0.95,8.4,-1.93,8.67
23.512083053588867,-1.82,5.58,-2.61,6.42
23.528099060058594,-1.84,1.8,-3.75,4.54
23.529600858688354,-0.73,-2.43,-5.2,5.78
23.543516874313354,2.39,-1.88,-4.6,5.51
23.54784107208252,5.31,-0.95,-2.28,5.85
23.590089082717896,4.45,-1.58,-2.62,5.4
23.591269969940186,0.57,-2.37,-4.82,5.4
23.592169046401978,-4.04,-2.79,-5.01,7.01
23.611243963241577,-6.98,-3.49,-3.71,8.64
23.61229920387268,-7.8,-4.88,-1.72,9.36
23.627506971359253,-6.77,-6.4,-0.36,9.32
23.62852907180786,-4.57,-7.37,0.43,8.68
23.64468502998352,-2.78,-7.29,0.44,7.81
23.646201848983765,-2.03,-6.64,-0.22,6.94
23.660534143447876,-2.08,-6.11,-0.99,6.52
23.691270112991333,-2.53,-5.93,-1.37,6.59
23.692693948745728,-2.99,-5.99,-1.21,6.8
23.693719148635864,-3.09,-6.06,-1.13,6.89
23.711562871932983,-2.92,-5.81,-1.74,6.73
23.712633848190308,-2.8,-5.34,-2.7,6.6
23.72772192955017,-2.61,-4.81,-3.34,6.41
23.728764057159424,-2.06,-4.5,-3.54,6.08
23.74472403526306,-1.27,-4.45,-3.63,5.88
23.746176958084106,-0.61,-4.43,-3.8,5.86
23.7604820728302,-0.03,-4.36,-4.31,6.13
23.791267156600952,0.74,-4.22,-3.49,5.52
23.792454957962036,0.82,-3.79,-2.37,4.54
23.79329514503479,0.34,-3.48,-2.68,4.4
23.811958074569702,1.37,-3.22,-4.14,5.42
23.812997102737427,3.87,-2.0,-4.25,6.08
23.827521085739136,5.67,-0.43,-2.79,6.33
23.82855796813965,6.24,0.87,-2.21,6.67
23.84467387199402,5.91,2.75,-2.63,7.02
23.846096992492676,5.49,5.31,-3.36,8.34
23.860297918319702,6.13,7.93,-4.29,10.9
23.89003586769104,7.74,9.67,-5.46,13.53
23.891388177871704,9.29,10.13,-6.29,15.11
23.89224410057068,10.91,9.75,-6.27,15.91
23.911494970321655,11.74,8.79,-5.43,15.63
23.912535905838013,11.72,7.32,-4.08,14.4
23.927803993225098,11.0,6.01,-2.13,12.71
23.928917169570923,9.9,5.01,0.22,11.09
23.94445013999939,8.88,4.35,1.83,10.05
23.945478200912476,8.16,3.94,2.71,9.45
23.946497201919556,7.47,3.71,3.23,8.94
23.983030080795288,4.63,5.37,3.71,8.0
23.984197854995728,0.07,5.88,5.22,7.86
23.985028982162476,-5.33,3.46,6.36,8.99
23.99407696723938,-11.74,-0.27,4.14,12.45
23.994888067245483,-16.75,-0.89,3.12,17.06
24.010807037353516,-16.14,5.04,6.88,18.25
24.014259099960327,-2.58,11.96,9.48,15.47
24.027589082717896,6.05,10.04,-2.03,11.89
24.034001111984253,8.57,2.45,-7.93,11.93
24.04430103302002,8.93,-0.89,-1.01,9.03
24.081788063049316,9.27,0.66,-0.36,9.3
24.083181142807007,9.16,-0.36,-3.51,9.81
24.08396005630493,8.72,-1.38,-6.16,10.76
24.09426188468933,7.33,-1.71,-6.45,9.91
24.09528088569641,6.27,-1.31,-4.85,8.03
24.108908891677856,5.1,-0.48,-1.75,5.41
24.11353087425232,2.51,0.54,1.58,3.01
24.125147104263306,-0.73,1.05,3.38,3.61
24.13337802886963,-3.12,1.02,3.81,5.02
24.143615007400513,-3.85,0.35,3.75,5.38
24.182635068893433,-2.44,-0.35,3.24,4.07
24.184048891067505,-0.01,-0.65,1.81,1.92
24.185056924819946,1.76,-0.73,0.14,1.91
24.192765951156616,2.82,-0.53,-0.81,2.98
24.19381308555603,3.37,-0.2,-1.73,3.79
24.21113419532776,3.37,0.2,-2.53,4.21
24.212548971176147,2.7,0.3,-2.17,3.47
24.22818398475647,1.78,0.08,-0.88,1.98
24.232546091079712,1.01,-0.1,0.47,1.11
24.242771863937378,0.33,-0.26,1.2,1.27
24.280912160873413,-0.27,-0.33,1.38,1.44
24.282248973846436,-0.79,-0.15,1.24,1.47
24.283074140548706,-0.73,0.13,0.86,1.13
24.29534602165222,-0.31,0.24,0.2,0.44
24.29640793800354,0.06,0.3,-0.49,0.57
24.311388969421387,-0.06,0.2,-0.97,0.99
24.31244397163391,-0.51,0.24,-0.92,1.07
24.32808518409729,-0.81,0.38,-0.63,1.09
24.331806898117065,-0.88,0.49,-0.32,1.05
24.342432975769043,-1.07,0.54,-0.18,1.21
24.352087020874023,-1.16,0.41,-0.17,1.24
24.387314081192017,-0.86,0.26,-0.02,0.89
24.388487100601196,-0.49,0.17,-0.16,0.54
24.389650106430054,-0.42,0.01,-0.38,0.56
24.391239881515503,-0.37,-0.1,-0.56,0.67
24.401658058166504,-0.32,-0.12,-0.56,0.65
24.41145396232605,-0.27,-0.03,-0.72,0.76
24.421267986297607,-0.35,0.2,-0.98,1.05
24.431331872940063,-0.44,0.42,-1.07,1.23
24.441232919692993,-0.73,0.7,-0.94,1.38
24.451354026794434,-1.24,0.82,-0.79,1.68
24.484107971191406,-1.66,0.83,-0.63,1.95
24.48526120185852,-1.99,1.06,-0.5,2.3
24.48615598678589,-2.35,1.51,-0.45,2.82
24.49435019493103,-2.87,1.99,-0.13,3.49
24.50068497657776,-3.25,2.49,-0.22,4.1
24.510506868362427,-3.14,2.67,-0.63,4.16
24.520582914352417,-2.88,2.77,-1.12,4.14
24.530397176742554,-2.92,3.04,-1.47,4.46
24.540524005889893,-3.18,3.29,-1.72,4.88
24.550482034683228,-3.49,3.67,-1.91,5.41
24.581559896469116,-4.07,4.19,-1.83,6.12
24.58268404006958,-4.76,4.7,-1.8,6.92
24.583504915237427,-5.74,5.68,-1.87,8.28
24.594560861587524,-7.55,6.9,-2.51,10.53
24.599931955337524,-9.5,7.78,-3.67,12.81
24.61120915412903,-10.56,8.47,-3.99,14.11
24.619736909866333,-10.75,9.25,-3.6,14.63
24.629637956619263,-10.54,9.66,-4.02,14.85
24.639808893203735,-10.55,9.47,-5.5,15.2
24.649709939956665,-9.81,9.59,-5.21,14.67
24.683295965194702,-7.91,9.76,-3.11,12.94
24.684459924697876,-5.26,9.96,-2.22,11.48
24.68528699874878,-2.94,10.35,-1.16,10.82
24.695886850357056,-3.42,7.8,-1.13,8.59
24.699153184890747,-4.34,3.32,-2.29,5.92
24.710751056671143,-3.23,-0.67,-2.93,4.41
24.719264030456543,-0.38,-1.81,-3.17,3.67
24.72886300086975,4.21,0.3,-1.55,4.49
24.739948987960815,6.05,-0.5,-0.5,6.09
24.749072074890137,4.28,-0.93,-2.89,5.24
24.787312984466553,-0.38,-1.2,-5.19,5.34
24.788588047027588,-4.81,-2.35,-4.96,7.29
24.789358854293823,-7.1,-4.37,-2.97,8.85
24.79157304763794,-7.29,-6.22,-0.72,9.6
24.798773050308228,-5.75,-6.88,0.56,8.98
24.808544874191284,-3.65,-6.66,1.08,7.67
24.818490982055664,-2.05,-6.32,0.99,6.71
24.828410863876343,-0.96,-5.89,0.18,5.97
24.83828616142273,-0.27,-5.43,-0.86,5.5
24.84813904762268,-0.34,-5.26,-1.68,5.53
24.88611602783203,-1.06,-5.31,-2.08,5.8
24.887253046035767,-1.79,-5.29,-2.44,6.09
24.888034105300903,-2.14,-5.25,-2.98,6.4
24.89086413383484,-2.15,-5.22,-3.32,6.54
24.91155219078064,-1.7,-5.33,-3.26,6.47
24.912598848342896,-1.2,-5.58,-2.87,6.38
24.927898168563843,-0.73,-5.87,-2.29,6.34
24.928938150405884,-0.23,-6.28,-1.7,6.51
24.943837881088257,0.24,-6.67,-1.48,6.83
24.947136163711548,0.62,-6.99,-1.48,7.17
24.986901998519897,0.85,-7.18,-1.65,7.41
24.987847089767456,1.04,-7.02,-1.93,7.35
24.988861083984375,1.54,-6.37,-1.78,6.79
24.991123914718628,2.13,-5.63,-1.82,6.28
25.011767148971558,2.56,-4.93,-2.03,5.91
25.012819051742554,3.52,-3.93,-2.25,5.73
25.028141021728516,5.22,-2.41,-1.57,5.95
25.029181003570557,6.73,-0.69,0.07,6.76
25.04370093345642,7.49,1.16,0.74,7.61
25.046765089035034,7.63,3.52,0.47,8.41
25.089433908462524,7.87,6.03,0.31,9.91
25.090579986572266,8.98,7.9,0.49,11.97
25.09156584739685,10.43,8.48,0.46,13.45
25.114030122756958,11.31,8.37,0.09,14.07
25.115122079849243,11.86,8.42,-0.29,14.54
25.12822699546814,11.82,8.75,0.15,14.7
25.129279851913452,11.51,8.01,1.43,14.09
25.14533019065857,10.92,6.73,2.71,13.11
25.146806001663208,8.86,7.71,3.83,12.35
25.16122794151306,5.7,8.24,5.2,11.28
25.162680864334106,1.84,4.27,4.61,6.54
25.20750904083252,-8.61,0.17,-0.68,8.63
25.20862603187561,-20.22,4.84,-2.85,20.98
25.209677934646606,-20.73,16.0,4.65,26.59
25.228916883468628,-8.91,16.45,12.1,22.28
25.229975938796997,2.65,2.82,1.98,4.34
25.243905067443848,7.3,-5.55,-4.32,10.13
25.24496603012085,9.56,-1.57,3.49,10.29
25.26204800605774,9.32,1.02,2.26,9.64
25.263506174087524,7.94,-0.03,-2.36,8.28
25.277284860610962,6.52,-0.61,-5.45,8.51
25.306522130966187,5.52,-0.84,-5.03,7.51
25.30767297744751,5.56,-0.01,-3.6,6.62
25.30849289894104,4.94,0.53,-2.12,5.4
25.328922986984253,3.36,0.78,-0.42,3.47
25.330003023147583,1.73,0.61,1.26,2.22
25.34483504295349,0.53,0.14,2.8,2.85
25.345876932144165,-0.31,-0.19,3.68,3.69
25.362046003341675,-0.95,-0.23,3.35,3.48
25.36345100402832,-1.01,-0.13,2.08,2.31
25.377461194992065,-0.5,-0.02,0.93,1.05
25.40761685371399,0.57,-0.53,0.08,0.78
25.40890598297119,1.55,-0.81,-0.67,1.87
25.40970492362976,2.38,-0.64,-1.11,2.7
25.42877507209778,2.94,-0.18,-1.48,3.29
25.429843187332153,2.66,0.31,-0.93,2.83
25.444977045059204,1.82,0.27,-0.25,1.85
25.446003198623657,0.85,0.07,0.26,0.89
25.46198606491089,-0.18,-0.07,0.95,0.96
25.46303915977478,-0.79,0.02,0.58,0.98
25.477450132369995,-1.03,0.13,-0.77,1.29
25.504750967025757,-1.23,0.4,-0.84,1.54
25.505841970443726,-1.11,0.44,-1.45,1.87
25.50660014152527,-1.04,0.31,-0.69,1.28
25.508918046951294,-0.79,0.12,-1.12,1.37
25.51019597053528,-0.54,0.22,-1.16,1.29
25.512847185134888,-0.45,0.28,-0.86,1.01
25.523162126541138,-0.94,0.1,-0.62,1.13
25.533339977264404,-1.51,-0.21,-0.61,1.64
25.543186902999878,-1.79,-0.56,-0.57,1.96
25.553256034851074,-1.77,-0.5,-0.65,1.95
25.587308168411255,-1.54,0.02,-0.5,1.61
25.588380098342896,-1.35,0.44,-0.29,1.44
25.589146852493286,-1.04,0.58,-0.42,1.26
25.592553853988647,-0.78,0.48,-0.59,1.08
25.60255002975464,-0.81,0.3,-0.86,1.21
25.612644910812378,-1.0,0.13,-1.07,1.47
25.622286081314087,-1.32,0.16,-0.92,1.61
25.63254714012146,-1.66,0.37,-0.72,1.84
25.642378091812134,-1.78,0.56,-0.5,1.93
25.65223717689514,-1.56,0.73,-0.42,1.77
25.689789056777954,-1.16,0.94,-0.54,1.58
25.69082808494568,-0.78,1.3,-0.78,1.7
25.69163703918457,-0.65,1.52,-1.24,2.06
25.712369203567505,-0.95,1.82,-1.04,2.3
25.71340298652649,-1.73,2.19,-0.96,2.95
25.72760796546936,-2.6,2.8,-0.89,3.92
25.728672981262207,-3.18,3.32,-0.64,4.64
25.7453191280365,-3.75,3.95,-0.89,5.51
25.74633288383484,-4.64,4.82,-1.25,6.8
25.76143503189087,-5.66,5.46,-1.82,8.07
25.788604021072388,-6.7,5.84,-2.34,9.19
25.78979992866516,-7.59,6.22,-2.76,10.19
25.790585041046143,-8.23,7.36,-2.69,11.36
25.792749166488647,-9.05,8.83,-3.03,13.0
25.80082392692566,-10.44,9.74,-4.72,15.03
25.811254024505615,-10.65,9.77,-5.36,15.41
25.821586847305298,-9.35,8.52,-5.56,13.81
25.831111192703247,-7.92,7.43,-6.91,12.87
25.84093689918518,-7.36,7.69,-7.47,13.0
25.851073026657104,-6.61,8.95,-4.53,12.01
25.88824701309204,-4.35,9.95,-1.02,10.9
25.8894259929657,-2.16,9.99,0.49,10.23
25.890205144882202,-3.01,7.08,-0.5,7.7
25.892369031906128,-3.74,3.46,-2.29,5.58
25.900243997573853,-2.78,0.01,-2.95,4.05
25.910474061965942,0.49,0.67,-1.81,1.99
25.920263051986694,4.94,1.37,0.62,5.16
25.93030285835266,5.35,-0.3,1.04,5.45
25.94011092185974,1.12,-0.34,-1.86,2.19
25.950294017791748,-3.55,-0.46,-1.02,3.72
25.960458993911743,-6.11,-1.88,1.24,6.51
25.99303102493286,-6.41,-3.32,2.99,7.81
25.994076013565063,-4.78,-4.84,3.62,7.7
25.99487614631653,-2.74,-6.13,3.46,7.55
26.012606859207153,-1.52,-6.64,2.9,7.4
26.013653993606567,-0.91,-6.87,1.81,7.16
26.028423070907593,-0.65,-6.88,0.69,6.94
26.02946400642395,-0.89,-6.73,-0.11,6.78
26.04563808441162,-1.68,-7.07,-0.66,7.29
26.04948902130127,-2.86,-7.6,-0.76,8.15
26.059427976608276,-3.63,-8.08,-0.65,8.88
26.09076714515686,-3.79,-8.26,-0.54,9.1
26.092221975326538,-3.62,-8.33,-0.31,9.08
26.093207120895386,-3.27,-8.54,0.09,9.14
26.11317205429077,-2.9,-8.79,0.44,9.26
26.114239931106567,-2.71,-9.07,0.5,9.47
26.128677129745483,-2.68,-9.46,0.41,9.84
26.129689931869507,-2.57,-10.01,0.32,10.33
26.146296977996826,-2.54,-10.34,0.67,10.66
26.14878010749817,-2.76,-10.25,0.68,10.63
26.16124987602234,-2.91,-9.8,0.64,10.24
26.189082860946655,-2.69,-9.09,1.36,9.57
26.190360069274902,-2.38,-7.98,2.06,8.57
26.191148042678833,-2.05,-6.71,2.25,7.36
26.197967052459717,-0.54,-5.29,1.76,5.6
26.208245038986206,2.25,-2.95,1.95,4.19
26.218204975128174,4.8,-0.01,3.24,5.79
26.2281391620636,6.09,2.64,2.89,7.23
26.237957000732422,6.04,5.81,1.71,8.55
26.247961044311523,5.97,9.18,0.73,10.97
26.258153200149536,7.43,11.74,0.33,13.89
26.29017996788025,9.57,12.79,-0.45,15.98
26.291133165359497,11.26,13.21,-1.27,17.4
26.291949033737183,12.28,13.35,-1.27,18.18
26.310113191604614,12.41,11.08,-0.99,16.66
26.311115026474,10.91,9.07,-0.27,14.19
26.326035022735596,9.13,9.44,1.22,13.18
26.32713007926941,8.79,10.15,1.45,13.5
26.34246516227722,6.65,4.38,-0.7,7.99
26.347153902053833,-4.41,-1.47,-7.04,8.43
26.359716176986694,-16.58,2.19,-10.73,19.87
26.395068883895874,-17.38,17.77,-5.32,25.41
26.396427869796753,-10.63,24.26,5.57,27.06
26.397466897964478,-0.82,7.49,4.88,8.97
26.41301417350769,5.68,-6.34,3.13,9.06
26.414036989212036,8.33,-8.16,7.96,14.11
26.428696870803833,8.11,-4.78,6.58,11.48
26.429720163345337,7.15,-0.71,2.92,7.75
26.445905923843384,4.53,1.44,-1.52,4.99
26.447395086288452,3.3,2.77,-3.5,5.55
26.46139407157898,4.33,1.45,-3.64,5.83
26.49498200416565,5.82,0.22,-3.56,6.82
26.496800184249878,5.93,0.45,-3.13,6.72
26.497841119766235,4.32,0.57,-2.18,4.87
26.512974977493286,2.4,0.58,-0.83,2.6
26.51404118537903,0.87,0.39,0.6,1.12
26.528801202774048,-0.23,0.17,2.07,2.08
26.529865980148315,-0.89,-0.06,2.77,2.91
26.545912981033325,-1.03,-0.23,2.25,2.48
26.547409057617188,-0.51,-0.19,1.11,1.23
26.561722993850708,0.34,-0.13,0.3,0.47
26.59272313117981,0.98,-0.13,-0.2,1.0
26.59395718574524,1.24,-0.1,-0.7,1.42
26.59502387046814,1.21,-0.02,-1.07,1.61
26.612765073776245,0.98,0.13,-1.31,1.64
26.613807916641235,0.64,0.25,-1.41,1.56
26.62878394126892,0.25,0.24,-1.17,1.22
26.62981104850769,-0.21,0.14,-0.33,0.41
26.64587712287903,-1.12,0.05,0.15,1.13
26.647331953048706,-1.79,0.1,0.19,1.8
26.66153597831726,-2.03,0.26,-0.24,2.06
26.69204306602478,-1.91,0.32,-0.43,1.98
26.69333004951477,-1.24,0.38,-0.13,1.3
26.6943519115448,-0.94,0.28,-0.28,1.02
26.71293306350708,-0.98,0.12,-0.39,1.06
26.713998079299927,-1.1,-0.15,-0.33,1.15
26.728941202163696,-1.01,-0.37,-0.03,1.07
26.729952096939087,-0.98,-0.4,-0.16,1.07
26.74582004547119,-1.0,-0.32,-0.49,1.15
26.747215032577515,-1.0,-0.18,-0.74,1.25
26.76151704788208,-0.99,-0.08,-0.75,1.24
26.764296054840088,-1.04,0.09,-0.9,1.37
26.806953191757202,-0.97,0.19,-0.89,1.33
26.808147192001343,-0.8,0.23,-0.63,1.04
26.809139013290405,-0.78,0.28,-0.38,0.91
26.829874992370605,-1.03,0.14,-0.32,1.08
26.8309109210968,-1.28,0.02,-0.44,1.35
26.846057176589966,-1.58,-0.05,-0.33,1.61
26.847562074661255,-1.65,-0.11,-0.37,1.69
26.862915992736816,-1.42,0.1,-0.33,1.46
26.864362955093384,-1.08,0.36,-0.62,1.29
26.878167867660522,-0.93,0.65,-0.89,1.44
26.907191038131714,-1.04,0.92,-0.98,1.69
26.90861201286316,-1.12,1.19,-1.27,2.06
26.909602880477905,-1.31,1.54,-1.34,2.42
26.92951989173889,-1.71,1.9,-1.14,2.79
26.930551052093506,-2.44,2.33,-1.32,3.62
26.944692850112915,-2.91,2.95,-1.19,4.31
26.94614815711975,-3.03,3.47,-0.88,4.69
26.962992906570435,-3.34,4.33,-0.88,5.53
26.96436905860901,-4.05,5.15,-0.91,6.61
26.978172063827515,-4.86,5.92,-1.17,7.74
27.00577998161316,-6.38,6.81,-1.97,9.53
27.00768208503723,-8.3,8.16,-2.38,11.88
27.00874900817871,-9.77,9.68,-2.59,13.99
27.01084589958191,-10.56,10.9,-3.25,15.52
27.012297868728638,-10.12,11.11,-4.03,15.55
27.02186417579651,-8.62,10.01,-5.44,14.28
27.032130002975464,-7.14,9.04,-6.67,13.31
27.04224705696106,-7.11,8.0,-6.52,12.53
27.052149057388306,-7.78,7.5,-3.2,11.27
27.0621120929718,-5.66,8.63,0.96,10.36
27.09198784828186,-2.29,9.38,3.94,10.42
27.093169927597046,-1.06,5.95,2.5,6.54
27.094163179397583,-0.85,1.18,-1.55,2.12
27.113039016723633,-0.52,-1.21,-3.98,4.19
27.114092111587524,3.25,0.54,-3.19,4.58
27.12786102294922,6.53,-0.17,-1.1,6.62
27.13115096092224,5.91,-1.17,-1.46,6.19
27.146183013916016,1.28,-1.29,-2.78,3.32
27.15135908126831,-3.43,-1.17,-0.94,3.74
27.16194200515747,-5.4,-2.29,1.18,5.98
27.19790005683899,-5.15,-4.08,2.03,6.87
27.199175119400024,-3.89,-5.67,2.16,7.2
27.200184106826782,-2.73,-6.65,2.38,7.57
27.21319317817688,-1.78,-7.11,2.0,7.59
27.21423888206482,-1.21,-6.78,0.84,6.93
27.229306936264038,-1.12,-6.48,-0.27,6.58
27.230388879776,-1.37,-6.76,-0.94,6.96
27.246357202529907,-1.88,-7.21,-1.37,7.57
27.250559091567993,-2.46,-7.68,-1.53,8.2
27.261708974838257,-2.84,-8.02,-1.54,8.64
27.298639059066772,-3.01,-8.16,-1.39,8.8
27.300001859664917,-3.07,-8.31,-1.14,8.93
27.30099105834961,-3.01,-8.56,-0.68,9.09
27.313660860061646,-2.94,-8.86,-0.29,9.33
27.31472396850586,-2.83,-9.08,-0.2,9.51
27.32927107810974,-2.71,-9.27,-0.29,9.66
27.33032202720642,-2.63,-9.44,-0.41,9.8
27.34630799293518,-2.4,-9.48,-0.5,9.79
27.34986186027527,-2.07,-9.27,-0.35,9.5
27.361860036849976,-1.7,-9.07,-0.31,9.23
27.397228956222534,-1.14,-8.53,-0.22,8.6
27.398643016815186,-0.45,-7.8,0.17,7.81
27.39971089363098,0.19,-7.32,-0.08,7.32
27.41335415840149,0.74,-6.71,-0.78,6.79
27.414419889450073,1.62,-5.77,-0.93,6.06
27.42933201789856,2.98,-4.16,0.08,5.11
27.430372953414917,3.98,-2.15,1.3,4.7
27.446352005004883,4.54,-0.23,1.28,4.72
27.449115991592407,4.84,1.95,0.72,5.26
27.461701154708862,4.85,4.51,0.63,6.65
27.49877405166626,5.08,6.95,0.82,8.64
27.50010085105896,5.71,9.03,0.68,10.7
27.50112509727478,6.51,10.33,-0.09,12.21
27.51351499557495,7.38,11.02,-0.8,13.28
27.514628171920776,8.62,11.5,-1.07,14.41
27.52646803855896,9.74,10.29,-1.38,14.23
27.528254985809326,9.88,8.55,-1.31,13.13
27.546478033065796,8.58,8.57,-0.27,12.12
27.54811406135559,5.85,10.74,0.78,12.25
27.561967134475708,3.58,7.08,0.52,7.95
27.56827998161316,-3.56,1.48,-2.55,4.62
27.607784032821655,-15.18,2.83,-6.03,16.57
27.608978033065796,-18.37,12.78,-3.11,22.59
27.610018968582153,-8.9,16.28,8.06,20.22
27.629791021347046,1.29,5.64,8.1,9.95
27.630833864212036,6.36,-2.12,1.61,6.89
27.64586615562439,9.52,-3.56,5.57,11.59
27.646950006484985,8.4,-0.32,6.24,10.46
27.663158178329468,5.19,0.15,2.59,5.8
27.664561986923218,2.1,0.54,-1.33,2.54
27.67664885520935,0.68,1.8,-4.57,4.95
27.705281019210815,1.02,0.27,-6.02,6.11
27.706587076187134,2.79,-0.55,-6.69,7.26
27.70759415626526,4.53,-0.34,-4.81,6.61
27.709931135177612,4.68,-0.01,-1.68,4.97
27.717164993286133,2.76,0.73,0.64,2.92
27.72697901725769,-0.22,0.81,2.15,2.3
27.736979007720947,-2.21,0.35,3.13,3.84
27.746832132339478,-2.84,0.08,3.32,4.36
27.7566339969635,-1.99,0.14,2.14,2.92
27.76690697669983,-0.32,0.23,0.43,0.58
27.79672408103943,1.11,0.13,-1.08,1.55
27.79802107810974,2.1,-0.01,-2.21,3.04
27.798799991607666,2.48,-0.01,-2.25,3.34
27.81347393989563,1.96,0.01,-1.23,2.31
27.816184997558594,0.93,-0.08,-0.02,0.93
27.829243898391724,-0.07,-0.07,0.92,0.92
27.836361169815063,-0.51,-0.01,1.3,1.39
27.846018075942993,-0.52,0.03,1.08,1.19
27.85633397102356,-0.42,0.06,0.43,0.6
27.865923166275024,-0.16,0.04,-0.17,0.23
27.89692497253418,0.04,0.0,-0.37,0.37
27.89830708503723,0.01,-0.02,-0.35,0.35
27.89931893348694,-0.3,0.08,-0.39,0.49
27.913806200027466,-0.66,0.13,-0.35,0.75
27.915343046188354,-0.69,0.14,0.02,0.7
27.929414987564087,-0.62,0.17,0.29,0.7
27.935333967208862,-0.78,0.14,0.22,0.82
27.946141004562378,-0.97,0.11,0.03,0.97
27.9555881023407,-0.87,0.09,-0.11,0.88
27.96548295021057,-0.67,0.08,-0.17,0.69
28.00256609916687,-0.62,0.05,-0.38,0.72
28.003907918930054,-0.72,-0.04,-0.56,0.91
28.00496506690979,-0.87,-0.09,-0.72,1.13
28.010869026184082,-1.05,0.01,-0.91,1.38
28.029510974884033,-1.33,0.17,-1.02,1.68
28.03052020072937,-1.66,0.25,-1.01,1.95
28.046419858932495,-1.9,0.24,-0.9,2.11
28.047855138778687,-1.87,0.31,-0.72,2.02
28.063000917434692,-1.61,0.32,-0.5,1.71
28.064603090286255,-1.02,0.31,-0.04,1.06
28.108608961105347,-0.26,0.26,0.26,0.45
28.109785079956055,0.17,0.27,-0.03,0.32
28.11081290245056,-0.04,0.57,-0.28,0.63
28.13023018836975,-0.83,0.93,-0.31,1.28
28.131280183792114,-1.57,1.19,-0.52,2.03
28.146419048309326,-2.07,1.74,-0.77,2.81
28.14789319038391,-2.28,1.95,-0.9,3.13
28.163509130477905,-2.36,1.84,-1.17,3.21
28.1649649143219,-2.39,1.91,-1.66,3.48
28.178830862045288,-2.6,2.6,-2.03,4.2
28.20743203163147,-3.45,3.47,-2.53,5.5
28.208793878555298,-4.14,4.29,-1.73,6.2
28.209763050079346,-4.34,5.42,-0.4,6.95
28.230223894119263,-5.69,7.54,-1.26,9.52
28.231276035308838,-8.94,10.04,-3.73,13.95
28.24441695213318,-11.77,11.2,-3.99,16.73
28.245898962020874,-11.31,10.77,-1.83,15.72
28.263720989227295,-9.55,9.58,-1.23,13.58
28.265124082565308,-8.6,8.25,-1.01,11.96
28.279049158096313,-8.31,5.97,0.64,10.25
28.30851912498474,-7.21,4.88,2.71,9.11
28.309881925582886,-4.93,4.65,3.52,7.63
28.31089997291565,-1.58,4.56,3.48,5.94
28.33022403717041,0.76,3.7,1.67,4.12
28.331284046173096,0.89,1.98,-2.29,3.15
28.346728086471558,0.93,0.37,-6.18,6.26
28.34823203086853,3.49,1.09,-7.27,8.13
28.36348795890808,5.99,1.31,-7.11,9.38
28.364923000335693,4.88,0.99,-8.31,9.68
28.37918210029602,1.62,0.21,-8.46,8.61
28.380645036697388,-0.06,-0.68,-6.47,6.5
28.427507162094116,0.11,-1.79,-5.33,5.62
28.42870306968689,0.25,-2.71,-5.26,5.92
28.429674863815308,0.24,-3.49,-5.22,6.28
28.447481870651245,0.06,-4.24,-4.85,6.44
28.448928117752075,-0.49,-4.75,-4.45,6.52
28.46329092979431,-0.96,-4.98,-4.2,6.58
28.46475601196289,-1.13,-5.17,-4.16,6.73
28.47992205619812,-1.23,-5.28,-4.21,6.86
28.48133397102356,-1.33,-5.27,-4.53,7.07
28.495805025100708,-1.35,-5.36,-5.0,7.45
28.528011083602905,-1.41,-5.6,-5.48,7.96
28.529234170913696,-1.64,-5.86,-5.78,8.39
28.53028702735901,-1.93,-6.14,-5.79,8.65
28.54728102684021,-2.19,-6.46,-5.6,8.82
28.54830002784729,-2.33,-6.71,-5.37,8.9
28.54929518699646,-2.49,-6.86,-5.1,8.9
28.550545930862427,-2.62,-6.94,-4.85,8.86
28.551959991455078,-2.61,-6.96,-4.65,8.76
28.560849905014038,-2.53,-6.89,-4.53,8.62
28.571061849594116,-2.55,-6.85,-4.4,8.53
28.6004478931427,-2.57,-6.99,-4.19,8.54
28.601835012435913,-2.5,-6.95,-3.97,8.38
28.602840185165405,-2.43,-6.69,-3.7,8.02
28.610429048538208,-2.2,-6.36,-3.25,7.47
28.620350122451782,-1.92,-5.96,-2.8,6.85
28.63023805618286,-1.85,-5.54,-2.25,6.25
28.64006209373474,-2.14,-5.02,-1.85,5.76
28.650306940078735,-2.68,-4.27,-1.68,5.31
28.660360097885132,-2.97,-2.97,-1.71,4.53
28.670307874679565,-2.11,-1.08,-1.45,2.77
28.70258903503418,-0.32,0.76,-0.87,1.19
28.703931093215942,1.13,1.7,-0.93,2.24
28.70496702194214,1.47,2.56,-1.41,3.27
28.712673902511597,1.2,4.27,-1.85,4.8
28.719404935836792,1.09,6.54,-2.56,7.1
28.729423999786377,1.57,8.65,-3.38,9.41
28.739506006240845,2.8,9.75,-4.19,10.97
28.749629974365234,3.81,10.13,-5.71,12.23
28.76049494743347,5.3,9.9,-7.16,13.31
28.76951503753662,7.78,8.4,-7.78,13.84
28.806787967681885,11.14,7.73,-7.34,15.41
28.80812907218933,15.82,9.56,-6.56,19.61
28.80914616584778,17.51,6.29,-6.47,19.69
28.811405897140503,16.1,2.89,-2.92,16.61
28.81866192817688,9.04,-3.3,-2.5,9.94
28.82902503013611,-1.55,-4.3,-5.82,7.4
28.83898091316223,-7.55,-0.9,-3.29,8.28
28.848836183547974,-7.25,3.84,3.76,9.02
28.858916997909546,-8.22,6.57,5.57,11.9
28.868818998336792,-9.25,5.91,1.78,11.12
28.906166076660156,-5.25,2.5,0.8,5.86
28.907567977905273,-0.24,-0.22,0.97,1.02
28.908544063568115,2.65,-0.94,-0.66,2.88
28.910754919052124,2.82,0.05,-2.6,3.83
28.91802406311035,0.73,1.0,-3.29,3.51
28.92821192741394,-1.43,1.28,-2.84,3.42
28.93775701522827,-2.27,0.78,-1.87,3.04
28.94834589958191,-2.05,0.14,-1.13,2.34
28.95804500579834,-1.56,0.0,-0.79,1.74
28.96808695793152,-1.12,-0.01,-0.81,1.38
29.005519151687622,-0.49,0.04,-0.91,1.03
29.006808042526245,0.21,0.09,-1.06,1.08
29.00777006149292,0.81,0.16,-1.12,1.39
29.010360956192017,1.12,0.24,-0.82,1.4
29.017275094985962,1.02,0.25,-0.41,1.12
29.027690172195435,0.63,0.2,0.06,0.66
29.03692102432251,0.05,0.25,0.57,0.62
29.047410011291504,-0.63,0.22,0.89,1.11
29.057106971740723,-1.01,0.19,0.89,1.35
29.06752300262451,-1.0,0.08,0.56,1.14
29.103744983673096,-0.76,0.01,0.06,0.76
29.105066061019897,-0.34,-0.09,-0.43,0.55
29.106024026870728,0.41,-0.09,-0.69,0.8
29.109739065170288,1.21,-0.03,-0.72,1.4
29.129710912704468,1.49,0.06,-0.71,1.65
29.130759954452515,1.15,0.15,-0.52,1.27
29.146655082702637,0.45,0.19,-0.42,0.64
29.147706031799316,0.01,0.18,-0.25,0.3
29.16264796257019,-0.1,0.23,-0.09,0.26
29.16641902923584,-0.27,0.22,-0.01,0.34
29.178508043289185,-0.49,0.2,-0.05,0.53
29.207988023757935,-0.35,0.2,-0.11,0.41
29.209285974502563,0.07,0.08,-0.19,0.21
29.21029806137085,0.43,-0.07,-0.2,0.47
29.23068594932556,0.29,-0.16,-0.08,0.34
29.231737852096558,-0.33,-0.07,-0.06,0.34
29.246798992156982,-1.02,0.13,-0.13,1.03
29.247824907302856,-1.58,0.32,-0.36,1.65
29.26413893699646,-1.67,0.35,-0.48,1.77
29.265669107437134,-1.44,0.3,-0.6,1.58
29.279237031936646,-1.13,0.21,-1.01,1.53
29.30720019340515,-0.74,0.13,-1.5,1.67
29.30857801437378,-0.28,0.13,-1.37,1.4
29.309527158737183,0.06,0.27,-1.28,1.3
29.315150022506714,-0.13,0.38,-1.33,1.38
29.32523202896118,-0.41,0.43,-1.2,1.33
29.33520817756653,-0.62,0.47,-0.91,1.19
29.345103979110718,-0.88,0.62,-0.86,1.37
29.35527801513672,-0.97,0.67,-0.95,1.51
29.365182161331177,-1.06,0.59,-1.09,1.63
29.37511706352234,-1.11,0.54,-1.31,1.79
29.405394077301025,-1.05,0.59,-1.42,1.86
29.406538009643555,-1.23,0.78,-0.41,1.51
29.40778398513794,-1.33,0.85,0.74,1.74
29.41431498527527,-1.23,0.51,0.03,1.33
29.430670022964478,-0.73,0.71,0.3,1.06
29.43422508239746,-0.25,0.98,1.36,1.69
29.44731593132019,-0.65,1.05,1.87,2.24
29.454660177230835,-1.37,0.87,1.98,2.56
29.464182138442993,-2.07,0.91,1.54,2.73
29.47387194633484,-2.73,1.36,0.52,3.09
29.505609035491943,-2.84,1.82,-0.28,3.38
29.506754159927368,-2.69,1.64,-1.7,3.57
29.507961988449097,-2.64,1.92,-2.07,3.86
29.513606071472168,-2.95,2.36,-2.4,4.47
29.530420064926147,-3.46,3.37,-3.2,5.79
29.53337597846985,-4.05,5.14,-3.86,7.59
29.547587156295776,-4.83,6.12,-3.92,8.72
29.55363392829895,-5.15,5.24,-4.34,8.53
29.563524961471558,-5.41,4.95,-4.91,8.82
29.57346510887146,-6.09,6.96,-4.87,10.45
29.610684156417847,-7.24,9.45,-5.95,13.3
29.61183190345764,-8.5,9.33,-7.76,14.81
29.6128671169281,-8.88,8.05,-5.89,13.35
29.631230115890503,-8.03,7.76,-3.95,11.84
29.632264852523804,-7.1,7.62,-4.05,11.17
29.647260904312134,-5.9,7.68,-3.84,10.41
29.64876389503479,-3.08,7.25,-2.69,8.32
29.66414999961853,-1.25,6.83,-2.64,7.42
