time,ax,ay,az,atotal
0.00981903076171875,1.37,-1.43,-1.99,2.8
0.05077075958251953,0.62,0.84,-0.96,1.41
0.05096793174743652,-0.03,0.46,0.3,0.55
0.05114293098449707,0.25,-0.48,0.35,0.64
0.05131888389587402,-0.13,-0.06,0.09,0.16
0.05964493751525879,-0.22,0.09,0.14,0.27
0.06966495513916016,-0.17,-0.12,0.23,0.31
0.07957196235656738,-0.36,-0.12,0.26,0.46
0.08973407745361328,-0.38,-0.05,0.24,0.45
0.09964990615844727,-0.2,-0.07,0.19,0.28
0.10966300964355469,-0.06,-0.07,0.07,0.11
0.15187501907348633,-0.07,-0.02,-0.02,0.07
0.15209197998046875,-0.15,0.0,-0.13,0.19
0.15229392051696777,-0.2,0.01,-0.28,0.34
0.15246105194091797,-0.05,0.07,-0.3,0.31
0.1595630645751953,0.1,0.06,-0.26,0.28
0.16956806182861328,0.2,0.06,-0.21,0.29
0.17949795722961426,0.19,0.06,-0.11,0.22
0.1895427703857422,0.16,0.03,-0.09,0.18
0.19943904876708984,0.18,0.04,0.07,0.19
0.2094719409942627,0.15,-0.01,0.19,0.24
0.2504239082336426,0.13,-0.05,0.14,0.19
0.25060606002807617,0.1,-0.06,0.07,0.13
0.2507457733154297,0.1,-0.04,0.07,0.12
0.25091075897216797,0.12,-0.02,0.08,0.14
0.2594139575958252,0.03,-0.01,0.1,0.1
0.26943302154541016,-0.22,-0.03,0.05,0.22
0.2793569564819336,-0.34,-0.07,0.17,0.38
0.289470911026001,-0.24,-0.1,0.23,0.34
0.2993650436401367,0.03,-0.05,0.24,0.24
0.3093438148498535,0.18,-0.03,0.26,0.31
0.3503837585449219,0.02,-0.06,0.4,0.4
0.35056591033935547,-0.16,-0.07,0.44,0.47
0.3507537841796875,-0.32,-0.08,0.21,0.39
0.3509669303894043,-0.3,-0.04,-0.09,0.31
0.35922694206237793,-0.25,0.0,-0.33,0.41
0.3693249225616455,-0.05,0.03,-0.43,0.43
0.3792757987976074,0.12,0.08,-0.42,0.44
0.38928699493408203,0.15,0.07,-0.41,0.44
0.39920592308044434,-0.03,0.07,-0.28,0.29
0.40918874740600586,-0.07,0.0,-0.17,0.18
0.4502267837524414,0.0,-0.03,0.11,0.11
0.450408935546875,-0.26,-0.02,0.37,0.45
0.45058202743530273,-0.39,-0.09,0.38,0.55
0.45074987411499023,-0.36,-0.17,0.44,0.59
0.4591379165649414,-0.33,-0.15,0.46,0.58
0.4691658020019531,-0.13,-0.09,0.27,0.31
0.4790377616882324,0.11,-0.01,0.13,0.17
0.4891488552093506,0.24,0.02,-0.07,0.25
0.49909090995788574,0.31,0.07,-0.21,0.38
0.5090599060058594,0.19,0.03,-0.21,0.28
0.55010986328125,-0.05,-0.03,-0.15,0.16
0.5505969524383545,-0.15,-0.05,-0.05,0.16
0.5507750511169434,-0.17,0.01,0.04,0.17
0.5509369373321533,-0.07,0.02,0.16,0.17
0.5589728355407715,0.0,-0.02,0.22,0.22
0.5703530311584473,-0.09,-0.07,0.1,0.15
0.5789890289306641,-0.09,-0.03,-0.04,0.1
0.5889759063720703,0.02,0.01,-0.02,0.03
0.5988419055938721,-0.01,0.0,0.2,0.2
0.6089448928833008,-0.05,-0.03,0.15,0.16
0.6505990028381348,0.03,-0.07,0.12,0.14
0.6507818698883057,0.15,-0.06,0.21,0.26
0.6509559154510498,0.24,-0.03,0.21,0.32
0.6511430740356445,0.14,-0.06,0.18,0.23
0.6588640213012695,-0.11,-0.08,0.24,0.27
0.6687929630279541,-0.33,-0.13,0.19,0.4
0.6787478923797607,-0.35,-0.11,0.26,0.44
0.6888768672943115,-0.22,-0.07,0.28,0.36
0.6988048553466797,-0.05,-0.05,0.33,0.33
0.7087697982788086,0.14,-0.06,0.33,0.36
0.7495870590209961,0.3,-0.04,0.29,0.41
0.7497620582580566,0.46,-0.1,0.26,0.53
0.7499308586120605,0.39,-0.19,0.23,0.49
0.7500989437103271,0.36,-0.07,0.07,0.37
0.7586760520935059,0.35,0.0,-0.15,0.38
0.7686967849731445,0.24,0.03,0.07,0.25
0.7786979675292969,0.24,-0.05,0.25,0.35
0.7886848449707031,0.09,-0.11,0.27,0.3
0.7986297607421875,-0.12,-0.05,0.16,0.2
0.8086159229278564,-0.35,0.0,0.0,0.35
0.849606990814209,-0.83,0.06,-0.32,0.89
0.8497858047485352,-1.56,0.12,-0.16,1.57
0.8499629497528076,-1.67,0.18,0.81,1.86
0.8501288890838623,-0.76,0.06,1.74,1.89
0.8585898876190186,0.63,-0.64,1.2,1.49
0.8686048984527588,1.02,-0.88,0.05,1.34
0.878558874130249,0.79,-0.32,-0.55,1.01
0.888556957244873,0.66,0.26,-0.19,0.73
0.8984580039978027,0.21,0.18,0.36,0.45
0.9085009098052979,-0.43,-0.19,0.7,0.84
0.9499740600585938,-0.64,-0.31,0.71,1.0
0.9501509666442871,-0.36,-0.25,0.44,0.62
0.9503328800201416,0.18,-0.11,0.23,0.31
0.9505057334899902,0.69,-0.05,-0.16,0.71
0.9584517478942871,1.1,-0.11,-0.78,1.35
0.968303918838501,1.47,0.06,-0.94,1.74
0.9783508777618408,1.65,0.26,-0.54,1.75
0.9883968830108643,1.72,0.18,-0.38,1.77
0.9983210563659668,1.27,-0.16,-0.47,1.36
1.0083239078521729,0.54,0.11,0.05,0.55
1.050570011138916,0.33,0.19,0.42,0.56
1.051156997680664,0.61,-0.08,0.1,0.62
1.0513279438018799,0.72,0.01,0.49,0.87
1.0514907836914062,0.63,0.04,0.6,0.87
1.0582590103149414,0.32,-0.14,0.02,0.34
1.0715360641479492,-0.14,-0.11,-0.21,0.27
1.0782408714294434,-0.51,0.09,0.16,0.54
1.0882749557495117,-1.08,0.09,0.2,1.1
1.098188877105713,-1.41,0.01,0.05,1.41
1.1082358360290527,-1.12,-0.01,0.0,1.12
1.1502680778503418,-0.77,-0.09,-0.2,0.8
1.1504559516906738,-0.54,-0.12,-0.4,0.68
1.1506319046020508,-0.63,-0.06,-0.6,0.87
1.1511168479919434,-0.63,-0.05,-0.66,0.91
1.158195972442627,-0.5,0.06,-0.46,0.68
1.167895793914795,-0.13,0.2,-0.16,0.28
1.178189754486084,-0.1,0.17,-0.18,0.26
1.1880989074707031,-0.3,0.14,-0.85,0.91
1.1980109214782715,-0.21,0.18,-0.87,0.91
1.2080318927764893,-0.14,0.05,-0.64,0.65
1.2498488426208496,-0.23,0.0,-0.66,0.69
1.2500238418579102,-0.44,0.16,-0.42,0.62
1.250175952911377,-0.42,0.16,-0.3,0.54
1.2503418922424316,-0.08,-0.04,-0.25,0.26
1.257896900177002,0.05,-0.09,-0.51,0.52
1.267888069152832,0.0,-0.03,-0.62,0.62
1.2779128551483154,-0.34,-0.02,-0.31,0.46
1.2879068851470947,-0.73,0.03,0.19,0.75
1.2979018688201904,-0.62,0.03,0.33,0.7
1.307960033416748,0.05,-0.03,0.08,0.09
1.3503708839416504,0.21,-0.09,-0.13,0.26
1.3505499362945557,-0.24,-0.01,-0.09,0.25
1.3507227897644043,-0.51,0.16,0.2,0.57
1.3510849475860596,-0.23,-0.04,0.44,0.49
1.3578710556030273,0.2,-0.17,0.26,0.36
1.3679208755493164,0.46,-0.02,-0.17,0.49
1.3778038024902344,0.58,0.05,-0.52,0.78
1.3877778053283691,0.71,0.03,-0.24,0.75
1.3977460861206055,0.55,0.08,0.05,0.55
1.4079370498657227,0.34,0.01,-0.16,0.37
1.417686939239502,0.43,0.05,-0.32,0.53
1.4500889778137207,0.28,0.09,-0.54,0.61
1.4502739906311035,0.0,0.08,-0.55,0.55
1.4504458904266357,-0.12,-0.03,-0.23,0.26
1.4577360153198242,-0.45,-0.11,-0.16,0.49
1.467634916305542,-0.62,0.01,-0.25,0.66
1.477653980255127,-0.22,0.07,0.06,0.23
1.4876518249511719,-0.12,0.1,0.31,0.34
1.4976089000701904,-0.23,0.1,0.18,0.3
1.5076398849487305,-0.18,0.02,-0.15,0.23
1.5175118446350098,-0.09,0.02,-0.42,0.43
1.5496678352355957,-0.06,0.07,-0.35,0.36
1.5498459339141846,0.09,0.22,-0.12,0.26
1.550015926361084,0.33,0.36,-0.08,0.49
1.557589054107666,0.49,0.38,-0.13,0.63
1.5674748420715332,0.58,0.36,-0.14,0.69
1.578084945678711,0.87,0.44,-0.09,0.97
1.5874309539794922,1.51,0.44,-0.15,1.57
1.5974419116973877,2.26,0.35,-0.04,2.28
1.6074929237365723,2.84,0.16,0.28,2.85
1.6174397468566895,3.16,0.17,0.79,3.26
1.6496758460998535,3.64,0.34,0.86,3.75
1.6498517990112305,4.13,0.79,1.21,4.37
1.650022029876709,4.42,1.19,1.32,4.76
1.6574487686157227,4.38,2.09,1.42,5.05
1.6673948764801025,4.14,3.43,1.18,5.5
1.677381992340088,3.49,5.01,0.79,6.15
1.6872787475585938,2.4,6.19,0.5,6.65
1.6972880363464355,2.06,5.9,-1.04,6.33
1.7073249816894531,3.58,5.33,-3.05,7.1
1.717289924621582,5.13,5.67,-3.46,8.39
1.7495508193969727,4.95,5.85,-3.31,8.34
1.7497320175170898,3.89,5.03,-3.15,7.09
1.7499017715454102,3.3,3.29,-2.36,5.22
1.757232904434204,3.67,2.07,-1.03,4.33
1.7672038078308105,5.08,2.23,1.09,5.65
1.7772729396820068,6.36,1.48,2.25,6.9
1.7872679233551025,6.56,1.35,1.31,6.82
1.7971878051757812,6.9,1.63,0.67,7.12
1.8072099685668945,7.91,1.08,1.49,8.12
1.8171789646148682,8.63,0.35,2.24,8.92
1.849599838256836,8.73,0.18,2.27,9.02
1.8497748374938965,8.34,0.13,1.79,8.53
1.849945068359375,7.53,-0.1,1.51,7.68
1.8570868968963623,6.8,-0.26,1.59,6.98
1.8670239448547363,6.2,-0.24,1.62,6.41
1.877060890197754,5.26,-0.09,1.55,5.48
1.8871088027954102,3.77,-0.15,1.39,4.02
1.8970069885253906,2.6,-0.18,1.07,2.81
1.9071030616760254,2.36,0.29,0.72,2.48
1.9170217514038086,2.34,0.69,0.42,2.47
1.9502899646759033,2.34,1.06,0.29,2.58
1.9504690170288086,2.08,1.26,0.04,2.43
1.9506418704986572,1.59,1.44,-0.11,2.14
1.9569439888000488,1.0,1.79,-0.28,2.06
1.9668817520141602,0.0,2.33,-0.7,2.43
1.9769549369812012,-1.98,2.07,-1.52,3.24
1.9869489669799805,-4.36,1.76,-2.02,5.11
1.9968619346618652,-6.43,1.29,-3.27,7.32
2.0068140029907227,-8.93,2.94,-4.33,10.35
2.0167980194091797,-9.57,4.66,-3.57,11.22
2.0501458644866943,-9.69,1.48,-5.68,11.32
2.050325870513916,-13.54,-1.91,-4.33,14.34
2.050494909286499,-14.81,-4.36,-2.15,15.58
2.0567269325256348,-14.69,-5.37,-1.44,15.7
2.0666589736938477,-15.29,-5.73,-2.23,16.47
2.0767250061035156,-15.24,-4.32,-2.96,16.11
2.0867998600006104,-12.88,-3.12,-3.73,13.76
2.096795082092285,-10.4,-2.82,-3.88,11.45
2.1321778297424316,-9.47,-2.68,-2.78,10.22
2.132356882095337,-8.72,-0.6,-0.32,8.74
2.1325268745422363,-2.04,2.33,1.49,3.43
2.1366379261016846,4.99,3.42,2.33,6.48
2.146652936935425,7.35,3.63,1.96,8.42
2.1566500663757324,5.11,3.96,-1.46,6.62
2.166569948196411,-2.46,0.9,-5.42,6.01
2.1766889095306396,-7.7,-1.58,-3.87,8.76
2.1866369247436523,-6.36,-0.01,0.3,6.36
2.196563959121704,-3.1,0.34,2.18,3.8
2.2341508865356445,-1.73,-0.7,2.64,3.23
2.2343339920043945,-2.02,-1.21,0.75,2.47
2.234503746032715,-2.34,-0.35,-1.03,2.58
2.2365269660949707,-2.28,1.01,-1.0,2.68
2.246509075164795,-2.29,1.27,0.05,2.61
2.256457805633545,-1.88,0.14,0.48,1.94
2.266493797302246,-0.92,-0.48,-0.21,1.05
2.2764968872070312,-0.14,-0.36,-1.26,1.31
2.2865867614746094,0.23,-0.1,-1.45,1.47
2.296419858932495,0.57,0.18,-0.76,0.96
2.3336730003356934,0.66,0.12,0.04,0.67
2.333852767944336,0.34,-0.18,-0.02,0.38
2.3340258598327637,0.19,-0.29,-0.71,0.79
2.3362948894500732,0.24,-0.01,-0.94,0.97
2.3463540077209473,0.25,0.32,-0.84,0.93
2.3563549518585205,0.08,0.3,-0.67,0.73
2.3662619590759277,-0.14,0.18,-0.38,0.44
2.376297950744629,-0.38,0.12,-0.25,0.47
2.386171817779541,-0.54,0.19,-0.42,0.71
2.3962669372558594,-0.45,0.09,-0.78,0.9
2.433444023132324,-0.06,0.11,-0.63,0.64
2.4336180686950684,0.32,0.13,-0.08,0.35
2.4337868690490723,0.5,-0.04,0.17,0.52
2.4360508918762207,0.68,-0.1,-0.15,0.7
2.446218967437744,1.11,-0.09,-0.47,1.2
2.456206798553467,1.51,-0.22,-0.24,1.54
2.4662299156188965,1.32,0.0,-0.01,1.32
2.4761300086975098,0.74,0.15,0.25,0.79
2.4860620498657227,0.23,-0.03,0.39,0.45
2.496208906173706,-0.19,-0.19,0.27,0.38
2.5339958667755127,-0.35,-0.03,0.2,0.4
2.5341758728027344,-0.23,0.12,0.24,0.35
2.5343518257141113,0.13,0.06,0.18,0.23
2.5359249114990234,0.41,0.08,0.25,0.48
2.546052932739258,0.25,0.11,0.51,0.57
2.5560338497161865,0.18,0.0,0.51,0.54
2.5659990310668945,0.11,0.07,0.25,0.28
2.5764429569244385,-0.01,0.13,-0.36,0.38
2.5859107971191406,-0.21,0.12,-0.85,0.88
2.596057891845703,-0.35,0.05,-0.62,0.71
2.6346850395202637,-0.25,0.17,-0.11,0.32
2.6348557472229004,0.03,0.32,-0.03,0.32
2.635024070739746,0.07,0.3,-0.19,0.36
2.635753870010376,0.15,0.16,-0.06,0.22
2.6459689140319824,0.43,0.12,0.27,0.52
2.6559157371520996,0.9,0.15,0.18,0.93
2.665858745574951,1.54,0.18,-0.09,1.55
2.675917863845825,1.99,0.26,0.27,2.02
2.6859097480773926,2.52,0.39,0.82,2.67
2.6958670616149902,3.16,0.44,0.84,3.29
2.734139919281006,3.64,0.46,0.41,3.69
2.7343177795410156,4.15,0.61,0.11,4.19
2.7344908714294434,4.56,0.77,-0.25,4.63
2.735891819000244,4.84,0.85,-0.56,4.94
2.745779037475586,4.95,1.2,-0.75,5.14
2.755676746368408,4.8,2.2,-0.77,5.33
2.7657828330993652,4.02,4.05,-1.15,5.82
2.775907039642334,2.18,7.88,0.72,8.2
2.7859649658203125,2.12,9.71,-0.15,9.93
2.7957499027252197,1.88,6.92,1.26,7.28
2.834084987640381,0.87,5.07,3.38,6.15
2.8342580795288086,0.98,5.16,2.45,5.79
2.834425926208496,2.11,5.71,0.86,6.14
2.8359427452087402,3.0,6.01,-0.36,6.72
2.8456878662109375,2.82,6.06,-0.45,6.69
2.8555550575256348,2.81,6.47,-1.08,7.13
2.8655457496643066,3.71,7.54,-1.11,8.47
2.875621795654297,4.14,8.21,-1.49,9.31
2.8855419158935547,3.52,7.56,-3.72,9.13
2.895577907562256,3.32,6.88,-5.18,9.22
2.934365749359131,2.74,7.55,-3.37,8.71
2.9345507621765137,-1.63,5.81,-4.32,7.42
2.934722900390625,-3.64,4.43,-3.83,6.89
2.9355478286743164,-1.19,2.48,-0.87,2.88
2.9455249309539795,2.88,-0.22,1.07,3.08
2.9555108547210693,9.58,-0.36,4.61,10.63
2.965439796447754,10.17,-2.59,4.31,11.34
2.9755289554595947,5.2,-4.86,0.21,7.12
2.9854519367218018,5.38,-1.95,-0.85,5.78
2.995487928390503,6.47,-0.34,-2.54,6.95
3.033781051635742,8.42,-0.02,-3.17,8.99
3.033958911895752,10.98,-0.47,-1.74,11.12
3.0341310501098633,12.75,-1.33,0.29,12.82
3.035329818725586,13.21,-2.4,2.28,13.61
3.045413017272949,11.02,-3.18,2.99,11.85
3.0553150177001953,8.04,-2.89,1.83,8.73
3.0652809143066406,7.16,-1.58,0.67,7.36
3.075284004211426,6.45,-0.17,0.25,6.45
3.085270881652832,5.49,0.59,0.19,5.52
3.0952768325805664,4.78,0.74,0.4,4.85
3.1343917846679688,4.28,0.53,0.75,4.37
3.1345739364624023,3.69,0.48,1.29,3.93
3.134772777557373,2.84,0.81,1.66,3.38
3.1349759101867676,1.86,1.46,1.59,2.84
3.1451878547668457,0.85,2.25,1.34,2.75
3.1552257537841797,-0.17,3.1,0.71,3.18
3.16517972946167,-1.25,3.7,-0.43,3.92
3.1752047538757324,-2.49,3.93,-1.68,4.94
3.1851119995117188,-3.91,3.93,-2.62,6.13
3.1951370239257812,-5.5,3.74,-3.04,7.31
3.234261989593506,-6.87,3.46,-2.93,8.23
3.234442949295044,-8.06,3.22,-2.32,8.98
3.234635829925537,-9.18,3.17,-1.91,9.89
3.2349469661712646,-10.42,5.12,-2.38,11.85
3.245107889175415,-8.99,12.78,-1.34,15.68
3.2549099922180176,-9.73,6.29,-10.73,15.79
3.264997959136963,-15.57,-0.02,-12.91,20.22
3.2750978469848633,-18.37,-2.37,-5.85,19.42
3.2850470542907715,-19.23,-5.29,-0.95,19.96
3.2949938774108887,-18.61,-7.2,0.45,19.95
3.3350448608398438,-16.14,-6.52,-0.63,17.41
3.335226058959961,-13.9,-4.02,-2.02,14.6
3.3353989124298096,-12.98,-2.78,-2.32,13.47
3.3355660438537598,-13.28,-1.54,-0.45,13.37
3.3449058532714844,-7.27,1.68,1.91,7.7
3.3548460006713867,1.71,4.31,3.11,5.58
3.3648390769958496,7.04,5.22,2.56,9.13
3.3748579025268555,7.08,5.96,-1.08,9.31
3.3848137855529785,-4.52,0.95,-7.77,9.03
3.3948607444763184,-12.03,1.12,-7.56,14.25
3.43467378616333,-9.8,3.83,-0.22,10.52
3.4348549842834473,-5.99,0.36,4.57,7.54
3.435029983520508,-3.08,-2.9,4.34,6.06
3.435196876525879,-2.44,-2.96,1.6,4.15
3.444706916809082,-2.17,-1.45,-0.43,2.64
3.454723834991455,-2.05,0.16,-0.19,2.06
3.464643955230713,-2.32,1.12,0.67,2.66
3.4746949672698975,-2.1,0.68,0.57,2.27
3.484713077545166,-1.44,-0.11,0.05,1.44
3.4946908950805664,-0.78,-0.4,-0.48,0.99
3.5346808433532715,-0.06,-0.14,-0.94,0.95
3.534862995147705,0.75,0.21,-1.35,1.55
3.5350327491760254,1.23,0.36,-1.71,2.13
3.535198926925659,1.18,0.46,-1.86,2.25
3.5446178913116455,0.77,0.37,-2.11,2.27
3.554640769958496,0.16,-0.02,-2.0,2.0
3.5645580291748047,-0.04,-0.44,-1.91,1.96
3.574537754058838,0.43,-0.37,-1.63,1.72
3.584552764892578,0.79,0.19,-1.03,1.31
3.5945398807525635,0.62,0.33,-0.23,0.73
3.635223865509033,0.18,0.13,0.84,0.86
3.6354308128356934,-0.06,-0.09,1.16,1.16
3.635615825653076,0.01,-0.08,0.78,0.78
3.635814905166626,0.1,-0.03,0.39,0.4
3.6445488929748535,0.27,-0.06,0.25,0.37
3.654463768005371,0.34,-0.05,0.23,0.41
3.6644299030303955,0.37,0.05,0.25,0.44
3.674482822418213,0.32,0.08,0.13,0.35
3.6843557357788086,-0.01,0.06,-0.01,0.06
3.694448947906494,-0.14,0.13,-0.11,0.22
3.734468936920166,-0.21,0.13,-0.25,0.35
3.7346267700195312,-0.21,0.04,-0.16,0.26
3.7347960472106934,0.1,0.03,0.46,0.47
3.73496675491333,0.54,-0.01,0.85,1.0
3.744351863861084,0.65,-0.02,0.81,1.03
3.7542238235473633,0.42,-0.02,0.38,0.56
3.7642550468444824,0.25,0.06,-0.03,0.25
3.7742669582366943,0.27,0.14,-0.17,0.34
3.7842118740081787,0.38,0.17,-0.11,0.43
3.7942657470703125,0.67,0.24,0.26,0.75
3.8353099822998047,0.83,0.25,0.0,0.86
3.8354759216308594,0.4,0.25,-0.57,0.73
3.835646867752075,0.13,0.39,-0.56,0.69
3.8358118534088135,0.2,0.44,0.02,0.48
3.8442940711975098,0.24,0.43,0.45,0.66
3.8540310859680176,0.4,0.33,0.49,0.71
3.864102840423584,0.92,0.38,0.26,1.02
3.8740808963775635,1.56,0.44,-0.14,1.62
3.884108066558838,1.88,0.42,-0.33,1.95
3.894117832183838,1.96,0.4,-0.28,2.01
3.9349429607391357,2.07,0.61,-0.52,2.21
3.9351248741149902,2.12,0.86,-0.91,2.46
3.935297966003418,2.42,1.27,-0.89,2.87
3.9354639053344727,2.66,1.73,-0.35,3.19
3.9440999031066895,2.74,2.04,0.45,3.44
3.953882932662964,2.51,2.53,1.35,3.81
3.964244842529297,3.46,3.43,0.01,4.87
3.974226951599121,2.82,4.16,1.02,5.12
3.9839699268341064,2.65,4.87,1.02,5.63
3.9941787719726562,2.64,5.1,0.76,5.79
4.035441875457764,2.38,4.81,0.47,5.38
4.035616874694824,2.21,4.66,1.03,5.25
4.035786867141724,2.68,4.72,1.29,5.57
4.035956859588623,3.1,4.79,0.8,5.76
4.043863773345947,3.21,4.85,0.59,5.84
4.053679943084717,3.41,4.96,0.25,6.02
4.063769817352295,4.0,4.91,0.22,6.33
4.073713779449463,4.92,5.16,0.4,7.14
4.08368992805481,5.65,5.54,0.37,7.92
4.093858957290649,5.69,6.15,-0.34,8.38
4.13546085357666,5.53,7.42,-0.88,9.29
4.135639905929565,5.21,8.42,-1.86,10.07
4.135814905166626,4.86,9.55,-2.83,11.08
4.135984897613525,2.92,10.66,-4.09,11.78
4.143732070922852,2.66,12.01,-4.05,12.95
4.153768062591553,-0.65,8.73,-5.41,10.29
4.163758754730225,-1.88,6.8,-4.64,8.44
4.173687934875488,0.58,4.88,-0.87,4.99
4.183667898178101,2.77,-0.25,2.36,3.64
4.193671941757202,6.46,-5.72,4.35,9.66
4.2357399463653564,6.55,-6.05,2.21,9.18
4.235924959182739,0.52,-3.93,-0.77,4.03
4.236098766326904,-1.75,-1.46,-1.45,2.7
4.236271858215332,1.87,-0.35,-4.77,5.13
4.243642807006836,7.07,-0.24,-5.4,8.89
4.25386381149292,10.4,-0.54,-2.93,10.81
4.26352596282959,13.02,-0.78,0.53,13.05
4.273533821105957,14.64,-1.25,3.69,15.14
4.283528804779053,15.01,-2.29,5.27,16.07
4.293572902679443,12.09,-3.81,3.51,13.15
4.303479909896851,8.71,-4.12,0.89,9.67
4.335773944854736,6.7,-3.53,0.47,7.58
4.335957050323486,4.97,-2.75,1.19,5.8
4.336133003234863,3.49,-2.18,1.58,4.4
4.343421936035156,2.48,-1.42,1.74,3.34
4.353386878967285,1.72,-0.63,1.64,2.45
4.3634209632873535,0.69,0.1,1.66,1.8
4.373447895050049,0.07,0.64,1.89,1.99
4.383374929428101,-0.3,1.3,2.22,2.59
4.393465995788574,-1.16,2.09,2.66,3.57
4.403393745422363,-1.96,2.24,2.18,3.68
4.435265064239502,-1.66,2.06,0.46,2.68
4.435442924499512,-0.95,2.78,-1.11,3.14
4.435611963272095,-2.15,4.08,-2.0,5.02
4.443330764770508,-4.75,5.44,-3.12,7.86
4.453263759613037,-8.29,5.71,-4.09,10.86
4.4632298946380615,-11.43,5.43,-4.16,13.32
4.473258972167969,-11.76,7.42,-3.71,14.39
4.483263969421387,-7.78,13.81,-1.97,15.97
4.493295907974243,-9.08,6.04,-11.33,15.72
4.503173828125,-17.78,-0.23,-12.78,21.89
4.535269737243652,-21.05,-2.56,-6.79,22.26
4.535455942153931,-22.97,-6.48,-3.78,24.16
4.535639762878418,-21.95,-8.86,-3.49,23.92
4.543165922164917,-20.43,-9.77,-3.26,22.87
4.553073883056641,-18.56,-4.95,-1.82,19.29
4.563121795654297,-8.95,3.41,0.19,9.57
4.573073863983154,1.33,10.64,4.9,11.78
4.5831029415130615,3.1,12.84,6.0,14.5
4.593125820159912,-4.87,2.93,-2.22,6.1
4.603033065795898,-10.78,-4.27,-8.75,14.52
4.635101795196533,-5.54,-1.26,-5.47,7.88
4.63527774810791,-2.56,0.23,0.58,2.63
4.635447025299072,-3.18,-0.3,4.34,5.38
4.6430158615112305,-3.79,-1.19,2.82,4.87
4.6529717445373535,-3.42,-0.97,0.2,3.56
4.662994861602783,-2.91,0.14,0.0,2.91
4.67295503616333,-1.45,0.88,0.75,1.85
4.6829729080200195,-0.08,0.88,-0.24,0.91
4.6929779052734375,0.1,0.37,-1.42,1.47
4.70291805267334,0.07,0.14,-1.85,1.85
4.735406875610352,0.03,0.29,-1.78,1.8
4.735584735870361,-0.35,0.21,-1.57,1.62
4.73575496673584,-0.72,0.07,-0.85,1.11
4.742863893508911,-0.25,-0.09,-0.11,0.28
4.752878904342651,0.44,-0.24,-0.15,0.52
4.762876987457275,0.95,-0.16,-0.54,1.1
4.772819995880127,1.55,0.08,-0.66,1.68
4.782829761505127,2.04,0.45,-0.29,2.1
4.792843818664551,2.38,0.63,-0.52,2.51
4.8028318881988525,1.45,0.31,-1.03,1.8
4.835198879241943,0.18,-0.17,-0.86,0.89
4.835377931594849,-0.42,0.01,0.19,0.46
4.835549831390381,-0.74,0.22,0.75,1.07
4.8426899909973145,-0.66,0.07,0.57,0.87
4.852715015411377,-0.27,-0.12,-0.11,0.31
4.862709999084473,0.11,-0.22,-0.9,0.93
4.872646808624268,0.17,-0.1,-1.21,1.22
4.882632732391357,0.12,0.27,-1.15,1.18
4.8926568031311035,-0.15,0.41,-0.81,0.92
4.902667999267578,-0.41,0.11,-0.44,0.61
4.9357008934021,-0.58,-0.2,-0.28,0.67
4.935862064361572,-0.71,-0.26,-0.28,0.8
4.9360339641571045,-0.73,-0.2,-0.17,0.77
4.942594051361084,-0.66,-0.2,-0.24,0.73
4.952487945556641,-0.58,-0.14,-0.35,0.69
4.9624810218811035,-0.56,-0.06,-0.34,0.65
4.972513914108276,-0.55,-0.07,-0.33,0.64
4.982501029968262,-0.51,-0.18,-0.2,0.57
4.992511749267578,-0.41,-0.26,0.02,0.48
5.002470016479492,-0.35,-0.2,0.21,0.45
5.035236835479736,-0.28,-0.05,0.31,0.42
5.035409927368164,0.02,0.14,0.39,0.41
5.035577774047852,0.32,0.38,0.12,0.51
5.042434930801392,0.5,0.49,0.0,0.7
5.052322864532471,0.71,0.46,0.26,0.88
5.0623228549957275,1.02,0.42,0.44,1.18
5.072405815124512,1.24,0.39,0.03,1.3
5.082328796386719,1.48,0.42,-0.2,1.55
5.09239387512207,1.87,0.6,0.15,1.96
5.102357864379883,2.1,0.67,0.06,2.2
5.135181903839111,2.23,0.84,-0.04,2.38
5.135345935821533,2.23,1.26,-0.02,2.56
5.135513782501221,2.15,2.06,-0.29,2.99
5.142256736755371,2.91,3.19,-0.5,4.34
5.152219772338867,2.95,3.03,0.51,4.25
5.162352085113525,2.9,2.63,0.42,3.93
5.172245025634766,3.32,2.62,0.4,4.24
5.1822168827056885,3.64,2.63,0.13,4.49
5.192229747772217,3.83,2.78,-0.25,4.73
5.20222806930542,3.85,3.57,-0.71,5.29
5.235260963439941,3.75,4.3,-1.14,5.81
5.235439777374268,3.77,4.44,-0.96,5.9
5.235612869262695,3.87,4.67,-0.06,6.06
5.242140769958496,3.94,4.63,0.47,6.09
5.251961946487427,3.85,4.59,0.6,6.02
5.262167930603027,3.95,4.77,0.53,6.21
5.272028923034668,3.96,4.45,-0.15,5.95
5.282113075256348,3.4,3.92,-0.31,5.19
5.292087078094482,3.01,4.66,-0.05,5.54
5.302045822143555,2.9,5.91,-0.08,6.58
5.335367918014526,3.25,7.66,0.42,8.33
5.3355488777160645,3.59,8.75,0.32,9.46
5.335721969604492,2.93,8.61,-1.68,9.24
5.3419508934021,1.48,8.94,-3.98,9.89
5.351850986480713,-1.26,8.36,-6.77,10.83
5.3618998527526855,-0.94,8.92,-5.74,10.64
5.3717029094696045,5.64,10.32,-0.98,11.8
5.381968975067139,4.7,5.67,-0.84,7.41
5.392016887664795,2.44,0.92,-0.42,2.64
5.401919841766357,5.34,-3.48,0.8,6.42
5.435736894607544,5.78,-5.61,3.17,8.65
5.435915946960449,2.02,-4.92,1.13,5.43
5.4360880851745605,0.88,-2.96,-1.49,3.42
5.44183874130249,3.44,-1.24,-4.01,5.42
5.451879978179932,7.77,-0.74,-3.09,8.39
5.461905002593994,10.71,-0.81,0.34,10.74
5.47165584564209,12.55,-1.32,3.28,13.03
5.481873035430908,12.85,-2.4,4.91,13.96
5.491836071014404,11.18,-3.67,4.19,12.49
5.501794815063477,8.6,-3.83,1.99,9.62
5.536452770233154,6.9,-2.76,0.79,7.47
5.536639928817749,5.36,-1.64,0.51,5.62
5.536815881729126,4.49,-1.03,0.47,4.63
5.541612863540649,4.29,-0.71,0.67,4.39
5.551692962646484,3.97,-0.37,1.04,4.12
5.561701774597168,3.63,0.24,1.58,3.96
5.571732997894287,3.2,0.98,2.28,4.04
5.581671953201294,2.54,1.66,2.81,4.13
5.591624736785889,1.51,2.36,3.17,4.23
5.601627826690674,0.54,3.03,3.12,4.38
5.635906934738159,0.04,3.87,2.35,4.52
5.63608980178833,0.39,4.04,0.65,4.11
5.636262893676758,0.52,4.47,-1.0,4.6
5.64154577255249,-1.36,6.09,-2.71,6.8
5.651498794555664,-4.69,7.57,-4.69,10.06
5.661581039428711,-8.33,7.88,-6.2,13.03
5.671848773956299,-10.5,7.15,-5.91,14.01
5.6815619468688965,-10.43,5.79,-3.88,12.54
5.691536903381348,-9.74,4.15,-2.1,10.79
5.701478958129883,-9.8,7.3,-0.19,12.22
5.736749887466431,-10.04,3.81,-4.36,11.58
5.736932754516602,-13.92,-1.47,-8.19,16.21
5.737108945846558,-16.42,-2.68,-4.73,17.29
5.741436958312988,-16.19,-4.52,-2.26,16.96
5.751344919204712,-13.41,-4.26,-1.09,14.11
5.76141095161438,-11.29,-3.06,-1.57,11.8
5.771382808685303,-10.33,-2.66,-3.07,11.09
5.781434059143066,-9.26,-2.61,-2.99,10.07
5.791378021240234,-8.77,-3.09,-2.13,9.53
5.801376819610596,-10.58,-2.86,-1.05,11.0
5.836626052856445,-10.85,0.05,0.2,10.85
5.836813926696777,-3.69,3.14,1.66,5.12
5.8369879722595215,1.64,3.6,2.99,4.95
5.841222763061523,3.28,5.12,2.35,6.51
5.851316928863525,1.15,5.85,-1.95,6.27
5.861252784729004,-8.14,1.23,-8.26,11.66
5.871149063110352,-12.81,1.09,-9.18,15.79
5.881239891052246,-8.81,4.25,-1.67,9.92
5.891172885894775,-5.51,0.84,5.38,7.74
5.901180744171143,-2.67,-2.74,5.28,6.52
5.936392784118652,-1.99,-3.18,1.24,3.95
5.936577796936035,-1.88,-1.61,-1.32,2.8
5.936754941940308,-1.64,-0.3,-1.11,2.0
5.941102981567383,-1.45,0.66,-0.55,1.68
5.951050758361816,-1.36,0.82,-1.05,1.9
5.961115837097168,-0.95,0.64,-1.65,2.0
5.971030950546265,-0.34,0.4,-1.68,1.76
5.981113910675049,0.39,0.2,-0.9,1.0
5.991111755371094,0.71,0.0,-0.63,0.94
6.001059055328369,0.52,-0.06,-0.86,1.0
6.037507057189941,0.16,0.11,-0.62,0.64
6.037694931030273,-0.14,0.22,-0.15,0.3
6.037869930267334,-0.18,0.15,0.25,0.34
6.041007995605469,0.17,-0.05,0.2,0.26
6.050885915756226,0.46,-0.2,-0.11,0.51
6.060839891433716,0.75,-0.1,-0.02,0.75
6.070863962173462,1.11,0.2,0.29,1.16
6.0809409618377686,1.2,0.26,-0.19,1.24
6.0910608768463135,0.79,0.22,-0.73,1.09
6.100975036621094,0.18,-0.01,-0.81,0.82
6.137233734130859,-0.38,-0.06,-0.39,0.54
6.137423038482666,-0.59,-0.01,0.01,0.59
6.137602806091309,-0.44,0.01,0.2,0.48
6.140876770019531,-0.33,-0.08,0.12,0.36
6.150814056396484,-0.04,0.06,-0.04,0.08
6.160858869552612,0.09,0.15,-0.39,0.42
6.170808792114258,-0.02,-0.03,-0.84,0.84
6.180812835693359,-0.12,0.0,-0.76,0.76
6.190752029418945,-0.16,0.13,-0.65,0.68
6.200823783874512,-0.22,0.11,-0.67,0.71
6.236357927322388,-0.27,0.0,-0.48,0.55
6.236545085906982,-0.24,-0.05,-0.38,0.45
6.236720085144043,-0.3,0.0,-0.27,0.4
6.240728855133057,-0.43,-0.09,-0.06,0.44
6.250688076019287,-0.39,-0.19,0.1,0.44
6.260640859603882,-0.28,-0.12,0.2,0.36
6.270551919937134,-0.17,0.08,0.12,0.22
6.280547857284546,0.04,0.23,0.04,0.23
6.290558815002441,0.34,0.33,-0.04,0.47
6.300666809082031,0.48,0.4,0.06,0.62
6.336318016052246,0.65,0.47,0.41,0.9
6.336511850357056,0.95,0.56,0.45,1.19
6.3366858959198,1.25,0.61,0.08,1.39
6.340529918670654,1.36,0.69,-0.17,1.53
6.350496768951416,1.57,0.72,-0.3,1.75
6.360530853271484,1.88,0.78,-0.16,2.04
6.370435953140259,1.83,1.09,0.16,2.13
6.380533933639526,2.07,1.87,-0.47,2.82
6.390513896942139,2.97,2.93,0.25,4.17
6.4005279541015625,2.63,2.96,1.56,4.25
6.437257766723633,2.48,2.73,0.99,3.81
6.437435865402222,2.94,2.91,0.78,4.2
6.437609910964966,3.31,2.83,0.58,4.39
6.440433025360107,3.54,2.72,0.22,4.46
6.4503560066223145,3.82,3.05,-0.12,4.88
6.4603588581085205,4.12,3.67,-0.29,5.52
6.4703428745269775,4.33,4.3,-0.22,6.1
6.480384826660156,4.41,5.1,-0.08,6.74
6.490409851074219,4.43,5.91,0.01,7.38
6.500260829925537,3.98,5.73,0.07,6.97
6.536855936050415,3.7,5.51,0.27,6.64
6.537040948867798,3.75,5.25,0.25,6.45
6.537220001220703,3.54,4.94,-0.32,6.08
6.540060997009277,2.99,5.43,-0.32,6.2
6.5501909255981445,2.97,6.92,0.15,7.53
6.56026291847229,2.84,7.82,-0.98,8.37
6.570160865783691,3.39,8.92,-2.17,9.78
6.580163955688477,3.02,9.82,-2.24,10.51
6.590091943740845,-0.42,7.26,-5.27,8.98
6.600183963775635,-3.62,5.47,-6.3,9.09
6.637005805969238,0.17,7.65,-1.66,7.82
6.637188911437988,6.38,8.91,1.36,11.04
6.637362957000732,5.43,4.68,0.28,7.17
6.639916896820068,3.86,-2.31,-2.73,5.26
6.650055885314941,8.56,-3.08,0.09,9.09
6.660062789916992,4.22,-4.82,-1.11,6.5
6.670074939727783,3.02,-2.75,-1.17,4.24
6.680078029632568,4.04,-1.3,-2.94,5.16
6.689877033233643,6.88,-0.27,-2.93,7.48
6.700016021728516,9.31,0.7,-0.91,9.38
6.736882925033569,10.63,1.16,1.42,10.78
6.737067937850952,11.53,0.59,3.19,11.97
6.737246990203857,11.36,-1.57,2.99,11.85
6.739806890487671,9.21,-3.31,2.08,10.0
6.7499799728393555,7.49,-3.26,2.01,8.41
6.7599358558654785,6.82,-2.53,1.73,7.47
6.769950866699219,6.08,-1.66,1.58,6.49
6.780014991760254,5.19,-0.9,1.46,5.46
6.789665937423706,4.35,-0.32,1.42,4.58
6.799933910369873,3.59,0.0,1.48,3.88
6.836514949798584,2.91,0.08,1.53,3.28
6.836692810058594,2.35,0.24,1.77,2.95
6.836863994598389,1.98,0.53,2.0,2.86
6.8396430015563965,1.86,1.18,2.36,3.22
6.849822044372559,1.99,1.99,2.75,3.93
6.859828948974609,2.12,2.56,2.37,4.08
6.869696855545044,1.34,3.55,1.11,3.95
6.879796028137207,-0.72,4.75,-1.16,4.94
6.889648914337158,-3.67,5.8,-3.91,7.89
6.899915933609009,-6.41,7.07,-5.93,11.23
6.937802791595459,-8.61,7.68,-6.91,13.44
6.937987804412842,-10.51,6.63,-6.57,14.05
6.938164949417114,-10.18,9.95,-3.62,14.68
6.939717769622803,-7.42,16.32,-2.94,18.16
6.9496378898620605,-17.82,0.85,-14.95,23.27
6.959804058074951,-20.88,-2.41,-7.67,22.37
6.969542980194092,-21.31,-5.89,-0.19,22.1
6.9796528816223145,-20.42,-8.67,-0.48,22.18
6.989702939987183,-18.68,-8.37,-1.45,20.52
6.999598979949951,-17.34,-5.0,-3.0,18.29
7.036987781524658,-16.03,-2.89,-4.91,17.01
7.037163734436035,-16.44,-1.2,-3.88,16.93
7.037340879440308,-10.54,4.56,0.06,11.48
7.0397748947143555,-1.25,8.83,2.41,9.23
7.049459934234619,3.56,7.39,3.23,8.81
7.059470891952515,5.08,2.17,2.01,5.87
7.069427967071533,-0.35,-2.78,-3.63,4.58
7.079458951950073,-6.94,-6.87,-8.29,12.8
7.089801788330078,-5.5,-2.71,-6.58,8.99
7.099441051483154,-3.35,1.87,-0.82,3.92
7.137052059173584,-5.19,2.14,3.54,6.63
7.137237071990967,-4.99,0.86,4.91,7.05
7.13741397857666,-2.62,-0.42,2.97,3.98
7.1393139362335205,-1.67,-0.68,-0.3,1.82
7.149326801300049,-1.36,0.27,-1.17,1.81
7.159238815307617,-1.46,0.77,-0.97,1.91
7.169278860092163,-1.62,0.57,-0.35,1.75
7.179405927658081,-1.92,-0.11,0.32,1.94
7.189318895339966,-1.98,-0.24,1.11,2.28
7.199352741241455,-2.18,-0.09,1.2,2.49
7.236856937408447,-1.59,0.03,0.28,1.61
7.237040042877197,-0.58,0.13,-0.88,1.06
7.237215995788574,0.36,0.23,-1.85,1.89
7.239174842834473,0.94,0.28,-2.52,2.7
7.249225854873657,1.23,0.39,-2.74,3.02
7.259216785430908,0.8,0.19,-2.19,2.33
7.269161939620972,-0.07,0.02,-0.91,0.91
7.2792277336120605,-0.57,0.07,-0.13,0.58
7.289125919342041,-0.36,0.05,-0.11,0.37
7.299190998077393,-0.09,0.08,0.09,0.15
7.337192058563232,0.09,0.19,0.48,0.52
7.33737587928772,0.17,0.18,0.39,0.46
7.337557792663574,-0.04,0.14,0.26,0.29
7.339025974273682,-0.38,0.03,0.11,0.39
7.348994731903076,-0.47,-0.06,-0.17,0.5
7.358978748321533,-0.4,-0.1,-0.65,0.76
7.368981838226318,-0.26,-0.03,-0.75,0.79
7.378994941711426,-0.24,0.04,-0.61,0.65
7.388931751251221,-0.3,-0.02,-0.39,0.49
7.398937940597534,-0.38,-0.02,0.0,0.38
7.436263084411621,-0.29,0.03,0.18,0.34
7.4364447593688965,-0.06,-0.02,0.17,0.18
7.436618804931641,0.08,-0.13,0.25,0.29
7.438889026641846,0.32,-0.24,0.21,0.45
7.4489359855651855,0.7,-0.32,-0.06,0.77
7.458842754364014,0.75,-0.22,-0.2,0.8
7.468793869018555,0.62,-0.01,0.02,0.62
7.478724956512451,0.49,0.1,0.02,0.5
7.488756895065308,0.37,0.22,-0.06,0.43
7.498682022094727,0.58,0.42,0.11,0.72
7.536916732788086,0.84,0.57,-0.07,1.01
7.537108898162842,0.69,0.6,-0.21,0.93
7.537283897399902,0.7,0.88,-0.03,1.12
7.538641929626465,0.79,1.13,-0.1,1.38
7.548645973205566,0.76,1.23,-0.05,1.44
7.558652877807617,1.0,1.4,0.1,1.72
7.568631887435913,1.53,1.71,-0.23,2.3
7.578622817993164,1.88,1.79,-0.24,2.6
7.588606834411621,2.09,1.97,0.2,2.87
7.5986268520355225,2.71,2.62,0.59,3.81
7.636959075927734,3.18,2.27,1.04,4.04
7.637147903442383,3.32,1.82,0.76,3.86
7.637331008911133,3.75,1.84,0.51,4.2
7.638530731201172,4.11,2.09,0.49,4.63
7.648492813110352,4.23,2.83,0.31,5.09
7.658435821533203,4.38,3.96,-0.2,5.9
7.668393850326538,4.58,4.98,-0.58,6.79
7.678380966186523,4.65,5.34,-0.66,7.11
7.688462734222412,4.64,5.32,-0.32,7.06
7.698437929153442,4.35,5.1,0.2,6.7
7.738658905029297,4.32,4.85,0.4,6.5
7.7388389110565186,4.4,4.96,0.26,6.63
7.739012956619263,4.19,4.98,0.02,6.5
7.739185810089111,3.59,5.27,-0.44,6.39
7.748363971710205,3.15,6.02,-0.84,6.84
7.758313894271851,3.09,7.27,-0.66,7.92
7.768321990966797,3.39,8.62,-0.37,9.27
7.778371810913086,3.31,9.75,-1.23,10.36
7.788397789001465,1.65,9.69,-4.38,10.76
7.798364877700806,-1.95,8.1,-7.72,11.35
7.837868928909302,-2.69,7.84,-5.79,10.11
7.838053941726685,4.07,10.36,-0.11,11.13
7.838212966918945,4.07,6.18,-0.08,7.4
7.8383870124816895,0.16,-0.14,-1.56,1.57
7.848420858383179,5.75,-3.3,-1.19,6.73
7.858362913131714,5.2,-4.3,1.15,6.84
7.868409872055054,2.48,-2.83,0.4,3.78
7.878335952758789,3.44,-1.2,-3.58,5.1
7.888260841369629,6.39,-0.42,-5.46,8.41
7.899395942687988,9.75,-0.21,-3.44,10.34
7.9369659423828125,12.93,-0.23,0.19,12.93
7.937151908874512,15.21,-0.68,4.42,15.85
7.937327861785889,14.77,-2.04,6.9,16.42
7.938149929046631,11.01,-3.78,4.77,12.58
7.948196887969971,8.23,-4.04,1.75,9.33
7.958151817321777,6.88,-3.43,0.94,7.74
7.9680328369140625,5.37,-2.48,1.65,6.14
7.978150844573975,4.07,-1.95,1.84,4.87
7.988132953643799,3.26,-1.62,1.36,3.88
7.998121738433838,2.84,-1.31,0.65,3.19
8.037144899368286,2.23,-0.64,0.75,2.43
8.037325859069824,1.55,0.29,1.62,2.26
8.037497997283936,1.05,1.29,2.47,2.97
8.037883758544922,0.8,2.47,3.05,4.0
8.04801893234253,0.89,3.68,3.09,4.88
8.057829856872559,1.3,3.88,2.01,4.55
8.068002939224243,1.42,3.87,0.15,4.12
8.07803201675415,0.13,4.84,-1.96,5.22
8.087962865829468,-2.79,6.13,-3.87,7.76
8.098061084747314,-6.65,6.91,-5.74,11.17
8.137670993804932,-9.79,7.23,-6.7,13.89
8.137860774993896,-11.54,6.26,-6.56,14.67
8.138041019439697,-11.03,4.4,-4.85,12.82
8.13821792602539,-10.13,2.51,-3.55,11.02
8.147926807403564,-10.76,3.53,-3.16,11.75
8.157732009887695,-11.73,4.48,-4.57,13.36
8.167876958847046,-11.87,-1.85,-9.78,15.49
8.177939891815186,-12.7,-3.35,-6.82,14.79
8.187870979309082,-14.25,-4.56,-2.77,15.21
8.197855949401855,-14.59,-4.34,-1.47,15.29
8.237596988677979,-13.48,-3.02,-2.72,14.07
8.237787961959839,-11.64,-2.09,-4.48,12.64
8.237966060638428,-10.93,-2.02,-4.67,12.05
8.238142013549805,-13.3,-1.28,-2.52,13.59
8.247748851776123,-9.83,1.69,0.33,9.97
8.257489919662476,-0.29,3.47,2.98,4.58
8.26780080795288,4.17,1.85,4.26,6.24
8.2777419090271,4.15,1.09,3.08,5.28
8.287797927856445,-0.67,2.34,0.34,2.45
8.297776937484741,-6.12,3.22,-1.84,7.15
8.339350938796997,-12.51,-0.15,-9.25,15.55
8.339537858963013,-13.75,2.41,-9.07,16.64
8.339714050292969,-5.96,5.4,0.45,8.05
8.339890956878662,-0.58,0.3,6.06,6.09
8.347722053527832,-0.75,-3.76,4.45,5.87
8.357539892196655,-2.24,-3.5,0.29,4.16
8.367613792419434,-2.67,-1.73,-1.89,3.7
8.377627849578857,-2.27,0.56,-1.22,2.63
8.387552738189697,-2.09,1.65,-0.76,2.76
8.397602081298828,-1.69,1.29,-0.11,2.12
8.440790891647339,-0.97,0.33,0.16,1.03
8.440980911254883,-0.28,-0.17,0.14,0.35
8.441149950027466,0.17,-0.18,-0.4,0.47
8.441319942474365,0.29,0.2,-0.99,1.05
8.4474458694458,0.33,0.54,-1.28,1.42
8.457464933395386,0.26,0.45,-1.14,1.25
8.467329978942871,0.09,0.21,-0.5,0.54
8.477339744567871,-0.07,-0.05,-0.42,0.42
8.487411975860596,-0.21,-0.01,-0.9,0.92
8.497382879257202,-0.22,0.25,-0.92,0.97
8.539371967315674,-0.22,0.21,-0.5,0.58
8.539549827575684,-0.4,-0.01,-0.21,0.45
8.53972578048706,-0.51,0.16,-0.44,0.69
8.53989291191101,-0.69,0.19,-0.54,0.89
8.547358989715576,-0.9,0.13,-0.13,0.91
8.557594776153564,-1.03,0.1,0.0,1.03
8.567264080047607,-0.78,0.22,0.22,0.83
8.577313899993896,-0.62,0.33,0.14,0.71
8.58727502822876,-0.6,0.1,-0.41,0.73
8.597233772277832,-0.25,-0.09,-0.74,0.78
8.607237815856934,0.0,-0.08,-0.91,0.91
8.639381885528564,0.21,0.08,-0.98,1.0
8.639561891555786,0.37,0.14,-1.01,1.08
8.639729976654053,0.55,0.15,-0.61,0.83
8.64711594581604,0.6,-0.01,-0.29,0.66
8.657063007354736,0.56,-0.32,-0.27,0.69
8.667183876037598,0.61,-0.48,-0.22,0.8
8.677134990692139,0.59,-0.42,0.18,0.74
8.687120914459229,0.43,-0.25,0.35,0.6
8.697104930877686,0.32,-0.19,0.2,0.42
8.707090854644775,0.42,-0.04,0.12,0.43
8.739908933639526,0.71,0.14,0.06,0.72
8.740087032318115,0.9,0.34,-0.19,0.98
8.740256786346436,0.55,0.48,-0.26,0.77
8.747038841247559,0.33,0.69,0.29,0.81
8.756930828094482,0.42,0.71,0.68,1.06
8.766953945159912,0.47,0.46,0.52,0.83
8.776960849761963,0.67,0.26,0.3,0.77
8.786948919296265,1.15,0.32,0.23,1.21
8.796936988830566,1.6,0.47,0.2,1.67
8.806905746459961,2.16,0.71,0.12,2.27
8.839316844940186,2.64,1.06,-0.05,2.84
8.839493751525879,2.79,1.48,-0.13,3.16
8.839663028717041,2.64,1.97,-0.21,3.3
8.8468918800354,3.28,2.65,-0.82,4.29
8.856813907623291,3.9,3.19,0.13,5.04
8.86683177947998,3.6,3.09,0.65,4.78
8.876845836639404,3.8,3.4,0.59,5.13
8.886775970458984,3.88,4.05,1.04,5.7
8.896753787994385,3.66,4.37,0.73,5.74
8.906764030456543,3.76,4.6,0.37,5.95
8.939559936523438,4.33,5.06,0.26,6.66
8.93973684310913,4.72,5.41,0.22,7.18
8.939904928207397,4.97,5.54,0.31,7.44
8.94668197631836,4.68,5.2,0.15,6.99
8.956717014312744,4.66,4.97,-0.07,6.81
8.966738939285278,5.07,4.81,-0.34,6.99
8.976680755615234,4.92,4.91,-0.13,6.95
8.986615896224976,4.4,6.24,0.07,7.63
8.996685028076172,3.78,7.63,-0.42,8.52
9.006635904312134,3.5,9.01,-1.71,9.81
9.039529800415039,3.93,11.65,-2.71,12.59
9.039707899093628,2.44,12.01,-4.32,12.99
9.039878845214844,-2.38,8.92,-6.85,11.49
9.046514987945557,-4.07,7.3,-5.48,9.99
9.05640697479248,2.72,10.28,0.29,10.63
9.066442012786865,3.91,6.37,0.44,7.48
9.076504945755005,1.31,-0.56,-1.42,2.01
9.086677074432373,6.48,-4.19,-0.14,7.71
9.096551895141602,4.59,-6.34,1.2,7.91
9.106471061706543,1.86,-4.49,1.2,5.0
9.139482975006104,0.48,-2.16,-0.04,2.21
9.139662742614746,3.42,-1.02,-2.2,4.19
9.139832019805908,7.09,-0.68,-1.42,7.26
9.146406888961792,9.71,-0.6,0.14,9.72
9.156344890594482,11.19,-0.83,2.1,11.41
9.166414737701416,11.18,-1.91,3.04,11.74
9.176429748535156,9.35,-3.18,2.33,10.14
9.18638801574707,7.82,-3.74,1.5,8.79
9.196300029754639,7.41,-3.56,1.25,8.31
9.206425905227661,6.76,-2.83,1.29,7.44
9.239370822906494,5.74,-2.01,1.31,6.22
9.239546775817871,4.66,-1.47,1.09,5.0
9.239719867706299,3.76,-1.16,0.82,4.01
9.246277809143066,3.01,-0.86,0.91,3.26
9.256278991699219,2.47,-0.5,1.4,2.88
9.266320943832397,1.92,0.12,2.22,2.93
9.276177883148193,1.25,0.94,3.12,3.49
9.2862229347229,0.91,1.6,3.41,3.87
9.321670055389404,0.75,1.8,2.5,3.17
9.321846008300781,0.28,1.76,0.6,1.88
9.322016954421997,-1.18,2.51,-1.44,3.12
9.326117038726807,-3.55,3.25,-3.01,5.67
9.336140871047974,-5.82,4.49,-3.42,8.1
9.346056938171387,-7.56,5.77,-3.44,10.11
9.356091976165771,-8.65,5.93,-3.23,10.97
9.366343975067139,-9.08,4.75,-2.38,10.52
9.376235961914062,-8.76,3.84,-1.95,9.76
9.386149883270264,-9.27,3.02,-3.03,10.2
9.424369812011719,-10.65,4.23,-3.49,11.97
9.424855947494507,-10.07,9.58,-2.35,14.09
9.425029754638672,-10.36,3.8,-8.02,13.64
9.426016807556152,-13.12,-0.89,-6.71,14.76
9.435948848724365,-14.12,-3.47,-0.78,14.56
9.445985794067383,-13.3,-5.41,1.45,14.43
9.456067085266113,-11.78,-5.19,0.42,12.87
9.465972900390625,-9.97,-3.1,-1.59,10.56
9.475872039794922,-9.37,-1.89,-2.88,9.98
9.485955953598022,-9.84,-1.22,-3.21,10.42
9.523099899291992,-11.78,0.25,-2.07,11.96
9.523283958435059,-6.75,2.93,-0.11,7.35
9.523453950881958,0.92,3.45,0.92,3.68
9.525868892669678,3.48,1.79,1.0,4.03
9.535808086395264,3.29,2.52,0.89,4.23
9.54582405090332,-2.06,2.72,-1.05,3.56
9.555699825286865,-6.78,1.76,-1.87,7.25
9.565849781036377,-7.24,0.18,-3.53,8.05
9.575695037841797,-10.11,-0.74,-5.37,11.47
9.585768938064575,-6.76,2.26,-0.99,7.19
9.623199939727783,-3.0,1.57,2.46,4.18
9.623377799987793,-1.87,-1.03,2.19,3.05
9.623549938201904,-2.64,-2.11,0.52,3.41
9.625647068023682,-3.25,-1.59,-0.43,3.64
9.635611057281494,-2.52,-0.18,-0.4,2.55
9.645591735839844,-1.48,0.57,-0.33,1.61
9.655638933181763,-0.54,0.52,-0.88,1.15
9.665655851364136,0.41,0.38,-1.54,1.63
9.675564765930176,1.04,0.51,-1.59,1.96
9.685580730438232,1.06,0.58,-1.05,1.6
9.723811864852905,0.69,0.19,-0.7,1.0
9.72399091720581,0.3,-0.08,-0.57,0.64
9.724164009094238,0.11,-0.01,-0.71,0.71
9.725350856781006,-0.23,0.16,-0.87,0.91
9.735491752624512,-0.53,0.28,-0.6,0.84
9.745512962341309,-0.56,0.17,-0.2,0.61
9.755493879318237,-0.24,-0.08,0.07,0.26
9.765552043914795,0.17,-0.06,0.33,0.37
9.775377750396729,0.5,-0.01,0.39,0.63
9.785504817962646,0.58,0.11,0.36,0.69
9.823790073394775,0.46,0.28,0.13,0.55
9.823970794677734,0.21,0.15,-0.53,0.58
9.82414197921753,-0.07,0.03,-0.95,0.95
9.825243949890137,-0.35,0.03,-0.76,0.83
9.835377931594849,-0.46,0.05,0.05,0.46
9.845340967178345,-0.55,-0.02,0.45,0.71
9.855388879776001,-0.41,-0.07,0.31,0.51
9.865387916564941,-0.14,-0.05,0.35,0.38
9.87528395652771,0.18,-0.05,0.23,0.29
9.885354042053223,0.23,0.03,0.24,0.33
9.924116849899292,0.38,0.0,-0.08,0.38
9.92429494857788,0.74,-0.02,-0.44,0.86
9.924465894699097,0.77,0.07,-0.36,0.85
9.925220012664795,0.81,0.1,-0.47,0.94
9.93531608581543,0.77,0.09,-0.4,0.87
9.945287942886353,0.52,0.06,-0.3,0.6
9.955246925354004,0.32,0.12,-0.07,0.34
9.965226888656616,0.0,0.11,-0.2,0.22
9.975381851196289,-0.53,0.14,-0.42,0.69
9.985276937484741,-1.02,0.19,-0.28,1.07
10.023846864700317,-1.28,0.21,-0.09,1.3
10.024004936218262,-1.19,0.25,-0.09,1.21
10.024173736572266,-0.9,0.37,-0.19,0.99
10.025346755981445,-0.62,0.33,-0.34,0.78
10.035099983215332,-0.31,0.25,-0.3,0.49
10.045053958892822,-0.08,0.3,-0.03,0.31
10.055005073547363,0.19,0.42,0.13,0.47
10.065038919448853,0.56,0.73,0.27,0.95
10.07539701461792,1.14,1.2,-0.3,1.68
10.085046768188477,2.01,1.85,-0.27,2.74
10.12423586845398,2.82,2.15,0.79,3.63
10.124412059783936,3.11,1.95,1.11,3.83
10.124612808227539,3.16,1.86,0.77,3.74
10.12477993965149,3.67,2.09,0.65,4.27
10.134997844696045,4.24,2.33,0.59,4.87
10.144909858703613,4.54,2.81,0.45,5.35
10.154990911483765,4.51,3.51,0.09,5.71
10.164918899536133,4.29,4.39,-0.59,6.16
10.174917936325073,4.24,5.25,-0.75,6.78
10.184926986694336,4.12,5.51,-0.18,6.88
10.224939823150635,4.38,5.91,-0.14,7.35
10.225429058074951,4.36,5.79,-0.35,7.25
10.2256019115448,4.02,5.08,-0.22,6.48
10.22576904296875,3.98,4.61,-0.3,6.09
10.234868049621582,3.95,4.39,-0.58,5.93
10.244799852371216,3.16,4.64,-0.54,5.63
10.254735946655273,2.29,5.53,-0.67,6.02
10.264841079711914,2.09,6.92,-1.11,7.31
10.27473783493042,2.48,8.08,-1.9,8.66
10.284836769104004,3.1,9.36,-2.16,10.09
10.325003862380981,2.14,9.05,-3.46,9.92
10.325492858886719,-0.52,7.01,-6.67,9.69
10.325666904449463,-0.56,7.64,-5.81,9.61
10.325835943222046,3.99,8.92,-2.15,10.0
10.334687948226929,8.99,9.48,0.67,13.08
10.344637870788574,3.7,1.76,-1.93,4.52
10.354678869247437,6.58,-2.16,-1.5,7.08
10.36464786529541,9.17,-3.85,2.59,10.27
10.374614953994751,4.75,-4.58,0.97,6.66
10.384666919708252,2.48,-1.89,-0.31,3.13
10.42527985572815,2.77,-0.21,-2.7,3.87
10.425771951675415,6.06,0.67,-3.7,7.13
10.42594575881958,8.73,1.22,-2.39,9.13
10.426115989685059,10.24,1.43,0.34,10.34
10.434515953063965,10.54,1.07,3.23,11.07
10.445576906204224,8.99,-0.47,3.75,9.75
10.454706907272339,6.85,-1.98,2.42,7.52
10.464611053466797,6.44,-2.62,1.65,7.14
10.474567890167236,6.57,-2.85,1.97,7.42
10.4845609664917,5.75,-2.27,2.85,6.8
10.525705814361572,4.48,-1.33,3.16,5.64
10.525882959365845,3.53,-0.85,2.62,4.47
10.526052951812744,2.83,-0.97,1.82,3.5
10.526218891143799,1.99,-0.91,1.94,2.92
10.534451007843018,1.38,-0.33,2.83,3.16
10.544506072998047,1.6,0.5,3.29,3.69
10.554368019104004,2.63,0.65,2.84,3.92
10.564424991607666,2.72,1.39,2.43,3.9
10.574389934539795,1.49,2.71,1.32,3.36
10.584386825561523,-0.16,4.15,-0.64,4.2
10.626032829284668,-2.18,5.38,-2.93,6.5
10.626222848892212,-4.87,6.24,-5.34,9.54
10.626391887664795,-7.54,6.67,-6.88,12.19
10.62655782699585,-9.67,6.26,-7.06,13.51
10.634314060211182,-11.16,5.2,-5.95,13.67
10.644229888916016,-12.69,3.86,-5.16,14.23
10.654150009155273,-14.51,2.66,-5.25,15.65
10.664144039154053,-16.0,3.08,-5.03,17.05
10.67414379119873,-17.07,3.61,-4.72,18.07
10.684269905090332,-16.99,-2.31,-7.32,18.64
10.726327896118164,-16.09,-4.19,-4.06,17.11
10.726507902145386,-15.12,-5.31,-1.41,16.08
10.726680755615234,-13.15,-4.76,-1.78,14.09
10.726845741271973,-10.33,-1.86,-2.51,10.79
10.734047889709473,-8.99,-0.35,-3.19,9.54
10.744029998779297,-10.18,-0.06,-2.38,10.45
10.75409984588623,-8.81,1.64,-0.01,8.96
10.764092922210693,-0.07,3.49,1.85,3.95
10.774087905883789,5.59,2.83,2.13,6.61
10.784111976623535,5.94,1.07,-0.74,6.08
10.827024936676025,2.13,2.49,-2.3,4.0
10.827203750610352,-4.85,4.4,-0.2,6.55
10.827375888824463,-9.19,3.67,-0.43,9.9
10.827544927597046,-10.34,0.93,-1.64,10.51
10.833915948867798,-5.96,-0.54,-0.42,5.99
10.843925952911377,-4.5,-1.36,-1.2,4.85
10.853941917419434,-5.2,-0.41,-1.85,5.53
10.863965034484863,-2.67,0.9,-0.56,2.87
10.873862743377686,-1.73,0.36,0.29,1.79
10.883909940719604,-2.19,-0.44,0.28,2.25
10.92690396308899,-2.15,-0.59,0.01,2.22
10.927079916000366,-1.49,-0.25,0.15,1.51
10.927230834960938,-0.84,-0.04,0.15,0.85
10.927396774291992,-0.47,-0.1,-0.35,0.59
10.9338219165802,-0.24,0.01,-0.95,0.97
10.943809032440186,0.07,0.22,-1.34,1.35
10.953896045684814,0.28,0.45,-1.25,1.35
10.963787078857422,0.34,0.52,-0.92,1.11
10.973720073699951,0.27,0.32,-0.61,0.73
10.983784914016724,0.09,0.01,-0.58,0.58
11.027849912643433,0.07,-0.27,-0.99,1.02
11.028031826019287,0.3,-0.25,-1.29,1.34
11.028203964233398,0.54,0.03,-1.25,1.36
11.02837085723877,0.62,0.3,-0.97,1.18
11.033658027648926,0.7,0.37,-0.31,0.85
11.043675899505615,0.67,0.1,0.5,0.84
11.053689956665039,0.32,-0.37,0.96,1.07
11.063617944717407,-0.16,-0.4,0.91,1.0
11.07356882095337,-0.38,0.0,0.49,0.62
11.083618879318237,-0.53,0.31,0.06,0.61
11.128077983856201,-0.48,0.32,-0.17,0.6
11.128260850906372,-0.38,0.04,-0.31,0.49
11.128431797027588,-0.25,-0.13,-0.75,0.8
11.128582000732422,-0.25,-0.03,-0.97,1.0
11.133514881134033,-0.13,0.05,-0.72,0.73
11.143364906311035,0.21,0.04,-0.34,0.4
11.153478860855103,0.05,-0.04,0.06,0.08
11.163429737091064,-0.21,-0.04,0.32,0.38
11.173456907272339,-0.3,-0.06,0.49,0.57
11.183475971221924,-0.42,-0.07,0.46,0.62
11.22749376296997,-0.52,-0.07,0.08,0.53
11.227674007415771,-0.51,-0.05,-0.26,0.57
11.227843761444092,-0.36,0.03,-0.29,0.46
11.228013038635254,-0.23,0.11,-0.52,0.57
11.233288764953613,-0.42,0.17,-0.73,0.85
11.243135929107666,-0.88,0.15,-0.77,1.17
11.253401756286621,-0.87,0.18,-0.73,1.14
11.26328706741333,-0.48,0.25,-0.61,0.81
11.273283004760742,-0.07,0.24,-0.32,0.4
11.283299922943115,0.2,0.1,-0.02,0.22
11.328250885009766,0.46,-0.09,0.28,0.54
11.3284330368042,0.86,-0.18,0.53,1.02
11.32860279083252,1.48,-0.03,0.73,1.65
11.328766822814941,2.08,0.18,0.57,2.16
11.333200931549072,2.55,0.26,0.16,2.56
11.343170881271362,2.83,0.37,-0.14,2.85
11.353139877319336,2.73,0.52,-0.03,2.77
11.363200902938843,2.36,0.76,0.27,2.49
11.373188018798828,2.2,0.99,0.36,2.43
11.383193016052246,2.46,1.27,0.31,2.78
11.428791999816895,2.63,1.51,-0.11,3.03
11.428968906402588,2.78,1.81,-0.46,3.34
11.429139852523804,2.61,2.39,-0.16,3.54
11.42930793762207,2.31,4.01,-0.39,4.64
11.433022022247314,2.87,5.32,-1.03,6.13
11.443127870559692,2.46,4.64,0.22,5.25
11.453135013580322,2.68,4.75,0.57,5.48
11.46305799484253,2.62,4.8,1.04,5.56
11.473017930984497,2.91,4.7,0.78,5.58
11.48306393623352,3.34,4.9,0.45,5.94
11.52918291091919,3.7,5.18,0.16,6.36
11.529365062713623,3.82,5.05,-0.38,6.34
11.529537916183472,3.89,4.78,-0.75,6.2
11.529707908630371,3.94,4.63,-1.19,6.19
11.532883882522583,3.89,4.89,-0.95,6.32
11.543169021606445,3.64,5.78,-0.62,6.85
11.553016901016235,3.5,7.21,-0.44,8.02
11.562880992889404,3.44,8.54,-0.53,9.22
11.5728178024292,3.45,8.33,-2.43,9.33
11.582948923110962,3.51,9.66,-3.21,10.76
11.62949800491333,1.22,8.71,-5.13,10.18
11.630181789398193,-3.39,5.84,-7.07,9.77
11.630359888076782,-2.09,6.31,-3.6,7.55
11.63053274154663,6.61,9.19,1.62,11.43
11.632750988006592,4.86,2.95,-0.1,5.68
11.642724990844727,4.78,-3.04,-2.45,6.17
11.652926921844482,9.33,-4.12,1.5,10.3
11.662900924682617,5.32,-5.49,0.74,7.68
11.672722816467285,2.83,-3.16,-1.08,4.37
11.68274188041687,2.5,-1.53,-3.36,4.45
11.692664861679077,5.61,-1.06,-4.44,7.23
11.729705810546875,8.52,-0.65,-2.87,9.01
11.729887962341309,10.18,-0.37,-0.11,10.18
11.73005986213684,11.24,-0.88,3.06,11.68
11.73251986503601,10.15,-2.41,4.71,11.44
11.742609977722168,7.47,-3.86,2.98,8.92
11.75262975692749,6.48,-4.07,0.49,7.66
11.762574911117554,6.12,-3.36,-0.35,6.99
11.77255892753601,5.28,-2.35,0.61,5.81
11.782595872879028,4.38,-1.69,1.33,4.87
11.79257583618164,3.66,-1.35,1.43,4.15
11.82973575592041,3.1,-1.1,1.45,3.59
11.829917907714844,2.64,-0.69,1.49,3.1
11.830082893371582,2.37,0.07,2.01,3.1
11.832839965820312,2.43,0.93,2.71,3.75
11.84248399734497,2.63,1.37,2.65,3.97
11.852543830871582,2.22,1.23,1.37,2.88
11.86241888999939,1.07,1.6,-0.3,1.94
11.872429847717285,-0.42,2.56,-1.88,3.2
11.882469892501831,-2.75,3.78,-3.17,5.64
11.892354965209961,-5.71,5.11,-4.16,8.71
11.929986000061035,-8.19,6.03,-4.86,11.27
11.93016791343689,-9.83,5.82,-4.99,12.46
11.930338859558105,-10.27,4.75,-3.73,11.91
11.932331085205078,-10.15,3.43,-2.14,10.92
11.942254066467285,-10.46,2.59,-1.5,10.87
11.952335834503174,-11.31,5.32,-1.12,12.54
11.96229600906372,-10.58,8.35,-2.33,13.67
11.972275733947754,-9.63,2.85,-7.88,12.76
11.982348918914795,-13.14,-1.28,-3.81,13.74
11.992172956466675,-13.73,-3.88,1.38,14.33
12.030938863754272,-11.85,-5.4,1.61,13.12
12.031115055084229,-9.82,-4.04,0.21,10.62
12.031283855438232,-9.37,-2.06,-1.35,9.68
12.03217077255249,-9.82,-1.38,-2.88,10.32
12.042052745819092,-11.88,-1.51,-3.3,12.42
12.052000999450684,-13.49,-0.01,-1.71,13.59
12.06204080581665,-6.59,1.97,0.15,6.87
12.07197380065918,1.28,2.34,1.42,3.02
12.082032918930054,3.72,2.47,2.26,5.0
12.0919668674469,2.33,3.65,1.41,4.55
12.130990982055664,-4.0,3.64,-0.67,5.44
12.131166934967041,-9.27,-0.63,-5.56,10.82
12.131339073181152,-11.66,0.44,-6.33,13.27
12.131886959075928,-6.2,3.3,-0.33,7.03
12.141833782196045,-2.4,0.95,3.78,4.57
12.151848793029785,-1.62,-1.7,3.21,3.97
12.161848068237305,-1.87,-1.93,0.55,2.74
12.17175006866455,-2.32,-1.21,-0.93,2.77
12.181893825531006,-2.34,-0.08,-0.5,2.39
12.191894054412842,-1.81,0.47,0.09,1.87
12.231703758239746,-0.95,0.36,0.25,1.04
12.231888771057129,-0.21,0.04,-0.02,0.21
12.232056856155396,0.14,-0.13,-0.54,0.57
12.23222303390503,0.42,0.04,-0.74,0.85
12.241796016693115,0.66,0.23,-0.64,0.94
12.25188684463501,0.71,0.21,-0.83,1.11
12.26188588142395,0.5,0.25,-1.25,1.36
12.271832942962646,0.39,0.28,-1.72,1.78
12.281861782073975,0.4,0.11,-2.12,2.16
12.291838884353638,0.53,0.03,-2.02,2.08
12.331876754760742,0.77,0.33,-0.92,1.24
12.332486867904663,0.66,0.25,0.33,0.77
12.33265995979309,0.42,-0.08,1.2,1.27
12.33282995223999,0.29,-0.27,1.28,1.33
12.341753959655762,0.09,-0.22,0.79,0.82
12.351733922958374,-0.1,-0.02,0.26,0.27
12.361734867095947,-0.1,0.18,-0.17,0.26
12.371640920639038,0.05,0.13,-0.55,0.56
12.381734848022461,0.14,0.07,-0.46,0.48
12.391658782958984,-0.24,0.07,-0.27,0.36
12.432044982910156,-0.75,0.06,-0.51,0.9
12.432219982147217,-0.83,0.04,-0.47,0.95
12.43238878250122,-0.59,0.09,-0.08,0.6
12.432554960250854,-0.41,0.03,0.1,0.42
12.441552877426147,-0.22,-0.06,0.47,0.52
12.451603889465332,0.03,0.06,0.56,0.56
12.461554050445557,0.3,0.15,0.19,0.38
12.471528053283691,0.4,0.15,-0.04,0.42
12.481537818908691,0.21,0.01,-0.29,0.35
12.491496086120605,-0.12,-0.12,-0.23,0.28
12.532340049743652,-0.52,-0.16,0.23,0.59
12.532520771026611,-0.67,-0.17,0.57,0.89
12.532693862915039,-0.48,-0.01,0.51,0.7
12.532861948013306,-0.23,0.23,0.23,0.39
12.541399002075195,-0.02,0.36,-0.08,0.36
12.551366806030273,0.14,0.36,-0.55,0.67
12.56144094467163,0.32,0.35,-0.73,0.87
12.571461915969849,0.56,0.41,-0.64,0.94
12.581411838531494,0.62,0.34,-0.63,0.94
12.591416835784912,0.54,0.22,-0.72,0.92
12.632964849472046,0.61,0.28,-0.49,0.83
12.63315200805664,0.7,0.44,-0.23,0.85
12.633319854736328,0.64,0.5,-0.21,0.83
12.633494853973389,0.86,0.63,-0.23,1.09
12.641286849975586,1.25,0.85,0.08,1.51
12.651432037353516,1.51,1.03,0.45,1.88
12.661148071289062,1.51,1.32,0.7,2.12
12.671308040618896,2.1,1.68,-0.1,2.69
12.681335926055908,2.79,1.95,-0.16,3.4
12.69130277633667,2.5,2.02,0.08,3.21
12.73305082321167,2.56,2.02,-0.28,3.27
12.733234882354736,2.65,1.98,-0.16,3.31
12.73340892791748,2.31,1.85,-0.09,2.96
12.733558893203735,1.6,1.8,-0.09,2.41
12.741199970245361,1.24,1.85,0.03,2.22
12.7511568069458,1.34,1.75,0.13,2.2
12.761044025421143,1.77,1.79,-0.04,2.51
12.771244049072266,2.58,2.36,-0.3,3.5
12.781209945678711,3.32,3.22,-0.63,4.66
12.791125774383545,3.45,3.52,-0.92,5.01
12.833112955093384,3.45,3.6,-0.97,5.07
12.833286762237549,3.7,3.87,-0.8,5.41
12.8334379196167,3.91,3.87,-0.53,5.52
12.833631992340088,4.05,3.52,-0.38,5.37
12.84090280532837,3.57,3.73,-0.51,5.18
12.850925922393799,2.94,4.77,-0.47,5.62
12.860911846160889,2.59,6.0,-0.18,6.53
12.870937824249268,2.2,6.78,-0.24,7.13
12.880989074707031,2.54,7.59,-0.98,8.06
12.891004085540771,3.33,8.26,-1.77,9.08
12.933271884918213,2.86,8.63,-2.32,9.38
12.93345308303833,0.56,8.25,-4.52,9.42
12.93363094329834,-0.83,8.2,-4.68,9.47
12.933797836303711,0.73,8.16,-2.15,8.47
12.940826892852783,4.49,8.07,-0.7,9.26
12.950922966003418,8.54,8.11,-0.07,11.77
12.960928916931152,1.69,-0.45,-4.31,4.65
12.970821857452393,4.96,-3.09,-3.38,6.75
12.980891942977905,4.14,-4.37,0.62,6.05
12.990833759307861,0.79,-3.34,2.52,4.25
13.03376293182373,0.95,-1.28,0.63,1.71
13.033941745758057,4.13,-0.47,-1.98,4.6
13.034111022949219,7.74,-0.13,-1.41,7.86
13.03427791595459,10.16,0.39,0.12,10.16
13.040685892105103,11.65,0.3,1.96,11.81
13.050752878189087,11.83,-0.71,3.08,12.24
13.06103801727295,9.86,-2.07,2.28,10.32
13.07077693939209,7.85,-2.41,1.36,8.32
13.080597877502441,7.37,-1.97,1.03,7.69
13.09067678451538,6.93,-1.26,0.97,7.11
13.134162902832031,6.19,-0.73,1.07,6.32
13.134341955184937,5.38,-0.67,0.88,5.49
13.134513854980469,4.57,-0.85,0.69,4.69
13.134684085845947,4.05,-0.95,0.51,4.19
13.140536785125732,3.63,-0.75,0.52,3.74
13.150615930557251,3.11,-0.19,1.03,3.28
13.160545825958252,2.47,0.43,1.37,2.85
13.170630931854248,1.84,0.85,1.73,2.66
13.180537939071655,1.46,1.31,1.95,2.76
13.190507888793945,1.26,1.9,1.25,2.6
13.234222888946533,0.62,2.36,-0.33,2.46
13.234402894973755,-0.82,3.19,-2.36,4.05
13.234575748443604,-2.77,4.34,-4.34,6.73
13.234742879867554,-4.73,5.68,-5.58,9.26
13.240439891815186,-6.43,6.31,-6.06,10.85
13.250450849533081,-8.22,5.22,-5.56,11.21
13.260400772094727,-9.2,4.03,-3.97,10.8
13.270424842834473,-9.45,3.45,-3.04,10.5
13.28041696548462,-10.71,7.29,-1.83,13.08
13.29042387008667,-8.8,9.15,-4.26,13.39
13.335368871688843,-11.75,2.48,-10.65,16.05
13.335545063018799,-17.52,-1.58,-5.68,18.48
13.335716962814331,-18.18,-4.0,0.85,18.63
13.335886001586914,-16.02,-5.64,1.89,17.08
13.340234756469727,-14.49,-5.61,0.49,15.54
13.35028076171875,-14.21,-3.26,-1.05,14.61
13.360199928283691,-13.96,-1.82,-3.26,14.45
13.370258808135986,-15.68,-1.18,-2.96,16.0
13.3802490234375,-11.99,1.53,0.04,12.08
13.390225887298584,-0.72,4.2,2.47,4.92
13.435309886932373,3.98,5.72,3.36,7.73
13.435484886169434,3.97,6.02,0.78,7.25
13.435653924942017,-3.5,1.79,-5.88,7.07
13.435822010040283,-12.04,-2.0,-9.53,15.48
13.440016746520996,-9.76,1.44,-3.34,10.41
13.450195789337158,-5.77,1.66,2.24,6.4
13.460031032562256,-3.53,-0.99,4.38,5.71
13.470115900039673,-2.4,-2.12,2.09,3.82
13.480093955993652,-2.27,-1.89,-0.82,3.06
13.490071773529053,-2.04,-0.37,-0.97,2.28
13.535584926605225,-1.69,0.94,-0.1,1.93
13.53576374053955,-1.02,1.02,-0.18,1.45
13.535936832427979,-0.58,0.44,-0.59,0.93
13.536105871200562,-0.54,-0.09,-0.75,0.92
13.539937973022461,-0.09,-0.13,-0.51,0.53
13.549956798553467,0.74,-0.13,-0.26,0.79
13.559951782226562,1.02,-0.19,-0.43,1.12
13.56998586654663,0.77,-0.14,-1.18,1.41
13.579923868179321,0.53,0.16,-1.53,1.62
13.589869976043701,0.34,0.26,-1.48,1.54
13.636340856552124,0.21,0.19,-1.33,1.35
13.63650393486023,-0.06,0.19,-1.37,1.38
13.636675834655762,-0.43,0.07,-1.28,1.35
13.63684606552124,-0.27,0.13,-0.46,0.54
13.639946937561035,0.3,0.15,0.24,0.41
13.649847984313965,0.64,-0.04,0.64,0.9
13.659782886505127,0.5,-0.08,0.81,0.95
13.669757843017578,0.03,0.01,0.59,0.59
13.679801940917969,-0.32,0.02,-0.07,0.32
13.689774990081787,-0.41,-0.05,-0.6,0.72
13.736187934875488,-0.44,0.06,-0.46,0.63
13.736365795135498,-0.89,0.09,-0.14,0.9
13.736536026000977,-1.28,-0.05,-0.04,1.28
13.736705780029297,-1.3,-0.12,0.03,1.3
13.739566802978516,-0.92,-0.02,0.09,0.92
13.749575853347778,-0.33,0.05,-0.07,0.34
13.759635925292969,-0.29,0.04,-0.17,0.33
13.769714832305908,-0.49,0.08,-0.17,0.52
13.779705047607422,-0.3,0.19,-0.06,0.36
13.789627075195312,-0.23,0.2,-0.15,0.33
13.837056875228882,-0.28,0.06,-0.19,0.34
13.83723783493042,-0.22,-0.01,-0.05,0.22
13.837393760681152,-0.22,-0.05,0.13,0.26
13.837563037872314,-0.09,0.02,0.35,0.36
13.839499950408936,0.18,0.12,0.31,0.37
13.84954285621643,0.52,0.21,0.18,0.58
13.859576940536499,0.57,0.18,-0.06,0.6
13.86951494216919,0.62,0.14,-0.26,0.68
13.87951374053955,0.89,0.17,-0.2,0.92
13.889468908309937,1.07,0.17,-0.22,1.1
13.936580896377563,1.35,0.09,-0.23,1.37
13.936761856079102,1.69,0.06,-0.16,1.69
13.936935901641846,1.92,0.15,0.03,1.92
13.937103748321533,2.01,0.29,0.11,2.03
13.939368963241577,1.73,0.45,0.15,1.79
13.9494309425354,1.4,0.6,0.16,1.53
13.959396839141846,1.21,0.84,-0.01,1.47
13.969347953796387,1.56,1.03,-0.28,1.89
13.979379892349243,1.88,1.27,0.01,2.26
13.989305973052979,2.08,1.54,0.51,2.63
14.037306785583496,2.18,1.81,0.68,2.91
14.037489891052246,2.43,2.05,-0.34,3.19
14.037661075592041,2.99,2.84,-0.88,4.21
14.037827014923096,2.36,3.35,0.25,4.1
14.039313793182373,2.06,3.3,0.07,3.89
14.049323081970215,2.27,3.43,-0.12,4.11
14.059237957000732,2.49,3.31,-0.26,4.15
14.069253921508789,2.76,3.43,-0.15,4.4
14.079197883605957,3.4,4.07,0.28,5.31
14.08919095993042,4.17,4.78,-0.11,6.34
14.13735294342041,4.19,5.42,-0.53,6.87
14.137528896331787,4.04,5.66,-0.37,6.96
14.137696743011475,4.18,5.38,-0.39,6.82
14.137862920761108,4.12,5.18,-0.42,6.63
14.139117956161499,3.71,5.09,-0.36,6.3
14.149155855178833,2.9,5.66,-0.26,6.36
14.159024953842163,2.57,6.96,-0.29,7.42
14.169092893600464,2.57,8.26,-1.24,8.73
14.178902864456177,2.63,8.88,-3.03,9.74
14.189064979553223,3.64,9.74,-2.99,10.81
14.237667083740234,2.43,8.59,-4.09,9.81
14.237844944000244,-1.76,5.6,-6.27,8.58
14.238012790679932,-0.88,6.99,-3.44,7.84
14.238183975219727,2.6,6.59,-0.96,7.14
14.238874912261963,8.13,8.35,1.39,11.73
14.248923778533936,2.83,-1.47,-3.12,4.46
14.258923053741455,9.04,-2.65,-1.8,9.59
14.268924951553345,6.87,-4.85,-0.95,8.46
14.278750896453857,4.26,-4.22,-1.06,6.08
14.28890585899353,4.35,-2.06,-1.96,5.19
14.338207960128784,6.31,-0.78,-2.66,6.89
14.33840799331665,8.29,0.6,-0.54,8.32
14.338582038879395,9.55,0.97,1.13,9.66
14.338749885559082,10.27,0.05,2.18,10.49
14.338915824890137,9.06,-2.01,2.59,9.63
14.348759889602661,7.43,-3.74,2.11,8.58
14.358739852905273,7.07,-3.76,1.78,8.2
14.368743896484375,6.49,-2.95,1.21,7.23
14.37864875793457,5.84,-2.05,0.79,6.23
14.38881778717041,5.15,-1.45,0.62,5.38
14.438343048095703,4.35,-0.92,0.64,4.49
14.438516855239868,3.99,-0.51,0.67,4.07
14.438685894012451,3.61,-0.17,1.04,3.76
14.438851833343506,3.02,0.11,1.56,3.4
14.439015865325928,2.48,0.37,2.08,3.25
14.448630809783936,2.61,0.52,2.61,3.72
14.458611011505127,2.91,0.87,2.42,3.88
14.468654870986938,2.26,1.73,1.21,3.09
14.478740930557251,0.47,2.48,-0.82,2.65
14.488563060760498,-1.85,3.12,-3.13,4.79
14.539592742919922,-4.45,4.34,-4.94,7.93
14.539772033691406,-6.89,5.92,-5.97,10.87
14.539942741394043,-9.08,6.47,-6.57,12.94
14.540112018585205,-10.7,5.36,-6.17,13.46
14.540277004241943,-10.95,3.82,-4.74,12.52
14.548494815826416,-11.02,2.36,-3.64,11.84
14.558488845825195,-11.97,1.37,-3.18,12.46
14.568546772003174,-13.29,4.57,-1.98,14.19
14.578849792480469,-11.58,5.48,-3.9,13.39
14.588409900665283,-10.97,0.01,-7.6,13.34
14.63951301574707,-13.65,-2.99,-2.43,14.18
14.63969373703003,-14.04,-4.94,1.37,14.94
14.639864921569824,-12.26,-4.74,0.89,13.17
14.64003586769104,-10.17,-3.2,-0.69,10.68
14.640200853347778,-8.81,-1.94,-1.13,9.09
14.648427963256836,-9.11,-1.09,-0.98,9.22
14.658326864242554,-12.16,0.08,0.12,12.16
14.668316841125488,-7.7,1.79,1.02,7.97
14.67835283279419,0.1,2.12,1.37,2.52
14.688286781311035,3.04,3.01,2.28,4.84
14.74024486541748,0.88,5.67,1.96,6.06
14.740426063537598,-6.56,3.04,-1.28,7.34
14.740601062774658,-13.36,-1.28,-8.08,15.66
14.740769863128662,-11.35,2.25,-5.21,12.68
14.7409348487854,-5.94,3.12,1.08,6.79
14.748179912567139,-2.66,-0.51,4.56,5.3
14.758216857910156,-1.77,-2.53,3.03,4.32
14.768109798431396,-1.97,-2.13,-0.39,2.92
14.778166770935059,-2.38,-0.92,-1.2,2.81
14.78815507888794,-2.39,0.42,-0.09,2.42
14.840879917144775,-1.91,0.88,0.0,2.1
14.841060876846313,-1.15,0.53,-0.86,1.53
14.841233730316162,-0.2,0.15,-1.46,1.48
14.841399908065796,0.53,0.21,-1.34,1.45
14.841563940048218,0.91,0.27,-1.08,1.43
14.848253965377808,0.96,0.22,-1.18,1.53
14.858043909072876,0.73,0.16,-1.06,1.29
14.868146896362305,0.44,0.1,-0.47,0.65
14.87800407409668,0.23,0.01,-0.24,0.33
14.888102054595947,0.0,-0.13,-1.04,1.04
14.941390037536621,-0.11,0.03,-1.7,1.7
14.94157075881958,0.11,0.23,-1.33,1.35
14.941740989685059,0.53,0.04,-0.47,0.7
14.941906929016113,0.83,-0.12,0.19,0.85
14.942071914672852,0.76,-0.11,0.36,0.84
14.94797396659851,0.46,-0.04,0.04,0.46
14.9580078125,0.1,-0.1,-0.42,0.44
14.967968940734863,0.01,0.0,-0.39,0.39
14.977908849716187,-0.06,0.12,0.05,0.14
14.987918853759766,-0.34,0.08,0.28,0.44
15.041199922561646,-0.93,0.14,0.21,0.96
15.041379928588867,-1.3,0.17,0.23,1.33
15.041550874710083,-1.15,-0.03,0.55,1.27
15.041700839996338,-0.8,-0.08,0.55,0.97
15.041865825653076,-0.37,0.06,0.13,0.39
15.04778003692627,-0.01,0.11,-0.53,0.54
15.05781078338623,0.07,0.12,-0.75,0.76
15.06777286529541,0.06,0.02,-0.42,0.42
15.077695846557617,-0.23,-0.13,0.0,0.26
15.087687015533447,-0.44,-0.13,0.36,0.58
15.141077041625977,-0.44,-0.03,0.53,0.68
15.141257762908936,-0.36,0.08,0.5,0.62
15.141429901123047,-0.28,0.13,0.22,0.37
15.141579866409302,-0.11,0.13,-0.09,0.19
15.141742944717407,0.24,0.16,-0.3,0.41
15.147634983062744,0.65,0.22,-0.48,0.83
15.15755295753479,0.93,0.29,-0.54,1.11
15.167606830596924,1.05,0.36,-0.44,1.19
15.177559852600098,1.15,0.45,-0.27,1.26
15.187533855438232,1.25,0.52,-0.11,1.35
15.241492748260498,1.3,0.54,-0.13,1.41
15.241672039031982,1.4,0.63,0.11,1.53
15.24183988571167,1.56,0.76,0.28,1.75
15.242003917694092,1.79,0.92,0.4,2.05
15.242166996002197,2.1,1.22,0.46,2.47
15.247560024261475,2.2,1.6,0.64,2.79
15.257449865341187,2.15,2.15,0.59,3.09
15.267515897750854,2.8,2.65,-0.4,3.87
15.277435779571533,3.04,3.0,0.18,4.27
15.28742504119873,2.37,2.86,0.2,3.71
15.34182596206665,2.12,2.85,-0.02,3.55
15.342005729675293,2.01,2.67,0.11,3.34
15.342172861099243,2.06,2.57,0.13,3.29
15.342339038848877,2.3,2.64,-0.16,3.5
15.342506885528564,2.76,2.81,-0.66,3.99
15.347326755523682,3.19,3.22,-0.63,4.57
15.357257843017578,3.53,4.15,-0.15,5.45
15.367311954498291,3.73,4.81,-0.07,6.08
15.377234935760498,3.8,4.71,-0.77,6.1
15.387251853942871,4.05,4.58,-0.96,6.18
15.442548751831055,4.52,4.37,-0.7,6.32
15.442714929580688,4.73,4.37,-0.64,6.47
15.442889928817749,4.62,4.92,-0.22,6.75
15.443058967590332,3.84,5.7,-0.69,6.9
15.44322681427002,2.83,6.61,-0.99,7.25
15.447139739990234,2.69,7.69,-1.19,8.23
15.45720386505127,3.47,8.52,-1.99,9.41
15.467175960540771,2.41,8.18,-3.16,9.09
15.477115869522095,-1.26,5.7,-5.6,8.08
15.487168788909912,-1.75,6.34,-4.36,7.89
15.542759895324707,4.14,9.28,-0.77,10.19
15.542937755584717,3.24,5.49,-2.7,6.92
15.543108940124512,2.86,1.81,-1.98,3.92
15.54327392578125,4.77,-3.16,0.1,5.72
15.543438911437988,8.57,-3.6,1.97,9.5
15.546950817108154,5.3,-3.94,0.14,6.6
15.557050943374634,1.64,-1.99,-1.74,3.11
15.567008972167969,1.18,-0.25,-3.68,3.87
15.577019929885864,4.87,0.75,-3.83,6.24
15.586959838867188,8.11,1.03,-1.92,8.39
15.643403053283691,9.62,0.38,0.41,9.63
15.643584966659546,10.28,-0.92,2.03,10.51
15.643754959106445,9.88,-2.16,2.55,10.42
15.643924951553345,8.16,-2.87,1.43,8.76
15.644087791442871,7.06,-2.2,0.46,7.4
15.64677095413208,6.61,-1.3,-0.01,6.73
15.65689492225647,6.09,-0.76,-0.1,6.13
15.666905879974365,5.64,-0.69,0.02,5.68
15.676858901977539,4.9,-0.74,0.55,4.98
15.686866760253906,4.01,-0.59,1.24,4.23
15.744671821594238,3.12,-0.22,1.27,3.37
15.744838953018188,2.32,0.36,1.16,2.61
15.745006084442139,1.95,1.0,1.33,2.56
15.745168924331665,1.89,1.64,1.42,2.87
15.745330810546875,2.01,1.91,1.2,3.02
15.746563911437988,1.76,1.85,0.39,2.58
15.7568359375,0.64,1.94,-1.21,2.37
15.766669750213623,-1.3,2.14,-3.04,3.93
15.77672791481018,-3.51,2.45,-4.44,6.16
15.78667688369751,-5.52,3.0,-4.74,7.87
15.844659805297852,-7.06,3.1,-3.82,8.6
15.844836950302124,-8.01,2.47,-2.32,8.69
15.845006942749023,-8.34,1.8,-1.25,8.62
15.845176935195923,-8.57,1.3,-1.53,8.8
15.845341920852661,-8.78,1.28,-2.27,9.15
15.846454858779907,-8.99,1.66,-2.83,9.56
15.856578826904297,-9.65,2.22,-3.42,10.47
15.866504907608032,-11.26,5.7,-2.98,12.96
15.8764967918396,-8.94,4.14,-6.17,11.62
15.88651990890503,-9.31,2.0,-5.52,11.0
15.944974899291992,-14.88,-1.6,-2.39,15.15
15.945151805877686,-16.22,-4.28,-0.39,16.77
15.945322036743164,-12.21,-4.43,-0.06,12.98
15.9454927444458,-9.11,-3.34,0.13,9.7
15.945661067962646,-8.15,-2.46,-0.14,8.51
15.946310043334961,-8.15,-1.56,-0.65,8.32
15.956502914428711,-10.35,-0.66,-0.01,10.37
15.966477870941162,-9.59,1.3,1.12,9.74
15.976495742797852,-2.15,2.49,1.9,3.79
15.986457824707031,2.83,3.44,3.18,5.47
16.045613765716553,2.47,6.03,2.74,7.06
16.045790910720825,-4.42,4.82,-0.46,6.55
16.045960903167725,-10.72,-0.25,-7.17,12.89
16.04613494873047,-10.66,0.7,-7.03,12.78
16.04648995399475,-5.05,2.55,-0.79,5.71
16.04674005508423,-1.52,-0.04,4.08,4.35
16.056187868118286,-0.83,-2.38,3.62,4.41
16.066229820251465,-1.84,-2.94,-0.02,3.46
16.076098918914795,-1.99,-1.96,-1.52,3.17
16.08618402481079,-1.23,0.44,-0.47,1.38
16.09609079360962,-1.46,1.56,0.73,2.25
16.145551919937134,-1.93,0.79,0.96,2.29
16.145730018615723,-1.75,-0.27,0.29,1.79
16.145905017852783,-0.99,-0.29,-0.48,1.13
16.146071910858154,-0.18,0.08,-0.93,0.95
16.146235942840576,0.4,0.5,-0.8,1.02
16.156033039093018,0.66,0.54,-0.58,1.03
16.16593289375305,0.66,0.27,-0.35,0.79
16.175973892211914,0.42,0.1,-0.45,0.62
16.18595600128174,0.31,0.14,-0.98,1.03
16.19595193862915,0.11,0.17,-1.48,1.49
16.2458438873291,-0.39,0.15,-1.18,1.25
16.246020793914795,-0.83,0.06,-0.47,0.95
16.24619197845459,-0.81,-0.08,-0.22,0.84
16.246542930603027,-0.44,0.1,0.09,0.46
16.246798992156982,-0.05,0.16,0.27,0.31
16.25586986541748,0.05,0.09,-0.07,0.12
16.265861988067627,-0.08,0.01,-0.52,0.52
16.275856971740723,-0.38,-0.04,-0.49,0.62
16.285833835601807,-0.61,0.08,-0.03,0.61
16.29576873779297,-0.55,0.08,-0.08,0.56
16.34662890434265,-0.53,-0.08,-0.63,0.82
16.346845865249634,-0.56,-0.1,-0.52,0.77
16.3470139503479,-0.49,-0.11,-0.3,0.58
16.34717893600464,-0.41,-0.02,-0.31,0.51
16.347343921661377,-0.52,-0.12,-0.4,0.66
16.35572099685669,-0.74,-0.23,-0.53,0.93
16.365715980529785,-0.98,-0.11,-0.27,1.02
16.375715732574463,-1.14,-0.04,-0.19,1.15
16.385690927505493,-0.92,0.0,-0.19,0.93
16.395710945129395,-0.66,0.05,-0.15,0.67
16.447350025177002,-0.69,0.12,-0.12,0.71
16.447525024414062,-0.53,0.26,-0.25,0.64
16.447677850723267,-0.14,0.26,-0.49,0.57
16.4478440284729,0.3,0.19,-0.4,0.53
16.44800901412964,0.89,0.06,-0.22,0.91
16.45580291748047,1.47,-0.08,0.01,1.47
16.46574878692627,1.88,-0.1,0.42,1.92
16.47564697265625,2.11,0.0,0.65,2.2
16.485703945159912,1.88,0.06,0.39,1.92
16.495669841766357,1.65,0.19,0.08,1.66
16.547701835632324,1.67,0.33,0.03,1.7
16.54807186126709,2.02,0.46,-0.23,2.08
16.548244953155518,2.5,0.53,-0.5,2.6
16.548412799835205,2.82,0.79,-0.41,2.95
16.548583030700684,2.94,1.06,-0.39,3.14
16.555598735809326,2.87,1.19,-0.89,3.23
16.566694736480713,2.84,1.48,-1.14,3.39
16.575559854507446,2.7,2.27,-0.57,3.57
16.585572957992554,2.5,3.12,0.4,4.01
16.595439910888672,2.42,3.11,0.93,4.04
16.647506952285767,2.17,3.02,0.99,3.84
16.64768075942993,2.01,3.51,0.86,4.13
16.647850036621094,2.11,3.75,0.5,4.33
16.648014068603516,2.43,3.84,0.36,4.55
16.648175954818726,2.59,4.19,0.49,4.95
16.65538787841797,3.2,4.65,0.24,5.64
16.665464878082275,3.6,4.91,-0.08,6.08
16.675452947616577,3.39,4.94,-0.01,5.99
16.685400009155273,3.38,4.98,-0.09,6.01
16.695302963256836,3.51,4.87,-0.46,6.02
16.748379945755005,2.92,4.98,-0.47,5.79
16.748551845550537,2.12,5.63,-0.33,6.02
16.748722076416016,1.72,6.89,-0.4,7.11
16.74889588356018,1.48,8.11,-0.19,8.24
16.749059915542603,1.74,8.33,-0.39,8.51
16.75523591041565,1.95,8.59,-1.24,8.89
16.765204906463623,1.41,8.42,-3.34,9.16
16.775166988372803,0.25,8.62,-6.06,10.53
16.831000804901123,0.46,7.52,-5.99,9.62
16.831178903579712,3.0,6.08,-3.4,7.58
16.83137607574463,8.96,7.49,0.9,11.71
16.83154582977295,9.45,2.84,-1.1,9.92
16.831716060638428,9.32,-3.59,-3.0,10.42
16.83517074584961,8.79,-3.23,1.85,9.54
16.845069885253906,3.52,-4.43,-1.14,5.77
16.855207920074463,1.21,-2.88,-2.64,4.09
16.86509084701538,0.61,-1.4,-2.33,2.78
16.875071048736572,4.06,-1.05,-2.36,4.81
16.932887077331543,7.92,-0.9,-1.5,8.11
16.933067798614502,9.74,-0.81,0.29,9.77
16.933239936828613,10.53,-1.11,2.02,10.77
16.9334077835083,9.92,-1.55,2.9,10.45
16.933573961257935,7.39,-1.95,2.26,7.97
16.93509793281555,5.42,-2.2,1.22,5.97
16.944881916046143,4.64,-2.24,0.62,5.18
16.95502281188965,3.85,-2.12,0.71,4.45
16.96492886543274,3.68,-1.98,0.63,4.22
16.974925994873047,3.66,-1.77,0.49,4.09
17.033038854599,3.46,-1.62,0.52,3.85
17.033219814300537,3.17,-1.35,1.09,3.61
17.033397912979126,2.53,-0.99,1.7,3.2
17.03356695175171,1.72,-0.64,2.09,2.78
17.033731937408447,0.87,-0.19,2.53,2.68
17.0346999168396,0.32,0.19,2.66,2.68
17.044785976409912,0.35,0.58,2.88,2.95
17.054868936538696,1.37,0.67,2.99,3.35
17.064734935760498,2.24,1.31,2.37,3.51
17.074896812438965,1.1,2.55,0.83,2.89
17.133230924606323,-1.01,4.05,-0.95,4.28
17.133410930633545,-3.59,5.59,-2.63,7.14
17.133583068847656,-6.21,7.08,-3.85,10.17
17.133750915527344,-8.43,7.12,-4.66,11.97
17.1339168548584,-9.97,5.7,-3.5,12.0
17.134583950042725,-10.22,4.76,-1.7,11.4
17.144681930541992,-10.18,5.89,-1.3,11.83
17.154764890670776,-8.69,11.95,-0.99,14.8
17.164604902267456,-13.76,2.92,-10.34,17.45
17.174684047698975,-17.75,-1.04,-7.38,19.25
17.234302043914795,-17.4,-4.01,-0.96,17.88
17.234482765197754,-15.08,-6.8,0.54,16.55
17.23465585708618,-13.32,-7.05,0.65,15.08
17.23482584953308,-14.01,-4.97,-1.37,14.92
17.234993934631348,-15.15,-2.9,-4.51,16.07
17.23515796661377,-16.37,-1.36,-4.32,16.98
17.24454092979431,-9.5,1.38,-1.65,9.74
17.25459384918213,0.8,3.26,0.49,3.39
17.264362812042236,4.44,7.03,2.68,8.73
17.274569034576416,7.37,9.41,-0.17,11.95
17.33516788482666,-0.82,3.08,-8.95,9.5
17.33535099029541,-10.07,0.59,-8.74,13.34
17.335525035858154,-8.3,1.77,-0.13,8.48
17.335700035095215,-5.26,-0.5,3.42,6.29
17.335869789123535,-3.91,-2.67,3.65,5.97
17.336036920547485,-3.62,-2.7,1.21,4.67
17.344357013702393,-2.99,-1.47,-0.52,3.37
17.35444402694702,-2.42,0.28,-0.01,2.43
17.36455202102661,-2.06,1.01,0.46,2.33
17.374351978302002,-1.64,0.66,0.17,1.77
17.435961961746216,-1.31,0.01,-0.45,1.38
17.436131954193115,-0.62,0.02,-0.42,0.74
17.43629789352417,0.23,0.11,-0.31,0.4
17.436463832855225,0.53,-0.05,-0.59,0.79
17.436627864837646,0.5,0.03,-1.08,1.19
17.436790943145752,0.6,0.27,-1.3,1.45
17.444261074066162,0.61,0.28,-1.03,1.22
17.45430088043213,0.5,0.15,-1.1,1.21
17.464481830596924,0.11,0.01,-1.52,1.52
17.474211931228638,-0.29,0.01,-1.57,1.59
17.536289930343628,-0.31,0.09,-0.99,1.04
17.536468982696533,-0.04,0.01,-0.19,0.19
17.536654949188232,-0.01,-0.01,0.42,0.42
17.53682804107666,-0.41,0.21,0.72,0.85
17.536995887756348,-0.4,0.27,0.66,0.81
17.537161827087402,-0.03,0.11,0.65,0.65
17.54412293434143,0.09,0.01,0.39,0.4
17.55410385131836,0.02,0.01,-0.23,0.23
17.564058780670166,0.11,0.04,-0.68,0.69
17.574143886566162,0.16,0.12,-0.87,0.89
17.63657283782959,-0.03,0.15,-0.77,0.78
17.636751890182495,-0.23,0.14,-0.4,0.48
17.636923789978027,-0.29,-0.03,-0.34,0.44
17.637094020843506,-0.3,-0.04,-0.35,0.46
17.63725996017456,-0.03,-0.11,-0.63,0.64
17.63743495941162,0.19,-0.2,-0.59,0.65
17.64389181137085,0.39,-0.2,-0.45,0.62
17.65399694442749,0.53,-0.07,-0.22,0.57
17.663851737976074,0.61,-0.05,-0.24,0.65
17.673977851867676,0.65,-0.2,-0.36,0.76
17.737772941589355,0.65,-0.28,-0.28,0.76
17.737958908081055,0.75,-0.21,-0.1,0.78
17.73812985420227,0.63,-0.05,-0.19,0.65
17.738300800323486,0.22,0.22,-0.25,0.39
17.738465785980225,0.02,0.43,-0.1,0.44
17.73862886428833,0.09,0.47,0.12,0.49
17.743839740753174,0.22,0.36,0.01,0.42
17.753870010375977,0.44,0.3,-0.22,0.57
17.763754844665527,0.7,0.33,-0.29,0.82
17.773749828338623,1.02,0.31,-0.11,1.07
17.836593866348267,1.53,0.23,0.15,1.55
17.836763858795166,1.86,0.27,0.25,1.89
17.836931943893433,1.87,0.49,0.11,1.93
17.837093830108643,1.92,0.79,-0.1,2.07
17.83726191520691,2.24,0.93,-0.21,2.43
17.837424755096436,2.77,1.07,0.24,2.97
17.843687057495117,3.15,1.12,0.11,3.34
17.85368299484253,3.2,1.95,-0.58,3.79
17.863630771636963,3.47,3.54,-0.13,4.95
17.873631954193115,3.38,3.4,0.53,4.82
17.9378719329834,3.48,3.78,0.07,5.13
17.938052892684937,3.29,4.34,-0.15,5.44
17.938227891921997,3.13,4.29,-0.5,5.33
17.938398838043213,3.17,4.17,-0.66,5.27
17.93855905532837,2.99,4.32,-0.45,5.27
17.938722848892212,3.07,5.15,-0.28,6.0
17.94349193572998,3.74,5.5,-0.57,6.67
17.953500747680664,4.0,5.12,-0.64,6.52
17.963398933410645,4.03,4.77,-0.49,6.26
17.97340202331543,3.86,5.17,-0.63,6.48
18.03716492652893,3.04,5.37,-1.3,6.3
18.037354946136475,2.31,5.36,-1.46,6.01
18.03752899169922,2.39,5.97,-1.15,6.53
18.037697792053223,2.48,6.78,-0.45,7.23
18.037861824035645,2.47,7.35,0.31,7.76
18.038025856018066,1.82,7.69,-1.38,8.02
18.043290853500366,-0.2,7.75,-4.57,8.99
18.05338478088379,-0.79,8.0,-5.82,9.92
18.063498973846436,1.21,7.75,-3.85,8.73
18.073341846466064,4.87,7.13,-0.8,8.67
18.138872861862183,8.97,7.11,1.48,11.54
18.13905382156372,6.4,-1.25,-3.16,7.24
18.139225959777832,7.06,-2.94,1.29,7.75
18.139392852783203,3.69,-3.87,1.4,5.52
18.139558792114258,1.7,-3.82,-1.88,4.58
18.13972282409668,2.51,-2.5,-3.41,4.91
18.143177032470703,5.46,-1.18,-3.43,6.55
18.153357982635498,9.0,-0.7,-1.45,9.14
18.163211822509766,11.08,-0.66,1.34,11.18
18.17325496673584,11.62,-1.17,3.27,12.12
18.237163066864014,10.13,-1.69,3.74,10.92
18.23734188079834,7.48,-2.0,2.88,8.26
18.237496852874756,5.6,-2.0,1.85,6.22
18.23767375946045,4.5,-1.89,1.05,4.99
18.237838745117188,3.6,-1.67,0.97,4.08
18.238005876541138,3.15,-1.69,0.9,3.68
18.24306893348694,3.19,-1.8,0.74,3.73
18.25311803817749,3.25,-1.66,0.86,3.74
18.263097763061523,3.03,-1.09,1.06,3.39
18.27314591407776,2.51,-0.27,1.22,2.8
18.33792996406555,1.97,0.18,1.35,2.39
18.33810806274414,1.37,0.39,1.82,2.31
18.3382830619812,0.92,0.75,2.29,2.57
18.338451862335205,0.97,1.34,2.28,2.81
18.338615894317627,1.68,1.46,1.81,2.86
18.338778972625732,1.81,2.12,0.69,2.87
18.342923879623413,0.35,3.62,-0.87,3.73
18.352951049804688,-2.54,5.05,-2.94,6.37
18.362875938415527,-6.04,6.01,-5.07,9.91
18.37293577194214,-8.84,6.58,-6.28,12.68
18.43865394592285,-10.69,5.96,-6.04,13.64
18.438822746276855,-10.9,5.01,-4.12,12.68
18.4389910697937,-10.92,3.74,-3.05,11.93
18.439157009124756,-11.51,4.59,-2.32,12.6
18.43932580947876,-10.31,9.06,-1.76,13.83
18.439490795135498,-11.71,0.79,-9.06,14.82
18.44283103942871,-14.48,-1.83,-5.57,15.62
18.4528169631958,-14.79,-3.87,-0.45,15.29
18.462707996368408,-12.95,-4.9,0.89,13.87
18.472792863845825,-10.84,-4.18,-0.08,11.61
18.538842916488647,-9.35,-2.72,-1.73,9.89
18.539021015167236,-9.14,-1.89,-3.14,9.84
18.53918981552124,-9.68,-1.21,-3.12,10.24
18.539361000061035,-12.26,0.19,-1.17,12.31
18.539527893066406,-8.22,2.93,0.53,8.74
18.53967595100403,-0.55,2.8,0.53,2.9
18.54264497756958,3.14,1.15,0.2,3.34
18.55264377593994,4.8,1.3,0.36,4.98
18.562626838684082,4.09,2.84,-0.65,5.02
18.572693824768066,-1.69,2.06,-2.46,3.62
18.639028072357178,-5.85,-0.82,-4.77,7.59
18.63921093940735,-11.07,-0.81,-5.31,12.3
18.639384746551514,-8.99,3.03,-0.43,9.49
18.639556884765625,-5.32,2.14,2.71,6.34
18.639723777770996,-3.14,-1.22,2.55,4.22
18.63988995552063,-2.74,-2.85,0.98,4.07
18.642497062683105,-2.15,-2.15,-0.08,3.04
18.6524977684021,-1.11,-0.1,-0.13,1.12
18.662460803985596,-0.6,1.15,-0.54,1.4
18.672502040863037,-0.64,1.29,-0.77,1.63
18.739893913269043,-0.92,0.59,-0.61,1.25
18.740055084228516,-0.92,0.11,-0.21,0.95
18.740227937698364,-0.57,0.12,0.25,0.63
18.740397930145264,-0.37,0.09,0.36,0.52
18.740566730499268,-0.54,-0.01,-0.08,0.54
18.74073600769043,-0.66,0.07,-0.62,0.9
18.74216389656067,-0.76,0.23,-0.91,1.2
18.75234889984131,-0.7,0.21,-0.94,1.19
18.762310028076172,-0.6,0.11,-0.91,1.09
18.77236294746399,-0.5,0.06,-1.14,1.24
18.839553833007812,-0.36,0.06,-0.84,0.91
18.839736938476562,-0.24,0.08,-0.69,0.73
18.83991003036499,-0.41,0.09,-0.64,0.76
18.84007692337036,-0.59,0.2,-0.38,0.72
18.84024691581726,-0.43,0.19,0.16,0.49
18.840410947799683,-0.14,0.09,0.34,0.37
18.84220600128174,0.04,0.01,0.01,0.04
18.852163791656494,-0.17,0.08,-0.06,0.19
18.86218500137329,-0.53,0.19,-0.18,0.59
18.87217903137207,-0.57,0.14,-0.4,0.71
18.882128953933716,-0.31,-0.02,-0.91,0.96
18.94010877609253,-0.2,-0.19,-1.16,1.19
18.940289974212646,-0.23,-0.25,-0.96,1.01
18.94045877456665,-0.04,-0.22,-0.62,0.65
18.940624952316284,0.14,-0.19,-0.52,0.57
18.940789937973022,0.09,-0.09,-0.41,0.42
18.94215202331543,-0.03,0.03,-0.12,0.12
18.95207691192627,-0.1,0.06,-0.07,0.13
18.9620099067688,-0.09,0.05,-0.14,0.17
18.972003936767578,-0.05,-0.03,-0.23,0.23
18.981956005096436,0.11,-0.06,-0.23,0.26
19.039784908294678,0.24,0.03,-0.1,0.26
19.039952754974365,0.4,0.02,-0.01,0.4
19.040117740631104,0.54,0.01,0.18,0.56
19.04026508331299,0.58,0.01,0.22,0.62
19.040427923202515,0.59,0.04,0.11,0.6
19.04190492630005,0.59,0.15,0.03,0.6
19.051950931549072,0.55,0.27,-0.02,0.61
19.061891078948975,0.58,0.33,-0.11,0.67
19.071903944015503,0.73,0.31,-0.21,0.82
19.081779956817627,0.84,0.22,-0.45,0.97
19.139846801757812,0.77,0.18,-0.54,0.95
19.140023946762085,0.68,0.3,-0.34,0.81
19.140198945999146,0.86,0.5,0.0,0.99
19.140363931655884,1.29,0.63,0.28,1.46
19.14053201675415,1.76,0.73,0.43,1.95
19.14171290397644,2.37,0.92,0.52,2.59
19.15176486968994,3.01,1.15,0.53,3.26
19.16175889968872,3.37,1.52,0.49,3.72
19.17174482345581,3.33,2.01,0.53,3.92
19.181681871414185,3.01,2.6,0.26,3.98
19.240428924560547,3.5,3.29,-1.13,4.93
19.240609884262085,3.68,3.86,-0.76,5.38
19.240782737731934,3.14,4.05,-0.37,5.13
19.240952014923096,3.4,4.44,-0.26,5.59
19.241121768951416,3.64,4.4,-0.01,5.71
19.241518020629883,3.77,4.31,0.24,5.73
19.251728057861328,4.27,4.65,0.53,6.33
19.261634826660156,4.61,4.97,0.34,6.78
19.271667957305908,4.38,5.22,0.0,6.81
19.281582832336426,4.17,4.83,-0.28,6.38
19.340792894363403,4.15,4.19,-0.51,5.91
19.340960025787354,3.67,4.09,-0.71,5.54
19.34114408493042,2.82,4.6,-0.8,5.45
19.341338872909546,2.33,5.52,-0.88,6.05
19.341506004333496,2.15,6.75,-1.15,7.17
19.3416690826416,2.63,7.81,-2.14,8.51
19.351425886154175,3.38,9.27,-2.87,10.27
19.361506938934326,2.07,8.53,-4.61,9.91
19.371469020843506,-2.01,6.25,-6.89,9.51
19.38138198852539,-2.55,6.55,-4.97,8.6
19.441258907318115,2.61,7.44,-0.74,7.91
19.4414279460907,8.76,8.56,1.73,12.36
19.44159698486328,3.22,0.16,-2.22,3.91
19.4417667388916,6.62,-2.43,-1.84,7.28
19.44193196296692,6.65,-3.64,0.77,7.62
19.44209885597229,2.64,-4.02,-0.47,4.83
19.451406955718994,0.54,-2.51,-0.6,2.63
19.461232900619507,1.92,-1.5,-2.05,3.18
19.471282958984375,6.15,-1.0,-2.5,6.71
19.481209754943848,9.37,-0.58,-1.16,9.45
19.54198408126831,11.12,-0.4,0.82,11.15
19.542165756225586,11.45,-0.78,2.76,11.8
19.542340755462646,10.07,-1.87,2.72,10.59
19.542507886886597,7.77,-2.77,1.33,8.35
19.54267406463623,6.81,-2.65,0.5,7.32
19.542841911315918,6.24,-2.12,0.14,6.59
19.55112385749817,5.62,-1.93,-0.04,5.94
19.561134815216064,5.25,-1.96,0.07,5.6
19.57112693786621,4.78,-1.72,0.45,5.09
19.581105947494507,4.13,-1.06,0.59,4.3
19.642054080963135,3.22,-0.41,0.7,3.32
19.642234802246094,2.23,-0.01,0.76,2.35
19.642404079437256,1.3,0.17,0.67,1.47
19.642571926116943,0.62,0.37,0.77,1.05
19.64273500442505,0.23,0.75,0.98,1.25
19.642900943756104,-0.05,1.11,0.51,1.22
19.65104579925537,0.1,1.33,-0.86,1.58
19.6610050201416,-0.58,1.92,-2.66,3.33
19.67100191116333,-2.5,2.98,-4.46,5.91
19.681035041809082,-5.2,4.16,-6.05,8.99
19.74312973022461,-7.97,4.66,-6.77,11.44
19.743313789367676,-9.97,4.1,-6.3,12.48
19.743488788604736,-10.47,3.51,-4.75,12.02
19.74365997314453,-11.09,2.62,-3.59,11.94
19.743826866149902,-12.06,1.49,-2.99,12.51
19.743992805480957,-12.81,1.13,-2.61,13.12
19.75082492828369,-12.77,5.23,-1.73,13.9
19.76090908050537,-10.04,4.0,-5.85,12.28
19.770909786224365,-11.4,-0.94,-6.79,13.3
19.780765056610107,-13.25,-2.72,-1.59,13.61
19.84287691116333,-12.33,-3.65,0.44,12.86
19.84305691719055,-10.66,-3.72,0.24,11.29
19.843235969543457,-8.91,-3.19,0.33,9.46
19.843405961990356,-7.54,-2.01,0.24,7.8
19.843570947647095,-9.33,-0.35,1.38,9.43
19.84373903274536,-9.23,2.91,3.07,10.15
19.8505220413208,-1.78,3.86,3.31,5.38
19.860671997070312,3.31,2.03,1.81,4.28
19.870792865753174,3.34,3.62,-0.36,4.93
19.880672931671143,-1.22,5.31,-1.62,5.68
19.943634033203125,-8.57,0.21,-6.95,11.03
19.943811893463135,-10.91,0.99,-7.08,13.04
19.94398307800293,-7.32,3.18,-0.57,8.0
19.944150924682617,-4.9,0.26,4.31,6.53
19.94431781768799,-3.46,-2.31,3.48,5.42
19.944483757019043,-3.01,-2.3,-0.1,3.78
19.95037293434143,-3.04,-1.03,-1.5,3.54
19.96052074432373,-2.89,0.64,-0.92,3.09
19.970502853393555,-2.23,0.95,-0.44,2.46
19.980458736419678,-1.35,0.33,-0.02,1.38
20.043608903884888,-0.6,-0.14,0.41,0.74
20.04378604888916,-0.14,-0.09,0.65,0.67
20.043953895568848,0.41,0.16,0.48,0.65
20.04412078857422,0.82,0.23,-0.02,0.85
20.044285774230957,0.87,0.09,-0.66,1.09
20.04444980621338,0.47,0.06,-1.05,1.15
20.0502667427063,0.18,0.02,-1.32,1.33
20.06044578552246,0.06,-0.01,-1.43,1.43
20.070396900177002,-0.02,0.05,-1.46,1.46
20.080316066741943,-0.12,0.11,-1.75,1.75
20.143935918807983,-0.4,0.06,-2.01,2.05
20.144113063812256,-0.23,0.04,-1.36,1.37
20.14428186416626,0.17,0.27,-0.06,0.32
20.144447803497314,0.27,0.18,0.37,0.49
20.144612789154053,0.04,-0.02,0.57,0.57
20.144775867462158,-0.37,0.01,0.95,1.01
20.150349855422974,-0.45,0.02,0.88,0.98
20.160156965255737,-0.31,0.01,0.76,0.82
20.17013692855835,-0.33,0.02,0.48,0.58
20.180092811584473,-0.65,0.07,-0.35,0.74
20.244410037994385,-0.91,0.01,-0.97,1.33
20.24458885192871,-0.75,-0.07,-0.79,1.09
20.24476194381714,-0.55,-0.1,-0.47,0.73
20.244931936264038,-0.45,0.01,-0.05,0.45
20.245096921920776,-0.37,0.09,0.33,0.5
20.245259761810303,-0.36,0.15,0.35,0.52
20.250401973724365,-0.34,0.08,0.33,0.48
20.260156869888306,-0.21,0.06,0.32,0.38
20.270051956176758,-0.06,-0.04,0.09,0.11
20.279939889907837,0.1,-0.07,-0.24,0.26
20.34465789794922,0.25,-0.04,-0.43,0.49
20.34484100341797,0.27,0.01,-0.38,0.46
20.345013856887817,0.21,0.05,-0.3,0.36
20.34518003463745,0.18,0.11,-0.15,0.25
20.345342874526978,0.31,0.2,0.03,0.37
20.3455069065094,0.47,0.19,0.0,0.5
20.35004687309265,0.67,0.11,-0.05,0.68
20.36002206802368,0.94,0.11,-0.01,0.94
20.369951963424683,1.2,0.18,-0.1,1.21
20.379939079284668,1.36,0.18,-0.15,1.38
20.444596767425537,1.49,0.27,0.08,1.51
20.444761753082275,1.69,0.29,0.08,1.71
20.44493579864502,2.11,0.35,-0.02,2.13
20.445103883743286,2.86,0.54,0.07,2.91
20.445265769958496,3.5,0.75,0.04,3.57
20.4454288482666,3.7,0.93,-0.07,3.81
20.449793815612793,3.68,1.22,-0.25,3.88
20.4598708152771,3.6,1.88,-0.49,4.09
20.469791889190674,3.52,2.81,0.09,4.5
20.479777812957764,3.16,3.46,0.7,4.73
20.545315742492676,3.2,3.87,-1.07,5.13
20.545479774475098,3.2,4.75,-0.68,5.76
20.54564905166626,3.11,4.82,-0.3,5.74
20.54581594467163,2.96,4.55,0.14,5.42
20.54598093032837,2.78,3.98,0.49,4.87
20.546143054962158,2.6,4.08,0.82,4.9
20.549710750579834,2.78,4.44,1.01,5.33
20.55972695350647,3.13,5.35,0.81,6.25
20.569676876068115,3.49,5.74,0.37,6.72
20.57965898513794,3.51,5.2,-0.35,6.28
20.645994901657104,3.73,5.12,-0.3,6.34
20.646175861358643,4.58,5.15,0.19,6.89
20.646347045898438,5.25,5.79,0.21,7.81
20.64651393890381,5.31,6.51,-0.81,8.43
20.646678924560547,4.03,6.95,-1.82,8.23
20.646843910217285,3.21,8.66,-2.44,9.55
20.649555921554565,3.1,11.87,-3.03,12.63
20.6595299243927,-1.09,9.98,-5.83,11.6
20.66950273513794,-5.58,7.06,-7.0,11.4
20.679536819458008,-2.19,6.99,-2.92,7.88
20.74638605117798,7.66,9.56,1.96,12.4
20.746566772460938,3.81,0.59,-1.69,4.2
20.7467360496521,6.3,-4.64,-1.81,8.03
20.74690294265747,8.4,-5.35,3.33,10.5
20.747068881988525,2.97,-6.27,0.39,6.94
20.747233867645264,0.27,-4.05,-1.37,4.28
20.749400854110718,0.74,-2.86,-2.85,4.1
20.759366989135742,5.02,-2.69,-3.52,6.69
20.76938796043396,8.24,-2.73,-2.11,8.93
20.77934503555298,9.9,-2.61,0.23,10.24
20.84657096862793,10.71,-2.22,2.8,11.29
20.846751928329468,10.38,-2.09,3.71,11.21
20.846930980682373,8.73,-2.58,2.53,9.44
20.84710192680359,7.36,-2.94,1.29,8.02
20.847270011901855,6.7,-2.51,1.14,7.24
20.84743595123291,5.93,-1.59,1.27,6.26
20.84922194480896,4.82,-0.86,1.11,5.02
20.859217882156372,3.79,-0.46,0.64,3.87
20.86920976638794,3.08,-0.06,0.58,3.13
20.87918186187744,2.71,0.39,1.11,2.95
20.94753074645996,2.42,0.88,1.98,3.24
20.947710037231445,2.2,1.33,2.51,3.59
20.94787883758545,2.07,1.98,2.84,4.03
20.948043823242188,2.22,2.51,2.8,4.36
20.948219776153564,2.59,2.62,2.06,4.22
20.94838285446167,1.94,3.14,0.68,3.75
20.949014902114868,0.18,3.88,-1.29,4.09
20.959147930145264,-2.16,4.73,-3.2,6.1
20.969021797180176,-5.06,5.45,-4.68,8.78
20.97901678085327,-7.46,5.97,-5.04,10.8
21.048402786254883,-9.11,5.7,-4.62,11.69
21.048588752746582,-10.12,4.86,-3.68,11.81
21.048760890960693,-10.73,4.01,-3.31,11.92
21.04893207550049,-11.71,2.66,-3.94,12.63
21.049100875854492,-12.9,1.2,-4.36,13.66
21.049263954162598,-13.47,2.3,-3.26,14.04
21.049428939819336,-12.29,3.48,-3.54,13.25
21.058976888656616,-11.99,-1.16,-6.7,13.78
21.06884479522705,-13.43,-2.64,-2.84,13.97
21.07891273498535,-13.49,-3.93,-0.81,14.07
21.14856791496277,-12.11,-3.56,-1.21,12.68
21.14874291419983,-10.39,-2.63,-1.73,10.85
21.148911952972412,-8.96,-2.02,-1.68,9.33
21.149080753326416,-8.68,-1.04,0.2,8.74
21.149247884750366,-9.23,1.12,2.31,9.58
21.149412870407104,-2.07,4.02,3.52,5.73
21.149574756622314,3.95,3.02,1.76,5.27
21.15879988670349,4.27,0.32,-1.92,4.69
21.16865873336792,3.02,2.47,-2.73,4.76
21.178752899169922,-1.81,3.79,0.31,4.21
21.24937677383423,-5.7,1.52,-0.53,5.92
21.249560832977295,-7.02,-0.32,-4.49,8.33
21.249733924865723,-10.03,0.55,-6.11,11.75
21.249903917312622,-7.29,3.8,-0.93,8.27
21.25007200241089,-3.36,1.42,2.83,4.61
21.25024700164795,-2.17,-2.08,2.3,3.78
21.250415802001953,-2.95,-2.83,0.26,4.09
21.258721828460693,-3.42,-2.05,-1.15,4.14
21.268502950668335,-2.94,-0.17,-0.77,3.04
21.27856683731079,-2.31,0.92,0.05,2.48
21.34968376159668,-1.3,0.93,0.25,1.61
21.349859952926636,-0.4,0.49,-0.15,0.65
21.350027084350586,0.25,0.31,-0.5,0.63
21.350192070007324,0.83,0.3,-0.83,1.21
21.350357055664062,1.24,0.42,-0.85,1.56
21.3505220413208,1.04,0.43,-0.92,1.45
21.350686073303223,0.44,0.39,-1.26,1.39
21.358572006225586,-0.16,0.13,-1.17,1.18
21.3682758808136,-0.54,0.03,-0.81,0.97
21.378472805023193,-0.65,0.08,-0.86,1.08
21.449766874313354,-0.93,-0.02,-1.0,1.36
21.449944019317627,-1.36,-0.16,-0.82,1.59
21.450114965438843,-1.45,-0.04,-0.28,1.47
21.450281858444214,-0.9,0.06,0.15,0.91
21.450445890426636,-0.37,0.07,0.42,0.56
21.450613975524902,-0.07,-0.03,0.41,0.41
21.450778007507324,-0.35,-0.11,-0.16,0.4
21.458499908447266,-0.83,-0.01,-0.61,1.03
21.4683518409729,-0.98,0.04,-0.71,1.21
21.478378772735596,-0.96,-0.12,-0.72,1.2
21.549338817596436,-0.81,-0.21,-0.68,1.07
21.54952096939087,-0.46,-0.1,-0.78,0.91
21.549728870391846,-0.23,0.05,-0.84,0.87
21.54989790916443,-0.27,0.06,-0.81,0.85
21.550045013427734,-0.27,-0.05,-0.47,0.54
21.550211906433105,-0.11,-0.07,-0.14,0.19
21.55037498474121,0.07,-0.06,-0.29,0.3
21.55819606781006,0.2,-0.05,-0.52,0.55
21.56838083267212,0.26,-0.12,-0.47,0.55
21.578063011169434,0.26,-0.17,-0.18,0.35
21.64918088912964,0.28,-0.11,0.19,0.35
21.649357795715332,0.3,-0.04,0.23,0.38
21.649531841278076,0.34,-0.02,0.06,0.34
21.64970302581787,0.57,-0.04,0.22,0.61
21.649868965148926,0.86,-0.05,0.55,1.02
21.65003490447998,1.0,-0.02,0.62,1.17
21.650194883346558,1.04,0.11,0.53,1.17
21.6580867767334,0.92,0.32,0.59,1.13
21.668015003204346,1.02,0.35,0.77,1.32
21.67806887626648,1.39,0.29,0.7,1.58
21.749058961868286,1.8,0.2,0.34,1.84
21.749263763427734,2.04,0.2,0.07,2.05
21.749429941177368,2.07,0.25,0.09,2.08
21.749655961990356,2.03,0.39,0.18,2.07
21.749824047088623,2.37,0.55,0.15,2.43
21.75002098083496,2.66,0.65,-0.12,2.74
21.750216007232666,2.69,0.69,-0.3,2.79
21.75798487663269,2.83,0.93,-0.17,2.98
21.767907857894897,2.76,1.19,-0.56,3.05
21.777896881103516,2.61,1.37,-1.01,3.11
21.849198818206787,2.58,1.89,-0.9,3.32
21.849376916885376,2.19,2.84,0.09,3.58
21.849547863006592,1.53,3.77,0.51,4.1
21.849719047546387,1.58,3.97,-1.05,4.39
21.849884033203125,1.55,4.08,0.42,4.38
21.850039958953857,1.72,3.91,1.0,4.38
21.850205898284912,1.87,3.43,0.68,3.96
21.857850074768066,1.91,3.35,0.51,3.88
21.867783069610596,2.71,4.26,0.99,5.14
21.87773585319519,3.59,4.94,0.13,6.1
21.94868803024292,3.6,4.83,-0.89,6.08
21.948869943618774,3.56,4.47,-0.86,5.77
21.949039936065674,3.97,4.46,-0.76,6.01
21.94920587539673,4.52,4.59,-0.19,6.44
21.94937491416931,5.08,4.98,0.25,7.11
21.949542999267578,5.53,6.03,-0.16,8.18
21.949706077575684,5.15,7.05,-0.77,8.76
21.957607746124268,4.2,7.8,-2.46,9.19
21.967607975006104,3.86,9.82,-2.88,10.93
21.977574825286865,3.66,12.1,-2.71,12.92
22.04874897003174,0.06,10.74,-5.22,11.94
22.048927783966064,-4.66,7.66,-7.29,11.55
22.049098014831543,-2.75,7.7,-3.63,8.94
22.049264907836914,6.01,10.62,1.88,12.34
22.049429893493652,4.49,4.7,-0.08,6.5
22.049593925476074,3.94,-1.82,-2.34,4.93
22.04975700378418,8.0,-4.41,1.39,9.24
22.0573148727417,4.24,-5.56,0.53,7.01
22.067323923110962,1.69,-3.81,-1.75,4.52
22.07732582092285,1.55,-2.28,-3.6,4.53
22.148648738861084,5.15,-1.16,-3.59,6.38
22.148834943771362,8.33,-0.77,-0.98,8.42
22.14901304244995,10.22,-0.9,2.59,10.58
22.149181842803955,10.74,-1.59,4.88,11.9
22.149346828460693,9.03,-2.79,4.75,10.57
22.14951181411743,6.43,-4.08,2.89,8.14
22.149674892425537,5.76,-4.32,1.87,7.43
22.15723180770874,5.54,-3.86,1.88,7.0
22.167253971099854,5.06,-3.66,1.96,6.54
22.177286863327026,4.81,-3.6,1.68,6.23
22.2495059967041,4.45,-3.35,1.56,5.78
22.2496919631958,3.96,-3.03,1.64,5.24
22.249860763549805,3.41,-2.49,2.1,4.71
22.250030994415283,2.65,-1.72,2.86,4.26
22.25019598007202,1.88,-0.99,3.29,3.91
22.250360012054443,1.25,-0.13,3.56,3.77
22.250521898269653,0.92,0.96,3.67,3.9
22.25724196434021,1.06,1.58,3.17,3.69
22.26716184616089,1.36,2.14,2.29,3.41
22.277175903320312,1.06,3.46,1.12,3.78
22.34964394569397,-0.47,5.3,-0.74,5.37
22.349848747253418,-3.12,7.52,-3.1,8.71
22.350018978118896,-5.88,10.1,-5.33,12.84
22.35019087791443,-8.71,11.21,-7.58,16.09
22.350360870361328,-12.46,9.37,-8.99,17.99
22.35052990913391,-11.91,13.2,-5.96,18.75
22.350697994232178,-12.6,11.78,-7.21,18.69
22.357056856155396,-17.46,-0.02,-11.93,21.14
22.36697292327881,-17.48,-3.49,-4.48,18.37
22.377028942108154,-17.07,-7.88,0.92,18.82
22.45055389404297,-14.81,-8.46,2.18,17.19
22.45073390007019,-14.14,-5.48,0.64,15.17
22.450905799865723,-13.22,-2.11,-2.82,13.68
22.451075077056885,-12.05,-0.81,-4.97,13.05
22.451240062713623,-12.8,0.47,-3.12,13.18
22.45140290260315,-7.8,2.82,0.6,8.31
22.4515700340271,-0.19,2.88,1.71,3.35
22.456881046295166,3.62,0.69,1.55,3.99
22.46683692932129,5.09,-0.71,1.5,5.35
22.476747035980225,6.18,2.75,0.89,6.82
22.55087900161743,0.69,4.39,-2.4,5.05
22.551057815551758,-8.38,0.51,-9.58,12.73
22.551229000091553,-14.93,1.38,-7.65,16.83
22.551395893096924,-11.0,5.0,1.92,12.23
22.551560878753662,-4.75,1.41,4.23,6.51
22.5517258644104,-1.98,-2.18,4.64,5.49
22.551889896392822,-1.63,-3.18,1.01,3.71
22.55686378479004,-1.22,-1.7,-1.25,2.43
22.566667079925537,-1.48,-0.28,-0.9,1.75
22.576781749725342,-1.61,0.75,0.26,1.79
22.651001930236816,-1.31,0.75,0.25,1.53
22.65118408203125,-0.89,0.17,-0.65,1.11
22.651360988616943,-0.49,-0.17,-1.3,1.39
22.651527881622314,0.15,0.06,-1.29,1.3
22.651694774627686,0.79,0.37,-0.78,1.17
22.651861906051636,1.09,0.46,-0.52,1.29
22.65200901031494,1.09,0.27,-0.85,1.4
22.656610012054443,0.62,0.09,-1.14,1.3
22.666512966156006,0.21,-0.02,-1.29,1.3
22.67652988433838,0.26,0.01,-1.16,1.18
22.751003742218018,0.31,-0.04,-0.76,0.82
22.751184940338135,0.39,-0.09,-0.47,0.61
22.75135898590088,0.49,-0.06,-0.46,0.67
22.751529932022095,0.38,0.1,-0.44,0.58
22.75169587135315,0.22,0.3,-0.39,0.53
22.7518630027771,0.08,0.15,-0.15,0.22
22.75202989578247,-0.12,-0.14,0.22,0.28
22.756508827209473,-0.21,-0.13,0.27,0.36
22.766409873962402,-0.21,-0.1,-0.12,0.26
22.776418924331665,-0.18,-0.07,-0.44,0.48
22.85083794593811,-0.12,0.03,-0.55,0.56
22.85100793838501,-0.12,0.01,-0.74,0.74
22.85118007659912,0.0,-0.05,-0.75,0.75
22.85135293006897,0.09,-0.1,-0.49,0.5
22.851518869400024,0.1,0.04,-0.17,0.2
22.851682901382446,-0.17,0.11,0.17,0.26
22.851850032806396,-0.39,0.17,0.28,0.5
22.85630488395691,-0.43,0.16,0.18,0.49
22.86623477935791,-0.4,0.08,0.08,0.41
22.876240730285645,-0.3,-0.03,0.12,0.32
22.950455904006958,-0.09,-0.04,0.1,0.14
22.950634002685547,0.08,-0.03,-0.09,0.12
22.950809001922607,0.19,0.04,-0.12,0.22
22.950958967208862,0.19,0.1,-0.25,0.32
22.951124906539917,0.05,0.09,-0.43,0.44
22.951289892196655,0.11,0.04,-0.33,0.35
22.951453924179077,0.36,0.05,0.07,0.37
22.956122875213623,0.58,0.08,0.32,0.66
22.96611499786377,0.88,0.14,0.45,0.99
22.976067066192627,1.12,0.24,0.34,1.19
23.049973011016846,1.06,0.29,0.09,1.1
23.05014991760254,1.16,0.33,-0.05,1.2
23.050320863723755,1.32,0.44,-0.01,1.39
23.05048894882202,1.45,0.51,-0.1,1.54
23.05065393447876,1.97,0.61,-0.33,2.08
23.05081796646118,2.63,0.81,-0.49,2.79
23.050981044769287,2.99,1.05,-0.48,3.2
23.055991888046265,3.17,1.34,-0.07,3.44
23.06605577468872,2.99,1.67,0.14,3.42
23.07595992088318,2.21,2.31,0.52,3.23
23.085909843444824,1.8,3.67,0.76,4.15
23.149719953536987,2.23,4.08,-0.46,4.67
23.149899005889893,2.29,4.18,-0.1,4.76
23.150064945220947,2.73,4.35,0.26,5.14
23.150234937667847,3.06,4.22,-0.18,5.21
23.15039873123169,2.9,3.93,-0.45,4.9
23.150561809539795,2.76,4.27,0.13,5.08
23.155919075012207,3.42,4.87,0.26,5.95
23.165780067443848,3.76,4.97,-0.26,6.23
23.17581295967102,3.43,4.39,-0.43,5.58
23.18588399887085,3.37,3.92,-0.26,5.17
23.250225067138672,3.43,3.86,-0.34,5.17
23.250407934188843,3.45,4.15,0.15,5.39
23.25057888031006,3.29,4.98,0.13,5.97
23.250744819641113,3.4,6.7,-0.09,7.51
23.250910758972168,3.68,8.57,-0.74,9.35
23.251073837280273,3.26,8.83,-2.37,9.7
23.255702018737793,2.83,9.48,-3.46,10.48
23.265683889389038,1.85,9.9,-5.58,11.51
23.275670051574707,-1.04,8.47,-8.05,11.73
23.285574913024902,0.05,7.62,-6.29,9.88
23.34943389892578,4.59,7.14,-2.13,8.75
23.349610805511475,10.39,8.28,1.76,13.4
23.349782943725586,6.47,0.38,-1.97,6.77
23.349949836730957,8.9,-2.74,-1.29,9.4
23.35011577606201,6.99,-3.91,1.75,8.19
23.350279808044434,2.53,-4.51,-1.57,5.4
23.355545043945312,0.4,-3.26,-2.71,4.25
23.365498065948486,-0.19,-2.36,-2.37,3.35
23.375475883483887,3.61,-1.76,-2.06,4.51
23.385519981384277,7.32,-1.88,-0.27,7.56
23.450357913970947,9.07,-1.98,2.03,9.5
23.45053791999817,9.35,-2.17,3.13,10.09
23.4507098197937,7.85,-2.57,3.16,8.84
23.450878858566284,5.53,-3.04,2.18,6.67
23.451045989990234,4.65,-3.25,1.19,5.79
23.451212882995605,5.08,-3.39,0.78,6.15
23.455400943756104,5.25,-3.21,1.0,6.23
23.465304851531982,4.94,-2.82,1.02,5.77
23.475339889526367,4.35,-2.26,1.02,5.0
23.485383987426758,3.79,-2.0,1.13,4.43
23.550907850265503,2.91,-1.59,1.66,3.7
23.55108404159546,2.0,-0.86,2.15,3.05
23.55125594139099,1.35,0.15,2.48,2.82
23.551418781280518,0.88,1.09,2.54,2.9
23.551581859588623,0.7,1.51,2.44,2.95
23.55174684524536,1.35,1.04,1.74,2.43
23.55530595779419,1.83,1.73,0.75,2.62
23.565186977386475,0.41,2.96,-0.87,3.11
23.575209856033325,-2.15,4.52,-2.94,5.8
23.585211753845215,-4.83,6.16,-4.85,9.2
23.651501893997192,-7.1,7.27,-5.87,11.73
23.651683807373047,-8.74,6.66,-5.64,12.35
23.65186095237732,-10.04,5.11,-3.64,11.83
23.652029037475586,-10.83,4.3,-2.25,11.86
23.652194023132324,-11.93,3.55,-2.44,12.68
23.652358055114746,-11.79,8.86,-1.03,14.78
23.655118942260742,-11.76,4.95,-6.22,14.19
23.66515588760376,-13.68,-0.78,-7.41,15.57
23.675155878067017,-14.14,-3.11,-1.5,14.55
23.685142993927002,-12.97,-5.23,0.83,14.0
23.75188684463501,-11.5,-5.12,1.16,12.64
23.75206685066223,-10.44,-3.77,-0.33,11.1
23.752234935760498,-9.63,-2.47,-1.81,10.1
23.752405881881714,-9.86,-1.65,-2.14,10.22
23.752572059631348,-12.01,0.23,-0.59,12.02
23.75273585319519,-7.44,2.92,0.69,8.02
23.75496482849121,0.3,2.53,0.65,2.62
23.76487398147583,4.22,0.64,0.79,4.34
23.835763931274414,6.0,1.18,2.06,6.45
23.83594274520874,3.16,3.4,0.2,4.64
23.836116790771484,-6.1,-0.22,-7.0,9.28
23.836286067962646,-12.51,0.34,-8.67,15.22
23.836452960968018,-10.13,5.21,-1.07,11.44
23.83695077896118,-6.87,2.71,3.17,8.03
23.837120056152344,-3.59,-1.81,4.08,5.72
23.8448748588562,-1.83,-3.17,2.08,4.21
23.854851961135864,-1.52,-2.32,-0.75,2.87
23.86481285095215,-1.77,-0.38,-0.7,1.94
23.936357021331787,-1.38,1.03,0.01,1.72
23.936534881591797,-0.74,1.06,-0.53,1.39
23.937021732330322,-0.46,0.38,-1.23,1.36
23.9371919631958,-0.21,0.1,-1.3,1.32
23.937358856201172,0.05,0.09,-0.86,0.86
23.937527894973755,0.4,0.01,-0.93,1.01
23.93771195411682,0.63,0.24,-0.71,0.97
23.944777011871338,0.65,0.36,-0.5,0.89
23.954689025878906,0.46,0.28,-0.7,0.88
23.96468186378479,0.05,0.22,-1.07,1.09
24.036091804504395,-0.59,0.11,-1.31,1.44
24.036273956298828,-1.05,0.06,-0.92,1.39
24.03642988204956,-1.13,0.06,-0.1,1.13
24.036595821380615,-0.77,0.01,0.45,0.89
24.037088871002197,-0.36,-0.04,0.27,0.45
24.037256956100464,-0.2,0.03,0.01,0.2
24.037405967712402,-0.2,0.07,-0.11,0.23
24.044657945632935,-0.13,0.09,-0.39,0.42
24.054364919662476,-0.2,0.03,-0.34,0.39
24.064543962478638,-0.39,-0.09,-0.04,0.4
24.135904788970947,-0.49,-0.12,-0.04,0.5
24.13608193397522,-0.53,-0.05,-0.19,0.56
24.136252880096436,-0.43,-0.04,-0.31,0.53
24.136422872543335,-0.36,-0.01,-0.21,0.41
24.13658905029297,-0.13,0.13,-0.04,0.18
24.136754035949707,0.02,0.16,-0.05,0.16
24.13725185394287,0.02,0.07,-0.23,0.24
24.144372940063477,0.01,-0.05,-0.38,0.38
24.15418004989624,-0.03,-0.05,0.02,0.06
24.16428804397583,-0.01,-0.05,0.11,0.12
24.235606908798218,0.03,-0.06,0.0,0.06
24.23578977584839,0.02,0.01,0.16,0.16
24.235960960388184,0.08,0.07,0.19,0.21
24.236125946044922,0.19,0.08,-0.04,0.21
24.236284732818604,0.27,0.08,-0.12,0.3
24.236448764801025,0.44,0.11,-0.09,0.46
24.236612796783447,0.71,0.21,-0.16,0.75
24.24429702758789,0.98,0.17,-0.38,1.06
24.254050731658936,1.39,0.17,-0.45,1.47
24.26421594619751,1.75,0.26,-0.42,1.81
24.335683822631836,1.78,0.35,-0.29,1.83
24.33586597442627,1.64,0.5,-0.03,1.71
24.336033821105957,1.56,0.64,0.09,1.68
24.336198806762695,1.79,0.7,0.22,1.93
24.33636474609375,2.3,0.76,0.25,2.43
24.336527824401855,2.82,0.88,0.12,2.95
24.33669090270996,3.05,1.22,-0.12,3.28
24.344154834747314,2.72,1.84,0.04,3.28
24.353954792022705,2.19,3.32,0.14,3.97
24.36412000656128,2.66,3.99,-0.27,4.8
24.435197830200195,2.76,3.26,0.4,4.29
24.43537187576294,2.95,3.23,0.94,4.47
24.43553876876831,2.84,3.15,0.79,4.31
24.435702800750732,2.66,2.84,0.1,3.89
24.435868740081787,2.52,2.67,-0.13,3.67
24.436030864715576,2.27,2.84,0.04,3.63
24.436192989349365,2.31,3.5,0.12,4.19
24.443976879119873,2.85,4.22,-0.2,5.09
24.454089879989624,3.32,4.4,-0.35,5.52
24.464004039764404,3.39,3.98,-0.18,5.23
24.53501296043396,3.29,3.82,-0.2,5.04
24.535176753997803,3.29,3.83,0.11,5.05
24.53534507751465,3.35,3.92,0.84,5.22
24.535512924194336,3.77,4.63,0.97,6.04
24.535676956176758,4.19,5.62,0.6,7.03
24.535841941833496,3.83,6.26,-0.75,7.37
24.536008834838867,2.89,7.38,-1.39,8.04
24.543828010559082,2.39,8.59,-1.56,9.05
24.553804874420166,1.45,9.4,-3.46,10.12
24.563801765441895,-1.73,8.14,-6.68,10.67
24.635571002960205,-3.71,7.35,-6.68,10.6
24.63575291633606,0.46,8.0,-2.76,8.47
24.635923862457275,7.75,8.96,0.86,11.87
24.636088848114014,4.95,2.28,-1.8,5.73
24.636253833770752,4.96,-2.05,-1.95,5.71
24.636420965194702,8.68,-4.37,0.13,9.71
24.636584758758545,6.41,-4.53,0.87,7.89
24.643780946731567,2.1,-2.9,-2.12,4.16
24.6536808013916,-0.57,-1.77,-2.89,3.43
24.66371488571167,2.01,-1.05,-3.47,4.14
24.73585796356201,6.58,-0.91,-2.49,7.09
24.736039876937866,9.44,-0.68,0.73,9.49
24.736212730407715,11.08,-0.62,3.75,11.71
24.736385822296143,10.56,-0.79,5.27,11.82
24.73655390739441,7.42,-1.36,4.58,8.82
24.73671793937683,5.02,-1.69,2.75,5.96
24.736886978149414,4.6,-1.67,1.49,5.11
24.74361276626587,4.54,-1.2,1.54,4.94
24.753509044647217,4.4,-1.06,2.04,4.96
24.763526916503906,3.89,-1.36,2.33,4.73
24.836204051971436,3.2,-1.59,2.4,4.3
24.83638095855713,2.62,-1.54,2.26,3.78
24.836551904678345,2.26,-1.16,2.08,3.28
24.83671808242798,1.51,-0.32,2.57,2.99
24.836888790130615,0.99,0.49,2.86,3.06
24.83705186843872,0.93,1.35,3.18,3.57
24.837218761444092,1.2,1.99,3.59,4.27
24.84340476989746,1.93,1.69,3.37,4.23
24.85333776473999,2.0,2.12,2.52,3.85
24.863386869430542,0.66,3.26,0.89,3.44
24.936168909072876,-1.7,4.58,-1.0,4.98
24.93635392189026,-4.51,5.94,-2.73,7.94
24.93652582168579,-7.02,6.93,-4.01,10.64
24.936697959899902,-8.77,6.68,-4.44,11.88
24.936866760253906,-9.66,5.6,-3.35,11.65
24.937033891677856,-10.13,4.71,-2.58,11.46
24.937192916870117,-10.52,3.29,-3.15,11.46
24.943191051483154,-10.64,1.81,-3.72,11.41
24.95319890975952,-11.09,0.72,-4.19,11.87
24.963258743286133,-11.63,-0.29,-4.62,12.51
25.03707504272461,-12.5,1.38,-3.73,13.11
25.03725576400757,-12.52,-0.48,-4.35,13.26
25.037425994873047,-12.33,-2.87,-4.71,13.5
25.03792095184326,-11.8,-2.78,-3.21,12.54
25.03809094429016,-11.11,-2.3,-3.34,11.82
25.03826093673706,-10.67,-2.77,-3.89,11.68
25.03843402862549,-9.58,-3.39,-3.44,10.72
25.043089866638184,-8.1,-1.66,-0.39,8.27
25.05303192138672,-2.04,1.36,1.78,3.02
25.06307601928711,5.63,3.38,2.28,6.95
25.1375949382782,8.93,2.01,0.7,9.18
25.138285875320435,6.83,-0.77,-3.54,7.73
25.13846492767334,1.63,0.69,-4.6,4.92
25.138635873794556,-3.44,4.67,-1.24,5.93
25.138805866241455,-7.54,5.49,-1.27,9.41
25.13897395133972,-11.4,2.63,-5.36,12.86
25.139137744903564,-13.15,1.78,-4.75,14.09
25.142876863479614,-7.73,1.87,0.92,8.0
25.15285086631775,-3.57,-1.13,3.31,4.99
25.162930965423584,-2.54,-2.65,1.78,4.07
25.237947940826416,-2.98,-2.23,-0.97,3.84
25.23812985420227,-3.18,-1.01,-1.18,3.53
25.2383029460907,-2.68,0.37,-0.14,2.7
25.238481998443604,-2.23,0.97,0.29,2.44
25.238646030426025,-1.54,0.81,-0.26,1.75
25.238810062408447,-0.55,0.46,-0.84,1.1
25.23897385597229,0.33,0.42,-0.91,1.05
25.24277400970459,0.69,0.44,-0.9,1.21
25.252737998962402,0.47,0.42,-0.81,1.02
25.262796878814697,0.1,0.24,-0.76,0.8
25.33781886100769,-0.25,-0.01,-0.64,0.68
25.338507890701294,-0.76,-0.07,-0.46,0.89
25.338690757751465,-0.86,0.04,-0.57,1.03
25.338860988616943,-0.53,0.0,-0.86,1.01
25.339026927947998,-0.3,-0.15,-0.92,0.97
25.339194774627686,-0.2,-0.06,-0.73,0.75
25.339361906051636,0.05,0.27,-0.35,0.44
25.342648029327393,0.03,0.4,0.19,0.44
25.352622032165527,-0.36,0.24,0.66,0.78
25.362653732299805,-0.8,-0.17,0.32,0.87
25.437389850616455,-0.97,-0.19,-0.03,0.98
25.437569856643677,-0.59,-0.01,-0.29,0.65
25.43773889541626,-0.08,0.15,-0.37,0.4
25.438238859176636,0.45,0.07,-0.29,0.53
25.438408851623535,0.88,-0.22,-0.13,0.91
25.43857479095459,1.18,-0.47,-0.29,1.3
25.438739776611328,1.36,-0.43,-0.82,1.64
25.442575931549072,1.49,-0.09,-1.31,1.98
25.452462911605835,1.39,0.18,-1.4,1.98
25.462472915649414,1.1,0.06,-1.24,1.65
25.537478923797607,0.71,-0.17,-0.64,0.97
25.5376558303833,0.36,-0.24,0.01,0.43
25.537823915481567,0.13,-0.15,0.46,0.5
25.53831696510315,0.22,-0.14,0.43,0.5
25.53848695755005,0.54,0.0,0.34,0.63
25.538655757904053,0.38,0.35,0.44,0.67
25.53882074356079,0.13,0.36,0.73,0.82
25.54245901107788,-0.04,0.05,0.5,0.5
25.552295923233032,0.15,0.01,-0.04,0.15
25.562334060668945,0.74,0.14,-0.18,0.77
25.63774085044861,0.99,0.23,-0.38,1.08
25.637919902801514,0.92,0.13,-0.48,1.04
25.638386964797974,1.05,-0.01,-0.35,1.1
25.63855791091919,1.41,-0.21,-0.42,1.48
25.63872480392456,1.94,-0.46,-0.24,2.0
25.638872861862183,2.42,-0.46,-0.13,2.46
25.63906192779541,2.34,0.2,0.13,2.35
25.64213800430298,1.95,0.78,0.77,2.23
25.6521098613739,2.42,0.89,1.22,2.85
25.662267923355103,2.92,0.88,0.78,3.14
25.73706579208374,3.15,0.66,-0.17,3.22
25.737246990203857,3.57,0.51,-0.49,3.63
25.73741888999939,3.92,0.83,-0.46,4.03
25.73758602142334,3.62,1.4,-0.76,3.95
25.737753868103027,2.59,2.03,-1.23,3.51
25.7379207611084,1.41,3.41,-0.06,3.69
25.73808479309082,0.47,5.44,2.43,5.97
25.74197793006897,0.86,5.96,-0.46,6.03
25.7520170211792,0.8,5.33,0.49,5.41
25.762025833129883,1.14,4.86,2.42,5.54
25.83778691291809,2.07,4.48,1.47,5.14
25.83796191215515,2.77,4.66,0.43,5.43
25.838130950927734,3.11,4.99,-0.61,5.91
25.838618755340576,2.99,5.16,-0.82,6.01
25.83878993988037,3.43,5.43,-0.59,6.44
25.838960886001587,4.16,5.71,-0.34,7.07
25.83914279937744,4.78,6.71,-0.33,8.24
25.841994762420654,4.64,7.46,-1.32,8.88
25.852001905441284,4.0,7.76,-3.33,9.34
25.861891746520996,3.26,8.23,-5.17,10.25
25.937671899795532,3.87,10.06,-4.69,11.75
25.93784999847412,2.97,10.77,-3.1,11.59
25.938020944595337,-2.62,6.83,-5.04,8.88
25.93818688392639,-1.7,7.18,-2.56,7.8
25.93866491317749,0.54,4.75,-0.72,4.83
25.938832759857178,8.07,7.81,3.25,11.69
25.939001083374023,2.38,-1.97,0.48,3.12
25.941921949386597,6.68,-5.17,1.73,8.62
25.951737880706787,4.58,-7.46,2.59,9.12
25.96171998977661,3.03,-5.43,1.73,6.45
25.971658945083618,3.32,-1.95,-0.21,3.85
26.03846788406372,5.8,-0.13,-1.1,5.9
26.038649082183838,8.94,1.32,0.69,9.06
26.038819789886475,10.94,1.24,2.76,11.35
26.03899097442627,11.96,-0.08,4.4,12.74
26.03916096687317,10.71,-2.46,4.47,11.86
26.039325952529907,7.97,-4.28,3.49,9.69
26.0416259765625,7.15,-3.82,3.05,8.66
26.05161476135254,6.71,-2.72,2.53,7.66
26.061620950698853,5.94,-1.77,2.38,6.63
26.07150387763977,5.07,-1.39,2.38,5.77
26.138170957565308,4.31,-1.52,2.14,5.04
26.138351917266846,3.81,-1.57,2.05,4.6
26.138833045959473,3.18,-1.17,2.28,4.08
26.139004945755005,2.79,-0.42,2.58,3.82
26.13917088508606,2.39,0.93,3.41,4.26
26.139335870742798,2.16,2.43,3.79,4.99
26.141267776489258,1.69,3.13,2.43,4.3
26.151287078857422,0.74,3.02,-0.39,3.13
26.16122007369995,-0.9,3.48,-3.52,5.03
26.17133092880249,-4.01,4.88,-5.76,8.54
26.238287925720215,-7.59,6.66,-7.38,12.5
26.238464832305908,-11.33,7.37,-8.57,16.0
26.238956928253174,-13.71,6.08,-7.8,16.9
26.23912787437439,-13.47,3.74,-4.81,14.78
26.239296913146973,-12.12,2.33,-2.8,12.65
26.23946189880371,-10.31,7.82,-1.46,13.02
26.241232872009277,-12.19,2.71,-9.34,15.59
26.251184940338135,-16.08,-3.31,-11.32,19.94
26.26117491722107,-17.2,-4.5,-3.9,18.2
26.27110481262207,-17.73,-6.45,-0.77,18.88
26.338823795318604,-16.36,-6.54,-1.4,17.67
26.339000940322876,-15.93,-4.28,-2.39,16.66
26.33916997909546,-15.4,-0.03,-1.16,15.44
26.339335918426514,-5.72,3.54,0.75,6.76
26.339499950408936,2.82,5.24,2.9,6.61
26.33966302871704,5.75,4.91,2.47,7.95
26.34105396270752,7.1,4.89,-1.77,8.8
26.351017951965332,1.26,2.59,-5.23,5.97
26.36103105545044,-5.08,-2.66,-6.86,8.94
26.371009826660156,-10.84,-2.57,-4.46,12.0
26.43892478942871,-9.56,1.5,1.72,9.82
26.43910503387451,-6.5,1.34,2.98,7.27
26.43928098678589,-4.67,-0.96,2.12,5.21
26.439456939697266,-3.27,-1.59,1.09,3.79
26.439624786376953,-2.59,-0.55,-0.25,2.65
26.43979787826538,-2.17,0.7,-0.78,2.4
26.440942764282227,-1.2,0.97,-0.94,1.8
26.451059818267822,0.09,0.68,-0.9,1.13
26.460999965667725,0.62,0.29,-0.83,1.07
26.47090792655945,0.6,0.13,-0.61,0.86
26.539397954940796,0.43,-0.03,-0.44,0.61
26.539580821990967,0.25,-0.11,-0.72,0.77
26.539756774902344,0.18,0.08,-1.03,1.04
26.53992795944214,0.25,0.31,-1.15,1.21
26.54009485244751,0.52,0.27,-1.27,1.39
26.540262937545776,0.43,0.01,-1.06,1.14
26.540737867355347,0.32,-0.11,-0.74,0.81
26.550827980041504,0.21,-0.02,-0.34,0.4
26.56089186668396,0.14,0.04,-0.02,0.14
26.570766925811768,0.05,0.06,0.04,0.08
26.638916969299316,-0.36,0.12,-0.01,0.37
26.639103889465332,-0.58,0.18,0.15,0.62
26.63927698135376,-0.48,0.07,0.05,0.48
26.63944673538208,-0.39,0.01,0.01,0.39
26.639612913131714,-0.44,0.14,0.08,0.46
26.639780044555664,-0.33,0.12,-0.08,0.36
26.640663862228394,-0.33,0.01,-0.51,0.6
26.650616884231567,-0.44,-0.04,-0.95,1.04
26.660813808441162,-0.41,0.07,-1.0,1.08
26.670732975006104,-0.27,0.24,-0.45,0.57
26.738534927368164,-0.26,0.29,0.02,0.39
26.738718032836914,-0.33,0.14,0.05,0.36
26.738884925842285,-0.2,0.02,-0.2,0.28
26.73937177658081,-0.07,-0.02,-0.33,0.33
26.739542961120605,0.15,-0.1,-0.52,0.55
26.73971390724182,0.48,-0.15,-0.59,0.77
26.740575790405273,0.79,-0.18,-0.6,1.0
26.750587940216064,0.96,-0.28,-0.52,1.12
26.760576963424683,0.78,-0.14,-0.55,0.96
26.77056884765625,0.46,0.11,-0.39,0.61
26.838555812835693,0.27,0.38,0.13,0.48
26.838730812072754,0.19,0.46,0.24,0.55
26.83889675140381,0.09,0.47,0.12,0.49
26.839390754699707,0.16,0.52,0.05,0.54
26.839541912078857,0.25,0.52,0.02,0.57
26.839700937271118,0.35,0.46,0.04,0.57
26.840417861938477,0.7,0.38,0.0,0.79
26.85035490989685,1.15,0.36,-0.17,1.21
26.8604519367218,1.67,0.43,-0.24,1.74
26.870370864868164,2.15,0.5,-0.13,2.21
26.93846082687378,2.42,0.64,0.12,2.5
26.938636779785156,2.66,0.84,0.13,2.79
26.938804864883423,2.81,1.3,-0.14,3.09
26.938971042633057,3.18,1.86,-0.76,3.76
26.939457893371582,3.92,2.61,-0.65,4.75
26.939624786376953,3.39,2.68,0.22,4.32
26.940095901489258,2.99,2.68,0.11,4.01
26.950305938720703,3.24,2.67,0.4,4.21
26.960250854492188,3.39,2.36,0.66,4.18
26.970244884490967,3.2,2.32,0.48,3.98
27.03935194015503,2.8,3.02,0.41,4.13
27.03953194618225,2.56,3.87,0.27,4.64
27.03971576690674,2.93,4.09,0.05,5.03
27.039885997772217,3.5,4.36,0.47,5.61
27.04005193710327,3.98,4.53,0.76,6.07
27.040215969085693,4.17,4.05,0.57,5.84
27.040377855300903,3.9,3.5,0.11,5.24
27.050100803375244,3.34,3.4,-0.13,4.76
27.06003475189209,2.79,4.0,0.0,4.87
27.07002878189087,2.63,4.86,0.03,5.52
27.139081954956055,2.73,5.95,-0.21,6.54
27.139577865600586,3.13,7.13,-0.36,7.79
27.13975477218628,3.38,7.99,-1.21,8.75
27.13992404937744,3.53,8.85,-2.43,9.83
27.140089988708496,1.95,8.78,-3.88,9.79
27.140254020690918,-1.94,7.08,-5.94,9.44
27.140419960021973,-3.44,6.93,-5.11,9.27
27.149849891662598,3.32,10.24,-0.6,10.78
27.1597318649292,2.49,5.58,-2.05,6.44
27.16981077194214,2.62,1.84,-1.43,3.5
27.239354848861694,5.46,-3.34,-0.19,6.4
27.239803791046143,7.6,-4.51,1.96,9.05
27.239984035491943,3.46,-4.22,-1.35,5.62
27.240158081054688,0.06,-2.62,-2.8,3.83
27.240325927734375,0.47,-1.72,-3.8,4.19
27.240493774414062,5.16,-1.06,-3.76,6.47
27.2406587600708,8.84,-0.73,-1.7,9.03
27.24978494644165,11.24,-0.91,1.38,11.36
27.259710788726807,12.07,-1.4,4.03,12.8
27.269731998443604,10.42,-2.17,4.07,11.39
27.34032106399536,7.38,-3.19,1.85,8.25
27.340499877929688,6.63,-3.38,0.82,7.48
27.340672969818115,6.62,-3.13,0.84,7.37
27.34084177017212,6.33,-2.87,0.91,7.0
27.341006755828857,5.81,-2.43,1.01,6.37
27.341171741485596,5.29,-1.94,0.97,5.71
27.341336965560913,4.38,-1.24,1.29,4.73
27.349694967269897,3.17,-0.4,1.41,3.49
27.359763860702515,2.34,0.43,1.19,2.66
27.36965274810791,1.59,1.4,1.28,2.47
27.440948963165283,1.07,2.11,0.91,2.53
27.44112491607666,0.42,2.49,-0.19,2.53
27.441298007965088,-0.81,2.26,-1.9,3.06
27.44146990776062,-2.29,1.6,-3.7,4.63
27.441640853881836,-4.28,1.98,-4.53,6.53
27.441808938980103,-6.47,3.12,-4.51,8.48
27.44197177886963,-8.9,3.61,-4.24,10.49
27.449546813964844,-10.91,2.97,-3.12,11.72
27.4594988822937,-10.53,1.89,-1.27,10.77
27.469501972198486,-8.67,1.18,-0.68,8.77
27.540612936019897,-8.01,0.72,-1.95,8.27
27.540793895721436,-8.59,0.84,-3.14,9.18
27.540966033935547,-9.29,1.5,-3.6,10.07
27.541135787963867,-9.36,6.94,-1.8,11.79
27.54129981994629,-7.63,5.2,-5.1,10.54
27.541472911834717,-11.29,-1.17,-7.9,13.82
27.541637897491455,-13.97,-3.1,-1.18,14.35
27.549407958984375,-13.82,-4.84,1.95,14.77
27.559316873550415,-12.11,-4.44,1.59,12.99
27.569304943084717,-11.4,-2.45,0.7,11.68
27.641175746917725,-13.39,-1.7,-0.03,13.49
27.641361951828003,-12.38,0.31,0.58,12.39
27.641531944274902,-3.83,2.65,1.77,4.98
27.6417019367218,2.03,6.61,3.77,7.87
27.641865730285645,3.54,7.6,2.39,8.71
27.64203405380249,-4.51,-1.09,-5.29,7.03
27.642198085784912,-8.07,-0.85,-3.8,8.96
27.649272918701172,-5.38,0.96,-0.3,5.47
27.65917992591858,-4.32,0.29,2.22,4.86
27.669147968292236,-4.76,-1.19,2.75,5.62
27.74095106124878,-3.77,-1.52,0.96,4.17
27.74113893508911,-2.38,-0.26,-0.55,2.45
27.741313934326172,-1.6,0.93,-0.84,2.03
27.741479873657227,-0.93,1.03,-0.8,1.6
27.741649866104126,-0.49,0.48,-1.12,1.31
27.741817951202393,-0.25,0.03,-1.71,1.72
27.741981029510498,0.07,0.1,-1.63,1.63
27.74910879135132,0.3,0.25,-1.1,1.16
27.759170055389404,0.04,0.02,-0.31,0.31
27.76909303665161,-0.3,-0.07,0.27,0.4
27.84202289581299,-0.49,-0.05,0.31,0.58
27.84220600128174,-0.25,0.17,0.17,0.34
27.84237790107727,0.34,0.3,0.08,0.46
27.84254503250122,0.59,-0.04,-0.15,0.61
27.842711925506592,0.36,-0.17,-0.35,0.53
27.842882871627808,0.25,0.21,-0.37,0.49
27.843047857284546,0.22,0.22,-0.65,0.72
27.848947048187256,-0.03,-0.08,-1.09,1.09
27.858957767486572,-0.06,-0.13,-1.16,1.16
27.868879795074463,0.1,-0.07,-1.03,1.03
27.94051194190979,0.2,-0.13,-1.28,1.3
27.94069194793701,0.38,-0.16,-1.31,1.37
27.940862894058228,0.3,-0.06,-0.89,0.94
27.94102907180786,-0.08,-0.03,-0.4,0.4
27.9411940574646,-0.4,-0.15,-0.3,0.52
27.94136095046997,-0.32,-0.23,-0.4,0.56
27.941527843475342,-0.06,-0.32,-0.47,0.57
27.948790073394775,0.13,-0.24,-0.28,0.39
27.958855867385864,0.27,-0.21,-0.28,0.44
27.96879005432129,0.41,-0.18,-0.39,0.59
28.040145874023438,0.45,-0.19,-0.46,0.67
28.040340900421143,0.38,-0.15,-0.28,0.49
28.040513038635254,0.43,0.16,0.17,0.48
28.04067897796631,0.37,0.44,1.06,1.2
28.040847778320312,-0.02,0.34,1.25,1.29
28.041011810302734,-0.34,0.28,0.94,1.03
28.041176795959473,-0.64,0.17,0.57,0.87
28.048751831054688,-0.48,0.05,0.18,0.51
28.058788776397705,-0.16,-0.01,-0.28,0.32
28.06875991821289,-0.14,0.06,-0.6,0.61
28.13984489440918,-0.12,0.28,-0.58,0.65
28.140387058258057,0.12,0.41,-0.45,0.62
28.14055895805359,0.3,0.4,-0.28,0.57
28.14070987701416,0.3,0.37,-0.19,0.51
28.14087986946106,0.37,0.34,-0.02,0.5
28.141052961349487,0.47,0.27,0.19,0.57
28.14122486114502,0.6,0.22,0.17,0.66
28.148530960083008,0.81,0.29,0.04,0.86
28.158445835113525,1.14,0.44,0.06,1.22
28.16844081878662,1.44,0.57,0.01,1.54
28.239534854888916,1.82,0.66,0.09,1.93
28.23971176147461,2.17,0.76,0.18,2.3
28.239877939224243,2.42,0.75,0.12,2.53
28.240041732788086,2.74,0.97,0.1,2.9
28.240539073944092,3.1,1.59,-0.48,3.51
28.240710735321045,3.58,2.44,-1.2,4.49
28.240875959396362,2.7,2.79,-0.64,3.93
28.24847173690796,2.28,3.28,-0.45,4.01
28.258392810821533,2.39,3.39,-0.46,4.17
28.268329858779907,2.52,3.15,-0.62,4.08
28.339637756347656,2.51,2.97,-0.39,3.9
28.339818000793457,2.49,2.94,0.23,3.85
28.33998394012451,2.73,3.03,0.62,4.12
28.340149879455566,3.25,3.22,0.37,4.58
28.34065890312195,3.69,3.71,0.03,5.23
28.340828895568848,3.87,4.1,-0.12,5.63
28.340993881225586,3.82,3.85,-0.32,5.43
28.348319053649902,3.63,3.47,-0.59,5.05
28.35819387435913,3.28,3.45,-0.72,4.81
28.368252754211426,2.67,3.7,-0.64,4.6
28.439884901046753,2.14,4.24,-0.38,4.76
28.44006896018982,1.88,5.17,-0.04,5.5
28.440237045288086,1.99,5.98,-0.44,6.31
28.440733909606934,2.32,6.09,-0.64,6.54
28.440906047821045,2.52,6.37,-1.94,7.11
28.44108295440674,0.83,6.49,-4.69,8.05
28.441246032714844,-1.1,6.37,-5.87,8.73
28.448092937469482,0.11,6.76,-3.6,7.65
28.45794105529785,2.83,5.37,-1.41,6.23
28.468024730682373,5.96,4.24,0.89,7.36
28.54010796546936,9.8,4.91,2.1,11.16
28.54028606414795,5.6,-1.94,-2.51,6.43
28.540771961212158,6.54,-2.77,-0.47,7.11
28.54094696044922,3.98,-2.33,0.42,4.63
28.541131019592285,0.36,-1.86,-2.38,3.04
28.541298866271973,-2.32,-1.39,-3.31,4.27
28.541470050811768,-1.38,-1.22,-2.48,3.08
28.54805088043213,3.44,-1.08,-1.54,3.92
28.557698965072632,7.56,-1.52,0.64,7.73
28.567879915237427,9.23,-2.1,2.51,9.79
28.640380859375,9.33,-2.62,3.42,10.27
28.640869855880737,8.23,-2.9,3.23,9.3
28.64104175567627,6.13,-2.6,2.99,7.29
28.641214847564697,5.02,-2.29,2.24,5.95
28.641382932662964,4.8,-2.44,1.29,5.53
28.641546964645386,4.5,-2.64,1.17,5.34
28.641708850860596,4.21,-2.6,1.38,5.13
28.647747039794922,4.09,-2.36,1.32,4.9
28.660109996795654,4.14,-2.07,1.38,4.83
28.667727947235107,3.69,-1.13,2.17,4.42
28.740124940872192,2.98,0.06,2.39,3.82
28.740303993225098,2.31,1.0,2.18,3.32
28.7407808303833,1.65,1.54,2.22,3.16
28.740949869155884,1.19,1.74,2.35,3.15
28.741117000579834,0.88,1.7,2.01,2.77
28.741307735443115,0.13,2.15,0.72,2.27
28.741474866867065,-1.43,2.87,-1.37,3.48
28.747736930847168,-3.68,4.09,-2.91,6.22
28.757601737976074,-6.1,5.49,-3.66,8.98
28.767573833465576,-8.36,6.02,-3.68,10.93
28.841306924819946,-10.03,5.1,-3.08,11.66
28.841487884521484,-10.07,4.13,-2.03,11.07
28.841662883758545,-10.01,4.35,-1.2,10.98
28.841832876205444,-10.06,9.01,0.16,13.5
28.84200096130371,-8.11,5.36,-5.77,11.3
28.8421688079834,-13.1,-0.04,-6.99,14.84
28.842334747314453,-15.91,-2.13,-0.27,16.05
28.847487926483154,-14.67,-3.98,2.64,15.42
28.857725858688354,-12.56,-4.56,1.82,13.48
28.867446899414062,-11.19,-3.14,0.32,11.62
28.941072940826416,-10.41,-1.83,-0.91,10.6
28.941251754760742,-11.23,-0.3,-0.62,11.25
28.941423892974854,-10.47,2.33,1.23,10.79
28.941590785980225,-2.21,2.9,1.72,4.03
28.941754817962646,4.79,1.29,0.79,5.02
28.941922903060913,7.49,-0.87,0.42,7.55
28.94208788871765,6.56,-0.5,0.31,6.58
28.947349071502686,-0.15,2.44,0.3,2.46
28.95728874206543,-4.83,1.76,-2.68,5.79
28.967383861541748,-11.3,-0.5,-7.37,13.5
29.042032957077026,-12.75,3.67,-2.25,13.45
29.042212963104248,-7.87,3.45,2.22,8.87
29.04238486289978,-2.47,-0.97,3.01,4.01
29.042552947998047,-0.27,-2.56,1.76,3.11
29.0427188873291,-1.03,-1.94,-0.37,2.22
29.04288387298584,-1.93,0.1,-0.57,2.01
29.04304790496826,-1.94,1.13,0.02,2.24
29.047183990478516,-1.65,0.54,0.25,1.75
29.05712604522705,-1.13,-0.17,0.18,1.15
29.06713891029358,-0.83,-0.35,0.15,0.91
29.141986846923828,-0.48,-0.15,-0.65,0.82
29.142168045043945,0.09,0.0,-1.24,1.24
29.14234185218811,0.75,0.13,-1.01,1.26
29.14250898361206,1.22,0.51,-0.57,1.43
29.1426739692688,0.84,0.44,-0.76,1.21
29.142837047576904,0.14,0.13,-0.68,0.7
29.142987966537476,-0.04,0.13,-0.04,0.14
29.147071838378906,-0.59,0.01,-0.37,0.69
29.157039880752563,-1.2,0.02,-1.05,1.59
29.167015075683594,-1.21,0.22,-0.94,1.54
29.241349935531616,-0.79,0.13,-0.12,0.8
29.24152708053589,-0.37,-0.07,0.45,0.58
29.241700887680054,-0.08,0.01,0.31,0.32
29.241868019104004,-0.09,0.04,0.05,0.11
29.242039918899536,-0.38,-0.04,-0.2,0.43
29.24220585823059,-0.59,0.01,-0.39,0.7
29.24235486984253,-0.59,0.09,-0.54,0.8
29.246933937072754,-0.6,0.08,-0.53,0.8
29.25686287879944,-0.51,0.09,-0.38,0.64
29.266865730285645,-0.26,0.06,-0.21,0.33
29.341428756713867,-0.11,0.02,-0.17,0.2
29.341609001159668,0.08,0.0,-0.28,0.29
29.341783046722412,0.4,-0.04,-0.27,0.48
29.3419508934021,0.62,-0.15,-0.06,0.64
29.342118740081787,0.83,-0.23,0.24,0.89
29.34228277206421,1.03,-0.2,0.34,1.1
29.342445850372314,0.98,-0.06,0.29,1.02
29.346770763397217,0.81,0.06,0.08,0.81
29.35667395591736,0.85,0.2,-0.01,0.87
29.36666774749756,0.61,0.17,-0.2,0.66
29.441566944122314,0.48,0.2,-0.28,0.59
29.44172692298889,0.48,0.24,-0.23,0.58
29.441901922225952,0.56,0.19,-0.36,0.69
29.442070960998535,0.8,0.21,-0.24,0.86
29.442238807678223,1.04,0.2,-0.14,1.06
29.442399978637695,1.05,0.15,-0.06,1.06
29.442553997039795,1.0,0.17,-0.06,1.01
29.446595907211304,0.85,0.22,-0.17,0.89
29.456496953964233,0.8,0.22,-0.11,0.83
29.466582775115967,0.94,0.19,-0.09,0.96
29.54059886932373,1.21,0.2,-0.15,1.23
29.54078483581543,1.65,0.29,-0.32,1.7
29.54095697402954,2.34,0.47,-0.4,2.42
29.5414400100708,2.97,0.82,-0.49,3.11
29.54160976409912,3.2,1.51,-0.35,3.55
29.54177474975586,2.98,2.22,-0.2,3.72
29.541944980621338,2.25,2.95,-0.01,3.71
29.546525955200195,2.19,3.67,-1.15,4.42
29.556429862976074,2.12,3.59,0.0,4.16
29.56657075881958,2.1,3.27,0.82,3.97
29.640810012817383,1.88,3.5,0.68,4.03
29.640986919403076,1.91,3.49,0.0,3.97
29.641156911849976,2.09,3.45,-0.03,4.03
29.641643047332764,2.64,3.98,0.56,4.8
29.641809940338135,3.48,4.59,0.31,5.76
29.641974925994873,3.65,4.51,-0.27,5.8
29.64215588569641,3.38,4.18,-0.4,5.39
29.64642596244812,3.3,3.72,-0.5,4.99
29.65637993812561,3.19,3.6,-0.51,4.83
29.666306018829346,2.97,3.95,0.15,4.94
29.741257905960083,2.77,4.51,0.33,5.3
29.74193286895752,3.23,5.66,0.29,6.52
29.74211597442627,3.69,6.84,-0.34,7.77
29.742284774780273,3.44,6.86,-2.36,8.02
29.742451906204224,3.34,7.59,-3.36,8.94
29.742619037628174,2.9,8.97,-3.95,10.22
29.742783069610596,-0.7,7.21,-5.91,9.34
29.746177911758423,-2.98,5.86,-5.24,8.4
29.756118774414062,0.33,5.93,-1.67,6.16
29.766125917434692,6.29,6.9,1.87,9.52
29.841712951660156,6.61,4.02,1.44,7.86
29.841891765594482,3.42,-3.01,-2.17,5.04
29.842063903808594,7.26,-4.27,0.47,8.43
29.84222984313965,4.26,-4.96,0.39,6.54
29.84239673614502,1.6,-3.8,-0.8,4.2
29.84256386756897,1.95,-2.18,-2.56,3.88
29.842726945877075,5.45,-1.24,-3.34,6.51
29.84601879119873,8.77,-1.13,-1.26,8.93
29.855958938598633,10.67,-1.06,1.49,10.82
29.86595392227173,11.4,-1.06,3.84,12.07
29.941775798797607,10.21,-1.64,4.86,11.42
29.94195795059204,7.78,-2.09,3.52,8.79
29.94213104248047,6.59,-2.23,1.53,7.12
29.942298889160156,5.88,-2.35,0.93,6.4
29.942465782165527,5.23,-2.09,1.03,5.72
29.942632913589478,4.4,-1.98,0.5,4.85
29.9427969455719,3.25,-1.85,0.04,3.73
29.945862770080566,2.38,-1.43,0.05,2.77
29.955729961395264,1.89,-0.75,0.43,2.07
29.965784072875977,1.37,0.01,1.09,1.75
30.042087078094482,0.81,0.73,1.58,1.91
30.042269945144653,0.51,1.23,1.71,2.16
30.042438983917236,0.43,1.86,1.68,2.54
30.042603969573975,0.97,2.12,1.1,2.57
30.042768001556396,1.48,2.5,0.14,2.9
30.042935848236084,0.02,3.57,-1.53,3.88
30.04310178756714,-3.14,4.5,-3.88,6.72
30.045708894729614,-6.64,5.08,-5.61,10.06
30.055652856826782,-9.52,5.34,-5.95,12.43
30.065655946731567,-10.96,5.02,-5.01,13.05
30.14291787147522,-11.3,4.87,-3.43,12.77
30.143099784851074,-10.01,9.62,-0.92,13.91
30.143270015716553,-9.18,8.25,-6.19,13.8
30.143436908721924,-15.45,1.52,-9.38,18.13
30.143603801727295,-17.5,-2.36,-2.23,17.79
30.143768787384033,-15.19,-5.81,1.78,16.36
30.143932819366455,-10.68,-6.27,2.52,12.63
30.145637035369873,-9.3,-4.04,0.95,10.18
