time,ax,ay,az,atotal
0.002889871597290039,0.23,-0.09,-0.4,0.47
0.02039313316345215,0.27,0.06,-0.09,0.29
0.021883010864257812,0.43,0.35,0.07,0.55
0.03217601776123047,0.5,-0.35,0.0,0.61
0.033715009689331055,0.25,-0.47,0.21,0.57
0.04881906509399414,0.08,-0.17,0.18,0.26
0.07331299781799316,-0.02,0.0,0.03,0.03
0.0751500129699707,-0.05,0.15,-0.14,0.21
0.07669806480407715,0.06,0.16,-0.26,0.31
0.08164000511169434,0.16,0.13,-0.16,0.26
0.10027194023132324,0.19,0.1,-0.11,0.24
0.10175800323486328,-0.01,0.11,-0.24,0.26
0.11685490608215332,-0.32,0.09,-0.3,0.44
0.12155413627624512,-0.47,0.05,-0.26,0.53
0.13355708122253418,-0.38,-0.05,-0.14,0.4
0.14162802696228027,-0.1,-0.07,0.07,0.14
0.17359304428100586,0.11,0.04,0.2,0.23
0.1752300262451172,0.22,0.11,0.36,0.43
0.17685484886169434,0.25,0.0,0.39,0.46
0.18079590797424316,0.15,-0.16,0.09,0.23
0.20033717155456543,0.04,-0.13,-0.23,0.26
0.20185112953186035,-0.02,0.08,-0.38,0.38
0.21694016456604004,-0.01,0.17,-0.48,0.5
0.2207660675048828,0.08,0.13,-0.4,0.42
0.23119497299194336,0.07,-0.03,-0.19,0.2
0.24085402488708496,0.07,-0.01,0.28,0.28
0.25325512886047363,0.07,-0.01,0.64,0.64
0.279263973236084,-0.05,-0.07,0.56,0.56
0.2809109687805176,-0.34,0.1,0.38,0.51
0.2823750972747803,-0.47,0.17,0.24,0.55
0.30086398124694824,-0.46,0.02,-0.13,0.47
0.3023641109466553,-0.51,0.0,-0.5,0.71
0.31683897972106934,-0.53,0.03,-0.67,0.85
0.32010698318481445,-0.44,0.05,-0.67,0.8
0.3333570957183838,-0.08,0.07,-0.49,0.5
0.3406531810760498,0.48,0.02,-0.24,0.53
0.3525679111480713,0.79,-0.08,-0.06,0.79
0.37735915184020996,0.92,-0.13,0.13,0.93
0.379284143447876,0.9,-0.12,0.35,0.97
0.38074803352355957,0.65,-0.15,0.51,0.83
0.40056896209716797,0.27,-0.19,0.6,0.68
0.402055025100708,0.11,-0.03,0.77,0.77
0.41701197624206543,0.02,-0.08,0.7,0.7
0.41933512687683105,-0.06,-0.15,0.5,0.52
0.4333841800689697,-0.06,-0.01,0.43,0.43
0.43950390815734863,0.0,-0.04,0.31,0.31
0.449570894241333,-0.01,0.04,0.11,0.11
0.476848840713501,-0.06,0.08,-0.07,0.12
0.4788181781768799,-0.17,0.11,-0.26,0.32
0.4802391529083252,-0.25,0.1,-0.39,0.47
0.5005769729614258,-0.28,0.07,-0.36,0.46
0.5020520687103271,-0.2,0.04,-0.29,0.35
0.5169551372528076,-0.03,0.08,-0.39,0.39
0.518420934677124,0.02,0.1,-0.58,0.58
0.5333950519561768,-0.06,0.08,-0.61,0.61
0.5385100841522217,-0.13,0.08,-0.34,0.37
0.5526549816131592,-0.21,0.09,-0.12,0.25
0.5766580104827881,-0.3,0.07,0.01,0.3
0.578563928604126,-0.28,0.04,0.15,0.32
0.5800988674163818,-0.29,0.01,0.16,0.33
0.5879969596862793,-0.29,0.0,0.18,0.34
0.5982630252838135,-0.17,-0.01,0.35,0.38
0.6082079410552979,-0.03,-0.05,0.3,0.3
0.6180698871612549,0.09,-0.05,0.19,0.21
0.6278610229492188,0.13,-0.04,0.16,0.21
0.6378161907196045,0.09,-0.07,0.16,0.19
0.6478579044342041,0.16,-0.11,0.17,0.25
0.681955099105835,0.33,-0.09,0.06,0.34
0.6835639476776123,0.43,-0.05,-0.2,0.47
0.6849570274353027,0.44,-0.02,-0.35,0.56
0.7009918689727783,0.34,0.03,-0.39,0.51
0.7024848461151123,0.09,0.06,-0.41,0.42
0.7167041301727295,-0.08,0.06,-0.21,0.23
0.7180800437927246,-0.1,0.04,0.02,0.1
0.7334401607513428,-0.09,0.02,0.04,0.1
0.7369239330291748,-0.13,0.02,0.02,0.13
0.7521109580993652,-0.15,0.01,0.01,0.15
0.7801291942596436,-0.12,0.0,0.02,0.12
0.7817718982696533,-0.07,0.0,0.07,0.09
0.7828359603881836,0.0,-0.02,0.15,0.15
0.8008010387420654,0.15,-0.04,0.15,0.21
0.8021399974822998,0.27,0.0,0.05,0.27
0.816673994064331,0.22,0.0,-0.04,0.22
0.8180620670318604,0.16,-0.01,-0.07,0.17
0.8334460258483887,0.17,0.02,0.07,0.18
0.836143970489502,0.19,0.02,0.13,0.23
0.8515651226043701,0.15,-0.02,0.05,0.15
0.8804681301116943,0.12,-0.01,-0.02,0.12
0.882314920425415,0.13,-0.02,-0.05,0.14
0.8837978839874268,0.15,-0.03,-0.04,0.15
0.90090012550354,0.14,-0.02,0.0,0.14
0.9023280143737793,0.17,-0.02,0.08,0.18
0.9169409275054932,0.14,-0.02,0.11,0.17
0.9182610511779785,0.06,-0.05,0.09,0.11
0.9335770606994629,0.03,-0.03,0.02,0.04
0.935417890548706,0.07,0.03,-0.01,0.07
0.9526488780975342,0.06,0.02,-0.03,0.06
0.9771320819854736,0.06,0.01,-0.05,0.07
0.9787051677703857,0.06,0.01,-0.03,0.06
0.979773998260498,0.08,-0.04,-0.02,0.09
1.0010550022125244,0.11,-0.05,0.05,0.13
1.0025660991668701,0.13,-0.03,0.15,0.2
1.0169119834899902,0.13,-0.06,0.18,0.23
1.0183179378509521,0.19,-0.04,0.2,0.27
1.0337731838226318,0.26,-0.04,0.17,0.31
1.0351431369781494,0.2,-0.05,0.08,0.22
1.0530099868774414,0.06,-0.02,0.03,0.06
1.0583350658416748,-0.03,0.03,0.05,0.06
1.0828831195831299,-0.06,0.06,0.12,0.14
1.0845539569854736,-0.08,0.0,0.04,0.08
1.0862250328063965,-0.08,0.02,-0.11,0.13
1.1012771129608154,-0.07,0.04,-0.12,0.14
1.1041438579559326,-0.13,0.0,-0.11,0.17
1.1165211200714111,-0.12,0.03,-0.09,0.15
1.1241700649261475,-0.03,0.06,-0.06,0.09
1.1339190006256104,0.04,0.04,-0.02,0.06
1.1440179347991943,0.05,0.02,0.04,0.06
1.1541430950164795,0.05,-0.02,0.06,0.08
1.1803290843963623,0.02,-0.02,0.04,0.04
1.182110071182251,0.0,0.02,-0.02,0.02
1.1836040019989014,0.06,0.01,0.0,0.06
1.2007958889007568,0.19,-0.01,0.07,0.2
1.2034640312194824,0.21,0.0,0.06,0.21
1.2169568538665771,0.1,-0.01,0.09,0.13
1.2235510349273682,-0.07,-0.03,0.13,0.15
1.2336480617523193,-0.09,-0.02,0.12,0.15
1.246833086013794,0.11,-0.01,0.2,0.22
1.2533071041107178,0.19,-0.04,0.23,0.3
1.2807660102844238,0.1,-0.04,0.16,0.19
1.2825260162353516,-0.05,-0.02,0.1,0.11
1.2836999893188477,-0.14,0.01,0.04,0.14
1.3013031482696533,-0.15,0.06,0.01,0.16
1.302757978439331,-0.11,0.06,-0.05,0.13
1.3172650337219238,-0.1,-0.01,-0.09,0.13
1.3226289749145508,-0.11,-0.03,-0.1,0.15
1.333449125289917,-0.07,0.0,-0.1,0.12
1.3427419662475586,-0.01,0.04,-0.05,0.06
1.3529341220855713,-0.02,0.06,0.0,0.06
1.384308099746704,-0.11,0.04,0.03,0.12
1.3859279155731201,-0.16,0.02,0.02,0.16
1.3869779109954834,-0.15,0.04,-0.02,0.15
1.401087999343872,-0.09,0.04,-0.01,0.09
1.402482032775879,0.06,-0.01,0.06,0.08
1.411910057067871,0.16,0.0,0.01,0.16
1.4221060276031494,0.11,-0.01,-0.05,0.12
1.4319241046905518,0.11,-0.05,0.0,0.12
1.4418480396270752,0.09,-0.06,0.07,0.12
1.4522840976715088,0.02,-0.03,0.13,0.13
1.4885690212249756,0.0,0.0,0.15,0.15
1.4901049137115479,0.03,0.02,0.15,0.15
1.491318941116333,-0.02,0.05,0.16,0.16
1.4974701404571533,-0.09,0.04,0.17,0.19
1.5012118816375732,-0.15,0.02,0.19,0.24
1.5171401500701904,-0.18,0.05,0.17,0.25
1.5210621356964111,-0.2,0.1,0.14,0.26
1.5332539081573486,-0.2,0.1,0.01,0.22
1.5409140586853027,-0.21,0.03,-0.2,0.29
1.5507738590240479,-0.15,-0.03,-0.31,0.34
1.5832750797271729,0.1,-0.02,-0.35,0.36
1.584989070892334,0.29,-0.07,-0.32,0.43
1.5863759517669678,0.44,-0.01,-0.15,0.46
1.6011688709259033,0.44,0.01,0.07,0.44
1.6025819778442383,0.16,-0.05,0.15,0.22
1.6171860694885254,-0.12,0.03,0.25,0.27
1.6204249858856201,-0.23,0.05,0.22,0.32
1.6337521076202393,-0.27,0.08,0.1,0.29
1.6403019428253174,-0.28,0.1,0.08,0.3
1.652519941329956,-0.24,0.06,0.04,0.25
1.6836299896240234,-0.08,0.0,0.01,0.08
1.6854841709136963,0.11,-0.02,0.04,0.11
1.6869571208953857,0.18,0.02,-0.07,0.19
1.7013299465179443,0.17,0.01,-0.16,0.23
1.702836036682129,0.27,-0.06,-0.13,0.3
1.7173089981079102,0.4,-0.08,-0.13,0.42
1.7195141315460205,0.43,-0.11,-0.12,0.45
1.7335059642791748,0.27,-0.06,0.04,0.27
1.7393839359283447,0.07,0.05,0.18,0.19
1.7492930889129639,0.01,0.07,0.21,0.22
1.785949945449829,0.1,-0.06,0.02,0.11
1.7877390384674072,0.22,-0.08,-0.12,0.26
1.7887871265411377,0.28,-0.05,-0.11,0.3
1.8012340068817139,0.32,-0.02,-0.01,0.32
1.802720069885254,0.26,0.0,-0.01,0.26
1.8172671794891357,0.07,0.03,-0.04,0.08
1.8187320232391357,-0.1,-0.02,-0.15,0.18
1.833909034729004,-0.15,-0.02,-0.25,0.29
1.8388311862945557,-0.1,0.04,-0.23,0.25
1.8492591381072998,-0.01,0.06,-0.17,0.18
1.861811876296997,-0.05,0.1,-0.12,0.16
1.8877909183502197,-0.08,0.07,-0.19,0.21
1.8894109725952148,-0.13,0.0,-0.31,0.33
1.8911240100860596,-0.21,0.06,-0.4,0.45
1.9023730754852295,-0.23,0.09,-0.36,0.43
1.9081919193267822,-0.17,0.08,-0.3,0.35
1.9181759357452393,-0.19,0.1,-0.26,0.33
1.9280750751495361,-0.18,0.02,-0.2,0.26
1.9379279613494873,-0.09,-0.01,-0.06,0.1
1.9481241703033447,0.01,0.01,0.07,0.07
1.9579660892486572,0.08,0.0,0.18,0.19
1.9832580089569092,0.07,-0.02,0.15,0.16
1.985077142715454,0.01,-0.04,0.01,0.04
1.9875729084014893,-0.01,-0.02,-0.13,0.13
2.0012049674987793,-0.01,0.07,-0.2,0.21
2.0074219703674316,-0.02,0.09,-0.16,0.18
2.017529010772705,0.0,0.06,-0.02,0.06
2.0273711681365967,0.04,-0.04,0.06,0.08
2.037261962890625,0.08,-0.09,-0.03,0.12
2.047888994216919,0.15,0.05,-0.1,0.18
2.0600640773773193,0.12,0.12,-0.22,0.27
2.0838980674743652,0.04,0.13,-0.19,0.23
2.085555076599121,-0.02,0.09,-0.04,0.1
2.0869381427764893,-0.11,0.0,-0.08,0.13
2.102234125137329,-0.12,-0.04,-0.1,0.16
2.106693983078003,-0.05,0.02,0.08,0.09
2.1171581745147705,0.06,0.1,0.16,0.19
2.126642942428589,0.06,0.12,-0.06,0.14
2.1367080211639404,-0.1,0.11,-0.3,0.33
2.14678692817688,-0.16,0.11,-0.46,0.49
2.156799077987671,-0.23,0.13,-0.41,0.48
2.183238983154297,-0.22,0.16,-0.22,0.34
2.1850478649139404,-0.1,0.08,-0.08,0.15
2.186495065689087,-0.08,-0.05,-0.16,0.18
2.201237916946411,-0.15,-0.05,-0.24,0.28
2.205965995788574,-0.08,0.08,-0.02,0.11
2.2174150943756104,-0.11,0.13,0.26,0.31
2.2259671688079834,-0.18,0.09,0.29,0.35
2.2360000610351562,-0.16,0.1,0.18,0.26
2.2484939098358154,-0.15,0.17,-0.05,0.23
2.2560131549835205,-0.23,0.24,-0.35,0.48
2.288187026977539,-0.28,0.35,-0.65,0.78
2.28996205329895,-0.23,0.46,-0.81,0.95
2.2914340496063232,-0.12,0.55,-0.95,1.1
2.3015239238739014,-0.08,0.59,-1.1,1.25
2.30523419380188,-0.1,0.71,-1.06,1.27
2.3172099590301514,-0.1,0.81,-1.01,1.29
2.325134038925171,-0.86,1.62,-1.17,2.17
2.3349010944366455,-1.18,1.54,-1.77,2.62
2.3478879928588867,-1.14,1.16,-2.2,2.73
2.357110023498535,-0.79,0.67,-2.59,2.78
2.3878040313720703,-0.24,0.12,-2.86,2.87
2.389557123184204,0.39,-0.16,-3.15,3.17
2.391011953353882,0.73,-0.04,-3.5,3.57
2.4007670879364014,0.74,0.2,-3.51,3.59
2.404524087905884,0.86,-0.11,-2.87,2.99
2.417836904525757,0.72,-1.19,-1.72,2.21
2.424262046813965,-0.3,-1.93,-0.71,2.07
2.434256076812744,-1.34,-1.18,-0.23,1.8
2.4442431926727295,-2.96,-1.77,-0.68,3.51
2.4545440673828125,-4.8,-1.97,-0.6,5.22
2.4875481128692627,-4.96,-1.53,0.22,5.19
2.4892661571502686,-3.85,-1.64,0.82,4.26
2.4907028675079346,-3.18,-1.85,0.97,3.8
2.501821994781494,-3.23,-1.66,1.0,3.76
2.5036141872406006,-3.35,-1.21,1.27,3.78
2.517616033554077,-3.28,-0.98,1.66,3.8
2.52350115776062,-3.07,-0.98,2.09,3.84
2.5339770317077637,-2.81,-1.01,2.34,3.79
2.543658971786499,-2.53,-0.85,2.43,3.6
2.555957078933716,-2.16,-0.35,2.3,3.17
2.583461046218872,-1.55,-0.07,2.0,2.53
2.585317850112915,-0.59,-0.17,1.72,1.82
2.586789846420288,0.16,-0.1,1.45,1.46
2.6017849445343018,0.81,0.11,1.0,1.29
2.6032819747924805,1.67,0.76,0.64,1.94
2.6176950931549072,2.91,4.19,-0.93,5.18
2.6230340003967285,5.74,2.51,-0.85,6.32
2.634147882461548,10.45,3.29,1.71,11.08
2.642897844314575,13.56,3.3,5.14,14.87
2.6552321910858154,7.68,1.4,5.84,9.74
2.6629459857940674,-2.1,-0.36,4.96,5.39
2.6916539669036865,-6.15,-2.06,3.58,7.4
2.693312883377075,-5.28,-1.5,2.12,5.88
2.6950340270996094,-3.03,0.25,0.34,3.05
2.702270030975342,-0.88,1.31,-0.71,1.73
2.7179648876190186,1.55,1.4,0.53,2.15
2.7220990657806396,2.59,0.22,2.65,3.71
2.734161138534546,1.67,-0.4,3.0,3.45
2.7421109676361084,0.51,-0.06,1.3,1.39
2.752241849899292,0.44,-0.12,-0.47,0.65
2.7651851177215576,1.01,0.06,-1.04,1.45
2.7876670360565186,1.4,0.63,-0.71,1.69
2.78924298286438,0.66,0.55,-0.23,0.88
2.791452169418335,-0.17,0.22,0.05,0.28
2.8015191555023193,-0.38,0.15,-0.06,0.41
2.811338186264038,-0.07,0.31,-0.13,0.34
2.8213651180267334,0.61,0.13,0.18,0.64
2.8315389156341553,1.16,0.24,0.63,1.34
2.8413498401641846,0.91,0.38,0.33,1.03
2.851720094680786,0.34,0.33,-0.28,0.55
2.8644630908966064,0.25,0.25,-0.71,0.79
2.8870961666107178,0.24,0.17,-0.76,0.81
2.888723134994507,0.07,0.13,-0.66,0.67
2.890606164932251,-0.6,0.13,-0.91,1.09
2.901517152786255,-1.25,0.26,-1.23,1.77
2.910691022872925,-1.14,0.06,-1.3,1.73
2.920628070831299,-0.78,-0.08,-1.29,1.5
2.930734872817993,-0.68,-0.28,-1.32,1.51
2.9406049251556396,-0.71,-0.36,-0.96,1.24
2.950417995452881,-0.74,-0.17,-0.78,1.08
2.9608161449432373,-0.59,0.09,-0.68,0.9
2.9864609241485596,-0.41,0.23,-0.41,0.62
2.988142967224121,-0.15,0.19,-0.03,0.24
2.989928960800171,-0.08,0.15,0.28,0.32
3.002573013305664,-0.15,0.09,0.31,0.35
3.009998083114624,-0.22,-0.01,0.22,0.31
3.0196120738983154,-0.15,0.0,0.1,0.18
3.029585123062134,0.23,0.02,0.11,0.25
3.0395028591156006,0.53,-0.08,0.33,0.62
3.0521790981292725,0.54,-0.08,0.35,0.64
3.0602729320526123,0.46,-0.18,0.37,0.61
3.0955941677093506,0.35,-0.24,0.39,0.57
3.097537040710449,0.11,-0.19,0.28,0.35
3.099050998687744,-0.18,-0.11,0.2,0.29
3.118398904800415,-0.24,0.07,0.17,0.3
3.1199159622192383,-0.19,0.11,-0.01,0.21
3.1356890201568604,-0.04,0.0,0.05,0.06
3.137221097946167,0.39,-0.04,0.32,0.5
3.15433406829834,0.64,-0.03,0.14,0.65
3.156442880630493,0.54,-0.05,-0.33,0.63
3.1646759510040283,0.22,-0.05,-0.5,0.54
3.1932709217071533,-0.32,0.1,-0.63,0.71
3.195142984390259,-1.12,0.25,-0.73,1.36
3.196613073348999,-1.27,0.75,-0.38,1.52
3.198201894760132,-1.04,1.25,-0.21,1.63
3.208564043045044,-0.91,1.45,-0.48,1.77
3.218538999557495,-0.83,1.41,-0.62,1.74
3.228226900100708,-0.94,1.23,-0.48,1.62
3.238452196121216,-1.12,1.07,-0.78,1.73
3.248314142227173,-1.36,1.08,-1.17,2.09
3.2581489086151123,-1.44,1.28,-1.62,2.51
3.2902028560638428,-1.29,1.2,-2.01,2.67
3.292119026184082,-1.39,1.04,-2.46,3.01
3.2937018871307373,-2.34,1.35,-2.65,3.78
3.2990801334381104,-2.17,2.42,-1.36,3.52
3.3078300952911377,-2.03,2.5,-1.35,3.49
3.317566156387329,-2.97,2.87,-1.57,4.41
3.327564001083374,-3.71,3.15,-1.56,5.11
3.3374760150909424,-4.07,3.42,-1.55,5.53
3.3476290702819824,-4.05,3.16,-1.86,5.46
3.359961986541748,-4.27,3.34,-2.1,5.81
3.3898098468780518,-4.82,4.01,-2.39,6.71
3.391468048095703,-4.95,4.44,-2.76,7.19
3.3932390213012695,-4.93,4.55,-3.18,7.42
3.4003729820251465,-5.08,4.57,-3.42,7.64
3.407149076461792,-4.77,4.05,-3.33,7.08
3.416903018951416,-4.2,3.32,-3.14,6.2
3.4269750118255615,-3.84,2.97,-3.3,5.86
3.4369900226593018,-3.29,3.35,-3.54,5.88
3.446794033050537,-3.2,4.48,-4.29,6.97
3.459414005279541,-3.55,6.17,-4.95,8.67
3.4691011905670166,-3.76,7.04,-5.31,9.58
3.4952051639556885,-2.47,7.5,-4.13,8.91
3.49707293510437,1.87,9.14,-0.96,9.37
3.498178005218506,3.14,7.22,-0.82,7.91
3.517893075942993,0.61,4.2,-2.81,5.09
3.519412040710449,-2.17,3.0,-4.22,5.61
3.5348899364471436,-4.5,1.1,-3.99,6.11
3.5363729000091553,-5.92,-2.15,-3.76,7.33
3.5519139766693115,-3.63,-6.16,-3.28,7.86
3.5557920932769775,0.98,-5.04,-1.62,5.38
3.5658628940582275,-2.31,-3.59,-1.72,4.6
3.5938639640808105,-6.75,-3.24,-3.02,8.07
3.5957071781158447,-9.62,-3.04,-2.92,10.5
3.5969340801239014,-10.19,-3.3,-1.66,10.83
3.6054069995880127,-8.93,-3.88,-0.26,9.73
3.615511178970337,-6.94,-5.1,0.67,8.63
3.6254830360412598,-5.52,-6.24,1.1,8.4
3.635535955429077,-5.26,-6.61,0.95,8.5
3.645137071609497,-5.93,-5.93,0.43,8.39
3.6552419662475586,-6.97,-4.69,0.01,8.4
3.665785074234009,-7.68,-3.78,0.21,8.56
3.693776845932007,-7.7,-3.41,0.73,8.45
3.6950881481170654,-7.03,-3.46,1.27,7.93
3.6962740421295166,-6.12,-3.41,1.59,7.18
3.7049880027770996,-5.41,-2.91,1.65,6.36
3.714833974838257,-4.67,-1.89,1.68,5.31
3.7247140407562256,-4.1,-0.76,1.27,4.35
3.7345690727233887,-3.27,0.15,0.28,3.28
3.744525194168091,-2.08,0.94,-0.22,2.29
3.7544801235198975,-0.67,1.98,0.37,2.12
3.7650179862976074,0.95,2.67,0.86,2.96
3.79394793510437,2.4,3.12,1.01,4.06
3.795206069946289,3.18,3.9,1.19,5.17
3.796375036239624,3.5,5.23,0.83,6.34
3.804131031036377,4.05,6.68,0.35,7.81
3.8142149448394775,5.18,7.63,0.07,9.22
3.82397198677063,6.99,7.7,-0.21,10.4
3.8339788913726807,7.4,9.39,-0.12,11.95
3.8437650203704834,5.98,13.73,-0.05,14.97
3.8536031246185303,12.39,9.38,-0.69,15.55
3.863739013671875,17.51,4.84,0.67,18.17
3.8987581729888916,17.78,2.72,1.89,18.08
3.9003920555114746,16.21,2.73,2.28,16.59
3.901810884475708,14.8,3.2,2.53,15.35
3.9191410541534424,13.51,2.94,2.38,14.02
3.92059588432312,12.46,2.07,2.23,12.82
3.9347641468048096,11.87,1.06,2.13,12.1
3.93625807762146,8.79,-1.61,-0.02,8.93
3.951663017272949,0.69,-3.49,-3.34,4.87
3.953145980834961,-6.19,-1.13,-4.24,7.58
3.967000961303711,-4.6,3.91,-1.18,6.15
3.9962069988250732,-0.5,7.96,1.55,8.12
3.9981329441070557,3.95,10.22,2.58,11.25
3.999591112136841,8.4,3.13,1.24,9.04
4.018966913223267,6.47,-1.08,0.08,6.56
4.020428895950317,3.4,0.25,1.75,3.83
4.034743070602417,1.53,-0.14,3.03,3.39
4.036193132400513,1.28,-1.25,3.26,3.71
4.051788091659546,1.95,-1.53,3.2,4.04
4.053277969360352,2.88,-0.97,2.65,4.03
4.070626974105835,3.07,-0.35,2.21,3.79
4.094682931900024,2.73,-0.21,2.1,3.45
4.096549987792969,2.25,-0.22,1.57,2.75
4.09781289100647,1.77,-0.18,1.06,2.07
4.101373910903931,1.03,-0.1,0.42,1.11
4.111748933792114,0.34,0.04,-0.41,0.53
4.121837854385376,-0.11,0.22,-0.99,1.02
4.131731033325195,-0.42,0.37,-1.04,1.18
4.1413891315460205,-0.59,0.29,-0.89,1.1
4.151397943496704,-0.66,-0.06,-1.01,1.2
4.161218881607056,-0.62,-0.1,-1.26,1.4
4.194936037063599,-0.56,0.35,-1.26,1.42
4.196483850479126,-0.44,0.3,-1.07,1.19
4.1981871128082275,0.03,-0.25,-0.68,0.72
4.200978994369507,0.41,-0.65,-0.1,0.77
4.210952997207642,0.23,-0.36,0.07,0.43
4.221089124679565,-0.15,0.33,-0.11,0.37
4.230975866317749,-0.4,0.39,-0.07,0.56
4.240900039672852,-0.6,0.2,0.27,0.68
4.250622034072876,-0.88,0.1,0.17,0.9
4.261070013046265,-0.91,0.08,-0.8,1.21
4.273133993148804,-0.27,0.13,-1.32,1.35
4.302455186843872,0.51,0.18,-0.79,0.95
4.304136037826538,0.49,0.18,-0.23,0.57
4.305105924606323,-0.38,0.06,-0.17,0.42
4.319506883621216,-0.37,0.14,-0.05,0.39
4.3209898471832275,0.26,-0.04,0.13,0.29
4.334757089614868,0.52,-0.22,0.35,0.66
4.340223073959351,0.23,-0.08,0.29,0.37
4.351885080337524,0.0,0.25,0.02,0.25
4.359889984130859,0.01,0.39,0.09,0.4
4.3697099685668945,0.22,0.29,-0.08,0.37
4.399424076080322,0.37,0.06,-0.28,0.46
4.40129017829895,0.44,-0.11,-0.33,0.56
4.402767896652222,0.65,-0.12,-0.25,0.7
4.419344186782837,0.85,-0.14,-0.23,0.89
4.4208691120147705,0.61,-0.15,-0.39,0.73
4.434545040130615,0.2,-0.13,-0.63,0.67
4.4391930103302,-0.21,-0.04,-0.58,0.61
4.451858997344971,-0.44,-0.08,-0.49,0.66
4.459079027175903,-0.59,-0.24,-0.45,0.77
4.469313859939575,-0.42,-0.19,-0.42,0.62
4.499715089797974,0.21,0.13,-0.24,0.34
4.501466989517212,0.21,0.21,0.1,0.31
4.502488851547241,-0.03,0.33,0.12,0.35
4.519315004348755,-0.33,0.33,0.1,0.47
4.520698070526123,-0.71,0.3,-0.12,0.78
4.53491997718811,-1.16,0.29,-0.34,1.24
4.5385520458221436,-1.42,0.54,-0.68,1.66
4.551925897598267,-1.36,0.64,-0.68,1.64
4.558518171310425,-1.47,0.54,-0.92,1.81
4.568626165390015,-1.65,0.55,-1.19,2.1
4.597657918930054,-1.71,0.61,-1.08,2.11
4.599191904067993,-1.81,0.8,-1.22,2.32
4.600236177444458,-1.9,0.98,-1.52,2.62
4.61910605430603,-2.09,0.94,-1.68,2.84
4.620630979537964,-2.49,1.07,-2.0,3.36
4.635053873062134,-2.73,1.49,-2.18,3.79
4.637753009796143,-2.85,2.08,-1.93,4.02
4.651867151260376,-2.99,2.76,-1.42,4.3
4.6576011180877686,-3.0,3.11,-2.12,4.81
4.671236991882324,-4.12,3.89,-3.1,6.45
4.7033820152282715,-3.4,4.73,-1.81,6.09
4.705186128616333,-3.42,3.97,-2.45,5.78
4.706387042999268,-4.08,4.37,-2.93,6.65
4.719753980636597,-4.04,4.2,-3.09,6.59
4.721215009689331,-4.14,4.39,-3.19,6.82
4.73533296585083,-4.16,4.26,-3.45,6.88
4.736912965774536,-4.18,4.47,-3.98,7.3
4.752248048782349,-4.19,4.59,-3.94,7.35
4.756833076477051,-3.57,3.9,-3.79,6.5
4.7674150466918945,-3.05,2.99,-3.95,5.81
4.801918029785156,-2.47,3.19,-4.05,5.71
4.803390979766846,-2.18,4.37,-4.64,6.73
4.804455041885376,-2.29,6.17,-5.32,8.46
4.819486856460571,-2.24,7.7,-4.42,9.15
4.820986986160278,1.12,8.96,-1.45,9.14
4.834760904312134,2.51,5.93,-0.96,6.51
4.8362791538238525,0.13,2.56,-2.55,3.61
4.852071046829224,-3.1,1.35,-4.2,5.39
4.85608696937561,-5.78,-0.27,-4.17,7.13
4.867383003234863,-7.7,-2.42,-3.3,8.71
4.903591871261597,-4.45,-4.0,-2.08,6.33
4.905469179153442,-1.11,-3.38,-1.59,3.89
4.906534910202026,-4.54,-2.53,-1.31,5.35
4.919203996658325,-8.66,-1.92,-1.52,8.99
4.920719861984253,-10.86,-1.52,-1.1,11.02
4.935482025146484,-10.44,-2.29,-0.03,10.68
4.936981916427612,-8.86,-3.23,0.82,9.46
4.952190160751343,-7.4,-3.99,0.82,8.44
4.955856084823608,-6.49,-4.24,0.16,7.75
4.965707063674927,-6.04,-4.08,-0.53,7.3
5.000655889511108,-5.76,-3.86,-1.02,7.0
5.002233982086182,-5.47,-3.57,-1.3,6.66
5.003298044204712,-5.11,-3.34,-1.4,6.26
5.01980996131897,-4.77,-3.09,-1.47,5.87
5.021245002746582,-4.42,-2.75,-1.47,5.4
5.034698963165283,-4.2,-2.47,-1.43,5.07
5.03617787361145,-3.99,-2.07,-1.23,4.66
5.052059888839722,-3.82,-1.53,-0.79,4.19
5.054484128952026,-3.61,-1.04,-0.22,3.76
5.067334890365601,-3.13,-0.52,-0.02,3.17
5.077068090438843,-2.28,-0.19,-0.69,2.38
5.108309030532837,-1.36,0.04,-1.6,2.1
5.1094958782196045,-0.92,0.61,-1.57,1.91
5.110862970352173,-0.62,1.43,-0.56,1.65
5.115346193313599,-0.01,2.24,0.35,2.26
5.123913049697876,0.6,2.89,1.02,3.12
5.135267972946167,0.69,3.27,1.44,3.63
5.144201993942261,0.45,3.94,1.72,4.32
5.153868913650513,0.68,4.76,1.73,5.11
5.163928031921387,2.03,5.37,1.56,5.94
5.173768997192383,4.32,6.5,0.94,7.86
5.202818155288696,5.47,13.42,0.08,14.49
5.204176187515259,8.58,14.8,-3.3,17.42
5.205207109451294,17.88,8.31,-3.35,19.99
5.21969199180603,22.08,4.02,-0.32,22.44
5.223330974578857,19.77,4.75,1.02,20.35
5.233198881149292,17.45,5.3,1.6,18.3
5.243183851242065,16.37,4.85,2.48,17.25
5.253079175949097,15.28,4.88,3.42,16.4
5.2630579471588135,14.1,4.7,4.42,15.5
5.27277684211731,12.88,4.61,5.78,14.85
5.301604986190796,10.09,1.35,4.83,11.26
5.302919149398804,1.91,-2.53,0.37,3.19
5.303938150405884,-7.18,-2.06,-3.53,8.26
5.31995701789856,-8.5,2.62,-2.39,9.21
5.32251501083374,-3.32,6.07,1.38,7.05
5.335233926773071,3.36,6.83,2.86,8.13
5.342381000518799,8.52,0.69,1.87,8.75
5.352540969848633,6.8,-0.45,1.12,6.9
5.36225700378418,3.48,1.31,1.71,4.09
5.372135877609253,1.47,-0.72,1.28,2.07
5.402201890945435,0.74,-2.12,0.71,2.35
5.403697967529297,1.16,-1.86,1.03,2.42
5.404690980911255,2.42,-0.78,1.83,3.13
5.419589996337891,3.05,-0.09,2.36,3.85
5.421704053878784,2.86,-0.2,2.09,3.54
5.4353978633880615,2.25,-0.26,1.41,2.66
5.441725015640259,1.57,-0.28,1.25,2.02
5.452214002609253,1.07,-0.42,1.23,1.68
5.461536169052124,0.54,-0.36,1.12,1.29
5.471364974975586,-0.08,-0.11,1.03,1.03
5.516347169876099,-0.36,0.09,0.41,0.55
5.518194913864136,-0.09,0.33,-0.27,0.43
5.519645929336548,0.47,0.35,-0.75,0.95
5.536358118057251,0.92,0.2,-1.08,1.43
5.537806034088135,0.77,0.03,-1.26,1.47
5.550923109054565,0.14,0.13,-1.21,1.22
5.552406072616577,-0.45,0.23,-0.84,0.98
5.569677114486694,-0.62,0.4,-0.75,1.05
5.571183919906616,-0.34,0.42,-0.54,0.76
5.583745002746582,0.22,0.1,0.06,0.24
5.609346151351929,0.63,-0.04,0.44,0.76
5.610764026641846,0.77,-0.02,0.37,0.85
5.611845016479492,0.88,-0.03,0.32,0.93
5.614441156387329,1.03,-0.12,0.29,1.07
5.63569188117981,0.99,-0.23,0.19,1.03
5.637207984924316,0.86,-0.28,0.21,0.92
5.652311086654663,0.63,-0.17,0.35,0.74
5.65380597114563,0.21,-0.06,0.24,0.32
5.667785882949829,-0.11,0.06,0.28,0.3
5.669883966445923,-0.16,0.18,0.15,0.28
5.709457159042358,-0.15,0.1,-0.3,0.35
5.710661172866821,-0.13,-0.12,-0.5,0.53
5.711883068084717,-0.05,-0.2,-0.51,0.55
5.7152910232543945,0.06,-0.09,-0.44,0.45
5.735799074172974,0.17,0.01,-0.21,0.27
5.7372119426727295,0.17,-0.05,0.12,0.21
5.752500057220459,0.06,0.0,0.3,0.3
5.753942966461182,0.01,0.07,0.56,0.56
5.767855882644653,0.06,0.1,0.66,0.67
5.769343137741089,0.22,0.02,0.55,0.59
5.808294057846069,0.47,-0.09,0.34,0.58
5.8094189167022705,0.71,-0.12,0.22,0.75
5.810685873031616,0.89,-0.05,0.04,0.89
5.817432165145874,0.8,0.14,0.02,0.81
5.818476915359497,0.41,0.26,0.05,0.48
5.8357319831848145,-0.06,0.1,-0.19,0.22
5.838724851608276,-0.61,0.03,-0.52,0.8
5.852599859237671,-1.07,0.07,-0.69,1.27
5.85847806930542,-1.19,0.19,-0.63,1.35
5.868291139602661,-1.04,0.32,-0.46,1.18
5.878360986709595,-0.89,0.47,-0.81,1.29
5.908398866653442,-1.11,0.65,-1.29,1.82
5.9095399379730225,-1.55,0.73,-1.43,2.23
5.910806894302368,-1.63,0.86,-1.55,2.4
5.917762041091919,-1.76,0.68,-1.74,2.56
5.92807412147522,-2.34,0.89,-2.08,3.25
5.938125848770142,-2.85,0.95,-2.71,4.04
5.94809103012085,-3.38,0.9,-3.12,4.68
5.9577648639678955,-3.45,1.06,-3.39,4.95
5.967871904373169,-3.13,1.39,-3.38,4.81
5.977441072463989,-2.69,1.79,-3.56,4.8
6.0080201625823975,-2.28,2.39,-3.57,4.86
6.009221076965332,-1.75,3.31,-3.25,4.95
6.01042103767395,-1.69,5.03,-2.73,5.96
6.017532110214233,-2.05,5.29,-1.69,5.91
6.027278184890747,-2.22,4.34,-1.11,4.99
6.037168025970459,-2.54,4.24,-1.05,5.05
6.047224044799805,-3.04,4.43,-1.18,5.5
6.056910991668701,-3.81,4.52,-1.07,6.0
6.067283868789673,-4.19,4.07,-1.06,5.93
6.076985120773315,-4.33,3.56,-1.19,5.73
6.108443975448608,-4.51,3.1,-1.37,5.64
6.1100029945373535,-4.28,2.44,-2.07,5.34
6.1110520362854,-3.78,2.08,-2.69,5.08
6.117139101028442,-3.35,2.23,-3.27,5.18
6.135921001434326,-3.15,2.84,-3.83,5.71
6.137423038482666,-3.13,3.75,-3.9,6.25
6.152518033981323,-2.99,4.44,-3.78,6.55
6.1563050746917725,-2.58,5.3,-3.27,6.74
6.167975187301636,0.34,8.32,-1.15,8.4
6.1762988567352295,2.35,8.42,-0.96,8.79
6.212946176528931,0.07,4.47,-2.85,5.3
6.214121103286743,-2.75,2.6,-4.8,6.11
6.215152025222778,-4.89,1.35,-5.35,7.37
6.236663103103638,-6.54,-0.52,-4.88,8.17
6.23816704750061,-5.68,-2.69,-4.25,7.58
6.2527899742126465,-0.27,-1.55,-2.87,3.27
6.254345178604126,0.31,-0.46,-2.12,2.19
6.269212007522583,-3.4,-1.64,-2.82,4.71
6.270714998245239,-6.68,-1.3,-3.64,7.71
6.288661003112793,-8.36,-1.46,-3.51,9.18
6.317547082901001,-8.52,-1.89,-2.58,9.1
6.318847894668579,-7.74,-2.55,-1.61,8.3
6.319869041442871,-6.66,-3.52,-1.02,7.6
6.33608603477478,-5.79,-4.23,-0.81,7.21
6.337146043777466,-5.32,-4.51,-0.85,7.02
6.352743864059448,-5.11,-4.47,-0.95,6.85
6.354258060455322,-5.01,-4.32,-0.9,6.67
6.369266033172607,-4.83,-4.15,-0.72,6.4
6.370722055435181,-4.58,-3.97,-0.47,6.07
6.38485312461853,-4.56,-3.87,-0.26,5.98
6.411738157272339,-4.73,-3.82,-0.14,6.08
6.413119077682495,-4.92,-3.62,-0.04,6.1
6.414100885391235,-4.98,-3.24,0.06,5.94
6.41632604598999,-4.9,-2.6,-0.02,5.54
6.423753976821899,-4.54,-1.61,-0.45,4.83
6.4342100620269775,-3.73,-0.8,-1.13,3.97
6.444293022155762,-2.24,-0.2,-1.16,2.53
6.454277038574219,-0.29,0.2,-0.52,0.62
6.464094877243042,2.09,0.8,-0.14,2.24
6.473994016647339,4.41,1.58,-0.6,4.72
6.510642051696777,5.37,1.92,-1.01,5.79
6.511945009231567,4.97,2.56,-0.82,5.65
6.512938976287842,4.4,3.81,-0.79,5.87
6.513967037200928,4.21,4.86,-1.09,6.52
6.536051034927368,4.08,5.66,-1.35,7.1
6.53754997253418,4.76,6.89,-0.8,8.41
6.552638053894043,6.45,7.27,0.33,9.72
6.554118871688843,7.91,6.54,1.72,10.4
6.568323850631714,6.6,9.75,2.46,12.02
6.573062181472778,5.99,9.55,2.65,11.58
6.610826015472412,9.43,5.99,4.71,12.12
6.612032175064087,10.75,6.53,6.46,14.13
6.613313913345337,9.89,5.63,5.5,12.63
6.615583181381226,9.09,4.61,5.07,11.38
6.635650873184204,8.69,3.87,4.97,10.73
6.637078046798706,8.09,4.07,4.95,10.32
6.652917146682739,7.65,4.42,4.62,9.97
6.654332876205444,7.24,4.91,4.97,10.06
6.667284965515137,7.05,5.3,5.19,10.23
6.672498941421509,5.42,2.51,3.86,7.11
6.683200120925903,-0.18,-1.11,0.57,1.26
6.71375298500061,-5.62,-1.04,-1.88,6.01
6.715054988861084,-5.61,1.01,-1.12,5.8
6.716058969497681,0.14,0.7,0.12,0.72
6.735994100570679,3.85,-1.25,-0.03,4.04
6.73703408241272,5.19,1.67,0.75,5.5
6.752907991409302,7.56,4.31,1.42,8.81
6.754387140274048,7.84,3.67,0.92,8.7
6.769577980041504,5.99,2.88,1.91,6.91
6.771570920944214,4.02,-0.46,1.56,4.33
6.784821033477783,3.0,-2.55,1.16,4.1
6.8128039836883545,2.79,-2.08,1.27,3.7
6.814327001571655,2.43,-0.6,1.39,2.86
6.815360069274902,1.9,0.19,1.69,2.54
6.836555004119873,1.22,-0.07,1.95,2.3
6.837594985961914,0.69,-0.39,2.24,2.37
6.852915048599243,0.44,-0.4,2.46,2.53
6.854372024536133,0.36,-0.3,2.3,2.34
6.869606971740723,0.41,-0.24,1.59,1.65
6.871103048324585,0.44,-0.21,0.76,0.9
6.8850860595703125,0.49,-0.02,0.11,0.5
6.912225008010864,0.43,0.22,-0.38,0.61
6.9136199951171875,0.42,0.3,-0.61,0.79
6.914715051651001,0.46,0.23,-0.71,0.87
6.920253038406372,0.54,0.1,-0.7,0.88
6.930248022079468,0.74,0.11,-0.71,1.03
6.9403321743011475,0.75,0.15,-0.88,1.16
6.95032811164856,0.5,0.24,-1.02,1.16
6.960395097732544,0.12,0.31,-0.9,0.95
6.970331907272339,-0.28,0.19,-0.54,0.63
6.979902982711792,-0.49,-0.08,0.3,0.58
7.009749174118042,-0.29,-0.19,0.93,0.99
7.010892152786255,-0.09,0.05,0.93,0.93
7.01224684715271,-0.07,0.28,0.54,0.61
7.019389867782593,-0.08,0.28,-0.07,0.29
7.029415845870972,-0.05,0.13,-0.3,0.33
7.039277076721191,0.12,-0.1,-0.41,0.43
7.0495569705963135,0.26,-0.14,-0.47,0.55
7.059427976608276,0.1,0.12,-0.52,0.54
7.069731950759888,-0.27,0.31,-0.84,0.93
7.079432010650635,-0.59,0.23,-0.69,0.93
7.116966009140015,-0.64,0.1,-0.3,0.71
7.118293046951294,-0.61,-0.07,0.07,0.61
7.119301080703735,-0.65,0.02,0.12,0.66
7.136566877365112,-0.67,0.21,-0.04,0.7
7.137639045715332,-0.51,0.27,-0.34,0.66
7.152904987335205,-0.22,0.19,-0.52,0.59
7.154397964477539,0.03,0.03,-0.45,0.45
7.169965028762817,0.31,0.0,-0.04,0.31
7.171365022659302,0.48,0.0,0.51,0.7
7.185214042663574,0.48,0.02,0.73,0.87
7.215122938156128,0.38,0.01,0.63,0.73
7.216449022293091,0.23,-0.02,0.4,0.46
7.217458009719849,0.19,0.06,0.24,0.31
7.236569166183472,0.07,0.04,-0.07,0.1
7.237600088119507,-0.12,0.0,-0.49,0.5
7.252853155136108,-0.24,0.04,-0.53,0.58
7.254295110702515,-0.44,0.09,-0.45,0.63
7.27011513710022,-0.68,0.25,-0.4,0.82
7.271607160568237,-0.87,0.5,-0.31,1.05
7.2851879596710205,-1.0,0.57,-0.28,1.18
7.315110921859741,-1.15,0.52,-0.44,1.33
7.316459894180298,-1.24,0.5,-0.77,1.54
7.317457914352417,-1.25,0.47,-1.09,1.72
7.336194038391113,-1.28,0.47,-1.4,1.95
7.337110996246338,-1.2,0.47,-1.51,1.98
7.352992057800293,-1.23,0.48,-1.2,1.78
7.3544299602508545,-1.32,0.47,-1.07,1.76
7.369747877120972,-1.48,0.62,-1.1,1.94
7.371248960494995,-1.52,0.99,-1.0,2.07
7.385224103927612,-1.21,1.34,-0.84,1.99
7.415410995483398,-1.06,1.7,-1.28,2.37
7.416859865188599,-1.32,1.99,-2.19,3.24
7.417870044708252,-1.88,2.87,-2.08,4.01
7.436733961105347,-1.81,3.71,-1.91,4.54
7.438215017318726,-1.56,3.38,-1.76,4.11
7.453216075897217,-1.95,3.48,-0.46,4.01
7.454697847366333,-3.05,3.45,-0.99,4.71
7.469774961471558,-3.68,3.89,-1.32,5.51
7.471257925033569,-3.92,3.78,-1.79,5.73
7.485109090805054,-4.22,3.85,-2.14,6.1
7.486531972885132,-4.37,4.15,-2.41,6.49
7.535408973693848,-4.71,4.03,-3.0,6.88
7.53656005859375,-4.98,4.1,-3.44,7.31
7.53757905960083,-4.93,3.95,-3.66,7.3
7.5538740158081055,-4.83,3.39,-3.9,7.07
7.554951906204224,-4.41,2.75,-3.98,6.54
7.569649934768677,-3.54,2.49,-3.68,5.68
7.5710508823394775,-2.73,3.2,-3.68,5.58
7.585559129714966,-2.95,4.54,-4.46,7.01
7.587085962295532,-2.91,5.76,-4.7,7.98
7.602035045623779,-0.63,7.71,-3.28,8.4
7.632544040679932,3.54,10.82,-1.92,11.54
7.63395619392395,2.12,8.4,-3.57,9.37
7.63494610786438,-1.71,4.61,-5.47,7.35
7.653480052947998,-4.22,2.46,-5.88,7.64
7.654541015625,-5.77,-0.23,-5.18,7.75
7.670040845870972,-5.34,-1.89,-4.69,7.35
7.671555995941162,1.13,-2.39,-4.59,5.29
7.686362981796265,4.63,-2.64,-3.48,6.36
7.687885046005249,-0.39,-3.43,-3.97,5.26
7.701879978179932,-6.04,-2.39,-4.79,8.07
7.73059606552124,-9.37,-2.35,-4.38,10.6
7.732050180435181,-10.13,-3.22,-2.78,10.98
7.7330591678619385,-9.23,-3.95,-0.93,10.08
7.753849029541016,-8.02,-4.65,0.43,9.28
7.75492000579834,-7.35,-5.15,0.95,9.02
7.769855976104736,-7.28,-5.17,0.85,8.96
7.770904064178467,-7.29,-4.78,0.49,8.73
7.786669969558716,-7.05,-4.41,0.28,8.32
7.788208961486816,-6.64,-4.26,0.19,7.89
7.802199125289917,-6.18,-4.13,0.08,7.43
7.832040071487427,-5.76,-4.0,0.06,7.01
7.833467960357666,-5.39,-3.8,0.03,6.59
7.834485054016113,-5.05,-3.42,-0.09,6.09
7.853318929672241,-4.73,-2.96,-0.34,5.59
7.854372978210449,-4.36,-2.23,-0.49,4.92
7.870025873184204,-3.85,-1.27,-0.52,4.08
7.871517896652222,-3.24,-0.33,-0.59,3.3
7.88661789894104,-2.47,0.39,-0.83,2.63
7.888128042221069,-1.59,0.92,-0.6,1.93
7.9020068645477295,-0.86,1.49,0.34,1.75
7.931593179702759,-0.44,1.92,1.14,2.27
7.9329540729522705,-0.02,2.44,1.5,2.86
7.9339680671691895,0.69,3.38,1.49,3.75
7.953495025634766,1.62,4.38,1.15,4.8
7.954540014266968,2.43,5.29,0.49,5.84
7.969525098800659,2.95,6.28,-0.5,6.95
7.970541000366211,3.72,7.31,-1.33,8.3
7.986270189285278,4.93,7.77,-2.24,9.47
7.987765073776245,4.29,12.11,-2.01,13.0
8.00217318534851,6.23,12.19,-2.99,14.01
8.029855012893677,13.25,6.56,-2.24,14.95
8.031270027160645,16.31,2.26,-0.11,16.46
8.032268047332764,14.33,1.52,1.38,14.47
8.034752130508423,11.63,2.03,2.11,11.99
8.036152124404907,9.99,3.21,3.12,10.94
8.04184889793396,9.26,3.92,3.51,10.65
8.051836013793945,8.78,4.01,3.63,10.31
8.06179690361023,8.22,3.67,3.41,9.62
8.071936845779419,7.61,3.28,3.82,9.12
8.082072019577026,7.24,3.33,4.66,9.23
8.117825984954834,7.17,3.76,5.28,9.66
8.119078874588013,6.89,2.43,4.56,8.61
8.120100021362305,3.2,-0.9,1.05,3.48
8.136908054351807,-2.41,-1.95,-2.58,4.03
8.137991189956665,-3.36,0.58,-2.25,4.08
8.152931928634644,1.49,3.99,-0.29,4.26
8.153949975967407,3.98,6.51,1.12,7.71
8.170192956924438,5.33,8.04,1.7,9.79
8.171687841415405,7.33,3.29,0.26,8.03
8.185569047927856,5.29,0.59,-0.36,5.33
8.218477010726929,3.14,1.26,2.07,3.96
8.219771146774292,1.88,-1.08,2.92,3.63
8.22080397605896,2.15,-2.41,2.29,3.95
8.237334966659546,2.62,-2.17,1.72,3.81
8.238401174545288,2.51,-1.12,1.33,3.05
8.253247022628784,2.24,-0.19,1.36,2.62
8.254246950149536,1.72,-0.04,1.78,2.47
8.27004885673523,1.04,-0.42,1.8,2.12
8.27153205871582,0.52,-0.4,1.01,1.2
8.285660982131958,-0.31,-0.09,0.24,0.4
8.2901771068573,-0.94,0.2,-0.1,0.96
8.330724000930786,-1.03,0.25,-0.1,1.06
8.331830024719238,-0.67,0.09,-0.07,0.67
8.332825899124146,-0.14,0.04,-0.34,0.36
8.354007005691528,0.19,0.2,-0.97,1.0
8.355080842971802,0.26,0.22,-1.55,1.58
8.369940042495728,0.49,0.12,-1.51,1.59
8.371356964111328,0.78,0.09,-1.3,1.51
8.386996030807495,0.79,0.08,-0.93,1.22
8.388497114181519,0.51,0.15,-0.24,0.58
8.402447938919067,0.15,0.11,0.43,0.46
8.432455062866211,-0.04,0.09,0.86,0.86
8.433902978897095,0.28,0.03,1.1,1.13
8.43491005897522,0.76,-0.07,1.19,1.41
8.453855037689209,0.98,-0.19,0.99,1.4
8.454899072647095,1.06,-0.24,0.64,1.26
8.469753980636597,1.02,-0.11,0.38,1.09
8.470785856246948,1.04,-0.09,0.25,1.07
8.486971139907837,0.96,-0.12,0.09,0.97
8.488492965698242,0.68,-0.05,-0.08,0.68
8.50247311592102,0.37,-0.02,-0.21,0.42
8.53150486946106,0.16,-0.09,-0.22,0.28
8.53321099281311,-0.07,0.02,0.02,0.07
8.534260034561157,-0.3,0.13,-0.11,0.34
8.553675889968872,-0.43,0.13,-0.38,0.58
8.554650068283081,-0.4,0.17,-0.43,0.61
8.569924116134644,-0.32,0.17,-0.34,0.49
8.571346998214722,-0.21,0.04,-0.17,0.27
8.586905002593994,-0.22,-0.03,-0.06,0.23
8.58835506439209,-0.32,0.0,0.0,0.32
8.602553129196167,-0.25,0.06,0.08,0.26
8.632406949996948,0.0,0.1,0.18,0.2
8.633814096450806,0.15,0.08,0.23,0.28
8.634819030761719,0.11,0.01,0.11,0.15
8.653804063796997,0.04,-0.03,-0.01,0.05
8.6548490524292,-0.01,-0.04,-0.04,0.05
8.669859170913696,-0.07,0.04,0.02,0.08
8.670884847640991,-0.12,0.17,-0.01,0.2
8.686978101730347,-0.09,0.29,-0.02,0.3
8.688431978225708,0.03,0.34,0.14,0.36
8.702445983886719,-0.06,0.48,0.15,0.5
8.731518983840942,-0.49,0.67,-0.09,0.83
8.732856035232544,-0.81,0.68,-0.35,1.11
8.733874082565308,-1.19,0.64,-0.67,1.5
8.754137992858887,-1.56,0.67,-0.92,1.93
8.755193948745728,-1.67,0.77,-1.25,2.22
8.770298957824707,-1.6,0.96,-1.5,2.39
8.771774053573608,-1.67,1.03,-1.69,2.58
8.786921977996826,-1.7,1.04,-1.76,2.65
8.788361072540283,-1.63,1.07,-1.54,2.48
8.802487134933472,-1.63,1.16,-1.22,2.34
8.83239197731018,-1.86,1.4,-1.21,2.62
8.83371090888977,-2.36,2.28,-1.48,3.59
8.834717035293579,-2.71,3.49,-1.87,4.79
8.85383915901184,-1.91,3.74,-1.51,4.46
8.854909181594849,-1.79,3.18,-1.33,3.88
8.869938135147095,-2.56,3.15,-1.4,4.29
8.870949983596802,-3.43,3.25,-1.57,4.97
8.886980056762695,-3.96,3.66,-2.2,5.82
8.888450860977173,-4.31,3.98,-2.99,6.58
8.902549982070923,-4.68,4.37,-3.64,7.36
8.931462049484253,-5.04,4.55,-3.97,7.86
8.932820081710815,-5.38,4.82,-3.98,8.24
8.933835983276367,-5.55,4.84,-4.07,8.41
8.953934907913208,-5.36,4.62,-4.07,8.16
8.954864025115967,-5.08,4.32,-4.03,7.79
8.970022916793823,-4.6,3.55,-3.85,6.97
8.971092939376831,-3.72,3.32,-3.38,6.02
8.986847162246704,-2.93,3.7,-3.28,5.74
8.988306045532227,-2.63,4.87,-3.9,6.77
9.002341032028198,-1.86,6.59,-3.45,7.66
9.032417058944702,1.34,9.72,-1.21,9.88
9.033886194229126,2.32,8.86,-1.82,9.33
9.034857034683228,-0.37,5.33,-3.67,6.48
9.055270910263062,-3.53,3.69,-4.79,7.0
9.056792974472046,-5.76,1.46,-4.74,7.6
9.070543050765991,-7.43,-1.45,-4.03,8.57
9.07206416130066,-6.91,-4.08,-3.29,8.67
9.087202072143555,-0.17,-3.18,-1.88,3.69
9.088695049285889,1.89,-0.8,-0.67,2.15
9.102781057357788,-2.6,-1.68,-1.83,3.59
9.104356050491333,-7.12,-1.23,-3.02,7.83
9.154662847518921,-9.69,-1.26,-2.82,10.17
9.155844926834106,-9.99,-1.95,-1.79,10.33
9.156867980957031,-8.65,-2.78,-0.57,9.1
9.171113014221191,-6.93,-3.57,0.31,7.8
9.17215085029602,-5.73,-4.21,0.51,7.12
9.187116861343384,-5.12,-4.7,0.09,6.95
9.188647985458374,-4.98,-4.63,-0.3,6.8
9.203879117965698,-5.06,-4.21,-0.7,6.61
9.205358028411865,-5.2,-3.71,-0.97,6.46
9.21926498413086,-5.29,-3.37,-0.96,6.34
9.24871301651001,-5.26,-3.25,-0.72,6.22
9.250131845474243,-5.05,-2.99,-0.22,5.87
9.25115704536438,-4.77,-2.62,0.5,5.46
9.270713090896606,-4.37,-1.88,1.12,4.88
9.271804094314575,-3.73,-1.18,0.54,3.94
9.286990880966187,-2.91,-0.6,-1.03,3.14
9.288026094436646,-2.01,0.35,-1.81,2.72
9.303960084915161,-1.07,1.55,-0.78,2.03
9.305423021316528,-0.42,1.95,0.99,2.22
9.319521188735962,0.05,2.14,2.55,3.32
9.347867012023926,0.37,2.62,3.26,4.19
9.34916090965271,0.21,3.11,3.0,4.32
9.350138902664185,0.47,4.11,2.64,4.9
9.37105107307434,1.96,5.26,2.27,6.05
9.37210202217102,4.53,5.48,1.6,7.28
9.387212038040161,6.73,4.77,0.77,8.28
9.388684034347534,7.57,4.32,-0.65,8.74
9.404016971588135,7.05,3.63,-2.46,8.3
9.405519008636475,7.11,4.66,-1.48,8.62
9.419638872146606,9.41,5.27,-0.62,10.8
9.448468923568726,11.57,3.67,-0.7,12.15
9.449822187423706,11.63,2.76,-0.65,11.97
9.450853109359741,9.29,4.61,-0.23,10.37
9.470542192459106,6.92,6.95,0.6,9.82
9.471574068069458,9.58,1.95,0.85,9.81
9.48697805404663,11.18,2.12,2.55,11.66
9.488030195236206,11.15,2.46,2.78,11.75
9.50407099723816,10.58,2.45,2.55,11.15
9.505553007125854,9.98,2.67,2.83,10.71
9.519652128219604,9.12,3.27,3.12,10.17
9.547868967056274,8.49,4.33,3.51,10.15
9.549246072769165,7.87,4.0,2.88,9.28
9.550286054611206,3.18,0.87,-0.41,3.32
9.570881128311157,-4.6,0.54,-3.36,5.72
9.571915864944458,-7.48,2.93,-2.32,8.36
9.587175130844116,-2.53,2.66,0.29,3.68
9.588194131851196,2.66,0.77,0.18,2.77
9.604099988937378,4.17,1.21,-0.12,4.34
9.605563879013062,3.43,2.39,0.56,4.21
9.61995816230774,4.94,3.1,1.3,5.97
9.649113893508911,6.87,-0.23,0.22,6.87
9.650483846664429,5.41,0.15,0.4,5.42
9.651458978652954,4.16,0.92,2.73,5.06
9.67105507850647,3.52,-1.03,2.9,4.67
9.672114133834839,3.03,-1.86,2.01,4.08
9.687479019165039,2.28,-0.76,1.64,2.9
9.688951015472412,1.57,0.1,1.28,2.02
9.704259157180786,1.03,-0.03,1.23,1.6
9.705765962600708,0.61,-0.44,1.19,1.4
9.719858884811401,0.49,-0.2,1.55,1.63
9.749279022216797,0.39,0.06,1.84,1.88
9.750656843185425,0.25,-0.01,1.19,1.21
9.751675844192505,0.35,-0.09,0.67,0.76
9.770673036575317,0.52,-0.12,0.22,0.57
9.771713018417358,0.68,-0.02,-0.3,0.74
9.786815881729126,0.78,-0.03,-0.64,1.0
9.788275003433228,0.81,-0.14,-0.98,1.27
9.804563999176025,0.48,0.02,-1.42,1.49
9.806076049804688,0.15,0.23,-1.43,1.45
9.819552183151245,0.17,0.26,-1.14,1.18
9.849408864974976,0.08,0.33,-0.73,0.8
9.850906133651733,-0.03,0.29,-0.22,0.36
9.851953029632568,-0.04,0.01,0.13,0.13
9.871077060699463,-0.06,-0.02,0.36,0.36
9.872099161148071,0.06,0.08,0.56,0.56
9.8871910572052,0.23,0.1,0.52,0.57
9.888221025466919,0.22,0.0,0.48,0.52
9.903727054595947,0.31,-0.11,0.64,0.71
9.905203104019165,0.75,-0.23,0.65,1.01
9.919945001602173,1.23,-0.29,0.51,1.36
9.921408891677856,1.22,-0.28,0.37,1.3
9.965460062026978,0.8,-0.2,0.14,0.83
9.966674089431763,0.28,-0.1,0.03,0.29
9.967614889144897,-0.09,-0.04,-0.01,0.09
9.98758602142334,-0.21,0.1,0.11,0.25
9.988607168197632,-0.16,0.11,0.07,0.2
10.003941059112549,-0.06,0.03,0.09,0.11
10.00541090965271,0.03,0.06,0.17,0.18
10.02229905128479,0.0,0.14,0.09,0.16
10.023735046386719,-0.02,0.08,0.05,0.09
10.036338090896606,0.04,0.08,0.04,0.09
10.065286874771118,0.04,0.16,0.04,0.16
10.066365003585815,-0.07,0.3,-0.1,0.32
10.0674569606781,-0.24,0.39,-0.28,0.53
10.068495035171509,-0.34,0.42,-0.35,0.64
10.087812185287476,-0.27,0.44,-0.59,0.78
10.08881688117981,-0.25,0.37,-0.78,0.89
10.10411286354065,-0.36,0.35,-0.86,0.99
10.10555100440979,-0.47,0.41,-0.81,1.02
10.121047973632812,-0.66,0.33,-0.39,0.83
10.122545957565308,-0.9,0.35,-0.02,0.96
10.164352178573608,-1.07,0.48,0.07,1.17
10.165502071380615,-1.17,0.52,-0.05,1.28
10.166436910629272,-1.17,0.47,-0.2,1.27
10.167868852615356,-1.24,0.4,-0.33,1.34
10.16942286491394,-1.25,0.37,-0.68,1.47
10.170837163925171,-1.24,0.27,-1.25,1.78
10.172227144241333,-1.45,0.36,-1.52,2.13
10.175806045532227,-1.28,0.61,-1.29,1.91
10.185793161392212,-1.04,0.87,-1.17,1.79
10.195754051208496,-0.81,1.02,-1.34,1.86
10.22341799736023,-0.58,1.51,-1.23,2.03
10.224654912948608,-0.88,2.27,-1.26,2.74
10.225458860397339,-1.54,3.32,-1.19,3.84
10.236024141311646,-1.75,3.15,-1.63,3.95
10.245350122451782,-1.86,3.02,-1.48,3.84
10.255154848098755,-2.38,3.03,-1.75,4.23
10.26519513130188,-2.98,3.28,-2.24,4.96
10.274996995925903,-3.35,3.77,-2.61,5.67
10.28516697883606,-3.61,4.33,-2.94,6.35
10.294946908950806,-4.07,4.84,-3.25,7.11
10.33177399635315,-4.59,5.05,-3.51,7.67
10.333130121231079,-4.96,5.04,-4.05,8.14
10.33411717414856,-5.47,5.24,-4.39,8.75
10.354963064193726,-5.65,4.95,-4.33,8.67
10.356012105941772,-5.36,3.91,-4.55,8.04
10.370567083358765,-4.87,3.38,-4.72,7.57
10.371602058410645,-3.85,3.1,-4.41,6.62
10.387934923171997,-2.73,3.36,-4.0,5.89
10.389448881149292,-2.23,4.32,-3.58,6.03
10.403316020965576,-1.51,5.82,-2.68,6.58
10.433770895004272,1.25,8.95,-1.29,9.12
10.435121059417725,3.23,10.4,-2.12,11.09
10.436128854751587,0.13,6.44,-3.85,7.5
10.454647064208984,-3.32,2.81,-4.47,6.23
10.455747842788696,-5.66,-0.01,-4.07,6.97
10.471119165420532,-7.56,-2.57,-3.36,8.66
10.472665071487427,-6.7,-4.08,-2.44,8.21
10.487819910049438,0.23,-4.31,-1.46,4.55
10.489319086074829,2.02,-3.11,-0.6,3.75
10.503190994262695,-2.35,-2.98,-1.46,4.06
10.532332181930542,-6.73,-2.47,-2.28,7.52
10.53373408317566,-9.36,-2.82,-2.09,9.99
10.534726858139038,-10.01,-3.45,-1.17,10.65
10.554646015167236,-9.27,-3.83,-0.03,10.03
10.555680990219116,-8.2,-4.17,0.7,9.22
10.57004714012146,-7.42,-4.47,0.83,8.7
10.571510076522827,-7.11,-4.45,0.61,8.4
10.587872982025146,-6.86,-4.12,0.2,8.0
10.589333057403564,-6.44,-3.72,-0.14,7.43
10.603502035140991,-6.03,-3.33,-0.3,6.89
10.631988048553467,-5.64,-3.01,-0.43,6.4
10.633343935012817,-5.42,-2.51,-0.41,5.98
10.634315013885498,-5.41,-1.82,-0.45,5.72
10.655220985412598,-5.15,-1.13,-0.88,5.34
10.65621018409729,-4.33,-0.31,-1.39,4.55
10.670377016067505,-2.76,0.52,-2.0,3.44
10.671473026275635,-1.13,0.59,-2.79,3.06
10.688285112380981,-0.06,0.56,-2.91,2.96
10.689779996871948,0.32,0.7,-2.04,2.18
10.703294038772583,0.5,1.26,-1.02,1.69
10.704775094985962,0.93,2.08,-0.53,2.33
10.749475002288818,1.18,2.69,-0.6,2.99
10.750693082809448,0.92,3.3,-0.78,3.51
10.751715898513794,0.56,4.01,-0.86,4.13
10.771619081497192,0.65,4.65,-0.56,4.72
10.77265191078186,1.2,5.03,0.06,5.17
10.787899017333984,2.1,5.16,0.52,5.59
10.789385080337524,3.15,5.13,0.4,6.03
10.804525136947632,3.94,5.15,-0.11,6.48
10.806002855300903,4.85,5.5,-0.52,7.35
10.820183038711548,6.13,5.52,-0.55,8.26
10.849339962005615,5.83,8.23,0.14,10.08
10.850764989852905,7.67,5.55,0.34,9.47
10.851796865463257,10.85,2.36,1.98,11.27
10.871224164962769,10.29,1.99,3.65,11.09
10.87229609489441,8.78,1.76,3.71,9.69
10.887708902359009,7.83,2.09,4.3,9.17
10.888751983642578,7.27,2.38,4.63,8.94
10.904753923416138,7.21,2.86,4.73,9.08
10.906222105026245,7.58,2.67,4.52,9.22
10.920330047607422,7.85,2.33,4.15,9.18
10.949042081832886,8.01,2.32,3.66,9.1
10.950415849685669,8.43,2.55,3.3,9.4
10.951409101486206,9.28,2.8,3.13,10.18
10.971384048461914,10.02,2.36,2.93,10.7
10.97245192527771,8.21,-0.34,1.37,8.33
10.986561059951782,2.69,-3.35,-1.58,4.57
10.98761796951294,-1.93,-3.05,-3.52,5.04
11.005709886550903,-1.06,1.04,-2.69,3.07
11.007196187973022,1.61,7.07,0.48,7.26
11.020401000976562,5.44,12.0,2.62,13.43
11.048778057098389,8.49,4.63,0.68,9.69
11.050191164016724,5.31,-0.21,-0.63,5.35
11.051213026046753,2.75,-0.82,1.15,3.09
11.071470022201538,1.58,-1.79,2.44,3.41
11.072540044784546,1.57,-2.15,2.79,3.85
11.087868928909302,1.94,-1.58,2.72,3.69
11.088887929916382,1.69,-1.0,2.4,3.1
11.104925870895386,1.48,-0.49,2.81,3.21
11.10639214515686,1.42,0.02,2.67,3.02
11.120310068130493,1.17,-0.14,2.02,2.33
11.149747133255005,1.12,-0.23,1.72,2.06
11.151131868362427,1.48,-0.23,0.82,1.7
11.152101993560791,1.43,-0.11,0.19,1.44
11.17143702507019,1.02,0.12,-0.06,1.02
11.172477006912231,0.58,0.25,-0.35,0.72
11.187862157821655,0.37,0.24,-0.71,0.83
11.188891172409058,0.41,0.16,-1.3,1.37
11.204648971557617,0.42,0.16,-1.44,1.5
11.205962896347046,0.32,0.16,-1.04,1.09
11.22009015083313,0.17,0.0,-0.42,0.45
11.24878191947937,0.08,-0.05,0.16,0.18
11.25022292137146,-0.02,0.04,0.55,0.55
11.251230001449585,-0.16,0.24,0.69,0.74
11.271641969680786,-0.32,0.38,0.34,0.6
11.272706985473633,-0.36,0.29,-0.12,0.47
11.287904024124146,-0.14,0.05,-0.44,0.46
11.288938999176025,0.31,-0.06,-0.5,0.59
11.305039167404175,0.64,-0.11,-0.25,0.69
11.306525945663452,0.65,-0.12,0.02,0.66
11.320456981658936,0.37,0.02,-0.04,0.37
11.350926160812378,0.07,0.13,-0.03,0.15
11.352227926254272,-0.1,0.11,0.24,0.28
11.353237867355347,-0.17,0.02,0.42,0.45
11.371693849563599,-0.1,-0.01,0.43,0.44
11.372741937637329,-0.08,-0.13,0.39,0.41
11.38765001296997,-0.16,-0.11,0.22,0.29
11.388710021972656,-0.19,0.07,0.0,0.2
11.404973983764648,-0.04,0.23,-0.15,0.27
11.406460046768188,0.16,0.26,-0.21,0.37
11.420225858688354,0.27,0.24,-0.25,0.43
11.44851303100586,0.34,0.09,-0.32,0.47
11.449851036071777,0.35,-0.03,-0.14,0.37
11.450853109359741,0.3,0.04,0.03,0.3
11.471946954727173,0.18,0.16,0.04,0.24
11.473011016845703,0.16,0.25,0.03,0.29
11.487704992294312,0.1,0.23,-0.02,0.25
11.488753080368042,-0.03,0.2,-0.13,0.24
11.50486707687378,-0.22,0.31,-0.08,0.38
11.506340026855469,-0.38,0.41,-0.1,0.56
11.52055811882019,-0.33,0.58,-0.27,0.71
11.522040128707886,-0.35,0.59,-0.61,0.91
11.565859079360962,-0.58,0.39,-0.97,1.19
11.567003965377808,-1.15,0.22,-1.09,1.59
11.567991018295288,-2.07,0.13,-0.9,2.26
11.58824610710144,-2.93,0.31,-0.79,3.05
11.589330911636353,-3.29,0.84,-1.0,3.53
11.60488486289978,-3.22,1.06,-1.23,3.6
11.606344938278198,-2.87,1.2,-1.33,3.38
11.621778011322021,-2.21,1.27,-1.27,2.84
11.623204946517944,-1.59,1.2,-1.42,2.44
11.636956930160522,-1.09,1.17,-1.75,2.37
11.666081190109253,-1.07,1.64,-2.0,2.79
11.66747498512268,-1.76,3.09,-2.19,4.17
11.668503046035767,-2.78,4.8,-2.13,5.94
11.68822693824768,-2.79,4.54,-1.99,5.68
11.689280033111572,-2.87,4.04,-1.49,5.17
11.704975843429565,-3.75,4.06,-1.79,5.8
11.706461191177368,-4.39,4.21,-2.04,6.41
11.72182011604309,-4.77,4.56,-2.52,7.06
11.72328805923462,-5.49,5.21,-3.3,8.25
11.737208127975464,-6.19,5.76,-3.75,9.24
11.766541004180908,-6.59,6.08,-4.1,9.85
11.767868995666504,-6.92,5.99,-4.44,10.17
11.768887042999268,-6.77,5.8,-4.73,10.09
11.788881063461304,-6.17,5.01,-5.0,9.38
11.789923906326294,-5.3,4.15,-4.89,8.32
11.804758071899414,-4.23,3.82,-5.08,7.63
11.80578899383545,-3.84,4.61,-5.61,8.21
11.821846961975098,-3.6,6.57,-5.41,9.24
11.823291063308716,-1.27,9.25,-3.46,9.95
11.836066007614136,3.39,12.8,-1.13,13.28
11.859766960144043,3.05,9.62,-1.24,10.16
11.860825061798096,-0.63,4.47,-3.2,5.53
11.861670017242432,-3.93,1.54,-5.0,6.54
11.867290019989014,-6.36,-2.11,-5.92,8.94
11.86824107170105,-6.72,-7.05,-6.06,11.47
11.8886079788208,0.43,-5.64,-2.97,6.38
11.88968300819397,4.15,-3.15,-0.6,5.24
11.905141115188599,-0.44,-3.55,-2.17,4.18
11.906661033630371,-5.5,-3.59,-3.57,7.47
11.920888185501099,-8.47,-3.86,-3.25,9.85
11.94885516166687,-9.44,-4.18,-2.26,10.56
11.950165033340454,-9.16,-4.53,-0.9,10.25
11.95116901397705,-8.34,-5.28,0.37,9.87
11.972139120101929,-7.8,-6.22,0.94,10.02
11.973203897476196,-7.69,-6.18,0.91,9.9
11.989224195480347,-7.59,-5.31,0.6,9.28
11.990267992019653,-7.28,-4.41,0.33,8.51
12.005426168441772,-6.74,-3.94,0.16,7.8
12.006940126419067,-6.22,-3.72,0.19,7.25
12.020742177963257,-5.92,-3.37,0.37,6.82
12.049635171890259,-5.87,-2.73,0.3,6.48
12.051059007644653,-5.9,-2.02,-0.34,6.24
12.052074193954468,-5.31,-1.07,-1.16,5.53
12.072213888168335,-4.03,-0.31,-1.86,4.44
12.073282957077026,-2.32,0.17,-2.12,3.14
12.088255167007446,-0.69,0.48,-2.17,2.32
12.089303016662598,0.34,0.78,-1.59,1.8
12.10505199432373,0.8,1.12,-0.82,1.6
12.106498003005981,1.23,1.82,-0.26,2.21
12.120825052261353,1.66,2.71,0.05,3.17
12.150161027908325,1.67,3.42,0.25,3.81
12.152158975601196,1.47,4.11,0.57,4.4
12.153159856796265,1.52,4.87,1.02,5.2
12.171810865402222,2.0,5.5,1.25,5.98
12.172865152359009,2.93,5.85,1.19,6.65
12.188236951828003,4.46,6.08,1.26,7.64
12.189661026000977,6.38,6.23,1.13,8.98
12.205268144607544,7.11,8.31,0.37,10.94
12.206754922866821,6.85,13.52,-0.63,15.16
12.22090196609497,12.67,8.21,-1.65,15.18
12.249729871749878,17.95,5.25,1.19,18.73
12.25114893913269,17.07,3.96,2.54,17.7
12.252151012420654,14.9,4.27,3.11,15.8
12.272081136703491,13.47,4.41,3.88,14.69
12.273138046264648,12.8,4.04,4.15,14.04
12.288481950759888,12.42,3.79,4.09,13.61
12.28999400138855,12.36,3.75,4.14,13.56
12.305337190628052,12.02,2.59,3.22,12.71
12.306809186935425,7.44,-1.05,-0.36,7.52
12.321094989776611,-0.44,-2.22,-4.54,5.07
12.322561979293823,-5.11,2.02,-5.05,7.46
12.367244958877563,-3.14,10.49,0.53,10.96
12.368490934371948,4.24,8.42,2.38,9.72
12.36949896812439,6.79,1.08,1.27,6.99
12.389024019241333,5.66,-0.63,0.97,5.77
12.390062093734741,4.32,-2.75,1.78,5.42
12.405264139175415,3.54,-3.25,1.88,5.16
12.40674090385437,3.63,-2.18,1.86,4.62
12.422086000442505,3.39,-0.85,1.78,3.92
12.423583984375,2.46,0.08,2.11,3.24
12.437410116195679,1.13,0.05,2.15,2.42
12.46732211112976,0.6,-0.25,1.87,1.97
12.468767881393433,1.12,-0.38,2.18,2.48
12.46978211402893,1.76,-0.27,2.57,3.12
12.48892092704773,1.85,-0.15,1.97,2.7
12.489959001541138,1.58,-0.16,1.56,2.22
12.503752946853638,1.08,-0.24,1.38,1.76
12.505234003067017,0.91,0.03,1.08,1.41
12.521971940994263,0.81,0.23,1.11,1.39
12.52342700958252,0.45,0.07,1.14,1.22
12.537402868270874,0.09,-0.04,0.24,0.25
12.568471193313599,-0.04,-0.01,-0.83,0.83
12.569745063781738,-0.12,0.08,-1.36,1.36
12.570767164230347,-0.2,0.11,-1.47,1.48
12.58908200263977,-0.16,0.18,-1.36,1.38
12.590121030807495,0.1,0.07,-1.31,1.31
12.604846000671387,0.38,-0.12,-1.28,1.34
12.605862855911255,0.51,-0.19,-0.79,0.95
12.62134599685669,0.3,-0.18,-0.15,0.38
12.622799158096313,-0.05,0.0,0.33,0.33
12.637498140335083,-0.47,0.23,0.99,1.11
12.665904998779297,-0.82,0.4,0.99,1.34
12.667968988418579,-0.7,0.48,0.58,1.02
12.668976068496704,-0.21,0.28,0.31,0.46
12.689154863357544,0.26,0.04,0.01,0.26
12.690234899520874,0.5,0.05,-0.34,0.6
12.7051260471344,0.41,0.15,-0.75,0.86
12.706165075302124,0.14,0.07,-1.16,1.17
12.722249031066895,-0.13,-0.13,-0.99,1.0
12.723752975463867,-0.35,-0.28,-0.46,0.64
12.737606048583984,-0.5,-0.18,-0.18,0.56
12.766577959060669,-0.67,0.01,-0.36,0.76
12.767904043197632,-0.63,0.18,-0.5,0.82
12.76877498626709,-0.38,0.26,-0.34,0.57
12.788805961608887,-0.23,0.15,-0.11,0.29
12.789870977401733,-0.01,-0.01,-0.01,0.01
12.805111169815063,0.24,-0.03,0.0,0.24
12.80615496635437,0.41,0.04,0.16,0.44
12.82203197479248,0.51,0.13,0.39,0.65
12.823531866073608,0.43,0.18,0.43,0.63
12.837496042251587,0.28,0.14,0.42,0.52
12.864636182785034,0.33,0.08,0.52,0.62
12.866003036499023,0.58,0.0,0.5,0.76
12.86698603630066,0.86,-0.01,0.43,0.96
12.868970155715942,1.02,-0.06,0.15,1.03
12.870156049728394,0.88,-0.01,-0.24,0.91
12.87131404876709,0.42,0.24,-0.18,0.51
12.875367879867554,-0.37,0.49,-0.06,0.61
12.885440111160278,-1.36,0.63,0.16,1.5
12.895382165908813,-2.0,0.69,0.08,2.11
12.905346155166626,-2.39,0.75,-0.24,2.51
12.938114881515503,-2.63,0.77,-0.63,2.81
12.939079999923706,-2.66,0.71,-1.36,3.07
12.93989109992981,-3.0,0.62,-2.21,3.77
12.954407930374146,-2.91,0.56,-2.32,3.76
12.955447912216187,-2.75,0.84,-2.2,3.62
12.972831010818481,-2.63,1.55,-2.22,3.77
12.974770069122314,-2.11,2.4,-2.28,3.92
12.988866090774536,-1.58,3.0,-2.23,4.05
12.994601964950562,-1.88,3.42,-2.38,4.57
13.004353046417236,-2.85,4.44,-1.99,5.63
13.040717840194702,-2.97,4.59,-1.16,5.58
13.041960000991821,-3.43,4.06,-0.96,5.4
13.042970895767212,-4.12,4.11,-1.1,5.92
13.055976152420044,-4.55,4.47,-1.27,6.5
13.057059049606323,-4.92,4.81,-2.13,7.2
13.072046995162964,-5.31,5.08,-3.05,7.95
13.07394289970398,-5.68,5.52,-3.43,8.63
13.08882999420166,-5.79,5.49,-3.85,8.85
13.094083070755005,-6.12,5.3,-4.07,9.06
13.104398012161255,-5.94,4.59,-4.16,8.58
13.114136934280396,-5.42,3.64,-4.27,7.8
13.14574408531189,-4.5,3.08,-4.25,6.91
13.146960020065308,-3.44,3.18,-4.66,6.6
13.148342847824097,-3.55,4.22,-5.31,7.65
13.153380155563354,-4.24,6.06,-5.33,9.11
13.16343903541565,-3.2,7.87,-4.09,9.42
13.17326807975769,1.24,11.28,-1.34,11.42
13.18326210975647,2.73,11.31,-1.06,11.68
13.19306206703186,-0.38,7.19,-2.82,7.73
13.203454971313477,-3.62,4.15,-4.73,7.25
13.213397026062012,-6.06,0.99,-5.37,8.15
13.245043992996216,-7.83,-3.16,-5.76,10.22
13.246381044387817,-5.11,-6.7,-4.99,9.79
13.247480154037476,3.22,-3.39,-1.46,4.89
13.254310846328735,2.35,-2.53,-0.57,3.49
13.26284909248352,-2.81,-2.85,-2.63,4.78
13.272528886795044,-7.09,-3.17,-3.48,8.51
13.28233790397644,-9.35,-3.55,-2.64,10.34
13.29231595993042,-9.71,-3.92,-1.13,10.53
13.30263900756836,-8.97,-4.65,0.22,10.1
13.312598943710327,-7.9,-5.9,1.17,9.92
13.345669031143188,-7.23,-6.48,1.47,9.81
13.347060918807983,-6.84,-5.9,1.3,9.12
13.34808897972107,-6.44,-5.07,1.01,8.25
13.35359001159668,-6.02,-4.58,0.71,7.59
13.372200012207031,-5.86,-4.52,0.54,7.42
13.373208999633789,-6.01,-4.22,0.5,7.36
13.388720989227295,-6.2,-3.49,0.81,7.16
13.391952991485596,-6.24,-2.56,1.12,6.83
13.404644012451172,-5.78,-1.47,0.45,5.98
13.411624193191528,-4.32,-0.63,-0.89,4.45
13.446654081344604,-2.19,-0.35,-2.05,3.02
13.447852849960327,-0.06,0.17,-2.0,2.0
13.449042081832886,1.59,0.81,-0.75,1.93
13.452936887741089,2.6,0.99,0.61,2.84
13.472249984741211,2.89,1.01,1.34,3.34
13.473264932632446,2.38,1.5,1.51,3.19
13.489251852035522,1.72,2.92,1.81,3.84
13.490988969802856,1.95,4.5,1.8,5.22
13.504615068435669,2.74,5.22,1.22,6.02
13.510879039764404,3.44,5.47,0.34,6.47
13.549110174179077,4.25,6.01,-0.03,7.36
13.550320863723755,5.44,6.43,-0.24,8.42
13.551564931869507,7.14,6.28,-0.68,9.53
13.553194046020508,9.42,5.88,-0.85,11.13
13.560765027999878,11.21,4.83,-0.9,12.23
13.570511102676392,11.6,3.83,-0.57,12.22
13.58029294013977,9.38,7.24,0.18,11.85
13.590394973754883,9.27,5.96,0.0,11.02
13.600161075592041,11.84,3.3,1.11,12.34
13.610315084457397,12.74,3.73,3.22,13.65
13.647637128829956,12.4,3.07,3.44,13.22
13.648989915847778,10.94,2.58,3.22,11.69
13.649971961975098,9.0,3.16,3.38,10.11
13.652200937271118,7.58,4.75,4.28,9.91
13.65985894203186,7.22,4.99,4.82,10.01
13.669743061065674,4.17,1.51,2.15,4.92
13.679465055465698,-2.83,-0.53,-2.07,3.54
13.68944001197815,-5.94,1.78,-3.88,7.31
13.699243068695068,-1.14,6.04,-1.15,6.25
13.709564924240112,3.65,7.42,2.25,8.56
13.746625185012817,7.14,4.09,3.15,8.81
13.747996091842651,7.91,-2.47,0.25,8.29
13.74888300895691,5.38,-1.01,-0.45,5.49
13.751811027526855,4.37,0.76,1.62,4.72
13.772094964981079,3.88,-0.69,2.07,4.45
13.773110151290894,3.84,-1.68,1.64,4.5
13.788940191268921,3.46,-1.19,1.41,3.92
13.79000210762024,2.94,-0.33,1.72,3.42
13.80477499961853,2.33,0.17,2.55,3.45
13.808655023574829,1.43,0.07,2.63,2.99
13.846489191055298,0.39,-0.26,2.14,2.19
13.847654104232788,-0.21,-0.26,1.74,1.77
13.848810911178589,-0.09,-0.08,1.41,1.41
13.851980924606323,0.37,0.04,1.34,1.39
13.871963024139404,0.53,0.12,1.17,1.29
13.873016119003296,0.23,0.07,0.45,0.51
13.888806104660034,0.03,0.05,-0.2,0.2
13.889824151992798,0.1,0.17,-0.45,0.49
13.904650926589966,0.37,0.3,-0.6,0.76
13.907907009124756,0.48,0.28,-0.93,1.08
13.92091703414917,0.55,0.16,-0.99,1.14
13.9493989944458,0.52,-0.08,-1.11,1.22
13.95090103149414,0.44,-0.18,-1.03,1.13
13.951882123947144,0.24,-0.06,-0.5,0.55
13.973834037780762,-0.1,0.06,0.11,0.16
13.97486400604248,-0.3,0.23,0.5,0.62
13.988909006118774,-0.17,0.23,0.38,0.47
13.989897966384888,0.14,0.03,0.42,0.44
14.00592303276062,0.38,-0.2,0.21,0.47
14.007415056228638,0.56,-0.38,0.03,0.67
14.021720170974731,0.66,-0.39,-0.1,0.77
14.051738023757935,0.55,-0.26,-0.37,0.71
14.053138971328735,0.44,-0.08,-0.44,0.62
14.054147958755493,0.19,0.22,0.08,0.3
14.07279896736145,0.08,0.72,0.28,0.77
14.073844194412231,-0.23,0.68,-0.19,0.74
14.088926076889038,-0.69,0.36,-0.57,0.96
14.089986085891724,-0.86,0.01,-0.58,1.03
14.106081008911133,-0.57,-0.18,-0.52,0.79
14.107467889785767,-0.17,-0.18,-0.6,0.64
14.121942043304443,0.02,-0.05,-0.5,0.5
14.151469945907593,0.02,0.12,-0.39,0.4
14.152733087539673,-0.16,0.25,-0.12,0.32
14.153733015060425,-0.24,0.31,0.01,0.39
14.173192977905273,-0.05,0.27,0.05,0.27
14.174227952957153,0.25,0.13,0.08,0.29
14.1895170211792,0.48,-0.21,0.07,0.52
14.19098687171936,0.84,-0.38,0.05,0.92
14.206154108047485,1.25,-0.24,0.08,1.27
14.207616090774536,1.2,0.1,0.45,1.28
14.22169303894043,0.66,0.37,0.43,0.87
14.252456903457642,0.12,0.48,0.25,0.55
14.25379204750061,-0.38,0.44,0.13,0.59
14.254796028137207,-0.8,0.29,0.15,0.86
14.273185968399048,-1.12,0.06,0.13,1.12
14.27425217628479,-1.31,0.09,0.07,1.31
14.289078950881958,-1.62,0.07,-0.4,1.67
14.290128946304321,-2.19,0.33,-0.87,2.37
14.306112051010132,-2.44,0.75,-1.05,2.76
14.307538986206055,-2.2,1.05,-0.91,2.6
14.321999073028564,-1.88,1.16,-1.05,2.44
14.352845907211304,-1.79,1.05,-1.29,2.44
14.354099035263062,-2.04,1.04,-1.71,2.85
14.355140924453735,-2.37,1.3,-2.12,3.43
14.372905015945435,-2.5,1.5,-1.66,3.35
14.37395691871643,-2.88,1.94,-1.18,3.66
14.389508962631226,-3.28,2.69,-1.57,4.52
14.390985012054443,-3.23,3.23,-2.68,5.29
14.40618896484375,-3.92,3.54,-4.38,6.86
14.407676935195923,-3.34,4.96,-2.78,6.59
14.42182207107544,-2.83,4.79,-2.35,6.03
14.452486991882324,-3.94,5.13,-2.22,6.83
14.45389199256897,-4.74,5.37,-2.18,7.48
14.45490288734436,-5.37,5.65,-2.35,8.14
14.473067045211792,-5.78,5.96,-2.5,8.67
14.474120855331421,-5.97,5.51,-2.63,8.53
14.489655017852783,-6.33,5.24,-2.78,8.67
14.491134881973267,-6.05,4.63,-3.15,8.24
14.506261110305786,-5.33,3.9,-3.53,7.48
14.507723093032837,-4.21,2.92,-3.7,6.31
14.52187705039978,-3.42,2.74,-4.08,5.98
14.551638841629028,-3.53,4.07,-4.78,7.2
14.553012132644653,-3.74,5.81,-5.19,8.64
14.554022073745728,-2.52,8.56,-3.52,9.59
14.573142051696777,1.2,11.68,-0.49,11.75
14.574190855026245,1.46,8.85,-0.33,8.97
14.589051008224487,-1.11,5.38,-2.34,5.97
14.59011197090149,-3.93,3.67,-4.61,7.08
14.606466054916382,-6.04,1.35,-5.51,8.28
14.607917070388794,-7.63,-1.43,-5.02,9.24
14.621966123580933,-5.79,-5.55,-4.57,9.23
14.653285026550293,2.12,-3.0,-1.91,4.14
14.654568910598755,1.89,-1.4,-0.83,2.49
14.65557599067688,-3.42,-2.46,-2.5,4.89
14.673274993896484,-7.81,-2.37,-3.32,8.81
14.674319982528687,-10.09,-2.43,-2.62,10.7
14.689784049987793,-10.48,-2.76,-1.14,10.89
14.691297054290771,-9.54,-3.34,0.08,10.1
14.706323862075806,-8.02,-4.09,0.49,9.01
14.707805871963501,-6.83,-4.64,0.38,8.26
14.721925973892212,-6.08,-4.71,0.01,7.69
14.723379850387573,-5.68,-4.26,-0.27,7.1
14.770394086837769,-5.62,-3.81,-0.35,6.79
14.771594047546387,-5.6,-3.59,-0.16,6.65
14.772585153579712,-5.49,-3.63,0.13,6.58
14.790163040161133,-5.32,-3.64,0.38,6.45
14.79116415977478,-5.2,-3.51,0.55,6.29
14.806419134140015,-5.22,-3.07,0.57,6.08
14.807832956314087,-5.23,-2.06,0.74,5.66
14.823434114456177,-5.35,-0.97,0.77,5.49
14.82492995262146,-5.05,-0.1,0.28,5.05
14.838397979736328,-3.84,0.42,-0.34,3.87
14.867192029953003,-2.05,0.98,-0.52,2.33
14.868622064590454,-0.11,1.55,0.45,1.61
14.869631052017212,1.55,2.06,1.69,3.08
14.889700174331665,2.33,2.42,2.19,4.01
14.890758037567139,2.18,2.96,2.31,4.34
14.906514883041382,2.1,4.21,2.79,5.46
14.907964944839478,2.87,5.7,2.9,7.0
14.923083066940308,4.3,6.94,2.31,8.48
14.924546957015991,6.45,8.32,1.67,10.65
14.939491987228394,9.17,9.1,1.41,12.99
14.969316959381104,10.98,9.95,1.37,14.88
14.970640897750854,9.91,15.33,1.52,18.31
14.971662044525146,14.93,9.62,0.2,17.76
14.99003005027771,19.78,4.81,1.75,20.43
14.991132020950317,18.93,2.79,2.2,19.26
15.006049871444702,16.73,2.39,1.42,16.95
15.007063150405884,15.44,2.73,0.88,15.7
15.023328065872192,15.51,4.76,1.24,16.27
15.024899005889893,16.22,6.25,1.71,17.46
15.038554906845093,12.33,2.85,-0.14,12.65
15.066997051239014,1.19,-0.33,-3.3,3.52
15.068258047103882,-7.8,2.28,-3.79,8.96
15.06925892829895,-6.09,6.82,1.44,9.25
15.089961051940918,0.59,6.86,3.58,7.76
15.091027975082397,3.56,3.26,2.96,5.66
15.106322050094604,6.14,1.06,2.14,6.58
15.107367992401123,7.62,-0.68,0.98,7.71
15.123314142227173,5.67,-0.13,1.17,5.79
15.12480616569519,4.06,0.42,2.96,5.04
15.138520956039429,2.39,-0.86,2.37,3.47
15.169782876968384,1.58,-1.51,1.7,2.76
15.17110800743103,1.39,-1.11,1.67,2.43
15.17212986946106,1.46,-0.24,1.69,2.24
15.189993143081665,1.66,0.43,1.6,2.34
15.191013097763062,1.89,0.43,1.45,2.42
15.206110000610352,1.84,0.06,0.89,2.04
15.207159042358398,1.48,-0.15,0.19,1.49
15.223258972167969,1.02,-0.02,-0.27,1.05
15.224726915359497,0.59,0.05,-0.41,0.72
15.238613843917847,0.24,0.03,-0.21,0.32
15.269803047180176,-0.09,0.08,0.17,0.2
15.271090984344482,-0.07,-0.22,0.25,0.34
15.272154092788696,0.49,-0.1,-0.13,0.51
15.290040969848633,0.77,0.2,-0.75,1.09
15.291116952896118,0.64,0.48,-1.05,1.32
15.306334018707275,0.45,0.51,-0.73,0.99
15.30736517906189,0.46,0.19,-0.39,0.63
15.323402166366577,0.73,-0.07,0.06,0.73
15.324887990951538,0.87,-0.1,0.66,1.09
15.338629007339478,0.68,-0.2,0.58,0.91
15.367687940597534,0.24,-0.21,0.05,0.32
15.369002103805542,-0.01,0.15,-0.11,0.18
15.37000584602356,-0.32,0.26,0.23,0.47
15.390130043029785,-0.53,0.07,0.41,0.67
15.391191959381104,-0.41,-0.22,0.25,0.52
15.406378984451294,-0.2,-0.24,-0.11,0.33
15.407417058944702,-0.23,-0.15,-0.56,0.62
15.423352003097534,-0.36,-0.07,-0.8,0.88
15.424798965454102,-0.61,0.1,-0.64,0.88
15.438611030578613,-1.09,0.26,-0.59,1.26
15.469328165054321,-1.29,0.15,-0.6,1.43
15.470635175704956,-0.94,-0.09,-0.31,0.99
15.471611976623535,-0.38,-0.09,0.2,0.43
15.490111112594604,-0.03,0.27,0.63,0.68
15.491117000579834,0.0,0.49,0.55,0.73
15.50603199005127,0.13,0.58,0.41,0.72
15.507035970687866,0.16,0.44,0.4,0.61
15.52351999282837,0.03,0.2,0.13,0.24
15.525025129318237,0.0,0.05,-0.12,0.13
15.538766145706177,0.15,0.04,-0.22,0.26
15.54023289680481,0.33,0.15,-0.26,0.44
15.588309049606323,0.51,0.16,-0.26,0.59
15.589429140090942,0.5,0.12,-0.13,0.53
15.590390920639038,0.33,0.1,-0.09,0.35
15.60739803314209,0.15,0.07,-0.15,0.22
15.608885049819946,-0.08,0.18,-0.18,0.26
15.623537063598633,-0.41,0.18,-0.28,0.52
15.624930143356323,-0.71,0.22,-0.42,0.85
15.639832973480225,-0.9,0.2,-0.48,1.03
15.64130711555481,-0.97,0.37,-0.58,1.18
15.65545392036438,-1.01,0.42,-0.67,1.28
15.689157009124756,-0.97,0.35,-0.75,1.27
15.690558195114136,-1.12,0.13,-0.82,1.39
15.69156813621521,-1.35,0.36,-0.89,1.65
15.707154989242554,-1.53,0.74,-0.98,1.96
15.708248853683472,-1.57,0.92,-1.09,2.12
15.723748922348022,-1.72,0.87,-1.11,2.22
15.725234985351562,-2.03,0.68,-1.01,2.36
15.740092039108276,-2.3,0.89,-0.7,2.56
15.74155592918396,-2.43,1.49,-0.39,2.87
15.755526065826416,-2.54,2.14,-0.43,3.34
15.788142919540405,-2.65,2.61,-0.53,3.75
15.78943419456482,-2.47,2.61,-0.48,3.62
15.790387868881226,-2.44,2.49,-1.63,3.84
15.807322978973389,-2.54,3.16,-1.82,4.44
15.808397054672241,-1.81,3.26,-1.26,3.93
15.823719024658203,-3.29,3.09,-2.51,5.16
15.82522201538086,-4.81,4.0,-2.84,6.87
15.84037709236145,-5.26,4.27,-3.0,7.4
15.8418550491333,-5.63,4.82,-3.71,8.28
15.855706930160522,-5.92,5.46,-4.52,9.23
15.885993003845215,-5.96,6.07,-4.76,9.74
15.887315034866333,-6.46,6.69,-4.99,10.55
15.888328075408936,-6.8,6.46,-5.18,10.71
15.907059907913208,-6.67,5.7,-4.84,10.02
15.908102035522461,-5.55,4.64,-4.5,8.51
15.92418885231018,-4.1,4.28,-4.33,7.34
15.925222158432007,-3.68,5.19,-4.79,7.96
15.940624952316284,-3.62,7.19,-5.77,9.9
15.942088842391968,-2.51,9.5,-4.9,10.97
15.95569896697998,1.73,13.15,-0.46,13.27
15.986587047576904,3.06,11.11,-0.01,11.52
15.987972021102905,0.0,5.84,-3.0,6.56
15.98898696899414,-3.87,3.34,-5.99,7.87
16.007109880447388,-6.38,1.39,-6.72,9.36
16.00822901725769,-7.9,-2.25,-6.27,10.33
16.023184061050415,-4.8,-5.96,-4.6,8.92
16.024222135543823,1.92,-3.57,-0.85,4.14
16.04057502746582,-0.03,-2.42,0.06,2.42
16.042113065719604,-4.49,-1.98,-1.43,5.11
16.055919885635376,-7.2,-2.1,-2.15,7.8
16.086458921432495,-8.11,-2.85,-1.68,8.75
16.087802171707153,-7.89,-3.58,-1.0,8.72
16.088808059692383,-6.99,-4.34,-0.42,8.23
16.107125997543335,-6.44,-4.91,-0.11,8.09
16.108129024505615,-6.47,-5.04,-0.02,8.2
16.12326216697693,-6.75,-4.88,-0.02,8.32
16.12425684928894,-6.95,-4.59,-0.01,8.32
16.140226125717163,-6.74,-4.23,0.23,7.96
16.141692876815796,-6.14,-3.99,0.45,7.33
16.15550208091736,-5.62,-3.95,0.6,6.89
16.18474316596985,-5.66,-3.9,0.52,6.89
16.18607497215271,-6.17,-3.46,0.21,7.07
16.187132120132446,-6.76,-2.7,0.24,7.28
16.2072970867157,-7.12,-1.88,1.08,7.44
16.208374977111816,-7.01,-0.91,2.05,7.36
16.223422050476074,-6.05,-0.14,1.54,6.24
16.22446894645691,-4.26,-0.06,-0.55,4.29
16.240185976028442,-2.02,0.45,-1.72,2.69
16.24162793159485,0.06,1.54,-0.82,1.74
16.255882024765015,1.61,2.16,0.74,2.79
16.28486704826355,3.03,2.31,1.35,4.04
16.286328077316284,4.3,2.49,1.32,5.14
16.287340879440308,4.82,2.78,0.94,5.64
16.3072030544281,4.96,3.94,0.82,6.38
16.30828595161438,5.33,5.26,0.94,7.54
16.323312044143677,6.12,6.04,1.17,8.67
16.32439112663269,7.75,6.59,1.77,10.32
16.34036898612976,9.8,6.29,2.33,11.87
16.341845989227295,9.71,8.14,2.37,12.89
16.356022119522095,8.01,13.51,1.93,15.82
16.35752296447754,13.98,8.89,0.92,16.59
16.400840997695923,18.48,5.53,2.6,19.46
16.401994943618774,17.84,3.87,2.53,18.42
16.403023958206177,16.48,5.17,2.11,17.4
16.424151182174683,17.37,7.12,2.5,18.93
16.425213098526,19.13,7.28,2.5,20.62
16.440021991729736,18.47,4.87,1.69,19.17
16.44122815132141,11.0,-0.71,-1.4,11.11
16.456845998764038,-1.0,-3.38,-4.55,5.75
16.458291053771973,-8.91,-1.12,-4.2,9.91
16.472634077072144,-6.76,4.25,1.06,8.05
16.504919052124023,0.27,7.98,4.68,9.25
16.50624108314514,7.1,4.84,3.4,9.24
16.507338047027588,9.28,-0.7,2.15,9.55
16.524240970611572,6.78,-0.87,1.81,7.07
16.525304079055786,4.23,-0.49,2.11,4.75
16.539841890335083,2.57,-1.0,1.61,3.19
16.540880918502808,1.34,-1.37,1.57,2.47
16.55731987953186,0.31,-1.1,2.17,2.45
16.558767080307007,-0.15,-0.77,2.88,2.98
16.57270312309265,0.14,-0.42,3.51,3.53
16.603520154953003,0.74,0.1,3.81,3.88
16.604828119277954,1.0,0.07,2.43,2.62
16.605813026428223,1.0,-0.12,0.55,1.14
16.624240159988403,0.97,-0.06,-0.44,1.06
16.62530207633972,1.1,0.27,-0.48,1.23
16.63991093635559,0.99,0.36,-0.32,1.1
16.640958070755005,0.55,0.1,-0.73,0.91
16.657361030578613,0.31,0.04,-1.25,1.28
16.658830881118774,0.49,0.17,-1.31,1.4
16.67280888557434,0.6,0.24,-1.35,1.49
16.703382968902588,0.35,0.1,-1.83,1.86
16.70469307899475,-0.15,0.01,-2.32,2.32
16.705713033676147,-0.43,0.19,-1.76,1.82
16.724205017089844,-0.41,0.32,-0.51,0.72
16.72525191307068,-0.39,0.18,0.44,0.61
16.74012804031372,-0.3,0.07,0.86,0.91
16.741141080856323,-0.18,-0.06,0.88,0.9
16.757380962371826,-0.04,-0.18,0.82,0.84
16.758833169937134,0.23,-0.18,1.05,1.08
16.77278208732605,0.4,-0.05,1.2,1.26
16.802906036376953,0.44,0.1,1.19,1.27
16.804211854934692,0.52,0.2,0.74,0.92
16.805258989334106,0.56,0.15,0.07,0.58
16.82434105873108,0.71,0.02,-0.31,0.77
16.825402975082397,0.77,-0.06,-0.38,0.86
16.840029001235962,0.36,-0.05,-0.39,0.53
16.84109401702881,-0.11,0.06,-0.35,0.37
16.856966018676758,-0.19,0.01,-0.24,0.3
16.858259916305542,0.04,-0.2,-0.1,0.22
16.872689962387085,0.28,-0.24,0.14,0.39
16.900784969329834,0.34,-0.17,0.33,0.5
16.90217614173889,0.18,-0.05,0.41,0.45
16.903146028518677,0.04,0.1,0.57,0.58
16.925113916397095,0.02,0.18,0.56,0.58
16.926037073135376,0.08,0.08,0.4,0.41
16.940376043319702,0.26,0.02,0.2,0.32
16.941428899765015,0.44,0.03,0.12,0.45
16.95748209953308,0.58,-0.01,0.0,0.58
16.95890784263611,0.59,-0.01,-0.17,0.61
16.973366022109985,0.41,0.22,-0.08,0.47
17.003122091293335,0.14,0.49,0.13,0.52
17.00447392463684,-0.17,0.62,0.16,0.66
17.005504846572876,-0.54,0.71,-0.05,0.89
17.02436089515686,-0.96,0.58,-0.33,1.16
17.025430917739868,-1.18,0.3,-0.59,1.35
17.04044795036316,-1.22,0.13,-1.01,1.58
17.04144597053528,-1.29,0.15,-1.44,1.93
17.057459115982056,-1.55,0.25,-1.86,2.43
17.058944940567017,-2.09,0.46,-2.2,3.06
17.072864055633545,-2.94,0.7,-2.38,3.84
17.104174852371216,-3.45,0.88,-2.3,4.23
17.10552406311035,-3.38,1.03,-1.83,3.97
17.106534957885742,-2.75,1.19,-1.38,3.29
17.12454390525818,-2.22,1.33,-1.1,2.81
17.125553846359253,-1.94,1.61,-1.43,2.89
17.140010118484497,-1.66,2.06,-2.19,3.43
17.14101505279541,-1.36,3.14,-3.15,4.65
17.155524969100952,-1.79,4.65,-3.0,5.81
17.15696096420288,-2.12,5.01,-2.49,5.98
17.17217516899109,-2.41,4.79,-2.1,5.75
17.173675060272217,-2.98,5.03,-2.01,6.18
17.220021963119507,-3.72,5.55,-2.05,6.98
17.221192121505737,-4.29,6.1,-2.03,7.72
17.222195863723755,-4.55,6.6,-1.97,8.25
17.2410089969635,-5.14,6.87,-2.41,8.91
17.24201798439026,-5.86,6.61,-3.24,9.4
17.25717806816101,-6.46,6.26,-3.56,9.67
17.258239030838013,-6.73,5.53,-3.87,9.53
17.274034023284912,-6.21,4.24,-4.24,8.63
17.275540113449097,-5.13,3.39,-4.56,7.65
17.28967785835266,-4.01,3.59,-5.09,7.4
17.3193199634552,-2.96,5.43,-4.6,7.7
17.32062315940857,-0.05,7.8,-2.11,8.08
17.32165217399597,5.01,11.01,0.12,12.09
17.341024160385132,3.86,8.7,-1.42,9.62
17.34210991859436,-1.13,3.82,-3.96,5.61
17.35755205154419,-4.74,0.55,-4.96,6.88
17.358596086502075,-6.98,-2.67,-4.71,8.83
17.374207973480225,-5.92,-6.09,-3.95,9.36
17.3756320476532,2.13,-4.6,-1.22,5.21
17.38970398902893,3.19,-2.84,-0.31,4.28
17.418118000030518,-1.8,-2.97,-2.73,4.41
17.41945505142212,-6.08,-2.8,-4.32,7.96
17.420488119125366,-8.26,-3.15,-3.98,9.69
17.441545009613037,-8.61,-3.54,-2.78,9.71
17.442582845687866,-7.86,-4.09,-1.45,8.97
17.457406044006348,-6.84,-4.98,-0.51,8.47
17.45845603942871,-6.27,-5.73,-0.22,8.49
17.474204063415527,-6.31,-5.68,-0.41,8.49
17.475515127182007,-6.5,-5.05,-0.78,8.26
17.4896981716156,-6.58,-4.49,-1.02,8.03
17.520653009414673,-6.46,-4.09,-1.08,7.72
17.521960020065308,-6.13,-3.6,-1.03,7.18
17.522961854934692,-5.71,-2.96,-0.77,6.47
17.54131007194519,-5.37,-2.59,-0.57,5.98
17.542366981506348,-5.27,-2.37,-0.39,5.79
17.557805061340332,-5.34,-1.78,-0.46,5.64
17.559335947036743,-5.38,-1.04,-0.85,5.54
17.57416796684265,-5.02,-0.08,-1.47,5.23
17.575677156448364,-4.12,0.69,-2.48,4.85
17.589800119400024,-2.68,1.35,-3.06,4.28
17.620537042617798,-1.11,1.79,-2.6,3.34
17.621806859970093,0.29,2.03,-1.89,2.78
17.622859001159668,1.14,2.04,-1.33,2.68
17.641156911849976,1.47,2.2,-0.88,2.78
17.642210960388184,1.33,2.78,-0.67,3.15
17.65760111808777,0.94,3.56,-0.56,3.72
17.65869688987732,0.79,4.29,-0.39,4.37
17.67423415184021,1.14,4.9,-0.21,5.03
17.675678968429565,2.0,5.3,-0.12,5.66
17.69015598297119,3.18,5.55,-0.25,6.4
17.720255136489868,4.6,5.91,-0.36,7.49
17.721582174301147,6.4,6.16,-0.45,8.89
17.722568035125732,7.91,5.7,-0.7,9.77
17.741316080093384,8.64,5.13,-0.62,10.06
17.742330074310303,9.42,4.99,-0.11,10.66
17.756559133529663,10.39,4.21,0.47,11.22
17.757622003555298,10.58,2.75,1.41,11.02
17.77448797225952,9.64,1.88,2.4,10.11
17.775981187820435,8.75,1.61,3.11,9.42
17.78981614112854,7.83,2.27,3.54,8.88
17.817919969558716,6.48,4.9,3.79,8.96
17.82004714012146,6.5,4.4,4.08,8.84
17.821043968200684,7.41,3.6,4.29,9.28
17.84116816520691,8.32,3.32,3.84,9.74
17.842209100723267,8.78,3.07,3.22,9.84
17.857553005218506,8.53,3.13,2.67,9.47
17.858587980270386,7.4,3.73,2.08,8.54
17.874635934829712,4.62,3.28,0.69,5.7
17.876094102859497,-2.04,2.15,-1.73,3.43
17.890844106674194,-6.78,3.2,-1.76,7.7
17.91974401473999,-3.43,3.31,1.25,4.92
17.92118000984192,1.61,0.5,1.34,2.15
17.922203063964844,4.22,-0.29,-0.36,4.24
17.941410064697266,4.41,1.46,-0.95,4.74
17.942461013793945,6.1,5.79,1.34,8.51
17.957793951034546,10.89,4.81,2.32,12.12
17.958822011947632,9.93,-0.06,1.69,10.07
17.9747211933136,5.27,-1.06,2.73,6.02
17.97620415687561,3.35,-2.43,2.75,4.96
17.989961862564087,2.79,-3.01,1.77,4.46
17.99139404296875,2.23,-1.5,1.39,3.02
18.035513162612915,1.86,0.17,1.7,2.52
18.036656141281128,1.78,0.48,2.59,3.17
18.037657022476196,1.57,0.33,3.07,3.46
18.058107137680054,0.61,0.13,1.68,1.79
18.059117078781128,0.01,-0.05,0.82,0.82
18.07480502128601,0.3,-0.24,0.31,0.49
18.07628107070923,0.64,-0.19,-0.67,0.94
18.09119486808777,0.79,0.02,-1.18,1.42
18.09262204170227,1.14,0.17,-1.18,1.64
18.106559991836548,1.24,0.19,-1.47,1.93
18.13903784751892,1.02,0.1,-1.48,1.8
18.140323877334595,0.59,0.04,-0.96,1.12
18.141308069229126,0.27,0.14,-0.36,0.47
18.158403158187866,0.17,0.26,0.09,0.32
18.159471035003662,0.16,0.25,0.23,0.37
18.174651861190796,0.16,0.1,0.08,0.2
18.176008939743042,0.21,0.04,0.03,0.21
18.191105127334595,0.3,0.09,0.25,0.4
18.19250512123108,0.46,0.04,0.4,0.61
18.205756902694702,0.55,-0.11,0.4,0.68
18.236631155014038,0.49,-0.14,0.28,0.58
18.237938165664673,0.4,-0.02,0.3,0.5
18.238898038864136,0.36,-0.02,0.24,0.43
18.25802206993103,0.28,-0.1,0.01,0.29
18.2590069770813,0.17,-0.1,0.06,0.2
18.274015188217163,0.09,-0.12,0.12,0.19
18.27499794960022,-0.01,-0.03,0.12,0.12
18.29122805595398,-0.11,0.16,0.03,0.19
18.292678117752075,-0.09,0.18,0.05,0.2
18.306424856185913,-0.1,0.11,-0.08,0.16
18.336867094039917,-0.08,0.01,-0.1,0.12
18.33875584602356,-0.16,0.04,-0.16,0.22
18.33975386619568,-0.18,0.09,-0.3,0.36
18.35866904258728,-0.07,0.07,-0.32,0.33
18.359663009643555,-0.14,0.05,-0.24,0.28
18.374388933181763,-0.41,0.05,-0.12,0.43
18.375320196151733,-0.45,0.13,0.13,0.48
18.391376972198486,-0.33,0.25,0.47,0.62
18.392807960510254,-0.12,0.31,0.51,0.6
18.406967878341675,0.14,0.3,0.33,0.46
18.43639302253723,0.3,0.24,0.0,0.38
18.437716960906982,0.3,0.2,-0.48,0.6
18.438708066940308,0.13,0.32,-0.35,0.49
18.458456993103027,-0.25,0.54,-0.19,0.62
18.459513902664185,-0.67,0.64,0.24,0.95
18.474092960357666,-1.08,0.64,0.45,1.33
18.475066900253296,-1.26,0.76,0.19,1.48
18.4913010597229,-1.28,0.79,-0.28,1.53
18.492801904678345,-1.59,0.65,-0.98,1.97
18.50671887397766,-1.94,0.67,-1.35,2.45
18.537431955337524,-1.93,0.64,-1.47,2.5
18.538702964782715,-1.81,0.66,-1.5,2.44
18.539686918258667,-1.81,1.08,-1.63,2.66
18.558315992355347,-1.7,1.86,-1.79,3.09
18.559355974197388,-1.76,3.1,-1.65,3.92
18.573956966400146,-1.7,4.05,-1.1,4.52
18.57496190071106,-1.93,4.39,-1.01,4.9
18.591506958007812,-2.53,4.18,-1.35,5.06
18.592975854873657,-2.95,3.88,-1.54,5.11
18.606786966323853,-3.37,3.6,-1.7,5.21
18.637399911880493,-4.11,3.59,-2.14,5.86
18.63887596130371,-4.79,3.91,-2.44,6.64
18.63989496231079,-5.4,4.37,-2.97,7.55
18.65851616859436,-6.0,4.73,-3.63,8.45
18.659586191177368,-6.33,5.17,-3.95,9.07
18.673940896987915,-6.39,5.28,-4.18,9.28
18.674962997436523,-6.07,4.72,-4.19,8.75
18.691211938858032,-5.76,4.12,-4.12,8.19
18.692673921585083,-4.94,3.65,-3.73,7.18
18.706796884536743,-3.65,3.05,-3.52,5.91
18.737164974212646,-2.66,3.95,-3.24,5.75
18.73852300643921,-2.57,5.8,-3.21,7.1
18.739542961120605,-1.56,7.4,-2.52,7.97
18.75828719139099,2.25,10.13,-0.99,10.42
18.75936484336853,2.31,9.03,-2.28,9.59
18.774178981781006,-0.92,6.3,-3.71,7.36
18.77548909187317,-3.75,3.96,-4.5,7.07
18.79191517829895,-5.77,0.75,-4.6,7.41
18.79338812828064,-7.52,-2.71,-4.19,9.02
18.80684804916382,-5.61,-6.86,-3.8,9.64
18.80831789970398,2.48,-3.98,-1.19,4.83
18.855622053146362,2.54,-2.18,-0.65,3.4
18.856801986694336,-2.69,-2.46,-2.68,4.52
18.857805013656616,-7.09,-2.35,-3.76,8.36
18.877095937728882,-9.45,-2.81,-3.04,10.31
18.87856698036194,-10.02,-3.36,-1.6,10.68
18.89163303375244,-9.17,-3.94,-0.17,9.98
18.89312505722046,-7.96,-4.51,0.81,9.18
18.90827703475952,-7.14,-5.04,1.24,8.82
18.909745931625366,-6.96,-5.17,1.0,8.72
18.923918962478638,-7.13,-4.79,0.55,8.6
18.95751118659973,-7.23,-4.21,0.36,8.37
18.958872079849243,-7.08,-3.66,0.5,7.98
18.959882020950317,-6.67,-3.29,0.83,7.48
18.975361108779907,-6.13,-2.88,1.24,6.88
18.976356029510498,-5.76,-2.34,1.33,6.35
18.99147605895996,-5.74,-1.6,0.59,5.98
18.992886066436768,-5.48,-0.67,-0.63,5.55
19.008308172225952,-4.23,0.33,-1.57,4.52
19.009709119796753,-2.45,1.01,-1.83,3.22
19.023834943771362,-0.82,1.29,-1.8,2.36
19.056094884872437,0.44,1.45,-1.54,2.16
19.057425022125244,1.49,1.78,-1.14,2.58
19.058418035507202,2.39,2.34,-0.81,3.44
19.075320959091187,2.49,2.82,-0.54,3.8
19.0763840675354,1.73,3.37,0.06,3.78
19.09120798110962,0.83,4.24,0.84,4.4
19.092239141464233,0.65,4.88,1.56,5.16
19.10839295387268,1.24,5.39,2.24,5.96
19.109870195388794,2.29,5.64,2.19,6.46
19.123651027679443,3.45,5.75,1.78,6.93
19.15438485145569,4.52,6.02,1.47,7.67
19.155719995498657,5.32,5.98,0.79,8.04
19.156788110733032,4.46,9.34,0.6,10.36
19.175134897232056,4.83,9.8,0.66,10.94
19.176154851913452,10.48,3.83,0.92,11.19
19.19127607345581,13.73,2.21,2.0,14.04
19.19229292869568,12.87,2.8,1.92,13.31
19.208373069763184,11.6,3.59,2.02,12.3
19.20984196662903,11.4,3.87,2.51,12.29
19.223923921585083,11.81,4.11,2.68,12.78
19.253321886062622,12.11,3.87,2.11,12.88
19.25472092628479,11.93,2.99,1.16,12.35
19.255736112594604,11.88,2.5,0.44,12.14
19.27525305747986,12.38,2.12,0.38,12.56
19.276334047317505,10.26,0.14,-0.83,10.29
19.29125714302063,3.12,-0.55,-2.65,4.13
19.292309999465942,-3.86,1.12,-3.01,5.02
19.308440923690796,-5.3,3.85,-0.49,6.56
19.309909105300903,-1.37,5.87,1.0,6.11
19.324095964431763,1.8,5.88,1.43,6.31
19.35447406768799,5.81,4.98,1.53,7.8
19.3557288646698,7.7,0.09,0.85,7.74
19.356737852096558,4.24,-0.95,0.74,4.4
19.37540888786316,1.72,0.03,2.52,3.05
19.376445055007935,0.88,-1.7,3.05,3.6
19.39134907722473,1.13,-3.17,3.09,4.56
19.39241909980774,2.08,-2.06,3.33,4.43
19.408108949661255,2.74,-0.19,2.61,3.78
19.409574031829834,3.0,0.55,1.7,3.49
19.424197912216187,2.9,0.31,0.56,2.96
19.456648111343384,2.46,-0.12,-0.19,2.47
19.457975149154663,2.01,-0.11,-0.15,2.01
19.45895504951477,1.23,0.13,0.25,1.26
19.47564196586609,0.13,0.19,0.34,0.41
19.476651906967163,-0.59,0.44,0.25,0.77
19.49161696434021,-0.85,0.67,0.06,1.08
19.492653131484985,-0.8,0.52,-0.54,1.09
19.50849413871765,-0.19,0.22,-0.89,0.93
19.509958028793335,0.88,-0.06,-0.43,0.98
19.52418303489685,1.36,-0.24,-0.29,1.41
19.553969144821167,1.22,-0.14,-0.35,1.27
19.555341005325317,0.79,-0.01,-0.17,0.8
19.556320905685425,0.56,0.06,-0.01,0.56
19.576474905014038,0.38,0.07,0.19,0.43
19.577512979507446,0.21,-0.01,0.19,0.28
19.591279983520508,0.1,0.04,0.28,0.3
19.59225296974182,0.09,0.31,0.27,0.42
19.608853101730347,0.11,0.46,-0.26,0.53
19.61028003692627,0.12,0.34,-0.55,0.65
19.62407398223877,0.15,0.12,-0.54,0.57
19.62552285194397,0.19,-0.12,-0.33,0.39
19.669679880142212,0.17,-0.26,-0.29,0.42
19.67085599899292,0.15,-0.16,-0.28,0.35
19.67184805870056,0.09,0.01,-0.45,0.45
19.691980123519897,-0.07,0.01,-0.49,0.49
19.692946195602417,-0.19,-0.04,-0.22,0.29
19.708038091659546,-0.1,-0.21,0.06,0.24
19.709033012390137,0.0,-0.38,0.38,0.53
19.725406885147095,-0.12,-0.26,0.33,0.43
19.726895093917847,-0.2,-0.03,0.13,0.24
19.740679025650024,-0.06,0.09,0.03,0.11
19.77005100250244,0.14,0.0,-0.04,0.14
19.7714741230011,0.33,-0.19,-0.07,0.38
19.772444009780884,0.26,-0.33,-0.07,0.42
19.791954040527344,0.16,-0.17,0.18,0.29
19.792948007583618,0.2,0.08,0.59,0.62
19.808016061782837,0.21,0.33,0.84,0.92
19.809015035629272,0.14,0.41,1.0,1.08
19.8252010345459,0.09,0.32,1.0,1.05
19.82657504081726,-0.03,0.24,0.63,0.67
19.840609073638916,-0.18,0.17,0.12,0.27
19.870540857315063,-0.4,0.26,-0.22,0.52
19.87188696861267,-0.65,0.48,-0.53,0.96
19.87288784980774,-0.82,0.56,-0.79,1.26
19.892089128494263,-1.0,0.46,-1.19,1.62
19.893115997314453,-1.43,0.42,-1.55,2.15
19.907809019088745,-1.78,0.33,-1.38,2.27
19.908889055252075,-1.9,0.53,-1.11,2.26
19.925341844558716,-2.07,0.72,-1.05,2.43
19.92683506011963,-2.28,0.89,-1.14,2.7
19.94072198867798,-2.23,0.99,-1.21,2.72
19.96904706954956,-1.84,1.23,-1.25,2.54
19.97030997276306,-1.32,1.79,-1.18,2.51
19.97134518623352,-1.46,2.96,-1.16,3.49
19.99250102043152,-1.7,3.96,-1.63,4.6
19.993574857711792,-2.03,3.86,-2.36,4.95
20.00841498374939,-2.53,3.43,-2.43,4.9
20.00943684577942,-2.82,3.16,-2.27,4.8
20.025580167770386,-3.07,3.1,-2.33,4.94
20.02706217765808,-3.35,3.12,-2.5,5.21
20.040771007537842,-3.71,3.38,-2.68,5.68
20.0713210105896,-4.13,4.08,-2.46,6.3
20.072625875473022,-4.5,4.64,-2.44,6.9
20.073575019836426,-4.81,4.64,-2.86,7.26
20.0919349193573,-5.31,4.64,-3.06,7.68
20.09287405014038,-5.8,4.41,-2.73,7.78
20.10848116874695,-5.67,3.86,-2.93,7.45
20.109533071517944,-5.01,3.29,-3.03,6.71
20.125527143478394,-4.02,2.64,-2.94,5.63
20.127014875411987,-3.34,2.61,-3.56,5.53
20.140783071517944,-3.41,3.71,-3.69,6.24
20.170459985733032,-3.57,5.1,-3.26,7.02
20.171851873397827,-2.61,6.41,-2.71,7.43
20.172876119613647,1.16,9.29,-1.71,9.51
20.192118883132935,2.04,10.27,-2.68,10.8
20.193156957626343,-0.93,7.78,-3.58,8.61
20.207886934280396,-3.32,5.45,-3.98,7.52
20.2089421749115,-4.53,2.79,-4.11,6.72
20.225672006607056,-5.74,-0.81,-4.49,7.33
20.227125883102417,-6.29,-5.36,-4.7,9.5
20.24089002609253,-0.44,-5.47,-3.11,6.3
20.270133018493652,4.39,-2.16,-1.03,4.99
20.27160096168518,0.14,-2.51,-1.9,3.15
20.272593021392822,-5.03,-2.87,-3.22,6.62
20.29213786125183,-8.47,-3.16,-2.96,9.51
20.293182134628296,-9.49,-3.51,-1.67,10.25
20.308603048324585,-9.21,-3.98,-0.27,10.03
20.30962300300598,-8.51,-4.76,0.6,9.76
20.32561206817627,-8.1,-5.48,0.77,9.8
20.327090978622437,-7.75,-5.6,0.61,9.58
20.34086799621582,-7.21,-5.15,0.48,8.87
20.369466066360474,-6.69,-4.6,0.47,8.13
20.37079906463623,-6.33,-4.19,0.3,7.59
20.371625185012817,-6.06,-3.82,0.14,7.16
20.392331838607788,-5.92,-3.31,0.22,6.78
20.393418073654175,-5.71,-2.67,0.21,6.3
20.408663988113403,-5.32,-2.05,-0.28,5.7
20.409693956375122,-4.55,-1.2,-1.11,4.83
20.425708055496216,-3.16,-0.55,-1.83,3.69
20.427128076553345,-1.33,-0.17,-2.38,2.73
20.44029402732849,0.32,0.27,-2.24,2.27
20.441689014434814,1.27,0.88,-1.37,2.06
20.486940145492554,1.62,1.37,-0.59,2.2
20.48811411857605,1.91,2.22,-0.04,2.92
20.489123106002808,2.06,3.21,0.24,3.82
20.508965969085693,1.92,4.06,0.47,4.51
20.510021924972534,1.91,4.98,0.85,5.4
20.525262117385864,2.32,5.78,1.11,6.32
20.526313066482544,2.9,6.1,0.78,6.79
20.542180061340332,3.58,6.5,0.33,7.42
20.543678045272827,4.78,7.09,0.27,8.55
20.557678937911987,6.15,6.97,0.18,9.29
20.587745904922485,7.54,6.32,0.48,9.85
20.589110136032104,8.93,5.73,0.98,10.65
20.590144872665405,9.63,4.78,1.55,10.86
20.609044075012207,9.17,4.05,2.22,10.26
20.610085010528564,8.2,3.18,3.01,9.29
20.624372005462646,7.53,2.43,3.79,8.77
20.625400066375732,7.2,2.07,4.21,8.59
20.64220690727234,7.0,2.17,4.14,8.41
20.64366102218628,6.86,2.26,3.72,8.12
20.65794587135315,6.55,2.01,3.24,7.57
20.688018083572388,5.25,4.24,3.25,7.49
20.689282178878784,4.69,6.86,2.93,8.81
20.690114974975586,6.78,3.75,2.22,8.05
20.708954095840454,9.02,2.31,2.9,9.75
20.71001887321472,9.28,0.51,2.4,9.59
20.72554612159729,6.41,-1.23,0.99,6.6
20.726588010787964,-0.33,-1.02,-1.37,1.73
20.74242615699768,-6.87,1.62,-2.52,7.49
20.743953943252563,-6.18,4.54,-0.1,7.66
20.75787615776062,0.0,3.58,1.6,3.92
20.78608012199402,3.58,0.35,1.0,3.73
20.787482023239136,4.52,0.55,0.45,4.57
20.7883460521698,4.19,3.42,0.53,5.43
20.809180974960327,3.25,5.21,1.26,6.26
20.810173988342285,5.08,4.54,1.16,6.91
20.825679063796997,5.71,0.25,0.29,5.72
20.826714992523193,3.5,-0.23,1.44,3.79
20.84329605102539,2.95,-0.54,3.3,4.45
20.844323873519897,3.21,-1.75,3.36,4.96
20.858232021331787,4.26,-1.64,2.82,5.36
20.886616945266724,4.68,-0.27,1.52,4.92
20.88779902458191,3.68,0.54,0.01,3.71
20.888646841049194,1.8,0.19,-0.79,1.97
20.90896701812744,0.08,-0.22,-0.74,0.77
20.91006302833557,-0.65,-0.02,0.31,0.72
20.925623178482056,-0.76,0.18,1.28,1.49
20.926684141159058,-0.88,0.12,1.46,1.7
20.94213318824768,-1.06,-0.05,0.9,1.39
20.94318985939026,-0.95,-0.02,0.26,0.98
20.957890033721924,-0.46,0.02,-0.14,0.48
20.987143993377686,0.05,-0.05,-0.71,0.71
20.98852515220642,0.71,-0.08,-0.99,1.22
20.989423990249634,1.4,-0.05,-1.0,1.72
21.00928807258606,1.62,0.11,-0.8,1.81
21.010343074798584,1.2,0.23,-0.41,1.28
21.025722980499268,0.37,0.07,-0.16,0.4
21.02677893638611,-0.13,-0.02,0.12,0.17
21.04227900505066,-0.23,-0.07,0.58,0.62
21.04337191581726,-0.17,0.02,1.06,1.07
21.058112859725952,-0.15,0.07,0.86,0.87
21.088237047195435,-0.06,0.03,0.38,0.38
21.089439153671265,0.11,0.05,0.23,0.25
21.09025001525879,0.28,0.02,0.27,0.38
21.10939908027649,0.48,-0.09,0.11,0.5
21.11046600341797,0.61,-0.13,-0.07,0.62
21.125324010849,0.58,-0.12,-0.11,0.6
21.126363039016724,0.37,-0.07,-0.08,0.38
21.142141103744507,0.09,0.0,0.01,0.09
21.143501043319702,-0.11,0.11,0.03,0.15
21.158201932907104,-0.32,0.22,0.01,0.38
21.18797206878662,-0.38,0.24,-0.08,0.45
21.189269065856934,-0.45,0.3,-0.21,0.58
21.19025707244873,-0.44,0.29,-0.3,0.6
21.209376096725464,-0.27,0.24,-0.29,0.46
21.21044898033142,-0.04,0.22,-0.21,0.3
21.225664854049683,-0.09,0.16,-0.36,0.4
21.22675919532776,-0.35,0.04,-0.48,0.59
21.242442846298218,-0.6,0.12,-0.42,0.74
21.24390697479248,-0.88,0.25,-0.32,0.96
21.257678031921387,-1.14,0.4,-0.28,1.24
21.259140014648438,-0.94,0.53,-0.06,1.08
21.304639101028442,-0.78,0.47,0.04,0.91
21.30581307411194,-0.94,0.29,-0.14,0.99
21.306817054748535,-0.95,0.19,-0.35,1.03
21.326366186141968,-0.83,0.23,-0.46,0.97
21.327432870864868,-0.88,0.36,-0.65,1.15
21.342007875442505,-1.07,0.47,-0.77,1.39
21.343250036239624,-1.23,0.51,-1.0,1.66
21.35967206954956,-1.55,0.58,-1.31,2.11
21.361114978790283,-1.36,0.79,-1.31,2.04
21.37462592124939,-0.91,1.0,-1.32,1.88
21.407047986984253,-0.55,1.18,-1.52,2.0
21.40836000442505,-0.43,1.69,-1.54,2.32
21.409374952316284,-0.97,2.88,-1.09,3.22
21.426460027694702,-1.68,4.34,-0.74,4.71
21.427522897720337,-2.13,3.92,-1.57,4.72
21.44213104248047,-2.18,4.07,-0.78,4.68
21.443121194839478,-2.7,3.82,-1.0,4.78
21.459444999694824,-3.35,3.77,-1.39,5.23
21.460903882980347,-3.7,3.71,-1.7,5.5
21.474699020385742,-4.06,4.05,-2.39,6.21
21.50556707382202,-4.46,4.45,-3.15,7.04
21.50688600540161,-4.75,4.48,-3.5,7.4
21.50789189338684,-5.26,4.44,-3.82,7.87
21.526381015777588,-5.78,4.49,-3.96,8.32
21.527480840682983,-5.89,4.01,-3.93,8.13
21.542155981063843,-5.72,3.22,-3.9,7.63
21.543218851089478,-5.04,2.93,-3.84,6.98
21.55941605567932,-4.11,3.28,-3.74,6.45
21.560839891433716,-3.57,4.43,-3.56,6.71
21.574854135513306,-3.19,5.58,-3.63,7.38
21.605018854141235,-2.22,7.18,-3.58,8.32
21.606399059295654,0.84,9.58,-3.33,10.17
21.607435941696167,2.19,10.29,-4.2,11.32
21.626731157302856,-0.6,7.49,-4.81,8.92
21.62776494026184,-2.88,4.63,-5.12,7.47
21.642433881759644,-4.18,2.22,-5.29,7.09
21.64350390434265,-5.34,-1.36,-5.68,7.91
21.659656047821045,-5.26,-5.86,-5.63,9.68
21.66114592552185,1.62,-4.44,-3.43,5.83
21.675039052963257,5.64,-1.86,-1.64,6.16
21.704583883285522,0.69,-2.59,-3.03,4.04
21.705955028533936,-4.71,-3.27,-4.87,7.52
21.706971883773804,-8.29,-3.67,-4.95,10.32
21.726327180862427,-10.04,-3.75,-3.5,11.27
21.727358102798462,-10.65,-3.91,-1.21,11.4
21.742279052734375,-10.53,-4.32,0.98,11.42
21.74336886405945,-10.37,-4.62,1.9,11.51
21.75943684577942,-9.98,-4.31,1.85,11.02
21.760881185531616,-9.27,-3.75,1.8,10.16
21.77499508857727,-8.17,-3.22,1.48,8.9
21.803220987319946,-6.82,-2.99,0.87,7.49
21.80449414253235,-5.94,-2.86,0.41,6.6
21.805492162704468,-5.47,-2.36,0.08,5.95
21.82875084877014,-5.18,-1.93,-0.32,5.53
21.829816102981567,-4.69,-1.44,-0.75,4.96
21.84216618537903,-3.66,-1.06,-1.05,3.95
21.84319496154785,-2.28,-0.85,-1.25,2.73
21.859124898910522,-1.02,-0.7,-1.54,1.97
21.860594987869263,-0.21,-0.33,-1.29,1.34
21.873996019363403,0.18,0.16,-0.63,0.67
21.90087389945984,0.56,0.78,0.12,0.96
21.90226101875305,0.81,1.31,0.85,1.75
21.903155088424683,0.58,1.68,1.64,2.41
21.90515899658203,0.1,2.22,2.75,3.53
21.92613196372986,-0.19,2.81,3.72,4.66
21.927202939987183,-0.03,3.52,3.93,5.27
21.942561864852905,0.74,4.35,3.43,5.58
21.943599939346313,1.83,5.03,2.31,5.82
21.95815896987915,3.26,6.05,1.5,7.03
21.95919108390808,5.18,6.9,1.08,8.69
22.001342058181763,7.16,7.03,0.66,10.05
22.00252103805542,8.83,7.1,0.6,11.34
22.003895044326782,10.27,6.84,0.81,12.36
22.00624918937683,10.64,7.08,1.23,12.83
22.00773787498474,9.6,9.42,1.69,13.55
22.009234189987183,12.69,4.7,1.41,13.6
22.01042604446411,14.38,3.54,2.8,15.07
22.011616945266724,13.75,2.39,3.22,14.32
22.012804985046387,12.65,2.25,2.58,13.1
22.013957023620605,12.12,2.5,2.11,12.55
22.015125036239624,11.81,2.45,1.65,12.17
22.035226106643677,11.33,2.68,1.62,11.75
22.0362331867218,10.08,2.23,1.19,10.39
22.036915063858032,4.25,0.01,-1.12,4.39
22.03922390937805,-4.43,-0.22,-3.11,5.41
22.040416955947876,-8.3,2.68,-1.61,8.86
22.041549921035767,-3.24,4.22,2.31,5.8
22.042639017105103,2.67,1.86,2.16,3.9
22.043668031692505,5.15,1.93,0.83,5.56
22.046401023864746,3.89,3.66,0.78,5.39
22.056649923324585,2.31,3.18,0.88,4.02
22.078951120376587,3.11,1.89,0.63,3.69
22.07977318763733,2.88,-0.51,0.67,3.0
22.085855960845947,1.9,-0.68,1.75,2.67
22.096287965774536,1.75,-1.55,2.61,3.5
22.106197118759155,1.8,-1.9,2.11,3.36
22.1161470413208,2.15,-1.16,1.51,2.87
22.125881910324097,2.16,-0.23,0.75,2.29
22.13586115837097,1.94,0.23,-0.18,1.96
22.145737886428833,2.28,0.23,-0.4,2.32
22.156026124954224,2.81,0.08,0.24,2.82
22.183722972869873,2.05,-0.15,1.01,2.29
22.18475890159607,0.43,-0.06,1.2,1.27
22.1858229637146,-0.26,0.04,1.12,1.15
22.195624113082886,-0.41,0.1,0.54,0.68
22.20909094810486,-0.42,0.2,-0.28,0.54
22.215084075927734,-0.13,0.2,-0.48,0.53
22.22615694999695,0.41,0.03,-0.19,0.45
22.23535704612732,0.93,-0.16,-0.31,0.99
22.244943857192993,1.09,-0.04,-0.61,1.24
22.255200147628784,1.04,-0.02,-0.38,1.1
22.284169912338257,0.86,-0.09,0.06,0.86
22.285202980041504,0.64,-0.07,0.37,0.74
22.28625512123108,0.53,0.01,0.41,0.67
22.29474186897278,0.51,0.08,0.47,0.69
22.30960488319397,0.67,0.07,0.51,0.84
22.314573049545288,0.69,-0.02,0.4,0.79
22.326092004776,0.38,-0.1,0.51,0.64
22.334648847579956,0.12,0.0,0.66,0.67
22.3443660736084,0.2,0.04,0.36,0.41
22.354408025741577,0.37,0.07,-0.01,0.37
22.390439987182617,0.35,0.06,-0.24,0.42
22.391401052474976,0.16,0.05,-0.43,0.46
22.392191171646118,-0.19,0.13,-0.42,0.47
22.41031813621521,-0.37,0.23,-0.19,0.47
22.411254167556763,-0.27,0.15,0.0,0.3
22.425745964050293,-0.06,-0.08,0.12,0.15
22.42680811882019,-0.03,-0.1,0.17,0.19
22.442600965499878,-0.21,0.07,0.17,0.27
22.44355297088623,-0.38,0.25,-0.02,0.45
22.458768129348755,-0.42,0.33,-0.14,0.55
22.492225885391235,-0.3,0.28,-0.28,0.49
22.493502855300903,-0.17,0.12,-0.14,0.25
22.494529008865356,-0.06,0.0,-0.1,0.11
22.495563983917236,0.23,0.01,-0.1,0.25
22.50305700302124,0.41,0.2,0.14,0.47
22.51334309577942,0.44,0.25,0.17,0.53
22.5232150554657,0.37,0.19,-0.06,0.42
22.533174991607666,0.17,0.04,-0.25,0.3
22.54315996170044,-0.15,-0.04,-0.43,0.45
22.552805185317993,-0.44,0.07,-0.66,0.79
22.591016054153442,-0.51,0.34,-0.59,0.85
22.59237003326416,-0.54,0.7,-0.35,0.95
22.593338012695312,-0.76,0.91,-0.22,1.2
22.610188961029053,-0.98,0.93,-0.21,1.36
22.6112859249115,-1.07,0.88,-0.25,1.4
22.62598204612732,-1.26,0.78,-0.44,1.54
22.627037048339844,-1.55,0.61,-0.69,1.8
22.642627000808716,-1.94,0.78,-0.8,2.23
22.64370107650757,-2.1,1.38,-0.94,2.68
22.658769845962524,-2.04,1.5,-1.72,3.06
22.688377141952515,-1.89,1.98,-1.55,3.14
22.68951916694641,-1.75,2.45,-1.37,3.3
22.690366983413696,-1.84,2.72,-1.54,3.62
22.709989070892334,-2.07,3.08,-1.55,4.02
22.711025953292847,-2.41,3.25,-1.85,4.44
22.726386070251465,-2.65,3.1,-2.21,4.63
22.72744917869568,-2.9,2.95,-2.54,4.85
22.742547035217285,-3.25,3.06,-2.74,5.23
22.743592977523804,-3.76,3.59,-3.05,6.02
22.758858919143677,-4.5,4.47,-3.47,7.22
22.761296033859253,-4.91,5.05,-3.74,7.97
22.804049968719482,-5.22,5.11,-3.93,8.29
22.80525302886963,-5.43,4.98,-4.0,8.38
22.80620002746582,-5.49,4.41,-4.15,8.17
22.827998876571655,-5.13,3.81,-4.1,7.59
22.829053163528442,-4.08,3.44,-3.94,6.63
22.840929985046387,-2.59,3.39,-3.54,5.54
22.84240198135376,-1.87,3.85,-3.48,5.51
22.86031413078308,-1.17,4.79,-3.18,5.86
22.86180090904236,0.43,6.58,-1.89,6.85
22.875530004501343,3.99,8.99,-1.27,9.91
22.907989978790283,2.36,7.11,-3.48,8.26
22.909395933151245,-1.38,4.02,-4.79,6.4
22.91041588783264,-4.05,1.51,-4.55,6.27
22.927151918411255,-6.01,-1.05,-3.86,7.21
22.928210973739624,-6.66,-3.27,-3.14,8.05
22.942739009857178,-0.83,-4.47,-2.63,5.25
22.943770170211792,2.79,-2.98,-1.76,4.44
22.960137128829956,-0.88,-3.23,-2.4,4.11
22.961636066436768,-5.31,-2.81,-3.75,7.08
22.975735902786255,-8.37,-2.58,-3.94,9.6
23.006696939468384,-9.45,-2.9,-2.94,10.31
23.007981061935425,-8.91,-3.35,-1.28,9.6
23.0089750289917,-7.59,-3.92,0.12,8.54
23.02728295326233,-6.64,-4.55,0.75,8.08
23.02837586402893,-6.55,-4.76,0.71,8.12
23.042957067489624,-7.02,-4.21,0.45,8.19
23.043954133987427,-7.42,-3.47,0.17,8.19
23.059956073760986,-7.45,-2.92,0.02,8.0
23.061402082443237,-7.12,-2.55,0.06,7.56
23.075499057769775,-6.66,-2.26,0.19,7.03
23.105661153793335,-6.41,-1.84,0.21,6.67
23.106971979141235,-6.21,-1.32,0.06,6.34
23.10795307159424,-5.81,-0.82,-0.41,5.88
23.12713885307312,-4.98,-0.24,-1.07,5.09
23.128201961517334,-3.9,0.3,-1.74,4.28
23.14299702644348,-2.88,0.79,-2.31,3.77
23.14405608177185,-1.88,1.26,-2.53,3.39
23.159906148910522,-0.89,1.62,-2.34,2.98
23.16123604774475,0.03,1.85,-2.21,2.88
23.17555594444275,0.81,2.08,-2.16,3.1
23.204033136367798,1.42,2.5,-2.06,3.53
23.20529007911682,1.67,3.0,-1.91,3.92
23.206253051757812,1.58,3.62,-1.76,4.32
23.227691888809204,1.59,4.4,-1.54,4.92
23.22867703437805,1.94,5.02,-1.19,5.51
23.243319988250732,2.5,5.38,-0.9,6.0
23.244383096694946,3.42,5.56,-0.76,6.57
23.260599851608276,4.69,5.43,-0.69,7.2
23.262062072753906,5.97,4.95,-0.7,7.78
23.27590799331665,7.04,4.45,-0.63,8.35
23.306217908859253,7.61,3.83,-0.54,8.53
23.307536840438843,7.42,3.3,0.04,8.12
23.3084819316864,7.32,3.11,1.05,8.02
23.327533960342407,7.76,2.57,1.85,8.38
23.3285870552063,8.07,1.94,2.54,8.67
23.34313416481018,7.82,1.58,2.97,8.51
23.34416890144348,7.26,1.28,2.85,7.9
23.360265016555786,6.77,1.09,2.92,7.45
23.361736059188843,6.95,1.29,3.44,7.86
23.375590085983276,7.62,1.24,3.35,8.41
23.40644907951355,8.17,1.16,3.0,8.78
23.407752990722656,6.93,3.75,2.52,8.27
23.40877413749695,5.58,7.15,2.21,9.33
23.427322149276733,7.69,4.15,1.73,8.9
23.42837691307068,10.33,3.0,3.31,11.25
23.44323205947876,10.75,1.54,3.94,11.55
23.44448208808899,7.76,0.21,3.13,8.37
23.4603168964386,0.27,-0.34,0.3,0.52
23.461758852005005,-7.96,1.31,-1.97,8.3
23.475820064544678,-8.31,4.16,0.0,9.29
23.505675077438354,-1.0,2.91,1.57,3.45
23.50734305381775,4.29,0.51,0.65,4.36
23.50837206840515,6.02,2.41,-0.08,6.48
23.52722716331482,5.45,5.03,0.63,7.44
23.52827286720276,5.46,5.14,1.47,7.64
23.541779041290283,7.14,2.29,0.93,7.55
23.542800188064575,5.73,0.13,1.28,5.87
23.560662031173706,4.11,-0.24,3.39,5.33
23.56209707260132,3.36,-1.45,3.13,4.81
23.575947046279907,3.14,-1.78,1.62,3.95
23.57743501663208,2.49,-1.0,0.18,2.68
23.62266707420349,1.45,0.19,-0.38,1.51
23.623850107192993,0.73,0.58,-0.58,1.09
23.62486505508423,0.61,-0.08,-0.4,0.73
23.64385485649109,0.84,-0.33,0.51,1.03
23.64489507675171,0.56,-0.07,1.35,1.46
23.66022801399231,-0.31,0.01,1.16,1.2
23.661696195602417,-0.88,-0.04,0.18,0.89
23.67697310447693,-0.76,-0.01,-0.51,0.91
23.678436994552612,-0.18,0.09,-0.71,0.73
23.69248604774475,0.43,0.22,-0.93,1.04
23.72403311729431,0.82,0.08,-1.12,1.39
23.725308179855347,1.06,0.03,-0.96,1.43
23.72628903388977,1.02,0.07,-0.35,1.08
23.743828058242798,0.78,-0.03,0.22,0.81
23.744914054870605,0.56,-0.06,0.52,0.76
23.760099172592163,0.31,-0.01,0.63,0.7
23.761122941970825,0.08,0.11,0.73,0.74
23.776736974716187,0.04,0.12,0.73,0.74
23.777884006500244,0.04,0.07,0.45,0.45
23.793179988861084,-0.03,0.06,0.21,0.22
23.824392080307007,0.11,-0.05,0.11,0.16
23.825656175613403,0.6,-0.2,0.34,0.71
23.8266441822052,1.17,-0.2,0.43,1.26
23.843775033950806,1.36,-0.15,0.38,1.42
23.844785928726196,1.18,-0.18,0.25,1.21
23.860188961029053,0.94,-0.2,0.19,0.97
23.861247062683105,0.7,-0.23,0.48,0.87
23.876986980438232,0.54,-0.15,0.87,1.03
23.878458976745605,0.3,-0.02,0.94,0.98
23.89258599281311,-0.19,0.04,1.0,1.01
23.92357301712036,-0.55,0.01,0.54,0.77
23.92490792274475,-0.57,0.1,-0.35,0.67
23.92593216896057,-0.3,0.15,-0.79,0.85
23.943719148635864,-0.13,0.16,-0.72,0.74
23.944766998291016,-0.27,0.25,-0.47,0.59
23.960405111312866,-0.36,0.5,-0.4,0.73
23.961452960968018,-0.49,0.63,-0.57,0.98
23.97722315788269,-0.83,0.42,-1.06,1.41
23.978709936141968,-1.11,0.39,-1.41,1.83
23.99270796775818,-1.35,0.6,-1.56,2.14
24.022905111312866,-1.53,0.67,-1.85,2.49
24.024919033050537,-1.79,0.5,-1.92,2.67
24.025884866714478,-1.86,0.36,-1.82,2.62
24.043941974639893,-1.84,0.51,-1.4,2.36
24.044965982437134,-2.21,0.55,-1.23,2.58
24.060035943984985,-2.68,0.63,-1.11,2.96
24.06107497215271,-2.85,0.87,-1.38,3.28
24.077219009399414,-2.64,1.2,-1.84,3.43
24.078707933425903,-2.34,1.48,-2.26,3.57
24.09274697303772,-2.01,1.94,-3.04,4.12
24.124337911605835,-1.96,2.46,-4.46,5.45
24.12558913230896,-1.51,3.09,-4.11,5.35
24.126595973968506,-1.08,4.57,-2.51,5.32
24.143967866897583,-1.96,6.13,-0.39,6.44
24.145032167434692,-3.62,5.24,-0.54,6.39
24.160410165786743,-4.61,5.62,-0.24,7.27
24.161458015441895,-4.96,5.57,-0.26,7.46
24.17736315727234,-4.97,5.48,-0.54,7.41
24.17883610725403,-4.99,5.1,-0.7,7.16
24.192638158798218,-5.35,4.66,-1.46,7.24
24.222316026687622,-5.85,4.33,-2.2,7.6
24.223731994628906,-5.76,3.05,-2.65,7.03
24.224740982055664,-5.08,2.66,-3.23,6.58
24.243815183639526,-4.67,3.37,-4.19,7.12
24.244896173477173,-4.22,4.19,-4.53,7.47
24.260289907455444,-3.19,4.41,-4.11,6.82
24.261346101760864,-1.85,4.71,-3.64,6.23
24.27707600593567,0.9,7.04,-2.32,7.46
24.27853298187256,3.49,9.89,-1.89,10.65
24.29276704788208,0.51,6.47,-3.78,7.51
24.322506189346313,-3.62,2.69,-5.28,6.94
24.323961973190308,-6.23,0.53,-5.11,8.07
24.324985027313232,-7.49,-1.67,-4.47,8.88
24.344216108322144,-6.49,-4.97,-3.96,9.08
24.345249891281128,0.61,-4.05,-1.83,4.48
24.36030888557434,3.25,-2.52,-0.74,4.17
24.361354112625122,-0.9,-2.73,-2.08,3.54
24.37739109992981,-4.99,-2.43,-3.86,6.76
24.37890601158142,-7.87,-2.63,-3.91,9.17
24.392802000045776,-8.95,-3.0,-2.81,9.84
24.394293069839478,-8.27,-3.43,-1.49,9.07
24.440680027008057,-6.92,-3.93,-0.67,7.98
24.441850900650024,-5.91,-4.28,-0.41,7.3
24.442867040634155,-5.37,-4.35,-0.5,6.92
24.461276054382324,-5.04,-4.15,-0.62,6.55
24.462296962738037,-4.79,-3.88,-0.68,6.2
24.47722315788269,-4.67,-3.71,-0.48,5.98
24.478693962097168,-4.7,-3.44,-0.06,5.82
24.494232892990112,-4.87,-3.0,0.52,5.74
24.495733976364136,-5.19,-2.32,0.97,5.76
24.50955104827881,-5.42,-1.71,0.79,5.73
24.541620016098022,-5.2,-1.29,-0.05,5.35
24.543395042419434,-4.35,-0.61,-0.49,4.41
24.544404983520508,-3.13,0.06,-0.46,3.16
24.561130046844482,-1.93,0.31,-0.29,1.97
24.562177896499634,-1.07,0.44,0.16,1.16
24.577417135238647,-0.75,0.74,0.83,1.34
24.57888388633728,-0.7,1.24,1.36,1.96
24.59418797492981,-0.65,1.92,1.55,2.55
24.595667123794556,-0.54,2.63,1.71,3.18
24.60948896408081,-0.45,3.1,2.12,3.78
24.640154123306274,-0.35,3.51,2.4,4.26
24.64148497581482,0.0,4.08,2.48,4.77
24.642508029937744,0.8,4.79,2.51,5.46
24.660940885543823,2.14,5.35,2.28,6.19
24.66197896003723,3.96,5.75,1.8,7.21
24.6771559715271,5.92,5.94,1.32,8.48
24.678214073181152,7.7,5.78,1.04,9.68
24.694254159927368,8.74,5.37,0.93,10.29
24.695775032043457,8.84,5.52,0.94,10.46
24.709616899490356,7.23,10.47,1.89,12.86
24.74082589149475,10.05,6.58,1.59,12.11
24.74230694770813,13.6,3.33,2.84,14.28
24.743293046951294,13.13,3.55,4.15,14.22
24.761762857437134,11.51,3.66,3.83,12.67
24.762759923934937,11.04,3.64,3.89,12.25
24.77844500541687,11.52,3.03,3.59,12.44
24.779489994049072,11.67,2.38,2.84,12.24
24.794816970825195,11.21,2.51,1.78,11.62
24.796269178390503,10.7,3.4,0.77,11.25
24.809749841690063,6.79,1.37,-1.64,7.11
24.83968997001648,-1.86,0.79,-3.35,3.91
24.841022968292236,-7.24,3.48,-1.87,8.24
24.842058897018433,-3.88,3.52,2.27,5.7
24.861232042312622,0.68,-0.66,2.83,2.98
24.862308979034424,3.43,-1.13,2.38,4.32
24.8770911693573,4.34,2.12,1.91,5.19
24.878143072128296,3.47,4.11,1.83,5.68
24.894291162490845,6.39,5.53,1.56,8.59
24.895740032196045,7.42,1.11,0.53,7.52
24.9096839427948,4.25,0.8,1.75,4.66
24.939613103866577,1.94,0.18,3.03,3.6
24.94094491004944,1.83,-1.07,2.35,3.16
24.941954851150513,2.68,-1.46,1.62,3.45
24.96119713783264,2.52,-0.9,0.85,2.8
24.962270975112915,1.87,0.16,0.32,1.9
24.97704291343689,1.03,0.62,-0.02,1.2
24.97808003425598,0.32,0.2,-0.44,0.57
24.994245052337646,0.31,-0.11,-0.27,0.42
24.995715856552124,0.53,-0.1,0.23,0.58
25.009918928146362,0.31,0.07,0.22,0.38
25.04069209098816,-0.38,0.04,0.14,0.4
25.041975021362305,-0.75,-0.15,0.16,0.78
25.043070077896118,-0.64,-0.11,-0.01,0.64
25.06125807762146,-0.41,-0.01,-0.33,0.52
25.062308073043823,-0.2,0.04,-0.71,0.73
25.06333899497986,0.02,0.03,-0.84,0.84
25.064815044403076,0.3,0.1,-0.64,0.71
25.066158056259155,0.38,0.28,-0.42,0.63
25.06775403022766,0.18,0.26,-0.18,0.36
25.06933093070984,-0.06,0.07,-0.02,0.09
25.096446990966797,-0.06,-0.03,0.21,0.22
25.097503900527954,0.06,0.05,0.45,0.45
25.09833598136902,0.06,0.17,0.54,0.56
25.11066508293152,-0.07,0.21,0.45,0.5
25.11332106590271,-0.07,0.06,0.43,0.43
25.12707209587097,0.28,-0.1,0.39,0.49
25.13339591026306,0.72,-0.09,0.21,0.75
25.143697023391724,0.84,-0.01,0.04,0.84
25.153422117233276,0.54,0.02,-0.17,0.56
25.163361072540283,0.11,0.01,-0.23,0.25
25.17326307296753,-0.17,0.07,-0.18,0.25
25.201605081558228,-0.06,0.1,-0.07,0.13
25.202640056610107,0.12,0.05,0.09,0.15
25.203635931015015,0.11,0.05,0.19,0.22
25.21268606185913,0.17,0.13,0.27,0.34
25.222849130630493,0.24,0.17,0.26,0.39
25.232462167739868,0.21,0.11,0.21,0.31
25.242735147476196,0.19,0.05,0.15,0.24
25.252599000930786,0.18,0.0,0.08,0.19
25.262475967407227,0.13,0.09,0.06,0.16
25.272492170333862,0.02,0.2,0.0,0.2
25.301677942276,-0.08,0.18,-0.1,0.22
25.302720069885254,-0.26,0.16,-0.07,0.31
25.303817987442017,-0.52,0.2,-0.1,0.56
25.31196403503418,-0.67,0.37,-0.16,0.78
25.321953058242798,-0.72,0.49,-0.5,1.0
25.3316490650177,-0.82,0.41,-0.86,1.25
25.342045068740845,-0.92,0.25,-0.71,1.18
25.35208296775818,-0.93,0.26,-0.36,1.03
25.361732006072998,-1.15,0.38,-0.23,1.23
25.371603965759277,-1.6,0.44,-0.47,1.72
25.402979135513306,-2.14,0.47,-0.9,2.36
25.403970956802368,-2.42,0.65,-1.25,2.8
25.405111074447632,-2.21,0.89,-1.39,2.75
25.410964012145996,-1.46,0.96,-1.22,2.13
25.42108416557312,-1.05,0.84,-1.27,1.84
25.431307077407837,-0.94,0.76,-1.42,1.86
25.441249132156372,-0.76,0.92,-1.33,1.78
25.45120406150818,-0.91,1.83,-1.05,2.29
25.46097207069397,-1.36,2.9,-0.87,3.31
25.471193075180054,-1.6,3.27,-0.6,3.68
25.50261402130127,-1.92,3.79,-0.42,4.26
25.503637075424194,-2.43,3.72,-1.26,4.61
25.504711866378784,-2.42,3.43,-2.0,4.64
25.510190963745117,-2.25,3.16,-2.19,4.45
25.528228998184204,-2.62,3.1,-2.27,4.65
25.53035616874695,-3.47,3.32,-2.47,5.4
25.54420804977417,-4.16,3.68,-2.67,6.16
25.55018901824951,-4.9,4.28,-3.01,7.16
25.560009002685547,-5.54,4.63,-3.27,7.92
25.57028317451477,-5.9,4.53,-3.28,8.12
25.607455015182495,-6.04,4.07,-3.64,8.14
25.608777046203613,-5.87,3.67,-4.18,8.08
25.609769105911255,-5.23,3.16,-4.11,7.36
25.62881302833557,-4.4,3.28,-3.76,6.65
25.62985110282898,-3.99,3.82,-3.79,6.69
25.644031047821045,-3.94,4.3,-3.87,6.99
25.64505100250244,-3.28,5.55,-3.66,7.41
25.660969972610474,-0.95,8.08,-2.41,8.48
25.662034034729004,2.85,10.75,-1.22,11.18
25.67673087120056,0.92,7.77,-2.8,8.31
25.706126928329468,-2.73,5.13,-4.5,7.34
25.707530975341797,-4.99,3.53,-5.22,8.03
25.70841383934021,-6.62,0.75,-5.32,8.52
25.727914094924927,-7.46,-2.88,-4.8,9.32
25.728918075561523,-2.81,-3.21,-3.17,5.31
25.74415898323059,3.44,-0.58,-1.66,3.86
25.745206117630005,0.69,-1.18,-1.91,2.34
25.762104034423828,-4.59,-1.5,-3.13,5.75
25.76345992088318,-8.66,-1.61,-3.53,9.48
25.77707600593567,-10.72,-1.84,-2.31,11.11
25.805105924606323,-10.93,-2.34,-0.53,11.19
25.80653214454651,-9.73,-3.04,1.04,10.24
25.80755114555359,-8.47,-3.94,1.95,9.54
25.828529119491577,-7.74,-4.45,1.92,9.13
25.82956099510193,-7.22,-4.42,1.35,8.57
25.844423055648804,-6.51,-4.15,0.84,7.76
25.84546685218811,-5.82,-3.98,0.44,7.06
25.861536979675293,-5.35,-3.87,0.29,6.6
25.863008975982666,-5.13,-3.5,0.39,6.22
25.87723708152771,-5.11,-3.06,0.45,5.97
25.906366109848022,-5.13,-2.49,0.17,5.7
25.90766406059265,-4.87,-1.71,-0.58,5.19
25.908682107925415,-3.89,-0.71,-1.5,4.22
25.92811608314514,-2.21,0.06,-2.0,2.98
25.92917513847351,-0.59,0.25,-2.28,2.36
25.944337129592896,0.4,0.37,-2.0,2.07
25.945378065109253,0.74,0.73,-0.98,1.42
25.961379051208496,1.04,1.54,0.2,1.86
25.96285891532898,0.83,2.24,1.08,2.62
25.976850032806396,-0.05,2.98,1.62,3.39
25.97834086418152,-0.78,4.14,1.97,4.65
26.021612882614136,-0.66,5.38,1.98,5.77
26.02276110649109,0.73,6.14,1.25,6.3
26.02376699447632,3.03,6.18,0.27,6.88
26.045233011245728,5.5,5.96,-0.47,8.12
26.046231031417847,7.4,5.65,-1.16,9.38
26.057160139083862,8.69,5.29,-1.86,10.34
26.05812096595764,10.15,5.0,-1.94,11.47
26.074012994766235,11.36,3.98,-1.69,12.15
26.075011014938354,11.15,2.71,-1.08,11.52
26.09213614463806,9.76,1.85,-0.47,9.94
26.12161898612976,8.61,1.45,0.63,8.75
26.1230309009552,9.03,1.76,1.91,9.39
26.124054193496704,10.21,1.38,2.05,10.5
26.144920110702515,10.66,1.01,1.81,10.85
26.14598798751831,10.34,0.97,1.75,10.53
26.161132097244263,10.06,0.69,1.96,10.27
26.162206888198853,9.87,0.18,2.12,10.09
26.178030014038086,9.59,-0.12,2.07,9.81
26.179556131362915,7.02,5.48,2.58,9.27
26.193770170211792,6.78,7.22,1.97,10.09
26.222795963287354,10.05,3.47,2.21,10.85
26.224102020263672,10.07,-0.65,3.23,10.59
26.225061178207397,2.63,-2.23,1.9,3.93
26.244781017303467,-8.01,1.7,0.18,8.19
26.24583101272583,-11.19,6.46,0.61,12.93
26.26125693321228,-3.39,6.53,0.77,7.39
26.262297868728638,3.38,3.95,-0.81,5.26
26.278038024902344,5.37,4.14,-0.49,6.79
26.27952790260315,5.84,3.98,0.4,7.07
26.29380488395691,3.31,1.15,0.8,3.59
26.32216715812683,1.62,0.9,1.19,2.2
26.323591947555542,2.93,-0.03,1.86,3.47
26.32460618019104,4.11,-2.22,2.57,5.33
26.345088005065918,5.43,-1.63,3.11,6.46
26.346155881881714,5.62,-0.92,2.02,6.04
26.361454963684082,4.84,0.07,1.15,4.97
26.36251401901245,3.62,0.66,0.6,3.72
26.378165006637573,2.12,0.37,-0.08,2.15
26.379677057266235,0.9,-0.13,-0.34,0.97
26.3936710357666,0.21,-0.17,-0.37,0.45
26.423051118850708,0.05,0.13,-0.04,0.14
26.42442011833191,-0.26,0.36,0.1,0.45
26.425400972366333,-0.8,0.3,-0.16,0.86
26.444852113723755,-1.0,0.1,-0.19,1.02
26.44592308998108,-0.68,-0.06,-0.22,0.71
26.461469888687134,-0.04,-0.2,-0.3,0.36
26.462559938430786,0.51,-0.33,-0.62,0.86
26.478075981140137,0.78,-0.14,-0.75,1.09
26.47955584526062,0.86,0.11,-0.69,1.1
26.493937015533447,0.67,0.09,-0.55,0.87
26.523032903671265,0.5,0.06,-0.18,0.53
26.524296045303345,0.25,0.02,0.01,0.25
26.52512288093567,0.02,0.01,0.17,0.17
26.54498600959778,0.0,0.09,0.22,0.23
26.546061038970947,0.11,0.15,0.13,0.22
26.561429977416992,0.22,0.22,-0.02,0.31
26.562541007995605,0.31,0.2,-0.21,0.42
26.578450918197632,0.36,0.04,-0.16,0.39
26.579918146133423,0.33,0.1,0.33,0.47
26.581939935684204,0.08,0.28,0.53,0.6
26.607617139816284,-0.28,0.33,0.33,0.54
26.608720064163208,-0.24,0.25,0.15,0.37
26.609529972076416,0.0,0.11,0.08,0.13
26.627660036087036,-0.11,0.04,-0.17,0.2
26.628688097000122,-0.29,0.02,-0.35,0.45
26.64428400993347,-0.43,0.17,-0.17,0.49
26.645276069641113,-0.4,0.26,-0.21,0.52
26.661494970321655,-0.24,0.24,-0.16,0.37
26.66251802444458,-0.09,0.16,-0.24,0.3
26.676822900772095,-0.14,0.08,-0.34,0.37
26.707776069641113,-0.33,0.12,-0.28,0.44
26.70909810066223,-0.41,0.19,-0.34,0.56
26.710126161575317,-0.53,0.22,-0.28,0.63
26.72863793373108,-0.76,0.25,-0.33,0.86
26.72970414161682,-0.77,0.34,-0.31,0.89
26.7452290058136,-0.64,0.35,-0.14,0.74
26.746227025985718,-0.55,0.28,0.17,0.64
26.762228965759277,-0.29,0.18,0.47,0.58
26.763706922531128,-0.06,0.02,0.74,0.74
26.777365922927856,0.03,0.0,0.86,0.86
26.781357049942017,-0.01,0.13,0.72,0.73
26.823173999786377,-0.13,0.13,0.49,0.52
26.824377059936523,-0.29,0.25,0.34,0.51
26.825401067733765,-0.61,0.44,0.05,0.75
26.845402002334595,-0.9,0.5,-0.24,1.05
26.84645104408264,-0.95,0.42,-0.29,1.07
26.86172318458557,-0.98,0.39,-0.39,1.12
26.86320400238037,-1.02,0.57,-0.42,1.24
26.878607034683228,-0.93,1.01,-0.71,1.54
26.880101919174194,-0.96,1.31,-1.24,2.04
26.893826961517334,-1.47,1.78,-1.54,2.77
26.925073862075806,-1.7,2.37,-1.46,3.26
26.92637610435486,-1.96,2.26,-1.37,3.29
26.92736506462097,-2.34,2.47,-1.19,3.6
26.945078134536743,-2.89,3.08,-1.41,4.45
26.946177005767822,-3.14,3.67,-1.97,5.21
26.96153712272644,-2.76,3.47,-2.55,5.11
26.962594032287598,-2.56,3.31,-2.87,5.07
26.97855496406555,-2.95,3.49,-2.73,5.32
26.9800021648407,-3.45,3.61,-2.51,5.58
26.99375605583191,-3.97,3.7,-2.51,5.97
27.02274489402771,-4.41,3.9,-2.44,6.37
27.024161100387573,-4.61,4.17,-2.19,6.59
27.025148153305054,-4.69,4.29,-2.15,6.7
27.04549288749695,-4.98,4.25,-2.54,7.02
27.046545028686523,-5.26,4.2,-2.82,7.29
27.061690092086792,-5.16,3.89,-3.26,7.23
27.06269907951355,-5.32,3.92,-4.05,7.75
27.078817129135132,-5.96,4.84,-4.23,8.76
27.080343008041382,-5.84,6.03,-4.03,9.31
27.094127893447876,-4.32,7.19,-3.64,9.14
27.121427059173584,-1.33,9.73,-1.69,9.96
27.122833013534546,2.68,11.93,0.77,12.25
27.123728036880493,1.71,8.27,-0.1,8.44
27.125745058059692,-1.98,4.9,-3.08,6.11
27.12825298309326,-5.03,3.0,-5.09,7.75
27.138362169265747,-6.77,0.86,-5.04,8.48
27.148546934127808,-7.42,-2.93,-4.48,9.14
27.158429861068726,-3.85,-6.82,-3.3,8.49
27.16831398010254,3.37,-3.14,-0.88,4.68
27.178056001663208,2.03,-1.76,-1.11,2.9
27.213178873062134,-3.5,-2.42,-3.14,5.28
27.214155912399292,-7.91,-2.38,-4.05,9.19
27.21498417854309,-9.98,-2.34,-3.31,10.77
27.22917103767395,-10.2,-2.38,-1.8,10.62
27.230239152908325,-9.28,-2.7,-0.54,9.67
27.244855165481567,-8.03,-3.58,0.26,8.79
27.247463941574097,-7.33,-4.09,0.64,8.41
27.261658906936646,-6.92,-4.04,0.64,8.03
27.267307996749878,-6.54,-3.84,0.37,7.59
27.27751612663269,-6.19,-3.51,0.25,7.12
27.314892053604126,-5.95,-2.91,0.54,6.64
27.316272974014282,-5.88,-2.34,0.74,6.37
27.317310094833374,-5.65,-1.95,0.63,6.01
27.32885193824768,-5.05,-1.77,0.11,5.35
27.32990288734436,-4.26,-1.42,-0.75,4.55
27.344972848892212,-3.49,-0.81,-1.58,3.91
27.346617937088013,-2.69,-0.06,-2.04,3.37
27.362088918685913,-1.63,0.62,-2.15,2.76
27.366724014282227,-0.19,1.29,-1.58,2.04
27.377429962158203,1.36,1.9,-0.91,2.5
27.41407299041748,2.13,1.99,-0.73,3.0
27.41540503501892,1.91,2.23,-0.63,3.0
27.416215181350708,1.59,3.08,-0.21,3.47
27.429538011550903,2.19,4.25,-0.2,4.78
27.43058204650879,4.02,5.05,-1.06,6.54
27.444962978363037,6.53,5.27,-2.06,8.64
27.445987939834595,8.85,5.16,-2.8,10.62
27.461629152297974,10.25,4.6,-3.53,11.77
27.465795040130615,10.89,4.06,-4.03,12.3
27.477391004562378,11.15,3.61,-3.49,12.22
27.512593030929565,11.0,3.49,-1.58,11.64
27.51403784751892,10.75,2.97,-0.25,11.15
27.51503586769104,10.18,2.39,1.0,10.5
27.52920699119568,9.22,2.15,2.3,9.74
27.530300855636597,8.16,1.93,3.51,9.09
27.54472517967224,6.98,1.64,4.66,8.55
27.545759916305542,6.03,1.83,5.87,8.61
27.562342882156372,4.84,5.4,6.54,9.76
27.56510090827942,5.22,7.31,6.7,11.2
27.576807975769043,7.87,5.17,6.38,11.37
27.585004091262817,10.12,4.12,6.42,12.67
27.620563983917236,11.03,2.52,5.54,12.59
27.621763944625854,10.48,0.71,3.54,11.08
27.622812032699585,6.25,-0.68,-0.21,6.29
27.62571096420288,-2.14,-0.44,-3.71,4.3
27.634708166122437,-6.82,4.29,-3.14,8.64
27.644713163375854,-1.32,6.92,0.7,7.07
27.654475927352905,4.21,4.91,1.08,6.55
27.664507150650024,5.47,4.56,0.37,7.13
27.67441487312317,4.08,4.85,1.13,6.43
27.684431076049805,2.95,2.59,1.56,4.22
27.716197967529297,3.66,1.53,1.39,4.2
27.71754288673401,3.09,-1.71,1.3,3.76
27.718544960021973,1.91,-1.75,2.59,3.66
27.730710983276367,1.83,-1.46,2.9,3.72
27.733862161636353,2.37,-1.31,2.22,3.5
27.74447512626648,3.18,-0.43,2.12,3.84
27.753962993621826,3.63,0.49,1.72,4.04
27.763606071472168,3.66,0.65,1.11,3.87
27.773980855941772,3.16,0.24,0.49,3.2
27.783607959747314,2.08,-0.21,-0.09,2.09
27.81490707397461,1.05,-0.3,-0.19,1.1
27.816188097000122,0.28,-0.04,0.15,0.32
27.817230939865112,-0.39,0.29,0.51,0.7
27.829041957855225,-0.92,0.43,0.61,1.18
27.833089113235474,-1.22,0.32,0.11,1.26
27.84284496307373,-1.22,0.17,-0.57,1.35
27.852931022644043,-0.8,0.17,-1.04,1.32
27.86277198791504,-0.37,0.08,-1.09,1.15
27.873141050338745,-0.09,-0.1,-1.1,1.1
27.883002042770386,0.37,-0.13,-0.85,0.93
27.91607904434204,0.64,-0.08,-0.57,0.86
27.917351961135864,0.64,0.03,-0.51,0.81
27.918161153793335,0.43,0.05,-0.48,0.64
27.929179906845093,0.34,0.01,0.01,0.34
27.932265043258667,0.38,-0.07,0.67,0.77
27.943916082382202,0.44,-0.13,0.91,1.01
27.952049016952515,0.54,-0.01,0.86,1.01
27.96198606491089,0.48,0.03,0.43,0.64
27.972007036209106,0.38,0.1,0.26,0.47
27.98230504989624,0.33,0.18,0.25,0.45
28.019190073013306,0.28,0.13,0.11,0.32
28.020583868026733,0.15,0.06,-0.2,0.25
28.021491050720215,-0.06,0.0,-0.63,0.63
28.025209188461304,0.04,-0.01,-0.55,0.55
28.045310020446777,0.03,0.13,0.09,0.16
28.046353101730347,-0.25,0.22,0.2,0.38
28.061959981918335,-0.48,0.13,0.05,0.49
28.06298804283142,-0.53,0.11,0.18,0.57
28.07791495323181,-0.43,0.16,0.32,0.55
28.08134698867798,-0.29,0.16,0.3,0.44
28.12030601501465,-0.19,0.09,0.1,0.23
28.12150001525879,-0.13,0.06,-0.1,0.17
28.12274718284607,-0.07,0.14,-0.23,0.27
28.125010013580322,-0.14,0.25,-0.22,0.36
28.145159006118774,-0.13,0.25,-0.2,0.34
28.14612889289856,-0.09,0.2,-0.1,0.24
28.16193985939026,-0.02,0.12,-0.02,0.12
28.162978887557983,0.04,0.06,0.19,0.2
28.17751908302307,-0.08,0.16,0.37,0.41
28.18062710762024,-0.36,0.33,0.37,0.61
28.22065496444702,-0.48,0.32,0.25,0.62
28.221855878829956,-0.53,0.29,-0.03,0.6
28.223068952560425,-0.82,0.24,-0.42,0.95
28.22537899017334,-1.06,0.19,-0.85,1.37
28.24547791481018,-1.09,0.08,-1.18,1.6
28.246526956558228,-0.9,0.16,-1.12,1.44
28.261884927749634,-0.72,0.43,-0.92,1.24
28.262896060943604,-0.82,0.61,-0.85,1.32
28.277759075164795,-1.05,0.7,-0.87,1.53
28.279831171035767,-1.17,0.77,-0.78,1.6
28.320221185684204,-1.32,0.94,-0.68,1.75
28.321433067321777,-1.42,1.19,-0.6,1.94
28.32264804840088,-1.48,1.47,-0.6,2.17
28.325038194656372,-1.63,1.96,-0.98,2.73
28.34534001350403,-2.41,2.95,-1.67,4.15
28.346391916275024,-1.82,3.58,-1.35,4.23
28.362006902694702,-1.61,2.87,-1.53,3.62
28.363013982772827,-2.01,2.83,-1.56,3.8
28.378031969070435,-2.55,2.63,-1.55,3.97
28.379539966583252,-2.99,2.61,-1.85,4.37
28.394026041030884,-3.44,2.87,-2.39,5.07
28.42333197593689,-3.89,3.25,-2.55,5.67
28.42478919029236,-4.17,3.59,-2.51,6.04
28.425811052322388,-4.66,3.89,-2.66,6.62
28.446057081222534,-5.35,4.12,-2.9,7.34
28.447137117385864,-5.89,4.19,-3.12,7.87
28.462268114089966,-6.08,3.93,-3.24,7.93
28.463315963745117,-6.03,3.45,-3.08,7.59
28.479187965393066,-5.57,2.64,-3.32,7.0
28.480655908584595,-4.95,2.63,-3.51,6.61
28.49470019340515,-4.59,3.22,-3.47,6.59
28.523524045944214,-4.27,3.64,-3.57,6.65
28.524955987930298,-4.02,4.46,-4.26,7.36
28.52595019340515,-3.48,5.89,-4.11,7.98
28.54607105255127,-0.71,8.42,-1.75,8.62
28.547109842300415,2.08,9.04,0.21,9.27
28.56275200843811,0.48,5.25,-1.08,5.38
28.564234018325806,-1.79,4.22,-3.33,5.66
28.578745126724243,-3.0,3.95,-4.62,6.77
28.580201864242554,-3.45,2.25,-4.72,6.26
28.594608068466187,-4.41,-1.73,-4.41,6.47
28.623821020126343,-3.74,-5.13,-3.31,7.15
28.625695943832397,1.87,-1.59,-1.58,2.91
28.626713037490845,0.06,-1.52,-1.69,2.27
28.645827054977417,-4.58,-2.1,-3.57,6.17
28.646846055984497,-8.16,-1.78,-4.66,9.56
28.662620067596436,-10.18,-1.89,-4.02,11.1
28.6640841960907,-10.37,-2.25,-2.55,10.91
28.679045915603638,-8.91,-3.05,-1.13,9.48
28.680495977401733,-7.17,-4.01,-0.05,8.21
28.694443941116333,-6.15,-4.45,0.43,7.6
28.724019050598145,-5.6,-4.26,0.25,7.04
28.725433111190796,-5.22,-4.14,-0.4,6.67
28.726423025131226,-4.99,-4.11,-0.82,6.51
28.745978116989136,-4.87,-3.74,-0.65,6.17
28.74699902534485,-4.91,-3.24,-0.09,5.88
28.76235795021057,-5.0,-2.88,0.51,5.79
28.763352155685425,-5.0,-2.71,0.64,5.72
28.77917504310608,-4.77,-2.31,0.08,5.3
28.780615091323853,-4.2,-1.6,-0.54,4.52
28.794792890548706,-3.24,-1.08,-0.74,3.49
28.823570013046265,-2.06,-0.77,-0.73,2.31
28.824944019317627,-0.76,-0.22,-0.65,1.02
28.825937032699585,0.42,0.43,-0.51,0.78
28.845965147018433,1.07,1.12,-0.26,1.57
28.84703302383423,1.19,2.08,0.12,2.39
28.86284899711609,1.14,3.1,0.45,3.33
28.864362955093384,1.27,3.86,0.7,4.12
28.879271030426025,1.99,4.74,0.8,5.2
28.880733013153076,3.28,5.61,0.24,6.5
28.8947651386261,5.15,6.59,-0.45,8.37
28.924269914627075,7.52,7.41,-0.93,10.59
28.925699949264526,9.68,7.51,-1.14,12.3
28.92672610282898,11.18,6.88,-0.8,13.15
28.94617199897766,11.75,5.9,-0.06,13.14
28.947221994400024,11.44,4.77,1.01,12.43
28.962707996368408,10.45,3.7,1.89,11.24
28.964190006256104,9.71,2.84,2.46,10.41
28.97946000099182,9.54,2.16,3.13,10.27
28.98093008995056,9.33,1.84,3.76,10.22
28.994795083999634,8.76,1.84,4.03,9.81
29.022541999816895,7.92,2.6,4.03,9.25
29.023921966552734,5.76,7.72,4.17,10.49
29.02495002746582,6.21,6.72,3.45,9.77
29.02720618247986,8.8,4.71,4.3,10.86
29.034022092819214,10.18,2.95,4.67,11.58
29.044156074523926,8.19,1.17,3.64,9.03
29.05412793159485,1.44,0.31,0.45,1.54
29.064179182052612,-7.64,2.4,-1.73,8.19
29.07390809059143,-7.21,6.87,1.42,10.05
29.084051847457886,0.6,5.16,3.89,6.48
29.120021104812622,4.61,0.42,3.21,5.63
29.121366024017334,5.23,0.04,2.13,5.64
29.122366189956665,4.04,2.61,1.39,5.0
29.125788927078247,2.6,3.6,0.4,4.45
29.145672082901,1.34,1.69,-0.15,2.16
29.146651029586792,2.17,1.95,0.69,2.99
29.162256002426147,4.84,1.22,1.1,5.11
29.16324496269226,4.64,-0.87,1.05,4.83
29.17814803123474,3.5,-0.27,1.71,3.9
29.183147192001343,2.57,0.12,2.09,3.31
29.194409132003784,2.54,-0.12,1.53,2.96
29.22528100013733,2.48,-0.5,0.61,2.6
29.226634979248047,2.01,-0.33,-0.03,2.03
29.2276451587677,1.36,-0.05,-0.22,1.37
29.246006965637207,0.77,0.0,-0.09,0.77
29.247048139572144,0.25,-0.01,0.3,0.39
29.262930154800415,-0.05,0.11,0.71,0.72
29.264400005340576,-0.2,0.13,0.76,0.79
29.27963900566101,-0.38,-0.05,0.51,0.63
29.282433032989502,-0.44,-0.21,0.13,0.5
29.294941186904907,-0.26,-0.19,-0.17,0.36
29.324336051940918,0.28,0.0,-0.29,0.4
29.325741052627563,0.93,0.14,-0.5,1.06
29.326778173446655,1.3,0.2,-0.7,1.48
29.346224069595337,1.35,0.29,-0.76,1.57
29.347283124923706,1.05,0.15,-0.77,1.31
29.36237907409668,0.61,-0.01,-0.65,0.89
29.363455057144165,0.28,-0.07,-0.42,0.5
29.379809141159058,0.21,-0.04,-0.09,0.23
29.38161587715149,0.32,-0.12,0.34,0.48
29.395081996917725,0.38,-0.09,0.68,0.78
29.42301106452942,0.31,-0.06,0.84,0.89
29.424419164657593,0.08,-0.13,0.92,0.93
29.425415992736816,-0.01,-0.26,0.8,0.84
29.446413040161133,0.07,-0.22,0.52,0.56
29.447487115859985,0.02,0.06,0.39,0.39
29.46260905265808,-0.1,0.18,0.41,0.45
29.463625192642212,-0.11,0.14,0.32,0.36
29.479822874069214,-0.06,0.06,0.1,0.13
29.48130202293396,0.0,-0.02,0.08,0.08
29.495310068130493,0.01,0.02,0.18,0.18
29.52330183982849,-0.07,0.07,0.15,0.17
29.52464199066162,-0.02,0.12,0.09,0.15
29.52551007270813,0.08,0.2,-0.1,0.23
29.546476125717163,0.13,0.17,-0.27,0.34
29.547506093978882,0.4,0.08,0.03,0.4
29.56292200088501,0.67,0.09,0.31,0.74
29.563978910446167,0.57,0.15,0.08,0.59
29.579631090164185,0.23,0.23,-0.44,0.54
29.581083059310913,-0.13,0.26,-0.94,0.98
29.595444917678833,-0.48,0.24,-1.11,1.23
29.626347064971924,-0.53,0.43,-0.65,0.94
29.627691984176636,-0.63,0.74,-0.01,0.97
29.62870502471924,-1.18,0.69,0.19,1.38
29.64649987220764,-2.12,0.56,0.01,2.19
29.6475830078125,-2.67,0.33,-0.43,2.72
29.662666082382202,-2.4,0.3,-0.47,2.46
29.663707971572876,-1.74,0.49,-0.44,1.86
29.679430961608887,-1.29,0.81,-0.65,1.65
29.68068289756775,-0.95,0.83,-0.96,1.58
29.695899963378906,-0.86,0.65,-1.26,1.65
29.72437310218811,-0.83,0.52,-1.45,1.74
29.725773096084595,-0.76,0.59,-1.37,1.67
29.72680401802063,-0.92,0.89,-1.32,1.83
29.746390104293823,-1.0,1.35,-1.17,2.04
29.747431993484497,-1.23,1.83,-1.15,2.48
29.762880086898804,-1.83,2.67,-1.61,3.61
29.763913869857788,-2.38,4.34,-1.41,5.14
29.779661893844604,-2.06,3.49,-2.35,4.68
29.781148195266724,-1.9,3.38,-0.95,3.99
29.795387029647827,-2.76,3.06,-1.33,4.33
29.82638907432556,-3.65,3.06,-2.23,5.25
29.82765007019043,-4.12,3.46,-2.37,5.87
29.828657865524292,-4.43,3.73,-2.77,6.41
29.847064971923828,-5.1,4.15,-3.06,7.25
29.848111867904663,-5.82,4.73,-3.28,8.18
29.863299131393433,-6.26,5.1,-3.79,8.91
29.864753007888794,-6.33,4.54,-3.93,8.72
29.879878044128418,-6.03,3.69,-3.59,7.92
29.881356954574585,-5.5,3.14,-3.57,7.27
29.895418882369995,-4.7,2.93,-3.66,6.63
29.925788164138794,-3.8,3.12,-3.53,6.05
29.927157163619995,-2.92,3.3,-3.13,5.4
29.928178071975708,-2.31,3.98,-2.88,5.42
29.946721076965332,-1.52,5.72,-2.66,6.48
29.947774171829224,1.32,9.6,-1.37,9.78
29.963030099868774,2.09,9.56,-2.25,10.04
29.964514017105103,-0.79,5.6,-3.8,6.81
29.979876041412354,-3.15,3.6,-4.42,6.51
29.98134684562683,-4.51,1.25,-4.48,6.47
