time,ax,ay,az,atotal
0.005602836608886719,0.56,-0.94,-1.84,2.14
0.031661033630371094,0.8,-0.63,-1.4,1.73
0.033487796783447266,0.34,0.35,-0.5,0.69
0.03522300720214844,0.12,0.15,0.05,0.19
0.04873394966125488,0.12,-0.05,0.29,0.31
0.0552978515625,0.21,-0.16,0.18,0.31
0.06617307662963867,0.22,-0.12,0.06,0.25
0.07509803771972656,0.06,0.01,0.22,0.22
0.0849149227142334,-0.05,-0.06,0.29,0.3
0.09496879577636719,-0.12,-0.09,0.29,0.32
0.10533380508422852,0.0,-0.05,0.13,0.13
0.13400888442993164,0.22,0.05,0.18,0.28
0.13589906692504883,0.5,-0.01,0.25,0.55
0.13734006881713867,0.53,-0.09,0.18,0.56
0.14955592155456543,0.28,0.0,0.15,0.31
0.1544508934020996,0.02,0.02,0.21,0.21
0.16617894172668457,-0.04,-0.02,0.37,0.37
0.17470407485961914,0.05,-0.09,0.39,0.4
0.18425393104553223,0.15,-0.1,0.27,0.32
0.1941690444946289,0.15,-0.04,0.09,0.17
0.20400500297546387,0.0,0.06,-0.11,0.12
0.23125410079956055,-0.13,0.11,-0.15,0.22
0.2330770492553711,-0.12,0.13,-0.14,0.22
0.234266996383667,-0.05,0.05,-0.07,0.09
0.24938011169433594,0.12,-0.04,0.09,0.15
0.2538008689880371,0.19,-0.03,0.23,0.29
0.2662668228149414,0.14,-0.03,0.25,0.28
0.27347803115844727,0.01,-0.02,0.18,0.18
0.2834479808807373,-0.07,0.05,0.13,0.15
0.29326581954956055,-0.07,0.05,0.14,0.16
0.3036990165710449,-0.04,-0.02,0.16,0.16
0.33910512924194336,-0.01,-0.05,0.11,0.12
0.3409249782562256,-0.02,0.01,-0.01,0.02
0.3423948287963867,-0.05,0.08,-0.07,0.11
0.3460409641265869,-0.07,0.06,-0.07,0.11
0.3531789779663086,-0.1,0.05,-0.06,0.12
0.3664999008178711,-0.23,0.12,-0.16,0.3
0.3730659484863281,-0.18,0.01,-0.18,0.25
0.38271093368530273,0.08,-0.02,0.17,0.18
0.3926539421081543,0.15,-0.01,0.49,0.51
0.40248894691467285,0.1,-0.06,0.42,0.43
0.4341888427734375,0.02,-0.06,0.25,0.25
0.4358711242675781,0.04,0.02,0.05,0.06
0.4372529983520508,0.04,0.06,-0.07,0.1
0.45052289962768555,0.04,0.04,-0.1,0.11
0.45200490951538086,0.03,0.02,-0.03,0.04
0.46600794792175293,0.0,0.02,0.09,0.09
0.47246885299682617,0.02,0.01,0.12,0.12
0.48281288146972656,0.03,0.0,0.13,0.13
0.4919300079345703,-0.03,0.02,0.11,0.11
0.5025019645690918,-0.14,0.03,0.09,0.16
0.5373940467834473,-0.28,0.05,0.04,0.28
0.5392959117889404,-0.38,0.06,-0.01,0.38
0.5407938957214355,-0.38,0.04,0.04,0.38
0.5500030517578125,-0.23,0.03,0.07,0.24
0.5513019561767578,-0.08,0.03,0.03,0.09
0.5661239624023438,-0.05,0.04,0.01,0.06
0.571943998336792,-0.05,0.05,0.02,0.07
0.5828800201416016,-0.08,0.05,0.04,0.1
0.5913867950439453,-0.1,0.03,0.1,0.14
0.6008868217468262,-0.11,0.01,0.1,0.14
0.6330089569091797,-0.09,0.0,0.03,0.09
0.6347179412841797,-0.04,0.04,-0.05,0.07
0.6361660957336426,0.13,0.01,-0.07,0.14
0.6500589847564697,0.26,-0.01,-0.06,0.26
0.6514949798583984,0.25,0.0,-0.03,0.25
0.6674199104309082,0.18,0.01,0.03,0.18
0.6705498695373535,0.08,0.01,0.04,0.09
0.6808810234069824,-0.05,0.02,0.09,0.1
0.6908159255981445,-0.18,0.04,0.14,0.23
0.7028918266296387,-0.22,0.06,0.11,0.25
0.7134928703308105,-0.2,0.07,0.01,0.21
0.7399139404296875,-0.16,0.07,-0.1,0.2
0.7413120269775391,-0.12,0.11,-0.17,0.23
0.7425551414489746,-0.11,0.13,-0.19,0.25
0.7499561309814453,-0.13,0.12,-0.15,0.23
0.7598049640655518,-0.15,0.12,-0.03,0.19
0.7698609828948975,-0.18,0.11,-0.05,0.21
0.7800300121307373,-0.15,0.17,-0.26,0.34
0.7898600101470947,-0.15,0.22,-0.52,0.58
0.7996549606323242,-0.13,0.22,-0.65,0.69
0.809798002243042,-0.02,0.22,-0.65,0.68
0.836327075958252,0.04,0.27,-0.67,0.72
0.8379409313201904,-0.04,0.28,-0.73,0.78
0.839667797088623,-0.26,0.38,-0.87,0.98
0.8508989810943604,-0.63,0.46,-1.06,1.31
0.8593289852142334,-0.97,0.42,-1.06,1.49
0.8690438270568848,-1.02,0.34,-0.95,1.43
0.8791899681091309,-0.48,0.18,-0.79,0.94
0.8890938758850098,1.04,-0.48,-1.03,1.54
0.8989338874816895,2.57,-1.32,-2.33,3.71
0.9119768142700195,3.37,-1.65,-4.33,5.72
0.9363319873809814,2.65,-0.79,-5.63,6.27
0.9379448890686035,1.14,0.27,-5.11,5.24
0.939255952835083,0.31,0.33,-3.32,3.35
0.9511289596557617,0.26,-0.47,-1.72,1.8
0.9586648941040039,0.34,-1.09,-0.75,1.36
0.9684548377990723,0.22,-1.26,-0.13,1.28
0.9783978462219238,-0.28,-1.25,0.29,1.31
0.9885120391845703,-0.94,-1.15,0.83,1.7
0.9981718063354492,-1.19,-0.97,1.71,2.29
1.0087828636169434,-1.1,-0.68,2.92,3.19
1.0367751121520996,-0.92,-0.58,3.8,3.95
1.0383458137512207,-0.92,-0.5,4.21,4.33
1.0399580001831055,-1.4,-0.03,4.44,4.65
1.0512700080871582,-3.37,1.63,5.42,6.58
1.057939052581787,-6.43,4.77,8.25,11.49
1.0676078796386719,-5.86,2.35,8.84,10.86
1.077622890472412,-4.01,-0.86,3.42,5.34
1.087378978729248,-2.29,0.3,-3.04,3.81
1.0977888107299805,-0.69,1.23,-4.62,4.83
1.1108109951019287,1.12,0.97,-2.43,2.84
1.1465668678283691,2.17,0.04,-0.9,2.34
1.1482839584350586,2.33,-0.34,-0.98,2.55
1.1495590209960938,1.91,-0.28,-1.16,2.25
1.16737699508667,1.16,-0.33,-0.82,1.45
1.168855905532837,0.22,-0.18,0.08,0.29
1.1832900047302246,-0.57,0.05,1.24,1.36
1.1847457885742188,-1.08,0.1,1.88,2.17
1.2000470161437988,-1.09,-0.04,1.68,2.0
1.2015228271484375,-0.55,-0.12,1.18,1.3
1.2192120552062988,-0.25,-0.01,0.7,0.74
1.2473998069763184,-0.4,0.07,0.1,0.41
1.2487599849700928,-0.48,0.06,-0.27,0.55
1.249833106994629,-0.41,0.11,-0.48,0.64
1.2676060199737549,-0.23,0.18,-0.66,0.72
1.2691068649291992,0.01,0.24,-0.57,0.61
1.283224105834961,0.09,0.25,-0.26,0.37
1.2847299575805664,0.0,0.18,-0.16,0.24
1.300065040588379,-0.16,0.15,-0.15,0.26
1.301504135131836,-0.18,0.07,0.0,0.19
1.3193249702453613,0.1,0.02,0.3,0.31
1.3461129665374756,0.31,0.07,0.48,0.57
1.3474540710449219,0.28,0.09,0.28,0.4
1.3484621047973633,0.37,0.08,-0.04,0.38
1.3674678802490234,0.55,0.07,-0.25,0.6
1.3689498901367188,0.54,0.04,-0.43,0.69
1.3835179805755615,0.59,0.13,-0.4,0.72
1.3850030899047852,0.48,0.14,-0.65,0.82
1.4002208709716797,0.17,0.22,-0.66,0.71
1.40169095993042,-0.09,0.15,-0.49,0.52
1.4191408157348633,-0.25,0.06,-0.53,0.58
1.4524619579315186,-0.3,0.05,-0.41,0.51
1.453732967376709,-0.2,0.01,-0.24,0.31
1.454699993133545,-0.13,0.01,-0.12,0.17
1.4669759273529053,-0.05,0.04,-0.08,0.1
1.4680099487304688,0.01,0.03,-0.11,0.11
1.48344087600708,0.14,0.01,-0.04,0.14
1.4848790168762207,0.26,0.0,0.18,0.31
1.5002479553222656,0.2,0.0,0.26,0.32
1.5016560554504395,0.01,0.15,0.16,0.21
1.5153210163116455,-0.22,0.22,0.12,0.33
1.5167930126190186,-0.21,0.14,-0.03,0.25
1.5551669597625732,0.1,0.17,-0.13,0.23
1.5567378997802734,0.18,0.11,-0.17,0.27
1.5584700107574463,-0.01,0.08,-0.1,0.12
1.5632569789886475,-0.26,0.11,-0.08,0.29
1.5643329620361328,-0.37,0.27,-0.11,0.47
1.5837030410766602,-0.43,0.4,-0.18,0.61
1.5851631164550781,-0.44,0.38,-0.48,0.75
1.6002278327941895,-0.49,0.31,-0.74,0.94
1.603464126586914,-0.75,0.33,-0.93,1.23
1.615656852722168,-0.84,0.49,-1.0,1.39
1.6399059295654297,-0.74,0.62,-0.81,1.26
1.6416621208190918,-0.73,0.66,-0.79,1.26
1.642974853515625,-0.97,0.73,-0.86,1.48
1.6534409523010254,-1.23,0.7,-0.98,1.72
1.6634340286254883,-1.42,0.68,-1.02,1.87
1.6732330322265625,-1.19,0.84,-0.77,1.64
1.6831488609313965,-0.92,0.95,-0.5,1.41
1.6929500102996826,-0.92,1.17,-0.6,1.6
1.703028917312622,-1.24,1.35,-0.66,1.94
1.713468074798584,-1.61,1.28,-1.11,2.33
1.7441959381103516,-1.78,1.92,-1.28,2.91
1.7453889846801758,-1.83,2.75,-1.43,3.59
1.7464280128479004,-2.02,2.9,-1.49,3.83
1.7677888870239258,-2.3,2.98,-1.4,4.01
1.7692759037017822,-2.63,3.21,-1.5,4.41
1.7836198806762695,-2.97,3.43,-1.83,4.89
1.7850940227508545,-3.11,3.41,-2.25,5.13
1.8006410598754883,-3.05,3.14,-2.29,4.94
1.802168846130371,-3.22,3.46,-2.71,5.44
1.817816972732544,-3.77,3.82,-3.18,6.23
1.8422589302062988,-4.15,3.87,-3.59,6.71
1.8437180519104004,-4.23,3.66,-3.75,6.73
1.8447508811950684,-4.17,3.49,-3.52,6.47
1.851409912109375,-4.2,3.3,-3.58,6.43
1.8617620468139648,-4.28,3.23,-3.83,6.58
1.8717870712280273,-3.53,2.96,-3.86,6.01
1.881680965423584,-2.53,2.58,-4.45,5.73
1.8915879726409912,-2.51,3.14,-5.22,6.58
1.901461124420166,-2.95,4.16,-4.54,6.82
1.911365032196045,-1.84,4.41,-3.14,5.71
1.9467129707336426,1.71,5.65,-1.57,6.1
1.9485020637512207,3.82,6.66,-1.89,7.9
1.949814796447754,1.33,4.59,-3.83,6.12
1.9677338600158691,-1.5,2.6,-4.94,5.78
1.969264030456543,-3.1,1.1,-4.62,5.67
1.9836311340332031,-4.32,-0.02,-4.18,6.01
1.9851088523864746,-4.83,-2.69,-3.69,6.64
2.000365972518921,-1.98,-3.27,-1.83,4.23
2.0018038749694824,-4.89,-2.98,-2.27,6.15
2.020145893096924,-8.21,-2.19,-3.39,9.14
2.0462708473205566,-9.99,-1.59,-3.45,10.68
2.047605037689209,-10.03,-2.1,-2.5,10.54
2.048574924468994,-8.96,-2.94,-1.44,9.53
2.0681159496307373,-7.84,-3.69,-0.97,8.71
2.069607973098755,-7.04,-3.94,-1.09,8.14
2.083678960800171,-6.4,-3.63,-1.18,7.45
2.0851540565490723,-5.74,-3.3,-0.99,6.69
2.1004090309143066,-5.17,-3.02,-0.51,6.0
2.101871967315674,-5.08,-2.75,-0.06,5.77
2.1197710037231445,-5.42,-2.47,0.26,5.96
2.146066904067993,-5.81,-2.1,0.45,6.19
2.1478328704833984,-5.73,-1.77,0.39,6.0
2.1489579677581787,-5.16,-1.48,0.11,5.36
2.167545795440674,-4.53,-1.25,0.15,4.7
2.1690409183502197,-3.69,-0.8,0.37,3.79
2.183701992034912,-2.46,-0.03,0.61,2.53
2.18516206741333,-1.23,0.78,1.08,1.81
2.200671911239624,-0.59,1.29,1.64,2.16
2.202096939086914,-0.61,1.75,1.86,2.62
2.215989112854004,-0.57,2.6,1.92,3.28
2.244210958480835,0.37,3.59,2.46,4.36
2.24606990814209,2.36,4.13,2.99,5.61
2.2475128173828125,4.77,4.09,2.67,6.82
2.2679779529571533,6.9,4.15,1.52,8.19
2.2694249153137207,8.79,4.9,0.58,10.08
2.2840728759765625,9.51,8.56,-0.1,12.79
2.2855868339538574,9.52,14.36,-2.95,17.47
2.299281120300293,19.26,10.95,-4.48,22.6
2.30074405670166,28.06,6.59,0.42,28.82
2.314445972442627,27.39,3.02,2.06,27.63
2.3186309337615967,22.13,2.25,2.36,22.36
2.357085943222046,17.73,0.96,3.16,18.03
2.358776092529297,15.46,0.71,2.95,15.75
2.3602099418640137,12.1,0.42,2.41,12.34
2.3635377883911133,3.37,-0.38,0.07,3.39
2.384187936782837,-4.88,3.14,-0.59,5.83
2.3856699466705322,-5.62,5.79,1.64,8.23
2.4006519317626953,-1.36,1.58,2.6,3.33
2.4020838737487793,1.88,-2.38,2.38,3.85
2.4159598350524902,3.32,-1.72,2.36,4.42
2.4174418449401855,2.98,-0.22,2.56,3.93
2.460209846496582,1.98,0.28,2.44,3.15
2.4618048667907715,0.91,-0.06,1.89,2.09
2.4632649421691895,0.36,-0.11,1.56,1.6
2.465330123901367,0.89,-0.19,1.31,1.59
2.467005968093872,1.75,-0.3,0.77,1.93
2.4782040119171143,2.23,-0.17,0.08,2.23
2.4868149757385254,2.28,-0.12,-0.28,2.3
2.496851921081543,1.65,-0.12,-0.37,1.69
2.5069479942321777,0.54,-0.03,-0.1,0.55
2.5168299674987793,-0.4,0.09,0.2,0.45
2.5428659915924072,-0.88,0.03,0.11,0.88
2.543968915939331,-0.68,0.15,0.16,0.71
2.546046018600464,-0.07,0.25,0.39,0.46
2.55649995803833,0.22,0.15,0.31,0.4
2.566257953643799,0.13,0.06,0.06,0.15
2.5761208534240723,0.1,0.03,-0.14,0.17
2.586254119873047,0.4,0.05,-0.08,0.41
2.596242904663086,0.65,0.06,-0.05,0.65
2.6060280799865723,0.42,0.07,-0.06,0.42
2.6164469718933105,-0.01,0.14,0.08,0.16
2.648176908493042,-0.25,0.17,0.21,0.36
2.64963698387146,-0.29,0.22,0.18,0.4
2.65061092376709,-0.29,0.32,-0.04,0.43
2.667850971221924,-0.12,0.31,-0.22,0.39
2.6692538261413574,0.15,0.21,-0.28,0.38
2.6837809085845947,0.32,0.11,-0.37,0.5
2.6852240562438965,0.36,0.05,-0.37,0.51
2.7007670402526855,0.29,0.03,-0.23,0.37
2.705331802368164,0.15,0.03,-0.19,0.24
2.718553066253662,-0.04,0.03,-0.2,0.2
2.7520289421081543,-0.2,0.09,-0.16,0.27
2.7539610862731934,-0.27,0.25,-0.03,0.36
2.7553958892822266,-0.25,0.33,-0.02,0.41
2.7684578895568848,-0.07,0.08,0.15,0.18
2.769887924194336,0.09,-0.19,0.16,0.26
2.7834079265594482,0.17,-0.32,-0.03,0.36
2.7849009037017822,0.28,-0.23,-0.13,0.38
2.800895929336548,0.36,-0.11,-0.08,0.38
2.804297924041748,0.23,0.05,-0.03,0.23
2.816709041595459,0.04,0.13,0.04,0.14
2.850903034210205,-0.03,0.18,0.15,0.23
2.8526389598846436,0.06,0.11,0.2,0.23
2.8539419174194336,0.02,-0.05,0.07,0.08
2.868520975112915,-0.1,-0.12,-0.16,0.22
2.8699920177459717,-0.13,0.01,-0.3,0.32
2.884036064147949,-0.12,0.23,-0.31,0.4
2.8854939937591553,-0.21,0.48,-0.44,0.68
2.90054988861084,-0.43,0.55,-0.79,1.05
2.9038379192352295,-0.7,0.51,-1.02,1.33
2.916127920150757,-1.03,0.52,-1.07,1.57
2.9469008445739746,-1.44,0.51,-1.13,1.9
2.9486780166625977,-1.75,0.48,-1.26,2.2
2.9498438835144043,-1.89,0.56,-1.02,2.21
2.968155860900879,-2.11,0.69,-0.86,2.38
2.9696688652038574,-2.36,0.88,-0.9,2.67
2.9840149879455566,-2.47,0.82,-0.94,2.76
2.9854588508605957,-2.3,1.08,-0.77,2.65
3.000865936279297,-1.93,1.47,-0.57,2.49
3.0030229091644287,-1.4,1.58,-0.86,2.27
3.0169057846069336,-1.31,2.07,-1.41,2.82
3.0494728088378906,-1.44,3.21,-1.1,3.68
3.051270008087158,-1.25,3.41,-0.64,3.68
3.052640914916992,-1.63,3.26,-0.9,3.75
3.06866192817688,-2.13,3.05,-1.16,3.89
3.070133924484253,-2.28,2.8,-1.24,3.81
3.0841329097747803,-2.33,2.52,-1.08,3.59
3.0855979919433594,-2.61,2.23,-1.07,3.59
3.1006641387939453,-2.91,2.32,-1.12,3.88
3.102118968963623,-3.13,2.54,-1.43,4.27
3.1198267936706543,-3.47,2.94,-2.04,4.98
3.1256561279296875,-3.79,3.12,-2.65,5.57
3.151387929916382,-3.94,3.03,-3.07,5.84
3.1530208587646484,-3.96,2.94,-3.31,5.93
3.1547470092773438,-4.08,2.98,-3.57,6.18
3.1692309379577637,-3.95,2.82,-3.8,6.16
3.171854019165039,-3.21,2.41,-3.55,5.35
3.1841230392456055,-2.48,2.5,-3.34,4.85
3.1918299198150635,-2.42,3.46,-3.47,5.46
3.2015700340270996,-2.88,4.88,-3.62,6.72
3.211604118347168,-3.57,5.9,-3.17,7.58
3.221353054046631,-2.45,6.82,-1.67,7.43
3.249570846557617,0.92,8.17,-0.77,8.25
3.251349925994873,0.43,6.52,-2.1,6.86
3.252798080444336,-2.02,4.59,-3.59,6.16
3.2677488327026367,-3.94,3.33,-3.91,6.47
3.2710909843444824,-5.14,1.8,-3.25,6.34
3.2842509746551514,-5.75,0.03,-2.74,6.36
3.2911999225616455,-5.89,-3.32,-2.92,7.36
3.300801992416382,-2.12,-4.38,-2.15,5.31
3.3120179176330566,1.21,-1.29,-1.04,2.05
3.320645809173584,-2.18,-1.11,-1.48,2.85
3.350433826446533,-5.85,-1.31,-2.8,6.61
3.3522579669952393,-8.08,-1.61,-2.96,8.75
3.3533689975738525,-8.76,-2.23,-2.09,9.27
3.367921829223633,-8.22,-2.77,-1.1,8.74
3.3702149391174316,-7.12,-3.42,-0.43,7.91
3.383626937866211,-6.17,-4.03,-0.3,7.37
3.3902390003204346,-5.7,-4.1,-0.5,7.03
3.4010448455810547,-5.52,-3.7,-0.84,6.69
3.410156011581421,-5.4,-3.28,-1.12,6.41
3.4203619956970215,-5.21,-2.89,-1.12,6.06
3.4500198364257812,-4.86,-2.59,-0.92,5.58
3.4517710208892822,-4.53,-2.41,-0.43,5.14
3.4530811309814453,-4.47,-2.1,0.22,4.94
3.4592089653015137,-4.57,-1.75,0.37,4.9
3.4698309898376465,-4.13,-1.16,-0.12,4.29
3.479641914367676,-3.15,-0.49,-1.12,3.37
3.4895448684692383,-1.86,0.23,-1.95,2.7
3.4995169639587402,-0.81,0.6,-1.83,2.08
3.509443998336792,-0.44,0.51,-0.94,1.15
3.5196590423583984,-0.17,0.66,-0.02,0.68
3.5568528175354004,0.33,1.27,0.58,1.43
3.5587401390075684,0.58,1.95,0.82,2.19
3.560194969177246,0.4,2.62,1.17,2.89
3.5642480850219727,0.23,3.32,1.85,3.8
3.5683670043945312,0.6,3.76,2.52,4.56
3.5844149589538574,1.62,4.26,2.55,5.22
3.5885989665985107,3.17,4.9,1.51,6.02
3.6009321212768555,4.76,5.35,0.16,7.16
3.60837984085083,6.19,6.1,-0.86,8.73
3.618405818939209,8.26,6.67,-1.23,10.68
3.652863025665283,10.8,6.14,-1.56,12.52
3.654742956161499,12.34,4.91,-1.34,13.34
3.6562039852142334,10.35,7.61,-0.28,12.84
3.668220043182373,12.19,4.05,-0.25,12.84
3.6695609092712402,14.57,1.12,1.03,14.64
3.6844468116760254,14.49,2.65,2.87,15.0
3.6878159046173096,13.69,3.67,3.08,14.5
3.7010488510131836,12.65,3.49,3.12,13.48
3.7079989910125732,11.3,3.48,3.1,12.22
3.7175278663635254,10.19,4.18,3.53,11.56
3.7524359226226807,9.53,4.51,3.98,11.26
3.7537808418273926,6.07,1.89,2.1,6.69
3.7548351287841797,-2.2,-0.18,-1.28,2.55
3.7685790061950684,-8.87,0.81,-2.68,9.3
3.770073890686035,-6.75,3.17,0.02,7.45
3.7824478149414062,0.44,2.48,0.87,2.66
3.787122964859009,4.07,1.46,-0.03,4.32
3.8009719848632812,4.25,2.89,0.55,5.16
3.8069658279418945,5.93,2.57,0.51,6.48
3.8168439865112305,5.39,-0.41,-0.93,5.48
3.856987953186035,2.71,1.15,0.39,2.96
3.8587088584899902,2.13,-0.57,2.72,3.5
3.860011100769043,2.44,-2.01,3.82,4.95
3.8638358116149902,3.15,-1.63,3.11,4.71
3.866225004196167,3.53,-0.72,1.19,3.79
3.8846631050109863,3.52,-0.16,0.33,3.53
3.8862149715423584,2.99,-0.08,0.65,3.06
3.901103973388672,2.35,-0.26,1.48,2.78
3.9062299728393555,1.71,-0.31,1.98,2.63
3.9166908264160156,0.89,-0.08,2.09,2.27
3.9261019229888916,0.18,0.13,1.61,1.62
3.955172061920166,-0.38,0.29,0.61,0.77
3.9568779468536377,-0.62,0.35,-0.65,0.96
3.958534002304077,-0.33,0.28,-1.53,1.59
3.966118812561035,0.15,0.24,-1.7,1.72
3.9758667945861816,0.31,0.16,-1.59,1.62
3.9857258796691895,0.35,0.05,-1.17,1.22
3.995539903640747,0.27,0.05,-0.6,0.65
4.005513906478882,-0.12,0.03,-0.36,0.38
4.015584945678711,-0.59,0.14,-0.01,0.6
4.025382995605469,-0.81,0.31,0.41,0.95
4.057559967041016,-0.77,0.34,0.42,0.94
4.059194087982178,-0.54,0.2,0.17,0.6
4.06026291847229,-0.07,0.03,0.15,0.16
4.064817905426025,0.47,-0.04,0.29,0.55
4.07499098777771,0.47,0.11,0.26,0.54
4.085201978683472,0.15,0.17,-0.1,0.24
4.0948309898376465,0.01,0.12,-0.34,0.36
4.104689121246338,0.18,0.03,-0.32,0.36
4.114876985549927,0.53,-0.18,-0.02,0.56
4.124721050262451,0.65,-0.32,0.2,0.75
4.157274007797241,0.43,-0.11,0.34,0.55
4.158769130706787,0.05,0.14,0.35,0.38
4.159763813018799,-0.25,0.14,0.35,0.45
4.1654438972473145,-0.41,0.02,0.32,0.52
4.184464931488037,-0.41,0.01,0.16,0.44
4.185863018035889,-0.22,0.04,-0.03,0.22
4.201081991195679,0.0,0.1,-0.3,0.31
4.204046964645386,0.06,0.17,-0.51,0.54
4.216795921325684,0.16,0.2,-0.61,0.66
4.224545001983643,0.15,0.11,-0.55,0.58
4.262434959411621,-0.09,0.06,-0.42,0.43
4.263404846191406,-0.38,0.15,-0.28,0.49
4.264151096343994,-0.52,0.43,-0.15,0.69
4.281077861785889,-0.55,0.67,-0.32,0.92
4.282055854797363,-0.53,0.77,-0.56,1.08
4.298061847686768,-0.63,0.68,-0.87,1.27
4.299736976623535,-0.88,0.68,-1.09,1.55
4.319054126739502,-1.03,0.73,-1.34,1.84
4.321285963058472,-1.03,0.71,-1.34,1.83
4.3238139152526855,-1.06,0.81,-0.78,1.54
4.367591857910156,-1.33,0.97,-0.72,1.79
4.368762969970703,-1.47,1.2,-0.56,1.97
4.369773864746094,-1.71,1.5,-0.03,2.27
4.383791923522949,-2.38,1.97,0.09,3.09
4.385303020477295,-2.61,2.0,-0.26,3.29
4.401373863220215,-2.33,1.98,-0.34,3.07
4.402836799621582,-2.35,2.23,-0.82,3.34
4.418154001235962,-2.39,2.55,-1.5,3.8
4.419618129730225,-2.14,2.92,-1.96,4.11
4.434218883514404,-2.1,3.24,-2.31,4.49
4.461568832397461,-2.33,3.27,-2.63,4.79
4.462922096252441,-2.73,3.24,-2.8,5.07
4.463923931121826,-3.44,3.68,-2.85,5.78
4.485620975494385,-4.5,4.59,-3.03,7.1
4.4871180057525635,-5.33,5.0,-3.54,8.12
4.501309871673584,-5.53,4.65,-3.76,8.14
4.502808094024658,-5.6,4.29,-3.57,7.9
4.518222808837891,-5.48,3.85,-3.82,7.71
4.519740104675293,-4.83,3.14,-3.92,6.96
4.533553123474121,-3.71,2.7,-3.61,5.83
4.561378002166748,-2.3,2.44,-3.77,5.04
4.563230037689209,-1.58,3.18,-4.0,5.34
4.5646889209747314,-1.4,4.74,-3.7,6.17
4.566267013549805,-0.85,5.76,-3.23,6.65
4.571080923080444,1.8,7.44,-2.26,7.98
4.58139181137085,2.93,7.69,-2.43,8.58
4.5911829471588135,-0.08,5.1,-3.39,6.12
4.60125207901001,-2.5,3.33,-4.01,5.78
4.6109819412231445,-3.9,1.42,-3.61,5.5
4.620995998382568,-5.19,-0.92,-3.55,6.35
4.65493106842041,-5.89,-4.07,-3.55,7.99
4.656184911727905,-1.97,-4.71,-2.49,5.68
4.657199859619141,1.73,-2.54,-0.84,3.18
4.66883397102356,-1.67,-2.51,-1.39,3.31
4.670007944107056,-6.08,-2.14,-2.94,7.08
4.684842109680176,-8.88,-2.02,-2.93,9.56
4.690307140350342,-9.54,-2.61,-1.8,10.05
4.701443910598755,-9.03,-3.39,-0.66,9.66
4.7100279331207275,-8.38,-3.99,0.08,9.28
4.720046043395996,-8.09,-4.39,0.3,9.2
4.730228900909424,-7.83,-4.37,0.26,8.97
4.76158595085144,-7.38,-4.05,0.3,8.42
4.762787818908691,-6.7,-3.7,0.39,7.66
4.763792991638184,-6.02,-3.58,0.55,7.02
4.785668849945068,-5.81,-3.44,0.59,6.77
4.787178993225098,-5.95,-2.88,0.63,6.64
4.801733016967773,-6.02,-2.12,0.59,6.4
4.803215026855469,-5.7,-1.51,0.26,5.9
4.818400859832764,-4.8,-0.92,-0.45,4.9
4.819885015487671,-3.39,-0.34,-1.37,3.67
4.837554931640625,-1.88,0.01,-1.81,2.6
4.868626117706299,-0.86,0.0,-1.67,1.87
4.8700480461120605,-0.42,-0.13,-1.31,1.38
4.871073961257935,0.32,0.43,-1.0,1.13
4.885474920272827,1.22,1.22,-1.03,2.0
4.886980056762695,1.79,1.93,-1.09,2.84
4.900138854980469,1.94,2.53,-0.94,3.32
4.901638984680176,1.89,3.09,-0.45,3.65
4.918528079986572,1.86,3.62,0.36,4.08
4.919996976852417,1.84,4.04,1.02,4.55
4.934101104736328,1.94,4.47,1.32,5.04
4.961014986038208,2.56,4.98,1.39,5.76
4.962409973144531,3.7,5.14,1.38,6.48
4.963420867919922,4.97,5.27,1.31,7.36
4.967988014221191,4.7,10.34,0.8,11.38
4.977827072143555,5.62,10.1,-0.73,11.58
4.988350868225098,11.35,6.45,0.34,13.05
4.998248100280762,14.56,3.65,2.66,15.24
5.008019924163818,13.63,2.57,2.61,14.11
5.018033027648926,12.29,2.73,1.99,12.74
5.027806997299194,12.68,3.64,2.35,13.39
5.058628082275391,13.31,3.62,2.57,14.03
5.059768915176392,12.95,3.21,2.82,13.63
5.060944080352783,12.02,3.19,3.0,12.79
5.067223072052002,10.57,3.41,3.16,11.54
5.077193021774292,7.93,1.88,2.36,8.48
5.087606906890869,2.03,-0.79,0.11,2.18
5.097475051879883,-4.09,-0.35,-1.51,4.37
5.107212066650391,-5.53,1.39,-0.42,5.71
5.1171629428863525,-1.13,1.05,0.72,1.7
5.1271281242370605,2.05,0.31,0.74,2.2
5.1645050048828125,3.46,3.07,2.52,5.26
5.165974140167236,7.28,1.5,1.96,7.68
5.166983127593994,6.42,0.34,0.28,6.43
5.185247898101807,3.7,1.78,-0.55,4.14
5.186716079711914,2.53,0.43,0.52,2.61
5.20176887512207,1.67,-1.87,1.33,2.83
5.2032470703125,1.49,-1.41,1.92,2.8
5.218163013458252,1.55,-0.4,1.87,2.46
5.219641923904419,1.29,0.32,2.23,2.59
5.234498977661133,0.79,0.3,2.99,3.1
5.263653993606567,0.34,-0.06,2.62,2.64
5.265002965927124,0.26,-0.01,1.69,1.7
5.265994071960449,0.82,-0.02,1.84,2.01
5.285996913909912,1.72,-0.47,1.69,2.45
5.287497043609619,2.3,-0.58,1.27,2.69
5.301949977874756,2.1,-0.23,1.39,2.52
5.303412914276123,0.82,0.06,0.97,1.27
5.318228006362915,-0.02,0.34,-0.43,0.54
5.319706916809082,0.3,0.36,-1.72,1.78
5.334023952484131,0.8,-0.03,-1.87,2.03
5.361784934997559,0.78,-0.1,-1.33,1.54
5.363147020339966,0.47,0.17,-0.81,0.95
5.3642377853393555,0.14,0.24,-0.5,0.57
5.385733127593994,-0.13,0.09,-0.67,0.68
5.387216091156006,-0.24,0.01,-0.61,0.65
5.402083873748779,-0.35,0.0,-0.33,0.48
5.403579950332642,-0.45,0.07,-0.46,0.64
5.418673038482666,-0.44,0.21,-0.48,0.68
5.420083045959473,-0.47,0.18,-0.24,0.55
5.434764862060547,-0.49,0.1,0.11,0.51
5.4660890102386475,-0.54,0.07,0.08,0.55
5.46741795539856,-0.48,-0.02,-0.03,0.48
5.468434810638428,-0.28,-0.1,0.42,0.51
5.485749959945679,-0.18,0.06,0.66,0.68
5.487235069274902,-0.21,0.4,0.43,0.62
5.501842975616455,-0.26,0.54,0.12,0.61
5.503324031829834,-0.32,0.36,0.13,0.49
5.518371105194092,-0.2,0.36,0.2,0.45
5.519652843475342,-0.28,0.35,0.04,0.45
5.533787965774536,-0.35,0.2,-0.07,0.4
5.535813808441162,-0.29,0.14,-0.05,0.32
5.57863187789917,-0.32,0.19,-0.04,0.37
5.579808950424194,-0.21,0.27,0.06,0.34
5.5809619426727295,0.01,0.3,0.37,0.47
5.5824408531188965,-0.07,0.23,0.35,0.42
5.583822965621948,-0.22,0.14,0.26,0.36
5.593240022659302,-0.01,0.03,0.39,0.39
5.603424072265625,0.28,0.08,0.38,0.47
5.613606929779053,0.51,0.03,0.1,0.52
5.623495101928711,0.58,-0.04,-0.02,0.58
5.633459091186523,0.5,0.05,-0.03,0.5
5.661473989486694,0.29,0.33,0.04,0.44
5.662616014480591,0.2,0.55,0.12,0.59
5.663614988327026,0.04,0.59,0.22,0.63
5.672766923904419,-0.29,0.65,0.07,0.71
5.68287992477417,-0.65,0.42,-0.06,0.77
5.692657947540283,-0.95,0.32,-0.11,1.0
5.702863931655884,-1.16,0.55,-0.58,1.4
5.712651014328003,-1.41,0.79,-1.06,1.93
5.722599029541016,-1.68,1.1,-1.28,2.38
5.732665061950684,-2.13,1.47,-1.46,2.97
5.76232385635376,-2.55,1.63,-1.46,3.36
5.763455867767334,-2.81,1.73,-1.43,3.59
5.7644569873809814,-2.93,2.01,-1.24,3.76
5.785943031311035,-2.99,2.24,-1.09,3.89
5.78742790222168,-3.13,2.71,-1.29,4.33
5.801964998245239,-3.28,3.3,-1.6,4.92
5.803448915481567,-3.65,3.96,-2.04,5.75
5.818604946136475,-4.01,4.6,-2.51,6.59
5.821830987930298,-4.2,5.19,-2.92,7.28
5.834488868713379,-4.43,5.62,-3.21,7.84
5.8629560470581055,-5.06,5.82,-3.54,8.48
5.864423990249634,-5.42,5.47,-3.45,8.43
5.8653950691223145,-5.34,4.8,-3.34,7.91
5.885823965072632,-5.33,4.31,-3.38,7.64
5.887257099151611,-4.98,3.96,-3.38,7.2
5.901772975921631,-4.15,3.72,-3.51,6.58
5.903255939483643,-2.98,3.2,-4.26,6.1
5.918655872344971,-2.71,4.24,-5.01,7.1
5.921064853668213,-3.02,6.58,-5.31,8.97
5.934237003326416,-2.26,8.45,-4.54,9.85
5.9714179039001465,0.99,10.67,-1.52,10.82
5.973400115966797,2.37,10.04,-0.75,10.34
5.974462985992432,0.45,7.48,-2.71,7.96
5.986412048339844,-1.74,5.75,-4.96,7.79
5.987893104553223,-3.25,2.95,-5.51,7.04
6.002152919769287,-4.92,-1.02,-4.96,7.06
6.003587961196899,-3.59,-6.05,-4.6,8.4
6.018948078155518,4.0,-4.35,-2.86,6.56
6.020478963851929,4.03,-3.33,-1.99,5.59
6.034615993499756,-1.63,-4.21,-4.18,6.15
6.068212985992432,-6.93,-3.62,-5.78,9.72
6.069585800170898,-9.87,-3.72,-5.4,11.84
6.070609092712402,-10.67,-4.47,-3.42,12.06
6.0863118171691895,-10.15,-5.25,-1.17,11.48
6.087785959243774,-9.59,-5.9,0.56,11.27
6.1022539138793945,-9.65,-5.65,1.36,11.26
6.10373592376709,-9.97,-4.97,1.27,11.21
6.118867874145508,-10.09,-4.65,0.96,11.15
6.120330810546875,-9.99,-4.32,1.25,10.95
6.134246826171875,-9.55,-4.0,1.97,10.53
6.170220851898193,-8.94,-3.67,2.38,9.95
6.171497821807861,-8.34,-3.26,2.12,9.2
6.172482967376709,-7.69,-2.63,1.4,8.24
6.1856849193573,-7.29,-1.75,0.4,7.5
6.186740875244141,-7.02,-0.48,-0.39,7.04
6.202119827270508,-6.51,0.82,-1.12,6.65
6.203580856323242,-4.96,1.72,-1.99,5.61
6.219007968902588,-2.95,1.93,-2.58,4.36
6.220534801483154,-1.23,1.79,-2.68,3.44
6.234377861022949,-0.03,1.82,-1.94,2.66
6.266525983810425,0.95,2.3,-1.0,2.68
6.267877101898193,2.12,2.84,-0.59,3.59
6.268899917602539,3.06,3.27,-0.37,4.49
6.285705089569092,3.32,3.7,0.15,4.97
6.286748886108398,3.41,4.25,0.76,5.5
6.302334785461426,3.86,4.74,1.18,6.22
6.303769111633301,4.7,5.28,1.26,7.18
6.318955898284912,4.31,9.45,1.02,10.43
6.320359945297241,4.12,13.69,-1.03,14.33
6.334718942642212,13.74,12.72,-0.63,18.73
6.338078022003174,23.67,10.22,3.04,25.96
6.376747131347656,26.23,3.9,3.93,26.8
6.377987861633301,21.55,1.58,2.67,21.77
6.379246950149536,17.13,2.11,2.78,17.48
6.381860017776489,15.12,2.56,2.98,15.62
6.402544975280762,14.52,1.66,3.28,14.97
6.4040539264678955,14.18,0.85,3.88,14.72
6.418900966644287,12.9,-0.26,2.07,13.06
6.420411109924316,5.06,-0.96,-2.0,5.52
6.4346020221710205,-2.48,8.39,-1.98,8.97
6.43715500831604,-0.83,11.6,1.93,11.78
6.477964878082275,0.1,2.6,2.44,3.56
6.479128837585449,0.88,-2.33,3.21,4.06
6.480515956878662,2.58,-3.61,3.85,5.87
6.482703924179077,3.3,-2.26,3.07,5.04
6.486580848693848,2.95,-0.08,1.66,3.38
6.496509075164795,1.74,1.08,0.99,2.27
6.506825923919678,0.97,0.34,1.57,1.87
6.516778945922852,1.0,-0.45,2.04,2.31
6.526462078094482,1.18,-0.46,2.03,2.39
6.536468029022217,1.29,-0.3,1.71,2.16
6.567413806915283,1.48,-0.27,1.29,1.98
6.5685179233551025,1.48,-0.19,0.76,1.67
6.569474935531616,0.71,0.01,-0.27,0.75
6.586516857147217,-0.19,0.3,-0.94,1.0
6.5875420570373535,-0.63,0.48,-0.76,1.09
6.602272033691406,-0.63,0.35,-0.74,1.03
6.605938911437988,-0.34,0.24,-0.82,0.91
6.616952896118164,-0.03,0.21,-0.67,0.7
6.625962972640991,0.27,0.02,-0.74,0.78
6.635617971420288,0.47,-0.07,-0.69,0.83
6.66855001449585,0.42,-0.01,-0.37,0.55
6.6699371337890625,0.2,0.06,-0.16,0.26
6.6709370613098145,0.03,0.16,0.24,0.29
6.686061859130859,-0.07,0.4,0.68,0.79
6.6871418952941895,-0.01,0.49,0.81,0.94
6.70249080657959,0.18,0.35,0.84,0.92
6.7052531242370605,0.36,0.17,0.51,0.64
6.719121932983398,0.39,0.1,0.22,0.45
6.725060939788818,0.25,0.36,0.21,0.48
6.734898090362549,0.02,0.44,-0.29,0.52
6.774065017700195,-0.1,0.29,-0.52,0.6
6.775481939315796,-0.11,0.02,-0.48,0.49
6.776508808135986,0.21,-0.14,-0.32,0.4
6.785818099975586,0.25,-0.15,-0.3,0.41
6.7868781089782715,0.02,0.08,-0.47,0.47
6.802414894104004,-0.1,0.17,-0.2,0.28
6.804301977157593,-0.09,0.1,0.28,0.31
6.819077968597412,-0.1,-0.01,0.39,0.4
6.8243749141693115,-0.04,-0.02,0.37,0.37
6.834786891937256,0.13,0.04,0.07,0.15
6.872597932815552,0.27,-0.11,-0.27,0.39
6.873902797698975,0.26,-0.22,-0.42,0.54
6.874905109405518,0.14,-0.29,-0.38,0.49
6.885898113250732,-0.15,-0.33,-0.13,0.38
6.8869171142578125,-0.33,-0.11,0.05,0.35
6.902539968490601,-0.27,0.24,0.36,0.51
6.9040608406066895,-0.17,0.58,0.56,0.82
6.9193549156188965,-0.1,0.66,0.51,0.84
6.923551082611084,-0.19,0.53,0.43,0.7
6.93456506729126,-0.27,0.42,0.18,0.53
6.970801830291748,-0.34,0.25,-0.35,0.54
6.972068786621094,-0.45,0.13,-0.91,1.02
6.973072052001953,-0.67,0.23,-1.02,1.24
6.9864068031311035,-1.01,0.61,-0.92,1.49
6.9874489307403564,-1.33,1.0,-0.87,1.87
7.002341985702515,-1.51,1.03,-0.86,2.02
7.003840923309326,-1.74,0.85,-1.01,2.18
7.018947124481201,-2.23,1.06,-0.86,2.61
7.022933006286621,-2.82,1.57,-1.05,3.39
7.034917831420898,-2.73,2.05,-1.08,3.58
7.069657802581787,-2.64,2.08,-1.2,3.56
7.07096004486084,-2.86,2.2,-1.12,3.77
7.072030067443848,-3.22,2.42,-1.2,4.2
7.086216926574707,-3.56,3.03,-1.64,4.95
7.087284088134766,-3.64,3.82,-1.88,5.6
7.102576971054077,-3.66,4.12,-2.21,5.93
7.104054927825928,-3.98,4.17,-2.64,6.34
7.119254112243652,-4.76,4.45,-3.1,7.21
7.12206506729126,-5.47,4.65,-3.47,7.97
7.134932041168213,-5.71,4.69,-3.66,8.24
7.141892910003662,-5.81,4.7,-3.58,8.28
7.182129859924316,-5.9,4.64,-3.38,8.23
7.183295965194702,-5.88,4.22,-3.51,8.04
7.184270858764648,-5.92,3.82,-3.5,7.86
7.203464031219482,-5.39,3.36,-3.21,7.11
7.204977035522461,-4.54,3.4,-3.42,6.62
7.219295024871826,-3.97,4.7,-4.07,7.37
7.22075891494751,-3.5,6.13,-5.07,8.69
7.236088991165161,-2.72,6.57,-4.57,8.45
7.237548828125,-0.46,8.47,-1.49,8.61
7.251377105712891,2.29,10.1,1.26,10.43
7.2803730964660645,0.72,6.56,-0.85,6.65
7.281787872314453,-2.96,4.92,-4.98,7.6
7.2827959060668945,-5.92,4.28,-6.63,9.86
7.302592992782593,-7.45,2.54,-6.62,10.28
7.303660869598389,-7.82,-1.9,-5.81,9.92
7.319355010986328,-5.23,-3.99,-3.08,7.26
7.32081413269043,0.63,-0.59,0.09,0.86
7.33646297454834,-0.89,-0.7,0.32,1.17
7.337868928909302,-4.85,-1.49,-1.91,5.42
7.351660966873169,-7.92,-1.69,-3.31,8.74
7.3819260597229,-9.34,-1.99,-3.09,10.03
7.3833208084106445,-8.73,-2.24,-2.05,9.24
7.384342908859253,-6.85,-2.95,-0.91,7.51
7.402937889099121,-5.15,-4.23,-0.18,6.66
7.404362916946411,-4.3,-5.14,-0.02,6.7
7.419466018676758,-4.37,-5.36,-0.22,6.91
7.4209160804748535,-4.74,-5.34,-0.43,7.15
7.4358720779418945,-5.16,-5.17,-0.59,7.32
7.4373087882995605,-5.25,-5.06,-0.71,7.32
7.4513630867004395,-5.05,-5.06,-0.68,7.18
7.4796600341796875,-4.86,-4.98,-0.46,6.97
7.481084823608398,-4.98,-4.69,-0.25,6.84
7.4820709228515625,-5.13,-4.08,0.29,6.56
7.502839088439941,-5.33,-2.96,1.48,6.27
7.503884792327881,-5.08,-1.94,1.15,5.55
7.519539833068848,-3.46,-1.55,-1.22,3.98
7.521000862121582,-0.93,-0.59,-2.71,2.92
7.5362279415130615,1.48,1.33,-1.61,2.55
7.537665843963623,3.14,2.26,-0.08,3.86
7.55254602432251,3.65,1.85,1.15,4.25
7.583413124084473,4.0,2.07,2.42,5.11
7.584810972213745,4.36,2.9,3.14,6.1
7.585830926895142,4.88,4.35,3.07,7.22
7.602869987487793,5.89,5.19,2.05,8.11
7.60391902923584,7.3,5.61,0.93,9.25
7.619556903839111,9.32,6.58,0.43,11.41
7.621026039123535,11.04,7.72,0.35,13.47
7.636465072631836,8.76,13.92,0.05,16.44
7.637999057769775,12.35,11.53,-1.1,16.93
7.651479005813599,19.55,7.99,1.67,21.18
7.679675102233887,19.81,4.75,3.54,20.67
7.681085109710693,16.82,4.81,4.3,18.01
7.682199001312256,15.05,6.0,5.73,17.18
7.70320987701416,14.15,6.44,7.28,17.16
7.704237937927246,12.54,4.86,7.18,15.24
7.719419956207275,6.5,-0.66,2.92,7.15
7.720921039581299,-2.82,-1.66,-2.22,3.95
7.73626708984375,-6.83,4.27,-1.65,8.22
7.737754821777344,-2.5,9.55,3.88,10.6
7.75179386138916,4.2,3.21,4.18,6.73
7.779740810394287,6.12,-3.3,1.58,7.13
7.7811279296875,5.3,-2.08,1.14,5.8
7.782114028930664,4.86,-0.11,1.95,5.23
7.803226947784424,4.32,0.0,1.94,4.73
7.804289817810059,3.53,-0.35,1.59,3.88
7.819276809692383,2.42,-0.47,1.46,2.86
7.820301055908203,1.56,-0.53,1.64,2.32
7.836442947387695,0.99,-0.26,1.92,2.17
7.837939977645874,0.79,0.06,2.12,2.26
7.851719856262207,0.44,-0.06,1.45,1.51
7.878026962280273,-0.11,-0.1,0.39,0.41
7.879363059997559,-0.22,0.2,-0.22,0.36
7.880401134490967,-0.01,0.44,-0.54,0.69
7.882926940917969,0.01,0.35,-0.86,0.92
7.886022090911865,-0.1,0.15,-1.1,1.11
7.896014928817749,-0.23,0.12,-1.22,1.24
7.906067848205566,-0.3,0.18,-1.19,1.24
7.915924072265625,-0.21,0.03,-1.19,1.2
7.926254987716675,0.08,-0.09,-1.03,1.03
7.9359540939331055,0.41,0.0,-0.4,0.57
7.945746898651123,0.41,0.1,0.42,0.59
7.976635932922363,0.21,0.11,0.93,0.95
7.977758884429932,-0.09,0.08,1.02,1.02
7.979054927825928,-0.29,0.15,0.93,0.98
7.985148906707764,-0.33,0.24,0.73,0.83
7.9951910972595215,-0.14,0.19,0.27,0.35
8.004939079284668,0.36,0.0,-0.23,0.42
8.015262126922607,0.92,-0.22,-0.67,1.15
8.025260925292969,1.17,-0.32,-0.41,1.28
8.035242080688477,0.84,-0.13,0.06,0.85
8.0451021194458,0.21,0.01,0.16,0.26
8.075040817260742,-0.24,0.0,0.5,0.55
8.076200008392334,-0.32,-0.1,0.68,0.75
8.077476024627686,-0.23,-0.01,0.85,0.88
8.086548805236816,0.06,-0.04,0.9,0.9
8.094733953475952,0.27,-0.05,0.69,0.74
8.104372024536133,0.3,-0.06,0.5,0.58
8.114657878875732,0.16,-0.05,0.4,0.43
8.124748945236206,0.15,0.05,0.52,0.54
8.134623050689697,0.25,0.23,0.48,0.58
8.144429922103882,0.23,0.3,0.07,0.38
8.175673961639404,0.12,0.21,-0.32,0.4
8.176968097686768,0.0,0.13,-0.36,0.38
8.178071975708008,-0.01,0.28,-0.3,0.41
8.183681964874268,-0.11,0.5,-0.33,0.6
8.193849086761475,-0.3,0.58,-0.56,0.86
8.203531980514526,-0.29,0.64,-0.74,1.02
8.213656902313232,-0.41,0.59,-0.87,1.12
8.223743915557861,-0.71,0.55,-1.36,1.62
8.233771800994873,-0.92,0.51,-1.73,2.02
8.243693828582764,-1.07,0.45,-1.63,2.0
8.274282932281494,-1.36,0.52,-1.32,1.96
8.27567195892334,-1.73,0.67,-1.14,2.17
8.276681900024414,-1.94,0.77,-1.13,2.37
8.286879062652588,-2.17,0.92,-1.2,2.64
8.2931649684906,-2.35,1.06,-1.15,2.82
8.30293607711792,-2.39,1.14,-1.07,2.85
8.312828063964844,-2.16,1.28,-1.04,2.71
8.323041915893555,-1.97,1.5,-1.06,2.69
8.33309292793274,-2.27,2.22,-0.94,3.31
8.34317684173584,-2.65,3.0,-1.15,4.16
8.379647016525269,-2.43,3.2,-1.31,4.22
8.381045818328857,-2.51,3.41,-1.37,4.45
8.382081985473633,-2.79,3.39,-1.96,4.8
8.384551048278809,-2.75,3.25,-2.42,4.89
8.392421960830688,-2.54,3.3,-2.5,4.85
8.402331829071045,-2.84,3.58,-2.54,5.22
8.412178039550781,-3.58,3.98,-2.75,6.01
8.422202110290527,-4.14,4.24,-2.93,6.61
8.432383060455322,-4.56,4.27,-3.34,7.08
8.442199945449829,-5.06,4.39,-3.71,7.65
8.477789878845215,-5.35,4.44,-3.68,7.86
8.479121923446655,-5.14,3.94,-3.81,7.51
8.480094909667969,-4.69,3.33,-4.18,7.11
8.482743978500366,-3.79,2.74,-4.36,6.39
8.50255298614502,-2.6,2.5,-4.24,5.56
8.50353479385376,-2.25,3.64,-4.45,6.17
8.51915192604065,-2.38,5.09,-4.77,7.37
8.521102905273438,-1.97,6.77,-3.23,7.75
8.534955024719238,0.87,8.79,-0.52,8.84
8.541409969329834,2.08,6.78,-0.92,7.15
8.577570915222168,-0.19,3.16,-3.13,4.45
8.578808784484863,-2.53,1.77,-4.97,5.85
8.579997062683105,-4.01,0.45,-5.3,6.66
8.58345079421997,-5.33,-2.77,-5.51,8.15
8.602863788604736,-4.62,-6.34,-4.19,8.89
8.603918075561523,1.07,-3.24,-0.87,3.52
8.619877815246582,1.09,-1.97,0.02,2.25
8.621357917785645,-3.16,-3.03,-1.75,4.71
8.635334968566895,-6.85,-3.09,-3.13,8.14
8.64074993133545,-9.02,-3.28,-3.16,10.1
8.679129123687744,-9.78,-3.5,-2.53,10.69
8.680306911468506,-9.42,-3.68,-1.46,10.21
8.681285858154297,-8.32,-4.18,-0.5,9.32
8.68354082107544,-7.23,-4.7,0.13,8.62
8.68998098373413,-6.55,-4.58,0.39,8.0
8.700168132781982,-6.25,-3.95,0.5,7.41
8.71005392074585,-6.21,-3.15,0.47,6.97
8.720158100128174,-6.37,-2.44,0.23,6.82
8.72996187210083,-6.51,-1.75,-0.07,6.74
8.74001693725586,-6.52,-1.12,-0.44,6.63
8.750034809112549,-6.15,-0.46,-0.76,6.21
8.782979965209961,-5.1,0.14,-0.85,5.17
8.784152030944824,-3.41,0.24,-0.94,3.54
8.785123825073242,-1.85,0.06,-0.93,2.07
8.803592920303345,-1.28,-0.18,-0.68,1.46
8.80466604232788,-1.55,-0.16,-0.31,1.58
8.820133924484253,-1.65,0.44,-0.09,1.71
8.821604013442993,-1.36,1.14,0.08,1.77
8.837099075317383,-0.75,1.74,0.17,1.9
8.839076042175293,0.04,2.35,0.31,2.37
8.852000951766968,0.62,2.93,0.8,3.09
8.881402969360352,1.06,3.37,1.62,3.88
8.882847785949707,1.26,3.5,2.03,4.23
8.88385009765625,1.35,3.95,1.89,4.58
8.903839111328125,2.23,4.99,1.63,5.7
8.905309915542603,4.08,5.51,1.26,6.97
8.919984817504883,6.16,5.77,1.03,8.5
8.921459913253784,6.92,8.84,0.64,11.24
8.93700098991394,6.98,11.94,-0.69,13.84
8.938500881195068,12.21,7.81,-1.11,14.53
8.952136993408203,16.39,5.44,1.46,17.33
8.981015920639038,15.71,3.63,2.65,16.34
8.982376098632812,13.35,3.41,2.67,14.03
8.98335886001587,11.51,3.43,3.16,12.41
9.003332138061523,10.55,3.07,3.94,11.67
9.004438877105713,10.32,2.61,4.45,11.53
9.020139932632446,10.04,1.9,4.2,11.04
9.021644115447998,9.37,1.18,3.96,10.24
9.037209033966064,9.32,1.09,3.59,10.04
9.038692951202393,9.04,0.04,2.29,9.32
9.051631927490234,4.91,-2.0,-0.9,5.37
9.079960823059082,-1.15,-1.2,-3.35,3.73
9.0814049243927,-3.27,2.71,-2.4,4.87
9.08243703842163,-0.89,6.46,0.19,6.52
9.08693790435791,0.68,7.68,2.14,8.0
9.096800804138184,3.85,7.78,2.74,9.1
9.107074975967407,6.62,1.43,0.57,6.79
9.116963863372803,4.64,0.46,0.3,4.67
9.126940965652466,1.95,1.62,2.82,3.79
9.136919975280762,0.17,-1.19,3.77,3.95
9.146683931350708,0.26,-2.91,3.41,4.49
9.184314012527466,1.19,-2.48,2.64,3.81
9.185619831085205,1.75,-1.7,1.66,2.95
9.186627864837646,1.85,-0.46,1.25,2.27
9.203866004943848,1.66,0.24,1.01,1.95
9.2049241065979,1.64,0.01,0.61,1.74
9.219746112823486,1.92,-0.06,0.53,1.99
9.220794916152954,1.99,0.11,0.24,2.0
9.237061023712158,1.54,0.16,-0.16,1.55
9.23851490020752,0.88,0.2,0.09,0.9
9.252195835113525,0.25,0.19,0.56,0.64
9.283751010894775,-0.3,0.19,0.39,0.52
9.285019874572754,-0.63,0.26,-0.1,0.68
9.286062002182007,-0.65,0.18,-0.28,0.73
9.30432391166687,-0.2,0.07,-0.21,0.29
9.305361986160278,0.37,0.11,-0.19,0.43
9.32017993927002,0.62,0.09,-0.46,0.77
9.32165002822876,0.7,0.01,-0.72,1.0
9.336977005004883,0.73,-0.06,-0.76,1.05
9.338470935821533,0.68,-0.02,-0.31,0.74
9.352128982543945,0.68,0.11,0.31,0.75
9.383749008178711,0.46,0.19,0.64,0.81
9.385075092315674,0.09,0.23,0.6,0.64
9.386094093322754,-0.19,0.28,0.52,0.62
9.403810977935791,-0.22,0.3,0.25,0.44
9.404880046844482,-0.08,0.31,-0.21,0.38
9.42034912109375,0.03,0.23,-0.38,0.44
9.421783924102783,0.03,0.24,-0.33,0.4
9.436849117279053,-0.03,0.2,-0.48,0.52
9.438309907913208,-0.12,0.04,-0.45,0.46
9.452003002166748,-0.31,0.05,-0.4,0.5
9.482747077941895,-0.3,0.19,-0.33,0.48
9.484179019927979,-0.17,0.14,-0.07,0.23
9.485191822052002,-0.18,0.1,0.06,0.21
9.50412893295288,-0.15,0.13,0.02,0.19
9.505579948425293,-0.16,0.15,0.07,0.23
9.52131700515747,-0.18,0.18,0.01,0.25
9.522753953933716,-0.04,0.1,0.0,0.1
9.537192821502686,0.12,0.11,0.14,0.21
9.538632869720459,0.15,0.06,0.23,0.28
9.552331924438477,0.11,0.11,0.15,0.21
9.553791999816895,-0.09,0.2,0.13,0.25
9.60301399230957,-0.37,0.37,-0.03,0.52
9.60419511795044,-0.57,0.41,-0.17,0.72
9.605216026306152,-0.63,0.4,-0.23,0.78
9.621074914932251,-0.66,0.5,-0.48,0.95
9.622143983840942,-0.81,0.53,-0.63,1.15
9.63718295097351,-0.94,0.57,-0.55,1.22
9.638648986816406,-0.97,0.54,-0.25,1.13
9.653627872467041,-1.19,0.9,-0.46,1.56
9.655110836029053,-1.55,1.09,-1.03,2.15
9.669349908828735,-2.47,1.13,-1.43,3.06
9.698444843292236,-3.01,1.68,-1.14,3.63
9.69983196258545,-2.68,1.81,-0.84,3.34
9.700875997543335,-2.58,1.88,-0.65,3.25
9.720573902130127,-2.78,2.15,-0.87,3.62
9.721625804901123,-3.03,2.27,-1.18,3.96
9.737138986587524,-3.08,2.71,-1.35,4.31
9.738617897033691,-2.94,3.1,-1.53,4.53
9.753382921218872,-3.08,3.3,-1.94,4.91
9.754792928695679,-3.44,3.47,-2.35,5.42
9.769618034362793,-3.67,3.64,-2.49,5.73
9.798105001449585,-3.83,3.72,-2.56,5.92
9.799488067626953,-4.23,3.88,-2.94,6.44
9.800472021102905,-4.99,4.23,-3.23,7.29
9.82079291343689,-5.45,4.35,-3.07,7.61
9.821839809417725,-5.26,3.97,-3.0,7.24
9.837020874023438,-5.2,3.98,-3.4,7.37
9.838490009307861,-4.89,3.74,-3.64,7.15
9.854017972946167,-4.12,3.34,-3.74,6.48
9.855487823486328,-3.42,2.87,-4.21,6.13
9.869563102722168,-3.62,3.92,-4.49,6.97
9.897540092468262,-3.73,5.38,-4.5,7.94
9.898934841156006,-2.78,6.49,-3.62,7.93
9.899972915649414,0.64,9.19,-1.1,9.27
9.92117691040039,2.26,9.3,-0.25,9.57
9.922186851501465,0.46,6.29,-1.24,6.42
9.937472820281982,-2.04,4.53,-3.49,6.07
9.938941955566406,-3.63,2.83,-4.59,6.5
9.95389199256897,-4.51,-0.15,-4.88,6.64
9.955371856689453,-4.37,-4.57,-4.95,8.03
9.96946907043457,0.5,-4.93,-3.53,6.08
9.997612953186035,3.71,-2.09,-1.84,4.63
9.998924970626831,-0.61,-2.62,-2.35,3.57
9.999951839447021,-6.16,-2.74,-3.89,7.78
10.020689010620117,-9.52,-2.44,-4.22,10.69
10.021765947341919,-10.53,-2.59,-2.83,11.2
10.03741192817688,-10.16,-2.84,-0.86,10.58
10.038913011550903,-9.0,-3.41,0.6,9.64
10.053961992263794,-7.72,-4.07,1.27,8.81
10.055461883544922,-6.96,-4.26,1.46,8.28
10.069716930389404,-6.99,-4.13,1.15,8.19
10.098400115966797,-7.46,-3.83,0.68,8.41
10.099720001220703,-7.83,-3.41,0.62,8.56
10.100739002227783,-7.67,-2.92,1.05,8.27
10.12046480178833,-7.25,-2.81,1.46,7.91
10.121485948562622,-6.9,-2.89,1.46,7.62
10.137106895446777,-6.6,-2.64,0.94,7.17
10.138168811798096,-6.19,-1.94,0.13,6.48
10.153865814208984,-5.48,-0.85,-0.85,5.61
10.15533995628357,-4.41,0.12,-1.76,4.74
10.169675827026367,-2.75,0.65,-2.21,3.58
10.198503971099854,-0.74,0.99,-1.89,2.25
10.199779987335205,1.08,1.18,-1.31,2.06
10.200780868530273,2.76,1.38,-0.95,3.22
10.220415115356445,4.16,1.93,-1.02,4.69
10.221456050872803,4.74,2.8,-1.12,5.61
10.237231016159058,4.64,3.89,-0.99,6.13
10.238264083862305,4.38,4.97,-0.67,6.65
10.25383186340332,4.47,5.69,0.05,7.23
10.255323886871338,4.95,5.96,1.16,7.83
10.269525051116943,5.67,5.98,2.1,8.5
10.297092914581299,6.57,5.62,2.84,9.1
10.298479080200195,7.31,4.84,2.97,9.25
10.299490928649902,7.82,4.19,2.32,9.17
10.301798820495605,7.27,6.31,1.3,9.71
10.303293943405151,7.16,9.58,0.3,11.96
10.307747840881348,10.47,4.35,-0.33,11.34
10.31750202178955,13.34,2.3,0.98,13.57
10.327651977539062,12.88,2.56,1.1,13.17
10.337692022323608,11.7,2.06,0.51,11.89
10.34771990776062,11.52,2.64,0.9,11.85
10.357748031616211,11.67,3.47,1.69,12.29
10.38829493522644,11.49,4.49,2.57,12.6
10.389636039733887,10.83,5.09,3.24,12.39
10.39065408706665,8.92,3.69,3.25,10.18
10.404608011245728,3.12,0.57,1.41,3.47
10.406997919082642,-4.79,-0.45,-0.85,4.88
10.420206069946289,-8.76,-0.09,-0.43,8.77
10.427669048309326,-4.2,0.25,1.53,4.47
10.437493801116943,2.5,-1.07,0.84,2.84
10.447083950042725,5.7,-0.61,-0.14,5.73
10.457014083862305,5.71,3.54,0.14,6.71
10.489665031433105,5.74,7.29,0.99,9.33
10.49095892906189,5.97,3.56,0.16,6.95
10.491926908493042,2.55,0.79,0.03,2.66
10.505852937698364,0.43,0.47,2.01,2.1
10.506907939910889,0.3,-2.15,2.75,3.5
10.51787805557251,0.94,-3.1,2.72,4.22
10.526510000228882,2.36,-1.34,2.19,3.48
10.53769302368164,3.55,0.69,1.24,3.82
10.546365976333618,3.6,1.13,0.7,3.83
10.556293964385986,2.65,0.29,0.88,2.8
10.588572978973389,1.35,-0.54,1.34,1.97
10.590407848358154,0.25,-0.45,1.65,1.72
10.591356992721558,-0.31,0.12,1.23,1.27
10.604749917984009,-0.42,0.44,0.15,0.62
10.605827808380127,-0.37,0.4,-0.88,1.03
10.62082290649414,-0.49,0.17,-1.58,1.66
10.62567400932312,-0.48,0.03,-1.42,1.49
10.635565996170044,-0.33,0.17,-0.65,0.74
10.645404815673828,0.17,0.25,-0.14,0.33
10.655275821685791,0.52,0.07,-0.27,0.59
10.68821096420288,0.81,0.04,-0.33,0.87
10.689495086669922,0.82,0.14,-0.07,0.83
10.690501928329468,0.52,0.2,0.29,0.62
10.704579830169678,-0.01,0.25,0.32,0.4
10.70564079284668,-0.4,0.27,0.2,0.52
10.720834970474243,-0.33,0.25,-0.07,0.41
10.725000858306885,0.21,0.15,-0.13,0.28
10.737666130065918,0.82,0.03,0.12,0.82
10.7447669506073,1.14,-0.14,0.15,1.15
10.75485897064209,1.0,-0.21,-0.02,1.02
10.793713092803955,0.53,-0.08,-0.1,0.54
10.795056819915771,0.24,-0.07,-0.01,0.25
10.796169996261597,0.19,-0.32,0.18,0.41
10.801290035247803,0.15,-0.39,0.26,0.49
10.820773124694824,0.04,-0.37,0.33,0.49
10.821721076965332,0.05,-0.22,0.49,0.53
10.837495803833008,0.12,0.03,0.6,0.61
10.838977813720703,0.18,0.01,0.54,0.56
10.852839946746826,0.26,0.0,0.47,0.53
10.854249954223633,0.43,0.05,0.41,0.59
10.897218942642212,0.47,0.16,0.24,0.55
10.898360013961792,0.32,0.27,-0.03,0.41
10.899540901184082,0.15,0.27,-0.16,0.34
10.900888919830322,-0.11,0.31,-0.19,0.37
10.903414964675903,-0.33,0.35,-0.42,0.63
10.91335391998291,-0.61,0.32,-0.77,1.03
10.923573017120361,-0.93,0.34,-1.04,1.43
10.93354082107544,-1.2,0.48,-0.94,1.59
10.943467140197754,-1.46,0.73,-0.72,1.78
10.953311920166016,-1.72,0.91,-0.52,2.01
10.989997863769531,-1.97,0.95,-0.56,2.25
10.991167068481445,-2.05,0.91,-0.83,2.39
10.992164134979248,-1.74,0.9,-1.12,2.25
11.004578113555908,-1.6,0.81,-1.44,2.29
11.005638122558594,-1.63,0.62,-1.58,2.35
11.020646095275879,-1.74,0.67,-1.47,2.37
11.02226209640503,-2.23,0.89,-1.72,2.95
11.037885904312134,-2.35,1.4,-1.77,3.25
11.042557954788208,-2.28,2.66,-1.18,3.69
11.053128957748413,-2.37,3.76,-0.58,4.48
11.088705062866211,-2.11,3.83,-0.55,4.4
11.089983940124512,-2.13,3.81,-0.75,4.42
11.091052055358887,-2.42,3.66,-1.02,4.5
11.104703903198242,-2.74,3.67,-1.26,4.75
11.105775833129883,-3.02,3.92,-1.55,5.18
11.120705127716064,-3.56,4.39,-2.01,5.99
11.12175703048706,-4.14,4.48,-2.36,6.54
11.13774299621582,-4.22,3.97,-2.67,6.37
11.14179801940918,-4.41,3.9,-3.07,6.63
11.153013944625854,-4.54,3.69,-3.17,6.65
11.161659002304077,-4.2,3.1,-3.23,6.13
11.194159984588623,-3.78,2.89,-3.52,5.91
11.195329904556274,-3.2,2.6,-3.69,5.53
11.196608066558838,-2.36,2.38,-3.94,5.17
11.201024055480957,-2.13,3.02,-4.02,5.46
11.21119213104248,-2.44,4.17,-3.91,6.21
11.221086025238037,-2.22,5.25,-3.43,6.65
11.230816841125488,0.0,7.28,-2.01,7.55
11.241022109985352,2.02,9.05,-1.78,9.44
11.251163959503174,0.5,6.95,-2.91,7.55
11.260965824127197,-1.7,4.75,-4.31,6.63
11.292652130126953,-3.1,3.03,-4.74,6.42
11.29394006729126,-4.03,0.46,-4.9,6.36
11.294955015182495,-4.64,-3.64,-5.18,7.84
11.304687023162842,-2.08,-5.92,-4.76,7.87
11.310236930847168,3.3,-1.83,-3.04,4.84
11.32023000717163,1.47,-1.11,-2.83,3.37
11.330578804016113,-3.98,-2.21,-4.48,6.38
11.340258121490479,-8.04,-2.06,-5.27,9.83
11.350440979003906,-9.79,-2.09,-4.25,10.87
11.360108852386475,-9.9,-2.46,-2.26,10.44
11.393253803253174,-9.34,-2.84,-0.37,9.76
11.394644975662231,-8.43,-3.65,0.75,9.21
11.3957359790802,-7.73,-4.42,1.26,8.99
11.404210090637207,-7.5,-4.56,1.53,8.9
11.409462928771973,-7.43,-4.21,1.49,8.66
11.419693946838379,-7.34,-3.7,1.3,8.32
11.429794788360596,-7.17,-3.32,1.02,7.96
11.439466953277588,-7.01,-3.14,0.69,7.71
11.44960880279541,-6.74,-2.77,0.47,7.3
11.459231853485107,-6.31,-2.34,0.24,6.73
11.490610122680664,-5.43,-1.73,-0.24,5.7
11.491922855377197,-4.09,-1.06,-1.04,4.35
11.492958068847656,-2.74,-0.58,-1.86,3.36
11.505621910095215,-1.59,-0.26,-2.1,2.64
11.508759021759033,-0.71,-0.07,-1.76,1.89
11.520314931869507,-0.07,0.11,-1.3,1.3
11.528882026672363,0.54,0.5,-0.83,1.1
11.538693904876709,1.25,1.14,-0.54,1.77
11.548789978027344,2.07,1.92,-0.42,2.85
11.558617115020752,2.76,2.56,-0.31,3.77
11.596557140350342,3.09,3.13,-0.21,4.4
11.59788990020752,3.24,3.72,0.01,4.93
11.598856925964355,3.18,4.33,0.58,5.4
11.601241111755371,3.32,5.01,0.95,6.08
11.608005046844482,4.01,5.59,1.15,6.97
11.61786413192749,5.25,6.26,1.58,8.32
11.627863883972168,6.9,6.35,1.75,9.53
11.63825798034668,7.48,7.01,1.43,10.35
11.647992134094238,5.87,10.96,0.96,12.46
11.65806794166565,8.62,5.61,0.66,10.3
11.695029020309448,12.76,4.36,3.58,13.95
11.696347951889038,13.23,4.67,4.17,14.63
11.697336912155151,12.03,4.11,3.06,13.07
11.700613975524902,10.91,3.9,3.03,11.97
11.721019983291626,10.43,4.09,3.21,11.65
11.722087860107422,10.55,4.07,3.42,11.81
11.737950801849365,10.64,3.37,3.48,11.69
11.7394380569458,10.19,2.45,3.65,11.09
11.753473997116089,9.34,1.47,3.97,10.25
11.757241010665894,7.58,-0.52,3.22,8.25
11.795929908752441,2.28,-2.58,0.91,3.56
11.797107934951782,-4.73,-2.99,-1.02,5.68
11.798318862915039,-8.23,-1.35,-1.31,8.44
11.800835132598877,-3.76,1.43,-0.46,4.04
11.821161985397339,2.02,3.53,-0.67,4.12
11.822225093841553,5.31,8.87,1.49,10.44
11.838243007659912,8.92,6.05,1.51,10.88
11.83970308303833,6.36,2.87,0.72,7.01
11.853678941726685,2.17,1.74,1.14,3.0
11.85631799697876,-0.02,-2.1,2.44,3.21
11.897347927093506,-0.25,-3.79,3.38,5.08
11.898525953292847,0.97,-2.03,3.11,3.83
11.899739980697632,1.93,-0.11,2.21,2.93
11.901253938674927,2.26,0.76,1.11,2.63
11.905759811401367,2.13,0.17,-0.15,2.14
11.915795803070068,1.88,-0.68,-0.32,2.02
11.925757884979248,1.42,-0.6,0.27,1.56
11.936017990112305,0.89,-0.16,1.07,1.4
11.945886135101318,0.39,0.23,1.58,1.64
11.955784797668457,-0.15,0.35,0.94,1.01
11.965680122375488,-0.5,0.29,-0.35,0.67
11.998317003250122,-0.59,0.23,-1.07,1.24
11.999476909637451,-0.41,0.15,-0.75,0.86
12.000473976135254,0.01,0.1,-0.09,0.13
12.021734952926636,0.42,-0.02,-0.03,0.42
12.022770881652832,0.88,0.03,-0.29,0.92
12.038136959075928,0.86,-0.01,-0.68,1.09
12.03961992263794,0.72,0.11,-0.47,0.86
12.05452585220337,0.43,0.2,0.04,0.47
12.05596113204956,0.04,0.09,0.46,0.47
12.070164918899536,-0.14,0.08,0.67,0.68
12.099152088165283,0.1,0.15,0.65,0.67
12.100414991378784,0.53,0.07,0.53,0.75
12.101416110992432,0.76,-0.11,0.24,0.8
12.121726989746094,0.7,-0.13,0.03,0.71
12.12274694442749,0.5,-0.08,-0.17,0.53
12.138113975524902,0.45,-0.05,-0.23,0.5
12.139596939086914,0.38,0.0,-0.18,0.42
12.15468692779541,0.16,0.03,0.04,0.16
12.156128883361816,-0.04,0.05,0.26,0.26
12.170390129089355,-0.08,0.07,0.45,0.46
12.200438976287842,-0.08,0.0,0.46,0.46
12.2015700340271,-0.13,-0.02,0.51,0.52
12.202709913253784,-0.16,0.04,0.4,0.43
12.22165584564209,-0.07,0.1,0.12,0.17
12.222725868225098,0.04,0.08,0.04,0.09
12.23815107345581,0.1,0.09,-0.03,0.13
12.239548921585083,0.15,0.07,-0.03,0.16
12.254385948181152,0.15,0.09,0.09,0.19
12.255648136138916,0.14,0.12,0.16,0.24
12.270088911056519,0.07,0.15,0.08,0.18
12.298552989959717,-0.12,0.13,-0.06,0.18
12.299776077270508,-0.28,0.2,-0.1,0.35
12.300798892974854,-0.39,0.27,-0.29,0.55
12.322321891784668,-0.53,0.31,-0.55,0.82
12.323773860931396,-0.74,0.36,-0.66,1.05
12.338289022445679,-0.99,0.39,-0.72,1.28
12.339725017547607,-1.5,0.41,-0.43,1.61
12.354717016220093,-1.85,0.46,-0.35,1.93
12.356184005737305,-1.73,0.63,-0.5,1.9
12.370536804199219,-1.59,0.84,-0.62,1.9
12.400070905685425,-1.12,1.08,-0.86,1.77
12.401510953903198,-0.69,1.09,-0.98,1.62
12.402499914169312,-0.45,1.03,-1.08,1.55
12.422351837158203,-0.33,1.13,-1.09,1.6
12.42333698272705,-0.41,1.12,-1.06,1.59
12.43839406967163,-0.58,1.12,-1.3,1.81
12.439733028411865,-1.3,1.15,-2.06,2.69
12.454701900482178,-2.5,2.11,-1.92,3.79
12.456110000610352,-2.91,3.48,-1.86,4.9
12.471415996551514,-2.53,3.4,-2.33,4.83
12.500736951828003,-2.55,3.49,-1.82,4.68
12.502026081085205,-3.08,3.48,-2.07,5.08
12.503047943115234,-3.71,3.87,-2.29,5.82
12.52186894416809,-4.14,4.16,-2.63,6.43
12.522918939590454,-4.16,4.08,-2.88,6.49
12.538401126861572,-4.47,4.42,-2.62,6.81
12.539866924285889,-5.04,4.68,-2.77,7.41
12.55481481552124,-5.43,4.5,-3.02,7.67
12.556224822998047,-5.65,4.24,-2.99,7.67
12.571166038513184,-5.44,3.45,-3.12,7.15
12.60288381576538,-5.05,3.03,-3.43,6.81
12.60417890548706,-4.18,2.62,-3.52,6.06
12.605232000350952,-2.99,2.69,-3.59,5.39
12.622004985809326,-2.39,3.46,-3.7,5.6
12.623325824737549,-2.47,4.71,-3.61,6.42
12.638431072235107,-1.96,6.5,-3.17,7.49
12.639906883239746,0.94,9.22,-2.34,9.55
12.65446400642395,1.37,9.1,-3.16,9.72
12.655933856964111,-1.42,5.89,-4.08,7.3
12.670687913894653,-3.77,3.62,-4.63,6.98
12.702258110046387,-4.89,1.57,-4.36,6.73
12.70354413986206,-5.62,-1.14,-4.25,7.13
12.704556941986084,-5.06,-4.54,-4.39,8.09
12.72246789932251,0.5,-3.39,-3.03,4.57
12.723928928375244,3.21,-1.23,-1.53,3.76
12.73851990699768,-0.95,-1.95,-2.49,3.3
12.739916801452637,-5.85,-1.95,-3.75,7.21
12.754974842071533,-8.92,-2.21,-3.65,9.88
12.75644302368164,-9.91,-2.69,-2.54,10.57
12.770357131958008,-9.58,-3.11,-1.22,10.14
12.771825790405273,-8.58,-3.73,-0.12,9.35
12.821269989013672,-7.66,-4.33,0.55,8.81
12.822454929351807,-7.11,-4.52,0.66,8.45
12.823446989059448,-6.78,-4.28,0.52,8.03
12.839154958724976,-6.51,-3.91,0.58,7.61
12.840211868286133,-6.35,-3.79,0.72,7.43
12.855445861816406,-6.29,-3.69,0.86,7.34
12.856889963150024,-6.3,-3.41,1.16,7.25
12.871985912322998,-6.32,-2.94,1.28,7.08
12.873462915420532,-6.37,-2.47,0.91,6.89
12.887271881103516,-6.17,-1.58,0.28,6.37
12.91893482208252,-5.46,-0.68,-0.75,5.55
12.920248031616211,-4.03,0.02,-1.63,4.34
12.921272993087769,-2.19,0.67,-1.59,2.78
12.939282894134521,-0.32,1.24,-0.71,1.46
12.94074010848999,1.5,1.81,0.41,2.38
12.955298900604248,2.82,2.08,1.28,3.73
12.956746101379395,2.86,2.01,1.56,3.82
12.972137928009033,2.07,2.56,1.33,3.55
12.973570823669434,2.04,3.8,1.24,4.48
12.987246990203857,3.4,4.88,1.59,6.15
13.019209861755371,5.61,5.32,2.2,8.03
13.020818948745728,7.72,4.87,2.36,9.42
13.021785020828247,8.62,4.57,1.99,9.95
13.03919506072998,8.61,4.52,1.62,9.85
13.04062294960022,9.08,4.4,1.37,10.18
13.05472707748413,9.57,3.96,0.99,10.4
13.056196928024292,8.18,6.15,0.86,10.27
13.072132110595703,6.89,10.79,0.49,12.81
13.073596000671387,11.6,6.48,0.48,13.29
13.087389945983887,14.86,4.24,2.17,15.6
13.117692947387695,14.1,2.66,2.3,14.53
13.119082927703857,12.69,3.63,2.62,13.45
13.120075941085815,12.55,5.49,4.04,14.28
13.138797998428345,12.18,6.04,5.24,14.57
13.13985300064087,9.64,3.09,4.44,11.05
13.155174970626831,2.57,-1.74,0.85,3.21
13.156651973724365,-5.27,-2.38,-1.93,6.09
13.172122955322266,-7.55,-0.47,-1.05,7.63
13.173628807067871,-1.11,1.0,1.71,2.27
13.187325954437256,5.74,1.05,1.35,5.98
13.215999126434326,7.27,3.61,1.38,8.23
13.217232942581177,7.24,6.27,1.93,9.77
13.218235969543457,7.55,2.75,0.56,8.05
13.238969802856445,4.14,0.59,-0.67,4.23
13.239972114562988,0.86,0.09,0.96,1.29
13.255362033843994,-0.23,-1.12,2.59,2.83
13.25682783126831,0.96,-1.03,2.71,3.05
13.2721529006958,1.76,-0.07,2.21,2.82
13.273589134216309,1.66,0.24,1.59,2.31
13.287423133850098,1.45,0.11,1.05,1.79
13.31662893295288,1.25,-0.29,1.11,1.69
13.318099975585938,1.15,-0.55,1.29,1.81
13.319153785705566,0.88,-0.37,1.38,1.67
13.338802814483643,0.06,0.0,1.18,1.18
13.339839935302734,-0.71,0.3,0.26,0.81
13.355207920074463,-1.01,0.46,-0.78,1.35
13.35662293434143,-1.08,0.48,-1.33,1.77
13.372119903564453,-0.87,0.16,-1.36,1.62
13.373618125915527,-0.2,-0.17,-0.97,1.0
13.387502908706665,0.58,-0.05,-0.39,0.7
13.41711711883545,0.88,0.03,-0.2,0.9
13.41851282119751,0.79,0.0,-0.08,0.79
13.419556140899658,0.56,-0.04,0.02,0.56
13.438792943954468,0.23,0.03,0.27,0.35
13.439790964126587,-0.12,0.09,0.62,0.63
13.455959796905518,-0.34,0.19,0.86,0.94
13.457396984100342,-0.25,0.28,0.87,0.94
13.472311019897461,0.06,0.22,0.48,0.53
13.473763942718506,0.48,0.02,-0.02,0.48
13.487462043762207,0.9,-0.07,-0.24,0.93
13.515552043914795,0.88,-0.05,-0.25,0.91
13.516894817352295,0.53,0.07,-0.11,0.54
13.51787281036377,0.11,0.25,-0.21,0.34
13.539276123046875,-0.23,0.35,-0.37,0.55
13.540318012237549,-0.14,0.24,-0.1,0.29
13.55532693862915,0.25,0.01,0.29,0.38
13.556806087493896,0.41,-0.19,0.35,0.57
13.57254695892334,0.34,-0.17,0.1,0.39
13.573998928070068,0.24,-0.12,-0.04,0.27
13.587827920913696,0.18,-0.03,0.0,0.18
13.58928108215332,0.17,0.09,0.07,0.2
13.633777141571045,0.14,0.08,0.09,0.18
13.634971141815186,0.16,0.05,0.15,0.22
13.636016845703125,0.15,0.06,0.26,0.3
13.655961990356445,0.04,0.13,0.24,0.27
13.657369136810303,-0.04,0.13,0.18,0.22
13.671899795532227,-0.11,0.06,0.14,0.18
13.673325061798096,-0.23,0.09,0.07,0.25
13.688323020935059,-0.34,0.12,0.05,0.36
13.689767837524414,-0.41,0.18,0.12,0.46
13.704442024230957,-0.51,0.36,-0.01,0.62
13.734803915023804,-0.54,0.49,-0.3,0.78
13.736082077026367,-0.45,0.49,-0.53,0.85
13.737030982971191,-0.5,0.4,-0.72,0.96
13.755545139312744,-0.73,0.23,-0.84,1.13
13.756592988967896,-1.13,0.15,-0.82,1.4
13.772189140319824,-1.58,0.21,-0.78,1.77
13.773656845092773,-1.75,0.41,-0.68,1.92
13.789001941680908,-1.71,0.71,-0.54,1.92
13.790295124053955,-1.59,0.97,-0.62,1.96
13.804239988327026,-1.44,0.94,-0.68,1.84
13.8335280418396,-1.29,0.68,-0.7,1.61
13.834901809692383,-1.16,0.62,-0.74,1.5
13.835899829864502,-0.93,0.72,-0.73,1.38
13.855407953262329,-0.96,0.94,-0.56,1.45
13.85644793510437,-0.81,1.44,-0.87,1.86
13.872127056121826,-1.07,2.48,-1.92,3.31
13.873591899871826,-1.02,3.22,-1.93,3.89
13.88890790939331,-0.84,2.85,-1.68,3.41
13.890350818634033,-1.34,2.61,-1.66,3.37
13.90446400642395,-2.15,2.66,-1.5,3.73
13.931579113006592,-2.89,2.88,-1.68,4.41
13.932990074157715,-3.38,3.2,-2.23,5.16
13.9339759349823,-3.76,3.53,-2.65,5.79
13.93629503250122,-3.89,3.53,-2.76,5.93
13.937549114227295,-4.16,3.77,-2.82,6.28
13.9389328956604,-4.68,4.19,-3.07,6.99
13.940463066101074,-5.12,4.13,-3.16,7.29
13.95054006576538,-5.04,3.79,-2.84,6.91
13.960569858551025,-4.76,3.45,-2.77,6.49
13.970577955245972,-4.4,2.96,-3.16,6.17
14.002429962158203,-3.74,2.46,-3.31,5.56
14.003597021102905,-3.03,2.63,-3.2,5.13
14.004604816436768,-2.58,3.2,-3.18,5.19
14.020946025848389,-2.58,4.21,-3.32,5.95
14.021930932998657,-2.29,5.59,-3.08,6.78
14.038757801055908,-0.19,7.96,-1.88,8.18
14.0397789478302,2.02,9.41,-1.93,9.81
14.055346965789795,0.21,6.79,-3.29,7.54
14.05958604812622,-2.54,4.32,-4.3,6.6
14.071247100830078,-4.31,2.52,-4.34,6.61
14.10341191291809,-5.45,0.43,-3.96,6.75
14.104764938354492,-6.27,-2.29,-3.85,7.7
14.105775833129883,-4.79,-5.37,-3.72,8.1
14.122675895690918,1.12,-2.91,-2.14,3.78
14.123744010925293,2.39,-1.13,-1.27,2.93
14.138823986053467,-1.69,-2.12,-2.56,3.72
14.139868021011353,-5.93,-2.01,-3.74,7.29
14.155715942382812,-8.43,-2.13,-3.5,9.37
14.159168004989624,-8.93,-2.47,-2.46,9.58
14.171284914016724,-8.25,-2.74,-1.1,8.76
14.204506874084473,-7.12,-3.27,0.05,7.83
14.205851078033447,-6.32,-3.92,0.44,7.44
14.206857919692993,-6.02,-4.14,0.29,7.31
14.20841097831726,-6.01,-4.03,0.13,7.23
14.218634128570557,-6.18,-3.85,0.2,7.28
14.228562831878662,-6.37,-3.41,0.56,7.24
14.238387107849121,-6.36,-3.03,0.96,7.11
14.24829912185669,-6.13,-2.81,1.13,6.83
14.258556842803955,-5.93,-2.58,0.97,6.53
14.268500804901123,-5.82,-2.03,0.26,6.16
14.303715944290161,-5.29,-1.21,-0.73,5.47
14.30488395690918,-4.06,-0.27,-1.58,4.36
14.305907011032104,-2.29,0.31,-1.96,3.03
14.323408126831055,-0.71,0.57,-1.67,1.9
14.324451923370361,0.18,0.62,-1.0,1.19
14.337896823883057,0.73,0.71,-0.27,1.05
14.338937997817993,1.43,1.28,0.06,1.92
14.3557767868042,2.13,1.89,-0.17,2.85
14.357397079467773,2.65,2.47,-0.34,3.63
14.367786884307861,3.04,2.94,-0.04,4.22
14.37705397605896,3.54,3.36,0.47,4.9
14.408850908279419,4.09,3.63,0.73,5.51
14.410048961639404,4.39,4.0,0.83,5.99
14.411256790161133,4.93,4.69,1.04,6.88
14.423174858093262,6.03,5.1,1.13,7.97
14.426687955856323,7.49,5.13,1.29,9.16
14.439642906188965,9.08,4.96,1.43,10.44
14.447554111480713,10.42,4.31,1.24,11.34
14.456795930862427,11.09,3.61,1.34,11.73
14.466847896575928,11.17,3.11,1.54,11.69
14.476722955703735,10.72,2.86,1.65,11.21
14.508527994155884,10.29,2.71,1.89,10.8
14.509902000427246,8.91,4.97,2.18,10.43
14.510889053344727,7.62,7.52,2.23,10.93
14.520695924758911,9.42,3.4,2.42,10.3
14.526267051696777,10.91,1.75,3.68,11.64
14.537635803222656,10.64,0.44,3.66,11.26
14.546204090118408,8.94,0.57,3.48,9.61
14.556113004684448,6.08,1.57,3.32,7.1
14.565948963165283,0.4,0.78,1.54,1.77
14.57595682144165,-6.44,0.96,-0.76,6.55
14.607370853424072,-7.52,2.7,-0.55,8.0
14.60866093635559,-1.21,4.88,0.52,5.05
14.609685897827148,3.86,5.67,0.1,6.85
14.623196125030518,5.17,5.8,1.11,7.84
14.62528395652771,6.31,3.21,1.74,7.29
14.638932943344116,5.06,-1.3,0.15,5.22
14.645437955856323,2.27,-0.33,0.46,2.33
14.655436992645264,1.69,-0.56,2.24,2.86
14.665502071380615,2.08,-2.14,2.97,4.21
14.67511796951294,3.56,-2.1,2.69,4.93
14.707063913345337,4.24,-0.82,1.66,4.62
14.708850860595703,3.78,0.38,1.27,4.0
14.709872961044312,2.72,0.64,1.15,3.02
14.722968101501465,1.45,-0.12,0.51,1.54
14.724493026733398,0.57,-0.44,-0.01,0.72
14.739381790161133,-0.06,0.08,-0.09,0.13
14.744621992111206,-0.39,0.48,0.31,0.69
14.755844116210938,-0.55,0.44,0.5,0.86
14.764742851257324,-0.55,0.14,0.39,0.68
14.774436950683594,-0.32,-0.08,0.26,0.42
14.812338829040527,-0.01,-0.07,-0.17,0.18
14.813699960708618,0.09,0.06,-0.63,0.63
14.814702033996582,0.1,0.09,-0.76,0.77
14.819036960601807,0.23,0.05,-0.69,0.72
14.823811054229736,0.53,0.11,-0.33,0.63
14.839236974716187,0.58,0.1,0.05,0.59
14.843652963638306,0.47,0.03,0.13,0.48
14.855885028839111,0.25,0.13,-0.02,0.28
14.863943099975586,-0.07,0.26,0.02,0.27
14.873637914657593,-0.23,0.19,-0.02,0.29
14.911221981048584,-0.14,0.13,-0.26,0.32
14.912580966949463,0.04,0.13,-0.24,0.27
14.913547039031982,0.21,-0.03,-0.06,0.22
14.922904014587402,0.33,-0.17,-0.12,0.39
14.923967838287354,0.28,-0.15,-0.26,0.41
14.939144134521484,0.09,-0.1,-0.42,0.44
14.94320797920227,-0.11,0.01,-0.62,0.62
14.955923080444336,-0.2,0.08,-0.58,0.61
14.96292495727539,-0.17,0.08,-0.22,0.28
14.97292709350586,-0.09,0.1,0.22,0.25
15.010262966156006,0.2,0.04,0.63,0.66
15.01170301437378,0.53,-0.09,0.81,0.97
15.012691974639893,0.72,-0.19,0.81,1.1
15.023250102996826,0.8,-0.14,0.69,1.06
15.024250030517578,0.8,-0.08,0.54,0.96
15.039508819580078,0.72,0.0,0.4,0.82
15.042450904846191,0.5,0.07,0.18,0.53
15.05562686920166,0.21,-0.01,0.12,0.24
15.062299966812134,-0.23,-0.01,0.42,0.47
15.07210397720337,-0.71,0.07,0.7,0.99
15.109809875488281,-0.91,0.15,0.33,0.97
15.111104011535645,-0.75,0.36,0.02,0.83
15.112115859985352,-0.49,0.48,-0.13,0.69
15.122620105743408,-0.49,0.49,-0.37,0.78
15.123591899871826,-0.6,0.48,-0.75,1.07
15.139200925827026,-0.77,0.52,-1.03,1.38
15.141387939453125,-1.01,0.45,-1.22,1.64
15.155916929244995,-1.16,0.34,-0.93,1.52
15.16153597831726,-1.47,0.42,-0.43,1.58
15.171730995178223,-1.83,0.59,-0.44,1.97
15.181467056274414,-2.08,0.64,-0.66,2.27
15.212263107299805,-2.05,0.66,-0.99,2.37
15.2134370803833,-1.79,0.72,-1.24,2.29
15.214684963226318,-1.46,1.05,-1.49,2.33
15.22096586227417,-1.43,1.43,-2.06,2.88
15.230978012084961,-1.37,1.78,-2.61,3.44
15.24073600769043,-1.09,1.88,-2.76,3.51
15.25069808959961,-1.0,2.06,-2.52,3.4
15.260769844055176,-1.51,3.13,-1.87,3.94
15.270905017852783,-2.69,4.89,-1.03,5.67
15.280703067779541,-3.4,5.11,-1.19,6.25
15.311860084533691,-3.79,5.28,-1.2,6.6
15.31313705444336,-4.28,5.11,-1.93,6.93
15.314241886138916,-4.64,4.78,-2.56,7.13
15.320713996887207,-4.67,4.6,-2.52,7.02
15.33003282546997,-4.49,4.64,-2.47,6.91
15.339905977249146,-4.6,4.45,-2.64,6.92
15.350101947784424,-5.01,3.82,-2.48,6.77
15.35993480682373,-4.93,3.17,-2.5,6.37
15.370060920715332,-4.28,2.67,-2.55,5.65
15.379825115203857,-3.56,2.06,-2.74,4.94
15.41127896308899,-2.97,2.09,-3.17,4.82
15.412673950195312,-3.16,3.3,-3.64,5.84
15.413713932037354,-3.92,5.13,-4.11,7.65
15.424827098846436,-3.65,6.84,-3.66,8.57
15.429264068603516,-0.53,9.36,-1.9,9.56
15.439144134521484,1.65,10.1,-1.66,10.36
15.44937801361084,-0.08,6.72,-2.83,7.29
15.459670066833496,-2.7,3.97,-4.16,6.35
15.469474792480469,-4.23,2.05,-4.34,6.39
15.479306936264038,-5.36,-0.33,-4.2,6.81
15.511281967163086,-5.88,-3.5,-4.68,8.29
15.512598991394043,-2.24,-5.39,-4.16,7.16
15.513641834259033,3.74,-2.02,-1.64,4.55
15.523303031921387,2.13,-2.26,-1.35,3.38
15.528422832489014,-2.69,-2.79,-3.07,4.94
15.539398908615112,-6.8,-2.73,-3.82,8.26
15.548789024353027,-9.03,-3.07,-3.11,10.03
15.558549880981445,-9.62,-3.39,-1.74,10.34
15.568595886230469,-9.06,-3.87,-0.46,9.86
15.578612804412842,-8.09,-4.49,0.59,9.27
15.616407871246338,-7.21,-4.98,1.16,8.83
15.617877960205078,-6.65,-5.17,1.17,8.5
15.618876934051514,-6.16,-5.05,0.77,8.0
15.640085935592651,-5.64,-4.79,0.43,7.41
15.641158103942871,-5.2,-4.53,0.37,6.9
15.656443119049072,-4.97,-4.26,0.44,6.56
15.657951831817627,-4.91,-3.75,0.56,6.2
15.673093795776367,-4.93,-3.14,0.62,5.87
15.674566984176636,-4.9,-2.53,0.48,5.53
15.688417911529541,-4.69,-1.54,-0.09,4.93
15.715975999832153,-3.76,-0.43,-1.13,3.94
15.717298984527588,-1.99,0.19,-2.44,3.15
15.71835708618164,0.06,0.63,-2.87,2.93
15.720731019973755,1.68,1.16,-1.85,2.75
15.727034091949463,2.68,1.58,-0.53,3.15
15.737143993377686,3.23,1.72,0.3,3.67
15.74707293510437,2.97,1.89,0.72,3.59
15.75716781616211,2.04,2.51,1.2,3.44
15.767035007476807,1.39,3.57,2.05,4.34
15.777023792266846,1.53,4.63,2.89,5.66
15.813400983810425,2.16,5.05,2.83,6.17
15.814831018447876,2.93,5.33,2.2,6.46
15.815835952758789,4.18,6.13,2.1,7.71
15.818967819213867,5.65,6.17,1.51,8.5
15.826653957366943,6.98,6.39,1.14,9.53
15.839449882507324,8.97,6.82,0.91,11.3
15.846321105957031,10.91,6.06,0.62,12.49
15.856324911117554,12.06,4.75,0.9,12.99
15.866390943527222,11.89,3.63,1.64,12.53
15.876299858093262,9.45,6.02,2.32,11.44
15.911717891693115,9.99,4.34,2.64,11.2
15.913064002990723,11.03,3.5,3.31,12.03
15.91408109664917,10.89,3.02,3.94,11.96
15.92281198501587,10.31,2.38,4.15,11.36
15.925472974777222,9.21,2.42,4.66,10.6
15.938672065734863,7.51,1.74,4.78,9.07
15.94533896446228,3.82,-0.03,3.15,4.95
15.956385135650635,-3.1,-1.21,0.15,3.33
15.965624809265137,-8.46,0.33,-1.75,8.64
15.9753098487854,-5.13,2.45,-0.13,5.68
15.98554801940918,2.3,3.41,0.83,4.19
16.016412019729614,5.32,5.71,1.19,7.89
16.017563819885254,6.79,7.9,1.69,10.55
16.018571853637695,8.17,3.73,0.77,9.01
16.024634838104248,4.68,0.68,0.47,4.75
16.03488779067993,1.62,-0.44,2.62,3.11
16.044914960861206,0.84,-2.35,3.19,4.05
16.05516481399536,1.89,-2.55,2.56,4.07
16.064906120300293,2.57,-1.08,2.05,3.46
16.07476806640625,2.75,-0.14,2.03,3.42
16.084773063659668,2.96,0.15,1.84,3.48
16.11689805984497,2.7,-0.08,1.14,2.93
16.11826491355896,2.04,-0.21,0.58,2.13
16.11925983428955,1.26,-0.03,0.35,1.3
16.14040994644165,0.38,0.07,0.18,0.42
16.141458988189697,-0.29,0.12,0.05,0.31
16.15657901763916,-0.63,0.27,0.07,0.68
16.15806007385254,-0.79,0.34,-0.07,0.86
16.173376083374023,-0.76,0.18,-0.44,0.89
16.174821853637695,-0.42,0.14,-0.71,0.83
16.18877601623535,-0.08,0.2,-0.88,0.9
16.21732187271118,0.05,0.1,-0.92,0.92
16.21877694129944,0.24,0.0,-0.89,0.92
16.21965980529785,0.34,0.1,-0.8,0.87
16.24042797088623,0.33,0.31,-0.34,0.56
16.24149990081787,0.2,0.24,0.12,0.33
16.256549835205078,0.08,0.07,0.38,0.39
16.258007049560547,0.26,-0.11,0.49,0.56
16.273515939712524,0.63,-0.12,0.65,0.91
16.27492094039917,0.66,-0.06,0.65,0.92
16.28895902633667,0.42,-0.02,0.5,0.65
16.31735897064209,0.14,0.03,0.58,0.59
16.318789958953857,-0.06,0.08,0.54,0.54
16.31974196434021,-0.14,0.04,0.03,0.14
16.340962886810303,-0.08,0.05,-0.51,0.51
16.342447996139526,-0.07,0.19,-0.7,0.72
16.356812953948975,-0.16,0.1,-0.51,0.54
16.358275890350342,-0.36,0.09,-0.15,0.4
16.37356400489807,-0.56,0.1,0.06,0.57
16.375024795532227,-0.57,0.17,0.22,0.63
16.38883399963379,-0.49,0.24,0.19,0.57
16.420724868774414,-0.51,0.32,-0.11,0.61
16.422099113464355,-0.69,0.27,-0.41,0.84
16.4231219291687,-0.68,0.23,-0.32,0.78
16.440463066101074,-0.52,0.26,-0.02,0.58
16.441866874694824,-0.22,0.19,0.01,0.29
16.45659303665161,0.0,0.09,0.06,0.1
16.458046913146973,0.11,0.01,0.04,0.11
16.473509788513184,0.25,-0.04,0.15,0.29
16.47500991821289,0.32,-0.13,0.23,0.41
16.488935947418213,0.24,-0.15,0.07,0.29
16.518748998641968,0.11,0.02,-0.13,0.17
16.52007293701172,-0.14,0.2,-0.26,0.35
16.521066904067993,-0.31,0.26,-0.43,0.59
16.540364980697632,-0.26,0.26,-0.5,0.62
16.541337966918945,-0.22,0.08,-0.59,0.63
16.55654287338257,-0.57,-0.01,-0.8,0.98
16.558035850524902,-1.04,0.07,-0.79,1.3
16.573512077331543,-1.45,0.41,-0.74,1.67
16.5749568939209,-2.07,0.87,-0.97,2.44
16.588862895965576,-2.45,1.08,-0.96,2.84
16.620486974716187,-2.59,1.14,-0.68,2.91
16.621781826019287,-2.45,1.14,-0.62,2.77
16.622730016708374,-1.97,1.04,-0.71,2.33
16.64116382598877,-1.46,1.01,-0.83,1.95
16.642575979232788,-1.18,1.01,-1.08,1.89
16.65672993659973,-1.03,1.28,-1.15,2.0
16.658196926116943,-1.12,2.09,-1.63,2.87
16.673612117767334,-1.68,3.36,-1.78,4.15
16.67507290840149,-1.92,3.61,-1.89,4.5
16.689002990722656,-2.0,3.46,-1.38,4.22
16.722704887390137,-2.73,3.49,-1.49,4.67
16.7241849899292,-3.57,3.72,-1.94,5.5
16.72518301010132,-3.67,3.97,-2.02,5.77
16.741151809692383,-3.72,4.22,-2.32,6.08
16.74262809753418,-4.17,4.36,-2.84,6.66
16.756632804870605,-4.65,4.64,-2.99,7.21
16.75811791419983,-5.12,5.02,-3.27,7.88
16.773603916168213,-5.61,4.76,-3.59,8.18
16.775054931640625,-5.56,4.29,-3.61,7.89
16.78901481628418,-4.91,3.86,-3.68,7.24
16.790482997894287,-4.01,3.27,-3.8,6.41
16.84187078475952,-3.05,2.8,-4.19,5.89
16.843050003051758,-2.99,3.65,-4.7,6.65
16.84407091140747,-3.42,5.51,-5.01,8.19
16.85732078552246,-3.0,7.19,-4.18,8.84
16.858397960662842,0.72,9.98,-1.29,10.08
16.87354612350464,2.98,9.62,-0.81,10.1
16.87502694129944,0.96,5.14,-2.59,5.83
16.890295028686523,-2.13,3.08,-4.87,6.14
16.891711950302124,-4.4,1.26,-5.7,7.31
16.904802799224854,-6.0,-1.73,-5.67,8.43
16.933408975601196,-5.79,-5.6,-5.45,9.72
16.934823989868164,0.29,-3.91,-2.95,4.9
16.935791969299316,2.92,-1.79,-1.02,3.57
16.93814992904663,-0.88,-2.71,-2.1,3.53
16.93965482711792,-5.21,-2.69,-3.39,6.77
16.948019981384277,-8.11,-2.85,-3.34,9.22
16.957837104797363,-9.07,-3.23,-2.32,9.9
16.967576026916504,-8.74,-3.72,-0.84,9.53
16.97810697555542,-7.82,-4.33,0.41,8.94
16.98800301551819,-6.93,-4.84,1.18,8.53
17.01739501953125,-6.33,-4.97,1.44,8.17
17.018569946289062,-5.98,-4.88,1.35,7.83
17.019558906555176,-5.83,-4.6,1.07,7.5
17.040656089782715,-5.95,-4.32,0.69,7.38
17.041719913482666,-6.11,-3.83,0.29,7.21
17.056766033172607,-6.22,-3.27,0.18,7.02
17.057814121246338,-6.16,-2.79,0.24,6.76
17.07397985458374,-5.7,-2.26,0.04,6.13
17.077155113220215,-4.7,-1.47,-0.34,4.93
17.08926296234131,-3.26,-0.83,-0.92,3.48
17.11742091178894,-1.9,-0.64,-1.4,2.44
17.118774890899658,-0.86,-0.29,-1.37,1.64
17.11978006362915,-0.45,0.05,-0.81,0.92
17.14068603515625,-0.34,0.11,-0.29,0.46
17.141732931137085,0.12,0.59,0.08,0.6
17.156793117523193,0.93,1.36,0.07,1.64
17.158241987228394,1.8,2.14,0.17,2.8
17.173934936523438,2.42,2.76,0.65,3.72
17.176289081573486,2.43,3.0,1.06,4.0
17.189098834991455,2.28,3.79,1.26,4.59
17.22262191772461,3.03,5.04,1.51,6.07
17.223984003067017,4.64,5.56,1.81,7.46
17.22504711151123,6.53,5.67,1.96,8.86
17.241110801696777,8.35,5.82,1.79,10.33
17.242207050323486,9.75,5.94,1.47,11.51
17.256855010986328,10.67,5.89,1.22,12.24
17.25831890106201,9.87,7.76,0.75,12.57
17.273955821990967,8.69,10.91,0.38,13.95
17.275478839874268,12.62,5.77,1.21,13.92
17.28917407989502,14.87,4.96,4.11,16.2
17.32429599761963,14.37,3.44,4.78,15.52
17.325562000274658,13.11,2.63,4.38,14.07
17.326575994491577,11.48,3.67,4.47,12.85
17.340622901916504,10.43,5.64,4.86,12.81
17.34167790412903,7.97,4.34,3.69,9.79
17.356812953948975,-0.22,0.41,0.43,0.63
17.358290910720825,-8.57,0.61,-1.78,8.77
17.373906135559082,-8.27,2.87,0.34,8.76
17.375372886657715,-1.4,1.66,1.86,2.85
17.390377044677734,2.89,-1.94,1.28,3.7
17.423540115356445,4.86,-1.79,0.87,5.25
17.424818992614746,5.12,1.43,0.88,5.38
17.42582607269287,3.95,4.52,0.92,6.07
17.44123411178589,5.24,4.2,0.42,6.72
17.442248821258545,5.09,1.19,-0.05,5.22
17.457037925720215,2.14,0.37,0.8,2.31
17.458537101745605,0.77,-0.51,2.13,2.32
17.47392988204956,1.28,-1.24,2.19,2.82
17.475351810455322,2.34,-1.11,2.16,3.37
17.48941397666931,2.84,-0.24,1.94,3.44
17.521656036376953,2.47,0.23,1.26,2.78
17.522982120513916,1.85,0.3,1.15,2.19
17.52397894859314,1.1,0.09,1.03,1.5
17.540934085845947,0.5,-0.13,0.63,0.81
17.541921138763428,0.08,-0.12,0.41,0.43
17.557363033294678,-0.38,0.0,0.05,0.38
17.55876588821411,-0.61,0.32,-0.26,0.73
17.574091911315918,-0.7,0.29,-0.21,0.78
17.575490951538086,-0.58,0.18,-0.21,0.64
17.589412927627563,-0.28,0.12,-0.52,0.6
17.593387126922607,0.11,0.1,-0.82,0.83
17.634883880615234,0.44,0.15,-1.14,1.23
17.636016845703125,0.85,0.13,-0.99,1.31
17.63702893257141,1.27,-0.03,-0.6,1.4
17.65813684463501,1.3,-0.14,-0.15,1.31
17.659595012664795,0.72,-0.11,0.45,0.85
17.673866987228394,-0.05,0.06,0.75,0.75
17.675312042236328,-0.5,0.16,0.95,1.08
17.69072914123535,-0.4,0.24,0.97,1.07
17.692197799682617,-0.22,0.29,0.51,0.62
17.70624589920044,0.08,0.11,0.08,0.15
17.73612880706787,0.48,-0.01,0.05,0.48
17.737399101257324,0.65,-0.07,0.05,0.65
17.738354921340942,0.46,-0.05,-0.33,0.56
17.757620811462402,0.12,0.07,-0.54,0.55
17.758639812469482,-0.2,0.18,-0.5,0.56
17.77397894859314,-0.44,0.16,-0.39,0.6
17.775485038757324,-0.51,0.2,-0.08,0.55
17.790667057037354,-0.44,0.13,0.22,0.5
17.79212713241577,-0.32,0.03,0.33,0.46
17.806396007537842,-0.14,-0.01,0.37,0.39
17.83580207824707,-0.04,0.03,0.27,0.27
17.837160110473633,0.0,0.05,0.21,0.21
17.83814811706543,0.02,0.07,0.17,0.18
17.857625007629395,-0.05,0.04,0.06,0.08
17.85866403579712,-0.12,0.09,0.08,0.17
17.874663829803467,-0.1,0.13,0.07,0.17
17.876011848449707,-0.01,0.16,0.14,0.21
17.890064001083374,0.02,0.17,0.22,0.27
17.891479015350342,-0.04,0.13,0.17,0.21
17.905977964401245,-0.11,0.06,0.15,0.19
17.934298038482666,-0.15,0.06,0.15,0.22
17.935659885406494,-0.27,0.11,0.0,0.29
17.936702013015747,-0.35,0.22,-0.1,0.42
17.957656860351562,-0.33,0.33,-0.14,0.48
17.958696842193604,-0.44,0.32,-0.21,0.58
17.974186897277832,-0.63,0.38,-0.41,0.84
17.975696086883545,-0.84,0.41,-0.71,1.17
17.990903854370117,-1.05,0.38,-1.08,1.55
17.9924099445343,-1.24,0.45,-1.26,1.82
18.00629997253418,-1.58,0.58,-1.26,2.1
18.034753799438477,-1.76,0.61,-1.29,2.26
18.03610897064209,-1.8,0.54,-1.18,2.21
18.037109851837158,-1.76,0.63,-1.18,2.21
18.05620288848877,-1.5,0.83,-1.25,2.12
18.05714988708496,-1.23,1.18,-1.21,2.09
18.073845863342285,-1.06,1.61,-1.17,2.25
18.075321912765503,-1.07,2.18,-1.29,2.74
18.090778827667236,-1.49,3.41,-1.5,4.01
18.092243909835815,-1.66,3.63,-1.3,4.19
18.106169939041138,-1.9,3.11,-0.77,3.72
18.133275985717773,-2.49,2.92,-0.86,3.93
18.13462209701538,-2.9,2.9,-1.1,4.24
18.135543823242188,-3.07,2.93,-1.56,4.52
18.13788080215454,-3.18,3.21,-2.1,4.98
18.139336109161377,-3.57,3.62,-2.59,5.7
18.148972034454346,-4.03,3.87,-2.97,6.32
18.15892791748047,-4.5,4.1,-2.98,6.77
18.16885995864868,-5.22,4.49,-3.07,7.53
18.17909288406372,-5.78,4.51,-3.27,8.02
18.188905000686646,-5.83,3.98,-3.21,7.75
18.223812103271484,-5.59,3.56,-3.47,7.48
18.22498607635498,-5.1,3.21,-3.8,7.12
18.225981950759888,-3.98,2.69,-3.81,6.13
18.241317987442017,-2.98,2.71,-3.98,5.66
18.24239492416382,-2.9,3.79,-4.48,6.54
18.256932020187378,-2.84,5.72,-4.57,7.85
18.257977962493896,-1.37,7.83,-3.6,8.72
18.274476051330566,2.3,11.34,-1.9,11.72
18.278143882751465,2.6,9.61,-2.05,10.16
18.288014888763428,-0.05,5.31,-3.58,6.4
18.323014974594116,-2.46,3.22,-5.0,6.43
18.32432985305786,-3.9,0.69,-5.77,6.99
18.32534694671631,-4.97,-3.65,-6.21,8.75
18.341336965560913,-4.14,-6.41,-5.46,9.38
18.342409133911133,2.01,-3.25,-2.39,4.5
18.357079029083252,3.24,-2.06,-0.67,3.89
18.358127117156982,-0.79,-2.95,-2.46,3.92
18.375421047210693,-5.04,-3.37,-4.05,7.29
18.37724208831787,-7.88,-3.9,-3.97,9.64
18.389784812927246,-9.15,-4.12,-2.97,10.46
18.397396087646484,-9.47,-4.11,-1.55,10.43
18.434180974960327,-9.21,-4.41,-0.18,10.21
18.43532085418701,-8.79,-4.77,0.97,10.04
18.436290979385376,-8.49,-4.68,1.77,9.85
18.438552856445312,-8.22,-4.33,2.08,9.52
18.446698904037476,-7.67,-4.03,2.03,8.89
18.45667290687561,-6.8,-3.79,1.95,8.02
18.466684818267822,-5.9,-3.89,1.6,7.24
18.47682285308838,-5.2,-3.95,1.0,6.6
18.486719131469727,-4.84,-3.68,0.29,6.08
18.496592044830322,-4.64,-3.03,0.07,5.54
18.528113842010498,-4.52,-2.06,0.01,4.96
18.529510021209717,-4.48,-1.15,-0.45,4.64
18.530494928359985,-4.18,0.3,-1.5,4.45
18.541688919067383,-2.8,1.35,-3.28,4.51
18.545724868774414,-0.19,1.96,-4.81,5.19
18.557528972625732,2.8,2.86,-4.68,6.15
18.56614589691162,5.02,3.48,-3.24,6.91
18.575830936431885,5.89,2.92,-1.71,6.79
18.585916996002197,5.55,2.25,-0.32,5.99
18.59562110900879,4.63,2.57,0.48,5.31
18.62651300430298,3.71,3.3,1.02,5.06
18.627835988998413,3.22,4.03,1.6,5.4
18.628838062286377,2.88,4.33,1.56,5.42
18.641283988952637,3.13,4.88,1.39,5.96
18.645080089569092,4.47,5.57,1.62,7.32
18.655362129211426,6.26,5.57,1.89,8.58
18.665305137634277,7.93,5.32,1.93,9.74
18.675113916397095,8.87,5.09,1.68,10.36
18.684953927993774,9.15,4.68,1.38,10.36
18.694782972335815,9.49,4.14,1.35,10.44
18.7276611328125,9.99,3.39,1.76,10.69
18.72895383834839,10.2,2.4,2.35,10.73
18.72993803024292,9.98,1.69,2.97,10.54
18.741524934768677,7.46,4.97,3.6,9.65
18.744332790374756,6.79,5.51,3.47,9.4
18.757210969924927,8.68,2.52,3.25,9.6
18.76428985595703,9.7,1.54,3.87,10.55
18.774258136749268,9.78,1.6,3.91,10.65
18.784178972244263,8.72,2.04,3.09,9.47
18.794275999069214,4.81,1.06,0.94,5.01
18.831784963607788,-2.2,0.48,-1.54,2.72
18.833290100097656,-7.53,1.89,-2.36,8.11
18.834285974502563,-4.86,2.7,-0.09,5.56
18.837328910827637,0.97,0.77,1.3,1.79
18.85788106918335,4.13,-1.12,1.69,4.6
18.859339952468872,5.12,-1.18,1.77,5.54
18.874556064605713,4.9,1.69,1.48,5.39
18.875942945480347,3.71,4.54,0.39,5.87
18.89036989212036,2.49,4.13,-0.25,4.82
18.893465042114258,3.41,3.06,0.21,4.58
18.934590816497803,3.29,0.37,1.02,3.46
18.935779094696045,1.74,-0.67,2.09,2.8
18.936829090118408,1.91,-0.9,3.06,3.71
18.95826005935669,2.19,-1.29,2.52,3.57
18.959330081939697,2.25,-0.99,1.82,3.05
18.97477388381958,1.87,-0.41,1.22,2.27
18.976256847381592,1.24,-0.1,0.56,1.36
18.991233825683594,0.58,0.23,0.17,0.64
18.99268913269043,0.14,0.38,-0.05,0.4
19.006611824035645,-0.14,0.08,-0.35,0.38
19.03503179550171,-0.38,-0.11,-0.56,0.68
19.036270141601562,-0.68,0.14,-0.56,0.89
19.03717803955078,-0.89,0.52,-0.53,1.15
19.058350086212158,-0.92,0.46,-0.63,1.2
19.059424877166748,-0.49,-0.04,-0.53,0.72
19.07422399520874,0.37,-0.2,-0.41,0.58
19.075727939605713,1.12,0.04,-0.33,1.16
19.091186046600342,1.56,0.1,-0.26,1.58
19.09259605407715,1.76,0.1,0.02,1.76
19.106735944747925,1.53,0.04,0.31,1.56
19.133493900299072,1.05,-0.09,0.39,1.12
19.13485288619995,0.58,-0.07,0.49,0.76
19.135857105255127,0.24,-0.03,0.5,0.55
19.13808012008667,0.15,-0.18,0.38,0.44
19.141358852386475,0.3,-0.19,0.08,0.36
19.1511869430542,0.26,-0.09,0.05,0.27
19.161350965499878,0.25,-0.08,0.33,0.42
19.171324014663696,0.46,0.05,0.24,0.52
19.181306838989258,0.64,0.04,0.1,0.64
19.19133996963501,0.64,0.0,0.3,0.7
19.201141834259033,0.37,-0.04,0.57,0.68
19.231167793273926,-0.12,-0.05,0.65,0.66
19.232322931289673,-0.44,0.03,0.6,0.74
19.23353600502014,-0.4,0.25,0.49,0.68
19.240592002868652,-0.33,0.38,0.13,0.51
19.25060796737671,-0.13,0.22,-0.14,0.29
19.26068902015686,0.05,0.1,-0.2,0.22
19.27058506011963,0.06,0.03,-0.17,0.18
19.280284881591797,-0.02,0.13,-0.02,0.13
19.29068398475647,0.01,0.29,0.2,0.35
19.30054497718811,0.05,0.29,0.28,0.4
19.330965995788574,-0.03,0.14,0.24,0.27
19.33217692375183,-0.13,0.07,0.18,0.23
19.333316802978516,-0.15,0.15,0.17,0.27
19.33977198600769,-0.02,0.29,0.09,0.3
19.349831104278564,-0.02,0.35,-0.16,0.38
19.359757900238037,-0.14,0.28,-0.43,0.53
19.369765996932983,-0.37,0.23,-0.65,0.78
19.37985396385193,-0.58,0.34,-0.68,0.95
19.389818906784058,-0.9,0.39,-0.75,1.23
19.39976406097412,-1.23,0.42,-0.79,1.52
19.430798053741455,-1.54,0.5,-0.71,1.76
19.431971073150635,-1.84,0.73,-0.76,2.12
19.433178901672363,-2.12,0.87,-0.81,2.43
19.43902897834778,-2.16,0.99,-0.96,2.56
19.4492769241333,-2.07,1.08,-1.11,2.58
19.45901584625244,-1.7,1.31,-1.19,2.45
19.468962907791138,-1.19,1.6,-1.27,2.36
19.479082107543945,-1.05,1.9,-1.38,2.57
19.489226818084717,-1.22,2.89,-0.73,3.22
19.498945951461792,-1.44,3.45,-1.6,4.06
19.530713081359863,-1.49,3.23,-1.46,3.84
19.532001972198486,-1.44,3.24,-0.5,3.58
19.533091068267822,-1.96,2.86,-1.23,3.67
19.539158821105957,-2.43,2.85,-1.51,4.03
19.548308849334717,-2.77,2.88,-1.83,4.39
19.558250904083252,-3.01,3.04,-2.22,4.81
19.567999839782715,-3.48,3.4,-2.45,5.44
19.57823896408081,-4.33,3.93,-2.81,6.48
19.588454961776733,-5.11,4.26,-2.91,7.26
19.598247051239014,-5.56,4.42,-3.1,7.74
19.637605905532837,-5.81,4.11,-3.28,7.83
19.6390118598938,-5.8,3.63,-3.31,7.6
19.640005111694336,-5.31,3.12,-3.52,7.09
19.658699989318848,-4.52,2.64,-3.51,6.3
19.660197973251343,-3.59,3.01,-3.13,5.63
19.675180912017822,-3.22,3.77,-3.26,5.93
19.676644802093506,-3.46,5.05,-3.21,6.91
19.691540956497192,-2.93,6.46,-2.6,7.55
19.693006992340088,0.57,9.19,-1.06,9.26
19.70708394050598,2.41,10.36,-1.84,10.79
19.736612796783447,-0.11,7.0,-3.59,7.86
19.73805284500122,-2.77,4.7,-4.64,7.16
19.739043951034546,-4.13,2.46,-4.59,6.64
19.757938861846924,-5.24,-0.82,-4.57,7.0
19.75900101661682,-5.43,-5.17,-4.3,8.64
19.775141954421997,0.31,-4.42,-2.25,4.96
19.776575088500977,4.48,-1.18,-0.74,4.69
19.79136300086975,0.17,-2.25,-2.17,3.13
19.792786121368408,-5.01,-2.73,-3.98,6.95
19.806622982025146,-8.48,-2.94,-4.12,9.87
19.83576798439026,-9.93,-3.16,-2.8,10.79
19.8372220993042,-9.99,-3.25,-1.15,10.56
19.838204860687256,-9.13,-3.74,0.38,9.87
19.858139991760254,-8.26,-4.42,1.15,9.43
19.85919189453125,-7.64,-4.59,1.1,8.98
19.875715017318726,-7.01,-4.37,0.79,8.29
19.877081871032715,-6.24,-4.02,0.53,7.44
19.892061948776245,-5.69,-3.83,0.41,6.87
19.893527030944824,-5.54,-3.78,0.33,6.71
19.90723490715027,-5.67,-3.36,0.5,6.6
19.935215950012207,-5.69,-2.85,0.83,6.41
19.936676025390625,-5.4,-2.51,0.81,6.0
19.937638998031616,-4.98,-2.05,0.25,5.39
19.958480834960938,-4.33,-1.33,-0.58,4.56
19.959532022476196,-3.24,-0.78,-1.37,3.6
19.975282907485962,-1.59,-0.25,-1.29,2.06
19.97675085067749,0.19,0.18,-0.46,0.52
19.991787910461426,1.6,0.47,0.23,1.68
19.99323606491089,1.96,0.62,0.36,2.08
20.007280826568604,0.99,1.12,0.83,1.7
20.008758068084717,-0.28,2.36,1.62,2.87
20.051988124847412,-0.3,3.74,2.24,4.36
20.05313205718994,1.11,4.89,2.98,5.83
20.0541410446167,3.31,5.4,2.99,7.0
20.07548999786377,5.49,5.35,2.17,7.96
20.076550006866455,7.02,5.74,1.24,9.15
20.091804027557373,7.91,6.07,0.7,9.99
20.093297958374023,8.75,5.88,0.64,10.56
20.10846495628357,9.97,5.53,0.6,11.41
20.109918117523193,9.46,7.63,0.59,12.16
20.123836994171143,7.54,10.43,0.54,12.88
20.15543508529663,11.16,5.68,0.81,12.54
20.15670394897461,13.36,4.03,3.45,14.37
20.157727003097534,12.46,3.01,4.38,13.54
20.175858974456787,10.6,2.87,4.21,11.76
20.177315950393677,9.23,3.96,5.09,11.25
20.19212293624878,9.0,5.52,6.08,12.18
20.193585872650146,9.09,5.12,6.04,12.05
20.20861291885376,5.97,1.11,3.09,6.81
20.210073947906494,-1.28,-1.51,-1.34,2.39
20.22403907775879,-6.72,-1.4,-3.83,7.86
20.255516052246094,-5.01,-0.19,-1.8,5.32
20.256906986236572,1.62,-1.13,0.2,1.98
20.257921934127808,6.71,-2.49,-0.07,7.15
20.27569580078125,7.59,1.24,0.1,7.69
20.277167797088623,8.84,9.09,1.89,12.81
20.291748046875,10.07,3.95,-0.39,10.82
20.293195962905884,4.54,1.35,-0.87,4.81
20.30856990814209,1.16,0.59,1.33,1.86
20.31002187728882,0.76,-1.99,3.32,3.94
20.32381296157837,1.57,-2.3,4.01,4.88
20.353543996810913,2.32,-0.52,3.88,4.55
20.354923963546753,2.07,0.48,2.9,3.59
20.35590696334839,1.69,0.06,1.83,2.49
20.37526798248291,1.44,-0.46,1.59,2.19
20.376325130462646,0.79,-0.35,1.26,1.52
20.391840934753418,0.48,-0.14,0.96,1.08
20.393309116363525,0.77,-0.15,0.21,0.81
20.40882396697998,0.92,0.02,-1.3,1.59
20.410234928131104,0.48,0.44,-1.93,2.03
20.42384099960327,-0.23,0.57,-1.49,1.61
20.455389976501465,-0.52,0.2,-0.96,1.1
20.456718921661377,-0.22,0.02,-0.55,0.59
20.45773196220398,-0.02,0.09,-0.26,0.27
20.47571897506714,-0.08,0.14,-0.25,0.29
20.47678279876709,-0.1,0.15,-0.2,0.26
20.489946842193604,-0.18,0.19,-0.08,0.27
20.49133801460266,-0.36,0.17,-0.06,0.4
20.508635997772217,-0.4,0.16,-0.08,0.43
20.51019287109375,-0.29,0.18,-0.07,0.34
20.523841857910156,-0.08,0.11,-0.13,0.18
20.553855895996094,0.21,-0.06,0.04,0.22
20.555197954177856,0.52,-0.19,0.3,0.62
20.55622696876526,0.68,-0.29,0.43,0.85
20.575410842895508,0.56,-0.2,0.5,0.77
20.57646894454956,0.34,0.02,0.34,0.48
20.59170913696289,0.22,0.1,0.29,0.37
20.593158960342407,0.2,0.09,0.47,0.51
20.608613967895508,0.18,-0.01,0.61,0.63
20.610106945037842,0.1,-0.06,0.52,0.53
20.62395691871643,0.11,-0.07,0.54,0.55
20.654825925827026,0.31,0.01,0.61,0.68
20.65620994567871,0.57,0.04,0.49,0.75
20.65720796585083,0.74,-0.02,0.15,0.75
20.675754070281982,0.83,-0.13,0.07,0.84
20.67680788040161,0.71,-0.07,0.35,0.79
20.69170904159546,0.55,0.07,0.35,0.65
20.69312286376953,0.58,0.08,0.18,0.61
20.708648920059204,0.75,0.18,0.27,0.81
20.710088968276978,0.94,0.27,0.21,1.0
20.724120140075684,1.02,0.37,0.01,1.08
20.75424599647522,0.89,0.46,-0.19,1.01
20.755676984786987,0.62,0.37,-0.34,0.79
20.756723880767822,0.09,0.23,-0.31,0.39
20.775776863098145,-0.55,0.21,-0.36,0.69
20.776812076568604,-1.12,0.28,-0.61,1.3
20.791943073272705,-1.5,0.3,-0.9,1.77
20.79340410232544,-1.76,0.23,-0.93,2.0
20.80866003036499,-2.18,0.28,-0.86,2.36
20.810125827789307,-2.63,0.4,-0.96,2.82
20.82431411743164,-2.67,0.65,-1.07,2.94
20.82572889328003,-2.34,0.89,-1.02,2.7
20.87134885787964,-2.33,0.96,-1.08,2.74
20.872558116912842,-2.47,0.93,-1.33,2.95
20.873551845550537,-2.25,0.98,-1.45,2.85
20.892921924591064,-1.94,1.04,-1.37,2.59
20.894361972808838,-1.93,1.06,-1.7,2.78
20.908695936203003,-2.01,1.1,-1.8,2.91
20.910146951675415,-2.2,1.28,-1.5,2.95
20.92544412612915,-2.21,2.03,-1.39,3.3
20.926921844482422,-1.9,3.0,-1.53,3.86
20.940922021865845,-2.33,3.73,-2.13,4.88
20.972585916519165,-1.64,3.97,-1.06,4.42
20.97390079498291,-1.47,3.1,-0.39,3.45
20.974874019622803,-2.55,2.89,-0.87,3.95
20.99276900291443,-3.51,3.2,-1.49,4.97
20.994256019592285,-4.12,3.59,-2.23,5.9
21.008771896362305,-4.72,4.21,-2.64,6.85
21.01026701927185,-5.02,4.39,-2.96,7.29
21.025403022766113,-5.63,4.55,-3.61,8.08
21.026885986328125,-6.28,4.71,-3.86,8.74
21.040920972824097,-6.28,4.24,-3.74,8.45
21.072093963623047,-5.87,3.79,-3.77,7.93
21.07339596748352,-5.39,3.45,-3.74,7.41
21.074424982070923,-4.43,2.98,-3.96,6.64
21.092535972595215,-3.72,2.79,-3.88,6.05
21.093599796295166,-3.34,3.57,-3.61,6.07
21.10889482498169,-2.96,5.32,-3.45,6.99
21.110404014587402,-0.51,8.54,-1.43,8.67
21.125577926635742,3.05,10.99,0.27,11.4
21.127048015594482,2.04,6.82,-0.98,7.18
21.141293048858643,-1.4,3.8,-3.61,5.42
21.171113967895508,-4.4,2.96,-4.99,7.28
21.172526836395264,-6.4,1.09,-4.93,8.15
21.17353391647339,-7.53,-2.6,-4.98,9.39
21.19240093231201,-4.11,-4.7,-3.53,7.17
21.193478107452393,1.83,-0.75,-1.0,2.21
21.20890498161316,0.18,-0.71,-0.56,0.92
21.210375785827637,-4.39,-1.75,-2.16,5.19
21.225561141967773,-7.91,-1.64,-3.23,8.7
21.227041959762573,-9.55,-2.03,-2.8,10.15
21.24108600616455,-9.31,-2.63,-1.75,9.83
21.270523071289062,-7.86,-3.19,-0.89,8.52
21.272014141082764,-6.14,-3.87,-0.33,7.26
21.27302098274231,-4.72,-4.69,-0.09,6.65
21.292304039001465,-3.91,-5.27,-0.1,6.56
21.293308973312378,-3.52,-5.53,-0.29,6.56
21.308670043945312,-3.53,-5.51,-0.54,6.56
21.309946060180664,-4.03,-5.0,-0.77,6.46
21.326327800750732,-5.02,-4.57,-1.03,6.86
21.327727794647217,-6.0,-4.3,-0.91,7.43
21.341365814208984,-6.51,-3.95,-0.22,7.61
21.371943950653076,-6.68,-3.48,0.7,7.56
21.37328791618347,-6.48,-2.78,1.64,7.23
21.374320030212402,-5.85,-1.68,1.59,6.29
21.392620086669922,-4.77,-0.99,0.25,4.87
21.3937029838562,-3.19,-0.37,-1.07,3.38
21.40899395942688,-1.5,0.66,-0.96,1.89
21.410475969314575,-0.36,1.78,-0.11,1.81
21.4257230758667,-0.01,2.45,0.57,2.51
21.427204132080078,-0.09,2.94,1.36,3.24
21.44128394126892,-0.08,3.87,1.88,4.3
21.47025489807129,0.09,5.11,1.88,5.44
21.471558094024658,0.59,6.49,1.86,6.77
21.472548007965088,2.18,7.31,1.51,7.77
21.492434978485107,4.69,8.01,0.61,9.3
21.49350094795227,8.23,8.66,-1.33,12.02
21.508479118347168,11.9,8.56,-2.52,14.87
21.509471893310547,13.95,7.85,-2.97,16.28
21.525529861450195,14.57,6.33,-2.77,16.12
21.52703094482422,13.98,4.26,-1.18,14.66
21.541295051574707,11.38,5.72,1.09,12.78
21.56951594352722,12.37,3.31,1.97,12.95
21.5708270072937,13.15,2.21,3.11,13.69
21.57182002067566,11.91,3.24,4.11,13.0
21.59267497062683,10.3,3.46,4.08,11.6
21.593735933303833,8.76,3.65,4.52,10.51
21.608715057373047,7.38,4.22,5.37,10.05
21.609750986099243,6.3,4.9,6.04,10.0
21.625825881958008,4.3,2.87,4.32,6.73
21.627324104309082,-1.59,-0.75,-0.04,1.75
21.64121389389038,-6.9,-0.61,-2.42,7.33
21.6426739692688,-3.0,1.12,-0.32,3.21
21.68574094772339,4.39,0.87,1.07,4.6
21.686877012252808,7.19,0.66,0.78,7.26
21.687835931777954,6.36,3.4,0.03,7.21
21.689414978027344,4.51,4.65,-0.37,6.48
21.690786838531494,4.35,4.34,-0.16,6.14
21.69221305847168,5.95,1.98,0.0,6.27
21.693634033203125,4.64,0.35,0.87,4.73
21.694974899291992,3.06,-0.62,2.43,3.95
21.70184898376465,2.17,-1.68,2.25,3.54
21.71227788925171,1.91,-1.72,1.43,2.94
21.73728609085083,1.64,-1.04,0.91,2.14
21.738336086273193,1.75,-0.03,0.96,1.99
21.741526126861572,1.9,0.34,1.33,2.34
21.757219791412354,1.04,-0.01,1.27,1.64
21.761507034301758,0.08,-0.4,1.09,1.16
21.775375843048096,-0.25,-0.32,0.64,0.75
21.781742095947266,-0.38,-0.02,0.18,0.42
21.791892051696777,-0.44,0.15,0.11,0.47
21.801519870758057,-0.51,0.23,-0.02,0.55
21.81108808517456,-0.45,0.23,-0.49,0.7
21.83860993385315,-0.18,0.29,-0.83,0.89
21.83966898918152,0.28,0.23,-0.84,0.91
21.84075403213501,0.65,0.06,-0.99,1.18
21.85924792289734,0.78,-0.08,-0.91,1.2
21.86091184616089,0.68,-0.07,-0.4,0.79
21.875404834747314,0.39,0.02,0.11,0.4
21.880851984024048,0.22,0.15,0.49,0.55
21.89191484451294,0.16,0.15,0.56,0.6
21.90082883834839,0.32,0.13,0.52,0.62
21.91082191467285,0.58,0.05,0.64,0.86
21.94292688369751,0.82,-0.05,0.65,1.04
21.94427490234375,0.87,-0.07,0.45,0.98
21.945056915283203,0.73,-0.07,0.26,0.77
21.959398984909058,0.71,-0.1,0.2,0.74
21.960422039031982,0.85,-0.09,0.3,0.9
21.9742488861084,0.74,-0.08,0.39,0.84
21.97998285293579,0.28,-0.02,0.26,0.38
21.99209690093994,-0.05,0.09,0.11,0.15
22.0003399848938,-0.14,0.12,0.1,0.2
22.010347843170166,-0.16,0.03,0.18,0.24
22.047566890716553,-0.17,0.0,0.1,0.19
22.048974990844727,-0.24,0.11,0.02,0.26
22.04997992515564,-0.22,0.22,-0.12,0.33
22.05977201461792,-0.13,0.21,-0.17,0.29
22.060805797576904,-0.07,0.16,-0.25,0.3
22.075807094573975,0.09,0.2,-0.22,0.31
22.079190969467163,0.2,0.2,-0.04,0.28
22.089850902557373,0.15,0.18,0.0,0.23
22.099528789520264,0.14,0.16,0.03,0.21
22.109266996383667,0.12,0.12,0.18,0.24
22.14710283279419,0.02,0.05,0.01,0.05
22.14852285385132,-0.1,0.04,-0.11,0.15
22.149528980255127,-0.25,0.06,-0.06,0.26
22.159433841705322,-0.34,0.16,0.02,0.37
22.160475969314575,-0.53,0.35,0.01,0.63
22.175776958465576,-0.7,0.49,-0.05,0.85
22.17857789993286,-0.97,0.61,-0.19,1.16
22.192641973495483,-1.33,0.76,-0.44,1.59
22.198666095733643,-1.61,0.79,-0.64,1.9
22.208383083343506,-1.84,0.76,-0.83,2.15
22.24515199661255,-1.85,0.79,-0.96,2.22
22.246501922607422,-1.86,0.8,-1.19,2.34
22.247539043426514,-1.94,0.81,-1.25,2.44
22.259573936462402,-1.89,1.07,-1.15,2.45
22.260618925094604,-2.03,1.76,-1.03,2.87
22.275758981704712,-1.89,2.95,-0.9,3.61
22.27766513824463,-1.57,3.41,-1.1,3.91
22.29199981689453,-1.61,3.74,-0.82,4.15
22.298069953918457,-2.13,3.62,-1.37,4.41
22.308897018432617,-2.41,3.34,-1.65,4.43
22.34481692314148,-2.55,3.03,-1.78,4.34
22.34606409072876,-2.74,2.96,-2.09,4.54
22.347096920013428,-3.09,3.26,-2.48,5.13
22.359456062316895,-3.92,3.86,-3.34,6.43
22.36051297187805,-4.49,4.15,-3.59,7.09
22.375998973846436,-4.87,4.31,-3.39,7.33
22.37697410583496,-5.42,4.7,-3.45,7.96
22.392548084259033,-5.82,4.57,-3.43,8.15
22.396796941757202,-6.08,4.11,-3.19,8.0
22.407105922698975,-5.81,3.5,-3.37,7.57
22.416988849639893,-4.87,2.61,-3.5,6.54
22.450068950653076,-3.54,2.41,-3.15,5.31
22.45127010345459,-2.89,3.27,-2.94,5.26
22.45247197151184,-2.68,4.65,-3.18,6.23
22.456445932388306,-1.9,6.21,-2.89,7.1
22.47610902786255,1.56,9.34,-1.14,9.53
22.477214813232422,2.73,9.26,-2.1,9.87
22.492591857910156,-0.47,5.92,-4.04,7.18
22.496005058288574,-3.35,4.17,-5.12,7.4
22.50832509994507,-4.86,2.16,-5.13,7.38
22.516252994537354,-5.7,-1.0,-4.88,7.56
22.550201892852783,-5.61,-4.94,-4.77,8.86
22.551444053649902,-0.85,-4.75,-3.83,6.16
22.552563905715942,4.68,-0.94,-2.18,5.24
22.556335926055908,1.94,-1.64,-2.36,3.46
22.57609796524048,-3.47,-2.29,-3.87,5.67
22.57717514038086,-7.81,-2.37,-4.18,9.16
22.593189001083374,-9.85,-2.74,-2.93,10.63
22.595624923706055,-9.95,-3.07,-1.04,10.46
22.608325958251953,-9.05,-3.58,0.62,9.75
22.615621089935303,-8.23,-4.4,1.46,9.44
22.653033018112183,-7.87,-4.91,1.64,9.41
22.65419292449951,-7.96,-4.86,1.36,9.42
22.65518283843994,-8.09,-4.56,1.18,9.36
22.67675495147705,-7.68,-4.01,1.29,8.75
22.67782497406006,-6.96,-3.85,1.21,8.04
22.69258213043213,-6.25,-3.76,0.9,7.34
22.69364094734192,-5.79,-3.58,0.34,6.81
22.70974898338318,-5.49,-2.96,-0.38,6.24
22.71125102043152,-4.98,-1.62,-1.05,5.34
22.725198984146118,-4.1,-0.27,-1.6,4.4
22.75324010848999,-2.69,0.38,-2.24,3.52
22.75456690788269,-1.05,0.5,-2.35,2.62
22.7555570602417,0.63,0.45,-2.02,2.16
22.776400089263916,2.08,0.69,-1.68,2.76
22.777453899383545,2.59,1.06,-1.47,3.16
22.792810916900635,2.14,1.34,-1.41,2.89
22.793831825256348,1.53,2.06,-0.56,2.62
22.809653997421265,1.34,3.03,0.68,3.38
22.811123847961426,1.52,3.89,1.61,4.47
22.824944019317627,1.86,4.6,2.18,5.41
22.852785110473633,2.17,5.16,2.52,6.13
22.854146003723145,3.05,5.39,2.17,6.56
22.85518503189087,4.62,5.61,1.01,7.33
22.85729193687439,7.0,5.89,-0.61,9.16
22.86321210861206,10.22,6.09,-1.29,11.96
22.873531818389893,12.85,5.61,-1.5,14.1
22.883039951324463,13.86,4.74,-1.07,14.68
22.893321990966797,13.67,3.67,0.29,14.15
22.902961015701294,11.36,4.23,2.05,12.29
22.913316011428833,8.81,7.15,3.45,11.85
22.950243949890137,10.73,2.53,3.74,11.64
22.95168113708496,11.43,2.57,5.47,12.92
22.95267391204834,10.96,2.64,5.81,12.68
22.955785989761353,10.49,2.5,5.21,11.97
22.976006984710693,9.68,2.74,4.62,11.07
22.976993083953857,9.16,3.95,4.21,10.82
22.992417812347412,6.11,1.96,1.04,6.5
22.99345111846924,-2.37,0.0,-2.78,3.65
23.008502960205078,-8.14,2.58,-3.25,9.13
23.012467861175537,-4.02,4.29,0.51,5.9
23.052204132080078,1.44,0.9,1.58,2.31
23.053348064422607,3.56,-0.58,0.95,3.72
23.054574012756348,4.22,1.97,0.42,4.67
23.055936813354492,3.43,3.64,0.37,5.01
23.06181001663208,3.89,3.85,0.42,5.48
23.07195281982422,5.11,1.54,0.45,5.35
23.081780910491943,2.91,-0.35,1.07,3.12
23.0918231010437,1.34,-0.39,2.31,2.69
23.101801872253418,1.2,-0.96,2.36,2.81
23.11182999610901,1.63,-1.21,1.49,2.51
23.14944887161255,1.89,-0.69,0.76,2.15
23.15054988861084,1.88,-0.06,0.14,1.88
23.151432037353516,1.87,0.23,0.03,1.88
23.156664848327637,1.89,0.23,0.35,1.93
23.16118097305298,1.71,-0.17,0.72,1.86
23.17620301246643,1.53,-0.38,1.13,1.93
23.180943965911865,1.09,-0.17,1.48,1.84
23.192752838134766,0.23,0.02,1.36,1.37
23.201098918914795,-0.69,0.1,0.57,0.9
23.210896968841553,-1.14,0.27,-0.26,1.2
23.221184968948364,-1.06,0.37,-0.73,1.33
23.25320601463318,-0.51,0.22,-0.77,0.94
23.254359006881714,0.07,0.03,-0.59,0.59
23.255398988723755,0.3,0.07,-0.49,0.57
23.276992797851562,0.33,0.11,-0.6,0.69
23.277995109558105,0.66,0.11,-0.54,0.85
23.29365301132202,0.83,0.01,-0.42,0.93
23.294636964797974,0.78,-0.06,0.03,0.78
23.30935287475586,0.46,0.01,0.48,0.66
23.310845851898193,0.08,0.05,0.69,0.69
23.325398921966553,-0.06,0.11,0.89,0.89
23.35517978668213,-0.07,0.21,0.91,0.93
23.356506824493408,-0.1,0.13,0.73,0.74
23.35750389099121,-0.07,0.08,0.55,0.56
23.37681293487549,0.09,0.02,0.07,0.11
23.37787103652954,0.44,-0.07,-0.39,0.59
23.392788887023926,0.61,0.02,-0.58,0.84
23.393814086914062,0.37,0.1,-0.8,0.88
23.4100079536438,-0.11,0.09,-0.35,0.37
23.41146492958069,-0.32,0.14,0.07,0.35
23.42534899711609,-0.15,0.2,0.49,0.55
23.454710006713867,-0.16,0.23,0.77,0.81
23.456100940704346,-0.2,0.25,0.24,0.4
23.45710301399231,-0.24,0.29,-0.49,0.61
23.476862907409668,-0.19,0.26,-0.51,0.6
23.47789692878723,0.05,0.14,-0.16,0.21
23.493057012557983,0.2,-0.03,-0.04,0.2
23.494080066680908,0.16,-0.07,-0.17,0.24
23.509952068328857,0.12,0.13,-0.18,0.25
23.511389017105103,0.19,0.28,0.13,0.36
23.52548885345459,0.22,0.31,0.38,0.53
23.555354118347168,0.28,0.22,0.24,0.42
23.55667495727539,0.37,0.09,0.07,0.38
23.55769395828247,0.21,-0.02,0.02,0.21
23.576998949050903,-0.2,-0.08,-0.01,0.21
23.577917098999023,-0.58,0.03,0.0,0.58
23.592875957489014,-0.79,0.25,-0.04,0.82
23.59388780593872,-0.9,0.52,-0.35,1.09
23.60985279083252,-1.1,0.76,-0.51,1.43
23.611251831054688,-1.28,0.82,-0.67,1.66
23.62536382675171,-1.38,0.79,-0.64,1.71
23.65725803375244,-1.57,0.81,-0.53,1.84
23.658589839935303,-1.67,0.7,-0.67,1.93
23.65957498550415,-1.68,0.7,-0.86,2.01
23.677021026611328,-1.95,0.88,-1.02,2.37
23.678080081939697,-2.17,1.17,-1.31,2.79
23.69283390045166,-2.41,1.59,-1.69,3.34
23.693864822387695,-2.48,2.25,-1.76,3.78
23.710103034973145,-1.95,2.88,-1.04,3.63
23.711575031280518,-1.75,2.86,-0.52,3.39
23.725572109222412,-2.08,2.95,-0.6,3.65
23.75623893737793,-2.64,3.2,-1.13,4.29
23.757547855377197,-2.88,3.2,-1.56,4.57
23.75850486755371,-2.95,2.97,-2.15,4.7
23.77723979949951,-3.37,2.9,-2.81,5.25
23.77826690673828,-3.83,3.12,-3.05,5.8
23.793059825897217,-4.27,3.72,-3.35,6.57
23.794095993041992,-5.09,4.61,-3.99,7.94
23.81013798713684,-5.51,5.0,-3.83,8.36
23.811613082885742,-5.36,4.63,-3.23,7.78
23.825726985931396,-5.22,4.09,-3.05,7.29
23.85336208343506,-5.31,3.81,-3.28,7.31
23.85477900505066,-4.99,3.36,-3.38,6.9
23.85560703277588,-4.2,3.08,-3.23,6.12
23.857728958129883,-4.14,4.3,-3.19,6.76
23.865957021713257,-4.21,5.7,-3.88,8.07
23.875854969024658,-3.54,6.33,-4.29,8.42
23.88576102256775,-1.62,7.94,-2.28,8.41
23.89577579498291,1.98,10.07,-0.13,10.26
23.905730962753296,1.29,7.86,-1.03,8.03
23.915539979934692,-1.85,5.35,-3.08,6.44
23.951555013656616,-4.53,3.8,-4.61,7.49
23.9528329372406,-6.26,1.92,-4.87,8.16
23.953613996505737,-7.33,-1.85,-4.78,8.94
23.95616579055786,-6.19,-5.97,-4.11,9.53
23.97656488418579,0.81,-3.38,-1.63,3.83
23.977614879608154,3.21,-0.78,0.16,3.3
23.9924099445343,-0.9,-1.93,-1.23,2.45
23.994796991348267,-5.42,-2.49,-3.07,6.7
24.008835792541504,-8.33,-2.78,-3.04,9.29
24.014796018600464,-9.51,-3.28,-1.63,10.19
24.025146007537842,-9.66,-3.78,0.15,10.37
24.05642080307007,-9.02,-4.22,1.63,10.09
24.0577449798584,-8.08,-4.55,2.2,9.53
24.058758974075317,-7.25,-4.41,1.62,8.63
24.077115058898926,-6.12,-4.12,0.59,7.4
24.078117847442627,-4.78,-4.22,-0.06,6.37
24.09313678741455,-3.65,-4.09,0.32,5.49
24.09415102005005,-2.89,-3.79,1.09,4.88
24.108333110809326,-2.47,-3.61,1.58,4.65
24.114229917526245,-2.3,-3.5,1.28,4.37
24.12401294708252,-2.55,-3.23,0.49,4.14
24.156785011291504,-2.97,-2.66,-0.26,3.99
24.1580810546875,-2.91,-1.89,-0.83,3.56
24.159066915512085,-2.03,-0.87,-0.67,2.3
24.17710781097412,-0.82,-0.21,0.0,0.84
24.178197860717773,-0.04,0.21,0.67,0.7
24.193313121795654,0.02,0.79,1.07,1.33
24.194364070892334,-0.34,1.5,1.37,2.05
24.210103034973145,-0.45,2.58,1.84,3.2
24.2135009765625,0.24,3.87,2.36,4.53
24.225525856018066,1.41,4.37,2.37,5.16
24.25480079650879,2.54,4.15,1.42,5.06
24.256402015686035,3.63,4.35,-0.21,5.66
24.25738000869751,4.73,5.16,-1.46,7.15
24.27868413925171,7.09,5.97,-1.8,9.44
24.279757976531982,10.37,5.58,-1.88,11.92
24.29331684112549,12.37,4.48,-1.52,13.24
24.294365882873535,12.68,3.71,-0.72,13.23
24.310495853424072,11.8,2.93,0.03,12.15
24.31264305114746,10.52,1.97,0.53,10.71
24.325817108154297,9.94,1.67,1.46,10.18
24.355438947677612,9.78,1.56,2.52,10.21
24.356751918792725,9.36,1.17,3.19,9.95
24.35775399208069,8.14,1.45,3.51,8.98
24.377059936523438,3.8,6.87,4.01,8.81
24.378132820129395,3.72,4.43,2.89,6.46
24.393341064453125,5.87,2.7,3.66,7.42
24.394400119781494,7.85,3.71,4.96,9.99
24.409419059753418,8.55,2.85,4.32,9.99
24.41203784942627,5.4,0.17,1.31,5.55
24.42593812942505,-1.94,-0.02,-2.49,3.15
24.46087884902954,-6.69,2.81,-3.22,7.93
24.462223052978516,-2.83,3.88,-0.47,4.82
24.46323800086975,2.55,2.03,0.58,3.31
24.47772979736328,4.75,0.19,0.59,4.79
24.47879981994629,5.18,1.75,0.47,5.48
24.493156909942627,4.34,4.04,0.6,5.95
24.494143962860107,3.31,3.41,0.52,4.78
24.51086401939392,4.11,2.31,0.73,4.77
24.512327909469604,4.51,-0.1,1.22,4.67
24.526021003723145,2.92,-0.9,1.94,3.61
24.560483932495117,2.6,-0.9,2.65,3.82
24.561762809753418,2.55,-1.24,1.99,3.46
24.562784910202026,2.64,-0.94,1.58,3.21
24.577574968338013,2.53,-0.16,1.42,2.9
24.578628063201904,2.13,0.32,0.91,2.33
24.59337592124939,1.5,0.29,0.55,1.62
24.594424962997437,0.74,0.11,0.29,0.8
24.610553979873657,-0.04,-0.05,-0.1,0.11
24.611956119537354,-0.76,-0.05,-0.45,0.88
24.625756978988647,-1.28,0.14,-0.54,1.39
24.660156965255737,-1.51,0.23,-0.41,1.58
24.661470890045166,-1.29,0.31,-0.22,1.34
24.66248607635498,-0.63,0.3,-0.07,0.7
24.67753505706787,0.19,0.22,0.04,0.29
24.678610801696777,0.97,0.1,0.0,0.97
24.69345712661743,1.56,-0.01,-0.14,1.56
24.694480895996094,1.82,-0.02,-0.18,1.82
24.71047306060791,1.78,0.01,-0.04,1.78
24.711951971054077,1.4,-0.06,0.15,1.4
24.72599983215332,0.79,-0.13,0.3,0.85
24.76007890701294,0.1,-0.05,0.44,0.45
24.761423110961914,-0.3,-0.07,0.58,0.65
24.76244306564331,-0.11,-0.15,0.62,0.64
24.777996063232422,0.34,-0.09,0.55,0.65
24.77901601791382,0.33,0.01,0.43,0.54
24.79334306716919,0.06,0.06,0.11,0.13
24.794372081756592,-0.21,0.08,-0.42,0.47
24.810465812683105,-0.3,-0.08,-0.5,0.58
24.811931133270264,0.2,0.0,0.36,0.41
24.826043128967285,0.51,0.06,0.48,0.7
24.828750133514404,0.44,0.04,0.14,0.46
24.8731050491333,0.37,0.06,0.03,0.37
24.874262809753418,0.21,0.13,0.0,0.24
24.87528085708618,-0.01,0.15,0.06,0.16
24.894407987594604,-0.27,0.15,0.08,0.31
24.895349979400635,-0.38,0.2,0.23,0.48
24.910173892974854,-0.43,0.3,0.06,0.52
24.911696910858154,-0.39,0.35,-0.51,0.73
24.927303791046143,-0.13,0.44,-0.58,0.73
24.928618907928467,0.1,0.41,-0.45,0.61
24.94267201423645,0.11,0.18,-0.42,0.47
24.975137948989868,0.07,0.07,-0.22,0.24
24.97638988494873,-0.02,0.1,-0.08,0.12
24.977365016937256,-0.35,0.0,-0.19,0.39
24.994229793548584,-0.53,0.01,-0.23,0.57
24.9952290058136,-0.56,0.05,-0.17,0.58
25.01051902770996,-0.54,0.15,-0.25,0.61
25.011575937271118,-0.35,0.3,-0.33,0.56
25.02732491493225,-0.14,0.32,-0.14,0.37
25.02877902984619,-0.15,0.25,-0.05,0.29
25.042884826660156,-0.32,0.16,-0.11,0.37
25.073559999465942,-0.59,0.1,-0.12,0.61
25.074874877929688,-1.06,0.14,-0.19,1.08
25.07597303390503,-1.49,0.42,-0.4,1.59
25.094133853912354,-1.76,0.76,-0.72,2.04
25.09518003463745,-2.03,0.77,-1.12,2.44
25.110261917114258,-1.98,0.71,-1.34,2.49
25.111312866210938,-1.74,0.67,-1.43,2.34
25.127144813537598,-1.76,0.76,-1.59,2.49
25.128567934036255,-1.56,0.91,-1.45,2.31
25.14295196533203,-1.56,1.11,-1.56,2.46
25.171059131622314,-1.84,1.56,-1.97,3.11
25.172338008880615,-1.83,2.76,-2.13,3.93
25.173202991485596,-2.26,4.5,-1.88,5.37
25.19421696662903,-2.37,4.64,-1.44,5.4
25.195284843444824,-2.41,3.85,-0.87,4.62
25.210240840911865,-3.05,3.73,-0.7,4.86
25.211270809173584,-3.95,3.79,-0.84,5.53
25.226815938949585,-4.44,4.15,-1.2,6.19
25.227838039398193,-4.6,4.75,-1.6,6.8
25.243108987808228,-4.82,4.89,-1.84,7.1
25.271904945373535,-5.12,4.69,-2.42,7.35
25.273273944854736,-5.74,4.77,-3.06,8.06
25.274369955062866,-5.96,4.51,-3.22,8.13
25.294146060943604,-5.54,3.8,-3.55,7.59
25.29517412185669,-4.83,2.97,-4.06,6.97
25.310308933258057,-3.81,2.44,-4.06,6.07
25.31126093864441,-2.71,2.35,-4.26,5.56
25.327101945877075,-2.81,3.7,-4.94,6.78
25.328572988510132,-3.3,5.48,-5.23,8.26
25.342987060546875,-2.24,7.06,-3.57,8.22
25.372380018234253,1.87,10.34,-0.59,10.52
25.373817920684814,2.98,9.94,-0.44,10.38
25.37480592727661,0.27,5.48,-2.35,5.96
25.39422607421875,-3.13,2.98,-4.17,6.0
25.395237922668457,-5.11,1.33,-4.5,6.93
25.410332918167114,-6.09,-2.13,-4.79,8.03
25.4113609790802,-5.75,-6.19,-4.52,9.58
25.427449941635132,-0.14,-4.37,-2.14,4.86
25.428916931152344,3.05,-1.34,-0.3,3.34
25.44304394721985,-0.8,-2.11,-1.43,2.67
25.47104001045227,-5.37,-2.54,-2.76,6.55
25.472455978393555,-8.44,-3.0,-2.84,9.39
25.473405838012695,-9.51,-3.4,-1.82,10.26
25.494300842285156,-9.21,-3.82,-0.35,9.97
25.49535894393921,-8.21,-4.38,0.72,9.33
25.51062297821045,-7.15,-4.98,1.16,8.79
25.511623859405518,-6.58,-5.28,0.92,8.48
25.527629852294922,-6.28,-5.13,0.51,8.12
25.529096126556396,-5.87,-4.7,0.53,7.53
25.543216943740845,-5.45,-4.24,0.7,6.94
25.573617935180664,-5.4,-3.85,0.8,6.68
25.57495880126953,-5.66,-3.53,0.77,6.71
25.575976848602295,-5.86,-2.84,0.3,6.51
25.59416699409485,-5.55,-2.03,-0.65,5.94
25.595221996307373,-4.31,-0.97,-1.27,4.59
25.610568046569824,-2.34,-0.52,-1.58,2.87
25.611621856689453,-0.38,-0.39,-1.38,1.48
25.62757897377014,0.99,-0.09,-0.72,1.22
25.629061937332153,1.64,0.45,-0.06,1.7
25.64321994781494,1.48,1.13,0.4,1.9
25.64467692375183,0.42,1.89,1.02,2.18
25.690380096435547,-0.78,3.14,1.73,3.66
25.691592931747437,-0.94,4.45,2.43,5.15
25.69258689880371,-0.08,5.39,3.15,6.24
25.711039066314697,1.28,5.84,3.38,6.86
25.712090969085693,2.91,6.09,3.1,7.42
25.727667808532715,4.87,6.25,2.38,8.27
25.729121923446655,6.34,6.11,1.1,8.87
25.744412899017334,6.91,6.31,0.03,9.35
25.745884895324707,8.62,6.83,-0.07,10.99
25.75967311859131,11.21,5.94,-0.16,12.68
25.78986692428589,12.94,4.2,0.0,13.6
25.791112899780273,12.72,2.86,0.4,13.04
25.79209804534912,11.09,2.08,0.99,11.32
25.811294078826904,9.99,2.18,1.61,10.35
25.812349796295166,10.08,2.1,1.9,10.47
25.827543020248413,10.61,1.93,2.25,11.01
25.829015016555786,9.05,5.33,2.15,10.72
25.844300985336304,8.27,6.79,1.96,10.87
25.84573984146118,10.18,3.61,2.0,10.98
25.8596510887146,11.45,2.64,3.34,12.21
25.888183116912842,10.25,0.38,3.19,10.74
25.889477968215942,4.0,-2.22,0.85,4.65
25.890460968017578,-5.7,-1.87,-1.48,6.17
25.911054134368896,-12.25,1.29,-2.06,12.48
25.912128925323486,-8.45,4.39,0.76,9.55
25.927445888519287,0.57,2.31,0.87,2.53
25.92844796180725,5.1,-0.71,-0.46,5.16
25.944377899169922,5.4,1.51,-0.66,5.64
25.945826053619385,3.82,5.98,0.73,7.13
25.959828853607178,4.29,6.16,1.12,7.58
25.988147020339966,4.59,1.61,0.67,4.91
25.989463806152344,2.31,-0.43,1.39,2.73
25.990468978881836,1.66,-1.42,2.7,3.47
26.01132106781006,1.67,-2.39,2.32,3.72
26.01238203048706,2.54,-1.6,1.9,3.55
26.02632999420166,3.09,-0.11,1.44,3.41
26.027355909347534,2.98,0.54,0.76,3.12
26.044475078582764,2.64,0.27,0.42,2.68
26.04596495628357,2.04,-0.3,0.25,2.07
26.059760093688965,1.35,-0.47,0.2,1.44
26.08920192718506,0.68,0.02,0.5,0.84
26.09062099456787,0.1,0.27,0.81,0.85
26.091624975204468,-0.14,0.13,0.74,0.76
26.11106300354004,-0.34,0.04,0.37,0.5
26.11211109161377,-0.55,0.07,-0.13,0.56
26.12741994857788,-0.44,0.07,-0.48,0.65
26.128376960754395,-0.03,0.06,-0.52,0.52
26.144593954086304,0.37,0.13,-0.42,0.57
26.14605188369751,0.9,0.19,-0.19,0.93
26.159675121307373,1.22,0.17,-0.27,1.26
26.187349796295166,1.23,0.09,-0.31,1.27
26.188693046569824,1.02,0.06,-0.16,1.03
26.189698934555054,0.68,0.05,-0.03,0.68
26.19203805923462,0.37,0.04,0.13,0.39
26.193338871002197,0.17,0.04,0.24,0.29
26.19456911087036,0.09,0.02,0.33,0.34
26.19817590713501,0.04,0.03,0.42,0.42
26.20802879333496,0.0,0.0,0.44,0.44
26.218130111694336,0.03,0.04,0.53,0.53
26.228065013885498,0.03,0.04,0.5,0.5
26.26216197013855,0.01,0.12,0.33,0.35
26.263142108917236,-0.08,0.16,0.26,0.31
26.26395082473755,-0.14,0.05,0.22,0.26
26.27656602859497,-0.19,-0.08,-0.03,0.2
26.277617931365967,-0.34,0.01,-0.19,0.38
26.29423999786377,-0.5,0.14,-0.19,0.55
26.297537803649902,-0.49,0.11,-0.02,0.5
26.308984994888306,-0.41,0.15,0.11,0.45
26.31764793395996,-0.45,0.2,0.01,0.49
26.327488899230957,-0.44,0.19,0.02,0.47
26.363967895507812,-0.38,0.19,0.11,0.43
26.365243911743164,-0.36,0.17,0.12,0.41
26.36621379852295,-0.21,0.13,0.1,0.26
26.379029989242554,0.14,0.12,0.05,0.19
26.380094051361084,0.46,0.01,-0.09,0.46
26.394415855407715,0.6,-0.06,-0.05,0.6
26.39663600921631,0.53,0.01,0.17,0.55
26.410701990127563,0.26,0.02,0.11,0.28
26.417008876800537,-0.17,0.14,-0.08,0.23
26.427026987075806,-0.49,0.32,-0.22,0.62
26.436970949172974,-0.6,0.37,-0.31,0.77
26.468502044677734,-0.68,0.36,-0.31,0.82
26.469660997390747,-0.93,0.26,-0.29,1.0
26.470762968063354,-1.33,0.22,-0.39,1.4
26.476205825805664,-1.57,0.46,-0.57,1.73
26.494221925735474,-1.44,0.63,-0.69,1.71
26.495959997177124,-1.38,0.67,-1.0,1.83
26.510812997817993,-1.2,0.88,-1.3,1.97
26.5158748626709,-0.9,1.03,-1.45,1.99
26.526840925216675,-0.95,0.9,-1.31,1.85
26.536201000213623,-1.12,0.8,-1.37,1.94
26.566638946533203,-1.2,0.99,-1.2,1.96
26.567769050598145,-1.16,1.5,-1.09,2.18
26.56900405883789,-1.07,1.99,-1.15,2.53
26.579224109649658,-1.34,2.38,-1.77,3.25
26.585482120513916,-2.04,3.31,-1.92,4.33
26.595219135284424,-2.39,4.14,-2.09,5.21
26.605323791503906,-2.5,3.69,-1.74,4.78
26.615548133850098,-2.97,3.6,-0.85,4.74
26.625503063201904,-3.86,3.48,-1.61,5.44
26.635189056396484,-4.41,3.74,-2.02,6.12
26.668665885925293,-4.69,4.22,-2.42,6.75
26.670133113861084,-4.9,4.53,-2.99,7.31
26.67112112045288,-5.37,4.72,-3.46,7.94
26.675086975097656,-5.91,5.01,-3.79,8.62
26.69437313079834,-6.2,4.86,-3.92,8.79
26.69541883468628,-5.86,4.08,-3.82,8.09
26.711348056793213,-5.01,3.07,-3.94,7.07
26.71464204788208,-3.7,2.25,-3.9,5.82
26.726684093475342,-2.47,2.57,-3.86,5.25
26.73463487625122,-2.31,4.25,-4.43,6.55
26.7712459564209,-2.97,6.11,-4.96,8.41
26.77239990234375,-2.25,8.23,-4.02,9.43
26.773367881774902,1.63,11.01,-1.91,11.29
26.775739908218384,2.59,9.37,-1.76,9.87
26.783682823181152,0.27,4.93,-3.44,6.01
26.79399299621582,-2.28,2.67,-4.9,6.02
26.803766012191772,-4.28,0.18,-5.27,6.79
26.814100980758667,-5.3,-3.18,-5.31,8.14
26.824007034301758,-1.75,-5.26,-4.59,7.19
26.833781003952026,4.04,-2.87,-2.4,5.5
26.87223792076111,1.95,-3.18,-2.4,4.43
26.8735990524292,-3.39,-3.47,-4.03,6.3
26.87462091445923,-7.46,-3.19,-4.82,9.43
26.895164012908936,-9.1,-3.24,-3.95,10.43
26.896155834197998,-9.24,-3.44,-2.2,10.1
26.910542964935303,-8.56,-4.16,-0.53,9.53
26.911601066589355,-7.71,-5.13,0.58,9.27
26.928210020065308,-7.33,-5.38,1.12,9.16
26.92969799041748,-7.39,-4.89,1.05,8.92
26.943696975708008,-7.52,-4.33,0.86,8.72
26.972201824188232,-7.48,-4.04,0.93,8.55
26.97413396835327,-7.24,-3.91,1.23,8.31
26.975148916244507,-6.89,-3.65,1.49,7.93
26.994839906692505,-6.55,-3.48,1.49,7.56
26.995832920074463,-6.32,-3.35,1.16,7.24
27.01150608062744,-6.2,-3.08,0.62,6.95
27.01298999786377,-6.0,-2.43,0.03,6.47
27.028244972229004,-5.36,-1.52,-0.53,5.59
27.029717922210693,-4.05,-0.52,-1.04,4.21
27.043802976608276,-2.29,0.19,-1.52,2.75
27.07314682006836,-0.37,0.58,-2.01,2.12
27.074443817138672,1.14,1.04,-1.99,2.51
27.075442790985107,2.28,1.79,-1.44,3.23
27.09481906890869,3.37,2.48,-1.04,4.31
27.095865964889526,4.21,3.0,-0.98,5.26
27.11120080947876,4.45,3.56,-0.83,5.75
27.112174034118652,4.38,4.4,-0.46,6.22
27.128750801086426,4.42,5.38,0.18,6.96
27.13024401664734,4.7,5.98,0.68,7.63
27.14403009414673,5.45,6.27,1.05,8.37
27.173990964889526,6.94,6.35,1.4,9.51
27.17531108856201,8.62,6.18,1.61,10.72
27.17630100250244,9.75,5.71,1.71,11.42
27.194955825805664,9.95,5.21,2.01,11.4
27.19597601890564,9.69,4.8,2.25,11.04
27.21115493774414,9.41,4.2,2.2,10.53
27.21216893196106,7.97,6.47,2.0,10.45
27.229308128356934,8.49,6.23,2.32,10.78
27.230813026428223,10.73,4.13,3.28,11.95
27.244017124176025,11.4,3.51,4.1,12.61
27.245430946350098,11.07,2.56,3.86,11.99
27.292574882507324,9.99,2.54,3.86,11.0
27.293689012527466,8.49,3.19,4.42,10.08
27.294696807861328,5.98,2.36,4.1,7.62
27.312516927719116,-0.19,-0.57,1.1,1.25
27.313995838165283,-7.24,-0.05,-1.78,7.45
27.328301906585693,-6.82,3.11,-0.21,7.49
27.329792976379395,0.47,2.34,1.68,2.91
27.34518814086914,4.9,0.75,1.2,5.1
27.346624851226807,5.66,3.04,0.59,6.45
27.36036992073059,3.85,5.92,0.82,7.1
27.393914937973022,2.98,4.99,0.68,5.85
27.395330905914307,3.81,1.88,0.46,4.27
27.39632797241211,2.71,-1.06,1.04,3.09
27.41243600845337,1.78,-1.7,2.49,3.5
27.413464069366455,1.58,-1.83,2.36,3.37
27.42849898338318,2.08,-1.22,1.5,2.83
27.429955005645752,2.65,0.07,0.89,2.79
27.445263862609863,2.67,0.55,0.33,2.74
27.44672203063965,2.54,0.39,0.12,2.57
27.460247039794922,2.26,-0.06,0.33,2.28
27.491750955581665,1.97,-0.54,0.98,2.26
27.493538856506348,1.58,-0.34,1.69,2.33
27.494511127471924,0.64,0.04,1.94,2.04
27.51184391975403,-0.64,0.05,1.44,1.57
27.51291513442993,-1.38,0.11,0.44,1.45
27.528340816497803,-1.4,0.21,-0.48,1.49
27.52974796295166,-0.89,0.21,-1.0,1.35
27.54501700401306,-0.38,0.21,-1.14,1.21
27.546390056610107,-0.08,0.2,-1.17,1.18
27.560401916503906,0.11,0.09,-1.1,1.1
27.590584993362427,0.35,0.01,-0.89,0.95
27.5919189453125,1.01,0.06,-0.33,1.06
27.592922925949097,1.19,0.04,-0.06,1.19
27.61207103729248,1.0,0.07,0.23,1.02
27.613086938858032,0.5,0.08,0.52,0.72
27.62829899787903,0.1,0.04,0.79,0.79
27.62974500656128,-0.12,0.0,0.9,0.9
27.64513111114502,-0.15,-0.02,0.7,0.71
27.646585941314697,0.07,0.1,0.38,0.39
27.660324096679688,0.34,0.1,0.05,0.35
27.68909192085266,0.6,0.07,-0.4,0.72
27.690514087677002,0.73,-0.07,-0.64,0.97
27.69148898124695,0.62,-0.15,-0.37,0.73
27.712178945541382,0.32,-0.17,-0.15,0.39
27.71323800086975,-0.14,-0.06,-0.09,0.17
27.728245973587036,-0.55,0.17,0.01,0.57
27.729275941848755,-0.56,0.3,-0.06,0.63
27.745283126831055,-0.44,0.44,0.08,0.62
27.74677085876465,-0.26,0.48,0.17,0.57
27.760622024536133,0.01,0.33,0.08,0.33
27.78972601890564,0.22,0.16,0.05,0.27
27.791067123413086,0.39,0.01,-0.02,0.39
27.791882038116455,0.46,-0.01,0.12,0.47
27.81212091445923,0.42,0.05,0.27,0.5
27.813090801239014,0.28,0.04,0.27,0.39
27.827939987182617,0.19,-0.05,0.31,0.36
27.82888412475586,0.19,-0.09,0.37,0.42
27.84515380859375,0.05,-0.03,0.38,0.38
27.846575021743774,-0.3,0.12,0.14,0.35
27.860327005386353,-0.6,0.31,-0.11,0.68
27.887727975845337,-0.68,0.38,-0.11,0.78
27.888949871063232,-0.77,0.28,-0.11,0.82
27.889873027801514,-0.87,0.31,-0.33,0.98
27.891921997070312,-0.98,0.51,-0.61,1.26
27.893258094787598,-1.14,0.68,-0.82,1.56
27.895463943481445,-1.33,0.75,-0.86,1.75
27.905378818511963,-1.53,0.72,-0.85,1.89
27.915608882904053,-1.8,0.68,-1.06,2.19
27.92551279067993,-1.98,0.73,-1.16,2.4
27.935379028320312,-1.75,0.9,-1.02,2.21
27.96919894218445,-1.42,1.34,-0.99,2.18
27.970629930496216,-1.47,2.07,-1.2,2.8
27.971538066864014,-1.73,2.59,-1.0,3.27
27.974677085876465,-2.05,2.69,-0.76,3.46
27.994826793670654,-2.35,2.89,-0.75,3.79
27.99586296081543,-2.59,2.88,-1.35,4.1
28.011408805847168,-2.46,2.76,-1.81,4.11
28.014625072479248,-2.11,2.57,-1.88,3.81
28.027166843414307,-2.22,2.5,-2.12,3.95
28.034751892089844,-2.62,2.67,-2.29,4.38
28.04451084136963,-2.99,3.05,-2.52,4.95
28.07646608352661,-3.41,3.56,-2.61,5.57
28.077749967575073,-3.96,3.86,-2.84,6.21
28.078755855560303,-4.59,3.98,-3.15,6.84
28.095726013183594,-5.01,4.07,-3.39,7.29
28.09675693511963,-4.98,3.7,-3.27,7.01
28.111699104309082,-4.55,3.16,-3.24,6.41
28.113847017288208,-3.86,2.68,-3.4,5.8
28.128045082092285,-2.7,2.18,-3.33,4.8
28.134092807769775,-1.85,2.45,-3.46,4.62
28.144054889678955,-1.9,3.62,-3.75,5.54
28.17421793937683,-2.04,5.03,-3.57,6.49
28.175579071044922,-1.17,6.61,-2.74,7.25
28.176604986190796,1.76,9.4,-1.62,9.69
28.19521188735962,1.83,8.32,-2.47,8.86
28.19625496864319,-0.96,4.59,-3.78,6.02
28.2128849029541,-3.44,2.69,-4.31,6.13
28.213911056518555,-4.86,1.02,-4.05,6.4
28.22900891304016,-5.93,-1.37,-3.78,7.16
28.23335313796997,-5.95,-4.7,-3.91,8.53
28.24412202835083,-1.42,-4.02,-2.97,5.19
28.275264978408813,1.85,-1.32,-1.59,2.77
28.27662181854248,-1.48,-2.04,-1.92,3.16
28.277687072753906,-5.8,-2.08,-2.86,6.79
28.2956280708313,-8.7,-1.96,-2.89,9.37
28.296637058258057,-9.79,-2.45,-1.9,10.26
28.311771869659424,-9.53,-2.81,-0.56,9.95
28.312827110290527,-8.44,-3.24,0.45,9.05
28.328929901123047,-7.21,-3.89,0.83,8.23
28.332481861114502,-6.2,-4.24,0.6,7.53
28.342504024505615,-5.59,-4.03,0.12,6.89
28.374704837799072,-5.36,-3.49,-0.05,6.39
28.376072883605957,-5.34,-3.09,0.02,6.16
28.377081871032715,-5.33,-2.77,0.05,6.0
28.395404815673828,-5.22,-2.34,0.05,5.72
28.396392822265625,-4.91,-1.89,-0.07,5.26
28.411720991134644,-4.32,-1.4,-0.57,4.57
28.412763118743896,-3.34,-0.82,-1.4,3.71
28.428898811340332,-1.99,-0.19,-2.07,2.87
28.43170404434204,-0.49,0.1,-2.12,2.17
28.44430112838745,0.37,-0.02,-1.51,1.55
28.480567932128906,0.52,-0.19,-0.69,0.88
28.481961965560913,0.69,0.08,-0.04,0.69
28.482937812805176,0.84,0.63,0.15,1.06
28.4961519241333,0.82,1.25,0.26,1.51
28.49721097946167,0.75,1.91,0.68,2.16
28.511794090270996,0.88,2.57,1.15,2.94
28.51283097267151,1.22,3.02,1.51,3.59
28.528843879699707,1.8,3.44,1.87,4.3
28.530884981155396,2.81,3.84,1.88,5.11
28.54362392425537,3.99,4.04,1.12,5.78
28.57696008682251,5.23,4.64,0.4,7.0
28.57820200920105,6.86,5.32,-0.1,8.68
28.579183101654053,8.4,5.44,-0.56,10.02
28.591980934143066,9.61,5.52,-0.48,11.09
28.59297800064087,10.69,5.26,0.09,11.91
28.60829496383667,11.08,4.26,0.96,11.9
28.61005401611328,10.38,3.29,1.85,11.04
28.62930393218994,9.47,2.75,2.73,10.23
28.630842924118042,8.87,2.51,3.57,9.88
28.644731998443604,7.42,4.35,4.19,9.56
28.679085969924927,6.38,5.71,4.19,9.53
28.68040704727173,7.33,3.67,4.6,9.39
28.681429862976074,8.08,2.89,5.34,10.1
28.696285009384155,8.04,2.6,5.24,9.94
28.69738793373108,7.01,2.95,5.02,9.11
28.71181893348694,4.73,2.96,4.59,7.22
28.71288299560547,-0.44,1.16,2.48,2.77
28.72886300086975,-6.75,0.47,-0.24,6.77
28.73030996322632,-7.33,1.41,-0.81,7.5
28.744564056396484,-1.01,1.42,0.12,1.74
28.778958797454834,3.94,-0.38,0.49,3.98
28.780322074890137,5.65,-1.31,0.32,5.8
28.781333923339844,6.2,1.63,0.13,6.41
28.795956134796143,5.19,6.05,0.84,8.01
28.797022819519043,5.57,5.78,0.8,8.06
28.81243896484375,5.71,1.81,0.37,6.0
28.81388807296753,3.8,0.92,1.78,4.29
28.82923412322998,2.09,-0.88,3.34,4.03
28.830636024475098,1.21,-1.9,2.91,3.67
28.84468984603882,1.29,-0.96,2.47,2.94
28.84863805770874,1.12,-0.27,2.25,2.52
28.89017105102539,0.56,-0.14,1.72,1.81
28.89134979248047,0.3,-0.27,1.14,1.2
28.892335891723633,0.77,-0.1,0.83,1.13
28.913007974624634,1.0,0.13,0.67,1.21
28.914091110229492,0.68,0.23,0.29,0.77
28.928574085235596,0.5,0.0,-0.43,0.65
28.93005609512329,0.63,-0.04,-0.66,0.91
28.94576597213745,0.49,0.14,-0.47,0.69
28.947246074676514,0.19,0.19,-0.66,0.71
28.961108922958374,0.2,0.18,-1.31,1.33
28.990935802459717,0.47,0.09,-1.7,1.76
28.99226713180542,0.71,0.01,-1.0,1.22
28.993273973464966,0.54,0.11,0.09,0.55
29.01225185394287,0.05,0.12,0.79,0.8
29.01329803466797,-0.19,0.03,1.0,1.01
29.02864098548889,-0.18,0.04,0.81,0.83
29.02970314025879,-0.02,0.09,0.35,0.36
29.045907974243164,0.46,-0.02,0.08,0.46
29.047334909439087,0.92,-0.2,0.15,0.95
29.060998916625977,1.01,-0.24,0.28,1.07
29.090295791625977,0.78,-0.16,0.34,0.86
29.091681003570557,0.5,-0.12,0.21,0.55
29.092651844024658,0.34,-0.07,0.21,0.4
29.112450122833252,0.18,-0.01,0.44,0.47
29.11349105834961,-0.04,0.14,0.42,0.44
29.12836503982544,-0.23,0.25,-0.05,0.34
29.129410982131958,-0.37,0.21,-0.36,0.55
29.145793914794922,-0.34,0.06,-0.39,0.52
29.147243976593018,-0.22,-0.08,-0.22,0.32
29.160969018936157,-0.16,-0.11,-0.05,0.2
29.18944787979126,-0.08,0.05,0.07,0.11
29.19080090522766,-0.03,0.24,0.08,0.25
29.191772937774658,0.03,0.28,0.14,0.31
29.21339702606201,0.02,0.24,0.17,0.29
29.214462995529175,-0.01,0.19,0.14,0.23
29.22879409790039,0.1,0.19,0.02,0.21
29.229753971099854,0.18,0.17,-0.19,0.31
29.245956897735596,0.0,0.12,-0.33,0.35
29.24742889404297,-0.24,0.11,-0.4,0.47
29.261191844940186,-0.49,0.22,-0.33,0.63
29.289427995681763,-0.61,0.44,-0.17,0.77
29.29090690612793,-0.59,0.63,0.03,0.86
29.291922092437744,-0.81,0.7,-0.08,1.07
29.312608003616333,-1.03,0.65,-0.42,1.28
29.31367778778076,-1.16,0.57,-0.58,1.41
29.328807830810547,-1.3,0.58,-0.71,1.59
29.32984495162964,-1.5,0.65,-0.99,1.91
29.345873832702637,-1.65,0.75,-1.16,2.15
29.347371101379395,-1.72,0.94,-1.08,2.23
29.361312866210938,-1.8,0.96,-0.87,2.21
29.389461040496826,-1.81,1.02,-0.72,2.19
29.39085102081299,-1.74,1.09,-0.83,2.21
29.391844987869263,-1.94,1.47,-1.06,2.65
29.41279411315918,-2.22,2.2,-1.42,3.43
29.41383695602417,-1.85,2.94,-1.02,3.62
29.428797960281372,-1.88,3.01,-1.03,3.69
29.42981195449829,-1.84,3.21,-0.78,3.78
29.446192979812622,-2.07,3.32,-1.18,4.08
29.447661876678467,-2.3,3.12,-1.64,4.2
29.461458921432495,-2.19,2.73,-1.56,3.83
29.48848009109497,-2.5,2.71,-1.62,4.02
29.489813804626465,-3.21,2.87,-2.02,4.75
29.49079394340515,-3.89,3.04,-2.44,5.5
29.49311900138855,-4.44,3.48,-2.78,6.28
29.494457960128784,-4.88,3.96,-3.02,6.97
29.50350284576416,-5.16,4.01,-3.21,7.28
29.513503074645996,-5.37,3.93,-3.41,7.47
29.523202896118164,-5.63,3.99,-3.91,7.93
29.533273935317993,-5.35,3.53,-4.09,7.6
29.5436589717865,-4.05,2.58,-4.18,6.36
29.580164909362793,-2.88,2.52,-4.32,5.77
29.581336975097656,-2.93,4.2,-4.43,6.77
29.582355976104736,-3.38,6.08,-4.32,8.18
29.596096992492676,-2.49,7.08,-3.13,8.13
29.597107887268066,1.65,9.64,-0.44,9.79
29.61203098297119,2.89,9.29,-1.18,9.8
29.613099098205566,-0.37,6.04,-3.55,7.01
29.628933906555176,-3.43,4.69,-4.9,7.6
29.632784843444824,-4.97,2.61,-4.77,7.36
29.643611907958984,-5.94,-0.88,-4.19,7.32
29.6524600982666,-5.79,-4.78,-3.59,8.32
29.68725299835205,-0.19,-3.59,-1.95,4.08
29.688430786132812,3.06,-1.24,-0.72,3.37
29.689621925354004,-1.27,-2.14,-1.77,3.05
29.69200086593628,-6.07,-2.28,-3.21,7.23
29.712520122528076,-9.13,-2.35,-3.07,9.91
29.71356701850891,-10.09,-2.65,-1.77,10.58
29.72951602935791,-9.73,-3.08,-0.27,10.2
29.731961965560913,-8.6,-3.65,1.08,9.4
29.743846893310547,-7.55,-4.33,1.7,8.86
29.751966953277588,-7.02,-4.77,1.31,8.58
29.788960933685303,-6.78,-4.61,0.65,8.22
29.79011583328247,-6.63,-4.17,0.26,7.83
29.79108691215515,-6.37,-3.65,0.27,7.34
29.793330907821655,-5.94,-3.22,0.42,6.76
29.801111936569214,-5.48,-3.0,0.45,6.26
29.811383962631226,-5.1,-2.71,0.21,5.77
29.821173906326294,-4.93,-2.11,-0.61,5.39
29.831335067749023,-4.69,-1.06,-1.32,4.98
29.841269969940186,-3.71,-0.01,-1.53,4.01
29.8511700630188,-1.94,0.07,-1.52,2.46
29.883716106414795,-0.18,-0.14,-1.12,1.14
29.88512897491455,0.75,-0.34,-0.7,1.08
29.886146068572998,0.91,-0.14,-0.26,0.95
29.896300792694092,0.79,0.7,0.23,1.08
29.900394916534424,0.66,1.58,0.57,1.8
29.912861824035645,0.46,2.24,0.9,2.45
29.92045783996582,0.18,2.89,1.36,3.19
29.930334091186523,0.21,3.8,1.86,4.23
29.940436840057373,1.12,4.83,2.14,5.4
29.950302124023438,3.01,5.83,1.83,6.81
29.982679843902588,5.75,6.37,1.21,8.66
29.98401689529419,8.04,6.42,0.53,10.3
29.985046863555908,9.4,6.44,-0.1,11.39
29.99632501602173,10.3,6.3,-0.52,12.08
