time,ax,ay,az,atotal
0.0011789798736572266,0.62,0.46,-0.5,0.91
0.011409997940063477,0.12,-0.05,0.19,0.23
0.05559515953063965,0.02,-0.04,0.0,0.04
0.056546926498413086,-0.04,0.04,-0.19,0.19
0.057135820388793945,0.04,0.0,-0.11,0.11
0.057698965072631836,0.04,0.03,-0.06,0.07
0.06119704246520996,0.18,0.01,-0.02,0.18
0.07126307487487793,0.28,0.0,0.09,0.29
0.08125090599060059,0.24,0.0,0.08,0.25
0.09124016761779785,0.2,0.0,0.03,0.2
0.10108113288879395,0.06,0.0,-0.02,0.06
0.11115384101867676,-0.14,-0.01,-0.07,0.15
0.15693116188049316,-0.2,-0.02,-0.03,0.2
0.15749907493591309,-0.2,0.0,-0.05,0.2
0.15801787376403809,-0.33,0.0,-0.09,0.34
0.15856099128723145,-0.16,-0.02,-0.01,0.16
0.16112303733825684,-0.01,-0.01,0.05,0.05
0.17112183570861816,0.0,0.01,0.03,0.03
0.1810009479522705,-0.06,-0.01,0.03,0.06
0.19102787971496582,-0.2,-0.01,0.02,0.2
0.20102190971374512,-0.14,-0.01,-0.04,0.14
0.2110579013824463,-0.04,-0.01,-0.1,0.1
0.2561061382293701,-0.07,-0.04,-0.03,0.08
0.25690793991088867,-0.01,0.0,0.09,0.09
0.25749993324279785,0.17,0.01,0.11,0.2
0.2580831050872803,0.3,-0.01,0.13,0.32
0.26094603538513184,0.19,0.01,0.04,0.19
0.27104902267456055,0.18,0.02,-0.04,0.18
0.2808830738067627,0.19,-0.02,-0.07,0.2
0.2909250259399414,0.05,-0.02,-0.17,0.17
0.30074095726013184,0.02,0.02,-0.24,0.24
0.3109769821166992,0.07,0.01,-0.27,0.27
0.3566160202026367,-0.02,-0.01,-0.29,0.29
0.35722899436950684,-0.13,0.0,-0.17,0.21
0.3578159809112549,-0.25,-0.03,0.13,0.28
0.3583991527557373,-0.45,-0.07,0.35,0.57
0.3608829975128174,-0.69,-0.1,0.44,0.82
0.37079596519470215,-0.61,-0.05,0.34,0.7
0.3808159828186035,-0.37,-0.06,0.25,0.45
0.3908231258392334,-0.24,0.0,0.21,0.31
0.400676965713501,-0.2,0.01,0.13,0.23
0.41094303131103516,-0.16,-0.01,0.02,0.16
0.4572460651397705,-0.09,0.01,-0.07,0.11
0.4578430652618408,-0.14,-0.04,0.05,0.15
0.45843005180358887,-0.28,-0.08,0.21,0.35
0.4590139389038086,-0.17,0.02,0.27,0.31
0.4605979919433594,-0.21,-0.06,0.23,0.31
0.4707658290863037,-0.08,-0.07,0.16,0.19
0.4806978702545166,0.32,-0.09,0.17,0.37
0.4906628131866455,0.42,-0.09,0.34,0.54
0.5005748271942139,0.24,-0.02,0.31,0.39
0.5107080936431885,-0.21,0.0,-0.04,0.21
0.5569860935211182,-0.41,0.07,-0.38,0.56
0.5575699806213379,-0.26,0.07,-0.49,0.55
0.5581238269805908,0.0,0.03,-0.34,0.34
0.558708906173706,0.12,0.11,-0.37,0.4
0.5605161190032959,0.16,0.07,-0.41,0.44
0.5705878734588623,0.36,0.04,-0.28,0.45
0.5805239677429199,0.43,0.06,-0.3,0.52
0.5905578136444092,0.5,0.05,-0.25,0.56
0.6006460189819336,0.55,0.01,-0.14,0.56
0.6104650497436523,0.46,0.01,-0.1,0.47
0.6571550369262695,0.25,0.03,-0.13,0.28
0.6577498912811279,0.16,0.0,-0.15,0.21
0.658329963684082,0.22,0.02,-0.08,0.23
0.6589009761810303,0.12,0.03,-0.08,0.14
0.6604139804840088,0.15,-0.03,-0.07,0.16
0.6704490184783936,0.26,0.02,-0.01,0.26
0.6804578304290771,0.21,0.03,-0.06,0.22
0.6904289722442627,0.16,0.04,-0.21,0.26
0.7003610134124756,0.37,0.03,-0.17,0.4
0.7104179859161377,0.53,0.08,-0.21,0.57
0.7576580047607422,0.34,0.09,-0.45,0.57
0.758234977722168,0.24,0.12,-0.6,0.65
0.758795976638794,0.36,0.12,-0.8,0.88
0.7593369483947754,0.28,0.03,-0.82,0.86
0.7605209350585938,-0.15,-0.01,-0.4,0.42
0.770272970199585,-0.48,-0.02,0.19,0.51
0.7803428173065186,-0.46,-0.07,0.54,0.71
0.7902920246124268,-0.37,-0.09,0.58,0.69
0.8002068996429443,-0.22,-0.09,0.6,0.64
0.8103678226470947,-0.12,-0.06,0.54,0.55
0.8577940464019775,-0.06,-0.02,0.42,0.42
0.8583869934082031,0.0,-0.01,0.21,0.21
0.85896897315979,0.03,0.0,0.03,0.04
0.8595559597015381,-0.01,0.05,-0.1,0.11
0.8607370853424072,-0.16,0.04,-0.23,0.28
0.8700840473175049,-0.18,0.02,-0.19,0.26
0.8802220821380615,0.0,-0.01,-0.2,0.2
0.8901240825653076,0.06,-0.03,-0.12,0.13
0.9001059532165527,0.01,0.03,0.07,0.07
0.9100840091705322,0.14,0.02,0.16,0.21
0.9582300186157227,0.28,-0.03,0.23,0.36
0.9588179588317871,0.12,-0.04,0.19,0.22
0.9593939781188965,-0.1,-0.06,0.12,0.16
0.959975004196167,-0.03,-0.01,0.1,0.1
0.9611251354217529,0.18,-0.02,0.01,0.18
0.9699671268463135,0.21,-0.02,-0.01,0.21
0.9798569679260254,0.16,-0.05,0.06,0.17
0.9900028705596924,0.0,-0.07,0.12,0.13
1.0000569820404053,-0.19,-0.09,0.15,0.25
1.0100820064544678,-0.15,-0.06,0.1,0.19
1.0584690570831299,-0.06,-0.01,0.03,0.06
1.0590698719024658,-0.11,0.04,0.0,0.11
1.0596790313720703,-0.23,0.06,-0.11,0.26
1.0602600574493408,-0.31,0.09,-0.33,0.46
1.0614478588104248,-0.39,0.02,-0.48,0.61
1.0699739456176758,-0.26,-0.01,-0.32,0.41
1.0798900127410889,-0.18,0.02,-0.25,0.3
1.0898690223693848,-0.24,0.02,-0.24,0.34
1.0998508930206299,-0.1,0.0,-0.13,0.16
1.1098411083221436,-0.03,-0.02,-0.01,0.03
1.158646821975708,-0.09,-0.05,0.03,0.1
1.1592209339141846,-0.09,-0.09,0.24,0.27
1.159796953201294,-0.14,-0.07,0.53,0.55
1.1603779792785645,-0.26,-0.04,0.6,0.65
1.1615619659423828,-0.28,-0.08,0.4,0.49
1.1697461605072021,-0.18,-0.09,0.29,0.35
1.1797280311584473,0.0,-0.02,0.26,0.26
1.1896460056304932,0.22,0.01,0.18,0.28
1.1997029781341553,0.16,0.02,-0.04,0.16
1.209665060043335,0.05,0.0,-0.23,0.23
1.2591140270233154,0.26,0.01,-0.27,0.37
1.2597401142120361,0.38,0.0,-0.22,0.43
1.2603209018707275,0.32,0.02,-0.18,0.36
1.2609031200408936,0.38,0.0,-0.16,0.41
1.2620551586151123,0.25,-0.03,0.02,0.25
1.269615888595581,0.18,0.01,0.12,0.21
1.2796399593353271,0.01,0.0,0.08,0.08
1.2896339893341064,-0.07,-0.03,0.16,0.17
1.2995719909667969,-0.14,-0.01,0.06,0.15
1.3094019889831543,-0.11,0.02,-0.19,0.22
1.359457015991211,0.18,0.02,-0.24,0.3
1.3600208759307861,0.43,0.04,-0.21,0.48
1.3606078624725342,0.4,0.02,-0.26,0.47
1.36118483543396,0.2,-0.08,-0.22,0.3
1.3623969554901123,-0.12,-0.09,0.0,0.15
1.3694040775299072,-0.43,-0.01,0.14,0.45
1.3794119358062744,-0.52,-0.01,0.12,0.53
1.3894250392913818,-0.41,0.0,0.03,0.41
1.399379014968872,-0.23,0.01,-0.07,0.24
1.409250020980835,0.0,0.04,-0.23,0.23
1.459475040435791,0.23,0.03,-0.09,0.24
1.4600551128387451,0.38,0.03,0.03,0.38
1.460597038269043,0.1,0.07,-0.14,0.18
1.4611740112304688,-0.17,-0.02,-0.24,0.29
1.4623148441314697,-0.33,-0.02,-0.25,0.41
1.469437837600708,-0.49,0.0,-0.13,0.5
1.47934889793396,-0.45,0.0,-0.08,0.45
1.4893150329589844,-0.2,-0.04,-0.03,0.2
1.4992890357971191,0.02,0.0,0.14,0.14
1.5092570781707764,0.1,0.0,0.2,0.22
1.5600290298461914,0.15,-0.03,0.11,0.18
1.5606238842010498,0.21,0.04,-0.1,0.23
1.5611929893493652,0.23,0.04,-0.21,0.31
1.5617380142211914,0.19,0.01,-0.09,0.21
1.562880039215088,0.23,0.01,0.02,0.23
1.5691959857940674,0.07,-0.03,0.0,0.07
1.579185962677002,-0.12,-0.03,-0.1,0.15
1.5891900062561035,0.01,0.0,-0.05,0.05
1.5990989208221436,0.23,0.0,-0.05,0.23
1.6091439723968506,0.27,-0.01,-0.04,0.27
1.6600911617279053,0.25,0.07,-0.05,0.26
1.6606791019439697,0.18,0.08,-0.08,0.21
1.6612541675567627,0.08,0.02,0.03,0.08
1.6618340015411377,0.01,-0.03,0.09,0.09
1.6630008220672607,-0.16,-0.02,0.01,0.16
1.6689119338989258,-0.35,0.05,-0.25,0.43
1.6790380477905273,-0.39,-0.01,-0.44,0.58
1.689056158065796,-0.24,0.01,-0.44,0.5
1.6990411281585693,-0.05,0.0,-0.27,0.27
1.7090671062469482,0.13,0.0,-0.12,0.17
1.760329008102417,0.18,0.0,-0.06,0.18
1.7608888149261475,0.14,0.02,0.06,0.15
1.7614660263061523,0.12,0.05,0.09,0.15
1.7620370388031006,0.01,0.02,0.02,0.03
1.763185977935791,-0.27,0.06,-0.15,0.31
1.7688469886779785,-0.53,0.02,-0.48,0.71
1.7789461612701416,-0.46,-0.04,-0.49,0.67
1.7889299392700195,-0.25,0.0,-0.35,0.43
1.7988851070404053,-0.14,-0.04,-0.16,0.21
1.8087570667266846,-0.17,-0.02,-0.03,0.17
1.8604848384857178,-0.13,-0.05,0.07,0.15
1.8610830307006836,0.05,-0.06,0.17,0.18
1.8616490364074707,0.21,-0.03,0.17,0.27
1.8621950149536133,0.2,-0.01,0.09,0.21
1.8634040355682373,0.16,0.04,-0.03,0.16
1.8687000274658203,0.12,0.08,-0.23,0.27
1.8788211345672607,0.1,0.01,-0.39,0.4
1.8887708187103271,0.1,-0.02,-0.26,0.27
1.8986070156097412,0.11,-0.04,-0.06,0.13
1.9087109565734863,0.12,-0.03,0.05,0.13
1.9611270427703857,0.21,-0.02,0.17,0.27
1.9617321491241455,0.29,-0.01,0.26,0.38
1.962324857711792,0.37,0.03,0.31,0.48
1.9629099369049072,0.39,0.05,0.26,0.47
1.9643690586090088,0.3,0.08,0.16,0.34
1.9685029983520508,0.24,0.06,-0.13,0.27
1.9786131381988525,0.18,-0.01,-0.28,0.33
1.9886410236358643,0.17,0.01,-0.16,0.23
1.9985311031341553,0.11,0.02,-0.13,0.17
2.008639097213745,0.07,-0.03,-0.05,0.09
2.0614211559295654,0.06,-0.05,0.17,0.18
2.0620291233062744,0.0,-0.08,0.24,0.25
2.062617063522339,-0.07,-0.03,0.29,0.29
2.0635311603546143,-0.2,-0.03,0.26,0.32
2.0646719932556152,-0.27,-0.09,0.08,0.29
2.0685508251190186,-0.26,-0.14,0.03,0.29
2.0784590244293213,-0.07,-0.14,0.14,0.21
2.0884850025177,-0.02,-0.07,0.27,0.27
2.0984208583831787,-0.17,-0.04,0.33,0.37
2.108433961868286,-0.29,-0.05,0.1,0.31
2.1618340015411377,-0.44,-0.06,-0.01,0.44
2.162436008453369,-0.59,-0.09,0.04,0.59
2.1630518436431885,-0.62,-0.13,0.06,0.63
2.1639280319213867,-0.48,-0.07,0.01,0.48
2.1651089191436768,-0.29,-0.04,-0.03,0.29
2.168599843978882,-0.29,-0.05,-0.15,0.33
2.1782901287078857,-0.34,-0.05,-0.32,0.46
2.188284158706665,-0.15,-0.08,-0.16,0.23
2.1983189582824707,0.14,-0.14,0.08,0.21
2.20831298828125,0.05,-0.11,-0.13,0.17
2.2182209491729736,-0.1,0.0,-0.29,0.3
2.263216018676758,-0.05,0.04,-0.33,0.33
2.2638089656829834,-0.11,-0.11,-0.17,0.23
2.26440691947937,-0.22,-0.26,0.19,0.39
2.265573024749756,-0.12,-0.19,0.37,0.43
2.268617868423462,0.19,-0.02,0.18,0.26
2.278162956237793,0.5,0.02,0.09,0.5
2.2882368564605713,0.56,-0.03,0.01,0.56
2.298285961151123,0.13,0.01,-0.3,0.32
2.308241128921509,-0.37,0.12,-0.53,0.65
2.318204164505005,-0.63,0.12,-0.31,0.71
2.3635849952697754,-0.68,0.19,-0.32,0.77
2.3641698360443115,-0.47,0.31,-0.57,0.8
2.3647420406341553,-0.13,0.3,-0.74,0.8
2.3659000396728516,0.2,0.26,-0.81,0.87
2.367969036102295,0.3,0.18,-0.7,0.78
2.3779261112213135,0.05,0.13,-0.63,0.64
2.387974977493286,-0.14,0.16,-0.54,0.58
2.3979899883270264,-0.03,0.13,-0.24,0.27
2.4079530239105225,0.15,0.07,-0.03,0.16
2.4179880619049072,0.24,0.01,0.02,0.24
2.463716983795166,0.33,0.07,0.02,0.33
2.464268922805786,0.42,0.27,-0.06,0.5
2.4648468494415283,0.65,0.24,-0.23,0.73
2.466015100479126,0.92,-0.01,-0.06,0.92
2.4679369926452637,1.09,0.01,0.1,1.09
2.4779088497161865,1.62,0.29,-0.07,1.64
2.487921953201294,2.17,0.36,-0.02,2.19
2.497833013534546,2.68,0.31,0.12,2.7
2.507874011993408,3.45,0.48,0.39,3.5
2.5177180767059326,3.8,0.56,0.72,3.9
2.5509510040283203,3.79,0.5,0.98,3.94
2.5515401363372803,3.73,0.61,1.34,4.01
2.5527708530426025,3.23,0.74,1.62,3.68
2.55777907371521,2.72,0.8,1.24,3.09
2.5676639080047607,1.83,1.85,0.15,2.6
2.5777928829193115,1.91,3.94,-1.37,4.58
2.587794065475464,2.7,5.32,-2.05,6.3
2.5978190898895264,3.03,4.1,-1.34,5.27
2.607797861099243,2.31,2.47,-0.42,3.4
2.617871046066284,2.03,1.89,-0.39,2.8
2.653372049331665,2.65,1.63,-0.09,3.11
2.6539671421051025,3.33,1.3,0.0,3.57
2.6545331478118896,3.09,1.3,0.07,3.35
2.65769100189209,3.13,0.58,-0.27,3.19
2.667617082595825,3.49,0.14,-0.3,3.5
2.677686929702759,4.01,-0.23,0.12,4.01
2.687709093093872,4.37,-0.69,0.45,4.44
2.6976311206817627,4.58,-0.96,0.67,4.72
2.7076640129089355,4.61,-1.12,0.83,4.81
2.7176201343536377,4.48,-1.25,0.93,4.74
2.7482969760894775,4.31,-1.28,0.89,4.58
2.748896837234497,4.3,-1.17,0.81,4.52
2.749480962753296,4.34,-0.96,0.93,4.54
2.757550001144409,4.24,-0.77,0.95,4.41
2.7674968242645264,3.86,-0.46,0.84,3.97
2.777376890182495,3.26,-0.39,0.71,3.35
2.7875139713287354,2.82,-0.3,0.7,2.92
2.797510862350464,2.35,-0.03,0.7,2.45
2.807530164718628,1.65,0.22,0.72,1.81
2.8173229694366455,0.98,0.34,0.64,1.21
2.8491828441619873,0.22,0.69,0.37,0.81
2.849777936935425,-0.96,1.03,0.11,1.41
2.8503668308258057,-2.11,0.83,0.04,2.26
2.8573830127716064,-3.04,0.31,0.19,3.06
2.8673698902130127,-3.57,-0.3,0.27,3.59
2.877225160598755,-3.97,-0.55,0.31,4.01
2.887455940246582,-3.87,-0.52,0.34,3.91
2.897367000579834,-3.65,-0.42,0.49,3.7
2.9073760509490967,-3.73,-0.28,0.39,3.76
2.917332887649536,-3.91,0.18,0.13,3.91
2.946221113204956,-2.98,3.65,-0.53,4.74
2.946833848953247,-3.21,0.38,-0.25,3.24
2.947429895401001,-5.52,-1.63,0.44,5.77
2.957258939743042,-6.25,-0.64,0.65,6.31
2.9671919345855713,-7.24,0.14,0.46,7.25
2.9771029949188232,-7.32,0.36,-0.11,7.32
2.987230062484741,-7.14,0.22,-0.16,7.14
2.9970569610595703,-6.14,0.38,-0.16,6.15
3.007201910018921,-5.65,1.2,0.4,5.78
3.0169899463653564,-4.63,1.8,-0.08,4.96
3.0436079502105713,-0.04,2.06,0.15,2.06
3.0442259311676025,5.03,1.16,1.99,5.53
3.0471031665802,4.72,0.35,2.53,5.36
3.057070016860962,0.72,1.23,0.42,1.48
3.0670530796051025,-4.68,-0.32,-3.18,5.66
3.076986074447632,-6.54,2.71,-4.22,8.24
3.0871050357818604,-3.73,3.82,-0.28,5.34
3.097019910812378,-2.22,-1.07,2.26,3.34
3.10705304145813,-2.42,-2.71,0.74,3.7
3.117004156112671,-2.98,-1.35,-0.74,3.35
3.1443819999694824,-2.73,-0.29,-0.97,2.91
3.144995927810669,-2.5,0.41,-0.74,2.63
3.146976947784424,-2.42,0.52,0.04,2.47
3.1569859981536865,-1.93,0.18,0.9,2.13
3.1669881343841553,-1.19,-0.11,1.49,1.91
3.1769821643829346,-0.75,-0.29,1.57,1.76
3.186812162399292,-0.83,-0.15,1.11,1.39
3.1969430446624756,-1.06,0.04,0.59,1.21
3.206947088241577,-1.08,0.03,0.46,1.17
3.2169511318206787,-0.95,-0.02,0.26,0.98
3.2454898357391357,-0.66,0.18,-0.29,0.74
3.246107816696167,-0.58,0.23,-0.99,1.17
3.24674391746521,-0.5,0.18,-1.55,1.63
3.256873846054077,-0.28,0.14,-1.73,1.75
3.266818046569824,-0.37,0.09,-1.75,1.79
3.276785135269165,-0.3,0.18,-1.53,1.56
3.286681890487671,-0.02,0.07,-0.62,0.62
3.296895980834961,0.0,-0.09,-0.02,0.09
3.3068549633026123,0.03,0.03,0.06,0.07
3.316763162612915,0.04,0.13,0.23,0.26
3.345639944076538,-0.19,0.09,0.66,0.69
3.3462588787078857,-0.29,0.14,0.61,0.68
3.346906900405884,-0.06,0.1,0.16,0.19
3.356726884841919,0.21,0.08,-0.56,0.6
3.366687059402466,0.37,0.03,-1.11,1.17
3.3766491413116455,0.47,-0.01,-1.28,1.36
3.386554002761841,0.53,0.04,-1.08,1.2
3.3967840671539307,0.38,0.02,-0.92,0.99
3.406709909439087,-0.26,-0.05,-1.04,1.07
3.416512966156006,-0.83,-0.01,-0.73,1.1
3.446007013320923,-1.01,-0.03,-0.35,1.06
3.4466488361358643,-0.91,-0.04,-0.37,0.98
3.4472689628601074,-0.78,0.01,-0.32,0.84
3.4565508365631104,-0.59,0.05,-0.25,0.64
3.4664719104766846,-0.45,0.03,-0.3,0.54
3.4765689373016357,-0.53,-0.03,-0.32,0.61
3.486536979675293,-0.43,0.01,-0.37,0.56
3.49652099609375,0.02,0.0,-0.49,0.49
3.506553888320923,0.49,-0.05,-0.53,0.72
3.5165441036224365,0.82,-0.03,-0.62,1.02
3.5456409454345703,1.09,-0.07,-0.09,1.09
3.5462710857391357,1.29,-0.07,0.13,1.29
3.5468409061431885,1.5,0.1,0.1,1.5
3.556417942047119,1.73,0.2,-0.06,1.74
3.5664279460906982,1.81,0.24,-0.07,1.82
3.5764129161834717,1.72,0.38,0.05,1.76
3.5864131450653076,1.97,0.55,-0.25,2.06
3.596395969390869,2.57,0.55,-0.13,2.63
3.606529951095581,3.17,0.28,0.08,3.18
3.6163580417633057,3.77,0.06,-0.01,3.77
3.645512819290161,4.31,0.07,-0.3,4.32
3.6461451053619385,5.01,0.48,-0.49,5.05
3.6467490196228027,5.94,1.21,-0.8,6.11
3.6562910079956055,6.53,1.66,-0.99,6.81
3.6663148403167725,6.64,1.9,-0.51,6.92
3.6763598918914795,5.69,2.66,-0.67,6.31
3.686514139175415,4.95,3.87,-1.45,6.44
3.6963329315185547,4.11,6.02,-2.01,7.56
3.7063138484954834,2.65,6.45,-0.55,6.99
3.7161219120025635,0.82,5.58,-1.21,5.76
3.7456510066986084,-0.07,5.95,-2.85,6.59
3.746267080307007,0.2,6.47,-2.87,7.08
3.746877908706665,0.44,7.31,-3.16,7.97
3.756160020828247,2.38,7.97,-3.84,9.16
3.766090154647827,5.15,7.86,-3.35,9.97
3.776108980178833,6.07,7.98,-2.55,10.34
3.7860639095306396,4.81,6.68,-1.32,8.33
3.7960169315338135,2.45,4.93,0.55,5.53
3.806144952774048,4.12,4.6,-1.04,6.26
3.816025972366333,8.83,1.98,-0.3,9.05
3.8457348346710205,8.66,0.04,3.53,9.35
3.846362829208374,4.4,-1.12,4.45,6.35
3.8469719886779785,6.31,-1.13,2.07,6.73
3.8561208248138428,9.99,-0.3,2.68,10.34
3.866058111190796,9.39,-1.28,3.74,10.18
3.8760039806365967,7.05,-2.47,3.43,8.21
3.886007070541382,6.24,-2.63,2.46,7.2
3.895897150039673,5.94,-2.2,1.69,6.55
3.9059860706329346,5.3,-1.94,1.37,5.8
3.9159581661224365,4.44,-1.81,1.3,4.96
3.945619821548462,3.44,-1.53,1.21,3.95
3.9462368488311768,2.32,-1.32,1.06,2.87
3.946848154067993,1.45,-1.19,0.91,2.08
3.9558680057525635,1.27,-1.07,0.69,1.79
3.9658429622650146,1.46,-0.91,0.43,1.77
3.975835084915161,1.54,-0.73,0.27,1.72
3.9858720302581787,1.42,-0.57,0.14,1.53
3.9958620071411133,1.45,-0.49,-0.13,1.53
4.0058629512786865,1.42,-0.36,-0.41,1.52
4.0157630443573,1.41,-0.13,-0.61,1.54
4.045542001724243,1.4,0.27,-0.69,1.58
4.046154022216797,1.28,0.72,-0.72,1.63
4.0467588901519775,1.27,1.27,-0.86,1.99
4.055788040161133,1.56,1.61,-1.31,2.59
4.065734148025513,0.26,2.04,-0.94,2.26
4.075780153274536,-2.44,1.82,-0.77,3.13
4.0857319831848145,-3.99,1.62,-1.41,4.53
4.095657110214233,-5.44,2.1,-2.25,6.25
4.105760812759399,-6.47,2.31,-2.71,7.38
4.115692853927612,-7.03,1.49,-2.53,7.61
4.144789934158325,-7.12,0.62,-2.67,7.62
4.145432949066162,-6.71,0.34,-2.74,7.25
4.146039962768555,-6.41,0.79,-2.66,6.98
4.155630826950073,-6.47,1.29,-2.65,7.1
4.165549993515015,-6.98,2.48,-2.88,7.94
4.175616979598999,-6.87,3.54,-3.43,8.45
4.185603857040405,-8.19,-0.42,-3.02,8.73
4.195682048797607,-8.99,-1.01,-2.18,9.3
4.205609083175659,-8.54,-0.59,-1.22,8.64
4.215422868728638,-8.5,-0.16,-1.57,8.64
4.244004011154175,-8.54,0.13,-2.34,8.85
4.244653940200806,-7.98,0.34,-1.94,8.21
4.245455026626587,-6.91,1.14,-0.55,7.02
4.255486965179443,-5.84,2.48,0.84,6.4
4.265478849411011,-2.58,4.08,0.71,4.87
4.275389909744263,4.15,2.55,3.28,5.87
4.2854509353637695,7.41,-0.47,4.98,8.94
4.295444011688232,2.09,-1.23,2.94,3.81
4.305513143539429,-3.87,-0.95,0.43,4.0
4.315428018569946,-5.76,-1.36,-1.51,6.1
4.344683885574341,-5.6,0.85,-2.94,6.38
4.345350980758667,-5.33,4.79,-3.63,8.03
4.345990896224976,-4.74,5.37,-3.13,7.81
4.355415105819702,-5.65,2.26,-2.48,6.57
4.3653271198272705,-6.06,1.32,-1.55,6.39
4.375354051589966,-5.38,0.17,0.1,5.38
4.3853209018707275,-5.01,-1.38,0.14,5.19
4.395187139511108,-4.48,-0.65,-0.66,4.57
4.405340909957886,-3.75,0.55,-0.27,3.79
4.4152350425720215,-2.56,0.52,0.29,2.62
4.4461281299591064,-1.38,-0.13,0.47,1.46
4.446835041046143,-0.47,-0.4,0.62,0.87
4.44749903678894,0.1,-0.4,0.63,0.75
4.45526385307312,0.12,-0.35,0.46,0.59
4.465162992477417,-0.05,-0.21,0.19,0.28
4.475210905075073,-0.09,-0.04,0.09,0.13
4.4851391315460205,0.07,0.1,-0.07,0.14
4.495044946670532,0.13,0.2,-0.41,0.47
4.505147933959961,0.0,0.38,-0.86,0.94
4.515176057815552,-0.09,0.45,-1.4,1.47
4.545931100845337,-0.34,0.25,-1.68,1.73
4.546618938446045,-0.74,0.03,-1.67,1.82
4.547263860702515,-0.59,0.1,-1.47,1.58
4.555166959762573,0.02,0.15,-1.13,1.14
4.565018892288208,0.41,0.11,-0.88,0.97
4.5752551555633545,0.4,-0.04,-0.53,0.66
4.585038900375366,0.08,-0.22,-0.23,0.32
4.595005035400391,-0.08,-0.11,-0.04,0.14
4.605079889297485,-0.07,-0.02,0.28,0.28
4.615041017532349,-0.14,-0.07,0.4,0.42
4.648239850997925,-0.09,0.06,-0.19,0.21
4.649029016494751,0.11,0.17,-1.43,1.44
4.650187015533447,0.24,-0.21,-1.7,1.72
4.654817819595337,0.3,-0.49,-0.97,1.12
4.664777994155884,0.48,-0.22,-0.85,1.0
4.674751043319702,0.22,-0.14,-0.51,0.57
4.684744119644165,-0.17,0.0,-0.11,0.2
4.694805860519409,-0.24,0.15,0.06,0.28
4.704823017120361,-0.14,0.07,0.28,0.32
4.714655160903931,-0.29,-0.01,0.33,0.43
4.744683027267456,-0.41,0.17,0.17,0.47
4.745337963104248,-0.34,0.13,0.39,0.53
4.745971918106079,-0.33,0.11,0.41,0.53
4.754848957061768,-0.05,0.14,0.17,0.22
4.764739990234375,0.44,0.18,0.25,0.53
4.7748939990997314,0.64,0.02,-0.03,0.64
4.784803152084351,0.69,0.01,-0.09,0.69
4.794685125350952,0.65,0.2,0.16,0.69
4.804687976837158,0.65,0.32,0.37,0.81
4.814769983291626,0.9,0.24,0.87,1.27
4.844825983047485,1.44,0.11,0.96,1.73
4.845487833023071,1.97,0.1,0.04,1.97
4.846124887466431,2.56,0.11,-0.18,2.56
4.854595899581909,3.1,0.16,0.08,3.1
4.864610910415649,3.3,0.38,-0.03,3.32
4.87467098236084,3.15,0.67,-0.02,3.22
4.884606122970581,3.32,0.83,-0.24,3.43
4.89468789100647,4.0,0.83,-0.4,4.1
4.904431104660034,4.79,0.83,-0.55,4.89
4.914563894271851,5.19,0.87,-0.87,5.33
4.944772958755493,5.16,1.17,-1.52,5.5
4.945422887802124,4.64,1.73,-1.56,5.19
4.946059942245483,4.03,2.34,-1.4,4.86
4.954373121261597,3.32,3.75,0.12,5.0
4.9643518924713135,2.6,6.33,0.51,6.86
4.974575042724609,3.32,6.1,1.0,7.01
4.984483957290649,2.18,5.49,1.9,6.2
4.994464159011841,2.29,5.34,1.41,5.97
5.0042970180511475,2.29,5.02,0.94,5.59
5.014372110366821,2.57,4.88,0.07,5.51
5.045953035354614,3.28,5.17,-0.41,6.13
5.046607971191406,3.81,5.12,-0.64,6.41
5.04725193977356,4.57,5.53,-1.22,7.27
5.054278135299683,5.36,6.7,-2.11,8.83
5.064287900924683,5.51,7.87,-3.24,10.13
5.074396848678589,4.87,7.9,-3.96,10.09
5.084357023239136,3.71,6.0,-2.54,7.49
5.094347953796387,0.99,5.89,0.26,5.97
5.104396104812622,-1.79,6.51,-1.25,6.86
5.114315986633301,-0.88,4.12,-3.89,5.73
5.145843982696533,2.36,3.15,-2.62,4.72
5.1465370655059814,6.24,2.09,-1.57,6.76
5.147174119949341,9.92,-0.82,-0.84,9.98
5.154308080673218,7.05,-3.68,1.16,8.03
5.164206027984619,-1.59,-5.28,1.27,5.65
5.174229860305786,-2.05,-3.53,-2.42,4.74
5.18418288230896,4.39,-0.52,-2.93,5.3
5.1941468715667725,8.86,-1.53,-0.59,9.01
5.204426050186157,10.76,-2.62,1.21,11.14
5.21415114402771,10.7,-3.42,2.05,11.41
5.245196104049683,9.3,-3.77,2.47,10.33
5.245895147323608,7.67,-3.76,2.61,8.93
5.246551036834717,6.39,-3.39,2.14,7.54
5.254412889480591,5.89,-2.59,1.37,6.57
5.2641260623931885,5.56,-2.09,1.03,6.02
5.27433705329895,4.99,-1.89,0.84,5.4
5.284104108810425,4.42,-2.0,0.74,4.9
5.29407000541687,3.73,-2.01,0.9,4.33
5.304394960403442,2.98,-1.91,1.12,3.71
5.313935041427612,2.34,-1.73,1.57,3.3
5.346152067184448,1.86,-1.12,2.15,3.05
5.346848011016846,1.22,-0.03,2.51,2.79
5.347543001174927,1.03,1.13,1.91,2.44
5.353891134262085,1.5,2.02,-0.03,2.51
5.363821029663086,0.52,3.29,-2.01,3.89
5.373944044113159,-1.91,4.0,-2.88,5.28
5.383883953094482,-3.78,4.19,-2.65,6.23
5.393891096115112,-4.82,4.69,-2.01,7.01
5.403839826583862,-5.23,4.85,-1.48,7.28
5.413853883743286,-5.26,4.56,-1.8,7.19
5.446072816848755,-5.79,4.34,-2.66,7.7
5.446726083755493,-5.75,11.43,-5.27,13.83
5.447405099868774,-5.8,9.09,-7.72,13.26
5.453727960586548,-14.42,1.71,-5.47,15.51
5.463699102401733,-16.09,0.16,-3.87,16.54
5.47383713722229,-14.96,-0.19,-2.86,15.23
5.483759164810181,-13.45,-0.47,-3.14,13.81
5.493788003921509,-12.21,-0.36,-3.71,12.76
5.503751993179321,-11.53,-0.66,-2.71,11.86
5.5137341022491455,-10.81,-0.78,-1.74,10.97
5.544836044311523,-10.74,-1.34,-1.01,10.87
5.545553922653198,-9.0,-0.93,-2.61,9.41
5.546243906021118,-1.58,1.19,-1.15,2.28
5.553686857223511,2.12,4.51,3.35,6.0
5.563709020614624,-3.07,7.62,4.1,9.18
5.57367205619812,-8.85,2.79,0.11,9.28
5.583552122116089,-10.41,-1.48,-4.15,11.3
5.593652009963989,-6.18,1.3,-2.61,6.83
5.603636026382446,-3.04,1.23,1.01,3.43
5.61351203918457,-2.97,-1.36,1.48,3.58
5.6451990604400635,-3.62,-1.23,0.4,3.84
5.6459009647369385,-3.51,-0.08,0.12,3.51
5.646591901779175,-2.99,0.54,-0.03,3.03
5.653511047363281,-2.09,0.25,-0.41,2.14
5.663522005081177,-1.06,-0.25,-0.82,1.36
5.6739490032196045,-0.36,-0.18,-1.85,1.89
5.683542013168335,0.43,0.15,-2.65,2.68
5.6935341358184814,0.96,0.1,-2.38,2.56
5.70346999168396,1.26,-0.06,-2.1,2.44
5.713449001312256,1.51,-0.12,-1.78,2.33
5.7459800243377686,1.61,-0.04,-1.07,1.93
5.74668288230896,1.46,0.09,-0.47,1.53
5.747354030609131,1.29,0.09,-0.29,1.32
5.753409147262573,1.21,-0.03,-0.11,1.21
5.763397932052612,0.91,-0.12,0.09,0.92
5.773452997207642,0.5,-0.1,0.04,0.51
5.783393144607544,0.51,-0.16,-0.09,0.54
5.79342794418335,0.75,-0.08,0.07,0.75
5.803322076797485,0.79,0.15,0.43,0.91
5.813225030899048,0.53,0.32,0.65,0.89
5.846043825149536,-0.13,0.45,0.59,0.75
5.846735954284668,-0.6,0.31,0.06,0.67
5.847414970397949,-0.64,0.03,-0.29,0.7
5.853193998336792,-0.49,-0.06,-0.46,0.67
5.863253831863403,-0.33,-0.02,-0.34,0.47
5.8731911182403564,-0.21,0.01,0.12,0.24
5.883232831954956,-0.08,-0.06,0.08,0.12
5.8932578563690186,-0.16,-0.19,-0.21,0.32
5.9032299518585205,-0.18,-0.13,-0.32,0.38
5.913278818130493,-0.3,-0.11,-0.3,0.43
5.9459450244903564,-0.48,-0.16,-0.21,0.54
5.946635961532593,-0.56,-0.19,-0.02,0.59
5.947274923324585,-0.17,-0.06,0.02,0.18
5.9532811641693115,0.43,0.09,-0.13,0.45
5.963129043579102,0.39,0.06,-0.24,0.46
5.973151922225952,-0.17,0.05,-0.16,0.23
5.9830780029296875,-0.9,-0.01,-0.09,0.9
5.9931559562683105,-1.02,-0.04,-0.2,1.04
6.003112077713013,-0.72,-0.06,-0.53,0.89
6.013116121292114,-0.42,-0.02,-0.92,1.01
6.0460450649261475,0.03,0.06,-1.19,1.19
6.046751976013184,0.47,0.28,-1.35,1.45
6.04741096496582,1.06,0.32,-1.03,1.51
6.052983999252319,1.13,0.46,-0.47,1.3
6.063020944595337,1.19,0.42,-0.47,1.34
6.073065996170044,1.92,0.54,-0.37,2.02
6.082959890365601,2.18,0.79,-0.47,2.36
6.092923879623413,2.18,0.79,-0.62,2.4
6.10290789604187,2.67,0.68,-0.7,2.84
6.112941026687622,2.91,0.68,-0.72,3.07
6.1464011669158936,3.09,0.6,-1.04,3.31
6.147089958190918,3.62,0.51,-0.51,3.69
6.148108005523682,3.28,1.81,-0.8,3.83
6.152857065200806,3.2,2.91,-1.19,4.48
6.162903070449829,3.03,4.46,-0.82,5.45
6.172826051712036,3.14,5.63,0.58,6.47
6.182745933532715,3.63,4.56,1.7,6.07
6.192811965942383,3.37,4.43,1.72,5.82
6.202680826187134,3.84,4.47,1.55,6.09
6.212817907333374,4.52,4.43,1.62,6.53
6.24611496925354,4.47,4.45,1.04,6.39
6.246760129928589,4.63,4.29,0.61,6.34
6.247754812240601,4.49,3.59,0.2,5.75
6.252629995346069,4.18,3.46,-0.07,5.42
6.262738943099976,4.03,4.18,-0.5,5.82
6.272608041763306,3.63,5.23,-1.55,6.55
6.282611131668091,3.3,6.25,-2.08,7.36
6.292711973190308,2.95,6.75,-2.16,7.67
6.302597999572754,2.33,6.34,-2.63,7.24
6.312528848648071,1.68,4.36,-3.65,5.92
6.3463828563690186,1.84,4.02,-4.39,6.23
6.347052812576294,1.91,4.75,-5.1,7.22
6.348037004470825,2.88,4.28,-3.62,6.3
6.352556943893433,4.27,3.19,-1.87,5.64
6.362596035003662,6.31,0.8,-1.45,6.52
6.372424840927124,6.6,-2.73,-0.86,7.19
6.382616996765137,2.64,-5.73,0.65,6.34
6.392485857009888,-1.89,-6.06,-1.43,6.5
6.402436971664429,0.75,-1.83,-3.43,3.95
6.412398099899292,6.43,-0.07,-3.55,7.34
6.446669816970825,9.89,-1.52,-2.57,10.33
6.447688817977905,10.88,-2.5,-1.65,11.28
6.448331117630005,9.65,-2.82,-0.54,10.06
6.4524009227752686,7.5,-3.27,0.26,8.18
6.462435960769653,5.78,-3.27,0.43,6.65
6.472280979156494,5.34,-2.65,0.32,5.96
6.482372045516968,5.26,-1.9,0.48,5.61
6.492421865463257,4.88,-1.45,0.36,5.1
6.502372980117798,4.78,-1.67,-0.05,5.06
6.5123889446258545,4.4,-1.51,0.32,4.66
6.547651052474976,3.88,-1.06,0.73,4.08
6.548532009124756,2.93,-0.78,0.84,3.14
6.54917311668396,1.76,-0.43,0.48,1.87
6.552283048629761,1.26,-0.14,-0.17,1.27
6.562288999557495,1.46,0.29,-0.37,1.53
6.572124004364014,1.34,0.92,-0.28,1.64
6.58220100402832,0.75,1.57,-0.29,1.76
6.592343091964722,-0.09,2.17,-0.38,2.2
6.602252960205078,-0.95,2.54,-0.51,2.75
6.612231969833374,-1.78,2.77,-0.85,3.4
6.648051023483276,-2.81,2.86,-1.28,4.2
6.648701906204224,-3.68,2.91,-1.57,4.94
6.649341821670532,-4.93,2.96,-1.94,6.06
6.652163028717041,-6.42,2.93,-2.61,7.52
6.662158966064453,-7.58,6.44,-3.46,10.53
6.672266006469727,-5.07,9.6,-5.35,12.1
6.682132959365845,-9.25,4.77,-2.58,10.72
6.692148923873901,-15.52,2.99,-1.34,15.86
6.702142953872681,-18.05,1.37,-1.81,18.19
6.712150812149048,-16.06,1.08,-2.23,16.25
6.745548963546753,-12.85,1.12,-1.77,13.01
6.746255159378052,-10.43,0.4,-0.04,10.43
6.74731707572937,-9.12,0.16,1.55,9.25
6.751990079879761,-9.31,0.15,2.9,9.75
6.762001037597656,-10.15,0.27,2.85,10.54
6.7723548412323,-9.36,2.12,0.92,9.64
6.781949043273926,-4.67,6.16,1.13,7.81
6.792006015777588,-3.38,6.26,4.56,8.45
6.8019678592681885,-5.63,1.07,0.67,5.76
6.811988115310669,-5.16,0.72,-1.05,5.31
6.845067977905273,-3.69,0.56,1.84,4.16
6.847314119338989,-4.0,-1.6,1.92,4.71
6.848005056381226,-4.62,-1.51,0.26,4.86
6.851866960525513,-4.01,-0.01,-0.19,4.01
6.86185097694397,-2.74,0.93,-0.13,2.89
6.871733903884888,-1.42,0.69,-0.72,1.73
6.881824970245361,-0.37,-0.07,-1.4,1.44
6.891906023025513,-0.05,-0.22,-1.7,1.71
6.901840925216675,-0.09,0.04,-1.65,1.65
6.911821126937866,0.05,0.17,-1.35,1.36
6.921823024749756,0.09,0.2,-1.07,1.09
6.946941137313843,-0.17,0.09,-1.04,1.05
6.947638034820557,-0.51,0.0,-0.65,0.82
6.9518139362335205,-0.56,-0.11,0.17,0.59
6.961777925491333,-0.21,-0.06,0.59,0.62
6.971740007400513,0.35,0.04,0.42,0.54
6.98166298866272,0.53,0.07,-0.19,0.56
6.991724967956543,0.22,0.08,-0.7,0.73
7.001626968383789,-0.1,0.08,-0.81,0.82
7.011657953262329,-0.32,0.0,-0.9,0.95
7.02162504196167,-0.5,-0.09,-0.92,1.05
7.047091007232666,-0.26,-0.04,-0.64,0.69
7.047784090042114,0.2,-0.03,-0.18,0.27
7.051523923873901,0.36,-0.04,0.0,0.36
7.061578989028931,0.37,0.05,0.1,0.38
7.071432828903198,0.35,0.13,0.05,0.37
7.081323862075806,0.21,0.04,-0.08,0.22
7.091584920883179,-0.03,-0.02,-0.23,0.23
7.101486921310425,-0.01,-0.06,-0.15,0.16
7.111637830734253,0.06,-0.07,0.0,0.09
7.121568918228149,0.19,-0.08,-0.2,0.28
7.1473071575164795,0.51,0.01,-0.45,0.68
7.148003816604614,0.85,-0.01,-0.74,1.12
7.151396036148071,1.04,-0.01,-1.0,1.44
7.161561965942383,1.07,-0.21,-0.29,1.12
7.1714770793914795,0.72,-0.2,0.04,0.74
7.18137001991272,-0.1,0.23,0.13,0.28
7.191494941711426,-0.6,0.34,0.68,0.96
7.201424837112427,-0.57,0.36,0.42,0.79
7.211426019668579,-0.22,0.48,-0.12,0.54
7.221351861953735,0.03,0.21,-0.34,0.4
7.247050046920776,0.1,-0.04,-0.52,0.53
7.247745037078857,0.26,0.07,-0.5,0.56
7.251474142074585,0.61,0.23,-0.09,0.65
7.2613818645477295,0.79,0.33,-0.18,0.87
7.271374940872192,0.72,0.38,-0.18,0.83
7.2813050746917725,0.9,0.53,-0.4,1.11
7.291351079940796,1.36,0.7,-0.69,1.67
7.301305055618286,1.98,0.71,-1.06,2.35
7.311310052871704,2.28,0.7,-1.24,2.68
7.321170091629028,2.55,0.68,-1.02,2.82
7.34765100479126,2.9,0.76,-0.58,3.05
7.348353147506714,3.14,1.14,-0.25,3.34
7.351254940032959,3.24,1.65,0.09,3.63
7.3611979484558105,3.02,2.3,0.21,3.8
7.3711488246917725,3.24,3.11,-0.33,4.5
7.381037950515747,3.63,3.85,0.63,5.32
7.391168832778931,3.21,3.42,0.9,4.77
7.4011290073394775,3.54,3.58,0.42,5.05
7.411146879196167,4.15,3.99,0.29,5.76
7.421188116073608,4.67,4.12,-0.18,6.23
7.448027849197388,4.68,4.07,-0.01,6.2
7.4487268924713135,4.7,3.79,-0.27,6.04
7.451005935668945,5.04,3.77,-0.21,6.29
7.461007833480835,5.17,4.06,0.26,6.57
7.47099494934082,4.57,4.08,0.24,6.13
7.481117010116577,3.86,4.02,0.6,5.6
7.491116046905518,3.0,4.06,0.45,5.06
7.501029014587402,2.54,4.59,-0.1,5.24
7.530659914016724,2.56,5.29,-0.76,5.92
7.531317949295044,3.34,5.92,-2.01,7.08
7.5319600105285645,3.88,6.15,-3.18,7.93
7.540913820266724,2.66,6.33,-2.62,7.34
7.550959825515747,0.47,6.27,-1.66,6.5
7.560959100723267,-0.35,5.71,-3.51,6.71
7.570899963378906,1.28,4.18,-3.97,5.9
7.580941915512085,4.82,3.39,-3.06,6.63
7.59091591835022,7.51,2.11,-2.33,8.14
7.6009180545806885,9.6,0.96,-1.63,9.78
7.631659030914307,9.13,-1.98,-1.08,9.4
7.6323158740997314,2.44,-3.99,0.33,4.68
7.6329710483551025,-2.85,-3.17,-1.45,4.5
7.640880823135376,-1.36,0.16,-4.03,4.25
7.650771856307983,5.03,0.17,-3.44,6.09
7.6607911586761475,8.87,-0.96,-1.86,9.11
7.67075514793396,10.08,-1.22,-0.37,10.16
7.680773973464966,9.46,-1.24,0.39,9.54
7.690850019454956,7.69,-1.37,0.87,7.85
7.700812101364136,5.97,-1.73,1.16,6.32
7.73214316368103,4.84,-2.19,0.98,5.4
7.732774972915649,4.43,-2.19,0.86,5.01
7.7333738803863525,4.44,-2.1,1.04,5.02
7.74065089225769,4.51,-2.19,1.24,5.16
7.750654935836792,4.4,-2.16,1.38,5.09
7.760649919509888,4.49,-2.16,1.34,5.15
7.770571947097778,4.54,-2.1,1.43,5.2
7.780495882034302,4.17,-1.89,1.66,4.86
7.790477991104126,3.27,-1.43,1.85,4.01
7.800577878952026,2.38,-0.66,1.77,3.03
7.83191990852356,1.76,0.31,1.81,2.54
7.832567930221558,1.86,1.21,1.76,2.83
7.833202123641968,2.41,1.87,1.28,3.3
7.840368986129761,1.43,3.15,0.28,3.47
7.8504860401153564,-0.92,4.08,-0.99,4.29
7.860521078109741,-3.26,4.35,-1.82,5.73
7.870447874069214,-5.13,4.79,-1.98,7.29
7.880461931228638,-6.06,5.03,-2.03,8.13
7.890411138534546,-6.54,4.61,-1.95,8.23
7.90050482749939,-7.36,4.01,-2.2,8.66
7.931989908218384,-7.23,9.73,-4.02,12.77
7.932641983032227,-7.32,6.95,-5.66,11.57
7.933290004730225,-16.43,1.9,-3.52,16.9
7.940251111984253,-17.97,1.69,-3.03,18.3
7.950289011001587,-15.82,1.06,-1.56,15.93
7.960441827774048,-13.53,0.19,-1.15,13.58
7.9703240394592285,-11.77,0.52,-1.93,11.93
7.980432987213135,-10.48,0.7,-1.09,10.55
7.990200042724609,-10.02,1.02,0.44,10.08
8.000345945358276,-11.17,1.26,1.18,11.3
8.032109022140503,-11.63,1.48,-1.4,11.8
8.03275990486145,-3.53,2.78,-1.65,4.78
8.033399820327759,3.5,3.69,3.92,6.42
8.040085077285767,0.16,5.95,4.12,7.23
8.050227880477905,-6.94,6.28,1.72,9.51
8.060266971588135,-8.49,1.45,0.14,8.61
8.070186853408813,-6.13,0.43,-1.2,6.26
8.080221891403198,-5.71,0.39,-2.05,6.07
8.09019684791565,-4.67,1.68,-0.92,5.04
8.100275993347168,-3.79,-0.16,0.42,3.81
8.131732940673828,-2.9,-1.4,0.39,3.24
8.13238000869751,-2.62,-0.69,-0.57,2.76
8.133026838302612,-1.9,0.16,-0.7,2.03
8.140054941177368,-1.19,0.23,-0.33,1.25
8.150099039077759,-0.52,-0.12,-0.32,0.62
8.160122156143188,0.09,-0.04,-0.39,0.4
8.169993162155151,0.38,0.15,-0.49,0.63
8.180052995681763,0.53,0.15,-0.62,0.82
8.190192937850952,0.46,0.06,-0.5,0.68
8.200000047683716,0.31,-0.02,-0.32,0.44
8.232073068618774,0.15,-0.06,-0.58,0.6
8.232726812362671,-0.28,-0.02,-0.95,0.99
8.233346939086914,-0.54,-0.02,-1.08,1.2
8.240226984024048,-0.43,-0.12,-0.95,1.04
8.250012159347534,-0.2,-0.13,-0.66,0.7
8.259948968887329,-0.18,-0.08,-0.38,0.42
8.270010948181152,-0.1,-0.05,-0.12,0.16
8.279881000518799,-0.04,0.06,-0.05,0.08
8.290235996246338,-0.02,0.1,-0.15,0.18
8.299897909164429,-0.28,-0.05,-0.1,0.3
8.333073854446411,-0.9,-0.14,-0.02,0.91
8.333724021911621,-1.25,0.08,-0.11,1.25
8.334389925003052,-1.17,0.25,-0.26,1.22
8.339783906936646,-0.91,0.25,-0.44,1.04
8.349784135818481,-0.49,0.19,-0.56,0.76
8.3597891330719,-0.13,0.03,-0.5,0.51
8.369792938232422,-0.06,-0.03,-0.47,0.47
8.379755973815918,-0.02,0.13,-0.57,0.58
8.389721155166626,0.18,0.15,-0.51,0.56
8.399710893630981,0.4,0.09,-0.42,0.58
8.432569026947021,0.52,-0.04,-0.24,0.57
8.433215856552124,0.78,-0.18,-0.06,0.8
8.433854818344116,0.96,-0.21,-0.01,0.98
8.439647912979126,1.02,-0.04,-0.03,1.02
8.4496328830719,1.17,0.18,-0.14,1.19
8.45959997177124,1.23,0.26,-0.07,1.25
8.469608068466187,1.21,0.27,0.01,1.23
8.479614019393921,1.39,0.26,-0.06,1.41
8.489596128463745,1.7,0.23,-0.19,1.72
8.499621152877808,2.15,0.26,-0.13,2.16
8.533303022384644,2.54,0.43,-0.23,2.58
8.533982992172241,2.22,0.76,-0.63,2.42
8.534909963607788,1.51,1.21,-0.43,1.98
8.539510011672974,1.27,1.5,-0.27,1.98
8.549567937850952,1.37,1.57,-0.26,2.09
8.559505939483643,1.63,1.54,-0.04,2.24
8.569501161575317,2.37,1.63,0.2,2.88
8.579545974731445,3.09,1.58,0.25,3.47
8.58947205543518,3.68,1.74,0.36,4.08
8.599539995193481,4.47,1.73,-0.56,4.82
8.63344407081604,5.61,2.43,-1.11,6.21
8.634453058242798,4.97,3.27,-0.29,5.95
8.635101079940796,4.05,3.38,-0.9,5.35
8.639410972595215,3.76,4.31,-0.67,5.75
8.649348974227905,3.82,4.52,-0.32,5.92
8.659342050552368,3.92,4.3,-0.13,5.82
8.669366121292114,4.32,4.54,-0.08,6.26
8.679364919662476,5.01,5.21,-0.29,7.23
8.689356088638306,5.28,5.92,-0.45,7.94
8.699342966079712,4.84,6.14,-0.73,7.85
8.733413934707642,4.58,5.98,-0.66,7.56
8.734446048736572,4.45,5.22,-0.8,6.9
8.735091924667358,5.07,4.96,-1.08,7.17
8.739213943481445,5.86,5.68,-2.32,8.48
8.749254941940308,5.96,6.49,-3.67,9.54
8.759284019470215,4.87,6.64,-2.93,8.74
8.769287824630737,1.17,7.8,-0.37,7.89
8.77922797203064,-1.41,8.33,-2.26,8.74
8.789201974868774,0.57,6.04,-4.64,7.63
8.799311876296997,4.82,4.92,-3.63,7.78
8.833222150802612,8.76,3.85,-2.49,9.88
8.834161043167114,11.69,0.6,-1.51,11.8
8.834772825241089,6.4,-2.4,0.4,6.84
8.83915114402771,-2.01,-2.85,-0.37,3.5
8.849075078964233,-3.66,0.17,-3.56,5.1
8.859196901321411,3.13,0.88,-3.6,4.85
8.869128942489624,9.33,-0.84,-1.36,9.46
8.879148960113525,11.17,-1.81,0.72,11.33
8.889149904251099,10.48,-2.47,1.99,10.94
8.899070024490356,8.76,-2.96,2.6,9.6
8.933372020721436,7.05,-3.11,2.78,8.19
8.934311151504517,6.0,-3.26,2.36,7.22
8.934916019439697,5.48,-3.18,1.81,6.58
8.939034938812256,5.2,-3.22,1.59,6.31
8.948954820632935,4.82,-3.27,1.54,6.02
8.959028005599976,4.49,-3.13,1.49,5.67
8.968830823898315,4.43,-2.95,1.34,5.48
8.978929996490479,4.51,-2.49,1.42,5.34
8.98890995979309,4.39,-1.99,1.8,5.14
8.998914957046509,4.12,-1.69,2.41,5.06
9.033018827438354,3.53,-0.94,2.99,4.72
9.033988952636719,2.69,0.28,3.25,4.22
9.034595966339111,2.09,1.39,2.84,3.79
9.038800954818726,1.42,1.88,1.29,2.68
9.048915147781372,0.06,2.76,-1.02,2.94
9.058850049972534,-2.65,4.02,-2.7,5.52
9.068768978118896,-5.51,4.71,-3.3,7.96
9.078876972198486,-7.28,4.68,-3.56,9.35
9.088844060897827,-7.32,4.09,-2.85,8.85
9.098775148391724,-6.44,3.69,-1.82,7.64
9.133785963058472,-6.42,5.19,-1.91,8.47
9.134613037109375,-5.97,13.34,-5.57,15.64
9.135210990905762,-9.03,7.96,-7.42,14.14
9.138673067092896,-18.35,4.19,-4.94,19.45
9.148669958114624,-21.59,2.95,-3.44,22.06
9.15852403640747,-20.14,1.2,-3.21,20.42
9.168651819229126,-16.12,-0.06,-3.48,16.49
9.178693056106567,-13.04,-0.05,-2.96,13.37
9.188583135604858,-11.76,-0.44,-1.17,11.82
9.198699951171875,-12.03,-0.32,-0.31,12.03
9.234066009521484,-10.55,1.53,-2.34,10.91
9.234684944152832,-1.24,4.84,0.17,4.99
9.23529314994812,3.26,6.54,6.7,9.91
9.238525152206421,-2.39,4.96,5.4,7.71
9.248594045639038,-8.55,-1.61,-1.18,8.77
9.258506059646606,-10.15,-2.34,-4.63,11.39
9.268509149551392,-6.6,2.21,-2.74,7.48
9.278516054153442,-3.97,0.55,-0.34,4.02
9.288482904434204,-2.81,-1.76,0.07,3.31
9.29841685295105,-2.57,-1.03,0.0,2.76
9.334051847457886,-2.36,-0.06,0.11,2.36
9.334655046463013,-1.63,0.37,0.77,1.84
9.335243940353394,-0.66,0.28,0.33,0.78
9.33843994140625,-0.3,0.04,-0.92,0.96
9.348426103591919,-0.28,0.07,-1.27,1.3
9.358346939086914,0.07,0.29,-0.71,0.77
9.368373155593872,0.35,0.25,-0.47,0.63
9.378475904464722,0.17,0.1,-0.49,0.52
9.388375997543335,-0.39,0.01,-0.35,0.52
9.39825701713562,-0.72,0.05,-0.33,0.79
9.43456482887268,-0.58,0.07,-0.55,0.8
9.435179948806763,-0.45,0.06,-0.68,0.81
9.435781955718994,-0.49,-0.04,-0.74,0.88
9.438268899917603,-0.63,-0.2,-0.69,0.95
9.448248147964478,-0.34,0.06,-0.44,0.55
9.45816683769226,-0.22,0.22,-0.58,0.65
9.468264818191528,-0.22,0.12,-0.43,0.49
9.478261947631836,-0.24,0.03,-0.38,0.45
9.488261938095093,-0.48,-0.1,-0.29,0.56
9.498055934906006,-0.61,-0.13,-0.16,0.64
9.534831047058105,-0.42,-0.16,0.05,0.45
9.535439014434814,-0.32,0.01,0.28,0.42
9.536026000976562,-0.18,0.1,0.25,0.32
9.538112878799438,-0.06,0.0,-0.07,0.09
9.548177003860474,0.1,-0.02,-0.4,0.41
9.557952165603638,0.3,-0.11,-0.39,0.5
9.568165063858032,0.35,-0.12,-0.17,0.4
9.578114986419678,0.17,0.02,-0.04,0.17
9.588040113449097,0.27,0.09,-0.01,0.28
9.598089933395386,0.63,0.07,0.16,0.65
9.634917974472046,0.8,0.17,0.3,0.87
9.635519981384277,0.61,0.1,0.35,0.71
9.636104822158813,0.19,-0.04,0.33,0.38
9.638056993484497,0.08,0.03,0.08,0.11
9.648091077804565,0.21,0.12,-0.47,0.52
9.658030033111572,0.28,0.24,-0.79,0.87
9.66798996925354,0.37,0.44,-1.07,1.21
9.67812204360962,0.48,0.56,-1.09,1.31
9.687986135482788,0.67,0.42,-0.66,1.03
9.697988033294678,1.18,0.53,-0.6,1.42
9.73485016822815,1.45,0.65,-0.57,1.68
9.73545503616333,1.62,0.79,-0.44,1.85
9.736035108566284,1.99,0.93,-0.65,2.29
9.737929105758667,2.56,1.12,-1.08,2.99
9.747941017150879,3.31,1.65,-1.42,3.96
9.75793194770813,4.37,2.54,-0.99,5.15
9.76787781715393,5.4,2.95,-0.31,6.16
9.777909994125366,6.0,3.32,-0.01,6.85
9.787735939025879,6.09,3.93,0.25,7.25
9.797768831253052,5.51,4.38,0.36,7.04
9.835472822189331,5.0,4.8,0.13,6.93
9.836081981658936,4.82,5.16,0.09,7.06
9.836666822433472,4.61,5.06,0.1,6.84
9.837646961212158,4.45,4.95,-0.13,6.65
9.847694158554077,4.62,5.01,-0.37,6.82
9.858001947402954,4.73,4.92,-0.64,6.85
9.867689847946167,4.55,5.1,-1.14,6.92
9.877738952636719,4.36,5.25,-1.38,6.96
9.887666940689087,3.86,5.8,-2.22,7.31
9.897670030593872,3.61,7.16,-2.81,8.49
9.9076669216156,3.36,8.5,-3.06,9.63
9.93669581413269,2.62,8.18,-3.8,9.39
9.937324047088623,2.31,6.23,-4.32,7.92
9.9379141330719,1.73,6.85,-5.2,8.77
9.947587966918945,2.16,7.91,-5.67,9.96
9.957567930221558,4.06,6.78,-3.61,8.68
9.967477083206177,5.95,4.55,-1.55,7.64
9.97757887840271,7.92,1.13,-0.75,8.03
9.987550020217896,6.7,-1.55,0.56,6.89
9.997560977935791,0.15,-3.22,1.25,3.45
10.007550954818726,-1.97,-3.98,-2.51,5.1
10.035737991333008,2.48,-1.53,-3.57,4.6
10.036335945129395,8.33,-1.65,-1.59,8.63
10.037452936172485,11.1,-2.5,0.62,11.39
10.047468900680542,10.69,-3.04,2.23,11.33
10.057398080825806,8.99,-3.37,3.07,10.07
10.06727910041809,7.4,-3.94,3.13,8.94
10.077417135238647,6.6,-4.44,2.93,8.47
10.087397813796997,6.36,-3.86,2.28,7.78
10.097414016723633,5.85,-3.21,1.65,6.87
10.107357025146484,4.98,-2.95,1.16,5.9
10.135705947875977,3.9,-2.67,0.81,4.79
10.136297941207886,2.98,-2.38,0.74,3.88
10.137310981750488,2.37,-2.04,0.96,3.27
10.147356986999512,1.93,-1.47,1.39,2.79
10.157283067703247,1.8,-1.01,1.65,2.64
10.167309999465942,2.08,-0.66,1.54,2.67
10.177315950393677,1.8,-0.03,2.31,2.92
10.187082052230835,1.53,0.3,2.9,3.29
10.19724702835083,1.66,0.52,2.21,2.81
10.20712685585022,1.05,1.45,0.34,1.82
10.23462700843811,-0.95,2.76,-1.21,3.15
10.235221147537231,-3.26,3.57,-1.67,5.11
10.23718810081482,-4.62,3.76,-1.73,6.2
10.24723505973816,-5.02,4.01,-1.46,6.58
10.257034063339233,-5.11,3.98,-0.91,6.54
10.267202138900757,-5.44,3.95,-0.76,6.76
10.277217149734497,-6.62,3.99,-1.29,7.83
10.287094831466675,-8.38,7.61,-2.89,11.68
10.29723596572876,-7.46,11.6,-5.96,15.02
10.3070969581604,-13.46,4.9,-4.7,15.07
10.33741307258606,-17.68,1.77,-2.61,17.95
10.338013887405396,-16.48,0.87,-1.45,16.56
10.338596105575562,-14.32,0.86,-1.38,14.41
10.34708285331726,-12.84,0.7,-1.55,12.95
10.356941938400269,-11.85,0.59,-0.97,11.9
10.36682915687561,-10.81,0.87,-0.15,10.84
10.376976013183594,-10.23,1.0,0.43,10.28
10.387049913406372,-5.84,1.96,-1.47,6.33
10.396975040435791,3.63,0.98,1.55,4.06
10.406862020492554,7.49,0.09,4.97,8.98
10.437047004699707,0.55,3.14,4.32,5.36
10.437631845474243,-7.82,3.81,1.83,8.88
10.43821406364441,-13.21,-1.2,-3.59,13.74
10.446866989135742,-13.02,3.06,-5.51,14.46
10.456837892532349,-7.0,4.01,-1.87,8.28
10.466724157333374,-2.41,-0.64,0.35,2.51
10.47692084312439,-1.7,-1.83,0.42,2.53
10.486855030059814,-1.44,-1.03,1.04,2.05
10.4968740940094,-1.63,0.06,1.24,2.04
10.506801843643188,-1.88,0.05,0.29,1.9
10.537423849105835,-1.41,-0.02,-0.4,1.46
10.538025140762329,-0.25,0.11,-0.69,0.74
10.538609027862549,0.81,0.0,-1.07,1.34
10.546833992004395,0.95,-0.01,-0.98,1.36
10.556738138198853,0.51,0.05,-0.88,1.01
10.566593885421753,0.06,0.11,-0.64,0.65
10.576741933822632,-0.43,0.13,-0.45,0.63
10.586660146713257,-0.56,0.16,-0.47,0.74
10.596752882003784,-0.47,0.09,-0.63,0.79
10.606681108474731,-0.36,0.03,-0.71,0.79
10.63798999786377,-0.35,-0.04,-0.46,0.57
10.638587951660156,-0.37,-0.06,-0.18,0.41
10.639168977737427,-0.39,0.04,0.08,0.4
10.646671056747437,-0.27,0.07,-0.01,0.27
10.65659213066101,-0.16,0.02,-0.32,0.35
10.666592836380005,-0.26,-0.12,-0.43,0.51
10.676712989807129,-0.33,-0.09,-0.46,0.57
10.686607122421265,-0.35,-0.04,-0.38,0.51
10.69662094116211,-0.35,-0.01,-0.17,0.38
10.706578969955444,-0.57,-0.04,-0.03,0.57
10.737504005432129,-0.94,0.02,0.06,0.94
10.738090991973877,-1.09,0.03,0.27,1.12
10.738674879074097,-0.94,0.11,0.39,1.02
10.747381925582886,-0.67,0.17,0.08,0.69
10.756536960601807,-0.34,0.05,-0.24,0.41
10.76647400856018,-0.02,-0.05,-0.34,0.34
10.776456117630005,0.26,-0.03,-0.69,0.73
10.786301851272583,0.55,-0.07,-0.92,1.07
10.796483993530273,0.61,-0.17,-0.53,0.82
10.80646800994873,0.57,-0.13,-0.39,0.7
10.83810305595398,0.69,0.05,-0.47,0.83
10.838701009750366,0.86,0.17,-0.45,0.98
10.839278936386108,1.08,0.19,-0.32,1.14
10.846397161483765,1.22,0.16,-0.11,1.23
10.856295824050903,1.38,0.23,-0.03,1.39
10.86624002456665,1.61,0.36,-0.26,1.67
10.87620496749878,1.85,0.45,-0.32,1.93
10.886278867721558,2.24,0.48,-0.45,2.33
10.896342992782593,2.63,0.49,-0.49,2.71
10.90624213218689,2.87,0.49,-0.32,2.92
10.937921047210693,3.3,0.61,-0.41,3.38
10.938513994216919,3.58,0.96,-0.51,3.74
10.93910002708435,3.74,1.2,-0.14,3.93
10.946216821670532,3.94,1.46,0.07,4.2
10.956187963485718,3.92,1.92,-0.14,4.36
10.966202974319458,3.75,3.03,-1.05,4.93
10.976066827774048,3.6,4.51,0.93,5.84
10.986065149307251,3.41,3.8,1.18,5.24
10.996212005615234,3.34,4.34,0.43,5.49
11.006131887435913,3.79,5.02,-0.08,6.29
11.038414001464844,4.32,4.87,-0.21,6.51
11.03900408744812,4.13,4.83,-0.49,6.37
11.039589166641235,4.04,5.41,-0.65,6.78
11.046151876449585,4.4,5.79,-1.02,7.34
11.05612587928772,4.54,5.17,-0.95,6.94
11.066055059432983,4.48,4.2,-0.85,6.19
11.075867891311646,4.31,4.32,-1.25,6.22
11.08598804473877,4.19,5.48,-1.54,7.06
11.095983028411865,3.97,7.41,-1.94,8.62
11.105922937393188,3.36,8.99,-2.77,9.98
11.138718843460083,2.7,8.64,-3.79,9.81
11.139309167861938,2.44,6.79,-2.7,7.7
11.139883041381836,0.24,6.21,-1.8,6.47
11.145954847335815,-0.57,6.58,-4.24,7.84
11.155869007110596,1.96,5.45,-3.87,6.96
11.165892839431763,5.63,4.8,-1.8,7.61
11.175833940505981,9.59,2.44,-1.22,9.97
11.185780048370361,10.61,-1.57,-0.34,10.73
11.196033000946045,2.88,-3.18,2.04,4.75
11.205880880355835,-2.8,-5.11,-1.53,6.02
11.239497900009155,0.18,-1.44,-3.73,4.0
11.240087032318115,6.54,-0.39,-2.2,6.91
11.24101185798645,10.11,-1.17,0.22,10.17
11.245772123336792,10.68,-1.52,1.8,10.93
11.255877017974854,9.22,-2.0,2.68,9.8
11.265812158584595,7.41,-2.48,3.19,8.44
11.2759268283844,6.1,-3.34,3.17,7.64
11.285789966583252,5.6,-3.98,3.01,7.5
11.295835018157959,5.46,-3.75,2.64,7.13
11.305739164352417,5.24,-3.14,2.26,6.51
11.339976072311401,4.88,-2.55,1.91,5.82
11.340909957885742,4.54,-2.14,1.66,5.28
11.341488122940063,4.3,-1.85,1.67,4.97
11.345757007598877,3.98,-1.64,1.87,4.69
11.355684995651245,3.5,-1.44,2.15,4.35
11.365664958953857,2.93,-1.05,2.32,3.88
11.375582933425903,1.9,-0.63,2.93,3.54
11.385682821273804,1.31,-0.09,3.6,3.83
11.395678997039795,1.59,0.6,3.0,3.44
11.405568838119507,0.83,1.57,1.15,2.11
11.439712047576904,-1.25,2.71,-0.79,3.08
11.440615892410278,-3.28,3.52,-1.61,5.07
11.441198110580444,-4.78,4.48,-1.47,6.71
11.445407152175903,-5.85,5.49,-1.41,8.14
11.455448865890503,-6.38,5.5,-1.74,8.6
11.465436935424805,-6.85,5.02,-2.38,8.81
11.475523948669434,-7.84,4.42,-3.42,9.62
11.485460042953491,-9.28,7.59,-5.02,12.99
11.495512962341309,-7.87,10.34,-7.11,14.81
11.505435943603516,-13.98,2.46,-4.77,14.97
11.540858030319214,-18.82,0.59,-3.33,19.12
11.541447877883911,-17.98,-0.76,-4.04,18.44
11.542031049728394,-14.74,0.06,-4.49,15.4
11.545334100723267,-11.88,0.66,-3.97,12.54
11.55539584159851,-10.51,1.35,-2.42,10.86
11.565331935882568,-10.54,1.62,-1.11,10.72
11.575294017791748,-6.91,2.87,-2.24,7.81
11.585325002670288,2.75,2.43,2.27,4.31
11.59532904624939,7.22,-0.38,5.74,9.23
11.605407953262329,2.11,-0.08,2.66,3.39
11.641597032546997,-5.95,1.84,1.22,6.34
11.642185926437378,-9.19,2.65,0.8,9.59
11.64311695098877,-8.53,2.96,-1.1,9.09
11.645244836807251,-5.88,0.89,-3.11,6.71
11.655214071273804,-4.89,0.47,-3.89,6.26
11.665242910385132,-2.91,2.78,-2.01,4.49
11.675176858901978,-2.11,0.45,0.58,2.23
11.685240983963013,-2.72,-1.91,0.92,3.44
11.695205926895142,-3.17,-1.47,-0.1,3.49
11.705106019973755,-2.46,0.05,-0.38,2.48
11.741865873336792,-1.32,0.65,-0.25,1.49
11.742470026016235,-0.3,0.17,-0.43,0.55
11.74343204498291,0.19,0.05,-0.96,0.97
11.74509596824646,0.47,0.18,-1.25,1.34
11.756906032562256,0.46,0.14,-1.25,1.33
11.765086889266968,0.25,0.16,-1.32,1.35
11.775010824203491,0.03,0.16,-1.13,1.14
11.785109996795654,0.01,0.02,-0.89,0.89
11.795110940933228,0.08,-0.02,-0.84,0.84
11.805039167404175,0.08,-0.02,-0.76,0.76
11.841961145401001,-0.31,-0.03,-0.63,0.7
11.842556953430176,-0.79,-0.06,-0.37,0.87
11.843519926071167,-1.11,0.03,-0.08,1.11
11.84493899345398,-1.28,0.06,0.01,1.28
11.854911088943481,-1.22,0.0,0.03,1.22
11.864900827407837,-1.17,-0.07,0.01,1.17
11.874881982803345,-1.11,-0.12,-0.05,1.11
11.884878873825073,-1.15,-0.15,-0.14,1.16
11.894809007644653,-1.12,-0.09,-0.37,1.18
11.904830932617188,-0.93,-0.06,-0.47,1.04
11.941660165786743,-0.79,-0.05,-0.53,0.95
11.942248106002808,-0.8,-0.08,-0.51,0.95
11.943145036697388,-0.73,0.0,-0.36,0.81
11.94486689567566,-0.56,0.08,-0.18,0.59
11.954706907272339,-0.37,0.12,-0.15,0.41
11.964830160140991,-0.27,0.1,-0.09,0.3
11.974794149398804,-0.28,0.0,-0.11,0.3
11.984787940979004,-0.12,0.03,-0.24,0.26
11.994748830795288,0.35,0.03,-0.26,0.43
12.004748106002808,0.87,-0.15,-0.25,0.91
12.042381048202515,1.29,-0.16,-0.21,1.31
12.043305158615112,1.66,0.04,-0.06,1.66
12.043895959854126,1.79,0.28,-0.14,1.81
12.045081853866577,1.81,0.37,-0.21,1.85
12.054723024368286,2.02,0.4,-0.35,2.08
12.064743041992188,2.49,0.35,-0.28,2.53
12.07472014427185,2.76,0.43,-0.47,2.83
12.084663152694702,3.01,0.57,-0.3,3.07
12.094735860824585,3.23,0.61,-0.03,3.28
12.104592084884644,3.45,0.69,-0.06,3.51
12.141976118087769,4.0,0.83,-0.17,4.08
12.142570972442627,4.73,1.07,-0.42,4.86
12.143530130386353,4.78,1.29,-0.55,4.98
12.144711971282959,4.48,1.61,-0.32,4.77
12.154543161392212,3.82,2.39,-0.82,4.58
12.1646568775177,2.97,4.29,-1.5,5.42
12.174598932266235,2.87,4.81,1.15,5.71
12.184573888778687,3.12,4.13,0.83,5.24
12.194447040557861,3.2,4.95,0.2,5.89
12.204604864120483,3.78,5.67,-0.05,6.81
12.24186897277832,4.4,5.54,-0.12,7.07
12.242467164993286,4.5,5.72,-0.44,7.29
12.24338984489441,4.69,6.06,-0.67,7.69
12.244598150253296,4.7,5.51,-0.92,7.3
12.254379034042358,4.49,4.69,-0.86,6.54
12.264609098434448,4.42,4.52,-1.1,6.41
12.274335145950317,4.6,5.59,-1.3,7.35
12.284374952316284,4.39,7.76,-1.99,9.13
12.294481992721558,2.99,9.72,-3.37,10.71
12.304314851760864,1.97,9.12,-3.56,9.98
12.342294931411743,1.81,7.08,-2.73,7.8
12.342888116836548,0.31,7.19,-3.24,7.89
12.343791961669922,0.51,7.13,-4.92,8.67
12.34498381614685,3.31,5.59,-3.71,7.48
12.3542959690094,7.33,4.84,-2.1,9.03
12.36427903175354,11.81,1.98,-1.54,12.07
12.374225854873657,11.04,-0.83,-0.18,11.07
12.384258031845093,2.37,-2.43,0.96,3.52
12.394119024276733,-3.2,-4.38,-2.84,6.12
12.404253959655762,-1.81,-1.16,-4.26,4.77
12.443176031112671,5.07,-0.44,-3.48,6.16
12.443764925003052,9.48,-1.63,-1.58,9.74
12.444350004196167,10.61,-1.81,0.31,10.76
12.445532083511353,9.58,-2.04,1.82,9.96
12.454138994216919,7.84,-2.71,2.88,8.78
12.464118003845215,6.15,-3.63,3.09,7.78
12.474057912826538,5.18,-4.37,2.66,7.28
12.484078168869019,4.95,-4.31,2.14,6.9
12.494001150131226,4.81,-3.86,1.68,6.39
12.504060983657837,4.55,-3.54,1.27,5.9
12.543282985687256,4.23,-3.37,0.95,5.49
12.543882131576538,3.92,-3.35,0.93,5.23
12.544486999511719,3.71,-3.26,1.07,5.05
12.545702934265137,3.44,-3.06,1.45,4.82
12.553950071334839,3.01,-2.62,2.05,4.48
12.563969850540161,2.8,-1.94,2.55,4.25
12.573951959609985,2.53,-0.91,3.1,4.1
12.583925008773804,2.33,0.45,3.39,4.13
12.593825101852417,2.3,1.46,2.3,3.56
12.603950023651123,1.33,2.48,-0.05,2.81
12.644243955612183,-1.07,4.01,-2.49,4.83
12.644842863082886,-4.11,5.24,-3.84,7.68
12.645434141159058,-6.52,6.1,-4.71,10.09
12.64657998085022,-7.81,6.69,-5.26,11.55
12.653795957565308,-8.33,6.56,-5.11,11.77
12.663856029510498,-8.72,5.38,-4.69,11.26
12.6737220287323,-10.11,3.66,-5.03,11.87
12.683866024017334,-11.66,8.09,-6.36,15.55
12.693753004074097,-12.24,6.71,-7.87,16.02
12.70360803604126,-17.81,-0.11,-6.23,18.86
12.744526147842407,-17.11,-1.27,-4.09,17.63
12.74512505531311,-14.32,-0.72,-2.58,14.56
12.745712041854858,-12.14,0.19,-2.19,12.33
12.746877908706665,-11.07,1.45,-1.65,11.28
12.75373387336731,-9.78,2.71,-0.05,10.14
12.763731002807617,-8.45,3.8,1.57,9.39
12.773587942123413,-1.89,4.24,1.51,4.88
12.783751964569092,5.75,1.3,6.56,8.81
12.79382586479187,3.46,1.11,5.27,6.4
12.80370306968689,-5.04,5.41,1.28,7.5
12.844558000564575,-10.74,4.93,0.03,11.81
12.845147848129272,-9.16,1.59,-2.03,9.51
12.845728158950806,-6.98,-0.42,-4.35,8.23
12.846885919570923,-5.0,2.68,-2.24,6.09
12.853474855422974,-3.39,1.56,-0.34,3.74
12.863538980484009,-2.44,-1.67,-0.69,3.03
12.873474836349487,-2.57,-1.53,-1.58,3.38
12.883570909500122,-2.44,-0.27,-1.95,3.13
12.893748998641968,-2.07,0.45,-1.38,2.52
12.90354299545288,-1.6,0.43,-0.62,1.76
12.945051908493042,-0.83,0.07,-0.12,0.84
12.94564414024353,-0.35,-0.17,-0.03,0.39
12.946223974227905,-0.03,-0.04,-0.19,0.19
12.947374105453491,0.22,0.06,-0.04,0.23
12.953418016433716,0.26,-0.08,0.14,0.3
12.963434934616089,-0.05,-0.1,-0.2,0.22
12.973378896713257,-0.2,0.06,-0.55,0.58
12.983374834060669,-0.03,0.14,-0.7,0.71
12.993354082107544,0.18,0.11,-1.41,1.42
13.003374814987183,0.29,-0.03,-2.0,2.02
13.045840978622437,0.03,-0.24,-1.88,1.89
13.046434164047241,-0.54,-0.15,-1.42,1.52
13.047019004821777,-0.83,-0.04,-0.41,0.92
13.048527956008911,-0.27,0.06,0.48,0.55
13.053208112716675,0.04,0.06,0.68,0.68
13.063205003738403,0.26,-0.09,0.28,0.39
13.07327914237976,0.41,-0.06,0.01,0.41
13.083473920822144,0.48,-0.02,-0.2,0.52
13.093246936798096,0.33,0.03,-0.54,0.63
13.103216886520386,-0.15,0.02,-0.74,0.75
13.145478963851929,-0.52,-0.05,-0.75,0.91
13.146070957183838,-0.58,-0.17,-0.64,0.88
13.14663815498352,-0.56,-0.17,-0.2,0.61
13.147796869277954,-0.5,-0.03,-0.07,0.5
13.15314507484436,-0.27,0.04,-0.05,0.27
13.163173913955688,-0.05,0.09,0.0,0.1
13.17311406135559,-0.01,0.08,-0.06,0.1
13.183143854141235,-0.05,-0.04,-0.1,0.11
13.193072080612183,-0.02,-0.05,-0.19,0.19
13.203135967254639,0.16,-0.04,-0.15,0.22
13.245872020721436,0.41,0.06,-0.22,0.46
13.246466875076294,0.77,0.19,-0.37,0.87
13.247056007385254,1.06,0.3,-0.22,1.12
13.248553037643433,1.35,0.25,0.03,1.37
13.253013849258423,1.83,0.23,-0.09,1.84
13.262959957122803,2.49,0.25,-0.05,2.5
13.273010969161987,2.87,0.3,0.05,2.88
13.28299593925476,3.17,0.5,0.19,3.21
13.293039083480835,3.59,0.71,0.15,3.66
13.302984952926636,3.74,0.82,-0.04,3.82
13.346611022949219,3.8,0.94,-0.24,3.92
13.347196817398071,3.7,1.14,-0.13,3.87
13.34809398651123,3.53,1.21,-0.08,3.73
13.349241971969604,3.13,1.48,-0.41,3.48
13.352911949157715,2.62,3.0,-1.13,4.14
13.363022089004517,2.44,4.66,0.6,5.29
13.372863054275513,2.55,3.85,1.37,4.81
13.382892847061157,2.8,4.1,0.57,4.99
13.392680883407593,3.13,4.69,0.2,5.64
13.402840852737427,3.98,5.08,-0.21,6.45
13.446325063705444,4.13,5.15,-0.52,6.62
13.44691801071167,4.03,5.31,-0.77,6.71
13.447838068008423,4.2,5.58,-0.68,7.01
13.449012041091919,4.63,5.81,-0.88,7.48
13.452759027481079,5.49,5.74,-0.9,7.99
13.46279788017273,6.31,6.05,-1.03,8.8
13.47270393371582,6.43,7.03,-1.61,9.66
13.482728004455566,5.57,8.32,-2.62,10.34
13.492661952972412,3.57,9.45,-2.92,10.51
13.502679109573364,1.75,9.74,-2.28,10.15
13.547194957733154,0.33,8.59,-2.49,8.94
13.548115015029907,-1.79,7.49,-3.52,8.46
13.548694849014282,-1.18,6.18,-4.96,8.01
13.54984998703003,2.19,5.19,-3.0,6.38
13.552556037902832,6.52,4.28,-1.03,7.86
13.562671899795532,11.04,0.25,-0.63,11.06
13.57253384590149,8.64,-2.66,1.26,9.12
13.58263087272644,-0.27,-4.5,1.46,4.73
13.592533826828003,-4.21,-4.5,-2.56,6.67
13.602406024932861,0.54,-0.9,-2.99,3.16
13.647547006607056,7.62,-1.46,-1.32,7.87
13.648330926895142,11.06,-2.24,0.65,11.3
13.648914098739624,11.48,-2.1,2.0,11.84
13.650068998336792,10.27,-2.03,3.1,10.91
13.652400016784668,8.15,-2.65,3.6,9.29
13.662452936172485,6.63,-3.86,3.42,8.39
13.672390937805176,5.94,-4.18,3.28,7.96
13.682464838027954,5.38,-3.54,2.78,7.01
13.692404985427856,4.53,-2.93,2.03,5.76
13.702456951141357,3.72,-2.46,1.47,4.69
13.748017072677612,3.15,-2.19,1.04,3.97
13.748621940612793,2.68,-1.88,0.87,3.38
13.74920105934143,2.32,-1.46,1.02,2.92
13.750355005264282,1.88,-1.06,1.67,2.72
13.752343893051147,1.34,-0.82,2.43,2.89
13.762351989746094,0.65,-0.56,3.12,3.23
13.772258996963501,0.25,-0.23,3.41,3.42
13.782425165176392,1.03,0.04,2.52,2.72
13.792313814163208,1.4,0.77,0.89,1.82
13.802324056625366,0.01,2.35,-0.19,2.35
13.848711013793945,-2.47,3.79,-0.26,4.53
13.849308967590332,-4.26,4.39,-0.64,6.15
13.849894046783447,-4.53,4.49,-1.56,6.56
13.851058959960938,-4.23,5.11,-2.35,7.03
13.852227926254272,-4.92,5.77,-2.97,8.14
13.862275838851929,-7.42,5.79,-3.8,10.14
13.872194051742554,-10.84,5.17,-4.73,12.9
13.882211923599243,-13.23,4.03,-5.61,14.92
13.892154932022095,-12.98,3.64,-5.3,14.48
13.902163982391357,-9.69,7.85,-4.87,13.38
13.949065923690796,-11.48,-0.36,-4.88,12.47
13.94966197013855,-13.64,-3.03,-4.99,14.83
13.950243949890137,-12.14,-3.57,-3.24,13.06
13.951403856277466,-10.6,-2.8,-2.53,11.25
13.952554941177368,-9.29,-0.32,-2.35,9.58
13.961966037750244,-9.23,1.87,-2.13,9.65
13.972090005874634,-8.69,3.08,-3.23,9.76
13.982187986373901,-0.3,3.47,-1.44,3.76
13.99185585975647,7.28,1.61,4.13,8.52
14.002032041549683,4.67,1.78,3.48,6.08
14.05010199546814,-4.34,5.32,0.32,6.87
14.050693988800049,-10.85,3.84,-1.49,11.6
14.051284074783325,-9.71,0.66,-3.82,10.45
14.052479982376099,-8.25,0.03,-4.85,9.57
14.053634881973267,-4.59,2.91,-2.02,5.79
14.061795949935913,-2.86,0.56,0.05,2.91
14.071941137313843,-2.84,-2.49,0.37,3.79
14.081802129745483,-2.76,-1.78,-0.12,3.28
14.091717004776001,-2.16,-0.14,0.08,2.16
14.101834058761597,-1.47,0.58,0.72,1.73
14.15035891532898,-0.76,0.1,0.54,0.93
14.150954961776733,-0.46,-0.21,-0.92,1.04
14.151559114456177,-0.31,-0.21,-1.3,1.35
14.1526939868927,-0.05,0.0,-1.13,1.13
14.153845071792603,-0.03,0.26,-0.73,0.77
14.1616370677948,-0.61,0.37,-0.42,0.82
14.17178201675415,-1.04,0.38,-0.27,1.13
14.181743860244751,-1.02,0.2,-0.59,1.19
14.19165301322937,-0.98,0.02,-1.06,1.44
14.201756000518799,-1.08,0.0,-1.08,1.52
14.250694990158081,-1.11,0.05,-0.7,1.31
14.251330137252808,-0.83,-0.01,-0.23,0.86
14.251919984817505,-0.47,0.02,-0.09,0.47
14.253077030181885,-0.31,0.11,-0.06,0.33
14.254215955734253,-0.35,0.09,-0.12,0.38
14.261474847793579,-0.49,-0.11,-0.41,0.64
14.271564960479736,-0.48,-0.11,-0.38,0.62
14.281527042388916,-0.45,-0.08,-0.05,0.45
14.291582822799683,-0.49,-0.07,-0.03,0.49
14.301597833633423,-0.37,0.05,-0.15,0.4
14.350796937942505,-0.16,0.09,-0.17,0.25
14.351453065872192,-0.15,0.02,-0.34,0.37
14.352041959762573,0.12,-0.07,-0.52,0.53
14.35318899154663,0.5,-0.01,-0.52,0.72
14.354273080825806,0.84,0.09,-0.52,0.99
14.361708879470825,0.89,0.13,-0.48,1.01
14.371535062789917,0.59,0.06,-0.58,0.82
14.381521940231323,0.5,0.02,-0.44,0.66
14.391474962234497,0.75,0.03,-0.19,0.77
14.40143084526062,0.89,0.08,-0.05,0.89
14.450010061264038,0.97,0.05,0.07,0.97
14.451874017715454,1.23,0.06,0.07,1.23
14.452428102493286,1.47,0.19,-0.26,1.5
14.453606843948364,1.77,0.28,-0.59,1.88
14.454762935638428,2.08,0.21,-0.56,2.16
14.464463949203491,1.96,0.35,-0.67,2.1
14.471354007720947,1.82,0.58,-0.35,1.94
14.481383085250854,1.94,0.69,0.01,2.05
14.491337060928345,2.06,0.71,-0.25,2.19
14.501353979110718,2.02,0.74,-0.58,2.22
14.511223077774048,2.05,0.72,-0.58,2.24
14.551439046859741,2.17,0.85,-0.8,2.46
14.552022933959961,2.41,0.96,-0.66,2.67
14.553180932998657,2.51,1.21,-0.17,2.79
14.554311037063599,2.63,1.52,0.4,3.06
14.561178922653198,2.73,2.55,0.16,3.73
14.571167945861816,4.29,4.43,-1.31,6.3
14.581187963485718,4.44,4.38,0.19,6.23
14.591132879257202,4.74,4.36,-0.02,6.44
14.601239919662476,4.88,4.66,-0.25,6.75
14.611212015151978,5.07,5.14,-0.53,7.23
14.652395009994507,5.37,5.87,-0.7,7.98
14.652987957000732,5.58,6.31,-0.49,8.43
14.6541588306427,5.44,6.36,-0.68,8.39
14.655287981033325,5.55,6.28,-0.98,8.43
14.661054849624634,5.62,5.92,-1.17,8.24
14.671057939529419,5.02,6.01,-1.34,7.94
14.681066989898682,4.58,7.09,-1.62,8.59
14.691035985946655,4.23,8.9,-3.1,10.33
14.7010338306427,3.87,9.58,-4.16,11.13
14.711068868637085,4.11,7.39,-3.94,9.32
14.752141952514648,3.33,5.5,-2.83,7.02
14.75274109840393,0.65,7.12,-3.4,7.91
14.753916025161743,0.61,5.32,-4.95,7.29
14.755072832107544,3.77,4.14,-3.46,6.58
14.76093316078186,7.96,3.64,-2.27,9.04
14.770899057388306,11.9,-0.12,-2.24,12.1
14.780904054641724,6.98,-2.96,-0.03,7.58
14.790910959243774,-1.84,-5.73,-1.34,6.16
14.800878047943115,-2.3,-3.32,-4.97,6.4
14.810837984085083,3.98,-0.09,-4.4,5.93
14.85319995880127,8.9,-0.61,-2.18,9.18
14.853798151016235,10.76,-1.46,-0.07,10.85
14.85498309135437,9.88,-2.0,0.79,10.11
14.85649299621582,7.8,-3.0,0.96,8.41
14.860788106918335,6.09,-4.33,1.25,7.57
14.870739936828613,5.54,-4.94,1.3,7.53
14.880794048309326,5.65,-4.22,1.0,7.12
14.890763998031616,5.6,-3.11,0.57,6.43
14.900759935379028,5.16,-2.53,0.12,5.74
14.91065001487732,4.57,-2.45,-0.45,5.2
14.953281164169312,4.13,-2.36,-0.79,4.82
14.953882932662964,3.95,-2.04,-0.83,4.52
14.955075025558472,3.56,-1.57,-0.18,3.89
14.956557989120483,2.66,-1.12,0.7,2.96
14.96067500114441,1.65,-0.79,1.38,2.29
14.970763921737671,1.15,-0.15,1.15,1.63
14.980787992477417,1.16,0.55,-0.21,1.3
14.990668058395386,0.29,1.48,-2.09,2.57
15.000683069229126,-2.27,2.55,-3.37,4.79
15.010641813278198,-5.44,3.12,-3.81,7.33
15.053950071334839,-7.88,3.24,-3.94,9.38
15.054549932479858,-8.71,3.04,-3.44,9.84
15.056051969528198,-8.37,2.77,-2.68,9.21
15.057181119918823,-8.03,2.51,-2.43,8.75
15.060495138168335,-8.72,2.3,-3.03,9.51
15.070433855056763,-10.59,2.9,-4.36,11.81
15.080461025238037,-11.24,10.11,-5.56,16.1
15.090340852737427,-9.8,8.85,-5.75,14.4
15.137428998947144,-14.98,0.5,-3.19,15.32
15.138031005859375,-15.04,-1.06,-0.86,15.1
15.138624906539917,-13.13,-0.26,0.09,13.13
15.139219045639038,-12.22,0.73,0.03,12.24
15.140422105789185,-12.35,1.85,-0.28,12.49
15.150413990020752,-13.54,1.89,-0.79,13.69
15.160351991653442,-10.91,2.69,-4.42,12.07
15.170410871505737,0.17,4.69,-0.7,4.74
15.180366039276123,5.49,7.1,5.17,10.35
15.190293073654175,-1.31,9.5,4.33,10.52
15.23904299736023,-9.54,2.91,2.4,10.25
15.23963713645935,-8.88,-1.89,0.36,9.08
15.24023985862732,-6.85,-2.26,-3.1,7.85
15.240822076797485,-5.7,0.32,-3.2,6.54
15.241988897323608,-4.39,1.92,-1.17,4.93
15.25028109550476,-3.88,-0.05,-0.36,3.89
15.26021409034729,-4.02,-0.76,-0.7,4.15
15.270288944244385,-3.45,-0.14,-1.27,3.67
15.280203104019165,-2.26,0.11,-0.78,2.39
15.290176153182983,-1.18,-0.26,-0.12,1.21
15.338801145553589,-0.37,-0.28,0.1,0.47
15.339401006698608,0.25,0.08,-0.03,0.26
15.340008974075317,0.61,0.28,-0.05,0.67
15.340572118759155,0.61,0.12,0.06,0.62
15.341689825057983,0.27,-0.09,-0.01,0.28
15.350144147872925,-0.04,-0.05,-0.33,0.33
15.360069990158081,-0.2,0.05,-0.66,0.69
15.370046854019165,-0.3,0.04,-1.05,1.09
15.380007982254028,-0.22,0.08,-1.43,1.44
15.390025854110718,0.09,0.04,-1.5,1.5
15.439253091812134,0.38,0.04,-1.44,1.48
15.439815998077393,0.64,0.03,-1.08,1.25
15.440402030944824,0.85,-0.1,-0.27,0.89
15.440989017486572,0.55,-0.24,0.01,0.6
15.442158937454224,-0.24,-0.14,-0.11,0.29
15.450031995773315,-0.75,0.01,-0.18,0.77
15.459918022155762,-0.63,0.12,-0.08,0.64
15.469949007034302,-0.31,0.08,0.08,0.33
15.479825973510742,-0.05,-0.01,0.05,0.07
15.490002870559692,0.16,-0.03,0.02,0.16
15.539334058761597,0.33,-0.08,-0.13,0.36
15.539942026138306,0.4,-0.08,-0.53,0.66
15.540490865707397,0.42,0.02,-0.86,0.95
15.541073083877563,0.27,-0.01,-0.69,0.74
15.542240858078003,-0.1,-0.02,-0.4,0.41
15.54988694190979,-0.33,0.05,-0.2,0.38
15.559745073318481,-0.33,0.05,0.08,0.34
15.569849014282227,-0.35,0.03,0.3,0.46
15.579671144485474,-0.28,0.02,0.31,0.41
15.589761972427368,-0.04,-0.02,0.15,0.15
15.639353036880493,0.14,0.01,0.03,0.14
15.639952898025513,0.44,0.11,-0.16,0.48
15.640535116195679,0.79,0.11,-0.31,0.85
15.641083002090454,0.98,0.16,-0.6,1.16
15.642261981964111,1.18,0.21,-0.51,1.3
15.64972710609436,1.81,0.23,-0.16,1.83
15.659705877304077,2.19,0.25,-0.45,2.24
15.669709920883179,2.51,0.31,-0.32,2.54
15.679548978805542,2.87,0.38,-0.18,2.9
15.689675092697144,3.01,0.43,-0.26,3.05
15.740319013595581,3.34,0.51,-0.45,3.4
15.740913152694702,3.61,0.54,-0.83,3.74
15.741497039794922,3.45,0.56,-0.88,3.6
15.742079019546509,3.7,0.72,-0.85,3.86
15.74324893951416,3.87,0.85,-0.88,4.05
15.749581098556519,4.18,1.03,-0.77,4.37
15.759583950042725,4.26,1.39,-1.01,4.59
15.769567012786865,3.28,2.4,-0.39,4.08
15.779634952545166,2.03,4.19,0.07,4.65
15.7897789478302,2.64,5.82,-0.46,6.4
15.840716123580933,3.31,5.62,0.51,6.54
15.84130597114563,3.69,5.68,0.15,6.77
15.841883897781372,4.01,6.06,-0.47,7.28
15.842459917068481,4.28,6.44,-0.51,7.74
15.843624830245972,4.62,6.73,-0.73,8.19
15.849426984786987,5.11,7.07,-1.19,8.8
15.859360933303833,5.89,6.98,-1.38,9.23
15.869424104690552,7.31,7.07,-1.41,10.26
15.879741907119751,8.61,8.84,-2.47,12.58
15.889418840408325,8.22,10.41,-4.27,13.93
15.94078803062439,6.08,11.34,-4.6,13.66
15.941383123397827,3.5,11.08,-3.25,12.06
15.941967964172363,1.42,8.47,-2.97,9.08
15.942550897598267,-1.13,6.83,-4.22,8.1
15.943692922592163,-0.9,5.44,-5.89,8.06
15.949259042739868,2.34,4.37,-3.56,6.1
15.959338903427124,6.5,2.83,-0.89,7.14
15.96928095817566,10.06,-1.98,-0.17,10.25
15.97923493385315,3.88,-4.22,2.34,6.19
15.989293813705444,-4.23,-7.34,-0.79,8.5
16.04208016395569,-5.07,-4.64,-3.98,7.94
16.042678117752075,1.63,-1.43,-3.19,3.85
16.043267965316772,8.11,-2.66,-1.82,8.72
16.044193029403687,10.68,-3.42,-0.26,11.21
16.045375108718872,10.51,-3.12,1.14,11.02
16.049201011657715,9.05,-3.11,2.32,9.84
16.05907416343689,6.99,-3.91,2.9,8.51
16.069124937057495,5.84,-4.98,2.8,8.16
16.079134941101074,5.79,-5.07,2.6,8.12
16.089182138442993,5.91,-4.24,2.17,7.59
16.142467975616455,5.44,-3.65,1.64,6.75
16.14306092262268,4.63,-3.42,1.17,5.87
16.143644094467163,4.07,-3.52,0.86,5.44
16.144538164138794,3.92,-3.64,0.98,5.43
16.14571213722229,3.72,-3.58,1.53,5.38
16.14902901649475,3.24,-3.41,2.17,5.18
16.15898895263672,2.81,-3.08,2.6,4.91
16.168998956680298,2.22,-2.57,3.02,4.54
16.17893099784851,1.73,-1.97,3.64,4.48
16.188884019851685,2.17,-0.97,4.03,4.67
16.242616891860962,2.85,0.22,3.15,4.25
16.243202924728394,1.63,2.23,1.17,2.99
16.244127988815308,-2.18,4.67,-0.75,5.2
16.244712114334106,-6.17,6.04,-2.43,8.96
16.245893955230713,-8.9,7.75,-3.64,12.34
16.248844861984253,-10.24,9.83,-3.66,14.65
16.258852005004883,-10.27,10.71,-3.35,15.21
16.26892399787903,-9.76,8.5,-2.98,13.28
16.27876114845276,-9.7,5.29,-3.87,11.7
16.288986921310425,-10.94,8.41,-5.89,15.0
16.34353494644165,-12.55,7.08,-6.67,15.87
16.344380140304565,-17.89,-0.01,-4.76,18.51
16.344969034194946,-16.26,-1.21,-2.75,16.53
16.34555196762085,-13.69,-2.57,-1.41,14.0
16.347089052200317,-11.94,-1.56,-1.86,12.18
16.348663091659546,-10.93,0.83,-2.01,11.14
16.358784914016724,-9.42,3.62,-3.07,10.54
16.368754148483276,0.25,5.63,-2.22,6.05
16.378708124160767,9.85,3.61,3.98,11.22
16.38872194290161,8.45,1.47,3.29,9.18
16.444607973098755,0.01,3.11,0.18,3.11
16.445215940475464,-6.64,3.29,-0.16,7.41
16.445802927017212,-7.96,3.3,-0.9,8.66
16.44673800468445,-7.21,2.49,-1.33,7.74
16.447927951812744,-4.78,0.38,-1.83,5.13
16.449097871780396,-4.36,-0.5,-2.43,5.01
16.45861315727234,-3.77,1.26,-0.62,4.02
16.468695878982544,-4.35,-0.1,0.72,4.41
16.478532075881958,-4.93,-1.22,0.26,5.08
16.488500833511353,-4.31,-0.29,-0.24,4.32
16.544585943222046,-2.58,0.24,-0.08,2.59
16.545181035995483,-1.03,-0.11,0.31,1.08
16.545765161514282,-0.16,-0.36,0.17,0.42
16.546651124954224,0.37,-0.04,-0.5,0.62
16.54782509803772,0.59,0.2,-0.88,1.07
16.548975944519043,0.63,0.12,-0.8,1.02
16.558305978775024,0.52,0.12,-1.09,1.21
16.568341970443726,0.29,0.06,-1.56,1.58
16.5783531665802,0.06,-0.11,-1.43,1.43
16.588287115097046,-0.05,0.01,-1.37,1.37
16.645411014556885,-0.29,0.14,-1.24,1.28
16.64600682258606,-0.47,0.05,-0.69,0.83
16.6468608379364,-0.53,0.06,-0.27,0.59
16.64744997024536,-0.36,0.09,0.02,0.37
16.648657083511353,-0.09,-0.04,0.44,0.45
16.649842023849487,0.11,-0.08,0.92,0.93
16.65829110145569,0.16,-0.04,0.92,0.93
16.668301820755005,0.04,-0.02,0.51,0.51
16.678189039230347,0.12,-0.08,-0.08,0.16
16.688321828842163,0.24,0.1,-0.72,0.76
16.745622873306274,-0.24,0.19,-1.09,1.13
16.74623203277588,-0.73,0.04,-0.78,1.06
16.747152090072632,-0.84,-0.07,-0.37,0.92
16.747771978378296,-0.65,-0.06,-0.11,0.66
16.748955011367798,-0.4,-0.03,-0.07,0.4
16.75012707710266,-0.22,-0.01,-0.04,0.22
16.758185148239136,-0.1,0.05,0.11,0.15
16.768173933029175,-0.1,0.0,0.24,0.26
16.778165102005005,-0.24,0.02,0.03,0.24
16.788195848464966,-0.39,-0.05,-0.35,0.52
16.846447944641113,-0.39,-0.09,-0.34,0.52
16.84725308418274,-0.31,-0.06,-0.11,0.33
16.847882986068726,-0.24,-0.05,-0.19,0.31
16.84846806526184,-0.22,0.03,-0.2,0.29
16.849645853042603,-0.07,0.16,-0.23,0.28
16.850798845291138,0.26,0.28,-0.56,0.67
16.858005046844482,0.61,0.36,-0.61,0.93
16.867992162704468,0.99,0.29,-0.6,1.19
16.877990007400513,1.39,0.24,-0.34,1.45
16.88784384727478,1.73,0.16,0.03,1.73
16.9463369846344,1.92,0.3,-0.2,1.95
16.947272062301636,2.21,0.47,-0.14,2.26
16.94787096977234,2.55,0.56,-0.3,2.62
16.948464155197144,2.71,0.62,-0.56,2.83
16.94961905479431,2.91,0.77,-0.55,3.05
16.950784921646118,3.15,1.01,-0.65,3.37
16.95784306526184,3.09,1.21,-0.64,3.37
16.967888116836548,2.58,1.65,-0.28,3.07
16.977847814559937,2.37,2.07,-0.04,3.14
16.987902879714966,2.3,2.57,0.2,3.45
17.046304941177368,2.39,2.99,-0.69,3.88
17.04719614982605,3.57,3.79,-0.83,5.27
17.047786951065063,3.48,3.87,0.08,5.2
17.04839587211609,3.59,3.55,-0.39,5.06
17.04958200454712,3.32,3.73,-0.5,5.01
17.05071496963501,3.48,3.53,-0.27,4.96
17.05773615837097,3.66,3.52,-0.01,5.07
17.06783103942871,4.18,3.88,-0.43,5.71
17.077818155288696,5.06,4.64,-0.37,6.87
17.087724924087524,5.47,5.31,-0.57,7.64
17.147516012191772,5.35,5.52,-0.89,7.73
17.148133039474487,5.08,5.62,-0.57,7.59
17.148736000061035,4.48,5.39,-0.76,7.04
17.149315118789673,4.13,5.0,-0.76,6.52
17.150485038757324,4.51,5.22,-0.9,6.95
17.151633977890015,5.68,6.13,-1.85,8.55
17.157635927200317,6.43,6.42,-2.66,9.46
17.167661905288696,4.93,6.97,-2.31,8.84
17.17758011817932,0.53,8.44,-1.91,8.66
17.187551975250244,-1.5,7.9,-4.29,9.11
17.248143911361694,2.06,6.7,-4.62,8.39
17.24875497817993,6.72,5.46,-2.91,9.13
17.249346017837524,9.43,2.82,-1.12,9.9
17.24992799758911,10.56,-0.78,-0.07,10.58
17.251078844070435,5.45,-2.4,1.15,6.06
17.252597093582153,-2.31,-3.35,-0.79,4.14
17.25738787651062,-5.28,-1.45,-3.81,6.67
17.2675621509552,-0.04,0.76,-3.82,3.89
17.27739405632019,6.82,-0.76,-2.67,7.36
17.287413835525513,9.93,-2.13,-1.11,10.21
17.348286867141724,9.82,-2.66,0.17,10.17
17.34888482093811,8.45,-2.92,1.4,9.04
17.34946894645691,6.3,-3.5,2.12,7.51
17.350043058395386,4.32,-3.93,2.05,6.18
17.35121989250183,3.58,-4.11,1.52,5.65
17.352712869644165,3.72,-3.97,1.12,5.55
17.35731816291809,3.85,-3.56,0.75,5.29
17.36734414100647,3.79,-3.22,0.44,4.99
17.377306938171387,3.53,-3.14,0.38,4.73
17.3873131275177,3.56,-3.39,0.48,4.93
17.448534965515137,3.87,-3.41,0.74,5.21
17.44913411140442,4.07,-3.14,1.27,5.29
17.449721097946167,3.95,-2.47,1.74,4.97
17.450310945510864,3.55,-1.68,2.31,4.55
17.451462984085083,3.0,-0.74,2.92,4.25
17.45293402671814,2.59,0.51,3.08,4.05
17.457195043563843,2.67,1.51,2.44,3.91
17.467317819595337,2.44,2.21,0.89,3.41
17.47703194618225,0.63,3.68,-0.84,3.82
17.487201929092407,-2.04,4.73,-2.08,5.55
17.497185945510864,-4.52,5.4,-3.52,7.87
17.54960608482361,-6.7,5.64,-4.55,9.86
17.55019211769104,-8.11,5.12,-4.31,10.51
17.55077815055847,-9.19,4.5,-3.95,10.96
17.55224108695984,-10.2,3.76,-4.15,11.63
17.553385972976685,-11.65,3.44,-5.34,13.26
17.557044982910156,-12.21,8.36,-6.5,16.16
17.567013025283813,-9.42,8.7,-7.03,14.62
17.57702398300171,-13.59,-1.02,-4.68,14.4
17.58704686164856,-15.43,-2.22,-3.06,15.88
17.596954107284546,-14.81,-0.84,-2.56,15.05
17.65032196044922,-12.51,0.4,-3.0,12.87
17.650913953781128,-9.36,1.09,-1.85,9.6
17.651538133621216,-7.73,1.8,0.02,7.93
17.6530659198761,-8.49,2.16,0.77,8.79
17.654245138168335,-4.83,2.25,-0.5,5.35
17.656913995742798,1.68,1.32,3.25,3.88
17.66695499420166,1.64,2.17,3.95,4.79
17.676934957504272,-3.37,6.23,1.88,7.32
17.686969995498657,-7.89,5.93,0.75,9.89
17.696892976760864,-7.44,2.07,-1.78,7.92
17.750329971313477,-6.71,-0.5,-4.68,8.19
17.75093388557434,-5.53,2.08,-3.3,6.76
17.75185799598694,-3.68,2.03,-0.9,4.29
17.75305700302124,-2.11,-0.9,-0.07,2.29
17.754223108291626,-1.97,-1.31,-0.59,2.43
17.756827116012573,-1.59,-0.49,-1.38,2.16
17.766757011413574,-1.28,-0.06,-1.05,1.65
17.776790857315063,-1.1,-0.11,-0.73,1.32
17.78677010536194,-0.78,0.01,-0.62,0.99
17.796725034713745,-0.44,0.11,-0.41,0.61
17.851364850997925,0.14,0.14,-0.18,0.26
17.852272033691406,0.63,0.01,0.1,0.63
17.852880001068115,0.7,-0.15,0.11,0.72
17.854079008102417,0.64,-0.13,-0.11,0.66
17.855235815048218,0.52,-0.03,-0.49,0.71
17.856552839279175,0.17,0.18,-0.83,0.86
17.866655111312866,-0.15,0.24,-1.07,1.1
17.876571893692017,-0.41,0.06,-1.41,1.46
17.886572122573853,-0.73,-0.15,-1.58,1.74
17.896576166152954,-0.94,-0.19,-1.44,1.73
17.95043396949768,-0.94,-0.16,-0.8,1.24
17.95101499557495,-0.67,-0.21,-0.3,0.76
17.95192003250122,-0.38,0.07,-0.32,0.5
17.95310616493225,-0.05,0.05,-0.23,0.24
17.954272985458374,0.31,-0.31,0.3,0.53
17.956445932388306,0.43,-0.08,-0.17,0.46
17.96648597717285,0.4,0.12,-0.33,0.53
17.976423025131226,0.09,0.16,-0.29,0.34
17.986522912979126,-0.02,0.13,-0.21,0.24
17.996402978897095,-0.06,0.0,-0.16,0.17
18.05172085762024,-0.22,0.02,-0.06,0.22
18.0525381565094,-0.42,0.05,0.09,0.43
18.053137063980103,-0.37,0.04,0.21,0.42
18.054309129714966,-0.05,0.18,0.47,0.5
18.05545687675476,0.34,0.22,0.54,0.67
18.056249856948853,0.4,0.21,0.13,0.47
18.066370010375977,0.42,0.31,-0.34,0.62
18.076165914535522,0.53,0.35,-0.45,0.77
18.08635902404785,0.74,0.27,-0.42,0.89
18.09628415107727,0.96,0.17,-0.61,1.15
18.151520013809204,0.72,0.23,-0.62,0.97
18.152302980422974,0.55,0.22,-0.13,0.6
18.152878999710083,0.62,0.41,0.0,0.74
18.154051065444946,0.67,0.48,0.02,0.82
18.15519404411316,1.04,0.43,-0.03,1.12
18.15619397163391,1.62,0.5,-0.12,1.69
18.166279077529907,2.15,0.46,-0.19,2.2
18.176177978515625,2.8,0.64,-0.21,2.87
18.18611216545105,3.31,1.19,-0.33,3.53
18.19617009162903,3.35,1.77,-0.78,3.86
18.252124071121216,4.19,2.69,-0.66,5.02
18.252733945846558,4.16,2.8,0.41,5.03
18.2533438205719,4.12,2.8,0.01,4.98
18.254470109939575,3.82,3.04,0.4,4.89
18.255625009536743,3.59,2.93,0.18,4.63
18.256230115890503,3.28,3.04,-0.26,4.47
18.26613688468933,3.12,3.45,-0.61,4.69
18.27593493461609,3.35,3.91,-0.82,5.21
18.286091089248657,3.7,4.31,-0.88,5.74
18.29593014717102,4.5,4.85,-0.7,6.65
18.35246205329895,5.33,5.42,-0.65,7.62
18.353055953979492,5.51,5.51,-0.47,7.8
18.353633165359497,5.01,5.25,-0.38,7.26
18.35480284690857,4.29,4.95,-0.51,6.57
18.355962991714478,3.86,5.28,-0.57,6.56
18.356527090072632,3.86,6.44,-1.28,7.61
18.36605715751648,4.43,7.45,-2.67,9.06
18.37597393989563,4.97,6.97,-3.82,9.37
18.385935068130493,3.43,7.05,-3.03,8.4
18.395871877670288,-0.52,7.34,-2.23,7.68
18.452723026275635,-1.43,7.45,-4.57,8.85
18.45331597328186,1.63,5.95,-4.56,7.67
18.453899145126343,5.96,4.8,-2.47,8.04
18.45508599281311,9.28,3.73,-1.41,10.1
18.456266164779663,10.42,0.38,-0.67,10.44
18.456846952438354,5.89,-2.23,-0.02,6.29
18.46566891670227,-1.9,-2.88,-0.5,3.48
18.4756600856781,-5.24,-0.93,-3.43,6.33
18.486093997955322,0.6,1.6,-4.55,4.86
18.49571704864502,7.88,-0.01,-3.24,8.52
18.553319931030273,10.98,-0.82,-0.74,11.03
18.55391812324524,10.28,-0.52,1.14,10.35
18.554506063461304,7.54,-0.97,2.21,7.91
18.555694818496704,5.01,-2.13,2.4,5.94
18.556816816329956,4.16,-3.38,1.96,5.7
18.557400941848755,4.92,-4.36,2.02,6.87
18.565647840499878,5.9,-4.32,2.38,7.69
18.575627088546753,6.1,-3.04,2.2,7.16
18.58563995361328,5.63,-1.89,1.91,6.23
18.595600843429565,4.84,-1.49,1.81,5.37
18.653877019882202,4.04,-1.56,1.77,4.67
18.654494047164917,3.24,-1.63,2.1,4.19
18.65508008003235,2.17,-1.7,2.74,3.88
18.65625309944153,1.7,-1.71,3.16,3.97
18.657408952713013,2.27,-1.48,2.89,3.96
18.65799903869629,2.74,-0.97,1.84,3.44
18.66540002822876,1.77,-0.27,0.93,2.01
18.67563509941101,0.06,0.49,0.66,0.82
18.685739040374756,-1.99,1.05,0.62,2.33
18.69547200202942,-3.63,1.3,-0.1,3.85
18.754337072372437,-4.28,2.16,-1.28,4.96
18.754940032958984,-4.67,3.31,-1.64,5.95
18.755531072616577,-5.89,4.23,-1.75,7.45
18.756704092025757,-7.87,4.51,-2.6,9.43
18.75785994529724,-10.38,4.32,-3.51,11.77
18.75844693183899,-12.8,3.74,-4.31,14.01
18.765228986740112,-14.58,2.28,-4.23,15.35
18.775328874588013,-15.23,0.52,-3.75,15.69
18.785290002822876,-14.72,-0.51,-3.72,15.19
18.79525589942932,-13.86,-0.57,-4.07,14.45
18.85458016395569,-13.09,-0.57,-4.56,13.87
18.855142831802368,-12.26,-1.66,-4.25,13.08
18.855731964111328,-11.52,-2.59,-3.63,12.35
18.85688090324402,-10.79,-1.54,-3.4,11.41
18.85801386833191,-6.88,4.36,-4.32,9.21
18.858597993850708,-3.79,3.02,-3.3,5.86
18.865116834640503,3.03,5.32,-1.26,6.25
18.875116109848022,12.99,5.16,11.01,17.79
18.885287046432495,11.7,0.7,13.14,17.6
18.895213842391968,0.06,0.43,-1.74,1.79
18.95557713508606,-9.29,7.93,-3.69,12.75
18.956181049346924,-11.51,11.24,1.57,16.16
18.956772089004517,-11.73,5.44,0.45,12.93
18.957940816879272,-7.23,0.48,-4.1,8.32
18.959079027175903,-3.01,1.45,-1.52,3.67
18.95967698097229,-0.42,0.15,2.16,2.2
18.965254068374634,-0.77,-3.18,0.9,3.39
18.97512197494507,-3.51,-2.83,-1.43,4.73
18.985151052474976,-4.39,-0.69,-2.91,5.31
18.99508309364319,-3.59,1.69,-3.77,5.47
19.056058168411255,-2.98,1.24,-3.91,5.07
19.056653022766113,-2.04,-0.18,-3.27,3.85
19.057238817214966,-1.22,-0.16,-2.36,2.66
19.05841302871704,-0.55,0.3,-0.83,1.03
19.0595760345459,-0.22,0.4,0.81,0.92
19.06049394607544,0.27,0.44,1.5,1.58
19.06532883644104,0.8,0.05,1.18,1.42
19.074958086013794,0.79,-0.07,0.37,0.87
19.08509612083435,0.58,0.17,-0.67,0.9
19.09490203857422,0.54,0.12,-1.53,1.62
19.159080028533936,0.67,-0.19,-1.6,1.74
19.160022974014282,0.47,-0.32,-1.65,1.74
19.160599946975708,-0.01,-0.3,-1.77,1.79
19.161767959594727,-0.6,-0.54,-0.83,1.15
19.16289210319519,-0.87,-0.54,-0.16,1.03
19.163439989089966,-0.57,-0.19,-0.23,0.64
19.164840936660767,-0.04,-0.02,0.2,0.2
19.17480492591858,0.33,0.19,0.46,0.59
19.18475890159607,0.5,0.25,0.34,0.65
19.194692850112915,0.56,0.17,0.33,0.67
19.256354093551636,0.62,0.11,0.01,0.62
19.256951093673706,0.45,0.01,-0.35,0.57
19.257528066635132,0.12,-0.13,-0.05,0.18
19.25870394706726,-0.02,0.03,0.15,0.15
19.2602059841156,-0.16,0.12,0.3,0.36
19.26079797744751,-0.48,0.06,0.59,0.76
19.26464295387268,-0.59,0.05,0.5,0.77
19.274635076522827,-0.42,0.07,0.16,0.45
19.284661054611206,-0.11,0.05,-0.11,0.16
19.29448390007019,0.33,0.15,-0.37,0.51
19.356444120407104,0.79,0.25,-0.64,1.04
19.357038021087646,0.95,0.3,-0.86,1.31
19.357619047164917,0.8,0.31,-0.97,1.29
19.35878300666809,0.54,0.19,-0.84,1.01
19.360284090042114,0.4,0.06,-0.58,0.7
19.36086106300354,0.56,0.19,-0.61,0.84
19.364526987075806,0.77,0.24,-0.47,0.93
19.37451195716858,0.99,0.29,-0.22,1.05
19.384476900100708,1.41,0.33,-0.34,1.48
19.394356966018677,2.0,0.42,-0.49,2.1
19.45708703994751,2.58,0.64,-0.65,2.73
19.457685947418213,2.91,0.74,-0.66,3.07
19.458271026611328,3.12,1.03,-0.56,3.33
19.459803819656372,3.29,1.67,-0.65,3.74
19.460937023162842,3.32,2.46,-0.33,4.14
19.461519956588745,3.18,2.54,0.65,4.12
19.46449303627014,3.16,2.53,0.5,4.07
19.47434902191162,2.9,3.02,0.27,4.19
19.48446297645569,3.01,3.52,-0.44,4.65
19.494354963302612,3.41,3.9,-1.05,5.28
19.556906938552856,3.72,4.1,-1.33,5.69
19.557495832443237,3.9,4.27,-1.18,5.9
19.55808997154236,4.36,4.65,-0.77,6.42
19.55960488319397,5.03,5.0,-0.44,7.1
19.560730934143066,5.65,5.12,0.12,7.62
19.561310052871704,6.12,5.07,0.51,7.96
19.564275979995728,6.09,5.09,0.26,7.94
19.57422184944153,5.67,5.09,-0.09,7.62
19.584334135055542,4.8,5.06,-0.22,6.97
19.59434700012207,3.38,5.56,-0.27,6.51
19.65777087211609,2.21,6.16,-0.39,6.55
19.65836787223816,1.94,6.31,-0.95,6.66
19.659297943115234,1.69,6.82,-2.56,7.47
19.660495042800903,0.52,8.36,-4.89,9.69
19.66166400909424,1.48,8.38,-6.86,10.93
19.662243127822876,4.76,7.88,-4.99,10.47
19.66409993171692,7.58,6.33,-2.47,10.17
19.6742160320282,10.36,3.44,-1.06,10.96
19.684137105941772,10.54,0.59,-0.11,10.55
19.694144010543823,6.97,-1.33,0.7,7.13
19.75784707069397,-0.54,-2.07,0.73,2.26
19.758471965789795,-6.92,-2.06,-2.76,7.72
19.759382963180542,-4.64,0.53,-4.22,6.29
19.760550022125244,4.28,0.05,-4.19,5.98
19.761688947677612,10.31,-1.47,-2.47,10.7
19.762269020080566,11.85,-1.95,-0.13,12.01
19.763964891433716,10.59,-1.72,1.69,10.86
19.773946046829224,7.76,-2.29,3.01,8.63
19.78407883644104,4.72,-3.48,3.12,6.64
19.79389786720276,3.06,-4.35,2.24,5.77
19.859145879745483,3.2,-4.42,1.53,5.66
19.85994601249695,3.98,-4.36,1.41,6.06
19.86052703857422,4.54,-4.53,1.44,6.57
19.86170983314514,4.72,-4.36,1.46,6.58
19.862871885299683,4.63,-3.9,1.61,6.26
19.863447904586792,4.35,-3.41,1.95,5.86
19.864645957946777,3.94,-3.06,2.48,5.57
19.87391209602356,3.38,-2.58,3.04,5.22
19.883879899978638,2.76,-1.62,3.79,4.96
19.8937771320343,2.85,-0.48,4.14,5.04
19.958384037017822,3.24,0.54,3.87,5.07
19.95930504798889,2.67,1.15,2.22,3.65
19.95988392829895,0.81,1.78,-0.07,1.95
19.96104407310486,-1.71,3.51,-0.82,3.98
19.96218514442444,-3.75,4.92,-0.79,6.23
19.962764024734497,-4.62,5.21,-1.07,7.04
19.963977098464966,-5.03,5.89,-1.14,7.82
19.97377300262451,-6.63,6.69,-1.98,9.62
19.983689069747925,-8.61,6.7,-3.54,11.46
19.99364686012268,-9.63,7.3,-4.9,13.03
20.059545040130615,-8.1,12.68,-8.1,17.08
20.060373067855835,-12.31,5.51,-7.95,15.65
20.060977935791016,-20.13,1.62,-5.12,20.83
20.062171936035156,-19.36,-0.18,-3.83,19.73
20.063350915908813,-15.87,-0.34,-3.01,16.15
20.06394100189209,-13.21,-0.09,-3.42,13.64
20.065158128738403,-11.43,0.54,-2.57,11.72
20.073603868484497,-10.46,1.6,-1.0,10.62
20.083534002304077,-9.42,2.67,-1.02,9.84
20.093549966812134,-1.75,3.76,-1.09,4.28
20.160012006759644,7.38,1.58,3.85,8.47
20.160619020462036,7.23,-0.84,4.98,8.81
20.16120195388794,-1.55,0.33,1.78,2.38
20.162358045578003,-8.41,1.95,0.37,8.64
20.16350793838501,-10.11,2.87,-0.7,10.53
20.164088010787964,-8.64,1.84,-3.74,9.59
20.16527009010315,-7.84,0.82,-6.03,9.92
20.17345094680786,-4.84,4.04,-3.71,7.31
20.18325686454773,-2.81,1.11,0.38,3.04
20.193360090255737,-2.72,-2.24,1.67,3.89
20.260517835617065,-2.66,-1.86,0.92,3.37
20.261124849319458,-1.52,-0.47,0.32,1.62
20.26170802116394,-0.53,0.18,-0.38,0.67
20.262871980667114,-0.24,-0.02,-0.9,0.93
20.264024019241333,-0.59,0.01,-0.75,0.95
20.26460599899292,-0.89,0.02,-0.52,1.03
20.265785932540894,-0.81,0.01,-0.3,0.86
20.274045944213867,-0.26,0.17,-0.41,0.51
20.283162832260132,0.05,0.29,-0.66,0.72
20.293354988098145,-0.12,0.25,-0.58,0.64
20.361204862594604,-0.35,0.11,-0.64,0.73
20.361809015274048,-0.36,-0.07,-0.55,0.66
20.362390995025635,-0.2,-0.09,-0.46,0.5
20.36357593536377,-0.25,0.0,-0.42,0.48
20.36470603942871,0.06,0.08,-0.53,0.53
20.365288019180298,0.32,0.09,-0.73,0.8
20.366825819015503,0.16,0.05,-0.78,0.79
20.37315797805786,-0.12,0.04,-0.57,0.58
20.38300585746765,-0.28,-0.02,0.06,0.28
20.393072843551636,-0.43,0.07,0.09,0.44
20.461482048034668,-0.51,-0.09,-0.08,0.52
20.46207904815674,-0.63,-0.11,-0.15,0.65
20.462659120559692,-0.68,-0.02,-0.3,0.74
20.463835954666138,-0.52,-0.04,-0.41,0.66
20.46498703956604,-0.38,-0.01,-0.45,0.58
20.465564966201782,-0.34,0.08,-0.41,0.53
20.467117071151733,-0.32,0.01,-0.36,0.48
20.473079919815063,-0.38,0.04,-0.29,0.47
20.483078002929688,-0.33,0.04,-0.16,0.36
20.49291491508484,-0.19,-0.05,-0.13,0.23
20.561764001846313,-0.02,-0.07,0.02,0.07
20.56236696243286,0.01,-0.05,0.08,0.09
20.562978982925415,-0.04,-0.04,-0.12,0.13
20.564141035079956,0.03,-0.02,-0.27,0.27
20.565294981002808,0.13,0.1,-0.39,0.42
20.565874814987183,0.28,0.19,-0.49,0.59
20.567502975463867,0.42,0.24,-0.51,0.7
20.57293391227722,0.48,0.33,-0.49,0.76
20.583192110061646,0.59,0.24,-0.3,0.7
20.59269094467163,0.89,0.23,-0.16,0.93
20.661872148513794,1.32,0.27,-0.12,1.35
20.66248393058777,1.51,0.34,-0.16,1.55
20.663084030151367,1.5,0.45,-0.26,1.58
20.66425895690918,1.49,0.63,-0.24,1.63
20.665425062179565,1.73,0.75,-0.28,1.9
20.666011095046997,2.46,0.96,-0.33,2.66
20.66796612739563,3.13,1.13,-0.64,3.38
20.672735929489136,3.1,1.72,-0.94,3.66
20.68273615837097,3.41,2.93,-0.65,4.54
20.692721128463745,3.26,2.91,0.24,4.37
20.762197017669678,3.12,2.47,-0.01,3.97
20.762794017791748,3.14,2.59,-0.01,4.07
20.76334500312805,3.21,2.53,-0.09,4.08
20.764564037322998,3.54,2.74,-0.38,4.49
20.765730142593384,4.0,3.2,-0.58,5.15
20.766720056533813,4.38,3.59,-0.5,5.68
20.768268823623657,4.58,4.0,-0.27,6.08
20.7725670337677,4.93,4.54,-0.01,6.7
20.782546043395996,5.61,5.16,-0.01,7.62
20.79262614250183,6.34,5.59,0.09,8.45
20.863334894180298,6.67,5.46,0.18,8.62
20.863934993743896,6.38,5.14,-0.07,8.19
20.864521026611328,5.53,4.99,-0.45,7.46
20.865694046020508,4.1,5.01,-0.96,6.54
20.867597818374634,2.65,5.75,-1.03,6.41
20.86820101737976,1.68,6.83,-0.24,7.03
20.8694109916687,1.63,7.48,-1.01,7.72
20.872464895248413,2.12,7.61,-3.44,8.61
20.88241410255432,1.77,8.11,-5.64,10.03
20.89246916770935,2.51,8.31,-6.11,10.61
20.963207960128784,4.68,7.72,-3.39,9.64
20.96381402015686,6.83,5.79,-1.66,9.1
20.964395999908447,9.34,2.77,-0.79,9.77
20.96554398536682,8.5,-0.66,-0.22,8.52
20.967374086380005,2.25,-2.06,0.69,3.12
20.967977046966553,-4.19,-3.51,-2.23,5.9
20.969210863113403,-4.81,-1.01,-4.8,6.86
20.97233510017395,2.2,0.16,-3.78,4.37
20.982301950454712,8.43,-1.17,-2.33,8.82
20.992236852645874,10.58,-1.82,-0.64,10.75
21.063913106918335,9.88,-1.68,0.82,10.05
21.064523935317993,8.15,-2.13,1.97,8.65
21.065109968185425,6.04,-3.12,2.55,7.26
21.06627893447876,4.71,-3.93,2.3,6.55
21.06811785697937,4.46,-4.18,1.93,6.41
21.068716049194336,4.6,-4.04,1.64,6.33
21.069931030273438,4.4,-3.9,1.4,6.04
21.07208800315857,4.22,-3.62,1.06,5.66
21.082209825515747,4.27,-3.2,0.87,5.4
21.092159032821655,4.41,-2.86,0.9,5.33
21.16422200202942,4.4,-2.58,1.27,5.25
21.16482400894165,4.07,-2.29,1.93,5.05
21.16540002822876,3.52,-1.74,2.75,4.79
21.167256116867065,2.65,-0.78,3.41,4.38
21.16842007637024,1.84,0.16,3.34,3.81
21.169023990631104,1.22,0.35,2.17,2.51
21.170222997665405,0.4,0.5,0.32,0.71
21.17199683189392,-1.35,1.39,-1.31,2.33
21.18197512626648,-3.63,2.44,-1.95,4.78
21.192013025283813,-5.64,3.05,-2.25,6.79
21.2651150226593,-6.77,3.28,-2.51,7.93
21.26571488380432,-6.91,3.55,-2.58,8.18
21.26629400253296,-6.74,3.8,-3.31,8.41
21.268133878707886,-7.2,3.98,-4.4,9.32
21.269291162490845,-9.14,4.23,-4.59,11.06
21.26987910270691,-11.73,4.08,-4.39,13.17
21.271086931228638,-13.45,3.81,-4.43,14.66
21.27229905128479,-11.71,8.74,-5.04,15.45
21.28188681602478,-10.89,3.09,-4.59,12.21
21.291911840438843,-13.57,-1.92,-2.9,14.0
21.365619897842407,-12.11,-1.78,-0.99,12.28
21.366259813308716,-10.82,-0.27,-0.54,10.83
21.367529153823853,-9.42,1.45,-0.4,9.53
21.368695974349976,-9.06,2.84,0.35,9.5
21.369856119155884,-6.4,4.41,-1.38,7.89
21.370460033416748,1.83,3.53,1.45,4.23
21.371665000915527,5.66,3.09,5.61,8.54
21.372848987579346,-1.05,5.69,4.81,7.52
21.381757974624634,-10.1,4.79,2.54,11.46
21.39160704612732,-11.58,0.8,-0.2,11.6
21.466068029403687,-8.2,-1.79,-4.04,9.31
21.46735692024231,-6.1,-0.02,-3.7,7.13
21.467982053756714,-4.28,2.71,-1.4,5.25
21.469154119491577,-3.47,-0.11,-0.41,3.49
21.4703049659729,-3.15,-1.53,-0.65,3.56
21.470904111862183,-2.7,-0.6,-1.46,3.12
21.47211194038391,-1.77,0.33,-1.61,2.41
21.473286867141724,-0.78,0.19,-1.06,1.32
21.48160481452942,0.12,-0.05,-0.53,0.54
21.49144697189331,0.8,0.17,-0.81,1.15
21.566981077194214,1.24,0.11,-1.05,1.62
21.567795038223267,1.22,-0.02,-0.72,1.41
21.5683810710907,0.79,0.07,-0.49,0.93
21.569566011428833,0.37,0.13,-0.11,0.4
21.57071805000305,0.21,0.04,0.09,0.23
21.571316957473755,-0.13,-0.07,-0.37,0.39
21.572492837905884,-0.71,-0.06,-0.97,1.2
21.573665857315063,-1.09,0.03,-1.07,1.52
21.581455945968628,-1.03,-0.02,-0.69,1.23
21.591458082199097,-0.81,-0.07,-0.14,0.82
21.667389154434204,-0.61,0.03,0.05,0.61
21.668235063552856,-0.57,-0.02,0.04,0.57
21.66882586479187,-0.48,-0.06,-0.02,0.48
21.66999316215515,-0.4,-0.05,-0.03,0.4
21.671164989471436,-0.39,0.01,-0.17,0.42
21.671756982803345,-0.61,-0.03,-0.2,0.64
21.672969102859497,-0.92,-0.1,-0.12,0.93
21.674160957336426,-1.11,-0.08,-0.07,1.11
21.68141484260559,-0.91,-0.01,-0.18,0.92
21.691343069076538,-0.59,-0.06,-0.49,0.76
21.767584085464478,-0.34,0.02,-0.62,0.7
21.768190145492554,-0.22,0.06,-0.54,0.58
21.768802881240845,-0.14,0.07,-0.32,0.35
21.770103931427002,-0.07,0.12,-0.03,0.14
21.771342992782593,0.08,0.0,-0.08,0.11
21.77193284034729,0.07,-0.07,-0.18,0.2
21.773159980773926,0.09,-0.02,0.04,0.1
21.77441096305847,0.29,0.01,0.14,0.32
21.781233072280884,0.57,0.02,0.13,0.58
21.791176080703735,0.89,0.02,0.09,0.89
21.86829900741577,1.15,0.01,-0.15,1.15
21.86891484260559,1.29,0.14,-0.31,1.33
21.869513034820557,1.38,0.3,-0.26,1.43
21.870738983154297,1.72,0.3,-0.34,1.77
21.871860027313232,2.05,0.34,-0.53,2.14
21.872441053390503,2.44,0.41,-0.56,2.53
21.873615980148315,2.94,0.41,-0.43,2.99
21.87475895881653,3.08,0.47,-0.35,3.13
21.881006956100464,3.09,0.76,-0.11,3.18
21.891021966934204,3.1,0.92,-0.02,3.23
21.967957973480225,3.32,0.98,-0.14,3.46
21.968575954437256,3.86,1.08,-0.55,4.04
21.96917414665222,4.37,1.21,-1.39,4.74
21.970378160476685,4.78,1.34,-1.63,5.22
21.971549034118652,4.16,2.11,-1.14,4.8
21.97213101387024,2.87,4.56,-1.31,5.54
21.97332215309143,2.95,5.47,-1.12,6.31
21.974497079849243,2.51,4.92,0.36,5.53
21.980937957763672,2.26,4.86,1.06,5.46
21.990931034088135,2.81,4.92,0.69,5.7
22.068428993225098,3.48,4.9,0.9,6.07
22.069061040878296,4.1,5.07,0.46,6.53
22.06965398788452,4.67,4.89,0.11,6.76
22.07087206840515,5.26,4.64,-0.04,7.01
22.07203507423401,5.28,4.35,-0.61,6.86
22.072614908218384,4.93,4.49,-1.09,6.75
22.073825120925903,4.18,5.46,-1.21,6.98
22.075008153915405,3.49,7.1,-1.82,8.11
22.080811977386475,3.26,8.2,-2.56,9.18
22.090773820877075,3.22,7.32,-2.62,8.41
22.16907286643982,2.62,6.27,-2.73,7.32
22.169683933258057,1.08,7.23,-3.07,7.92
22.170264959335327,0.86,7.47,-4.65,8.84
22.17144203186035,3.27,6.06,-3.47,7.71
22.172614812850952,5.91,4.99,-1.59,7.89
22.173195123672485,8.73,2.46,-1.07,9.13
22.17438793182373,9.48,-1.3,-0.59,9.58
22.175917863845825,3.18,-2.72,1.1,4.32
22.180516004562378,-4.07,-4.23,-1.09,5.97
22.190512895584106,-3.34,-1.25,-4.17,5.48
22.267761945724487,4.63,-0.51,-3.53,5.84
22.27021288871765,9.51,-1.77,-1.02,9.72
22.27080202102661,11.01,-1.75,0.83,11.17
22.272035837173462,10.15,-2.02,1.94,10.52
22.273228883743286,7.79,-3.32,2.4,8.8
22.273805856704712,5.6,-4.88,2.66,7.88
22.275079011917114,4.63,-4.88,2.63,7.22
22.276564836502075,4.34,-3.99,1.86,6.18
22.280436992645264,4.0,-3.32,0.92,5.27
22.290470838546753,3.57,-2.85,0.19,4.57
22.30046582221985,3.11,-2.73,-0.06,4.13
22.370519876480103,2.86,-2.65,0.15,3.9
22.371105909347534,2.84,-2.38,0.72,3.77
22.37229609489441,2.73,-2.17,1.74,3.89
22.37348198890686,2.4,-1.78,2.85,4.12
22.374063968658447,1.59,-0.99,3.77,4.2
22.37561011314392,0.9,-0.03,3.82,3.92
22.376774072647095,0.26,0.24,2.14,2.16
22.380380868911743,-0.61,0.37,-0.48,0.85
22.3903329372406,-1.83,1.23,-2.14,3.07
22.400336980819702,-3.34,1.98,-2.18,4.45
22.47028398513794,-4.17,2.45,-1.73,5.13
22.47087788581848,-4.4,3.01,-1.24,5.47
22.472092866897583,-4.76,3.57,-0.9,6.01
22.473273992538452,-5.86,3.55,-1.39,6.99
22.473855018615723,-7.46,3.11,-2.56,8.47
22.475409030914307,-9.34,2.89,-3.59,10.41
22.47659397125244,-11.25,3.03,-3.96,12.3
22.480243921279907,-11.88,2.93,-3.94,12.85
22.49024987220764,-10.68,1.69,-3.19,11.27
22.50014090538025,-9.46,0.5,-1.97,9.67
22.570658922195435,-7.66,4.23,-1.64,8.9
22.57129693031311,-6.32,2.48,-2.18,7.13
22.57254910469055,-9.11,-1.01,-1.82,9.34
22.573730945587158,-9.76,-0.6,-0.59,9.79
22.574320077896118,-9.74,0.24,0.14,9.74
22.57587695121765,-9.28,1.75,0.88,9.48
22.57703399658203,-8.64,3.46,-0.02,9.3
22.580043077468872,-2.63,3.7,-1.07,4.66
22.59005093574524,5.09,0.76,1.95,5.5
22.600064039230347,5.89,-0.26,3.66,6.93
22.67097306251526,-0.59,3.4,2.79,4.43
22.671601057052612,-7.49,4.09,1.17,8.61
22.67289900779724,-10.4,0.8,-0.7,10.45
22.674122095108032,-10.91,-1.12,-2.57,11.26
22.67503595352173,-7.87,2.36,-1.95,8.44
22.67629313468933,-5.0,0.92,0.85,5.15
22.677482843399048,-2.66,-2.48,1.46,3.91
22.679919958114624,-1.55,-2.03,0.91,2.71
22.689901113510132,-1.02,-0.31,-0.63,1.23
22.6998610496521,-0.76,0.82,-2.02,2.3
22.772011041641235,-0.6,0.58,-1.82,2.0
22.772660970687866,-0.41,0.08,-0.42,0.59
22.773950815200806,-0.04,0.11,-0.59,0.6
22.775470972061157,0.22,0.27,-1.04,1.09
22.776041984558105,0.48,0.24,-1.04,1.17
22.777245044708252,0.64,0.12,-0.94,1.14
22.778454065322876,0.17,0.29,-0.61,0.69
22.779754877090454,-0.51,0.34,-0.61,0.86
22.789822816848755,-1.06,0.07,-1.07,1.5
22.79987406730652,-1.39,-0.19,-1.02,1.73
22.872697114944458,-1.53,-0.31,-0.57,1.66
22.873346090316772,-1.51,-0.31,-0.07,1.54
22.874912977218628,-1.21,-0.2,-0.05,1.22
22.876068830490112,-0.91,0.06,-0.17,0.92
22.876667976379395,-0.96,0.07,-0.1,0.96
22.877865076065063,-1.26,-0.13,-0.34,1.31
22.87904381752014,-1.28,-0.25,-0.32,1.34
22.87966299057007,-1.03,-0.33,-0.37,1.14
22.956711053848267,-0.98,-0.1,-0.43,1.07
22.957319974899292,-0.71,0.11,-0.51,0.88
22.957908868789673,-0.47,0.07,-0.52,0.7
22.958494901657104,-0.4,0.03,-0.59,0.71
22.959699869155884,-0.31,0.08,-0.68,0.75
22.960814952850342,-0.27,0.08,-0.5,0.57
22.96139097213745,-0.29,0.13,-0.13,0.34
22.962587118148804,-0.2,0.14,0.14,0.28
22.969570875167847,-0.04,0.07,0.37,0.37
22.979506015777588,0.13,-0.01,0.58,0.59
23.055186986923218,0.38,-0.07,0.63,0.73
23.055999040603638,0.8,-0.06,0.5,0.94
23.05658984184265,1.47,-0.02,-0.02,1.47
23.05717396736145,1.89,0.06,-0.76,2.03
23.0583598613739,1.85,0.16,-1.0,2.1
23.05951189994812,1.67,0.22,-0.75,1.84
23.060081005096436,1.47,0.22,-0.61,1.6
23.06123995780945,1.53,0.16,-0.32,1.57
23.069350957870483,1.71,0.2,-0.33,1.75
23.079394102096558,1.92,0.29,-0.44,1.99
23.155910968780518,2.11,0.5,-0.42,2.2
23.156518936157227,1.85,0.83,-0.3,2.04
23.157108068466187,1.63,0.96,-0.23,1.9
23.157696962356567,1.69,1.1,-0.19,2.02
23.158919095993042,1.73,1.07,-0.14,2.03
23.160075902938843,1.78,1.25,-0.86,2.33
23.160657167434692,2.82,2.25,-0.9,3.71
23.161849975585938,3.33,2.72,0.43,4.32
23.169209003448486,3.56,2.49,-0.01,4.34
23.179193019866943,3.79,2.95,0.11,4.8
23.25584602355957,3.94,3.15,-0.04,5.04
23.256498098373413,3.5,3.44,-0.33,4.91
23.257139921188354,3.1,3.77,-0.72,4.93
23.257750988006592,3.26,4.08,-0.84,5.28
23.258907079696655,3.66,4.45,-0.87,5.82
23.260038137435913,4.6,5.26,-1.11,7.07
23.26061987876892,5.59,5.72,-1.01,8.06
23.261796951293945,5.96,5.42,-0.85,8.1
23.26905608177185,5.69,5.01,-0.62,7.6
23.2791588306427,5.0,4.71,-0.72,6.9
23.35650086402893,4.23,4.64,-0.96,6.35
23.357176065444946,3.3,5.35,-0.91,6.35
23.357810974121094,2.55,6.88,-1.91,7.58
23.358458042144775,1.89,7.63,-2.18,8.15
23.35976815223694,1.28,7.46,-1.38,7.69
23.3610520362854,0.24,7.78,-2.32,8.12
23.36172103881836,-0.72,8.57,-5.1,9.99
23.363023042678833,0.72,7.69,-6.33,9.98
23.3687961101532,4.13,6.26,-3.77,8.39
23.378968954086304,8.56,4.75,-2.03,9.99
23.45633101463318,10.01,1.49,-0.56,10.13
23.45699906349182,7.24,-2.47,0.22,7.65
23.45762801170349,0.3,-3.35,0.9,3.48
23.45820903778076,-5.03,-3.83,-2.33,6.73
23.459388971328735,-3.81,-1.7,-4.15,5.88
23.460556983947754,3.29,-1.24,-4.04,5.35
23.461146116256714,9.27,-2.9,-2.98,10.15
23.462372064590454,11.69,-3.92,-1.46,12.41
23.468771934509277,11.68,-3.75,0.06,12.26
23.478852033615112,10.53,-3.78,1.34,11.26
23.55652093887329,8.53,-4.32,2.03,9.77
23.55712389945984,6.89,-4.89,1.95,8.67
23.557708978652954,5.87,-4.79,1.43,7.71
23.558314085006714,5.34,-4.27,0.68,6.87
23.5595281124115,4.88,-3.94,0.07,6.27
23.560691118240356,4.49,-3.72,-0.43,5.84
23.561277151107788,4.05,-3.34,-0.77,5.3
23.5624840259552,3.69,-2.84,-0.81,4.72
23.568734884262085,3.04,-2.25,-0.65,3.83
23.57869601249695,2.02,-1.43,-0.36,2.5
23.655863046646118,1.03,-0.36,0.18,1.1
23.65646481513977,0.16,1.0,1.03,1.44
23.65704607963562,-0.54,1.99,1.77,2.71
23.657627820968628,-0.9,2.51,1.37,2.99
23.65882396697998,-0.53,2.39,-0.48,2.49
23.65997290611267,-0.51,3.05,-2.71,4.11
23.660552978515625,-1.97,3.8,-3.7,5.65
23.661736965179443,-4.11,4.29,-3.24,6.76
23.668792009353638,-5.79,4.0,-2.58,7.49
23.678581953048706,-6.81,3.03,-1.89,7.68
23.756181001663208,-7.41,2.24,-1.31,7.85
23.75680184364319,-7.87,1.93,-1.44,8.23
23.757385969161987,-8.65,2.25,-2.27,9.22
23.757967948913574,-9.76,2.83,-3.37,10.7
23.75928497314453,-10.67,2.87,-3.88,11.71
23.760483980178833,-11.21,2.34,-3.27,11.9
23.761068105697632,-11.23,1.3,-2.34,11.54
23.76230216026306,-10.78,0.16,-1.59,10.89
23.768319845199585,-10.08,-0.93,-1.18,10.19
23.77845311164856,-9.22,-0.35,-0.93,9.27
23.85631799697876,-7.02,3.77,-1.36,8.08
23.857045888900757,-5.99,1.74,-1.12,6.33
23.85767388343811,-6.73,-0.43,0.15,6.74
23.858340978622437,-6.26,-0.05,1.72,6.49
23.859706163406372,-4.55,2.77,1.18,5.45
23.860981941223145,2.96,5.34,1.73,6.34
23.861557960510254,8.3,3.07,6.28,10.85
23.862794160842896,4.02,-0.46,3.28,5.2
23.86823296546936,-3.2,1.01,0.19,3.36
23.878294944763184,-8.99,1.83,0.87,9.21
23.95593810081482,-11.13,3.79,-0.89,11.79
23.956544160842896,-10.81,6.01,-2.64,12.64
23.95713496208191,-7.32,2.46,-3.06,8.3
23.95771288871765,-5.44,0.53,-3.72,6.61
23.958906888961792,-4.04,2.04,-1.71,4.83
23.96007990837097,-3.41,-0.2,0.17,3.42
23.96065902709961,-3.32,-1.03,0.21,3.48
23.961857080459595,-2.84,-0.55,-0.42,2.92
23.96817398071289,-1.39,-0.22,-0.19,1.42
23.97841191291809,-0.31,0.05,0.46,0.55
24.056254148483276,0.29,-0.14,0.45,0.55
24.056841135025024,0.48,-0.22,0.28,0.59
24.057427167892456,0.4,-0.23,0.09,0.47
24.058025121688843,0.1,-0.03,-0.19,0.21
24.05923104286194,-0.34,0.28,-0.39,0.58
24.06039786338806,-0.73,0.43,-0.54,1.0
24.060980081558228,-0.85,0.27,-0.83,1.21
24.06221294403076,-0.73,0.1,-1.14,1.35
24.067981004714966,-0.4,0.07,-1.37,1.42
24.077922105789185,0.13,0.1,-1.58,1.58
24.156044006347656,0.47,0.16,-1.4,1.48
24.15663981437683,0.47,0.03,-0.88,0.99
24.157199144363403,0.3,-0.19,-0.44,0.56
24.1578049659729,-0.38,-0.4,-0.41,0.68
24.158990144729614,-1.0,-0.19,-0.8,1.29
24.160146951675415,-1.07,0.13,-1.02,1.48
24.160735845565796,-0.59,0.02,-0.41,0.71
24.16193699836731,-0.23,-0.2,0.05,0.3
24.167870044708252,-0.08,-0.08,0.08,0.13
24.17788290977478,-0.03,0.0,0.24,0.24
24.256269931793213,0.01,0.01,0.2,0.2
24.256866931915283,0.04,0.05,-0.13,0.14
24.257473945617676,0.17,0.08,-0.5,0.53
24.258053064346313,0.26,-0.02,-0.54,0.59
24.259240865707397,0.31,-0.12,-0.19,0.38
24.260401964187622,0.31,-0.19,0.14,0.38
24.260914087295532,0.31,-0.12,0.24,0.41
24.262115955352783,0.34,-0.02,0.27,0.43
24.267756938934326,0.47,-0.01,0.1,0.48
24.277663946151733,0.58,0.05,-0.09,0.58
24.355729818344116,0.77,0.14,-0.16,0.79
24.35631799697876,1.01,0.18,-0.1,1.03
24.356894969940186,1.35,0.17,-0.08,1.36
24.35750102996826,1.63,0.09,-0.35,1.66
24.358726978302002,1.59,0.06,-0.68,1.73
24.359923124313354,1.3,0.16,-0.5,1.4
24.36050295829773,1.14,0.26,-0.25,1.19
24.361727952957153,1.26,0.28,0.01,1.29
24.367547035217285,1.84,0.3,0.17,1.87
24.377620935440063,2.73,0.27,-0.06,2.74
24.45612096786499,3.43,0.3,-0.16,3.44
24.456720113754272,4.15,0.24,0.14,4.15
24.457321882247925,4.95,0.62,-0.77,5.04
24.457921028137207,5.14,0.94,-1.21,5.36
24.459102869033813,4.78,1.22,-1.12,5.05
24.460262060165405,4.48,1.53,-1.57,4.98
24.460859060287476,4.02,1.69,-1.04,4.48
24.46207904815674,2.3,1.95,-0.59,3.07
24.46745800971985,1.03,4.0,0.19,4.13
24.477482080459595,2.24,5.69,-0.19,6.11
24.55667281150818,3.04,5.05,0.79,5.94
24.557245016098022,3.04,5.05,1.15,6.0
24.557783842086792,2.85,5.68,0.72,6.39
24.55835509300232,3.1,6.24,0.35,6.97
24.559525966644287,3.49,6.38,-0.1,7.27
24.560671091079712,4.16,6.29,-0.57,7.56
24.561248064041138,5.64,6.52,-0.76,8.65
24.56280493736267,7.42,7.03,-1.81,10.38
24.56726908683777,7.98,7.99,-3.6,11.85
24.577250003814697,6.46,8.82,-3.95,11.62
24.65911602973938,4.19,10.74,-3.55,12.06
24.65971803665161,2.43,10.96,-3.57,11.78
24.660311937332153,1.72,8.03,-3.91,9.09
24.660900831222534,-0.8,6.36,-3.93,7.51
24.662412881851196,-1.65,5.39,-5.61,7.95
24.663602113723755,1.34,4.04,-4.16,5.95
24.664186000823975,6.31,2.85,-1.71,7.13
24.665393114089966,10.99,-1.42,-1.21,11.14
24.6671040058136,6.58,-4.57,1.13,8.09
24.67714285850525,-2.38,-7.2,-0.27,7.58
24.75781798362732,-5.46,-5.94,-3.82,8.92
24.75841212272644,-0.09,-2.28,-3.12,3.86
24.759000062942505,7.64,-3.1,-2.01,8.48
24.759587049484253,10.83,-4.31,-0.78,11.68
24.760818004608154,10.8,-4.03,0.72,11.54
24.762317895889282,10.01,-3.6,1.69,10.77
24.76290202140808,7.89,-4.45,2.23,9.32
24.76412606239319,5.89,-5.2,2.33,8.19
24.767035007476807,4.46,-4.99,2.03,6.99
24.777020931243896,3.81,-4.19,1.31,5.81
24.8580219745636,3.18,-3.72,0.42,4.91
24.858623027801514,2.36,-3.46,-0.26,4.19
24.85921311378479,1.68,-3.13,-0.45,3.58
24.859794855117798,1.41,-2.7,0.05,3.04
24.860978841781616,1.36,-2.31,0.81,2.8
24.862607955932617,1.05,-2.12,1.31,2.7
24.86331009864807,0.34,-2.02,1.34,2.44
24.86471700668335,-0.39,-2.0,1.21,2.36
24.86692214012146,-0.68,-1.79,1.32,2.32
24.876909017562866,-0.59,-1.18,1.52,2.01
24.957672834396362,-0.01,-0.54,1.98,2.05
24.958268880844116,1.14,0.16,1.95,2.26
24.95885682106018,1.41,1.39,0.9,2.17
24.95944094657898,0.07,2.67,-0.23,2.68
24.960641145706177,-2.16,4.05,-1.3,4.77
24.962119817733765,-4.99,5.26,-2.41,7.64
24.96269702911377,-7.6,5.4,-3.33,9.89
24.963917016983032,-9.01,4.54,-3.23,10.59
24.966695070266724,-9.41,3.8,-2.68,10.49
24.976748943328857,-9.28,3.3,-2.7,10.21
25.057976961135864,-9.52,3.36,-3.42,10.65
25.058573007583618,-10.36,3.37,-4.18,11.66
25.05916714668274,-10.7,2.82,-3.72,11.67
25.059746026992798,-9.92,2.22,-2.11,10.38
25.060921907424927,-8.1,5.73,-1.31,10.0
25.062423944473267,-7.22,2.13,-1.51,7.67
25.063002824783325,-9.52,-1.26,-1.44,9.71
25.06423783302307,-8.44,-1.01,0.0,8.5
25.06665802001953,-7.41,-0.42,1.44,7.56
25.076607942581177,-4.77,1.52,2.11,5.43
25.158178091049194,-2.13,3.97,2.3,5.05
25.158776998519897,4.06,4.44,2.49,6.51
25.159361124038696,9.61,0.76,4.97,10.84
25.159932851791382,5.36,-1.54,3.25,6.45
25.16110897064209,-2.87,0.99,-0.66,3.1
25.162587881088257,-7.49,4.41,-1.97,8.91
25.163170099258423,-8.07,3.62,-2.76,9.26
25.16437602043152,-10.11,-0.26,-5.24,11.39
25.16644787788391,-8.51,3.33,-3.79,9.89
25.17645812034607,-5.93,3.75,0.24,7.02
25.257918119430542,-4.57,-1.61,1.26,5.0
25.258527040481567,-4.04,-2.93,0.15,4.99
25.259124994277954,-3.41,-1.29,-0.25,3.65
25.25971484184265,-2.5,0.17,-0.39,2.53
25.26091194152832,-2.21,0.55,-0.53,2.33
25.26241707801819,-1.53,0.15,0.06,1.53
25.26300883293152,-0.14,0.09,0.64,0.66
25.264230012893677,0.95,0.06,0.46,1.05
25.266355991363525,1.26,-0.2,-0.22,1.29
25.276296854019165,0.93,-0.33,-0.56,1.13
25.35878014564514,0.48,-0.17,-0.91,1.04
25.359400033950806,0.15,0.28,-1.23,1.27
25.360015153884888,-0.38,0.46,-1.34,1.46
25.360638856887817,-0.81,0.34,-1.65,1.86
25.362174034118652,-0.99,0.15,-1.82,2.07
25.363352060317993,-0.95,0.05,-1.58,1.84
25.36395287513733,-0.69,0.04,-1.21,1.39
25.365185022354126,-0.22,-0.03,-0.54,0.58
25.36642599105835,0.06,0.01,0.03,0.06
25.376177072525024,-0.17,0.01,0.1,0.19
25.386205911636353,-0.43,-0.12,0.13,0.46
25.45847201347351,-0.59,-0.16,0.18,0.63
25.45905303955078,-0.81,-0.17,0.18,0.84
25.459602117538452,-1.0,-0.02,0.16,1.01
25.460810899734497,-1.15,-0.02,0.1,1.15
25.462257146835327,-1.08,-0.05,-0.08,1.08
25.46283984184265,-0.9,0.07,-0.4,0.98
25.464038133621216,-0.63,0.22,-0.82,1.05
25.46598982810974,-0.2,0.18,-1.01,1.04
25.476072072982788,0.21,0.01,-0.63,0.66
25.48600196838379,0.49,-0.14,0.0,0.5
25.55699896812439,0.5,-0.09,0.45,0.67
25.55761408805847,0.56,-0.04,0.42,0.7
25.558223962783813,0.71,-0.19,0.28,0.78
25.559415102005005,0.87,-0.21,0.36,0.96
25.560590982437134,0.96,-0.1,0.51,1.09
25.561506986618042,0.78,0.02,0.21,0.8
25.562721014022827,0.5,0.19,-0.17,0.56
25.565848112106323,0.55,0.29,-0.28,0.68
25.57594895362854,0.78,0.17,-0.24,0.83
25.585882902145386,1.0,0.14,-0.14,1.01
25.65687108039856,1.13,0.26,-0.34,1.2
25.65749192237854,1.21,0.34,-0.28,1.28
25.658075094223022,1.14,0.41,-0.14,1.21
25.659247159957886,0.96,0.44,-0.18,1.07
25.660416841506958,1.21,0.31,-0.31,1.28
25.66133713722229,1.62,0.17,-0.53,1.71
25.662575006484985,2.48,0.2,-0.5,2.53
25.66576886177063,3.56,0.4,-0.57,3.62
25.675755977630615,4.29,0.68,-1.21,4.5
25.685709953308105,4.56,0.86,-1.13,4.77
25.756641149520874,4.26,1.21,-1.03,4.54
25.757234811782837,3.76,1.49,-1.27,4.23
25.757816076278687,3.24,1.44,-0.87,3.65
25.759027004241943,2.69,1.59,0.0,3.12
25.7602059841156,2.06,2.52,0.56,3.3
25.761101007461548,2.45,3.51,-0.13,4.28
25.762314081192017,2.24,3.72,-0.06,4.34
25.765601873397827,2.28,3.78,0.43,4.43
25.775580167770386,3.0,3.7,0.43,4.78
25.785542964935303,3.28,3.7,0.08,4.94
25.85762906074524,3.7,4.12,0.13,5.53
25.85826086997986,4.31,4.65,-0.33,6.34
25.858862161636353,5.22,5.03,-0.54,7.26
25.860114812850952,5.67,5.0,-0.48,7.57
25.861642122268677,5.51,4.53,-0.73,7.17
25.862267017364502,5.11,4.3,-0.65,6.71
25.863512992858887,4.49,4.43,-0.34,6.31
25.86549210548401,3.87,5.35,-0.56,6.62
25.87557816505432,4.1,6.85,-1.39,8.1
25.88546895980835,5.05,7.76,-2.57,9.6
25.957507848739624,5.22,7.24,-2.81,9.35
25.958112955093384,4.67,7.14,-2.94,9.02
25.95871090888977,2.47,8.65,-3.94,9.82
25.95994782447815,0.35,8.09,-5.62,9.85
25.961424112319946,1.94,6.95,-3.91,8.2
25.961994886398315,5.43,5.84,-1.94,8.2
25.963191032409668,7.54,2.69,-1.11,8.08
25.965306997299194,6.26,-2.4,-1.03,6.78
25.975276947021484,1.13,-3.58,-0.41,3.77
25.98532795906067,-5.84,-4.41,-2.62,7.77
26.058228969573975,-5.36,-0.98,-4.68,7.18
26.05882501602173,3.37,0.0,-3.41,4.79
26.059406042099,9.45,-1.38,-0.8,9.58
26.060914993286133,10.35,-2.3,0.84,10.63
26.06206488609314,9.19,-2.99,1.39,9.76
26.062641859054565,7.35,-3.89,1.57,8.46
26.063838005065918,5.92,-4.29,1.6,7.48
26.06510090827942,5.26,-4.21,1.31,6.86
26.07507300376892,4.87,-4.26,1.08,6.55
26.085100889205933,4.26,-4.31,1.01,6.14
26.158188104629517,3.63,-4.21,0.87,5.62
26.158803939819336,3.13,-4.17,0.92,5.29
26.159405946731567,3.06,-4.24,1.19,5.36
26.160916090011597,3.36,-4.05,1.66,5.51
26.162076950073242,3.71,-3.5,2.34,5.61
26.16265606880188,3.74,-2.64,2.83,5.38
26.16386103630066,3.54,-1.7,3.3,5.12
26.16504406929016,3.34,-0.66,3.99,5.24
26.175060033798218,3.06,0.02,4.43,5.38
26.185039043426514,2.52,0.03,3.37,4.2
26.258063077926636,1.22,0.85,0.92,1.74
26.258672952651978,-0.91,2.19,-1.09,2.61
26.25927710533142,-3.1,3.69,-2.23,5.31
26.260828018188477,-4.76,5.11,-3.04,7.61
26.26200294494629,-6.07,6.23,-3.08,9.22
26.262585878372192,-7.83,6.91,-3.48,11.0
26.263806104660034,-10.4,6.61,-4.51,13.12
26.265004873275757,-12.82,5.51,-5.39,14.95
26.274796962738037,-14.67,4.15,-6.14,16.43
26.284762144088745,-15.33,3.02,-5.97,16.72
26.36059594154358,-13.09,2.13,-5.1,14.2
26.361409902572632,-10.75,0.92,-3.64,11.38
26.36200499534607,-9.68,-0.39,-2.13,9.91
26.36323094367981,-8.43,2.75,-1.09,8.93
26.364418029785156,-8.23,2.25,-1.65,8.69
26.365010976791382,-8.83,-1.35,-2.54,9.28
26.366235971450806,-6.69,-2.06,-0.46,7.01
26.367462873458862,-3.31,-0.2,1.82,3.78
26.3746600151062,-0.92,3.05,1.56,3.54
26.384709119796753,6.24,4.63,2.81,8.26
26.465075969696045,8.94,1.84,6.06,10.95
26.46567702293396,2.6,-0.59,0.79,2.78
26.46626305580139,-5.57,1.71,-2.07,6.18
26.46747088432312,-10.2,3.82,-0.45,10.9
26.46866798400879,-11.05,5.16,-0.5,12.2
26.46928596496582,-8.78,4.24,-1.25,9.82
26.47127890586853,-5.51,0.28,-2.84,6.2
26.472560167312622,-4.99,0.87,-2.52,5.65
26.474602937698364,-4.85,1.27,-0.84,5.08
26.484562158584595,-5.2,-1.03,-0.68,5.34
26.560981035232544,-5.02,-1.38,-0.94,5.29
26.561594009399414,-3.69,-0.66,-1.3,3.96
26.562187910079956,-1.68,0.14,-0.83,1.87
26.563410997390747,-0.31,0.25,-0.18,0.43
26.564586877822876,0.26,0.02,-0.01,0.26
26.565176963806152,0.28,0.05,-0.07,0.29
26.566383123397827,0.2,0.2,-0.15,0.32
26.567572832107544,0.13,0.27,-0.24,0.38
26.574394941329956,0.12,0.09,-0.2,0.25
26.58435297012329,0.2,-0.05,-0.38,0.43
26.662452936172485,0.09,0.0,-0.88,0.88
26.663063049316406,-0.02,-0.02,-1.2,1.2
26.663665056228638,0.02,0.02,-1.23,1.23
26.664904832839966,0.16,0.0,-1.17,1.18
26.66608500480652,0.14,-0.07,-1.01,1.02
26.66666603088379,-0.07,-0.09,-0.72,0.72
26.667876958847046,-0.23,0.02,-0.53,0.57
26.669065952301025,-0.4,-0.04,-0.36,0.53
26.67424702644348,-0.41,-0.14,-0.25,0.5
26.684426069259644,-0.31,-0.15,-0.06,0.34
26.76149582862854,-0.43,-0.05,0.29,0.52
26.76208806037903,-0.45,0.11,0.2,0.5
26.762667894363403,-0.33,0.07,-0.14,0.36
26.76385498046875,-0.3,0.05,-0.62,0.69
26.765017986297607,-0.31,-0.03,-1.1,1.14
26.76559615135193,-0.39,-0.1,-0.99,1.06
26.766801118850708,-0.33,-0.07,-0.69,0.76
26.767988920211792,-0.14,-0.05,-0.66,0.67
26.774204969406128,0.25,-0.03,-0.81,0.84
26.784276008605957,0.62,-0.07,-0.49,0.79
26.861629962921143,0.75,-0.07,-0.2,0.77
26.86218810081482,0.76,-0.02,0.02,0.76
26.86274790763855,0.67,-0.02,0.39,0.77
26.86392903327942,0.49,0.01,0.4,0.63
26.865097999572754,0.33,-0.02,0.25,0.41
26.86567497253418,0.25,0.08,0.19,0.32
26.866874933242798,0.3,0.12,0.13,0.34
26.868048906326294,0.48,0.13,0.11,0.5
26.874042987823486,0.59,0.25,-0.26,0.69
26.88406801223755,0.5,0.39,-0.8,1.02
26.96173882484436,0.39,0.26,-0.38,0.6
26.962332010269165,0.55,0.1,0.09,0.56
26.962910890579224,0.69,0.06,-0.05,0.69
26.964103937149048,0.41,0.09,-0.13,0.43
26.96525502204895,0.27,0.16,0.14,0.34
26.965831995010376,0.79,0.27,0.1,0.84
26.96702003479004,1.25,0.26,-0.22,1.29
26.96819281578064,1.81,0.29,-0.53,1.9
26.97400999069214,2.49,0.24,-0.45,2.54
26.983949899673462,2.94,0.21,-0.35,2.96
27.06225085258484,3.27,0.34,-0.29,3.3
27.062854051589966,3.4,0.81,-0.51,3.53
27.063453912734985,3.17,1.29,-0.84,3.52
27.064645051956177,2.83,1.39,-0.64,3.21
27.065812826156616,2.49,1.61,-0.72,3.05
27.066401958465576,2.3,1.85,-0.32,2.96
27.067622900009155,2.41,2.66,-0.16,3.59
27.069175004959106,3.39,4.28,-1.36,5.62
27.073882818222046,3.07,4.44,-0.14,5.39
27.08378291130066,3.14,4.32,-0.14,5.34
27.162528038024902,3.48,4.73,0.0,5.87
27.163119077682495,3.76,4.8,-0.04,6.09
27.16372299194336,4.23,4.79,0.49,6.4
27.164906978607178,4.77,4.86,0.03,6.8
27.16605496406555,5.82,5.2,-0.18,7.8
27.166642904281616,6.39,5.24,-0.11,8.26
27.16783308982849,5.93,4.96,-0.63,7.75
27.169351816177368,5.18,4.99,-0.49,7.2
27.17368483543396,4.17,5.18,-0.63,6.67
27.1836359500885,3.14,5.91,-0.77,6.73
27.2625470161438,2.52,7.05,-1.33,7.6
27.26320195198059,3.21,7.09,-2.24,8.09
27.263836145401,3.67,6.19,-2.53,7.62
27.265025854110718,1.38,6.96,-1.72,7.3
27.26616096496582,-1.07,8.54,-3.23,9.19
27.266742944717407,0.45,7.59,-4.95,9.07
27.26791787147522,4.13,6.24,-3.46,8.24
27.269399881362915,8.38,4.32,-2.16,9.67
27.27361297607422,10.7,0.69,-1.0,10.76
27.283562898635864,7.35,-1.82,-0.04,7.57
27.361701011657715,-1.26,-2.77,-0.77,3.13
27.362335920333862,-5.9,-2.14,-4.39,7.65
27.362921953201294,-2.12,0.67,-5.01,5.48
27.364125967025757,5.96,-0.41,-4.16,7.27
27.36528182029724,10.42,-1.99,-2.41,10.87
27.3658709526062,11.29,-2.57,-0.64,11.59
27.367085933685303,9.85,-2.73,1.07,10.27
27.368616819381714,7.42,-3.17,2.26,8.37
27.37338399887085,5.16,-3.9,2.31,6.86
27.38337016105652,4.03,-4.39,1.46,6.13
27.462391138076782,4.06,-4.4,0.73,6.03
27.463075876235962,4.27,-4.16,0.49,5.98
27.463702917099,4.05,-4.09,0.48,5.77
27.46489405632019,3.66,-3.92,0.32,5.37
27.466038942337036,3.52,-3.7,0.32,5.11
27.46658205986023,3.65,-3.36,0.75,5.01
27.467792987823486,3.53,-2.98,1.29,4.79
27.46930503845215,3.07,-2.5,1.8,4.34
27.473323106765747,2.71,-1.86,2.41,4.07
27.48322606086731,2.32,-1.36,2.95,3.99
27.561498880386353,1.86,-0.72,2.68,3.34
27.562092065811157,1.68,-0.47,1.4,2.23
27.56272006034851,1.16,0.2,-0.39,1.24
27.563894033432007,-0.71,1.66,-1.83,2.57
27.565042972564697,-3.51,2.97,-2.5,5.23
27.5656259059906,-5.85,3.83,-2.91,7.57
27.56681513786316,-7.21,4.85,-3.09,9.22
27.568339109420776,-8.19,5.77,-3.21,10.52
27.573189973831177,-9.32,5.7,-3.64,11.51
27.58312702178955,-10.03,4.89,-4.02,11.86
27.663700819015503,-10.73,4.29,-4.38,12.35
27.664310932159424,-11.81,4.23,-4.68,13.38
27.66490602493286,-12.41,3.43,-4.58,13.66
27.666139841079712,-11.94,1.31,-3.74,12.58
27.66736602783203,-10.99,0.02,-2.57,11.28
27.66833806037903,-9.91,4.8,-2.2,11.22
27.66960096359253,-9.38,3.36,-2.48,10.26
27.67084813117981,-10.82,-1.23,-2.66,11.2
27.672990083694458,-10.34,-2.03,-0.68,10.55
27.682986974716187,-9.02,-0.39,1.14,9.1
27.7642879486084,-5.48,3.61,0.92,6.62
27.764940977096558,3.64,5.89,1.79,7.15
27.76553511619568,10.03,2.9,6.54,12.32
27.766751050949097,5.18,0.51,5.6,7.64
27.768283128738403,-4.35,3.38,1.56,5.72
27.768882989883423,-10.31,3.98,0.05,11.05
27.77020812034607,-11.04,1.26,-2.09,11.3
27.771955966949463,-10.1,-0.47,-5.34,11.43
27.77272391319275,-7.39,3.46,-3.57,8.9
27.7828528881073,-3.85,3.26,-0.12,5.04
27.864290952682495,-2.39,-1.92,1.01,3.22
27.864943027496338,-2.92,-2.35,-0.26,3.75
27.86553406715393,-3.07,-0.7,-1.61,3.53
27.866765022277832,-1.86,0.06,-1.41,2.33
27.868293046951294,-0.42,0.04,-0.51,0.66
27.86888289451599,0.46,-0.02,-0.17,0.49
27.870182991027832,0.54,0.16,-0.06,0.56
27.87191104888916,0.27,0.24,-0.16,0.39
27.872618913650513,-0.02,0.11,-0.36,0.37
27.882656812667847,-0.06,0.09,-0.4,0.41
27.96480703353882,0.0,0.09,-0.24,0.25
27.965381860733032,-0.07,0.11,-0.12,0.17
27.965973138809204,-0.19,0.13,-0.37,0.43
27.967195987701416,-0.21,0.1,-0.8,0.83
27.96866011619568,-0.16,0.1,-1.12,1.13
27.96920895576477,0.1,0.04,-1.33,1.33
27.97054409980774,0.21,-0.01,-0.97,0.99
27.97225594520569,0.09,-0.03,-0.49,0.49
27.972942113876343,-0.12,-0.04,-0.16,0.2
27.9825599193573,-0.27,-0.09,0.01,0.28
28.064356088638306,-0.47,-0.14,-0.13,0.5
28.06496000289917,-0.74,-0.14,-0.26,0.79
28.06553602218628,-0.95,-0.09,-0.27,0.99
28.066785097122192,-1.27,-0.1,-0.21,1.29
28.068377017974854,-1.46,-0.09,-0.21,1.47
28.068989992141724,-1.36,-0.12,-0.33,1.4
28.070328950881958,-1.04,-0.07,-0.37,1.1
28.072070837020874,-0.62,-0.08,-0.31,0.69
28.072715997695923,-0.4,-0.05,-0.36,0.54
28.082231044769287,-0.23,0.05,-0.45,0.5
28.161760091781616,-0.09,0.08,-0.33,0.35
28.162374019622803,-0.1,0.09,-0.14,0.19
28.162971019744873,-0.18,0.07,-0.06,0.2
28.1641628742218,-0.12,0.04,0.08,0.14
28.165326833724976,0.35,0.07,0.23,0.42
28.165902853012085,0.8,0.05,0.0,0.8
28.167435884475708,0.94,0.02,-0.14,0.95
28.168620824813843,1.01,0.12,-0.04,1.01
28.172291040420532,1.18,0.24,0.07,1.2
28.18219304084778,1.34,0.34,0.01,1.38
28.262001037597656,1.38,0.45,0.02,1.45
28.262633085250854,1.58,0.37,0.08,1.62
28.26321291923523,1.88,0.22,0.02,1.89
28.26438593864441,1.96,0.24,0.01,1.97
28.265517950057983,1.88,0.56,-0.48,2.01
28.266095876693726,1.63,0.76,-0.43,1.84
28.26760196685791,1.57,0.82,-0.36,1.8
28.268759965896606,1.86,0.82,-0.39,2.06
28.27221393585205,2.26,0.79,-0.43,2.43
28.282148122787476,2.69,0.84,-0.4,2.84
28.36260485649109,3.06,1.26,-0.48,3.34
28.363224983215332,3.34,1.97,-0.15,3.88
28.363837957382202,4.0,2.72,-0.5,4.86
28.365008115768433,3.87,3.36,-0.34,5.13
28.36617112159729,3.1,3.23,0.08,4.47
28.36707091331482,3.21,3.21,0.33,4.55
28.368283987045288,3.13,3.06,0.05,4.37
28.369480848312378,3.17,3.04,-0.12,4.39
28.37231707572937,3.21,3.12,0.01,4.47
28.381913900375366,3.37,3.1,-0.26,4.58
28.464208841323853,3.82,3.5,-0.34,5.19
28.46481204032898,4.79,4.37,-0.33,6.49
28.465399980545044,5.39,4.85,-0.67,7.28
28.466949939727783,5.58,4.91,-0.85,7.48
28.46811604499817,5.27,4.71,-0.45,7.08
28.468734979629517,4.44,4.37,-0.5,6.24
28.469987154006958,3.48,5.19,-0.53,6.27
28.47121787071228,2.79,6.72,-1.06,7.35
28.471848964691162,3.07,7.81,-2.31,8.7
28.481920957565308,4.11,7.07,-3.17,8.77
28.564373016357422,3.43,6.69,-2.2,7.83
28.56503701210022,-0.36,8.01,-1.8,8.21
28.565685033798218,-2.04,8.02,-4.91,9.62
28.56727385520935,1.13,6.41,-4.97,8.18
28.568480968475342,5.45,5.36,-2.91,8.17
28.569073915481567,8.82,3.4,-1.78,9.61
28.57030987739563,10.03,-0.15,-0.66,10.05
28.571648836135864,6.15,-2.8,0.11,6.75
28.572657823562622,-1.69,-3.15,0.13,3.57
28.581751108169556,-6.15,-2.42,-3.03,7.27
28.665786027908325,-3.22,0.22,-4.08,5.2
28.666780948638916,5.0,-0.56,-3.86,6.34
28.6673800945282,9.92,-2.2,-2.19,10.39
28.668594121932983,10.81,-2.79,-0.31,11.16
28.6697781085968,9.87,-2.69,1.42,10.32
28.67037796974182,7.97,-3.01,2.81,8.97
28.671674013137817,6.04,-3.61,3.07,7.67
28.673426866531372,5.12,-4.24,2.67,7.16
28.674075841903687,4.89,-4.26,2.21,6.85
28.681575059890747,4.54,-4.02,1.73,6.3
28.76649785041809,3.94,-3.87,1.3,5.67
28.767405033111572,3.44,-3.74,0.86,5.15
28.768023014068604,3.22,-3.5,0.58,4.79
28.769266843795776,3.32,-3.28,0.7,4.71
28.77050805091858,3.23,-2.92,1.15,4.5
28.771137952804565,2.98,-2.36,1.84,4.22
28.7728168964386,2.42,-1.67,2.72,4.0
28.77406597137451,1.66,-0.99,3.56,4.05
28.77468514442444,1.07,-0.39,3.78,3.94
28.781491994857788,1.09,-0.05,2.86,3.06
28.866120100021362,0.93,0.79,0.99,1.57
28.867079973220825,-0.55,2.22,-0.9,2.45
28.867689847946167,-2.81,3.76,-1.83,5.03
28.86897110939026,-4.7,5.29,-2.11,7.38
28.87020516395569,-5.97,6.64,-2.07,9.16
28.870814085006714,-7.06,7.29,-2.2,10.38
28.87209391593933,-8.12,6.87,-2.55,10.93
28.87379002571106,-9.1,5.93,-2.91,11.24
28.87442898750305,-10.2,5.19,-3.65,12.01
28.88124108314514,-11.18,4.65,-4.28,12.84
28.967111825942993,-11.44,3.8,-4.01,12.7
28.967982053756714,-11.06,1.64,-2.72,11.5
28.96864104270935,-10.65,-0.43,-1.52,10.76
28.969910860061646,-10.48,-1.81,-1.14,10.69
28.971105813980103,-10.28,-1.79,-1.33,10.51
28.971694946289062,-8.47,3.53,-2.0,9.39
28.973320960998535,-8.04,3.45,-2.9,9.21
28.97455096244812,-8.37,0.1,-2.3,8.68
28.975178003311157,-5.27,0.87,-1.41,5.52
28.981169939041138,3.59,3.58,0.43,5.08
29.066385984420776,10.67,2.01,7.81,13.37
29.067268133163452,6.57,-0.52,5.54,8.6
29.067911863327026,-2.35,0.51,0.17,2.41
29.069205045700073,-8.33,1.0,-0.18,8.39
29.070446014404297,-9.01,2.0,0.1,9.22
29.071079969406128,-8.47,5.88,-1.58,10.43
29.07271981239319,-6.28,6.37,-2.68,9.33
29.073967933654785,-4.47,3.43,-2.31,6.08
29.074607133865356,-4.94,-0.53,-2.97,5.78
29.081058979034424,-3.38,0.37,-1.53,3.72
29.16613507270813,-3.13,-0.46,-0.26,3.17
29.16700005531311,-3.27,-1.74,-0.73,3.77
29.167654037475586,-2.88,-1.25,-1.48,3.47
29.168962001800537,-1.62,-0.29,-1.33,2.11
29.170182943344116,-0.63,0.09,-1.1,1.27
29.17077088356018,-0.11,-0.03,-1.05,1.05
29.17198395729065,0.14,-0.02,-1.09,1.09
29.17358088493347,0.19,0.22,-0.99,1.03
29.174170970916748,0.05,0.39,-0.54,0.66
29.18082594871521,-0.26,0.38,-0.06,0.46
29.266654014587402,-0.66,0.19,0.24,0.72
29.267518997192383,-0.93,-0.05,0.33,0.98
29.26816201210022,-1.0,-0.18,0.16,1.02
29.26945185661316,-0.85,-0.11,-0.22,0.88
29.27061104774475,-0.64,0.1,-0.59,0.87
29.271196126937866,-0.54,0.23,-0.82,1.0
29.272770166397095,-0.44,0.14,-0.85,0.96
29.273977994918823,-0.45,-0.07,-0.67,0.81
29.274587869644165,-0.34,-0.11,-0.5,0.61
29.280686140060425,-0.35,-0.12,-0.45,0.58
29.366801023483276,-0.58,-0.12,-0.49,0.76
29.367588996887207,-0.76,-0.02,-0.6,0.96
29.36818289756775,-0.76,0.03,-0.7,1.03
29.369356870651245,-0.66,0.03,-0.6,0.89
29.370622873306274,-0.55,0.02,-0.22,0.59
29.37127709388733,-0.32,-0.04,-0.01,0.32
29.37304401397705,-0.07,0.0,-0.02,0.07
29.37437891960144,0.26,-0.01,-0.1,0.27
29.375027894973755,0.41,-0.03,-0.13,0.43
29.38065791130066,0.49,-0.01,-0.12,0.5
29.466640949249268,0.37,-0.05,0.15,0.4
29.467457056045532,0.27,0.02,0.34,0.43
29.468066930770874,0.25,0.05,0.13,0.28
29.469353914260864,0.22,-0.02,0.27,0.34
29.470630884170532,0.31,0.03,0.15,0.34
29.471268892288208,0.47,0.04,-0.22,0.52
29.473038911819458,0.66,0.12,-0.28,0.72
29.47431206703186,0.89,0.11,-0.26,0.93
29.474913835525513,1.1,0.06,-0.13,1.1
29.48053812980652,1.29,0.05,0.05,1.29
29.566487073898315,1.57,0.19,0.04,1.58
29.567331075668335,1.67,0.19,-0.2,1.69
29.56793713569641,1.38,0.22,-0.36,1.44
29.569242000579834,1.23,0.49,-0.43,1.39
29.570435047149658,1.59,0.57,-0.5,1.76
29.5710289478302,1.92,0.61,-0.57,2.09
29.57225012779236,2.37,0.66,-0.22,2.47
29.573843955993652,2.66,0.83,-1.07,2.98
29.574448823928833,2.26,0.77,-1.15,2.65
29.580379009246826,2.07,0.59,-0.7,2.26
29.666817903518677,2.46,0.64,-0.91,2.69
29.667443990707397,2.85,0.88,-0.99,3.14
29.668041944503784,2.85,1.15,-0.78,3.17
29.669209957122803,2.85,1.86,-0.32,3.41
29.67041516304016,2.69,2.97,0.64,4.05
29.671056985855103,2.83,4.18,-0.15,5.05
29.672383069992065,3.35,4.22,-0.42,5.4
29.674125909805298,2.76,3.79,0.61,4.72
29.674787044525146,2.84,3.61,0.35,4.6
29.68019700050354,2.78,3.39,0.34,4.39
29.766878843307495,3.26,3.44,0.44,4.75
29.767532110214233,3.87,3.95,-0.2,5.53
29.76817798614502,4.63,4.66,-0.38,6.58
29.769502878189087,5.51,5.16,-0.8,7.59
29.770704984664917,5.57,5.32,-0.94,7.75
29.77129292488098,5.12,5.28,-0.87,7.4
29.772491931915283,4.3,5.34,-1.28,6.97
29.774090051651,3.5,6.03,-1.47,7.12
29.77468991279602,3.75,7.25,-2.08,8.42
29.78006601333618,5.38,8.14,-4.07,10.57
29.865927934646606,6.97,7.71,-5.22,11.63
29.86674404144287,5.42,8.4,-4.01,10.77
29.867335081100464,0.87,10.63,-2.85,11.03
29.868579149246216,-0.49,8.5,-5.41,10.08
29.8697988986969,2.53,5.34,-4.74,7.57
29.87040686607361,7.05,4.55,-2.68,8.8
29.87174105644226,9.95,2.75,-1.37,10.41
29.873474836349487,8.55,-1.41,-0.54,8.68
29.874145030975342,-0.5,-3.09,0.6,3.18
29.879932165145874,-7.3,-4.39,-2.36,8.83
29.964777946472168,-6.04,-1.81,-4.22,7.58
29.965657949447632,2.9,-0.86,-3.94,4.96
29.966251134872437,8.92,-3.08,-2.5,9.76
29.96742081642151,10.92,-4.05,-0.61,11.66
29.968560934066772,10.64,-3.86,1.39,11.4
29.969148874282837,8.52,-3.92,2.93,9.82
29.97035813331604,5.64,-4.95,3.1,8.11
29.97153401374817,4.29,-6.14,2.53,7.9
29.972118139266968,4.72,-6.34,2.25,8.21
29.97978711128235,5.64,-5.58,1.89,8.15
30.06411600112915,5.66,-4.65,1.46,7.46
30.06506085395813,4.93,-3.93,1.23,6.42
30.06564497947693,4.04,-3.67,1.04,5.55
30.066827058792114,3.37,-3.56,1.15,5.03
30.06798481941223,2.86,-3.31,1.53,4.63
30.068578004837036,2.37,-2.72,1.9,4.07
30.069791078567505,1.99,-1.99,2.52,3.77
30.070966958999634,1.33,-1.01,3.1,3.52
30.071531057357788,0.4,0.43,3.1,3.15
30.079671144485474,-0.01,1.68,2.21,2.77
30.08963394165039,0.08,2.01,0.55,2.08
30.16519808769226,-1.02,2.65,-1.53,3.22
30.165820837020874,-3.46,3.52,-3.33,5.95
30.167006969451904,-6.28,4.44,-3.72,8.54
