time,ax,ay,az,atotal
0.004503965377807617,0.02,0.02,-0.53,0.53
0.014531135559082031,0.38,-0.09,-0.21,0.44
0.024312973022460938,0.29,-0.03,0.12,0.31
0.03438901901245117,0.12,-0.05,0.13,0.18
0.04419517517089844,-0.05,-0.05,0.12,0.13
0.056745052337646484,-0.22,0.03,-0.01,0.22
0.08148193359375,-0.26,0.05,-0.18,0.32
0.08318805694580078,-0.07,0.03,-0.11,0.13
0.08459997177124023,0.07,0.01,0.01,0.07
0.10247611999511719,0.05,0.01,-0.04,0.06
0.10387706756591797,-0.04,0.03,-0.07,0.08
0.11953401565551758,-0.02,0.02,-0.03,0.04
0.1235051155090332,0.16,0.0,-0.01,0.16
0.1372671127319336,0.26,-0.01,0.06,0.26
0.14675092697143555,0.25,-0.04,0.11,0.27
0.15594816207885742,0.19,-0.06,0.08,0.21
0.1809079647064209,0.07,-0.03,0.0,0.07
0.18268585205078125,-0.04,0.06,0.01,0.07
0.1839160919189453,0.0,0.06,0.09,0.1
0.20357203483581543,0.12,-0.02,-0.01,0.12
0.2050490379333496,0.08,-0.05,-0.18,0.2
0.2198469638824463,-0.03,-0.03,-0.21,0.21
0.2227950096130371,0.0,0.02,-0.1,0.1
0.23711895942687988,0.19,-0.02,0.08,0.2
0.24567794799804688,0.25,-0.08,0.12,0.28
0.2524290084838867,0.13,-0.08,0.09,0.17
0.2801361083984375,-0.04,0.01,0.02,0.04
0.2819490432739258,-0.12,0.0,0.02,0.12
0.2832670211791992,-0.11,0.03,0.04,0.12
0.2922999858856201,-0.06,0.01,0.05,0.07
0.30234599113464355,-0.02,-0.03,0.03,0.04
0.3119959831237793,0.0,-0.03,-0.05,0.05
0.32212305068969727,0.02,0.01,-0.09,0.09
0.3325691223144531,0.03,0.04,-0.06,0.07
0.3443620204925537,-0.02,0.04,-0.07,0.08
0.35427093505859375,-0.05,0.04,-0.09,0.11
0.3620171546936035,0.02,0.04,-0.15,0.15
0.38140010833740234,-0.05,-0.04,0.0,0.06
0.38307714462280273,-0.13,-0.02,-0.03,0.13
0.3915729522705078,-0.09,-0.01,-0.11,0.14
0.4041609764099121,-0.02,0.01,-0.1,0.1
0.41150617599487305,0.06,0.0,-0.06,0.08
0.42120790481567383,0.07,0.02,-0.03,0.07
0.4311351776123047,0.0,0.03,-0.07,0.07
0.4437408447265625,-0.1,0.01,-0.07,0.12
0.4508800506591797,-0.1,0.03,-0.05,0.11
0.46390295028686523,-0.04,0.03,-0.02,0.05
0.4856429100036621,0.01,0.02,0.03,0.03
0.4872469902038574,0.04,0.01,0.09,0.09
0.49069690704345703,0.12,-0.02,0.08,0.14
0.5047640800476074,0.18,-0.04,0.02,0.18
0.5105290412902832,0.17,-0.03,-0.02,0.17
0.5205020904541016,0.14,-0.02,-0.03,0.14
0.5303549766540527,0.11,-0.02,-0.04,0.11
0.5407180786132812,0.07,0.0,0.0,0.07
0.5528931617736816,0.05,0.01,0.05,0.07
0.562669038772583,0.04,0.0,0.05,0.06
0.5827829837799072,-0.08,0.02,0.02,0.08
0.5843849182128906,-0.21,0.04,-0.03,0.21
0.5901150703430176,-0.26,0.06,-0.09,0.28
0.6043679714202881,-0.13,0.07,-0.06,0.15
0.609760046005249,0.04,0.01,-0.01,0.04
0.619563102722168,0.02,-0.02,-0.04,0.04
0.6296391487121582,-0.06,0.0,-0.11,0.12
0.6398930549621582,-0.06,0.02,-0.16,0.17
0.6519660949707031,-0.03,0.02,-0.14,0.14
0.6615099906921387,-0.03,0.01,-0.09,0.09
0.6823611259460449,-0.04,0.01,-0.03,0.05
0.6839041709899902,-0.03,0.01,0.06,0.06
0.6893620491027832,0.01,0.03,0.1,0.1
0.7042210102081299,0.04,0.05,0.1,0.11
0.7090940475463867,0.09,0.01,0.12,0.15
0.7196309566497803,0.12,-0.05,0.12,0.17
0.7290480136871338,0.06,-0.03,0.01,0.06
0.741602897644043,-0.05,0.01,-0.12,0.13
0.7518181800842285,-0.02,0.06,-0.04,0.07
0.760779857635498,0.08,0.04,0.11,0.14
0.7880501747131348,0.12,-0.05,0.12,0.17
0.7895920276641846,0.12,-0.1,0.02,0.15
0.7911629676818848,0.06,-0.06,-0.13,0.15
0.8046598434448242,-0.01,0.01,-0.14,0.14
0.8084201812744141,-0.03,0.04,-0.04,0.06
0.8180809020996094,-0.04,-0.01,0.05,0.06
0.8281850814819336,-0.09,-0.01,0.04,0.09
0.8384361267089844,-0.13,0.03,-0.01,0.13
0.8510608673095703,-0.11,0.04,0.0,0.11
0.8579411506652832,-0.09,0.04,0.03,0.1
0.8900840282440186,-0.07,0.06,0.08,0.12
0.8918471336364746,-0.03,0.07,0.08,0.11
0.8932039737701416,0.02,0.03,0.01,0.03
0.9040961265563965,0.08,-0.02,-0.04,0.09
0.9075360298156738,0.15,-0.05,-0.09,0.18
0.9195570945739746,0.15,-0.07,-0.1,0.19
0.9277081489562988,0.15,-0.09,-0.17,0.24
0.9397468566894531,0.15,-0.04,-0.21,0.26
0.9477369785308838,0.13,0.0,-0.13,0.18
0.9599571228027344,0.12,-0.01,-0.03,0.12
0.9845008850097656,0.1,-0.03,0.04,0.11
0.9861559867858887,0.04,0.0,0.14,0.14
0.9878368377685547,-0.02,-0.01,0.22,0.22
1.0049090385437012,-0.06,-0.04,0.16,0.17
1.006653070449829,-0.03,-0.02,0.07,0.07
1.0197780132293701,0.05,-0.02,0.08,0.09
1.0269041061401367,0.08,-0.02,0.08,0.11
1.0364980697631836,-0.01,0.0,0.02,0.02
1.049787998199463,-0.21,0.04,-0.07,0.22
1.0568199157714844,-0.46,0.14,-0.17,0.51
1.0877270698547363,-0.45,0.17,-0.07,0.48
1.0896391868591309,-0.18,0.06,0.12,0.22
1.0910999774932861,-0.02,0.02,0.09,0.09
1.1042871475219727,0.02,-0.04,-0.08,0.09
1.106065034866333,0.05,-0.03,-0.17,0.17
1.1198570728302002,0.07,0.02,-0.21,0.22
1.1260099411010742,0.04,0.01,-0.22,0.22
1.136061191558838,0.02,0.0,-0.17,0.17
1.146456003189087,0.06,-0.04,-0.09,0.11
1.1582660675048828,0.05,-0.04,-0.05,0.08
1.1662850379943848,-0.03,-0.05,-0.02,0.06
1.1915760040283203,0.01,0.01,0.06,0.06
1.1930041313171387,0.03,0.02,0.09,0.09
1.1953330039978027,-0.02,0.04,0.06,0.07
1.2053229808807373,-0.09,0.05,0.02,0.1
1.2153701782226562,0.01,0.02,0.12,0.12
1.2252700328826904,0.14,0.0,0.17,0.22
1.235158920288086,0.2,0.01,0.1,0.22
1.2452759742736816,0.17,-0.02,0.02,0.17
1.257416009902954,0.05,0.02,-0.01,0.05
1.2674009799957275,-0.06,0.1,0.07,0.13
1.290358066558838,-0.06,0.09,0.15,0.18
1.291822910308838,-0.01,0.03,0.15,0.15
1.294517993927002,0.03,0.04,0.08,0.09
1.3046810626983643,0.11,-0.02,-0.01,0.11
1.3147401809692383,0.06,-0.19,-0.28,0.34
1.3243660926818848,-0.07,-0.18,-0.28,0.34
1.334594964981079,0.07,-0.05,0.04,0.09
1.3450419902801514,0.29,0.02,0.11,0.31
1.3568780422210693,0.39,-0.01,0.03,0.39
1.3673858642578125,0.42,-0.03,-0.09,0.43
1.3891801834106445,0.28,0.01,-0.09,0.29
1.3907208442687988,0.0,0.07,-0.06,0.09
1.3939199447631836,-0.21,0.16,-0.11,0.28
1.404099941253662,-0.26,0.2,-0.14,0.35
1.4137768745422363,-0.11,0.06,-0.16,0.2
1.4237208366394043,0.22,-0.05,-0.33,0.39
1.4339079856872559,0.41,-0.09,-0.48,0.63
1.4442830085754395,0.39,-0.06,-0.47,0.61
1.45615816116333,0.27,0.01,-0.27,0.38
1.463824987411499,0.18,0.01,-0.05,0.18
1.4871389865875244,0.22,-0.06,0.0,0.22
1.4887299537658691,0.21,-0.01,-0.08,0.22
1.493272066116333,0.16,0.01,-0.15,0.21
1.5050568580627441,0.2,-0.05,-0.12,0.23
1.5132319927215576,0.18,-0.02,0.01,0.18
1.5228838920593262,-0.02,-0.07,0.18,0.19
1.5335800647735596,-0.27,-0.08,0.25,0.37
1.5453128814697266,-0.25,0.06,0.22,0.33
1.5530359745025635,-0.19,0.09,-0.11,0.23
1.5663139820098877,-0.18,0.04,-0.52,0.55
1.591400146484375,-0.17,0.04,-0.8,0.81
1.5929741859436035,-0.11,0.09,-1.0,1.01
1.5945959091186523,-0.05,0.25,-1.14,1.16
1.6023139953613281,-0.18,0.28,-1.17,1.21
1.6122210025787354,-0.25,0.18,-1.13,1.17
1.6220550537109375,-0.26,0.18,-1.11,1.15
1.6321611404418945,-0.3,0.19,-1.01,1.07
1.6418428421020508,-0.35,0.16,-0.81,0.89
1.6526679992675781,-0.54,0.23,-0.7,0.91
1.66532301902771,-0.66,0.27,-0.42,0.82
1.6900558471679688,-0.75,0.21,-0.19,0.8
1.691735029220581,-0.9,0.17,-0.29,0.96
1.693425178527832,-0.99,0.22,-0.28,1.05
1.7049169540405273,-0.94,0.19,-0.28,0.99
1.7115659713745117,-0.87,0.14,-0.48,1.0
1.7213289737701416,-0.74,0.21,-0.49,0.91
1.731266975402832,-0.53,0.22,-0.24,0.62
1.7414908409118652,-0.41,0.17,-0.09,0.45
1.7518410682678223,-0.43,0.38,-0.05,0.57
1.7649641036987305,-0.29,0.4,0.04,0.49
1.796633005142212,-0.14,0.31,0.09,0.35
1.7981610298156738,-0.14,0.57,0.42,0.72
1.7994670867919922,-0.08,0.54,0.91,1.06
1.8014311790466309,-0.22,0.41,1.0,1.1
1.8107929229736328,-0.32,0.82,0.96,1.3
1.8207988739013672,-0.1,0.6,0.42,0.73
1.8305301666259766,-0.2,0.76,0.19,0.8
1.8406360149383545,-0.57,1.02,0.35,1.21
1.8506321907043457,-0.66,0.91,0.44,1.2
1.8609600067138672,-0.49,0.86,0.35,1.04
1.8927819728851318,-0.49,0.87,0.09,1.0
1.894507884979248,-0.61,0.85,-0.21,1.06
1.8959810733795166,-0.7,0.77,-0.4,1.11
1.9004859924316406,-0.67,0.58,-0.42,0.98
1.910243034362793,-0.6,0.34,-0.54,0.87
1.9205560684204102,-0.52,0.1,-0.76,0.92
1.9299569129943848,-0.47,-0.11,-1.02,1.12
1.9397649765014648,-0.5,0.0,-1.33,1.42
1.9498491287231445,-0.65,0.05,-1.74,1.85
1.9600629806518555,-0.91,-0.39,-2.08,2.3
1.9726591110229492,-1.39,-0.91,-2.36,2.88
1.999263048171997,-1.91,-1.23,-2.66,3.49
2.0009069442749023,-1.99,-1.01,-2.76,3.54
2.002351999282837,-1.71,-0.76,-2.79,3.35
2.0210089683532715,-2.21,-1.29,-2.89,3.86
2.022374153137207,-3.18,-1.35,-2.89,4.5
2.037416934967041,-3.55,-1.24,-2.8,4.68
2.038902997970581,-3.42,-1.2,-2.53,4.42
2.0537571907043457,-3.36,-1.03,-2.15,4.11
2.0589029788970947,-3.52,-0.8,-1.82,4.04
2.072932004928589,-3.65,-0.68,-1.65,4.06
2.0958099365234375,-3.77,-0.48,-1.52,4.09
2.0976219177246094,-3.78,-0.32,-1.28,4.0
2.0990970134735107,-3.63,-0.21,-0.82,3.72
2.108715057373047,-3.24,-0.24,-0.32,3.26
2.118648052215576,-2.83,-0.13,-0.11,2.83
2.1284289360046387,-2.47,0.31,-0.22,2.49
2.1385560035705566,-1.98,0.79,-0.44,2.17
2.148242950439453,-1.31,0.89,-0.65,1.71
2.1581778526306152,-0.66,0.63,-0.73,1.16
2.1708931922912598,-0.46,0.51,-0.57,0.89
2.195585012435913,-0.62,0.5,-0.26,0.83
2.1972410678863525,-0.81,0.36,0.03,0.88
2.1989200115203857,-0.73,0.23,0.24,0.8
2.2078299522399902,-0.31,0.23,0.36,0.52
2.2178988456726074,0.13,0.46,0.52,0.7
2.2276968955993652,0.44,0.7,0.85,1.18
2.237699031829834,0.55,0.57,1.28,1.5
2.247400999069214,0.46,0.21,1.75,1.82
2.257539987564087,0.41,0.08,2.09,2.13
2.2679829597473145,0.57,0.25,2.2,2.28
2.2944889068603516,0.93,0.4,2.29,2.5
2.2961459159851074,1.28,0.21,2.5,2.81
2.29790997505188,1.4,-0.05,2.77,3.1
2.3071131706237793,1.4,-0.09,2.98,3.29
2.3205881118774414,1.61,-0.03,3.11,3.5
2.326918125152588,2.08,-0.08,3.2,3.81
2.337369918823242,2.83,-0.56,3.42,4.47
2.346708059310913,3.51,-1.61,3.81,5.42
2.356940984725952,3.85,-2.43,4.1,6.12
2.36954402923584,3.9,-2.79,4.05,6.27
2.398012161254883,3.8,-3.22,3.66,6.18
2.3996119499206543,4.06,-2.97,3.21,5.96
2.40106201171875,8.31,4.26,1.41,9.44
2.4215431213378906,12.18,-0.02,-1.67,12.29
2.423017978668213,14.74,0.91,-4.4,15.4
2.437379837036133,4.32,9.87,-6.13,12.39
2.4388651847839355,-9.23,12.21,-5.6,16.29
2.454604148864746,-11.1,5.51,0.21,12.39
2.456045150756836,-2.82,-3.37,4.59,6.35
2.4734811782836914,3.6,-6.03,6.17,9.34
2.4964089393615723,5.23,-3.28,5.57,8.31
2.4978079795837402,4.53,-0.13,4.5,6.38
2.498837947845459,2.71,0.36,4.3,5.09
2.5054221153259277,1.11,-1.14,3.61,3.94
2.51554012298584,0.79,-1.08,2.43,2.77
2.5254111289978027,1.23,-0.09,1.74,2.13
2.5355701446533203,1.4,0.34,1.07,1.79
2.545341968536377,1.26,0.21,0.01,1.27
2.5553221702575684,0.85,-0.09,-1.53,1.75
2.565539836883545,0.38,-0.09,-2.6,2.62
2.6012191772460938,0.05,0.1,-2.54,2.54
2.6030969619750977,0.16,-0.03,-1.93,1.93
2.6045470237731934,0.51,0.05,-1.13,1.24
2.621579170227051,0.32,0.28,-0.41,0.59
2.623046875,-0.35,0.21,-0.42,0.58
2.63861083984375,-1.09,0.09,-0.78,1.34
2.6400961875915527,-1.24,0.06,-0.62,1.38
2.654642105102539,-1.0,0.18,-0.33,1.06
2.6560699939727783,-0.84,0.25,-0.57,1.04
2.674506187438965,-0.14,0.54,-0.49,0.74
2.700892925262451,0.22,0.6,-0.11,0.64
2.7027440071105957,-0.11,0.63,-0.18,0.66
2.70369291305542,-0.17,0.44,-0.45,0.65
2.7213048934936523,0.09,0.19,-0.46,0.5
2.7228100299835205,0.08,0.24,-0.2,0.32
2.7370879650115967,-0.1,0.38,0.25,0.46
2.738537073135376,-0.2,0.52,0.4,0.68
2.754410982131958,-0.18,0.62,0.28,0.7
2.755887031555176,-0.06,0.28,0.23,0.36
2.7704520225524902,0.2,0.15,0.67,0.71
2.776059150695801,0.28,0.28,0.61,0.72
2.805026054382324,0.11,0.19,0.68,0.71
2.806656837463379,-0.09,0.1,1.16,1.16
2.808382034301758,-0.64,-0.01,0.63,0.89
2.8223018646240234,-0.92,0.02,-0.49,1.04
2.82377290725708,-0.41,0.12,-1.18,1.25
2.8359479904174805,0.5,0.0,-1.29,1.38
2.8437650203704834,0.69,-0.24,-1.28,1.47
2.8546340465545654,0.36,-0.22,-1.39,1.45
2.862931966781616,-0.08,-0.33,-1.22,1.26
2.8750669956207275,-0.73,-0.25,-1.3,1.51
2.901075839996338,-1.08,0.05,-1.52,1.86
2.9024300575256348,-0.67,0.39,-1.03,1.28
2.903468132019043,-0.42,0.43,-0.82,1.01
2.921550989151001,-0.21,0.39,-0.73,0.85
2.9229979515075684,-0.21,0.48,-0.23,0.57
2.9371299743652344,-0.51,0.46,-0.08,0.69
2.94223690032959,-0.9,0.27,-0.27,0.97
2.9543230533599854,-1.07,-0.09,-0.65,1.25
2.9620108604431152,-0.6,-0.27,-0.97,1.17
2.974635124206543,0.18,-0.27,-1.21,1.25
3.0017528533935547,0.47,-0.63,-1.61,1.79
3.003614902496338,0.3,-0.77,-1.87,2.04
3.005126953125,0.15,-0.54,-1.51,1.61
3.0219759941101074,-0.01,-0.11,-0.72,0.72
3.0234498977661133,-0.47,0.47,-0.09,0.67
3.0379910469055176,-1.47,0.97,0.47,1.82
3.0414271354675293,-2.69,1.4,0.92,3.16
3.0544419288635254,-3.14,1.85,0.94,3.76
3.0611259937286377,-2.68,2.23,0.4,3.5
3.071146011352539,-2.25,2.38,-0.21,3.28
3.100929021835327,-2.56,2.73,-1.09,3.89
3.102713108062744,-4.11,3.73,-2.98,6.29
3.104156970977783,-5.35,6.07,-3.48,8.8
3.1217100620269775,-5.74,6.03,-4.43,9.43
3.1232080459594727,-5.59,5.91,-4.86,9.47
3.1379518508911133,-5.99,6.22,-4.96,9.95
3.1405980587005615,-6.9,6.89,-4.47,10.72
3.154613971710205,-7.43,6.79,-3.77,10.74
3.1606740951538086,-7.18,6.33,-3.42,10.16
3.170926094055176,-6.48,5.76,-3.26,9.26
3.2074460983276367,-5.68,5.48,-3.57,8.66
3.2095441818237305,-5.25,7.32,-4.3,9.98
3.2107579708099365,-5.49,9.47,-4.92,12.0
3.22060489654541,-5.3,10.87,-5.45,13.26
3.221698045730591,-1.35,12.75,-2.88,13.14
3.2372679710388184,1.28,12.99,-0.15,13.05
3.2398629188537598,-0.4,9.03,-1.08,9.1
3.2549118995666504,-2.94,6.23,-3.79,7.86
3.2598018646240234,-5.36,3.63,-5.14,8.26
3.2715258598327637,-4.17,2.27,-3.76,6.05
3.302806854248047,3.1,1.75,-1.56,3.88
3.3046250343322754,4.07,-0.39,-0.83,4.17
3.305910110473633,-0.38,-0.7,-0.96,1.24
3.3212029933929443,-5.32,-0.47,-1.87,5.65
3.322711944580078,-8.16,-1.97,-1.98,8.62
3.338016986846924,-8.66,-3.73,-1.11,9.49
3.3394908905029297,-7.44,-5.02,-0.11,8.97
3.354851007461548,-6.14,-5.85,0.35,8.48
3.3590240478515625,-5.73,-6.43,0.15,8.61
3.3720569610595703,-6.09,-6.87,-0.33,9.18
3.407294988632202,-6.73,-7.15,-0.7,9.84
3.409621000289917,-7.19,-7.46,-0.83,10.39
3.411026954650879,-7.33,-7.81,-0.85,10.74
3.4237661361694336,-7.27,-8.0,-0.9,10.84
3.4253129959106445,-7.02,-8.09,-1.09,10.76
3.4363760948181152,-6.44,-8.15,-1.23,10.45
3.438354969024658,-5.94,-8.18,-1.51,10.22
3.4483699798583984,-5.51,-8.04,-1.73,9.89
3.4585039615631104,-5.07,-7.74,-1.8,9.42
3.4683730602264404,-4.7,-7.47,-2.02,9.05
3.5031471252441406,-4.13,-7.1,-2.01,8.45
3.5047500133514404,-3.28,-6.76,-1.26,7.61
3.5057668685913086,-2.65,-6.4,-0.26,6.93
3.5219130516052246,-2.39,-5.6,-0.13,6.09
3.5233089923858643,-1.94,-4.32,-1.28,4.9
3.5380091667175293,-0.89,-2.58,-1.91,3.33
3.5394859313964844,1.58,-0.46,-0.76,1.81
3.554654121398926,5.56,1.31,-0.18,5.71
3.5574698448181152,8.76,2.73,-0.39,9.18
3.569697856903076,9.67,4.62,0.54,10.73
3.577692985534668,9.12,6.37,1.97,11.29
3.6134140491485596,8.94,7.54,2.57,11.97
3.6150619983673096,9.81,7.74,2.21,12.68
3.6169049739837646,8.11,12.83,1.69,15.27
3.618997097015381,5.3,22.51,-2.36,23.24
3.6267499923706055,18.06,24.63,-2.14,30.61
3.636937141418457,32.74,25.98,8.17,42.58
3.6476550102233887,32.25,12.34,5.67,34.99
3.6568260192871094,8.83,0.15,-3.68,9.56
3.6668701171875,-9.11,1.21,-3.03,9.67
3.6764779090881348,-11.86,0.3,3.44,12.35
3.7037620544433594,-2.75,-1.67,4.88,5.84
3.705193042755127,6.69,-3.7,3.28,8.31
3.706217050552368,10.21,-2.92,4.63,11.58
3.7219860553741455,11.01,0.7,5.44,12.3
3.7262680530548096,7.76,0.96,2.86,8.32
3.736085891723633,3.66,-1.33,0.8,3.97
3.746212959289551,1.19,-0.88,-0.64,1.61
3.755944013595581,0.81,0.79,-0.29,1.16
3.7661550045013428,0.73,0.98,0.34,1.26
3.7757701873779297,0.13,0.3,0.27,0.42
3.807082176208496,-0.71,-0.03,-0.14,0.72
3.808851957321167,-1.06,0.15,-0.81,1.34
3.8099279403686523,-0.5,0.14,-1.63,1.71
3.8221168518066406,0.76,0.14,-1.69,1.85
3.8255040645599365,1.16,-0.01,-1.69,2.04
3.8378219604492188,0.43,-0.36,-1.66,1.75
3.845317840576172,-0.21,-0.38,-1.11,1.19
3.855247974395752,-0.54,-0.09,-0.34,0.64
3.8652281761169434,-0.68,0.07,-0.07,0.68
3.874974012374878,-0.45,0.22,-0.19,0.53
3.904944896697998,0.0,0.4,-0.2,0.44
3.9066710472106934,0.02,0.46,-0.01,0.46
3.907687187194824,-0.41,0.24,0.31,0.56
3.9221339225769043,-0.44,0.06,0.4,0.59
3.924889087677002,-0.22,0.07,0.2,0.3
3.938157081604004,0.03,0.19,-0.38,0.42
3.944769859313965,0.26,0.36,-0.94,1.03
3.9547119140625,-0.08,0.37,-1.37,1.42
3.9647951126098633,-0.65,0.36,-1.1,1.32
3.9745399951934814,-0.51,0.11,-0.5,0.72
4.013005018234253,-0.19,-0.18,0.03,0.26
4.0148069858551025,-0.32,-0.14,-0.18,0.39
4.016196966171265,-0.74,0.0,-0.49,0.88
4.017764091491699,-0.84,0.09,-0.49,0.97
4.023759841918945,-0.47,0.11,-0.35,0.59
4.034121036529541,-0.21,0.08,-0.58,0.62
4.0441670417785645,-0.32,-0.02,-0.77,0.83
4.054019927978516,-0.45,0.04,-0.83,0.94
4.063930988311768,-0.56,0.0,-0.85,1.01
4.073754072189331,-0.67,0.11,-0.79,1.04
4.10667085647583,-0.61,0.24,-0.41,0.77
4.107989072799683,-0.53,0.24,-0.03,0.58
4.10895299911499,-0.59,0.21,-0.24,0.67
4.121902942657471,-0.42,0.3,-0.36,0.62
4.1234290599823,-0.21,0.61,-0.14,0.66
4.1383490562438965,-0.08,0.73,-0.32,0.8
4.142999172210693,0.0,0.75,-0.51,0.9
4.15413498878479,-0.36,0.8,-0.65,1.09
4.1630859375,-0.8,0.8,-0.83,1.4
4.173487186431885,-1.03,0.87,-0.78,1.55
4.209889888763428,-1.13,0.99,-0.89,1.74
4.2117791175842285,-1.68,0.75,-1.37,2.29
4.212853908538818,-2.17,0.75,-1.79,2.91
4.219935894012451,-2.35,1.05,-2.06,3.29
4.222238063812256,-2.88,1.96,-2.99,4.59
4.2382378578186035,-3.08,2.96,-2.62,5.01
4.242398023605347,-3.12,3.59,-2.13,5.21
4.254935026168823,-4.18,3.69,-2.55,6.13
4.26228404045105,-5.17,4.3,-2.42,7.14
4.272153854370117,-6.24,6.11,-2.47,9.07
4.306891918182373,-7.35,7.06,-3.61,10.81
4.30869197845459,-7.49,7.05,-4.61,11.27
4.310155868530273,-6.93,7.69,-5.63,11.78
4.322296142578125,-6.99,8.39,-6.26,12.58
4.323800086975098,-7.11,8.32,-6.28,12.61
4.338230133056641,-6.7,6.96,-5.8,11.26
4.341562986373901,-5.92,5.05,-5.38,9.46
4.355134010314941,-4.9,5.18,-6.0,9.31
4.361427068710327,-5.12,8.01,-6.9,11.74
4.371333122253418,-5.37,12.45,-7.23,15.36
4.381649017333984,-2.3,16.38,-4.72,17.2
4.4115049839019775,1.79,15.95,-1.35,16.1
4.412746906280518,0.22,8.28,-3.11,8.84
4.413875102996826,-3.37,4.34,-6.82,8.75
4.420802116394043,-5.99,2.88,-7.95,10.36
4.430822849273682,-0.87,2.49,-4.07,4.84
4.4412150382995605,6.43,1.47,0.64,6.62
4.450953006744385,2.38,-0.36,0.02,2.4
4.460968971252441,-3.09,-0.22,-2.21,3.8
4.470655918121338,-6.1,-0.79,-3.13,6.9
4.480554103851318,-6.64,-1.75,-2.52,7.31
4.508685111999512,-5.15,-3.5,-1.37,6.37
4.509925842285156,-3.29,-5.38,-0.54,6.32
4.511092185974121,-2.39,-6.84,-0.41,7.25
4.5233259201049805,-2.75,-7.56,-0.56,8.06
4.530426025390625,-3.92,-7.5,-0.76,8.49
4.540082931518555,-5.25,-7.2,-0.81,8.94
4.550091981887817,-6.18,-7.17,-0.53,9.48
4.55985689163208,-6.68,-7.56,-0.17,10.08
4.569980144500732,-6.87,-8.06,0.12,10.59
4.583456993103027,-6.79,-8.21,0.18,10.65
4.608945846557617,-6.46,-8.12,0.16,10.37
4.610198020935059,-6.2,-7.92,0.16,10.05
4.611332893371582,-6.01,-7.93,0.06,9.95
4.623569011688232,-5.87,-7.97,-0.08,9.89
4.629526138305664,-6.0,-7.96,-0.2,9.97
4.639357089996338,-6.05,-7.91,-0.25,9.96
4.6492791175842285,-5.81,-7.79,0.0,9.71
4.65915584564209,-5.27,-7.79,0.52,9.41
4.669280052185059,-4.63,-7.75,1.21,9.1
4.679085969924927,-4.36,-7.4,1.75,8.76
4.710438966751099,-4.45,-6.64,1.73,8.17
4.712233066558838,-3.7,-5.48,1.53,6.78
4.713340997695923,-1.46,-4.33,1.39,4.77
4.719695091247559,1.41,-3.65,1.17,4.08
4.728792190551758,3.3,-2.52,0.61,4.19
4.738586902618408,3.99,-0.5,0.59,4.06
4.74843692779541,4.56,2.2,1.03,5.16
4.758416175842285,6.11,4.67,1.38,7.81
4.768557071685791,8.22,6.75,1.87,10.79
4.778450965881348,10.15,8.22,2.25,13.25
4.817427158355713,11.15,8.61,1.94,14.22
4.819241046905518,10.71,8.71,0.01,13.8
4.820512056350708,10.12,9.9,-0.5,14.16
4.836629867553711,10.33,16.95,-0.8,19.86
4.838152885437012,12.67,19.46,-7.71,24.46
4.852168083190918,20.98,12.12,-4.73,24.68
4.853664875030518,23.06,14.57,0.21,27.27
4.869081974029541,8.84,10.97,-0.46,14.09
4.870585918426514,-6.83,18.02,1.2,19.3
4.885028839111328,-5.91,13.49,6.24,15.99
4.9091620445251465,-0.29,-3.0,5.61,6.36
4.910495042800903,4.64,-7.25,6.43,10.74
4.911617040634155,7.26,-5.87,8.29,12.48
4.919934988021851,6.97,-1.48,7.53,10.36
4.927098989486694,3.86,0.46,3.93,5.52
4.938436985015869,1.51,-0.3,0.09,1.54
4.947245121002197,1.42,-0.06,-2.1,2.53
4.956945896148682,2.03,0.64,-2.86,3.56
4.967001914978027,2.7,0.56,-2.86,3.97
4.976769924163818,2.61,0.27,-2.13,3.37
5.011944055557251,1.45,0.3,-1.74,2.28
5.0136590003967285,0.19,0.34,-1.21,1.27
5.014652967453003,-0.52,0.3,-0.63,0.87
5.018240928649902,-0.54,0.08,-0.19,0.57
5.038693904876709,-0.21,-0.02,-0.26,0.33
5.040183067321777,-0.29,0.06,-0.64,0.7
5.055485010147095,-0.48,0.33,-0.67,0.88
5.056977033615112,-0.42,0.38,-0.09,0.57
5.070679187774658,-0.01,0.19,0.35,0.39
5.075923919677734,0.31,-0.01,0.23,0.38
5.11765718460083,0.25,-0.13,-0.3,0.41
5.119011878967285,0.23,0.05,-0.5,0.55
5.120018005371094,0.22,0.27,-0.43,0.55
5.139312028884888,0.3,0.33,-0.42,0.61
5.1407790184021,0.34,0.16,-0.55,0.66
5.15499210357666,0.11,-0.07,-0.88,0.88
5.156422138214111,-0.11,-0.08,-0.92,0.93
5.17153000831604,-0.32,0.02,-0.76,0.82
5.172973155975342,-0.41,0.28,-0.5,0.7
5.188228130340576,-0.7,0.31,-0.44,0.88
5.190608024597168,-1.3,0.1,-0.56,1.41
5.2346930503845215,-1.57,-0.02,-0.47,1.63
5.235866069793701,-1.06,0.15,-0.46,1.16
5.236877918243408,-0.22,0.44,-0.63,0.79
5.256047010421753,0.18,0.35,-0.79,0.88
5.257547855377197,-0.3,0.02,-0.94,0.98
5.271859169006348,-1.08,-0.42,-1.05,1.56
5.273356914520264,-1.14,-0.27,-0.95,1.5
5.288840055465698,-0.5,0.3,-0.53,0.78
5.2903220653533936,0.07,0.39,-0.66,0.76
5.30488395690918,0.04,0.28,-0.85,0.89
5.331824064254761,-0.41,0.16,-0.73,0.85
5.333255052566528,-0.78,0.02,-0.27,0.82
5.334300994873047,-0.95,0.09,0.1,0.95
5.336385011672974,-0.69,0.4,-0.05,0.79
5.337766170501709,-1.13,0.83,-0.61,1.52
5.343644142150879,-1.8,1.61,-0.48,2.46
5.353806018829346,-1.6,1.4,-0.59,2.2
5.364099025726318,-1.67,1.53,-0.6,2.34
5.3740479946136475,-1.84,1.72,-0.76,2.63
5.383772850036621,-1.99,1.54,-0.82,2.64
5.4112958908081055,-2.22,1.54,-1.08,2.9
5.412426948547363,-2.66,1.76,-1.75,3.63
5.413750171661377,-3.0,2.04,-2.36,4.32
5.423156023025513,-3.18,2.29,-2.76,4.79
5.4332451820373535,-3.53,2.59,-2.94,5.27
5.443418025970459,-4.16,3.16,-3.22,6.13
5.453495025634766,-5.38,4.74,-3.78,8.1
5.463342189788818,-6.84,6.32,-4.29,10.25
5.473155975341797,-7.84,7.43,-4.17,11.57
5.483258962631226,-9.06,9.45,-4.71,13.91
5.511281967163086,-10.12,9.55,-5.97,15.14
5.512484073638916,-10.03,8.92,-6.74,15.01
5.513733863830566,-8.83,9.03,-7.78,14.83
5.522388935089111,-6.88,8.57,-7.71,13.42
5.532329082489014,-5.13,9.24,-7.6,13.01
5.54246187210083,-4.13,12.29,-7.96,15.21
5.552689075469971,-0.71,19.53,-6.17,20.49
5.563117027282715,4.54,20.9,-3.42,21.65
5.572146892547607,1.11,11.81,-5.83,13.21
5.582396984100342,-4.83,6.52,-8.39,11.67
5.618742942810059,-6.58,4.38,-7.04,10.58
5.620059013366699,5.18,4.5,-3.38,7.64
5.6210761070251465,11.49,3.99,1.04,12.2
5.639700889587402,5.12,0.16,-0.32,5.13
5.641170978546143,-1.64,0.95,-3.05,3.59
5.655497074127197,-4.69,0.08,-3.51,5.85
5.656921863555908,-4.81,-2.5,-2.33,5.9
5.672067165374756,-3.59,-4.58,-1.03,5.9
5.67336106300354,-3.08,-6.13,-0.36,6.86
5.68838906288147,-3.54,-7.33,-0.17,8.14
5.723421096801758,-4.39,-7.85,-0.11,8.99
5.724756956100464,-5.43,-8.16,0.13,9.8
5.725788116455078,-6.33,-8.44,0.62,10.56
5.739281177520752,-7.21,-8.6,0.86,11.25
5.740661144256592,-7.85,-8.79,0.86,11.81
5.7556471824646,-8.32,-8.81,0.51,12.12
5.7571120262146,-8.09,-8.68,0.23,11.86
5.772337913513184,-7.74,-8.42,-0.18,11.43
5.773777961730957,-7.54,-8.35,-0.39,11.25
5.788014888763428,-7.41,-8.33,-0.33,11.15
5.817155838012695,-7.44,-8.28,-0.43,11.13
5.818467140197754,-7.47,-8.14,-0.51,11.05
5.819486141204834,-7.22,-7.88,-0.23,10.68
5.839310169219971,-7.3,-7.65,-0.1,10.57
5.840785980224609,-7.29,-7.49,0.24,10.45
5.855698108673096,-7.15,-7.26,0.88,10.22
5.857179164886475,-6.73,-7.15,1.62,9.95
5.872188091278076,-5.61,-7.32,1.57,9.35
5.873611927032471,-3.92,-7.27,0.84,8.3
5.8878679275512695,-2.26,-6.88,0.11,7.24
5.916571140289307,-0.52,-6.41,-0.24,6.43
5.918385982513428,1.57,-5.63,-0.21,5.84
5.919365882873535,3.68,-4.8,-0.45,6.06
5.939475059509277,5.4,-3.72,-0.91,6.62
5.940945148468018,6.52,-2.32,-1.31,7.04
5.955862045288086,6.99,-0.72,-1.16,7.12
5.957337856292725,7.59,0.9,-0.13,7.64
5.972464084625244,8.29,2.17,1.35,8.67
5.973935127258301,8.42,3.37,2.83,9.5
5.98862099647522,8.3,4.86,4.24,10.51
5.990973949432373,8.65,6.27,4.34,11.53
6.036913871765137,9.11,7.46,3.37,12.24
6.038150072097778,9.77,8.73,2.15,13.27
6.039139986038208,7.14,16.67,-1.54,18.2
6.054037094116211,12.37,23.46,-13.26,29.65
6.055110931396484,24.51,40.36,-8.51,47.98
6.072357177734375,14.01,36.55,-0.44,39.14
6.0738301277160645,-3.29,18.02,-3.44,18.63
6.088844060897827,-7.11,-2.04,0.86,7.44
6.090306997299194,-4.56,-15.21,8.53,18.02
6.104673862457275,1.28,-15.06,10.06,18.15
6.132856845855713,5.66,-3.87,7.96,10.5
6.134306907653809,6.0,2.34,4.63,7.93
6.135297060012817,3.99,2.85,0.93,4.99
6.156485080718994,2.73,0.93,-2.31,3.69
6.1579718589782715,2.87,-0.68,-2.24,3.7
6.172370910644531,3.59,0.07,-0.37,3.6
6.173838138580322,2.91,0.97,0.16,3.07
6.189287185668945,1.29,0.35,-0.17,1.34
6.190752983093262,-0.21,0.25,-0.52,0.61
6.204794883728027,-1.04,0.4,-0.51,1.22
6.232836961746216,-0.96,-0.08,-0.55,1.1
6.234151840209961,-0.32,-0.39,-0.69,0.85
6.235145092010498,0.39,-0.16,-0.98,1.06
6.256165981292725,0.63,0.12,-1.26,1.41
6.257172107696533,0.45,0.22,-1.0,1.11
6.272508144378662,0.32,0.06,-0.54,0.63
6.273982048034668,0.47,-0.15,-0.21,0.53
6.289229869842529,0.72,-0.29,-0.11,0.78
6.290690898895264,0.75,-0.29,0.0,0.8
6.304355144500732,0.56,-0.17,0.11,0.59
6.333568096160889,0.34,0.01,0.3,0.45
6.334943056106567,0.05,0.24,0.6,0.64
6.335989952087402,-0.07,0.36,0.3,0.47
6.356512069702148,0.11,0.24,-0.2,0.33
6.357983112335205,0.18,0.17,-0.67,0.71
6.372128009796143,-0.19,0.13,-0.95,0.97
6.373597145080566,-0.67,0.06,-0.85,1.08
6.389224052429199,-0.96,0.18,-0.39,1.05
6.390704154968262,-1.09,0.34,-0.15,1.15
6.404776096343994,-0.8,0.31,-0.43,0.95
6.4340128898620605,-0.23,0.44,-0.6,0.77
6.435830116271973,-0.04,0.54,-0.84,0.99
6.436854839324951,-0.24,0.45,-0.98,1.1
6.456434965133667,-0.57,0.18,-0.76,0.96
6.457947015762329,-0.94,-0.03,-0.37,1.01
6.472415924072266,-1.27,0.09,-0.03,1.27
6.473907947540283,-1.41,0.21,0.11,1.42
6.489231109619141,-1.64,0.12,-0.23,1.66
6.4906768798828125,-1.75,0.3,-0.68,1.9
6.504431962966919,-1.61,0.53,-0.89,1.91
6.534387111663818,-1.57,0.61,-1.03,1.97
6.535796165466309,-1.22,0.61,-0.88,1.62
6.536731958389282,-0.89,0.65,-0.73,1.32
6.556511878967285,-1.05,0.67,-1.21,1.73
6.557994842529297,-1.12,0.61,-1.33,1.84
6.573421955108643,-1.38,1.08,-1.11,2.07
6.574892997741699,-2.19,2.04,-1.18,3.21
6.58959698677063,-2.35,2.63,-0.61,3.57
6.591073989868164,-2.25,2.51,-0.65,3.43
6.604751110076904,-2.54,2.72,-0.89,3.82
6.63594388961792,-2.95,2.98,-1.09,4.33
6.637344837188721,-3.21,3.08,-1.52,4.7
6.638367176055908,-3.44,3.16,-2.03,5.09
6.6565470695495605,-3.82,3.22,-2.37,5.52
6.658046007156372,-4.68,3.91,-2.73,6.68
6.672791004180908,-5.74,5.35,-3.28,8.5
6.674251079559326,-6.96,7.05,-3.7,10.57
6.689488887786865,-8.48,8.69,-4.75,13.03
6.6909871101379395,-9.73,9.53,-6.21,14.96
6.705297946929932,-9.85,8.57,-7.11,14.86
6.736701965332031,-9.02,7.83,-7.67,14.19
6.738033056259155,-7.64,7.92,-7.66,13.4
6.739035129547119,-5.91,8.21,-7.26,12.45
6.754798889160156,-5.63,9.5,-7.77,13.5
6.75582218170166,-5.15,14.61,-7.2,17.08
6.772763967514038,1.19,21.33,-1.65,21.42
6.774234056472778,2.72,14.83,-1.46,15.14
6.789586067199707,-2.38,7.22,-5.83,9.58
6.791040897369385,-7.08,4.14,-8.1,11.52
6.804991960525513,-3.27,1.39,-5.92,6.9
6.806425094604492,9.25,3.57,-0.36,9.92
6.851470947265625,9.46,1.54,2.7,9.95
6.852665901184082,2.37,-0.3,-1.14,2.64
6.853677034378052,-3.24,0.01,-3.4,4.69
6.873365879058838,-6.53,-1.16,-3.33,7.42
6.87482213973999,-7.42,-2.41,-1.96,8.04
6.8895039558410645,-6.66,-3.79,-0.25,7.66
6.891025066375732,-6.01,-5.38,1.0,8.12
6.905997037887573,-5.99,-6.55,1.56,9.01
6.907413005828857,-6.03,-7.16,1.42,9.46
6.921669960021973,-5.6,-7.78,1.18,9.65
6.9544548988342285,-5.32,-8.47,1.02,10.05
6.956258058547974,-5.49,-8.79,0.9,10.4
6.957274913787842,-5.81,-8.87,0.71,10.62
6.973184108734131,-6.42,-8.72,0.32,10.83
6.974678039550781,-7.11,-8.36,0.08,10.97
6.989574909210205,-7.46,-8.08,-0.12,10.99
6.991032123565674,-7.4,-7.81,-0.15,10.76
7.006021022796631,-7.03,-7.61,-0.01,10.36
7.007469177246094,-6.27,-7.7,0.22,9.93
7.022351026535034,-5.81,-7.81,0.29,9.73
7.058750152587891,-5.44,-7.77,0.35,9.49
7.060132026672363,-5.11,-7.62,0.43,9.18
7.0611419677734375,-5.01,-7.42,0.62,8.97
7.072935104370117,-4.95,-7.01,1.32,8.68
7.074020862579346,-4.78,-6.75,2.37,8.6
7.0895209312438965,-4.5,-6.38,3.16,8.42
7.090986013412476,-3.89,-5.68,3.26,7.61
7.106235027313232,-2.67,-4.71,2.81,6.09
7.107707977294922,-0.68,-3.34,2.33,4.12
7.12148904800415,1.99,-1.93,1.84,3.32
7.150269985198975,4.3,-1.03,1.63,4.71
7.151668071746826,5.55,0.01,1.37,5.71
7.152657985687256,6.62,1.77,0.69,6.88
7.172962188720703,8.41,3.51,0.32,9.11
7.173993110656738,10.82,4.92,0.3,11.88
7.189705848693848,13.47,6.02,0.55,14.76
7.191200017929077,15.29,6.64,0.68,16.68
7.206460952758789,15.36,6.89,-0.03,16.83
7.207951068878174,13.89,7.41,-1.12,15.78
7.221590995788574,12.7,7.83,-2.15,15.07
7.2516820430755615,12.06,7.62,-2.69,14.51
7.253062963485718,6.58,13.32,-1.93,14.98
7.254117012023926,7.09,15.48,-7.15,18.46
7.27311897277832,11.32,11.96,-6.54,17.71
7.274154186248779,2.81,9.72,-2.96,10.54
7.289319038391113,-8.89,14.73,-0.4,17.2
7.290374994277954,-7.23,14.25,4.53,16.6
7.306232929229736,-0.03,2.93,7.18,7.75
7.3077168464660645,5.28,-2.05,7.7,9.55
7.321675062179565,9.44,-3.73,6.01,11.79
7.3505048751831055,8.26,-4.25,3.3,9.85
7.351920127868652,4.25,-0.71,2.99,5.24
7.35292911529541,1.68,0.48,2.27,2.86
7.373151063919067,1.25,-0.28,0.57,1.4
7.374206066131592,1.48,-0.39,-1.23,1.96
7.3893208503723145,1.81,0.37,-2.28,2.93
7.390352964401245,1.76,1.06,-3.16,3.76
7.406504154205322,1.14,0.96,-3.57,3.86
7.407942056655884,0.61,0.59,-3.23,3.33
7.421760082244873,0.52,0.52,-2.23,2.34
7.450528144836426,0.61,0.48,-1.02,1.28
7.4519829750061035,0.87,0.02,-0.18,0.88
7.452999114990234,1.09,-0.31,0.21,1.15
7.473294019699097,0.67,-0.18,0.42,0.81
7.474313974380493,-0.12,0.15,0.74,0.76
7.489248037338257,-0.8,0.38,0.99,1.32
7.4902801513671875,-1.12,0.1,0.93,1.45
7.506742000579834,-1.02,-0.33,0.46,1.16
7.508177995681763,-0.76,-0.45,-0.04,0.88
7.521975994110107,-0.27,-0.26,-0.54,0.65
7.549160003662109,0.33,0.11,-1.11,1.16
7.5505690574646,0.77,0.37,-1.51,1.73
7.551539897918701,0.81,0.24,-1.61,1.81
7.553601026535034,0.67,-0.06,-1.48,1.62
7.554864883422852,0.39,-0.19,-1.02,1.1
7.556041955947876,-0.17,-0.11,-0.55,0.58
7.557240962982178,-0.81,0.04,-0.06,0.81
7.567239046096802,-1.49,0.16,0.28,1.52
7.577224016189575,-2.11,0.09,0.15,2.11
7.587108135223389,-2.17,0.14,-0.01,2.17
7.596974849700928,-1.6,0.39,0.03,1.64
7.625275135040283,-0.76,0.36,-0.21,0.86
7.626463890075684,0.26,0.34,-0.19,0.46
7.627248048782349,0.62,0.35,-0.37,0.8
7.638321876525879,0.29,0.16,-0.57,0.65
7.6463141441345215,-0.3,0.07,-0.52,0.6
7.656145095825195,-0.95,0.21,-0.3,1.01
7.666252136230469,-1.42,0.33,-0.24,1.47
7.676133155822754,-1.74,0.66,-0.55,1.94
7.68623685836792,-1.58,0.91,-0.32,1.85
7.696308135986328,-1.48,1.02,-0.6,1.89
7.726457118988037,-1.59,0.98,-1.17,2.2
7.727662086486816,-1.54,0.85,-1.57,2.35
7.72851300239563,-1.61,0.68,-2.53,3.07
7.7404890060424805,-1.99,0.78,-2.81,3.53
7.74554705619812,-2.25,1.2,-2.14,3.32
7.755547046661377,-2.88,2.32,-2.03,4.21
7.765622138977051,-3.83,4.01,-2.07,5.91
7.77571702003479,-3.8,4.5,-1.04,5.98
7.785492897033691,-3.85,4.34,-0.64,5.83
7.79547905921936,-4.39,4.77,-0.95,6.55
7.827347040176392,-5.37,6.08,-1.5,8.24
7.82853102684021,-6.44,6.62,-2.37,9.53
7.829326152801514,-7.07,7.72,-3.15,10.93
7.840330123901367,-7.95,9.9,-4.53,13.48
7.844825983047485,-9.16,10.18,-6.13,15.0
7.856016159057617,-9.68,9.06,-6.77,14.88
7.864779949188232,-9.16,8.21,-6.9,14.1
7.874783992767334,-8.67,7.71,-7.52,13.82
7.884660005569458,-8.6,8.29,-9.29,15.13
7.894695997238159,-9.16,10.73,-11.15,17.98
7.9259419441223145,-7.18,14.31,-7.87,17.83
7.927273988723755,2.4,21.05,2.53,21.33
7.928308010101318,6.44,14.62,3.55,16.36
7.940269947052002,0.42,5.14,-3.94,6.48
7.9441351890563965,-6.11,2.09,-8.51,10.68
7.954105854034424,-3.73,-1.44,-7.75,8.72
7.96399998664856,9.02,1.14,-1.01,9.14
7.974128007888794,8.97,0.07,2.89,9.42
7.98380184173584,1.34,-0.98,-0.99,1.93
7.993911981582642,-4.26,-1.02,-2.59,5.08
8.03177785873413,-7.34,-2.18,-1.97,7.9
8.03319001197815,-8.02,-3.11,-0.55,8.61
8.034162044525146,-7.25,-4.27,0.85,8.45
8.036458969116211,-6.8,-5.52,1.38,8.86
8.043291091918945,-6.73,-6.53,1.55,9.5
8.053882122039795,-6.19,-7.13,1.38,9.54
8.063325881958008,-5.2,-7.78,1.09,9.42
8.073374032974243,-4.71,-8.27,1.11,9.58
8.08299207687378,-5.15,-8.49,1.05,9.98
8.093293190002441,-5.56,-8.54,1.16,10.25
8.131175994873047,-6.01,-8.43,0.96,10.39
8.13265085220337,-6.22,-8.25,0.77,10.36
8.133593082427979,-6.25,-8.05,0.53,10.2
8.135792016983032,-5.98,-7.81,0.41,9.84
8.156446933746338,-5.91,-7.49,0.15,9.54
8.157504081726074,-5.81,-7.25,0.11,9.29
8.172574043273926,-5.56,-7.17,0.09,9.07
8.173645973205566,-5.07,-7.15,-0.06,8.76
8.188930988311768,-4.3,-7.1,-0.23,8.3
8.192365169525146,-3.15,-6.99,0.14,7.66
8.233164072036743,-2.61,-7.06,0.51,7.54
8.234153985977173,-2.32,-7.2,0.67,7.59
8.235116004943848,-1.93,-6.89,1.12,7.24
8.237287044525146,-1.09,-6.33,2.41,6.86
8.24171495437622,-0.04,-5.54,3.45,6.52
8.25206184387207,1.06,-4.22,3.04,5.3
8.262017011642456,1.66,-2.5,2.32,3.79
8.271769046783447,1.96,-0.68,2.2,3.02
8.28170108795166,2.94,1.22,2.44,4.01
8.291889190673828,4.58,2.71,3.33,6.27
8.32753610610962,6.64,3.48,4.41,8.69
8.328548908233643,8.95,3.75,5.19,11.0
8.32933497428894,10.77,3.58,4.76,12.3
8.336210012435913,11.2,3.98,3.39,12.36
8.341362953186035,10.51,5.13,1.5,11.79
8.357002973556519,9.55,5.65,-1.15,11.15
8.360960006713867,8.45,6.56,-2.37,10.95
8.372905969619751,5.05,16.85,-1.83,17.68
8.381147861480713,12.62,20.56,-11.14,26.57
8.3910231590271,22.0,27.79,-7.82,36.29
8.401113033294678,12.85,29.87,-4.15,32.78
8.431807041168213,-2.69,17.44,-3.92,18.07
8.43302583694458,-6.19,-0.38,2.47,6.67
8.434975147247314,-1.35,-10.77,9.8,14.62
8.440378189086914,4.83,-13.33,11.07,17.98
8.450089931488037,8.05,-5.51,8.35,12.84
8.460423946380615,6.56,1.03,5.42,8.57
8.470384120941162,3.97,2.72,2.35,5.35
8.480033874511719,2.23,1.15,-1.68,3.01
8.490376949310303,1.38,-0.62,-3.85,4.13
8.500134944915771,1.71,0.08,-3.14,3.57
8.530537128448486,1.35,1.07,-1.51,2.29
8.531772136688232,0.54,0.73,-0.62,1.09
8.533001899719238,-0.41,0.1,-1.43,1.49
8.540838956832886,-1.12,0.19,-1.87,2.18
8.549875020980835,-0.87,0.41,-1.13,1.48
8.559396982192993,-0.23,0.16,-0.57,0.63
8.569637060165405,0.21,-0.22,-0.76,0.81
8.579432010650635,0.39,-0.17,-1.18,1.25
8.589712142944336,0.36,0.07,-0.99,1.05
8.599343061447144,0.36,0.15,-0.31,0.49
8.63105297088623,0.04,-0.02,-0.19,0.19
8.63227105140686,-0.24,-0.23,-0.2,0.38
8.633517026901245,-0.23,-0.13,-0.19,0.32
8.63874101638794,-0.2,0.08,-0.39,0.44
8.656852960586548,-0.41,0.11,-0.87,0.96
8.65863299369812,-0.64,0.03,-1.29,1.44
8.673101902008057,-0.56,-0.1,-1.19,1.31
8.678491115570068,-0.42,-0.05,-0.92,1.01
8.688801050186157,-0.36,0.06,-0.75,0.83
8.698782920837402,-0.4,0.27,-0.4,0.62
8.729631900787354,-0.16,0.72,0.21,0.76
8.730807065963745,-0.39,0.97,0.91,1.38
8.73195219039917,-0.71,0.87,1.03,1.52
8.738486051559448,-0.6,0.67,0.83,1.22
8.748330116271973,-0.64,0.38,0.26,0.78
8.757920026779175,-0.55,0.1,-0.22,0.6
8.768028974533081,-0.21,-0.22,-0.5,0.58
8.777786016464233,0.02,-0.46,-0.63,0.78
8.78830099105835,0.09,-0.47,-0.71,0.85
8.79799199104309,-0.02,-0.37,-0.43,0.56
8.835484981536865,-0.18,-0.16,-0.17,0.29
8.836730003356934,-0.35,0.2,0.08,0.41
8.837748050689697,-0.42,0.38,0.11,0.57
8.857099056243896,-0.63,0.32,0.04,0.7
8.858165979385376,-0.8,0.25,-0.23,0.86
8.873193979263306,-0.86,0.21,-0.34,0.94
8.874224185943604,-0.59,0.18,-0.16,0.63
8.890295028686523,-0.37,0.27,-0.34,0.57
8.891718864440918,-0.38,0.67,-0.34,0.84
8.905680179595947,-0.27,1.03,-0.34,1.11
8.935431003570557,-0.76,1.25,-0.91,1.72
8.936697959899902,-1.5,1.72,-1.09,2.52
8.937696933746338,-2.36,1.99,-1.46,3.41
8.957085132598877,-3.19,2.19,-2.01,4.36
8.958145141601562,-3.55,2.62,-2.17,4.91
8.973794937133789,-3.73,2.9,-2.34,5.27
8.97530198097229,-3.96,3.05,-2.52,5.59
8.990617036819458,-4.21,3.57,-2.6,6.1
8.992071151733398,-4.83,5.36,-2.97,7.8
9.005826950073242,-5.77,7.1,-3.36,9.74
9.037577152252197,-7.0,8.75,-4.1,11.93
9.038908004760742,-8.4,9.75,-5.69,14.07
9.039898872375488,-8.96,9.5,-6.62,14.64
9.058000087738037,-8.52,9.31,-7.08,14.47
9.059091091156006,-8.11,9.44,-7.19,14.37
9.07361102104187,-7.57,9.08,-6.69,13.58
9.075072050094604,-7.07,9.71,-7.55,14.18
9.08954906463623,-7.33,11.2,-9.55,16.44
9.091065883636475,-7.16,12.85,-10.09,17.83
9.103513956069946,-0.55,20.84,-2.47,20.99
9.13327407836914,5.94,20.1,1.74,21.03
9.134716033935547,1.53,8.48,-3.08,9.15
9.135706901550293,-4.96,2.76,-7.17,9.14
9.138032913208008,-2.81,0.4,-6.81,7.37
9.145348072052002,9.24,2.69,-1.78,9.78
9.155126094818115,8.64,1.68,1.27,8.89
9.165081024169922,0.57,0.14,-1.42,1.53
9.175300121307373,-5.04,0.08,-2.24,5.51
9.185220003128052,-7.05,-1.96,-1.21,7.41
9.194933891296387,-6.68,-3.96,0.41,7.77
9.205245018005371,-5.37,-5.6,1.49,7.9
9.23780107498169,-4.74,-6.88,1.7,8.52
9.239029884338379,-4.95,-7.89,1.51,9.43
9.240020990371704,-5.28,-8.38,1.39,10.0
9.257698059082031,-5.68,-8.61,1.29,10.39
9.258792877197266,-6.25,-8.72,1.22,10.79
9.27377700805664,-6.93,-8.69,1.07,11.16
9.27523398399353,-7.27,-8.67,0.97,11.35
9.290467977523804,-7.46,-8.64,0.6,11.43
9.294159889221191,-7.54,-8.53,0.34,11.38
9.305783033370972,-7.54,-8.4,0.21,11.28
9.336889028549194,-7.2,-8.31,0.17,10.99
9.338221073150635,-6.33,-8.32,0.31,10.45
9.33918285369873,-5.59,-8.37,0.25,10.06
9.357967853546143,-5.15,-8.42,0.17,9.87
9.359033107757568,-4.9,-8.32,-0.13,9.65
9.373034954071045,-4.9,-8.18,-0.36,9.54
9.37444019317627,-4.78,-8.11,-0.28,9.41
9.390603065490723,-4.31,-7.83,0.63,8.96
9.39334487915039,-3.59,-7.73,1.49,8.65
9.405858993530273,-2.78,-7.75,1.61,8.38
9.436845064163208,-1.8,-7.67,1.38,7.99
9.438156127929688,-0.92,-7.01,1.56,7.24
9.439189910888672,-0.61,-5.89,1.77,6.18
9.457517147064209,-0.36,-4.58,1.94,4.98
9.458575010299683,0.47,-2.88,2.48,3.82
9.4736008644104,2.26,-0.8,3.09,3.91
9.475068092346191,4.64,1.2,3.7,6.05
9.49058198928833,6.21,2.79,4.3,8.05
9.492563009262085,6.72,4.55,4.83,9.44
9.50595498085022,7.42,6.13,4.67,10.69
9.536689043045044,8.49,7.15,3.08,11.51
9.53793716430664,9.13,8.26,1.07,12.35
9.538905143737793,9.06,9.38,-0.33,13.04
9.558130025863647,9.6,10.25,-1.05,14.08
9.559194087982178,12.05,9.67,-1.12,15.49
9.570950031280518,9.14,13.16,-0.16,16.02
9.572512149810791,6.86,17.54,-6.13,19.8
9.587853908538818,13.3,13.47,-11.14,21.96
9.591986179351807,6.41,10.29,-8.24,14.65
9.60575819015503,-6.83,15.04,-4.18,17.03
9.641515970230103,-4.91,14.28,4.52,15.76
9.642809867858887,4.72,0.52,7.81,9.14
9.64383316040039,8.58,-5.27,6.59,12.03
9.657927989959717,10.06,-3.79,4.2,11.54
9.658999919891357,7.99,-2.3,1.88,8.52
9.673500061035156,3.9,1.79,3.29,5.4
9.674543857574463,0.86,0.67,2.74,2.94
9.690798044204712,0.45,-0.72,1.12,1.4
9.692270994186401,1.11,-0.16,-0.51,1.23
9.706296920776367,1.35,0.81,-1.71,2.32
9.741098880767822,1.55,1.58,-2.73,3.51
9.74242115020752,1.33,1.2,-2.91,3.41
9.743448972702026,0.95,0.52,-2.16,2.41
9.75795316696167,0.4,0.16,-1.43,1.49
9.759013175964355,0.0,-0.02,-0.89,0.89
9.773457050323486,0.09,-0.2,-0.59,0.62
9.774459838867188,0.27,-0.2,-0.37,0.49
9.791051864624023,0.21,0.08,-0.12,0.25
9.792513847351074,0.05,0.3,0.16,0.34
9.80623197555542,-0.17,0.17,0.25,0.34
9.838789939880371,-0.27,-0.23,0.12,0.37
9.840203046798706,-0.03,-0.29,-0.04,0.29
9.841218948364258,0.21,-0.11,-0.12,0.26
9.858101844787598,0.15,0.18,-0.36,0.42
9.859106063842773,0.13,0.32,-0.83,0.89
9.873471975326538,0.34,0.29,-1.22,1.29
9.874521017074585,0.29,0.1,-1.29,1.32
9.890719890594482,-0.26,-0.13,-1.05,1.08
9.89222002029419,-1.04,-0.22,-0.78,1.31
9.906296968460083,-1.46,-0.02,-0.46,1.53
9.937628984451294,-1.27,0.26,0.1,1.3
9.939052104949951,-0.88,0.27,0.3,0.96
9.940095901489258,-0.91,0.23,0.24,0.96
9.958019971847534,-0.97,0.29,-0.12,1.01
9.959038972854614,-0.64,0.53,-0.05,0.83
9.973487854003906,-0.55,0.39,-0.14,0.68
9.974547863006592,-0.8,0.0,-0.66,1.03
9.991002082824707,-0.99,0.05,-0.71,1.21
9.992462158203125,-0.96,0.37,-0.23,1.05
10.00645899772644,-0.89,0.62,0.05,1.08
10.008647918701172,-1.08,0.68,0.18,1.28
10.052949905395508,-1.58,0.56,-0.26,1.69
10.054131031036377,-1.96,0.53,-0.67,2.13
10.05512285232544,-1.99,0.55,-0.95,2.27
10.07436990737915,-1.66,0.59,-1.08,2.06
10.075416088104248,-0.95,0.63,-0.97,1.49
10.090776920318604,-0.36,0.61,-0.77,1.04
10.09223985671997,-0.3,1.06,-0.63,1.26
10.107513904571533,-0.85,1.96,-0.77,2.27
10.109012126922607,-0.99,1.95,-0.59,2.26
10.123183012008667,-1.09,1.54,-0.41,1.93
10.153451919555664,-1.5,1.36,-0.67,2.13
10.154717922210693,-1.75,1.71,-0.93,2.61
10.155689001083374,-1.81,2.11,-1.18,3.02
10.174124002456665,-2.08,2.29,-1.51,3.44
10.175173044204712,-2.79,2.46,-1.99,4.21
10.190514087677002,-3.69,2.61,-2.48,5.15
10.191842079162598,-4.32,2.85,-2.74,5.85
10.207664966583252,-4.99,3.63,-3.0,6.86
10.209136009216309,-6.3,5.46,-3.81,9.16
10.22321891784668,-7.53,7.04,-4.5,11.24
10.253500938415527,-8.1,8.32,-4.73,12.53
10.254836082458496,-9.15,10.46,-6.02,15.14
10.255946159362793,-10.22,10.56,-6.95,16.25
10.274260997772217,-9.96,8.6,-6.38,14.62
10.275285005569458,-8.53,7.94,-6.81,13.49
10.29079008102417,-7.95,9.57,-8.21,14.9
10.29187798500061,-8.06,13.74,-9.38,18.48
10.304736137390137,-3.16,18.66,-5.27,19.64
10.306233882904053,5.29,20.78,1.33,21.48
10.323143005371094,4.16,11.72,-1.2,12.49
10.352154970169067,-2.16,5.57,-5.88,8.38
10.353563070297241,-5.94,1.94,-7.06,9.42
10.354566097259521,2.61,-0.08,-4.95,5.59
10.374195098876953,12.43,3.04,0.54,12.8
10.375237941741943,8.26,0.2,0.59,8.28
10.391012191772461,0.37,-0.52,-2.81,2.88
10.392009973526001,-4.74,-0.97,-3.6,6.03
10.40751600265503,-7.12,-2.63,-2.45,7.97
10.408967018127441,-7.06,-4.49,-0.46,8.37
10.42320704460144,-6.01,-6.1,1.25,8.65
10.451482057571411,-5.56,-7.24,2.07,9.36
10.452890872955322,-5.55,-7.93,2.0,9.88
10.453911066055298,-5.26,-8.52,1.4,10.11
10.474372863769531,-5.1,-8.96,1.1,10.36
10.475386142730713,-5.47,-9.08,0.96,10.64
10.491059064865112,-6.22,-9.01,0.93,10.98
10.492472171783447,-7.01,-8.79,1.07,11.29
10.508913040161133,-7.52,-8.74,1.15,11.58
10.510324954986572,-7.68,-8.77,1.06,11.7
10.523669958114624,-7.57,-8.6,0.83,11.48
10.554663181304932,-7.15,-8.21,0.62,10.9
10.556044101715088,-6.64,-7.79,0.41,10.24
10.557059049606323,-5.9,-7.63,0.44,9.65
10.574942111968994,-5.24,-7.51,0.22,9.16
10.575986862182617,-4.98,-7.16,-0.15,8.72
10.59090518951416,-4.72,-6.32,-0.19,7.89
10.592385053634644,-4.07,-5.61,-0.57,6.95
10.607789039611816,-2.09,-5.46,-1.24,5.97
10.6092369556427,0.09,-5.22,-0.9,5.29
10.623283863067627,1.09,-4.69,0.14,4.81
10.652925968170166,0.84,-4.57,0.94,4.74
10.65438199043274,-0.27,-4.18,2.02,4.65
10.65540099143982,-0.37,-3.37,3.23,4.68
10.67416000366211,0.88,-2.53,4.24,5.01
10.67520809173584,2.93,-2.1,4.59,5.83
10.690925121307373,4.74,-1.54,4.49,6.7
10.691984176635742,5.94,-0.9,4.44,7.47
10.707597017288208,6.82,-0.21,4.4,8.11
10.709044933319092,6.76,0.22,3.4,7.57
10.723319053649902,5.16,1.23,2.83,6.01
10.753157138824463,5.11,3.69,3.85,7.38
10.754589080810547,7.63,4.48,3.05,9.35
10.755611896514893,10.03,4.85,2.13,11.34
10.774607181549072,10.78,5.78,1.07,12.27
10.775647163391113,10.35,6.34,-0.08,12.13
10.79085898399353,9.56,5.93,-0.8,11.27
10.791914939880371,8.12,6.4,-1.08,10.39
10.806509971618652,3.28,14.72,-2.26,15.24
10.808045864105225,5.87,13.12,-9.49,17.22
10.821529865264893,5.37,15.06,-8.97,18.33
10.823069095611572,-1.31,26.4,-5.17,26.93
10.869631052017212,1.25,22.92,2.07,23.04
10.87083101272583,5.07,-1.1,5.13,7.29
10.871832847595215,6.48,-12.3,7.72,15.9
10.891597986221313,7.51,-11.57,6.73,15.34
10.892657041549683,7.09,-1.85,4.59,8.64
10.907677173614502,3.9,1.39,3.51,5.42
10.909131050109863,0.29,0.82,1.84,2.03
10.924408912658691,-1.26,0.1,-0.97,1.59
10.92589807510376,-1.36,0.13,-3.52,3.77
10.940062999725342,0.02,0.52,-4.18,4.21
10.972609996795654,1.56,0.83,-3.0,3.48
10.973921060562134,1.7,0.66,-1.66,2.46
10.974934101104736,0.65,0.23,-0.98,1.19
10.99197006225586,-0.58,0.49,-0.97,1.23
10.993049144744873,-0.96,0.47,-1.13,1.55
11.00796103477478,-0.12,0.15,-0.83,0.85
11.00947904586792,0.83,-0.06,-0.62,1.03
11.024499893188477,1.02,-0.17,-0.51,1.15
11.026039123535156,0.42,0.14,0.04,0.44
11.039461135864258,-0.48,0.36,0.34,0.68
11.069557189941406,-0.74,0.23,0.41,0.87
11.070899963378906,-0.31,0.16,0.14,0.37
11.07191801071167,0.23,0.07,-0.33,0.4
11.091290950775146,0.52,0.03,-0.82,0.97
11.092380046844482,0.59,0.15,-1.03,1.19
11.10764217376709,0.51,0.39,-0.87,1.08
11.10868501663208,0.24,0.54,-0.85,1.03
11.124657154083252,0.15,0.51,-0.92,1.06
11.126137971878052,-0.01,0.39,-0.98,1.05
11.140061855316162,-0.38,0.35,-0.75,0.91
11.16984510421753,-0.91,0.32,-0.44,1.06
11.171211004257202,-1.28,0.41,0.03,1.34
11.172150135040283,-1.66,0.15,0.03,1.66
11.191421031951904,-1.76,-0.23,-0.34,1.8
11.192470073699951,-1.63,-0.19,-0.37,1.68
11.208034038543701,-1.66,-0.01,-0.34,1.69
11.209482192993164,-1.45,0.14,-0.23,1.47
11.22474718093872,-0.97,0.39,-0.24,1.07
11.226233005523682,-0.74,0.45,-0.41,0.95
11.240148067474365,-0.72,0.85,0.24,1.13
11.271281003952026,-0.89,0.94,0.72,1.48
11.272593021392822,-0.78,0.51,0.36,0.99
11.273591041564941,-0.88,0.46,0.09,0.99
11.291975021362305,-1.03,0.68,-0.3,1.27
11.293030977249146,-1.08,0.81,-0.65,1.49
11.307708978652954,-0.93,1.08,-0.77,1.61
11.308714866638184,-0.57,1.11,-0.94,1.56
11.324802875518799,-0.43,0.92,-1.1,1.49
11.326303005218506,-0.59,0.76,-1.11,1.46
11.340240001678467,-0.91,0.81,-1.15,1.67
11.368738174438477,-1.38,1.17,-1.21,2.17
11.369977951049805,-1.97,1.63,-1.5,2.96
11.370995044708252,-2.35,1.92,-1.72,3.48
11.391816139221191,-2.72,2.31,-1.9,4.04
11.392850875854492,-3.17,2.76,-2.21,4.74
11.407685041427612,-3.84,3.06,-2.49,5.5
11.408756017684937,-4.61,4.06,-2.8,6.75
11.424844026565552,-5.51,6.3,-3.51,9.07
11.426337957382202,-6.4,7.13,-3.98,10.37
11.440163135528564,-7.23,8.46,-4.74,12.09
11.4686861038208,-8.44,10.23,-6.16,14.62
11.470130920410156,-9.52,8.92,-6.88,14.74
11.471147060394287,-9.77,7.19,-7.37,14.19
11.493610858917236,-9.17,7.1,-7.74,13.94
11.494668006896973,-8.27,8.47,-8.0,14.28
11.505456924438477,-7.19,10.75,-7.8,15.1
11.506534099578857,-2.04,15.57,-3.07,16.0
11.525065898895264,7.14,19.09,1.03,20.4
11.526560068130493,5.13,13.31,-4.94,15.09
11.540430068969727,-1.1,8.62,-9.52,12.88
11.571508884429932,-5.9,3.99,-7.94,10.66
11.572862148284912,0.37,0.98,-1.82,2.09
11.573942184448242,12.11,2.31,3.42,12.79
11.592094898223877,7.54,-0.75,0.92,7.63
11.59317684173584,0.28,0.24,-3.54,3.55
11.608134984970093,-4.19,0.02,-4.55,6.18
11.609609127044678,-5.96,-1.96,-3.34,7.1
11.624783992767334,-5.98,-3.28,-1.46,6.97
11.62631607055664,-5.53,-4.47,0.0,7.11
11.640362977981567,-5.61,-5.66,0.42,7.98
11.641820907592773,-5.98,-6.24,0.41,8.65
11.687504053115845,-6.2,-6.28,0.34,8.83
11.688631057739258,-6.2,-6.4,0.45,8.92
11.689574956893921,-6.17,-6.68,0.68,9.11
11.708656072616577,-6.42,-6.82,0.89,9.4
11.709723949432373,-6.68,-6.75,1.09,9.55
11.724748134613037,-6.88,-6.67,1.1,9.64
11.726162910461426,-6.87,-6.69,1.07,9.64
11.741633892059326,-6.56,-6.71,0.99,9.43
11.743046045303345,-5.95,-6.76,0.88,9.04
11.75696611404419,-5.37,-6.74,0.58,8.63
11.788007974624634,-4.86,-6.75,0.16,8.31
11.789293050765991,-5.25,-6.51,-0.72,8.39
11.79030704498291,-6.0,-6.0,-1.48,8.61
11.808403968811035,-6.19,-5.2,-1.68,8.25
11.809468984603882,-5.15,-4.47,-1.21,6.92
11.825326919555664,-3.61,-4.57,-0.58,5.85
11.826750993728638,-1.97,-5.02,-0.48,5.41
11.841747045516968,-1.22,-5.27,-0.07,5.4
11.843213081359863,-2.07,-5.4,1.1,5.88
11.857243061065674,-2.9,-5.31,2.44,6.52
11.88772702217102,-2.24,-5.56,3.33,6.85
11.888996124267578,-1.16,-5.42,3.64,6.63
11.889956951141357,-0.47,-4.6,3.11,5.57
11.908390045166016,0.24,-3.33,2.62,4.24
11.909447193145752,1.69,-1.9,2.25,3.39
11.92476201057434,3.77,-0.54,2.14,4.36
11.926192045211792,5.79,0.66,2.07,6.18
11.941720008850098,7.56,1.97,2.1,8.08
11.94320297241211,9.2,3.01,2.39,9.97
11.957222938537598,10.21,3.56,2.67,11.13
11.989169120788574,10.45,3.71,2.95,11.47
11.99049711227417,10.78,4.45,2.34,11.89
11.991509914398193,11.63,5.12,0.93,12.74
12.007549047470093,11.9,5.26,-0.36,13.01
12.008615970611572,11.11,5.45,-0.97,12.41
12.021350860595703,4.91,12.83,-1.37,13.8
12.022482872009277,4.31,16.66,-6.51,18.39
12.041842937469482,10.96,22.67,-6.03,25.89
12.043355941772461,6.02,18.74,-3.19,19.94
12.057379961013794,-3.95,19.71,-2.39,20.24
12.089370012283325,-1.8,9.49,3.98,10.44
12.090682983398438,5.72,-1.74,5.8,8.32
12.09169602394104,9.01,-5.86,5.05,11.87
12.109004020690918,7.22,-5.75,3.73,9.95
12.110043048858643,4.34,-1.14,3.12,5.46
12.124483108520508,2.12,0.22,1.55,2.63
12.12551999092102,1.35,0.01,0.58,1.46
12.141746997833252,1.32,0.2,-0.65,1.48
12.143167972564697,1.65,0.15,-1.14,2.01
12.157227993011475,1.75,0.19,-1.42,2.26
12.186769008636475,1.51,0.44,-1.79,2.38
12.188204050064087,1.15,0.65,-1.8,2.23
12.189202070236206,0.45,0.57,-1.35,1.53
12.208631038665771,-0.14,0.34,-0.73,0.81
12.209655046463013,-0.03,-0.11,-0.25,0.27
12.224975109100342,0.51,-0.41,0.15,0.67
12.22597599029541,0.64,-0.32,0.42,0.82
12.241908073425293,0.21,-0.03,0.34,0.4
12.243376970291138,-0.28,0.23,0.36,0.51
12.257616996765137,-0.4,0.24,0.56,0.72
12.287606000900269,-0.25,0.03,0.36,0.43
12.288879871368408,0.02,-0.12,0.32,0.34
12.289849996566772,0.17,-0.03,0.46,0.49
12.308763027191162,0.02,0.06,-0.06,0.08
12.309818983078003,-0.14,0.21,-1.14,1.16
12.324732065200806,0.06,0.28,-1.8,1.82
12.325782060623169,0.44,-0.08,-1.58,1.64
12.341775894165039,0.62,-0.29,-1.12,1.31
12.343221187591553,0.21,-0.18,-0.85,0.89
12.357438087463379,-0.54,-0.01,-0.52,0.74
12.387418985366821,-0.84,0.14,-0.26,0.89
12.388854026794434,-0.68,0.24,0.22,0.75
12.389927864074707,-0.49,0.28,0.61,0.83
12.40868616104126,-0.21,0.37,0.69,0.81
12.409718036651611,0.12,0.35,0.44,0.57
12.424726009368896,0.12,0.25,0.01,0.27
12.425661087036133,-0.14,0.1,-0.23,0.28
12.441756963729858,-0.31,0.09,-0.18,0.36
12.443196058273315,-0.43,0.13,0.02,0.44
12.457551956176758,-0.54,0.22,0.01,0.58
12.45902705192566,-0.59,0.44,-0.09,0.74
12.505157947540283,-0.4,0.52,-0.23,0.69
12.50632095336914,-0.24,0.39,-0.61,0.76
12.507336139678955,-0.33,0.2,-1.34,1.39
12.525828838348389,-0.42,0.13,-1.55,1.61
12.526886940002441,-0.6,0.12,-1.47,1.59
12.541831016540527,-0.9,0.31,-1.46,1.74
12.5432870388031,-1.21,0.44,-1.41,1.9
12.558637142181396,-1.61,0.43,-1.35,2.14
12.56010103225708,-1.97,0.66,-1.16,2.37
12.573936939239502,-2.12,1.1,-1.12,2.63
12.60436487197876,-2.17,1.79,-1.0,2.98
12.605710983276367,-2.94,2.94,-0.99,4.27
12.606724977493286,-3.2,3.78,-0.08,4.95
12.625399112701416,-2.94,3.05,-0.47,4.26
12.626451969146729,-3.29,2.7,-1.04,4.38
12.641685009002686,-3.84,2.65,-1.56,4.91
12.642729043960571,-4.51,2.86,-2.28,5.8
12.658778190612793,-5.27,4.23,-3.05,7.41
12.660246849060059,-6.03,5.6,-3.49,8.93
12.673891067504883,-6.93,7.04,-3.77,10.57
12.703053951263428,-8.27,9.22,-5.24,13.44
12.70448899269104,-9.37,9.35,-6.92,14.93
12.70549488067627,-9.17,8.07,-7.61,14.39
12.72533106803894,-8.16,8.09,-7.9,13.94
12.726408004760742,-6.98,8.22,-7.0,12.85
12.741163969039917,-5.84,7.2,-5.81,10.94
12.742210865020752,-4.46,7.15,-5.1,9.85
12.758920192718506,-3.71,12.43,-4.99,13.89
12.760415077209473,1.6,19.31,-3.33,19.66
12.774087905883789,4.37,14.79,-3.11,15.73
12.802091121673584,-0.27,6.12,-5.32,8.11
12.803508043289185,-5.19,2.37,-6.88,8.93
12.80449914932251,-3.2,1.5,-5.02,6.13
12.825809001922607,7.21,2.65,-2.56,8.09
12.826863050460815,7.9,1.28,-0.51,8.01
12.84194302558899,1.25,-0.2,-1.72,2.13
12.842931985855103,-4.21,0.07,-2.66,4.98
12.858911037445068,-6.71,-0.95,-2.09,7.09
12.860372066497803,-6.83,-2.68,-0.85,7.38
12.87436294555664,-5.86,-4.26,0.14,7.24
12.903120040893555,-5.23,-5.39,0.61,7.53
12.904514074325562,-5.21,-6.19,0.93,8.14
12.905362129211426,-5.55,-6.77,1.03,8.81
12.925528049468994,-6.11,-7.16,0.93,9.45
12.926614999771118,-6.65,-7.45,0.8,10.01
12.941830158233643,-6.82,-7.53,0.71,10.18
12.942862033843994,-6.81,-7.58,0.63,10.2
12.958891868591309,-6.67,-7.55,0.41,10.08
12.960373878479004,-6.19,-7.5,0.2,9.72
12.974164962768555,-5.84,-7.24,-0.23,9.3
13.003635883331299,-5.61,-6.89,-0.51,8.89
13.005137920379639,-5.64,-6.42,-0.55,8.56
13.006134033203125,-5.41,-6.11,-0.44,8.17
13.026079177856445,-5.27,-6.04,-0.38,8.02
13.027070045471191,-5.25,-6.07,-0.38,8.03
13.041841983795166,-5.57,-5.99,-0.25,8.18
13.042854070663452,-5.96,-5.72,0.41,8.27
13.058905124664307,-5.53,-5.68,1.59,8.08
13.060369968414307,-4.07,-5.93,2.21,7.52
13.074450016021729,-2.42,-6.12,1.96,6.86
13.103693962097168,-1.36,-6.12,1.4,6.42
13.105066061019897,-0.89,-5.94,1.14,6.11
13.106063842773438,-0.12,-5.28,1.32,5.44
13.125597953796387,1.19,-4.72,1.31,5.04
13.126654148101807,3.11,-3.81,1.17,5.05
13.141955852508545,5.52,-2.53,1.28,6.2
13.142973899841309,7.72,-1.36,1.82,8.04
13.158896923065186,8.73,-0.36,2.76,9.16
13.16037893295288,8.55,0.51,3.81,9.37
13.174349069595337,7.53,1.45,4.27,8.77
13.204777956008911,7.11,2.81,4.18,8.71
13.206162929534912,8.31,4.27,3.92,10.13
13.207178115844727,9.67,4.84,2.64,11.13
13.225308895111084,10.09,5.33,1.09,11.46
13.226375102996826,9.74,5.75,-0.27,11.31
13.241037845611572,8.81,5.43,-1.07,10.4
13.24210786819458,2.68,11.87,-0.82,12.19
13.258785009384155,1.12,17.99,-6.2,19.06
13.26025390625,6.96,25.7,-6.34,27.37
13.274258136749268,5.88,18.68,-4.38,20.06
13.27570390701294,-0.75,15.25,-5.55,16.24
13.321593999862671,1.45,7.29,2.9,7.97
13.322793006896973,8.2,-0.26,8.57,11.86
13.323801040649414,10.45,-4.22,5.89,12.71
13.342581033706665,7.04,-4.15,2.31,8.49
13.343626022338867,4.4,-0.78,3.31,5.56
13.35901689529419,1.66,-0.99,3.35,3.86
13.360494136810303,0.19,-1.35,2.49,2.83
13.37546706199646,0.28,-0.57,0.53,0.82
13.376946926116943,0.73,-0.13,-1.09,1.31
13.39112901687622,1.13,0.21,-1.94,2.25
13.421677112579346,0.87,0.88,-2.18,2.5
13.423036098480225,0.41,1.15,-2.34,2.63
13.424053192138672,-0.2,1.07,-2.51,2.73
13.442684173583984,-0.37,1.09,-1.92,2.23
13.443717956542969,0.19,0.57,-1.03,1.19
13.459923028945923,0.98,-0.28,-0.52,1.14
13.461153030395508,1.26,-0.59,-0.43,1.45
13.475013017654419,0.9,-0.23,-0.42,1.01
13.47648000717163,0.22,0.26,-0.14,0.36
13.491165161132812,-0.38,0.26,0.29,0.54
13.522632122039795,-0.57,-0.14,0.59,0.83
13.52391505241394,-0.34,-0.39,0.24,0.57
13.52492904663086,0.03,-0.17,-0.51,0.53
13.542649030685425,0.26,0.1,-0.91,0.95
13.543676853179932,0.57,0.06,-1.02,1.17
13.558739185333252,0.84,0.06,-0.79,1.15
13.55971384048462,0.9,0.19,-0.51,1.05
13.575262069702148,0.43,0.2,-0.29,0.55
13.57672119140625,-0.39,0.07,0.03,0.39
13.591404914855957,-0.96,0.01,0.22,0.98
13.620704174041748,-1.12,0.12,0.4,1.19
13.622122049331665,-0.91,0.23,0.14,0.94
13.623223066329956,-0.64,0.26,-0.36,0.77
13.642287969589233,-0.64,0.21,-0.67,0.95
13.643271923065186,-0.8,0.17,-0.79,1.13
13.658784866333008,-0.95,0.11,-0.78,1.23
13.659802913665771,-0.83,0.23,-0.44,0.96
13.675580978393555,-0.68,0.44,0.06,0.81
13.677052021026611,-0.78,0.51,0.04,0.93
13.691565990447998,-0.76,0.55,0.05,0.93
13.718822002410889,-0.8,0.45,0.13,0.92
13.720208168029785,-1.17,0.17,-0.37,1.23
13.72109603881836,-1.59,0.16,-1.26,2.03
13.722465991973877,-1.61,0.26,-1.65,2.31
13.723675012588501,-1.42,0.52,-1.49,2.12
13.724854946136475,-0.5,0.72,-1.01,1.33
13.72601318359375,0.3,0.64,-0.55,0.89
13.727185010910034,0.53,0.52,-0.64,0.98
13.728309154510498,0.26,0.37,-0.7,0.83
13.729456901550293,-0.17,0.58,-0.93,1.1
13.748085021972656,-1.65,1.48,-0.36,2.24
13.749040126800537,-2.03,2.17,0.69,3.05
13.749939918518066,-2.06,1.79,-0.12,2.73
13.75984001159668,-2.47,1.99,-0.44,3.2
13.770255088806152,-3.0,2.2,-0.81,3.8
13.779941082000732,-3.46,2.28,-1.43,4.38
13.790051937103271,-3.84,2.42,-2.02,4.96
13.799968004226685,-4.53,3.2,-2.52,6.09
13.809935092926025,-5.73,4.8,-3.41,8.21
13.820037841796875,-6.14,6.1,-3.48,9.32
13.8508780002594,-6.25,7.17,-3.27,10.05
13.851876974105835,-7.4,8.01,-4.67,11.86
13.852903842926025,-7.99,7.45,-5.66,12.3
13.859310150146484,-7.59,7.05,-6.66,12.31
13.87568998336792,-7.03,7.55,-7.54,12.77
13.879153966903687,-5.51,7.05,-6.84,11.26
13.890066146850586,-4.08,6.73,-6.69,10.32
13.89929485321045,-4.83,7.76,-9.03,12.84
13.908998012542725,-7.17,10.34,-11.16,16.81
13.918910026550293,-2.86,15.34,-4.57,16.25
13.952447891235352,5.92,16.74,2.16,17.88
13.953440189361572,4.33,7.21,-1.43,8.53
13.954400062561035,-1.82,2.04,-6.19,6.76
13.958544969558716,-4.87,0.07,-7.39,8.85
13.968667030334473,2.3,-0.7,-5.07,5.61
13.978607177734375,10.1,2.15,0.0,10.32
13.988758087158203,5.78,-0.49,0.73,5.84
13.99852204322815,-1.79,-0.76,-1.92,2.73
14.008411884307861,-6.66,-0.6,-2.63,7.18
14.018567085266113,-8.57,-1.66,-1.57,8.86
14.028595924377441,-8.38,-2.65,-0.22,8.79
14.06055998802185,-7.31,-3.66,0.86,8.22
14.06186294555664,-6.49,-4.85,1.54,8.24
14.06286907196045,-6.13,-6.09,1.8,8.82
14.076467990875244,-5.81,-6.96,1.64,9.21
14.077563047409058,-5.54,-7.38,1.34,9.32
14.091947078704834,-5.53,-7.51,1.05,9.38
14.097661018371582,-5.78,-7.41,0.76,9.42
14.107523918151855,-6.14,-7.07,0.23,9.36
14.11804485321045,-6.09,-6.82,-0.07,9.14
14.127918004989624,-5.9,-6.7,-0.58,8.94
14.160542964935303,-5.63,-6.57,-0.92,8.7
14.161906003952026,-5.31,-6.43,-0.95,8.39
14.162919044494629,-4.75,-6.31,-0.86,7.94
14.176361083984375,-4.26,-6.26,-0.81,7.61
14.177428007125854,-3.84,-6.44,-0.7,7.53
14.192514896392822,-3.79,-6.65,-0.71,7.68
14.196905136108398,-3.68,-6.85,-0.72,7.8
14.208906173706055,-3.97,-6.62,-0.68,7.74
14.217128038406372,-4.1,-6.21,-0.32,7.44
14.226769924163818,-3.51,-5.91,-0.02,6.87
14.259911060333252,-2.53,-5.65,0.04,6.19
14.261311054229736,-1.81,-5.24,0.64,5.58
14.262326002120972,-1.61,-4.75,1.52,5.24
14.276273965835571,-1.69,-4.5,1.82,5.13
14.277341842651367,-1.05,-3.44,2.31,4.27
14.292511940002441,0.83,-2.17,2.97,3.77
14.296123027801514,3.21,-1.14,3.23,4.69
14.306995868682861,4.71,-0.06,2.99,5.57
14.316431999206543,4.9,1.46,2.39,5.64
14.326079845428467,4.97,3.49,2.01,6.39
14.360887050628662,6.11,5.09,1.93,8.18
14.362214088439941,7.59,5.54,1.0,9.44
14.363227844238281,9.25,6.55,0.73,11.35
14.376419067382812,11.63,7.39,-0.07,13.77
14.37748384475708,13.33,7.3,-1.43,15.26
14.392292976379395,12.47,7.71,-1.9,14.78
14.39524793624878,5.47,13.91,-2.23,15.11
14.409024000167847,8.27,18.03,-5.49,20.58
14.416041851043701,16.53,23.78,1.64,29.0
14.425348043441772,11.17,15.17,4.15,19.29
14.462790966033936,-2.21,4.62,-2.55,5.72
14.464105129241943,-8.0,6.63,1.64,10.51
14.465054035186768,0.34,4.22,6.74,7.95
14.475749015808105,6.69,-2.77,3.95,8.24
14.47682499885559,5.63,-4.68,2.6,7.76
14.492612838745117,5.2,-1.82,4.14,6.89
14.49463415145874,4.53,-0.52,3.62,5.82
14.508977890014648,3.46,-0.79,1.56,3.87
14.51447606086731,2.43,-0.88,-1.39,2.93
14.524569034576416,2.26,-0.04,-1.99,3.01
14.560997009277344,2.39,0.52,-0.94,2.62
14.562074184417725,1.73,0.29,-0.07,1.75
14.56288194656372,0.72,0.15,0.32,0.8
14.576324939727783,-0.37,0.27,-0.21,0.5
14.577368021011353,-0.78,0.28,0.39,0.91
14.59258508682251,-0.38,0.11,1.19,1.25
14.59363603591919,0.07,0.01,0.71,0.71
14.609303951263428,0.14,0.08,-0.07,0.17
14.613617897033691,0.14,0.23,-0.73,0.77
14.624014854431152,0.39,0.26,-1.3,1.38
14.661336898803711,0.63,0.24,-1.48,1.62
14.662764072418213,0.44,0.17,-0.97,1.07
14.663778066635132,0.17,-0.03,-0.59,0.61
14.676441192626953,0.27,-0.07,-0.34,0.43
14.67748212814331,0.38,0.09,0.03,0.39
14.692707061767578,0.26,0.17,-0.03,0.31
14.693769931793213,0.05,0.16,-0.32,0.36
14.709398984909058,-0.19,0.25,-0.55,0.63
14.713181972503662,-0.38,0.33,-0.81,0.95
14.723226070404053,-0.53,0.05,-0.95,1.08
14.760686874389648,-0.55,-0.1,-0.78,0.95
14.762035846710205,-0.57,0.1,-0.55,0.79
14.763025999069214,-0.42,0.15,-0.31,0.54
14.776709079742432,-0.04,0.2,0.01,0.2
14.777742862701416,0.12,0.22,0.15,0.29
14.792845964431763,0.03,0.26,0.05,0.26
14.793864011764526,-0.12,0.3,0.09,0.33
14.809684991836548,-0.3,0.2,0.11,0.37
14.812443017959595,-0.56,0.02,-0.03,0.56
14.822794914245605,-0.92,-0.08,-0.1,0.92
14.83272099494934,-1.04,-0.08,-0.06,1.04
14.868329048156738,-0.9,0.17,-0.06,0.91
14.869457960128784,-0.52,0.52,-0.17,0.75
14.870661973953247,-0.19,0.71,-0.23,0.77
14.872184038162231,-0.26,0.76,-0.44,0.91
14.881885051727295,-0.56,0.67,-0.79,1.17
14.89183497428894,-0.96,0.43,-1.07,1.5
14.90174388885498,-1.35,0.26,-1.43,1.98
14.911778926849365,-1.59,0.51,-1.52,2.25
14.921626091003418,-1.95,1.35,-1.06,2.59
14.931551933288574,-1.97,1.97,-0.73,2.88
14.963519096374512,-1.87,2.22,-0.53,2.95
14.964799880981445,-2.27,2.27,-0.53,3.25
14.965761184692383,-2.7,2.25,-0.87,3.62
14.976844072341919,-2.76,2.29,-1.16,3.76
14.980997085571289,-2.84,2.26,-1.54,3.94
14.992812156677246,-3.04,2.38,-1.85,4.28
15.001240015029907,-3.41,2.64,-2.07,4.78
15.010695934295654,-4.32,3.54,-2.72,6.21
15.021103858947754,-5.77,5.49,-3.56,8.72
15.030694961547852,-6.88,6.87,-3.65,10.38
15.06187105178833,-7.48,8.17,-4.03,11.78
15.063190937042236,-7.95,8.95,-5.54,13.19
15.064213037490845,-7.98,7.94,-6.17,12.83
15.076138973236084,-7.58,8.15,-6.53,12.9
15.08030891418457,-6.71,8.05,-6.13,12.14
15.092916011810303,-5.98,8.07,-5.83,11.61
15.100074052810669,-6.0,8.81,-7.81,13.21
15.110211849212646,-7.46,10.15,-9.68,15.88
15.12025499343872,-4.35,14.63,-4.92,16.03
15.130037069320679,4.69,19.69,1.65,20.3
15.16245985031128,4.17,12.24,-1.55,13.02
15.163769960403442,-1.82,5.12,-6.32,8.33
15.164626121520996,-5.42,1.29,-7.12,9.04
15.176621913909912,1.02,-0.6,-4.5,4.65
15.179490089416504,10.61,1.88,0.29,10.77
15.192905902862549,6.62,-0.6,0.35,6.65
15.199723958969116,-0.94,-0.8,-2.26,2.57
15.20960807800293,-5.49,-0.79,-2.81,6.21
15.219202995300293,-7.06,-2.36,-1.72,7.64
15.229449033737183,-6.63,-3.94,-0.11,7.71
15.266401052474976,-5.61,-5.46,0.98,7.88
15.267889976501465,-5.18,-6.66,1.31,8.53
15.268911838531494,-5.31,-7.58,1.28,9.34
15.27269697189331,-5.63,-8.18,1.18,10.0
15.293188095092773,-6.05,-8.4,1.08,10.4
15.294234037399292,-6.72,-8.24,0.93,10.67
15.30929708480835,-7.14,-7.99,1.07,10.76
15.31033205986023,-7.47,-7.89,1.01,10.91
15.325169086456299,-7.61,-7.86,0.87,10.97
15.328541994094849,-7.53,-7.66,0.71,10.76
15.369464874267578,-6.96,-7.51,0.57,10.25
15.370609998703003,-6.34,-7.42,0.25,9.76
15.37153697013855,-5.87,-7.42,-0.01,9.46
15.373901844024658,-5.6,-7.43,-0.21,9.3
15.377912998199463,-5.46,-7.22,-0.4,9.06
15.387998104095459,-5.28,-6.94,-0.48,8.73
15.398085117340088,-4.77,-6.81,-0.28,8.31
15.407896041870117,-4.13,-6.67,0.17,7.84
15.417770862579346,-3.52,-6.46,0.67,7.38
15.428235054016113,-3.08,-6.14,0.86,6.92
15.465508937835693,-2.82,-5.7,0.75,6.4
15.466679096221924,-2.18,-5.26,1.02,5.78
15.467694997787476,-1.08,-4.79,1.6,5.16
15.476666927337646,0.34,-4.05,1.99,4.52
15.477728843688965,1.69,-2.85,2.82,4.35
15.49296498298645,2.24,-1.57,3.28,4.27
15.497143030166626,2.64,0.34,2.93,3.95
15.50950288772583,3.8,2.72,2.47,5.28
15.516967058181763,5.22,5.07,1.85,7.5
15.527079105377197,6.58,7.17,1.37,9.82
15.565301895141602,8.53,8.34,1.16,11.98
15.566637992858887,10.91,7.38,0.76,13.19
15.567667007446289,12.77,6.33,-0.1,14.25
15.573552131652832,13.73,6.13,-1.19,15.08
15.576489925384521,9.37,10.83,-0.75,14.34
15.592898845672607,5.15,17.47,-4.8,18.83
15.59639310836792,12.82,22.19,-4.89,26.08
15.607118129730225,16.18,21.42,-0.19,26.84
15.616366863250732,6.7,12.33,-4.82,14.83
15.626286029815674,-2.16,12.1,-1.27,12.35
15.636299133300781,-0.45,1.57,6.38,6.58
15.669852018356323,4.11,-5.55,5.75,8.98
15.670937061309814,5.95,-7.89,2.4,10.16
15.671718120574951,6.97,-1.57,3.84,8.11
15.67576789855957,6.55,0.78,4.97,8.25
15.685861110687256,3.78,-0.56,3.3,5.04
15.69580602645874,1.44,-1.05,1.12,2.1
15.70569396018982,0.36,-0.67,-0.62,0.98
15.715419054031372,0.17,0.21,-1.71,1.73
15.725457191467285,0.19,1.14,-2.04,2.34
15.735673904418945,0.15,1.57,-2.23,2.73
15.765830993652344,-0.16,1.05,-2.09,2.34
15.766792058944702,-0.33,0.41,-1.47,1.56
15.767776012420654,-0.15,-0.11,-0.97,0.98
15.774881839752197,0.1,-0.34,-1.06,1.11
15.785006999969482,0.42,-0.3,-1.27,1.37
15.79469919204712,0.76,-0.12,-1.18,1.4
15.804922103881836,0.73,0.2,-0.78,1.08
15.814954996109009,0.44,0.37,-0.06,0.57
15.82479190826416,0.15,0.16,0.5,0.54
15.834890842437744,-0.06,-0.25,0.67,0.71
15.86765193939209,-0.09,-0.4,0.63,0.75
15.869127988815308,0.09,-0.2,0.6,0.63
15.870097160339355,0.23,-0.09,0.49,0.54
15.874188899993896,0.12,-0.15,0.29,0.34
15.893157958984375,-0.17,-0.26,0.21,0.37
15.894206047058105,-0.14,-0.16,0.04,0.21
15.909756183624268,0.05,0.12,-0.21,0.24
15.913979053497314,0.01,0.25,-0.3,0.39
15.924025058746338,-0.19,0.13,-0.45,0.5
15.934237003326416,-0.77,-0.01,-0.52,0.92
15.966022968292236,-0.69,0.08,-0.5,0.85
15.967183113098145,0.27,0.31,-0.25,0.48
15.96841287612915,0.75,0.29,-0.12,0.81
15.973407983779907,0.53,0.14,-0.05,0.55
15.98354196548462,-0.06,0.18,-0.08,0.2
15.993476867675781,-0.69,0.26,-0.23,0.77
16.003386974334717,-0.79,0.46,-0.29,0.95
16.013221979141235,-0.66,0.33,-0.46,0.86
16.023316860198975,-0.42,0.21,-0.81,0.93
16.033379077911377,-0.19,0.34,-1.29,1.34
16.069983959197998,-0.31,0.4,-1.67,1.74
16.07125496864319,-0.73,0.42,-1.67,1.87
16.07218599319458,-1.08,0.48,-1.39,1.82
16.07445502281189,-1.68,0.54,-1.18,2.12
16.08251190185547,-2.11,0.67,-1.16,2.49
16.092886924743652,-1.73,0.85,-0.74,2.06
16.102545022964478,-1.16,0.92,-0.77,1.66
16.1127290725708,-0.98,1.08,-1.02,1.77
16.122318983078003,-0.96,1.21,-1.5,2.15
16.13265609741211,-1.47,1.32,-1.69,2.59
16.171023845672607,-2.39,2.29,-1.09,3.48
16.17242193222046,-2.93,2.86,-0.97,4.2
16.173410892486572,-3.19,2.46,-1.45,4.28
16.193958044052124,-3.5,2.95,-1.18,4.72
16.195016860961914,-4.21,2.91,-2.1,5.53
16.210404872894287,-4.71,3.59,-2.35,6.37
16.211891174316406,-5.48,5.28,-2.76,8.09
16.227174997329712,-6.28,6.4,-3.03,9.46
16.228631019592285,-6.96,7.79,-3.35,10.97
16.2425320148468,-8.06,9.53,-4.74,13.35
16.27249002456665,-8.3,8.88,-5.71,13.42
16.273763179779053,-7.76,9.0,-6.43,13.51
16.27480697631836,-7.22,9.54,-6.89,13.8
16.293755054473877,-6.44,8.65,-6.77,12.73
16.294818878173828,-5.75,8.97,-8.09,13.37
16.310034036636353,-6.27,10.95,-9.75,15.94
16.311118125915527,-4.07,14.68,-7.92,17.16
16.325663089752197,4.77,19.33,-1.75,19.98
16.32717514038086,5.58,12.62,-2.55,14.03
16.342488050460815,-1.85,3.46,-6.42,7.52
16.37224507331848,-5.72,0.18,-6.25,8.47
16.373602867126465,4.68,1.35,-3.52,6.0
16.374619007110596,9.31,1.67,-1.03,9.51
16.39375114440918,3.17,-0.3,-1.69,3.6
16.394793033599854,-2.82,0.07,-3.15,4.22
16.41135311126709,-5.45,-0.73,-3.09,6.3
16.412832021713257,-5.68,-2.47,-1.56,6.38
16.42725896835327,-4.98,-4.44,-0.21,6.67
16.428707122802734,-4.39,-5.87,0.41,7.34
16.442491054534912,-4.78,-6.71,0.64,8.26
16.4439799785614,-5.75,-7.02,0.74,9.1
16.492548942565918,-6.81,-7.17,0.78,9.91
16.493726015090942,-7.62,-7.35,0.82,10.61
16.49475908279419,-7.9,-7.49,0.9,10.92
16.510951042175293,-7.9,-7.56,0.85,10.96
16.51189088821411,-7.83,-7.56,0.7,10.9
16.52657198905945,-7.65,-7.49,0.43,10.71
16.528016090393066,-7.31,-7.47,0.29,10.45
16.543437004089355,-7.16,-7.5,-0.08,10.36
16.544898986816406,-6.96,-7.4,-0.44,10.16
16.55885601043701,-6.57,-7.24,-0.61,9.79
16.5901198387146,-6.05,-7.2,-0.7,9.43
16.591442108154297,-5.48,-7.18,-0.72,9.06
16.59240698814392,-4.93,-7.24,-0.7,8.78
16.610506057739258,-4.45,-7.32,-0.83,8.6
16.61158514022827,-4.23,-7.29,-1.18,8.51
16.626853942871094,-3.7,-7.11,-1.06,8.08
16.627882957458496,-3.36,-6.77,-0.81,7.6
16.644005060195923,-2.99,-6.41,0.0,7.07
16.645474910736084,-2.57,-6.19,0.83,6.75
16.659438133239746,-2.01,-6.04,0.93,6.43
16.68883204460144,-1.44,-5.52,0.59,5.73
16.690186023712158,-0.57,-4.59,0.67,4.67
16.691007137298584,0.98,-3.44,1.2,3.77
16.71049213409424,3.06,-2.15,1.56,4.05
16.711498975753784,4.63,-0.3,1.62,4.91
16.726649045944214,5.36,2.39,1.41,6.03
16.727674961090088,5.96,5.38,1.3,8.13
16.7433500289917,6.87,7.75,1.51,10.46
16.744372844696045,8.52,8.48,1.79,12.15
16.759539127349854,10.93,7.94,1.59,13.6
16.789833068847656,13.04,7.49,0.54,15.04
16.791225910186768,13.32,8.17,-0.69,15.64
16.792222023010254,7.47,17.22,-1.72,18.84
16.81110191345215,8.74,21.48,-7.07,24.24
16.81220006942749,16.96,32.61,4.52,37.03
16.826876163482666,13.49,19.8,2.06,24.04
16.82793402671814,1.71,11.36,-2.7,11.8
16.844120025634766,-0.61,5.76,3.77,6.91
16.845165967941284,-0.04,-7.87,4.73,9.18
16.859580993652344,2.32,-7.29,4.32,8.78
16.888516902923584,5.96,-0.59,5.96,8.44
16.889742851257324,6.76,-0.06,5.34,8.61
16.890575885772705,3.55,-0.21,1.12,3.72
16.910440921783447,1.37,0.07,-2.33,2.7
16.91146993637085,1.81,0.07,-2.54,3.11
16.926756858825684,2.35,-0.11,-0.71,2.45
16.927739143371582,2.35,-0.03,0.12,2.35
16.943225860595703,1.66,0.39,-0.2,1.71
16.944249153137207,0.47,0.38,-0.23,0.64
16.959069967269897,-0.35,0.38,0.53,0.74
16.988603115081787,-0.72,0.31,0.62,0.99
16.989763021469116,-0.72,0.49,-0.19,0.89
16.990514993667603,-0.44,0.54,-1.21,1.39
17.010549068450928,-0.06,0.2,-2.04,2.05
17.01161503791809,0.21,0.1,-1.78,1.79
17.02691888809204,0.19,0.05,-1.04,1.05
17.02796697616577,0.26,-0.09,-0.34,0.43
17.043668031692505,0.58,-0.12,0.01,0.59
17.044753074645996,0.96,-0.06,0.12,0.96
17.059566020965576,0.77,-0.05,-0.01,0.77
17.09055185317993,0.07,0.06,-0.47,0.47
17.091711044311523,-0.46,0.13,-0.77,0.9
17.09253692626953,-0.59,0.11,-0.83,1.02
17.11133599281311,-0.5,0.05,-0.92,1.04
17.112354040145874,-0.56,0.18,-0.86,1.04
17.12681293487549,-0.83,0.49,-0.65,1.16
17.12784695625305,-1.29,0.69,-0.16,1.47
17.144065856933594,-1.54,0.65,-0.09,1.67
17.145566940307617,-1.34,0.63,-0.1,1.48
17.159593105316162,-1.03,0.51,-0.34,1.19
17.19047212600708,-0.66,0.26,-0.45,0.84
17.191833019256592,-0.17,0.19,-0.5,0.56
17.192853927612305,0.17,-0.02,-0.66,0.68
17.211220026016235,0.11,-0.2,-0.62,0.66
17.212233066558838,-0.07,-0.27,-0.5,0.57
17.22700786590576,0.18,-0.41,-0.09,0.45
17.228052139282227,0.26,-0.46,0.2,0.56
17.243726015090942,0.02,-0.3,-0.45,0.54
17.24474287033081,-0.76,0.12,-0.71,1.04
17.259706020355225,-1.37,1.07,-0.1,1.74
17.261157989501953,-0.82,1.06,-0.07,1.34
17.305490970611572,-0.71,0.82,-0.4,1.15
17.30666494369507,-0.98,0.9,-0.55,1.43
17.307684898376465,-1.21,1.03,-0.57,1.68
17.327596187591553,-1.46,1.13,-0.45,1.9
17.328633069992065,-1.6,0.98,-0.39,1.91
17.34363889694214,-1.84,1.08,-0.37,2.16
17.344681978225708,-2.15,1.33,-0.56,2.58
17.360869884490967,-2.72,1.55,-1.31,3.39
17.362348079681396,-3.33,1.77,-2.18,4.35
17.375874996185303,-3.51,2.25,-2.95,5.1
17.405674934387207,-3.12,2.9,-3.27,5.37
17.406917095184326,-2.65,3.53,-3.47,5.61
17.407740116119385,-3.33,4.58,-3.61,6.71
17.4274799823761,-5.21,6.72,-4.02,9.4
17.428515911102295,-6.97,7.8,-3.79,11.12
17.443716049194336,-8.39,7.94,-4.65,12.45
17.444732189178467,-9.59,8.32,-5.94,14.01
17.461130142211914,-9.28,8.18,-6.51,13.97
17.462570190429688,-8.05,8.47,-6.95,13.59
17.475425004959106,-7.02,9.38,-8.26,14.33
17.50515103340149,-7.07,10.99,-10.51,16.76
17.506600856781006,-7.0,12.08,-12.01,18.41
17.507501125335693,-2.3,16.31,-6.45,17.68
17.527719974517822,7.24,19.98,0.18,21.25
17.528759956359863,5.32,12.55,-3.34,14.03
17.543617963790894,-2.52,6.99,-8.34,11.16
17.54466199874878,-5.88,4.53,-7.36,10.45
17.560683965682983,5.13,4.9,-2.6,7.55
17.561697959899902,12.18,3.12,1.18,12.62
17.576366901397705,4.47,1.76,0.48,4.82
17.60400700569153,-4.67,3.5,-1.75,6.09
17.605163097381592,-7.24,2.49,-1.06,7.72
17.606021881103516,-5.96,-1.26,1.31,6.23
17.627686023712158,-4.68,-3.9,2.81,6.7
17.628743171691895,-4.76,-5.71,2.94,7.99
17.644010066986084,-5.71,-6.97,2.58,9.37
17.64500904083252,-6.76,-7.33,2.24,10.21
17.661232948303223,-7.61,-7.37,1.96,10.77
17.662291049957275,-8.23,-7.5,1.59,11.24
17.676280975341797,-8.34,-7.66,1.06,11.37
17.70547389984131,-7.88,-7.75,0.59,11.06
17.706668853759766,-7.53,-7.72,0.18,10.78
17.707481861114502,-7.41,-7.88,-0.03,10.81
17.727535009384155,-7.4,-8.2,-0.21,11.04
17.728584051132202,-7.66,-8.22,-0.67,11.25
17.743678092956543,-7.99,-8.05,-0.87,11.37
17.744711875915527,-8.23,-7.97,-0.86,11.48
17.760732173919678,-8.2,-7.87,-0.58,11.38
17.76175594329834,-7.81,-7.88,-0.24,11.09
17.776355981826782,-7.31,-7.85,-0.1,10.72
17.805211067199707,-6.71,-7.85,-0.21,10.32
17.806303024291992,-6.22,-7.76,-0.6,9.96
17.807108879089355,-5.63,-7.72,-1.23,9.63
17.827866077423096,-4.38,-7.68,-1.62,8.98
17.82889413833618,-2.62,-7.64,-1.15,8.15
17.844348907470703,-1.53,-7.82,-0.25,7.97
17.845380067825317,-0.88,-7.73,0.48,7.79
17.860893964767456,-0.77,-6.9,0.74,6.98
17.861947059631348,-0.17,-5.94,0.46,5.96
17.876442909240723,1.58,-5.16,0.46,5.41
17.905089855194092,3.42,-3.84,1.03,5.24
17.906208038330078,4.99,-2.16,1.22,5.57
17.907022953033447,6.34,0.01,2.01,6.65
17.928021907806396,7.02,2.15,2.81,7.86
17.9290828704834,6.91,4.15,3.0,8.6
17.94361114501953,7.33,6.09,3.18,10.04
17.9446759223938,8.49,7.5,3.57,11.87
17.960954189300537,9.6,7.95,3.22,12.87
17.962013959884644,10.39,7.68,1.62,13.02
17.976449966430664,10.42,7.17,-0.09,12.64
18.006906986236572,5.68,13.03,0.35,14.21
18.008152961730957,0.63,21.54,-5.23,22.17
18.008995056152344,8.69,30.1,-9.65,32.78
18.027656078338623,10.48,29.37,-8.55,32.33
18.028717041015625,7.99,24.41,-7.95,26.88
18.043878078460693,3.0,0.67,-1.84,3.58
18.044898986816406,1.46,-12.26,10.01,15.89
18.060823917388916,7.83,-13.35,9.42,18.11
18.06187915802002,8.24,-3.46,6.29,10.92
18.076375007629395,6.11,1.03,3.66,7.19
18.07782793045044,2.17,1.35,-3.1,4.01
18.124711990356445,-0.4,1.28,-5.3,5.46
18.12588405609131,-0.06,0.29,-1.03,1.07
18.126832962036133,0.9,-0.08,1.89,2.09
18.14488410949707,0.75,0.37,0.45,0.94
18.145933151245117,0.31,0.48,-1.5,1.6
18.16061305999756,0.58,0.16,-0.56,0.82
18.16167402267456,0.9,0.11,0.97,1.32
18.17741107940674,0.97,0.37,0.57,1.18
18.17864203453064,1.25,0.32,-0.93,1.59
18.19334101676941,1.73,-0.13,-2.08,2.7
18.224066972732544,1.95,-0.3,-1.59,2.53
18.225371837615967,1.68,-0.22,-0.44,1.75
18.22621488571167,1.0,-0.16,0.13,1.02
18.24465799331665,0.47,-0.12,0.35,0.59
18.245723962783813,0.46,0.02,0.53,0.7
18.26107096672058,0.44,-0.01,0.7,0.82
18.2621111869812,0.34,-0.05,0.75,0.82
18.277140140533447,0.38,-0.01,0.54,0.66
18.27821397781372,0.44,0.14,0.45,0.64
18.293983936309814,0.24,0.36,0.01,0.43
18.323561191558838,-0.16,0.47,-0.02,0.49
18.324635982513428,-0.62,0.08,0.21,0.65
18.32548189163208,-0.99,-0.25,-0.2,1.04
18.344523906707764,-0.56,-0.18,-0.38,0.7
18.345539093017578,0.23,-0.05,-0.37,0.43
18.361149072647095,0.33,0.08,-0.16,0.37
18.36216902732849,-0.01,0.1,0.16,0.18
18.37899398803711,-0.57,0.04,0.52,0.77
18.380470037460327,-1.2,-0.07,0.37,1.25
18.39371395111084,-1.46,0.18,0.32,1.5
18.42254114151001,-1.03,0.39,-0.08,1.1
18.423941135406494,-0.19,0.32,-0.87,0.94
18.424749851226807,0.03,0.2,-1.19,1.2
18.444714069366455,-0.32,0.06,-1.52,1.55
18.445784091949463,-0.78,0.3,-1.63,1.83
18.46125888824463,-1.05,0.69,-1.14,1.69
18.462265014648438,-1.37,0.91,-0.9,1.87
18.477354049682617,-1.93,0.87,-1.28,2.47
18.478405952453613,-2.16,0.8,-1.44,2.71
18.493515968322754,-1.96,0.99,-1.5,2.65
18.52305006980896,-1.57,1.18,-2.03,2.82
18.524147987365723,-1.5,1.27,-2.39,3.09
18.524971961975098,-1.41,1.36,-2.33,3.04
18.54474902153015,-1.7,1.7,-2.22,3.27
18.545819997787476,-2.7,2.63,-1.55,4.07
18.561246871948242,-3.3,3.34,-1.35,4.88
18.562254905700684,-4.17,2.87,-2.38,5.59
18.578070163726807,-4.68,3.58,-1.97,6.21
18.579540967941284,-4.69,4.18,-2.4,6.72
18.5937819480896,-5.05,5.55,-2.9,8.04
18.622644901275635,-6.4,8.14,-3.53,10.93
18.62383794784546,-8.14,9.87,-4.31,13.5
18.6246440410614,-9.39,9.72,-5.34,14.53
18.644700050354004,-9.1,8.66,-6.0,13.92
18.64576292037964,-8.16,9.49,-6.82,14.25
18.661112070083618,-7.38,10.32,-7.39,14.68
18.662220001220703,-6.61,9.2,-6.64,13.13
18.677464962005615,-6.1,10.57,-7.8,14.48
18.678524017333984,-5.9,13.19,-9.98,17.56
18.69375514984131,-0.14,17.03,-6.24,18.13
18.722264051437378,7.42,18.15,-1.92,19.7
18.72355890274048,3.18,8.89,-4.14,10.3
18.724339962005615,-4.5,1.5,-5.57,7.31
18.745028018951416,-2.4,0.41,-3.29,4.09
18.7461040019989,8.46,0.47,-1.13,8.54
18.761495113372803,6.46,-1.43,-1.26,6.73
18.76248598098755,-1.37,-1.24,-2.26,2.91
18.777909994125366,-6.53,-1.06,-2.25,6.98
18.778932094573975,-7.74,-1.95,-0.46,7.99
18.79316806793213,-6.82,-3.79,1.49,7.94
18.82006311416626,-5.7,-5.51,2.11,8.2
18.821166038513184,-5.46,-6.68,1.97,8.84
18.822007179260254,-5.92,-7.06,1.8,9.38
18.82450819015503,-6.53,-7.16,1.65,9.83
18.825692176818848,-7.04,-7.43,1.5,10.34
18.827039003372192,-7.29,-7.73,1.2,10.69
18.828187942504883,-7.38,-7.72,0.8,10.7
18.82946801185608,-7.39,-7.51,0.41,10.54
18.831858158111572,-7.37,-7.23,0.13,10.32
18.84190797805786,-7.05,-7.1,0.0,10.0
18.851839065551758,-6.79,-7.05,-0.16,9.78
18.878731966018677,-6.48,-7.05,-0.17,9.57
18.879647970199585,-5.98,-7.1,-0.08,9.28
18.881400108337402,-5.47,-7.05,-0.05,8.92
18.893686056137085,-5.17,-6.95,0.08,8.66
18.901448011398315,-5.23,-6.84,0.06,8.61
18.911221981048584,-5.16,-6.73,0.01,8.48
18.921213150024414,-5.11,-6.57,-0.08,8.32
18.931171894073486,-4.92,-6.36,0.13,8.04
18.94123411178589,-4.12,-6.2,0.98,7.5
18.951146125793457,-2.87,-6.28,1.58,7.08
18.980736017227173,-1.64,-6.11,1.06,6.41
18.981826066970825,-0.28,-5.35,-0.13,5.35
18.982666969299316,0.96,-4.44,-0.47,4.56
18.9952130317688,2.22,-3.36,-0.03,4.02
19.000408172607422,3.51,-2.45,0.68,4.33
19.01103901863098,4.53,-1.2,1.55,4.93
19.020570993423462,5.74,0.8,2.21,6.2
19.03033995628357,7.38,2.69,3.04,8.42
19.040462970733643,8.49,3.58,4.47,10.24
19.050489902496338,9.04,3.73,5.87,11.4
19.082764148712158,10.06,3.68,6.26,12.4
19.08382511138916,11.33,3.62,5.08,12.93
19.084666967391968,11.9,4.07,3.22,12.98
19.09509301185608,11.55,4.25,1.69,12.42
19.09976816177368,10.94,4.25,0.74,11.75
19.11056900024414,6.31,10.45,0.36,12.21
19.119888067245483,4.45,14.98,-9.79,18.44
19.13051414489746,8.13,20.88,-15.14,27.04
19.140527963638306,0.73,33.2,-6.19,33.78
19.149467945098877,-5.86,30.87,1.29,31.44
19.178871154785156,-0.94,4.22,1.85,4.7
19.179965019226074,4.6,-10.58,5.75,12.89
19.180796146392822,7.68,-12.72,8.94,17.34
19.195621013641357,9.0,-5.35,5.7,11.92
19.19901704788208,6.15,0.0,3.19,6.92
19.210049152374268,2.65,-0.12,3.37,4.28
19.219073057174683,0.32,-0.32,3.0,3.03
19.228919982910156,-0.83,-0.51,0.62,1.15
19.23888897895813,-0.81,-0.19,-1.22,1.47
19.24910593032837,0.37,0.71,-1.37,1.58
19.28632116317749,1.08,1.66,-0.94,2.19
19.28747797012329,0.71,1.45,-0.73,1.77
19.28827404975891,0.24,0.39,-0.74,0.87
19.290751934051514,-0.01,0.2,-1.1,1.11
19.311009883880615,0.29,0.4,-1.3,1.39
19.3120219707489,1.11,0.25,-1.88,2.19
19.327614068984985,1.35,-0.19,-2.32,2.69
19.3286349773407,0.77,-0.19,-1.89,2.04
19.34375500679016,0.13,0.06,-0.74,0.75
19.348206996917725,-0.14,-0.01,0.38,0.4
19.387794971466064,-0.13,-0.32,0.58,0.67
19.388970851898193,0.23,-0.29,0.64,0.73
19.389933109283447,0.69,0.11,0.75,1.02
19.39183807373047,0.94,0.29,0.53,1.11
19.397454977035522,0.62,0.3,-0.09,0.69
19.40788507461548,0.12,0.38,-0.65,0.76
19.417577981948853,-0.21,0.38,-0.82,0.92
19.427732944488525,-0.36,0.29,-0.66,0.8
19.437439918518066,-0.54,0.0,-0.51,0.74
19.447453022003174,-0.73,-0.27,-0.45,0.89
19.483761072158813,-0.7,-0.29,-0.19,0.78
19.485092163085938,-0.34,-0.21,0.04,0.4
19.48603916168213,0.18,-0.31,0.5,0.61
19.492825031280518,0.53,-0.34,0.61,0.87
19.49690294265747,0.28,-0.38,0.21,0.51
19.511234045028687,0.05,-0.28,0.02,0.28
19.51686191558838,0.14,0.07,-0.02,0.15
19.52785301208496,0.08,0.24,-0.15,0.29
19.536728858947754,-0.23,0.14,-0.42,0.49
19.546987056732178,-0.49,-0.02,-0.49,0.69
19.583775997161865,-0.6,-0.03,-0.56,0.82
19.585183143615723,-0.55,0.19,-0.83,1.01
19.586318016052246,-0.37,0.29,-1.02,1.12
19.595497131347656,-0.61,0.35,-0.99,1.21
19.596474170684814,-1.24,0.5,-1.04,1.69
19.611098051071167,-1.4,0.51,-0.92,1.75
19.615929126739502,-1.28,0.42,-0.75,1.54
19.628182888031006,-1.22,0.9,-0.49,1.59
19.635767936706543,-1.21,1.47,-0.2,1.91
19.645864963531494,-1.43,1.9,-0.27,2.39
19.65608310699463,-1.72,2.07,-1.02,2.87
19.689069986343384,-2.87,2.28,-1.45,3.94
19.690261840820312,-3.11,2.91,-1.28,4.44
19.69124698638916,-2.97,2.78,-2.22,4.63
19.712337017059326,-3.14,3.18,-2.77,5.25
19.713375091552734,-3.61,3.21,-3.14,5.76
19.728039979934692,-4.13,3.18,-2.8,5.91
19.729086875915527,-5.12,5.45,-2.73,7.96
19.745342016220093,-6.58,8.11,-3.02,10.87
19.74683904647827,-7.95,8.98,-4.02,12.64
19.76093816757202,-8.49,9.82,-5.65,14.15
19.790958881378174,-7.86,9.18,-5.79,13.4
19.79229497909546,-7.18,9.83,-6.32,13.71
19.793289184570312,-7.48,10.94,-7.27,15.11
19.812092065811157,-8.92,12.35,-8.75,17.56
19.813138008117676,-10.47,12.05,-10.87,19.31
19.82822895050049,-10.78,10.9,-10.98,18.85
19.829282999038696,-4.72,16.24,-4.27,17.44
19.842233180999756,6.42,22.1,2.0,23.1
19.844508171081543,6.73,13.01,-1.59,14.73
19.860844135284424,-0.32,4.02,-6.63,7.76
19.889183044433594,-4.37,1.05,-7.55,8.78
19.89059805870056,5.76,1.94,-4.6,7.62
19.891584873199463,11.97,1.5,-1.33,12.13
19.91225504875183,5.83,0.3,-1.58,6.04
19.913299083709717,-1.31,1.16,-3.26,3.69
19.928298950195312,-5.09,0.35,-3.23,6.03
19.929338932037354,-6.1,-2.15,-1.25,6.58
19.94518804550171,-5.42,-5.04,0.77,7.44
19.946653842926025,-4.33,-7.28,1.96,8.69
19.961040019989014,-3.87,-8.57,2.26,9.67
19.990473985671997,-4.01,-9.37,1.94,10.37
19.99187707901001,-4.47,-9.63,1.47,10.71
19.992927074432373,-4.84,-9.72,0.99,10.9
20.012085914611816,-5.35,-9.64,0.19,11.02
20.01311206817627,-5.87,-9.1,-0.66,10.84
20.028306007385254,-6.22,-8.75,-0.87,10.77
20.029347896575928,-6.25,-8.84,-0.61,10.84
20.045212030410767,-6.73,-8.96,-0.71,11.22
20.04670000076294,-7.34,-8.94,-0.66,11.58
20.060958862304688,-8.24,-8.67,-0.1,11.96
20.089977025985718,-8.71,-8.75,0.92,12.38
20.09136199951172,-8.57,-9.45,1.7,12.87
20.092172145843506,-8.4,-9.95,1.95,13.16
20.111961841583252,-8.76,-10.12,2.09,13.54
20.11302089691162,-9.31,-10.22,2.19,13.99
20.128391981124878,-9.29,-10.21,2.19,13.97
20.12932586669922,-8.47,-9.96,2.19,13.25
20.14512801170349,-6.88,-9.67,2.15,12.06
20.146579027175903,-5.01,-9.45,2.12,10.9
20.16082501411438,-3.34,-9.16,2.05,9.96
20.18852710723877,-1.97,-8.42,0.81,8.68
20.189897060394287,-0.59,-6.94,-1.19,7.06
20.19081401824951,1.54,-5.22,-2.53,6.0
20.19291591644287,4.86,-3.83,-3.11,6.92
20.201711177825928,8.66,-1.71,-2.81,9.26
20.211549997329712,11.49,1.03,-2.21,11.74
20.22139596939087,12.02,3.12,-1.57,12.51
20.23158311843872,10.52,4.06,-0.43,11.28
20.241569995880127,8.7,5.47,2.17,10.5
20.25150203704834,7.12,7.65,5.22,11.68
20.288068056106567,5.59,9.17,6.39,12.49
20.28949213027954,1.22,18.0,7.48,19.53
20.290506839752197,-4.57,40.03,0.95,40.3
20.29268503189087,17.07,57.71,-11.63,61.29
20.30144500732422,30.94,28.83,-17.3,45.69
20.31090998649597,7.08,3.05,-15.69,17.48
20.32083797454834,-12.88,-10.87,1.27,16.9
20.330750942230225,2.53,-21.73,13.48,25.69
20.340938091278076,14.04,-12.71,11.38,22.09
20.350730895996094,12.34,1.55,6.69,14.12
20.387168884277344,6.96,4.85,-4.26,9.49
20.388402938842773,2.88,2.74,-5.86,7.08
20.389183044433594,0.54,-0.11,-4.4,4.43
20.392043113708496,-0.24,-0.78,-1.52,1.72
20.400063037872314,-1.53,1.51,3.55,4.15
20.409882068634033,-3.71,1.92,2.8,5.02
20.42012310028076,-3.34,0.37,-0.48,3.39
20.430076122283936,-0.1,-0.14,-0.69,0.71
20.439944982528687,1.97,0.01,-1.12,2.26
20.45001196861267,1.73,0.6,-1.85,2.6
20.460041999816895,1.2,0.28,-2.29,2.6
20.492311000823975,1.76,-0.33,-2.04,2.71
20.49348211288452,2.7,-0.5,-0.29,2.76
20.494532108306885,2.03,-0.22,1.35,2.44
20.51267099380493,0.63,0.01,1.68,1.79
20.513707160949707,-0.28,0.07,1.47,1.49
20.52829098701477,-0.76,0.12,1.41,1.6
20.529314041137695,-0.74,0.27,0.71,1.06
20.545217990875244,-0.42,0.27,-0.78,0.92
20.549100875854492,0.12,0.23,-1.83,1.84
20.559375047683716,0.73,0.3,-1.56,1.74
20.59077215194702,1.07,0.36,-0.98,1.49
20.592180013656616,0.89,-0.02,-0.96,1.3
20.593195915222168,0.25,-0.17,-0.63,0.69
20.612207889556885,-0.59,0.05,-0.27,0.65
20.6132230758667,-1.42,0.2,-0.59,1.55
20.628679037094116,-1.97,0.16,-0.81,2.13
20.629726886749268,-1.73,0.14,-0.79,1.9
20.645612001419067,-0.91,0.37,-0.63,1.16
20.64843988418579,-0.29,0.56,-0.54,0.83
20.660951137542725,0.07,0.45,-0.44,0.63
20.689882040023804,-0.01,0.48,-0.33,0.58
20.691277027130127,-0.36,0.64,-0.26,0.77
20.692307949066162,-0.8,0.55,-0.32,1.02
20.712270975112915,-1.09,0.41,-0.45,1.24
20.713320016860962,-1.17,0.59,-0.68,1.47
20.72808313369751,-1.27,0.82,-0.67,1.65
20.729105949401855,-1.6,1.33,-0.4,2.11
20.745763063430786,-1.92,1.65,-0.01,2.53
20.747570037841797,-1.82,1.56,0.21,2.4
20.761062145233154,-1.92,1.46,-0.11,2.41
20.789726972579956,-2.1,1.39,-0.51,2.56
20.79113507270813,-2.02,1.29,-0.89,2.55
20.79215097427368,-1.77,1.4,-1.32,2.61
20.81266498565674,-1.7,1.5,-1.54,2.74
20.81372594833374,-1.84,1.63,-1.75,3.01
20.828583002090454,-1.97,1.91,-1.87,3.32
20.829609870910645,-2.23,1.97,-1.96,3.56
20.845784187316895,-2.7,2.06,-1.83,3.85
20.84724497795105,-3.13,2.33,-1.78,4.28
20.861836910247803,-3.76,3.09,-1.97,5.25
20.894458055496216,-4.92,4.7,-2.56,7.26
20.895856857299805,-6.25,6.92,-3.51,9.96
20.89688801765442,-7.17,8.47,-3.98,11.78
20.9127140045166,-8.2,9.8,-5.58,13.94
20.913778066635132,-8.66,10.5,-7.08,15.34
20.928653955459595,-8.02,9.34,-7.04,14.18
20.929697036743164,-7.76,8.52,-7.48,13.73
20.945706844329834,-7.63,10.14,-8.07,15.03
20.947201013565063,-7.39,12.96,-8.7,17.27
20.96161198616028,-3.94,15.97,-6.8,17.79
20.993826866149902,4.74,20.21,-1.66,20.82
20.995259046554565,4.55,14.73,-3.72,15.85
20.996288061141968,-2.38,7.27,-6.99,10.36
21.01296615600586,-6.61,3.32,-5.53,9.23
21.013993978500366,4.81,2.29,-1.48,5.52
21.028801918029785,13.63,1.57,1.16,13.76
21.03031897544861,6.36,0.71,-0.56,6.42
21.045685052871704,-1.27,2.08,-2.89,3.78
21.047168970108032,-4.61,1.52,-2.82,5.61
21.06141996383667,-5.65,-0.53,-0.53,5.69
21.093499183654785,-5.39,-2.97,1.61,6.36
21.094895839691162,-4.8,-4.96,2.55,7.35
21.09593105316162,-5.09,-6.11,2.69,8.39
21.113095998764038,-6.0,-6.62,2.63,9.31
21.114125967025757,-7.06,-6.97,2.89,10.33
21.128096103668213,-7.82,-7.38,3.07,11.18
21.12914204597473,-8.31,-7.81,2.85,11.75
21.14581298828125,-8.61,-8.13,2.36,12.07
21.147279024124146,-8.73,-8.16,1.92,12.1
21.161365032196045,-8.69,-8.21,1.53,12.05
21.19273614883423,-8.51,-8.32,1.04,11.94
21.194225072860718,-8.23,-8.28,0.42,11.68
21.19524908065796,-7.68,-8.11,-0.26,11.17
21.212980031967163,-6.76,-7.88,-0.59,10.39
21.21400499343872,-5.86,-7.79,-0.67,9.77
21.22848415374756,-5.12,-7.89,-0.83,9.44
21.229531049728394,-4.63,-8.01,-1.03,9.3
21.24593210220337,-4.03,-8.05,-1.07,9.06
21.247400999069214,-3.71,-8.09,-1.29,8.99
21.261611938476562,-3.45,-8.19,-1.35,8.98
21.263668060302734,-3.15,-8.22,-1.02,8.86
21.307601928710938,-2.76,-8.23,-0.4,8.68
21.308817863464355,-2.43,-8.27,0.02,8.61
21.309811115264893,-1.99,-8.22,0.03,8.45
21.33104705810547,-1.23,-7.83,0.69,7.95
21.33213996887207,-0.81,-7.14,2.26,7.53
21.345174074172974,-0.94,-6.06,3.39,7.0
21.346683979034424,-1.07,-4.29,3.79,5.82
21.362743854522705,-0.36,-1.69,4.34,4.67
21.364211082458496,1.56,0.51,4.76,5.03
21.37801504135132,3.71,1.53,4.6,6.1
21.408406019210815,5.49,2.62,4.06,7.31
21.409797191619873,7.16,3.87,3.19,8.74
21.41080403327942,8.97,5.11,1.62,10.44
21.42940902709961,11.22,6.51,-0.04,12.97
21.430458068847656,13.1,7.61,-1.81,15.25
21.4455509185791,13.01,8.13,-2.97,15.62
21.446568965911865,10.34,8.56,-2.87,13.72
21.462738037109375,1.8,18.57,-2.68,18.84
21.46425199508667,7.41,26.32,-12.27,29.97
21.475762844085693,13.9,33.17,-9.51,37.2
21.504868030548096,6.54,26.64,-5.5,27.97
21.506224155426025,-0.48,10.68,-5.14,11.86
21.5072021484375,-2.2,-7.06,3.48,8.17
21.50942087173462,1.08,-14.54,9.79,17.56
21.51162600517273,5.05,-10.15,6.64,13.13
21.52183485031128,5.88,-0.88,4.27,7.31
21.531924962997437,5.64,2.18,4.74,7.68
21.54163694381714,4.85,1.29,3.31,6.01
21.55150318145752,3.31,-0.27,-0.16,3.32
21.561401844024658,1.5,-0.49,-1.83,2.41
21.592573165893555,0.77,0.13,-1.07,1.32
21.59372901916504,0.74,0.98,0.46,1.31
21.59473705291748,0.45,0.69,0.88,1.2
21.612913131713867,-0.23,0.19,0.03,0.29
21.613999843597412,-0.56,0.3,-0.75,0.98
21.62911295890808,-0.2,0.35,-1.13,1.19
21.630728006362915,0.59,0.18,-1.41,1.53
21.64599895477295,1.15,-0.03,-1.74,2.08
21.65069818496704,1.1,-0.04,-1.84,2.14
21.660789012908936,0.55,0.22,-1.35,1.47
21.697193145751953,-0.21,0.31,-0.48,0.6
21.698338985443115,-0.97,0.05,0.26,1.0
21.69913387298584,-1.1,-0.07,0.22,1.12
21.713134050369263,-0.42,0.07,0.02,0.42
21.714215993881226,0.26,0.22,0.54,0.63
21.729025840759277,0.3,0.34,0.71,0.84
21.73006296157837,0.05,0.28,0.08,0.29
21.74564790725708,0.19,0.13,-0.52,0.56
21.74997615814209,0.16,-0.03,-0.77,0.78
21.761620044708252,-0.08,-0.14,-1.16,1.17
21.795860052108765,-0.08,0.0,-1.13,1.13
21.79717206954956,-0.03,0.38,-0.73,0.82
21.798173904418945,-0.16,0.41,-0.37,0.57
21.813218116760254,-0.09,0.25,0.03,0.26
21.814277172088623,-0.04,0.08,0.39,0.4
21.829341888427734,-0.1,0.02,0.26,0.27
21.830388069152832,-0.13,0.23,0.1,0.28
21.846163988113403,-0.09,0.53,-0.1,0.54
21.849375009536743,-0.25,0.49,-0.42,0.69
21.86051893234253,-0.27,0.34,-0.61,0.74
21.8961181640625,-0.25,0.07,-0.45,0.51
21.897468090057373,-0.52,-0.07,-0.33,0.61
21.898494958877563,-0.83,-0.02,-0.31,0.88
21.913259029388428,-1.0,-0.01,-0.29,1.04
21.91431999206543,-1.02,0.17,-0.3,1.07
21.92905616760254,-1.13,0.5,-0.38,1.29
21.930126190185547,-1.33,0.87,-0.47,1.65
21.94619607925415,-1.27,1.1,-0.4,1.72
21.948448181152344,-1.07,1.1,-0.33,1.56
21.96165704727173,-1.19,0.96,-0.95,1.8
21.996150016784668,-1.63,0.6,-1.67,2.4
21.99752187728882,-2.05,1.14,-1.96,3.05
21.99855613708496,-1.95,1.94,-1.84,3.3
22.013349056243896,-2.09,2.04,-1.76,3.4
22.01437497138977,-2.58,2.4,-1.7,3.91
22.0290470123291,-3.3,2.85,-1.7,4.68
22.03004217147827,-3.66,3.48,-1.57,5.28
22.046124935150146,-3.85,4.21,-1.41,5.87
22.047850131988525,-4.65,5.41,-1.76,7.34
22.06190013885498,-5.76,6.58,-2.15,9.0
22.067967891693115,-7.14,7.56,-2.75,10.75
22.108052968978882,-8.51,8.63,-4.03,12.77
22.109268188476562,-9.4,9.03,-5.81,14.27
22.110275983810425,-9.53,8.59,-6.91,14.57
22.129826068878174,-8.96,8.33,-7.16,14.17
22.13089609146118,-7.92,8.1,-6.48,13.05
22.146234035491943,-7.34,8.31,-6.56,12.88
22.14769697189331,-8.58,9.02,-8.28,14.95
22.16312313079834,-9.93,11.66,-8.29,17.41
22.164656162261963,-4.15,17.97,-1.92,18.54
22.177291870117188,4.27,19.37,2.22,19.95
22.206921100616455,1.87,10.28,-2.6,10.76
22.208359003067017,-3.62,5.78,-8.04,10.54
22.209383964538574,-5.38,3.77,-6.7,9.38
22.22986888885498,6.6,2.64,-1.58,7.28
22.230918884277344,13.87,1.93,2.08,14.15
22.246013164520264,6.74,0.19,-0.92,6.8
22.247068881988525,-0.73,1.11,-3.86,4.08
22.263176918029785,-4.69,0.2,-4.14,6.25
22.264621019363403,-5.67,-1.85,-2.78,6.58
22.278547048568726,-4.93,-3.53,-0.69,6.1
22.306658029556274,-4.36,-5.21,0.85,6.84
22.308083057403564,-4.43,-6.58,1.58,8.08
22.309067010879517,-4.78,-7.47,1.57,9.0
22.331159114837646,-5.17,-8.13,1.66,9.77
22.332244873046875,-5.49,-8.75,2.03,10.52
22.34586191177368,-6.13,-9.34,2.23,11.39
22.346901893615723,-6.74,-9.71,2.31,12.04
22.36315393447876,-7.47,-9.58,1.94,12.3
22.364654064178467,-7.83,-9.12,1.34,12.09
22.378715991973877,-7.8,-8.54,0.67,11.58
22.407323837280273,-7.21,-8.31,0.12,11.0
22.408655166625977,-6.41,-8.2,-0.33,10.41
22.409651041030884,-5.67,-8.11,-0.54,9.91
22.42974305152893,-5.43,-8.09,-0.73,9.77
22.43080711364746,-5.09,-8.17,-0.72,9.65
22.44624090194702,-4.66,-8.28,-0.67,9.52
22.44725203514099,-4.19,-8.5,-0.59,9.49
22.463582038879395,-3.66,-8.68,-0.67,9.44
22.465001106262207,-3.29,-8.54,-0.94,9.19
22.47859287261963,-2.83,-8.25,-0.99,8.77
22.505959033966064,-2.05,-8.26,-0.09,8.51
22.507358074188232,-1.04,-8.56,1.15,8.69
22.50840401649475,-0.85,-8.29,1.7,8.5
22.510305881500244,-1.58,-7.31,1.68,7.66
22.513969898223877,-2.21,-5.89,2.21,6.66
22.524156093597412,-1.75,-4.45,2.67,5.47
22.53412103652954,0.24,-3.01,2.83,4.13
22.543864011764526,3.14,-1.78,2.9,4.63
22.55414605140686,5.53,-0.74,2.52,6.12
22.564117908477783,6.7,0.58,1.6,6.91
22.599761962890625,7.19,2.62,0.39,7.66
22.601001024246216,7.32,4.88,-1.4,8.9
22.601930141448975,7.3,6.78,-1.89,10.14
22.61313486099243,8.43,6.91,-0.92,10.93
22.614219188690186,10.02,5.42,-0.59,11.4
22.628611087799072,11.05,5.02,-0.87,12.16
22.633233070373535,9.03,10.13,-0.62,13.58
22.64586114883423,3.04,22.49,-3.22,22.92
22.653286933898926,9.01,35.55,-1.61,36.7
22.663312911987305,12.2,31.16,0.72,33.47
22.699389934539795,3.47,12.4,-7.15,14.72
22.700675010681152,-1.65,6.16,-3.31,7.18
22.70150399208069,1.33,-5.3,4.02,6.78
22.71379804611206,3.14,-9.06,6.76,11.73
22.714902877807617,4.46,-3.13,6.11,8.18
22.729552030563354,4.53,-0.14,3.21,5.55
22.73242497444153,2.8,-0.28,0.38,2.83
22.746033191680908,1.31,-0.1,-1.67,2.12
22.752475023269653,1.37,-0.02,-2.05,2.46
22.762516021728516,1.72,0.26,-1.04,2.02
22.799487113952637,1.42,0.34,-0.42,1.51
22.80136489868164,0.81,0.55,-0.86,1.3
22.802371978759766,0.06,0.63,-1.25,1.4
22.81362295150757,-0.56,0.53,-0.75,1.07
22.814691066741943,-0.65,0.4,-0.29,0.81
22.829721927642822,-0.16,0.22,0.02,0.27
22.831685066223145,0.58,0.07,-0.08,0.58
22.846266984939575,0.97,0.08,-0.61,1.14
22.851559162139893,1.12,-0.13,-0.4,1.19
22.86175799369812,1.34,-0.31,0.46,1.45
22.871811866760254,1.22,-0.25,0.93,1.55
22.904181957244873,0.78,-0.16,0.92,1.21
22.90518283843994,0.49,0.0,0.58,0.75
22.90614891052246,0.52,0.12,0.07,0.53
22.91108989715576,0.76,0.12,-0.12,0.77
22.929764986038208,0.92,0.18,-0.18,0.95
22.93080496788025,0.74,0.28,-0.37,0.87
22.946271896362305,0.5,0.24,-0.59,0.8
22.950881958007812,0.44,0.18,-0.44,0.64
22.96171283721924,0.44,0.13,-0.19,0.49
22.971050024032593,0.23,0.15,-0.17,0.32
23.005640029907227,-0.04,0.1,-0.37,0.38
23.00679898262024,-0.32,0.21,-0.86,0.94
23.008005142211914,-0.43,0.19,-1.06,1.15
23.01029109954834,-0.32,0.27,-0.95,1.03
23.02051591873169,-0.43,0.39,-0.75,0.94
23.03035593032837,-0.88,0.37,-0.67,1.16
23.040125846862793,-1.37,0.18,-0.38,1.43
23.050251007080078,-1.62,0.14,0.18,1.63
23.060617923736572,-1.55,0.17,0.38,1.6
23.07010793685913,-1.24,0.1,0.12,1.24
23.10226011276245,-1.06,0.11,-0.23,1.09
23.103603839874268,-1.32,0.28,-0.21,1.36
23.10459613800049,-1.76,0.6,0.02,1.85
23.112380981445312,-1.68,0.92,-0.01,1.91
23.119595050811768,-1.28,1.02,-0.39,1.68
23.129391193389893,-0.8,1.12,-0.63,1.51
23.13944101333618,-0.26,1.06,-0.84,1.37
23.14928388595581,-0.04,0.95,-0.83,1.26
23.15996789932251,-0.3,0.9,-0.95,1.34
23.169591903686523,-0.78,0.95,-1.22,1.73
23.200893878936768,-0.88,1.22,-1.27,1.96
23.202250003814697,-0.95,1.47,-1.14,2.08
23.203309059143066,-1.35,1.66,-1.15,2.42
23.21387505531311,-2.09,1.71,-1.48,3.07
23.218850135803223,-2.84,1.68,-1.89,3.8
23.229194164276123,-3.48,1.69,-2.29,4.49
23.23898196220398,-4.51,2.17,-2.82,5.74
23.248445987701416,-5.58,3.67,-3.26,7.43
23.258984088897705,-6.68,6.42,-3.45,9.88
23.268493175506592,-8.22,8.77,-4.1,12.7
23.306539058685303,-9.58,9.48,-5.15,14.42
23.30850601196289,-10.03,9.07,-6.01,14.79
23.309555053710938,-9.51,8.21,-6.79,14.28
23.31164002418518,-8.57,8.15,-7.44,13.97
23.318016052246094,-7.08,8.34,-6.87,12.91
23.328279972076416,-5.18,9.46,-5.27,12.0
23.33808398246765,-4.26,11.77,-5.53,13.68
23.34804606437683,-2.35,17.03,-5.36,18.0
23.3590989112854,3.05,21.1,-3.75,21.64
23.36781406402588,1.63,14.79,-5.06,15.71
23.405513048171997,-3.28,8.43,-6.79,11.31
23.40686297416687,-6.45,4.66,-5.87,9.88
23.407835960388184,3.57,5.34,-3.01,7.09
23.410194873809814,11.29,6.35,-0.55,12.96
23.417593002319336,6.59,3.33,-0.46,7.39
23.427422046661377,-1.46,2.37,-1.53,3.17
23.437315940856934,-6.24,1.11,-0.93,6.4
23.447340965270996,-7.08,-1.26,0.75,7.23
23.45707106590271,-5.96,-3.74,2.44,7.44
23.467295169830322,-4.92,-5.67,3.38,8.23
23.50368905067444,-4.96,-7.04,3.48,9.28
23.505033016204834,-5.49,-8.01,3.27,10.24
23.50606393814087,-6.31,-8.74,2.9,11.16
23.50951600074768,-7.04,-9.09,2.3,11.72
23.517030000686646,-7.21,-9.22,1.56,11.8
23.52978515625,-6.85,-9.63,1.02,11.86
23.53662395477295,-6.35,-9.96,0.47,11.82
23.54669713973999,-6.17,-9.93,-0.19,11.69
23.556441068649292,-6.19,-9.8,-0.56,11.6
23.56604814529419,-6.42,-9.72,-0.91,11.68
23.601907968521118,-6.19,-9.79,-1.07,11.63
23.603154182434082,-5.81,-9.75,-1.33,11.42
23.603950023651123,-5.54,-9.68,-1.4,11.24
23.613137006759644,-5.31,-9.58,-1.44,11.04
23.615931034088135,-4.95,-9.41,-1.23,10.7
23.629090070724487,-4.56,-9.33,-0.82,10.41
23.63589096069336,-3.99,-9.39,-0.39,10.21
23.64660906791687,-3.94,-9.33,-0.29,10.13
23.655826091766357,-4.11,-9.09,-0.14,9.97
23.66554594039917,-4.38,-8.49,0.12,9.55
23.675850868225098,-4.51,-7.53,0.69,8.8
23.70797896385193,-4.21,-6.69,1.27,8.0
23.70915699005127,-3.8,-5.93,1.36,7.17
23.71015214920044,-3.31,-5.05,1.07,6.13
23.730759143829346,-2.32,-4.21,1.31,4.98
23.731832027435303,-0.31,-3.09,2.31,3.87
23.746482849121094,2.69,-2.03,3.06,4.55
23.747520923614502,5.38,-0.85,2.78,6.11
23.764041900634766,6.79,1.35,1.73,7.13
23.7655348777771,6.97,4.21,0.36,8.15
23.779242038726807,6.79,7.34,-0.11,9.99
23.80959987640381,7.79,9.81,0.68,12.54
23.811434030532837,10.18,9.94,2.01,14.36
23.81246304512024,12.81,8.88,2.4,15.77
23.830394983291626,14.36,8.23,1.52,16.62
23.831471920013428,13.43,7.78,-0.11,15.52
23.846588134765625,9.02,12.5,-0.36,15.41
23.8476619720459,3.95,18.24,-5.46,19.44
23.862791061401367,5.7,13.11,-10.54,17.76
23.864346027374268,-0.89,15.07,-9.14,17.64
23.876872062683105,-8.63,27.03,-4.18,28.68
23.906886100769043,-3.74,16.79,4.93,17.89
23.90839695930481,4.31,-3.39,6.52,8.51
23.909430027008057,9.15,-8.35,5.6,13.59
23.913511991500854,9.47,-7.56,2.99,12.48
23.92343306541443,6.67,-0.02,4.2,7.88
23.933629035949707,2.43,1.48,3.92,4.84
23.94373607635498,0.04,-0.19,2.11,2.11
23.953431129455566,0.19,-0.26,0.4,0.51
23.96322011947632,0.99,-0.12,-0.81,1.28
23.97330093383789,1.58,0.39,-2.23,2.76
24.006428003311157,1.89,1.04,-3.19,3.85
24.007370948791504,1.94,1.15,-2.92,3.68
24.0083589553833,1.41,0.79,-2.12,2.66
24.012830018997192,0.49,0.44,-1.24,1.4
24.02283811569214,0.2,-0.12,-0.42,0.48
24.032947063446045,0.82,-0.43,-0.09,0.93
24.04277801513672,1.05,-0.25,-0.03,1.07
24.052736043930054,0.49,0.12,-0.1,0.51
24.062551975250244,0.05,0.3,0.11,0.32
24.07273292541504,-0.14,0.25,0.6,0.66
24.111770153045654,-0.36,-0.01,0.83,0.9
24.1131010055542,-0.31,-0.17,0.57,0.67
24.114097118377686,0.12,-0.07,0.12,0.18
24.130688190460205,0.56,0.12,-0.21,0.61
24.13171696662903,0.87,0.24,-0.49,1.02
24.14651918411255,0.89,0.25,-0.57,1.08
24.147544860839844,0.55,0.1,-0.65,0.85
24.16373109817505,-0.04,0.02,-0.94,0.94
24.165113925933838,-0.55,0.06,-0.94,1.09
24.179162979125977,-0.76,0.1,-0.67,1.01
24.211717128753662,-0.91,0.05,-0.48,1.03
24.21304202079773,-1.06,0.1,-0.32,1.11
24.214055061340332,-1.08,0.24,-0.2,1.12
24.230520963668823,-1.01,0.28,-0.15,1.05
24.231570959091187,-1.11,0.23,-0.23,1.15
24.246773958206177,-1.08,0.17,-0.36,1.15
24.24773097038269,-0.88,0.13,-0.62,1.08
24.263856887817383,-0.51,0.13,-0.61,0.8
24.265220165252686,-0.1,0.14,-0.44,0.47
24.279704093933105,0.13,0.08,-0.54,0.56
24.308974981307983,-0.07,-0.03,-0.71,0.71
24.31028699874878,-0.78,-0.13,-1.15,1.39
24.31132411956787,-1.59,0.07,-1.58,2.24
24.330706119537354,-1.37,0.3,-0.9,1.66
24.331745147705078,-0.87,0.57,-0.32,1.08
24.33273196220398,-0.99,0.7,-0.41,1.27
24.340216159820557,-1.06,0.65,-0.28,1.27
24.350533962249756,-0.89,0.84,-0.42,1.29
24.360395908355713,-0.82,1.33,-1.28,2.01
24.370541095733643,-1.95,2.45,-1.28,3.38
24.407240867614746,-2.62,3.23,-0.42,4.18
24.408648014068604,-2.96,2.75,-1.0,4.16
24.409626007080078,-3.86,2.75,-1.39,4.93
24.430863857269287,-4.79,2.73,-1.68,5.76
24.431891918182373,-5.56,3.34,-1.85,6.74
24.446978092193604,-6.2,5.89,-3.05,9.07
24.448022842407227,-6.66,7.9,-4.22,11.16
24.464040994644165,-7.41,9.16,-5.55,13.02
24.465532064437866,-8.36,9.79,-6.92,14.61
24.479177951812744,-8.27,9.22,-6.79,14.12
24.480654001235962,-8.32,9.02,-6.81,14.03
24.525933980941772,-8.6,8.28,-6.46,13.57
24.527141094207764,-7.98,7.72,-5.45,12.36
24.52816915512085,-7.49,9.46,-6.37,13.64
24.5446879863739,-7.01,13.0,-8.76,17.17
24.545737981796265,-1.55,17.67,-4.9,18.4
24.56408405303955,7.12,16.99,0.15,18.42
24.565555095672607,5.2,7.83,-1.91,9.59
24.58047389984131,-2.46,2.41,-5.63,6.59
24.58196997642517,-1.25,1.78,-5.08,5.52
24.596312046051025,8.4,2.93,-2.49,9.23
24.62934398651123,7.67,2.06,-0.72,7.97
24.630645990371704,0.68,1.38,-1.5,2.14
24.631664991378784,-3.76,1.26,-2.1,4.48
24.64780306816101,-5.04,-0.27,-1.48,5.25
24.64887809753418,-4.89,-2.96,-0.56,5.74
24.663861989974976,-4.07,-4.92,-0.19,6.38
24.664917945861816,-3.62,-6.13,-0.04,7.11
24.680731058120728,-3.86,-7.11,0.14,8.09
24.682209968566895,-4.77,-7.88,0.37,9.21
24.696348190307617,-5.7,-8.61,0.65,10.34
24.72920298576355,-6.58,-9.17,0.64,11.3
24.730556964874268,-7.2,-9.58,0.6,11.99
24.731584072113037,-7.53,-9.62,0.61,12.23
24.747940063476562,-7.84,-9.49,0.61,12.32
24.74889087677002,-8.02,-9.27,0.47,12.26
24.764286041259766,-8.06,-9.05,0.27,12.12
24.765753030776978,-7.93,-8.83,-0.03,11.86
24.780767917633057,-7.53,-8.69,-0.34,11.5
24.782265186309814,-6.84,-8.72,-0.54,11.09
24.79649305343628,-5.79,-8.81,-0.46,10.55
24.826880931854248,-5.23,-8.8,-0.55,10.25
24.82873296737671,-4.87,-8.66,-0.53,9.94
24.8297700881958,-4.59,-8.5,-0.49,9.67
24.84740900993347,-4.33,-8.4,-0.21,9.45
24.848448991775513,-3.84,-8.34,0.29,9.18
24.86403203010559,-3.33,-8.2,0.62,8.87
24.865076065063477,-3.21,-7.49,0.8,8.18
24.88084316253662,-2.86,-6.68,0.88,7.31
24.88231611251831,-1.48,-5.83,1.46,6.18
24.896556854248047,0.45,-4.69,2.05,5.13
24.927597999572754,2.05,-3.38,2.06,4.45
24.928900003433228,2.64,-1.69,2.58,4.05
24.92991590499878,2.39,0.56,3.2,4.03
24.947890996932983,2.79,3.05,3.61,5.48
24.94893503189087,4.68,5.01,4.2,8.04
24.96404218673706,7.01,6.05,4.57,10.32
24.965080976486206,8.57,6.61,4.45,11.7
24.980792999267578,9.13,7.31,3.57,12.22
24.982283115386963,8.97,8.12,2.35,12.32
24.99633502960205,8.53,8.96,1.34,12.44
25.02729296684265,8.33,9.15,0.11,12.37
25.028625965118408,7.18,9.85,-0.58,12.2
25.029715061187744,1.26,18.33,-1.06,18.4
25.04773497581482,7.75,15.47,-9.84,19.9
25.048821926116943,12.85,12.69,-12.64,22.04
25.064108848571777,3.86,17.42,-10.34,20.62
25.06514000892639,-2.02,18.47,-3.88,18.98
25.080793857574463,-0.2,1.48,5.4,5.6
25.082233905792236,4.28,-7.73,10.34,13.6
25.09640407562256,9.67,-6.97,7.16,13.9
25.125908851623535,10.23,-3.4,1.31,10.85
25.127079010009766,5.95,0.41,1.42,6.13
25.12789011001587,2.15,1.52,2.94,3.94
25.1477210521698,0.14,-0.29,1.86,1.88
25.14877414703369,-0.82,-1.17,-0.64,1.56
25.16401505470276,-1.0,-0.2,-2.46,2.66
25.1650550365448,-0.79,1.09,-2.72,3.03
25.18096399307251,-0.66,1.81,-2.23,2.94
25.1824369430542,-0.41,1.35,-1.93,2.39
25.19658899307251,-0.39,0.63,-1.85,1.99
25.224289894104004,-0.44,0.3,-1.64,1.72
25.2256178855896,0.42,-0.17,-1.06,1.15
25.226426124572754,1.83,-0.48,-0.03,1.89
25.247848987579346,2.18,-0.33,0.32,2.22
25.24888515472412,1.2,-0.13,0.1,1.21
25.26529884338379,0.31,0.08,0.37,0.48
25.266342163085938,0.03,0.13,0.52,0.53
25.281249046325684,-0.04,-0.15,0.43,0.45
25.282750129699707,-0.15,-0.09,0.1,0.2
25.296667098999023,-0.29,0.19,-0.36,0.49
25.29815101623535,-0.08,0.24,-0.83,0.86
25.342597007751465,0.51,0.28,-1.16,1.29
25.343775987625122,0.87,0.3,-1.04,1.38
25.344780921936035,0.7,0.23,-0.72,1.03
25.364593029022217,0.01,0.15,-0.38,0.4
25.365646839141846,-0.83,0.11,0.02,0.83
25.380758047103882,-1.11,0.2,0.14,1.13
25.38218593597412,-1.02,0.13,0.2,1.04
25.39776086807251,-0.81,0.18,0.11,0.83
25.399209022521973,-0.55,0.43,-0.48,0.84
25.41347312927246,-0.23,0.78,-0.74,1.09
25.444314002990723,0.1,0.67,-0.75,1.01
25.44558596611023,0.13,0.15,-0.76,0.78
25.446572065353394,-0.58,-0.15,-0.5,0.78
25.464500904083252,-1.48,-0.24,-0.39,1.54
25.46554398536682,-1.77,0.1,-0.21,1.78
25.480371952056885,-1.33,0.53,0.26,1.45
25.481400966644287,-0.96,0.78,0.46,1.31
25.497318983078003,-0.9,0.75,0.05,1.17
25.4988009929657,-0.98,0.48,-0.32,1.13
25.513131141662598,-0.73,0.19,-0.56,0.93
25.542023181915283,-0.73,0.46,-0.85,1.21
25.543339014053345,-1.2,1.25,-1.13,2.06
25.54440402984619,-1.05,1.56,-1.12,2.18
25.564549922943115,-1.13,1.56,-1.16,2.24
25.565526962280273,-1.74,1.91,-1.14,2.82
25.58048701286316,-2.4,2.15,-0.89,3.34
25.58154010772705,-2.99,2.51,-1.23,4.09
25.597537994384766,-3.42,2.96,-1.97,4.93
25.59897804260254,-3.63,3.5,-2.4,5.58
25.61314296722412,-3.73,3.93,-2.56,5.99
25.641796112060547,-4.06,4.23,-2.29,6.29
25.643229007720947,-5.27,5.4,-2.4,7.91
25.64420986175537,-7.0,6.81,-3.06,10.23
25.664885997772217,-8.33,7.81,-3.67,11.99
25.66593885421753,-9.56,9.52,-4.72,14.29
25.680756092071533,-10.69,10.05,-6.18,15.92
25.681802988052368,-10.77,8.76,-7.52,15.78
25.698323965072632,-9.71,7.99,-7.88,14.83
25.699788093566895,-7.41,7.14,-7.41,12.68
25.712346076965332,-4.97,7.42,-7.61,11.73
25.740292072296143,-5.54,11.36,-8.23,15.08
25.741675853729248,-2.68,19.1,-5.13,19.95
25.742626190185547,4.24,21.7,-0.25,22.11
25.74467396736145,2.2,11.91,-3.38,12.57
25.745882034301758,-4.22,6.51,-7.82,11.01
25.7470440864563,-7.33,3.15,-6.82,10.49
25.749593019485474,4.15,2.58,-1.44,5.09
25.759783029556274,12.18,2.6,3.35,12.89
25.76991295814514,6.18,0.15,0.26,6.18
25.779755115509033,-0.81,0.81,-3.24,3.43
25.81234097480774,-4.8,0.02,-3.98,6.23
25.813315868377686,-5.97,-1.64,-2.84,6.81
25.814125061035156,-5.46,-3.25,-0.65,6.38
25.82981014251709,-4.92,-4.63,1.21,6.86
25.830883979797363,-5.2,-5.81,2.14,8.08
25.847413063049316,-5.86,-6.64,2.01,9.08
25.8489408493042,-6.09,-7.21,1.67,9.58
25.86450695991516,-6.15,-7.85,1.5,10.08
25.868792057037354,-6.07,-8.46,1.59,10.53
25.878840923309326,-6.03,-8.86,1.54,10.82
25.914167881011963,-6.35,-8.81,1.25,10.93
25.91524314880371,-6.73,-8.45,0.97,10.84
25.91604709625244,-6.98,-8.33,0.77,10.89
25.932029008865356,-6.97,-8.45,0.41,10.96
25.933062076568604,-6.76,-8.48,0.2,10.84
25.947365045547485,-6.68,-8.48,-0.06,10.79
25.948343992233276,-6.35,-8.58,-0.18,10.67
25.96432399749756,-5.72,-8.67,-0.32,10.39
25.96800708770752,-4.91,-8.73,-0.34,10.02
25.979916095733643,-4.38,-8.86,-0.61,9.9
26.015192985534668,-3.67,-8.86,-0.56,9.6
26.016417980194092,-3.42,-8.55,-0.6,9.22
26.017476081848145,-3.77,-8.36,-0.44,9.18
26.031874179840088,-4.02,-8.21,-0.13,9.14
26.03289794921875,-3.27,-7.65,0.35,8.32
26.04774808883667,-1.68,-6.92,1.34,7.24
26.048781871795654,-0.25,-6.5,2.34,6.91
26.064682006835938,0.8,-5.54,3.33,6.51
26.067224979400635,1.62,-4.27,4.39,6.33
26.080049991607666,1.84,-3.17,4.51,5.81
26.087520122528076,1.77,-1.32,3.92,4.49
26.125275135040283,2.54,1.42,3.51,4.55
26.126441955566406,4.52,3.86,3.55,6.92
26.127424001693726,6.81,5.42,3.31,9.31
26.14827585220337,8.91,6.76,2.53,11.46
26.149325847625732,10.85,7.63,0.49,13.27
26.163371086120605,11.17,8.55,-3.19,14.42
26.164411067962646,9.58,9.32,-5.9,14.6
26.181326866149902,10.86,11.18,-5.47,16.51
26.182836055755615,11.7,17.42,-3.68,21.3
26.194643020629883,13.68,23.08,-8.47,28.13
26.223304986953735,18.84,17.4,-3.75,25.91
26.224728107452393,8.99,17.32,-0.64,19.52
26.22581386566162,-6.73,18.66,-0.58,19.84
26.228335857391357,-11.84,12.76,5.01,18.11
26.23619508743286,-4.9,-1.25,6.77,8.45
26.24621605873108,1.11,-11.47,5.6,12.81
26.256232023239136,5.38,-10.74,6.18,13.5
26.266031980514526,7.57,-3.19,4.72,9.47
26.275879859924316,5.76,0.73,0.58,5.83
26.286005973815918,3.76,2.63,-4.18,6.2
26.319117069244385,3.45,2.04,-5.42,6.74
26.320589065551758,3.25,0.31,-3.35,4.67
26.32160711288452,2.88,-0.55,-0.67,3.0
26.332024097442627,2.45,0.1,0.92,2.61
26.335285186767578,0.52,0.74,0.99,1.34
26.347864151000977,-1.55,0.5,0.88,1.85
26.35542106628418,-1.84,0.6,0.9,2.13
26.365051984786987,-0.41,0.41,0.66,0.87
26.375399112701416,0.95,-0.29,-0.94,1.36
26.385298013687134,1.95,-0.39,-1.88,2.73
26.41782283782959,2.48,-0.16,-1.23,2.77
26.419137954711914,2.08,-0.13,-0.22,2.09
26.42015314102173,0.96,-0.17,0.41,1.05
26.43117618560791,0.05,-0.06,0.65,0.65
26.4346661567688,-0.08,0.05,0.81,0.81
26.446900844573975,0.07,0.13,0.45,0.47
26.454494953155518,0.16,0.21,-0.04,0.26
26.464712142944336,0.1,0.18,-0.53,0.56
26.474327087402344,0.14,0.22,-0.82,0.86
26.484445095062256,0.39,0.02,-1.0,1.07
26.521420001983643,0.63,-0.18,-0.9,1.11
26.522767066955566,0.62,-0.36,-0.53,0.89
26.52373504638672,0.24,-0.37,-0.39,0.58
26.527618885040283,-0.37,-0.2,-0.34,0.54
26.533727169036865,-0.72,0.1,-0.43,0.84
26.54793691635132,-0.73,0.3,-0.48,0.92
26.553956985473633,-0.58,0.52,-0.43,0.88
26.564571857452393,-0.46,0.67,-0.29,0.86
26.573730945587158,-0.48,0.74,-0.26,0.91
26.583238124847412,-0.79,0.82,-0.24,1.16
26.62023901939392,-1.1,0.55,-0.4,1.29
26.6212899684906,-1.36,0.19,-0.6,1.49
26.622194051742554,-1.65,0.65,-0.5,1.84
26.629499912261963,-2.03,1.15,-0.67,2.42
26.63289213180542,-2.58,2.04,-0.43,3.31
26.64797592163086,-2.54,2.06,-0.22,3.27
26.652996063232422,-2.16,1.39,-0.47,2.61
26.66462802886963,-1.72,1.16,-0.16,2.08
26.67303204536438,-1.42,0.88,0.06,1.67
26.682697057724,-1.33,0.69,-0.38,1.54
26.71893000602722,-1.35,0.73,-0.81,1.73
26.72023296356201,-1.39,0.91,-1.2,2.04
26.72108793258667,-1.58,1.22,-1.7,2.62
26.731989860534668,-1.99,1.57,-2.27,3.4
26.7330379486084,-2.66,1.88,-2.63,4.18
26.747990131378174,-3.32,2.26,-2.87,4.93
26.752182006835938,-4.03,2.95,-3.05,5.85
26.764480113983154,-4.84,3.51,-3.01,6.69
26.771964073181152,-5.88,4.75,-2.92,8.1
26.782222032546997,-7.23,7.34,-3.01,10.73
26.81965398788452,-8.44,9.17,-3.78,13.02
26.821075916290283,-9.49,10.13,-5.56,14.95
26.822053909301758,-9.75,10.2,-6.73,15.63
26.832106113433838,-8.82,8.98,-7.42,14.61
26.833194971084595,-7.46,8.64,-8.16,14.03
26.847979068756104,-6.4,9.99,-8.83,14.78
26.851433992385864,-6.78,12.48,-9.38,17.02
26.864899158477783,-3.76,15.18,-7.26,17.24
26.871299982070923,6.36,19.03,-1.87,20.15
26.882389068603516,5.92,15.17,-3.66,16.69
26.89144515991211,-1.97,8.43,-7.07,11.17
26.92161989212036,-7.89,2.43,-6.45,10.47
26.922802925109863,0.95,1.57,-1.0,2.08
26.92384386062622,10.51,1.28,2.16,10.8
26.9308340549469,3.43,-0.61,0.19,3.48
26.940825939178467,-3.71,1.57,-1.3,4.23
26.950937032699585,-5.42,1.03,-0.78,5.57
26.960672855377197,-4.78,-0.85,1.13,4.98
26.970476150512695,-3.71,-3.16,2.44,5.45
26.980842113494873,-3.15,-5.2,2.52,6.58
26.990705013275146,-3.39,-6.37,1.79,7.43
27.021322011947632,-3.48,-6.9,1.54,7.87
27.02250099182129,-3.95,-7.02,1.2,8.14
27.02382516860962,-4.34,-7.29,0.99,8.54
27.03135895729065,-4.94,-7.53,0.55,9.02
27.040223121643066,-5.08,-7.78,0.29,9.29
27.049916982650757,-4.74,-7.81,0.48,9.14
27.05996608734131,-4.9,-7.78,0.47,9.2
27.069754123687744,-5.4,-8.01,0.47,9.67
27.080284118652344,-6.13,-8.26,0.43,10.29
27.090103149414062,-6.42,-8.37,0.38,10.55
27.121471881866455,-6.25,-8.55,0.31,10.59
27.12288498878479,-5.88,-8.79,0.18,10.57
27.123992919921875,-5.61,-9.01,0.02,10.61
27.129148960113525,-5.36,-9.11,0.0,10.56
27.13929295539856,-5.12,-9.12,0.15,10.45
27.149203062057495,-4.91,-9.17,0.31,10.4
27.159065008163452,-4.74,-9.15,0.52,10.31
27.169032096862793,-4.56,-8.98,0.64,10.09
27.1791729927063,-4.27,-8.87,0.8,9.87
27.189239025115967,-3.82,-8.47,1.21,9.37
27.221373081207275,-3.28,-7.86,1.8,8.7
27.222670078277588,-2.8,-7.31,2.01,8.08
27.22357416152954,-2.57,-6.59,1.79,7.29
27.23214602470398,-2.57,-5.28,1.57,6.07
27.238368034362793,-2.4,-3.43,2.0,4.63
27.248458862304688,-1.22,-1.85,2.66,3.46
27.258373975753784,1.13,-0.47,3.22,3.44
27.268278121948242,3.82,1.08,3.48,5.27
27.278389930725098,5.93,3.08,2.88,7.27
27.288548946380615,7.16,5.79,1.74,9.37
27.326925039291382,8.78,8.36,0.67,12.14
27.328253030776978,11.09,9.25,-0.32,14.44
27.32927417755127,12.69,9.39,-1.12,15.82
27.34911799430847,12.7,10.04,-1.39,16.24
27.350141048431396,11.47,10.18,-1.11,15.37
27.362966060638428,6.02,16.5,-0.54,17.57
27.364025115966797,4.63,19.78,-7.13,21.52
27.38042902946472,11.93,22.53,-7.49,26.57
27.381922960281372,5.61,17.39,-2.44,18.43
27.396379947662354,-7.64,17.24,-1.35,18.9
27.42525005340576,-8.1,9.62,4.16,13.24
27.4266300201416,-0.21,-3.44,6.53,7.38
27.427536964416504,8.54,-4.41,6.95,11.86
27.448851108551025,11.08,-4.96,5.41,13.29
27.449918031692505,9.96,-2.18,4.8,11.26
27.465142011642456,6.35,0.33,2.85,6.96
27.46616792678833,3.46,-0.26,1.52,3.78
27.481858015060425,1.61,-0.62,-0.53,1.8
27.482894897460938,0.63,-0.04,-1.95,2.04
27.497822999954224,0.43,0.95,-1.71,2.0
27.526219844818115,0.54,1.3,-1.8,2.28
27.52735710144043,0.18,0.95,-2.55,2.72
27.528159141540527,-0.22,0.36,-2.18,2.22
27.54883098602295,0.16,0.11,-1.03,1.04
27.549823999404907,0.79,-0.2,-0.27,0.85
27.565304040908813,1.13,-0.32,0.13,1.18
27.566349029541016,1.07,-0.3,0.53,1.23
27.58176302909851,0.66,-0.25,0.68,0.98
27.58284616470337,0.11,0.08,0.62,0.63
27.597477912902832,-0.25,0.16,0.46,0.54
27.624490976333618,-0.05,-0.07,0.06,0.1
27.625622034072876,0.44,-0.2,-0.05,0.48
27.62640905380249,0.84,-0.14,0.32,0.9
27.628576040267944,0.85,-0.14,0.17,0.87
27.635464191436768,0.59,0.13,-0.26,0.65
27.64567804336548,0.33,0.26,-0.53,0.67
27.655606031417847,0.07,0.22,-0.82,0.85
27.665400981903076,-0.06,0.08,-0.82,0.82
27.675225973129272,-0.17,0.07,-0.58,0.6
27.685678005218506,-0.37,0.08,-0.42,0.56
27.695504188537598,-0.5,0.0,-0.23,0.55
27.72756290435791,-0.52,0.1,0.06,0.53
27.72877311706543,-0.41,0.18,0.19,0.48
27.729782104492188,-0.18,0.27,0.02,0.32
27.748748064041138,-0.14,0.33,-0.06,0.36
27.749760150909424,-0.31,0.33,0.0,0.45
27.764940977096558,-0.4,0.39,-0.02,0.55
27.765967845916748,-0.47,0.43,-0.25,0.68
27.78196096420288,-0.7,0.38,-0.34,0.86
27.784730911254883,-0.94,0.24,-0.28,1.0
27.795801162719727,-1.03,0.21,-0.32,1.09
27.82705783843994,-1.19,0.18,-0.62,1.35
27.828393936157227,-1.08,0.12,-0.83,1.36
27.829426050186157,-0.79,0.16,-1.07,1.33
27.848839044570923,-0.67,0.45,-1.21,1.45
27.849894046783447,-0.8,0.59,-1.39,1.7
27.865097999572754,-1.15,0.61,-1.26,1.81
27.86614418029785,-1.39,1.05,-0.94,1.97
27.88207507133484,-2.08,1.7,-0.11,2.68
27.88398003578186,-2.41,2.13,0.18,3.22
27.89775800704956,-2.69,2.25,-0.53,3.54
27.927975177764893,-3.01,2.39,-0.93,3.95
27.929383993148804,-3.32,2.23,-1.6,4.3
27.930410861968994,-3.52,2.2,-2.37,4.77
27.948902130126953,-3.62,2.33,-2.86,5.16
27.949974060058594,-3.75,2.52,-3.1,5.47
27.96536111831665,-4.12,3.51,-3.15,6.26
27.96641707420349,-5.11,6.04,-3.63,8.7
27.98169183731079,-6.25,7.83,-4.2,10.86
27.98321008682251,-6.97,8.96,-4.54,12.22
27.997736930847168,-8.11,10.51,-6.0,14.56
28.02778911590576,-8.96,9.99,-6.77,15.03
28.02907085418701,-9.13,7.94,-7.23,14.09
28.030098915100098,-8.29,7.68,-7.14,13.36
28.048941135406494,-7.35,8.98,-6.97,13.53
28.049973964691162,-7.1,10.17,-8.61,15.09
28.065155029296875,-6.18,11.43,-10.12,16.46
28.066235065460205,0.09,17.24,-3.76,17.64
28.080924034118652,8.63,20.39,1.22,22.17
28.08238410949707,4.8,11.15,-3.62,12.66
28.097787857055664,-3.97,3.53,-6.92,8.72
28.130403995513916,-3.62,0.76,-4.14,5.55
28.131804943084717,9.76,0.79,-1.14,9.85
28.132823944091797,9.96,-0.6,0.64,9.99
28.149284839630127,0.86,-0.28,-1.14,1.45
28.15028715133667,-5.08,0.38,-2.48,5.66
28.165526866912842,-6.72,-1.2,-1.49,6.98
28.166574001312256,-6.58,-3.23,0.45,7.34
28.182150840759277,-5.96,-4.75,1.6,7.78
28.18360996246338,-5.91,-5.74,1.89,8.45
28.197694063186646,-6.27,-6.4,1.7,9.11
28.22936201095581,-6.55,-6.84,1.52,9.59
28.230722904205322,-6.81,-7.23,1.43,10.03
28.231729984283447,-6.96,-7.5,1.29,10.31
28.2494158744812,-7.05,-7.71,0.85,10.48
28.2504620552063,-6.77,-7.85,0.38,10.37
28.265026092529297,-6.56,-7.66,-0.21,10.08
28.265984058380127,-6.56,-7.27,-0.63,9.81
28.28183102607727,-6.63,-7.02,-0.82,9.69
28.283187866210938,-6.56,-6.99,-0.82,9.62
28.29668092727661,-6.17,-7.05,-0.73,9.39
28.328575134277344,-5.68,-7.22,-0.66,9.21
28.329928874969482,-5.21,-7.36,-0.51,9.03
28.330952167510986,-4.57,-7.58,-0.14,8.85
28.349338054656982,-4.39,-7.65,0.11,8.82
28.35038709640503,-4.33,-7.74,0.39,8.87
28.363945960998535,-4.62,-7.7,0.52,8.99
28.364991188049316,-5.09,-7.55,0.61,9.12
28.38218402862549,-5.68,-7.18,1.18,9.23
28.383682012557983,-5.86,-6.65,2.66,9.25
28.398005962371826,-4.81,-6.27,4.35,9.02
28.42812490463257,-3.03,-5.95,4.29,7.93
28.429463863372803,-1.86,-4.94,2.88,6.01
28.43042302131653,-1.23,-3.12,2.58,4.23
28.431273937225342,0.41,-1.52,3.02,3.4
28.43963384628296,3.48,-0.24,3.53,4.96
28.44950819015503,6.54,0.67,4.41,7.91
28.45930814743042,8.44,1.42,5.08,9.95
28.46940517425537,9.2,2.36,5.13,10.79
28.480165004730225,9.46,3.64,4.81,11.21
28.48947501182556,10.55,4.61,4.16,12.24
28.49936604499817,12.2,4.88,2.64,13.4
28.531923055648804,13.13,5.75,0.93,14.36
28.5331289768219,13.09,6.73,-0.45,14.72
28.534152030944824,12.05,6.2,-1.2,13.6
28.548434019088745,9.07,7.97,-0.96,12.11
28.549521923065186,2.32,15.39,-4.76,16.27
28.565549850463867,3.84,17.35,-13.24,22.16
28.568604946136475,0.77,22.28,-13.15,25.88
28.58025097846985,-3.08,30.6,-2.85,30.88
28.58862590789795,-1.9,15.39,4.69,16.2
28.598453998565674,5.31,-5.01,7.8,10.68
28.630281925201416,11.29,-8.95,8.66,16.8
28.631574153900146,9.72,-7.1,5.16,13.09
28.632408142089844,5.15,-1.67,3.35,6.36
28.649567127227783,1.18,0.71,1.06,1.73
28.65061616897583,-0.43,0.56,0.31,0.77
28.66576910018921,-0.12,0.49,-0.31,0.59
28.66760802268982,0.98,-0.02,-0.13,0.98
28.682190895080566,2.02,0.25,-0.76,2.17
28.687808990478516,1.65,1.19,-2.64,3.33
28.698124885559082,0.62,1.28,-3.54,3.81
28.73126983642578,0.17,0.85,-2.55,2.69
28.732625007629395,0.42,-0.02,-0.74,0.85
28.733608961105347,1.01,-0.5,-0.09,1.13
28.749783039093018,1.19,-0.27,-0.31,1.25
28.750853061676025,0.82,0.16,-0.49,0.96
28.765725135803223,0.38,0.73,-0.1,0.82
28.766780853271484,-0.13,0.82,0.16,0.84
28.782819986343384,-0.89,0.36,-0.4,1.04
28.78718900680542,-1.37,0.08,-0.81,1.59
28.796913146972656,-1.28,-0.13,-0.47,1.36
28.830234050750732,-0.85,-0.06,-0.46,0.96
28.831618070602417,0.14,0.22,-0.6,0.65
28.832611083984375,1.18,0.22,-0.28,1.23
28.84954595565796,1.49,0.06,0.26,1.51
28.8505859375,1.1,0.0,0.16,1.11
28.865471839904785,0.41,-0.03,-0.19,0.45
28.866535186767578,-0.01,-0.02,-0.16,0.16
28.88298988342285,-0.06,-0.01,0.16,0.17
28.886353969573975,-0.16,-0.17,0.39,0.45
28.896095037460327,-0.28,-0.32,0.85,0.95
28.93496799468994,0.03,-0.22,0.95,0.97
28.93632698059082,0.37,-0.1,0.71,0.8
28.93734097480774,0.6,-0.06,0.32,0.68
28.93838596343994,0.68,0.07,0.16,0.7
28.94566011428833,0.54,0.08,0.1,0.55
28.95586109161377,0.28,-0.13,0.02,0.3
28.965522050857544,0.04,-0.25,-0.28,0.37
28.9753839969635,-0.34,-0.32,-0.88,0.99
28.985730171203613,-0.71,-0.41,-1.35,1.57
28.99581503868103,-0.77,-0.4,-1.43,1.67
29.03309917449951,-0.78,-0.12,-1.5,1.69
29.034271955490112,-0.68,0.52,-0.96,1.28
29.035284996032715,-0.61,0.9,-0.28,1.12
29.049872875213623,-1.37,1.23,0.06,1.84
29.05095911026001,-1.9,1.29,0.02,2.29
29.064021110534668,-2.27,1.19,-0.2,2.57
29.065075874328613,-2.48,1.36,-0.44,2.86
29.08221197128296,-2.49,1.6,-0.87,3.08
29.08453607559204,-2.65,1.88,-1.82,3.72
29.097679138183594,-2.91,2.08,-2.54,4.38
29.131667137145996,-3.37,2.37,-2.62,4.88
29.13289785385132,-3.87,2.83,-2.63,5.46
29.133882999420166,-4.28,3.5,-2.75,6.17
29.14942693710327,-4.51,3.95,-2.75,6.59
29.150439977645874,-4.98,5.17,-2.89,7.73
29.165371894836426,-6.38,7.47,-3.39,10.39
29.166428089141846,-8.07,8.27,-3.38,12.03
29.182467937469482,-9.41,9.49,-4.26,14.02
29.183884143829346,-10.75,11.17,-5.93,16.59
29.199726104736328,-11.2,10.89,-6.33,16.85
29.232635974884033,-10.33,10.02,-6.41,15.75
29.234052181243896,-9.32,9.8,-7.88,15.65
29.235071182250977,-8.95,10.76,-9.99,17.19
29.249948978424072,-9.02,12.07,-12.23,19.4
29.25102400779724,-8.48,14.3,-9.58,19.18
29.263776063919067,0.99,21.96,0.2,21.98
29.264827013015747,6.53,18.71,2.21,19.93
29.28282904624939,0.8,7.99,-4.48,9.19
29.284329891204834,-5.03,3.23,-8.82,10.65
29.298305988311768,-1.34,-0.12,-7.23,7.35
29.303141117095947,11.72,1.86,0.26,11.86
29.343695163726807,9.72,-0.67,1.62,9.87
29.344890117645264,0.99,-0.77,-2.65,2.93
29.345916032791138,-3.97,-0.27,-3.9,5.57
29.366639137268066,-5.76,-2.06,-3.3,6.95
29.3676700592041,-5.24,-4.27,-1.58,6.94
29.38188099861145,-4.08,-6.33,0.16,7.53
29.382909059524536,-3.92,-7.7,1.26,8.73
29.399672031402588,-4.25,-8.52,1.65,9.66
29.40113401412964,-5.06,-9.18,1.46,10.58
29.413846969604492,-6.08,-9.59,1.46,11.44
29.442656993865967,-6.99,-10.06,1.66,12.36
29.444067001342773,-7.94,-10.28,1.59,13.08
29.445033073425293,-8.39,-10.22,1.38,13.29
29.44723606109619,-8.53,-9.86,1.25,13.09
29.45181703567505,-8.4,-9.66,0.97,12.83
29.461838960647583,-8.12,-9.64,0.63,12.61
29.471860885620117,-7.24,-9.62,0.51,12.05
29.48184299468994,-6.54,-9.38,0.05,11.43
29.491654872894287,-5.99,-9.1,-0.19,10.89
29.501747131347656,-5.44,-8.87,-0.29,10.4
29.53231191635132,-4.79,-8.62,-0.02,9.86
29.533648014068604,-4.26,-8.41,0.6,9.44
29.534631967544556,-3.86,-8.12,1.31,9.08
29.549952030181885,-3.35,-7.51,1.16,8.3
29.55102014541626,-2.75,-6.91,0.2,7.43
29.56588888168335,-1.82,-6.1,-0.15,6.36
29.57080602645874,-0.65,-4.94,0.4,4.99
29.58090901374817,-0.25,-4.09,0.82,4.17
29.591354846954346,0.35,-3.11,1.04,3.29
29.60092306137085,2.61,-1.64,1.25,3.32
29.63289499282837,5.15,-0.14,1.34,5.32
29.634220123291016,6.51,1.43,1.03,6.74
