time,ax,ay,az,atotal
0.03029608726501465,0.33,-0.23,0.21,0.45
0.030740022659301758,-0.38,0.14,-0.02,0.4
0.031167030334472656,0.49,0.01,0.11,0.5
0.038472890853881836,0.4,0.0,0.28,0.48
0.04847598075866699,0.6,0.08,0.31,0.68
0.059133052825927734,0.5,0.07,0.29,0.58
0.06911802291870117,0.45,-0.03,0.34,0.56
0.07850193977355957,0.47,-0.03,0.41,0.62
0.08928990364074707,0.4,0.01,0.42,0.58
0.09950089454650879,0.23,0.04,0.21,0.31
0.12984395027160645,-0.01,0.01,-0.01,0.01
0.13028216361999512,-0.15,-0.09,-0.14,0.22
0.13070893287658691,-0.24,-0.22,-0.22,0.39
0.13837599754333496,-0.36,-0.25,-0.17,0.47
0.1483170986175537,-0.39,-0.2,-0.07,0.44
0.1589810848236084,-0.33,-0.12,-0.07,0.35
0.16888999938964844,-0.34,-0.08,-0.04,0.35
0.17827796936035156,-0.34,-0.01,-0.01,0.34
0.18906903266906738,-0.28,0.02,0.01,0.28
0.1990339756011963,-0.17,0.02,-0.02,0.17
0.22956109046936035,-0.06,0.01,-0.03,0.06
0.22999215126037598,0.04,0.02,0.0,0.04
0.2304089069366455,0.11,0.05,0.03,0.12
0.2382371425628662,0.15,0.04,0.07,0.17
0.2482311725616455,0.17,0.05,0.03,0.17
0.25884318351745605,0.1,0.0,-0.07,0.12
0.2687339782714844,-0.02,-0.06,-0.1,0.11
0.2781989574432373,0.0,-0.08,-0.06,0.1
0.28902411460876465,0.11,-0.04,0.07,0.13
0.2989208698272705,0.19,-0.05,0.19,0.27
0.3297710418701172,0.22,-0.02,0.21,0.3
0.3302018642425537,0.25,0.05,0.19,0.31
0.3306281566619873,0.28,0.07,0.2,0.35
0.3380391597747803,0.23,0.07,0.2,0.31
0.3480799198150635,0.19,-0.02,0.13,0.23
0.3585820198059082,0.05,-0.05,0.11,0.13
0.3683950901031494,-0.05,-0.01,0.08,0.09
0.37803006172180176,-0.08,-0.1,0.04,0.13
0.38883399963378906,-0.12,-0.15,0.05,0.19
0.39888787269592285,-0.12,-0.1,0.06,0.16
0.42964816093444824,-0.15,-0.05,0.05,0.16
0.430070161819458,-0.12,-0.03,-0.03,0.12
0.43049001693725586,-0.07,0.02,-0.08,0.1
0.43788790702819824,-0.02,0.01,-0.12,0.12
0.44782304763793945,-0.03,-0.01,-0.12,0.12
0.4584171772003174,-0.08,-0.02,-0.12,0.14
0.4684178829193115,-0.11,-0.01,-0.08,0.13
0.4779222011566162,-0.01,0.02,-0.04,0.04
0.488645076751709,-0.08,-0.07,-0.01,0.1
0.498704195022583,-0.13,-0.02,-0.03,0.13
0.5293571949005127,-0.03,0.0,-0.11,0.11
0.5297930240631104,0.04,-0.03,-0.08,0.09
0.5302250385284424,0.01,0.0,-0.02,0.02
0.5377030372619629,-0.05,-0.02,-0.01,0.05
0.5477349758148193,0.0,0.06,-0.03,0.06
0.5583479404449463,0.12,0.06,0.03,0.13
0.5684330463409424,0.2,0.05,0.09,0.22
0.5777771472930908,0.24,0.05,0.09,0.26
0.588421106338501,0.18,-0.02,0.08,0.19
0.5984699726104736,0.12,0.01,0.01,0.12
0.6291649341583252,0.1,0.1,0.05,0.15
0.6295931339263916,0.25,0.09,-0.02,0.26
0.6300070285797119,0.33,0.0,0.04,0.33
0.637584924697876,0.25,-0.04,0.05,0.25
0.6475861072540283,0.12,-0.07,0.16,0.21
0.6583149433135986,-0.02,-0.06,0.32,0.32
0.6684579849243164,0.09,0.01,0.44,0.44
0.6775920391082764,0.27,0.11,0.44,0.52
0.6884260177612305,0.44,0.29,0.25,0.58
0.698350191116333,0.71,0.35,0.02,0.79
0.7293100357055664,0.93,0.03,0.01,0.93
0.7297160625457764,0.72,-0.2,0.01,0.74
0.7301218509674072,0.24,-0.31,-0.01,0.39
0.7374200820922852,-0.24,-0.28,0.03,0.37
0.7474360466003418,-0.57,-0.19,0.11,0.61
0.7579669952392578,-0.6,-0.12,-0.01,0.61
0.7682321071624756,-0.65,0.07,-0.05,0.65
0.7774851322174072,-0.64,0.17,-0.24,0.7
0.7882440090179443,-0.52,0.06,-0.5,0.72
0.7982170581817627,-0.6,-0.1,-0.6,0.85
0.8301188945770264,-0.72,-0.23,-0.6,0.96
0.8305361270904541,-0.65,-0.13,-0.75,1.0
0.8309540748596191,-0.56,-0.06,-0.86,1.02
0.8373019695281982,-0.47,-0.06,-0.76,0.89
0.8472521305084229,-0.35,-0.06,-0.65,0.74
0.8578588962554932,-0.3,-0.07,-0.44,0.53
0.8681850433349609,-0.31,0.03,-0.1,0.32
0.8773519992828369,-0.22,0.04,0.03,0.22
0.8880929946899414,-0.23,0.0,0.05,0.23
0.8980259895324707,-0.2,-0.02,0.02,0.2
0.9300310611724854,-0.16,0.03,-0.08,0.18
0.930466890335083,-0.22,0.04,-0.13,0.25
0.9308919906616211,-0.09,0.0,-0.19,0.21
0.9370810985565186,0.05,-0.11,-0.23,0.25
0.9471540451049805,0.06,-0.02,-0.15,0.16
0.957650899887085,0.15,0.12,-0.17,0.25
0.9680521488189697,0.35,0.12,-0.12,0.38
0.9771840572357178,0.61,0.11,0.03,0.62
0.9878840446472168,0.88,0.17,0.14,0.9
0.9978878498077393,0.95,0.07,0.09,0.95
1.030116081237793,0.65,0.06,0.07,0.65
1.0305449962615967,0.27,0.04,0.17,0.32
1.0309500694274902,0.27,0.06,0.2,0.34
1.0369799137115479,0.5,0.12,0.3,0.59
1.0470070838928223,0.63,0.13,0.37,0.74
1.0576770305633545,0.68,-0.03,0.37,0.77
1.0675451755523682,0.72,-0.01,0.5,0.87
1.0770418643951416,0.74,0.18,0.4,0.86
1.0876970291137695,0.82,0.18,0.22,0.86
1.0977389812469482,0.76,0.05,0.19,0.78
1.12990403175354,0.67,0.0,0.18,0.69
1.130336046218872,0.52,-0.01,0.22,0.56
1.130760908126831,0.32,0.0,0.25,0.4
1.1368680000305176,0.12,-0.11,0.24,0.28
1.1468040943145752,-0.03,-0.1,0.29,0.3
1.157418966293335,-0.05,-0.03,0.29,0.29
1.1674330234527588,0.12,-0.06,0.39,0.41
1.1768338680267334,0.17,-0.13,0.39,0.44
1.1876740455627441,0.03,-0.22,0.23,0.31
1.197551965713501,-0.08,-0.25,0.2,0.33
1.2304890155792236,-0.18,-0.21,0.31,0.41
1.2309191226959229,-0.19,-0.12,0.4,0.45
1.2313389778137207,-0.15,-0.13,0.47,0.51
1.2365071773529053,-0.05,-0.09,0.44,0.45
1.2466530799865723,0.01,-0.02,0.28,0.28
1.257235050201416,0.0,-0.04,0.14,0.14
1.2671129703521729,0.01,-0.13,0.07,0.14
1.276728868484497,-0.02,-0.18,0.06,0.19
1.2873618602752686,-0.08,-0.25,0.11,0.28
1.2974600791931152,-0.16,-0.29,0.08,0.34
1.3294289112091064,-0.24,-0.17,0.04,0.29
1.3298671245574951,-0.2,0.04,0.06,0.21
1.3302881717681885,0.05,0.07,0.05,0.09
1.3364989757537842,0.31,0.01,0.1,0.32
1.3465468883514404,0.46,-0.04,0.17,0.49
1.3570411205291748,0.37,-0.08,0.24,0.44
1.3669610023498535,0.05,-0.08,0.21,0.23
1.3765480518341064,-0.3,-0.17,0.26,0.43
1.387355089187622,-0.46,-0.23,0.3,0.59
1.3972570896148682,-0.35,-0.07,0.26,0.44
1.4308669567108154,0.02,-0.06,0.32,0.32
1.431290864944458,0.33,-0.13,0.32,0.47
1.4316949844360352,0.48,-0.14,0.29,0.57
1.4363090991973877,0.46,-0.15,0.27,0.55
1.4462950229644775,0.47,-0.25,0.37,0.64
1.4569120407104492,0.44,-0.1,0.36,0.57
1.466944932937622,0.5,-0.15,0.52,0.73
1.4764058589935303,-1.18,-0.59,-0.08,1.32
1.4872291088104248,-2.0,-0.39,-0.75,2.17
1.4971511363983154,-1.75,-0.07,-0.67,1.87
1.530134916305542,-1.06,0.05,-0.3,1.1
1.5305709838867188,-0.64,-0.06,-0.71,0.95
1.530998945236206,-0.61,-0.11,-1.08,1.24
1.5362541675567627,-0.71,0.01,-1.11,1.31
1.546248197555542,-0.54,0.16,-0.95,1.1
1.5567901134490967,-0.2,0.3,-0.79,0.86
1.5667669773101807,-0.17,0.33,-0.75,0.83
1.5762300491333008,-0.31,0.42,-0.78,0.93
1.5868051052093506,-0.33,0.55,-0.78,1.0
1.5969488620758057,-0.15,0.29,-0.52,0.61
1.6303250789642334,-0.14,0.22,-0.5,0.56
1.630748987197876,-0.09,0.07,-0.17,0.2
1.631169080734253,0.14,0.12,-0.05,0.19
1.6361329555511475,0.53,0.36,-0.26,0.69
1.6460521221160889,0.8,0.29,-0.31,0.9
1.6566569805145264,0.77,-0.09,-0.25,0.81
1.6666171550750732,0.41,-0.09,-0.31,0.52
1.6761229038238525,0.16,0.09,-0.5,0.53
1.686828851699829,0.0,0.05,-0.51,0.51
1.6968472003936768,-0.11,0.02,-0.25,0.27
1.7303760051727295,-0.06,-0.06,-0.03,0.09
1.730804204940796,-0.03,-0.13,0.1,0.16
1.7312262058258057,-0.09,-0.12,0.13,0.19
1.7357609272003174,-0.26,-0.05,0.02,0.26
1.7458460330963135,-0.31,-0.06,-0.02,0.31
1.7563989162445068,-0.21,-0.07,-0.01,0.22
1.766329050064087,0.16,-0.05,0.17,0.23
1.7759640216827393,0.43,0.03,0.33,0.54
1.7865898609161377,0.51,0.05,0.42,0.66
1.796539068222046,0.51,0.02,0.42,0.66
1.8305718898773193,0.59,0.0,0.48,0.76
1.8310000896453857,0.81,-0.04,0.56,0.98
1.8314180374145508,0.87,-0.06,0.58,1.04
1.8355979919433594,0.85,0.01,0.77,1.14
1.8459031581878662,0.92,-0.03,0.78,1.2
1.856328010559082,0.89,-0.02,0.67,1.11
1.8662910461425781,0.93,-0.01,0.8,1.22
1.8758220672607422,1.24,-0.05,0.96,1.56
1.8864929676055908,1.25,-0.05,1.02,1.61
1.8965060710906982,1.21,-0.05,1.02,1.58
1.9308099746704102,1.1,-0.07,0.6,1.25
1.9312450885772705,0.88,-0.09,0.43,0.98
1.9316740036010742,0.82,0.03,0.45,0.93
1.9356238842010498,0.46,0.15,-0.04,0.48
1.9456121921539307,-0.03,0.27,-0.12,0.29
1.9562890529632568,0.04,0.28,-0.02,0.28
1.9661810398101807,0.28,0.3,0.16,0.44
1.9756619930267334,0.74,0.4,0.57,1.01
1.986577033996582,1.51,0.57,0.48,1.68
1.996429204940796,1.85,0.57,0.36,1.96
2.03039288520813,1.88,0.48,0.64,2.04
2.030806064605713,1.72,0.48,0.49,1.85
2.031212091445923,1.33,0.53,0.51,1.51
2.035729169845581,0.95,0.72,0.64,1.35
2.04549503326416,0.81,1.65,0.41,1.88
2.0559890270233154,1.5,3.45,-0.22,3.76
2.066033124923706,2.86,4.14,0.53,5.05
2.075484037399292,2.18,3.72,2.02,4.76
2.0864899158477783,1.49,3.72,2.63,4.79
2.0962421894073486,1.58,4.0,3.56,5.58
2.130070924758911,1.5,4.97,3.48,6.24
2.130495071411133,2.18,6.36,3.02,7.37
2.1309080123901367,2.92,6.82,3.61,8.25
2.1355478763580322,3.59,6.77,4.06,8.67
2.1452391147613525,3.87,6.59,4.12,8.68
2.155912160873413,3.66,6.54,3.85,8.42
2.165756940841675,3.13,6.32,3.67,7.95
2.1753790378570557,2.64,5.77,3.21,7.11
2.186544179916382,3.13,5.82,2.39,7.02
2.1961190700531006,5.18,6.3,2.12,8.42
2.2301981449127197,6.44,6.2,1.13,9.01
2.230623960494995,5.81,6.15,0.13,8.46
2.2310421466827393,4.53,6.16,0.1,7.64
2.235476016998291,3.14,7.47,-1.64,8.26
2.2451820373535156,2.29,7.92,-1.19,8.32
2.2557380199432373,2.19,5.17,0.39,5.62
2.265698194503784,2.74,3.06,1.45,4.35
2.275228977203369,0.1,2.5,-1.95,3.17
2.286329984664917,-0.24,3.8,-5.1,6.36
2.2959470748901367,3.15,3.85,-0.79,5.03
2.3318121433258057,5.53,2.22,2.82,6.59
2.3322370052337646,6.19,1.12,3.44,7.16
2.332655191421509,5.14,0.83,2.7,5.86
2.334864854812622,4.21,0.39,2.34,4.83
2.3449230194091797,3.73,0.08,2.34,4.4
2.3555328845977783,3.02,0.01,2.11,3.68
2.36547589302063,1.99,0.01,1.67,2.59
2.374985933303833,1.2,-0.18,1.29,1.77
2.386115074157715,0.83,-0.65,1.25,1.63
2.395756959915161,0.53,-1.2,1.29,1.83
2.4325060844421387,0.35,-1.68,1.22,2.1
2.4329190254211426,0.35,-2.03,1.11,2.33
2.4333322048187256,0.45,-2.42,1.16,2.72
2.434774160385132,0.34,-2.82,0.99,3.0
2.4447810649871826,0.1,-3.19,0.99,3.34
2.455442190170288,-0.05,-3.56,0.98,3.69
2.465440034866333,-0.26,-3.96,0.76,4.04
2.4748198986053467,-0.32,-4.38,0.61,4.43
2.4858949184417725,-0.21,-4.87,0.85,4.94
2.495604991912842,-0.09,-5.17,1.41,5.35
2.5318000316619873,0.43,-5.27,1.77,5.57
2.5322370529174805,0.84,-5.14,1.75,5.49
2.532654047012329,0.38,-4.8,1.01,4.91
2.534649133682251,-1.05,-4.3,-0.54,4.45
2.5446598529815674,-2.63,-4.06,-0.95,4.92
2.5552830696105957,-3.81,-4.09,-0.83,5.65
2.5652990341186523,-3.78,-3.77,-1.18,5.46
2.57476806640625,-3.59,-3.06,-1.9,5.08
2.5853469371795654,-4.39,-2.01,-3.61,6.02
2.5954411029815674,-6.11,-1.04,-5.32,8.16
2.6313700675964355,-7.97,-0.59,-6.43,10.25
2.6318039894104004,-9.13,-0.6,-6.74,11.36
2.6322309970855713,-9.71,-0.87,-6.64,11.79
2.6345341205596924,-9.53,-1.32,-6.52,11.62
2.6445629596710205,-8.5,-1.7,-6.51,10.84
2.6551358699798584,-7.6,-1.75,-6.56,10.19
2.6650869846343994,-7.39,-2.61,-6.07,9.91
2.6745340824127197,-7.79,-3.85,-5.31,10.18
2.685467004776001,-8.8,-3.35,-5.23,10.77
2.695317029953003,-7.87,0.94,-6.33,10.14
2.732166051864624,-1.13,-3.94,-7.68,8.7
2.73262619972229,8.0,12.86,9.36,17.8
2.733051061630249,20.97,27.47,21.75,40.83
2.7343461513519287,4.77,21.59,-10.34,24.4
2.7444050312042236,-4.22,2.09,-7.75,9.06
2.7550230026245117,-11.46,-9.3,-4.94,15.56
2.764986038208008,-11.45,-5.21,-0.96,12.61
2.7744181156158447,-9.31,-2.6,-1.13,9.73
2.7850701808929443,-8.06,-1.98,-4.61,9.49
2.7951149940490723,-5.41,0.02,-4.52,7.04
2.8314049243927,-2.56,0.47,-1.88,3.21
2.8318488597869873,-0.17,0.16,-1.17,1.19
2.8322789669036865,1.51,0.48,-1.32,2.06
2.8341469764709473,1.62,0.75,-0.88,1.99
2.8442020416259766,-0.15,0.54,-0.4,0.68
2.854825973510742,-1.67,0.22,-0.33,1.71
2.864778995513916,-1.63,0.26,-0.7,1.79
2.874202013015747,-0.7,0.18,-0.91,1.16
2.8848769664764404,-0.2,-0.03,-1.14,1.15
2.8949689865112305,-0.15,-0.11,-1.07,1.08
2.931312084197998,-0.12,-0.09,-0.85,0.86
2.931756019592285,0.01,0.07,-0.81,0.81
2.932180166244507,0.18,0.2,-0.71,0.75
2.9340341091156006,0.35,0.22,-0.85,0.94
2.9440648555755615,0.44,0.2,-0.67,0.82
2.954606056213379,0.28,0.01,0.05,0.28
2.964647054672241,-0.02,-0.1,0.74,0.74
2.9740700721740723,-0.32,0.03,0.89,0.94
2.9848668575286865,-0.5,0.17,0.54,0.75
2.9948699474334717,-0.46,0.13,0.29,0.55
3.0321009159088135,-0.27,0.01,0.37,0.45
3.032539129257202,0.34,0.04,0.25,0.42
3.032957077026367,1.12,0.18,0.32,1.17
3.033777952194214,1.53,0.26,0.56,1.64
3.0439369678497314,1.66,0.28,0.82,1.87
3.0545170307159424,1.37,0.21,1.25,1.86
3.064439058303833,0.6,0.06,1.23,1.36
3.073928117752075,0.04,-0.11,0.95,0.95
3.084559202194214,0.04,-0.25,0.92,0.95
3.094698190689087,0.65,-0.23,0.94,1.16
3.133744955062866,1.26,-0.08,0.79,1.48
3.1343801021575928,1.35,-0.01,0.46,1.42
3.134799003601074,1.07,0.02,0.09,1.07
3.135218858718872,0.82,0.14,-0.05,0.83
3.1437530517578125,0.78,0.26,0.05,0.82
3.1541950702667236,0.79,0.36,0.36,0.93
3.1642038822174072,1.16,0.44,0.82,1.48
3.1736950874328613,1.55,0.5,1.25,2.05
3.1844310760498047,1.68,0.42,1.76,2.46
3.1944291591644287,1.73,0.31,1.96,2.63
3.2316811084747314,1.81,0.55,1.48,2.4
3.2321200370788574,1.91,1.11,1.03,2.43
3.2325398921966553,1.86,1.32,1.09,2.52
3.2334601879119873,2.01,1.47,0.91,2.65
3.2435410022735596,2.01,1.96,1.03,2.99
3.2539660930633545,2.2,2.24,1.32,3.4
3.264045000076294,2.27,2.51,1.93,3.89
3.2735369205474854,2.56,2.6,2.54,4.44
3.2843048572540283,2.86,2.87,2.96,5.01
3.2944040298461914,2.96,3.99,3.03,5.81
3.332087993621826,3.91,6.43,2.71,7.99
3.332524061203003,6.24,7.44,4.31,10.62
3.332961082458496,6.5,7.14,5.65,11.18
3.33369517326355,5.7,7.73,5.71,11.17
3.343430995941162,4.86,8.56,6.31,11.69
3.354142904281616,3.7,9.22,6.36,11.79
3.3639509677886963,4.02,10.28,5.27,12.23
3.3733818531036377,5.47,11.34,3.46,13.05
3.384126901626587,6.15,10.72,1.92,12.5
3.3943140506744385,5.14,9.65,-0.26,10.93
3.432025194168091,3.21,9.42,-2.64,10.29
3.432460069656372,1.17,11.12,-4.23,11.95
3.4332449436187744,-0.5,12.61,-2.58,12.88
3.4336750507354736,-0.44,8.17,-0.64,8.2
3.4432599544525146,0.83,4.1,0.57,4.22
3.454033136367798,-1.43,2.45,-0.95,2.99
3.463878870010376,-4.82,3.45,-7.36,9.45
3.473302125930786,-0.46,5.29,-2.58,5.9
3.483989953994751,3.32,2.66,2.56,4.96
3.4940500259399414,4.28,0.22,2.92,5.18
3.531520128250122,3.37,-0.69,1.62,3.8
3.532042980194092,2.47,-1.41,0.72,2.93
3.5325000286102295,2.15,-2.27,0.98,3.27
3.5332748889923096,2.17,-2.85,1.73,3.97
3.5432379245758057,2.39,-2.92,2.2,4.36
3.554089069366455,2.35,-3.09,2.53,4.63
3.5636820793151855,1.71,-3.59,2.76,4.84
3.573171854019165,0.87,-4.09,2.87,5.07
3.5838401317596436,0.35,-4.12,2.73,4.95
3.5939371585845947,0.38,-3.78,2.53,4.56
3.631999969482422,0.8,-3.71,2.58,4.58
3.632472038269043,1.33,-3.77,2.42,4.67
3.6332180500030518,1.63,-3.68,2.08,4.53
3.633639097213745,1.72,-3.67,1.97,4.5
3.6430180072784424,1.75,-3.77,2.06,4.63
3.6537580490112305,1.81,-3.91,1.95,4.72
3.6634938716888428,1.79,-4.17,1.72,4.85
3.672982931137085,1.66,-4.53,1.56,5.07
3.6838839054107666,1.36,-5.05,1.42,5.41
3.693772077560425,0.78,-5.7,1.29,5.89
3.7028849124908447,-0.02,-6.36,1.08,6.45
3.7310631275177,-0.67,-6.94,0.79,7.01
3.7314999103546143,-1.5,-7.28,0.09,7.43
3.732771158218384,-2.69,-7.4,-1.25,7.97
3.742832899093628,-4.0,-7.35,-2.74,8.8
3.753648042678833,-5.39,-7.08,-4.28,9.87
3.7633559703826904,-6.48,-6.38,-5.95,10.86
3.772874116897583,-7.18,-5.38,-7.02,11.39
3.783582925796509,-7.88,-4.21,-7.45,11.63
3.7936840057373047,-8.55,-3.11,-7.59,11.84
3.802849054336548,-9.24,-2.09,-7.96,12.37
3.8310470581054688,-9.92,-1.16,-8.34,13.01
3.8314712047576904,-10.38,-0.43,-8.32,13.3
3.832646131515503,-10.47,0.17,-8.05,13.2
3.8426668643951416,-9.91,0.63,-7.73,12.58
3.853566884994507,-8.73,1.11,-7.56,11.6
3.8632771968841553,-7.59,1.62,-7.25,10.62
3.872697114944458,-6.71,1.65,-6.31,9.35
3.8833580017089844,-6.89,3.44,-5.57,9.5
3.893472909927368,-3.85,7.1,-2.39,8.42
3.9027259349823,3.52,1.84,0.81,4.05
3.9314749240875244,17.36,10.08,12.78,23.79
3.9319379329681396,30.93,16.08,26.31,43.67
3.9326961040496826,11.85,11.15,-2.89,16.52
3.9425718784332275,1.09,11.67,-9.45,15.05
3.953091859817505,-7.76,1.52,-11.73,14.14
3.9631080627441406,-13.72,-3.62,0.01,14.18
3.972539186477661,-14.12,-5.71,6.0,16.37
3.9832189083099365,-11.26,-5.42,-3.2,12.89
3.993283987045288,-6.69,-2.22,-6.21,9.39
4.002585172653198,-2.04,0.2,-5.33,5.71
4.029738187789917,1.18,1.1,-3.74,4.07
4.030171155929565,2.14,1.18,-2.0,3.15
4.032376050949097,2.81,0.84,-1.19,3.16
4.042412996292114,2.58,0.28,-1.03,2.79
4.052930116653442,0.93,0.28,-0.7,1.19
4.062952995300293,-0.78,0.48,-0.12,0.92
4.0725061893463135,-1.94,0.41,0.29,2.0
4.083057165145874,-2.28,0.05,0.54,2.34
4.0931642055511475,-2.02,-0.2,0.75,2.16
4.102478981018066,-1.45,-0.27,0.84,1.69
4.131738901138306,-0.6,-0.14,0.65,0.89
4.132508039474487,0.37,0.1,0.21,0.43
4.132930040359497,1.28,0.27,-0.4,1.36
4.142251014709473,1.82,0.31,-1.17,2.18
4.152822971343994,1.5,0.23,-1.85,2.39
4.16283106803894,0.6,0.09,-1.58,1.69
4.1722729206085205,-0.2,0.05,-0.86,0.88
4.182914972305298,-0.73,0.06,-0.18,0.75
4.192962884902954,-0.89,-0.09,0.41,0.98
4.202284097671509,-0.66,-0.23,0.57,0.9
4.232323884963989,-0.05,-0.18,0.58,0.6
4.2328410148620605,0.79,-0.03,0.57,0.97
4.233277082443237,1.43,0.06,0.66,1.57
4.24206805229187,1.63,0.11,0.69,1.77
4.252676010131836,1.27,0.13,0.44,1.35
4.262657880783081,0.65,0.11,0.18,0.68
4.272171974182129,0.24,0.06,-0.05,0.25
4.282889127731323,0.0,0.0,0.19,0.19
4.292891025543213,-0.24,-0.07,0.51,0.56
4.302114009857178,-0.25,-0.14,0.74,0.79
4.332530975341797,0.07,-0.2,0.9,0.92
4.332979917526245,0.53,-0.22,0.97,1.12
4.3334081172943115,1.18,-0.23,0.92,1.51
4.341876983642578,1.74,-0.25,0.84,1.94
4.352440118789673,1.82,-0.23,0.8,2.0
4.362468004226685,1.58,-0.16,0.7,1.73
4.371756076812744,1.42,-0.03,0.84,1.65
4.382700204849243,1.38,0.11,1.15,1.79
4.392757177352905,1.44,0.04,1.32,1.95
4.4019739627838135,1.48,-0.07,1.3,1.97
4.432512044906616,1.3,-0.09,1.15,1.73
4.43296217918396,1.13,0.06,1.07,1.55
4.433387041091919,1.0,0.31,1.01,1.45
4.44171404838562,1.2,0.6,0.82,1.57
4.452346086502075,1.42,1.03,0.56,1.84
4.4622581005096436,1.58,1.44,0.69,2.24
4.4716269969940186,1.93,1.92,1.06,2.92
4.482477903366089,2.61,3.15,1.63,4.4
4.492553949356079,3.09,4.31,2.13,5.71
4.5017900466918945,2.71,7.13,1.38,7.75
4.532418966293335,4.25,9.62,1.93,10.69
4.532872915267944,4.81,8.99,4.38,11.09
4.533298015594482,3.33,8.61,5.61,10.8
4.541581869125366,3.52,9.55,6.72,12.19
4.552110910415649,4.35,10.34,7.14,13.29
4.562165975570679,4.84,10.68,6.08,13.2
4.571529150009155,4.65,10.35,5.73,12.71
4.582367181777954,4.56,8.87,4.63,10.99
4.592353105545044,4.15,7.65,2.96,9.19
4.601767063140869,3.21,6.02,0.77,6.86
4.63254189491272,1.53,4.93,-2.76,5.85
4.633001089096069,0.37,5.98,-4.52,7.5
4.633435010910034,-0.88,8.77,-3.03,9.32
4.641416072845459,-1.41,8.39,-0.09,8.5
4.652032136917114,0.72,4.51,0.28,4.57
4.662019968032837,1.72,1.13,0.74,2.18
4.671302080154419,-0.61,-1.41,-0.61,1.65
4.682201147079468,-0.61,0.32,-4.37,4.42
4.692259073257446,3.61,2.83,-1.24,4.75
4.701523065567017,7.12,1.41,1.93,7.51
4.732042074203491,9.35,-0.6,3.43,9.97
4.732550859451294,8.92,-1.89,4.05,9.97
4.732980012893677,6.98,-2.3,3.56,8.16
4.741350889205933,4.98,-2.26,2.6,6.05
4.751858949661255,3.11,-2.31,2.45,4.58
4.761905908584595,1.79,-2.5,2.7,4.09
4.771394968032837,0.97,-2.54,2.84,3.93
4.782097101211548,0.41,-2.25,2.28,3.22
4.791969060897827,0.02,-2.01,1.64,2.59
4.801289081573486,-0.38,-2.0,1.25,2.38
4.831523180007935,-0.43,-2.15,1.15,2.47
4.831959009170532,0.1,-2.12,1.14,2.4
4.832376003265381,0.93,-2.05,1.54,2.72
4.841138124465942,1.54,-2.16,1.71,3.15
4.851825952529907,1.13,-2.4,1.57,3.08
4.8616979122161865,-0.38,-3.07,0.93,3.23
4.871410131454468,-1.75,-3.38,-0.56,3.84
4.881849050521851,-1.7,-3.23,-2.14,4.23
4.891914129257202,-1.65,-3.03,-1.9,3.93
4.901233911514282,-2.33,-3.31,-0.51,4.07
4.9321160316467285,-2.85,-3.46,-0.3,4.49
4.9325480461120605,-3.43,-2.91,-1.44,4.72
4.932968854904175,-4.04,-2.3,-2.62,5.33
4.940988063812256,-4.79,-2.0,-4.01,6.55
4.951514959335327,-6.22,-1.76,-5.79,8.67
4.961600065231323,-7.98,-1.56,-7.26,10.9
4.971296072006226,-9.24,-1.72,-7.9,12.27
4.9817421436309814,-10.03,-2.34,-8.34,13.25
4.991717100143433,-10.55,-3.11,-8.48,13.88
5.001016855239868,-9.97,-3.8,-8.1,13.39
5.031422853469849,-8.46,-4.41,-7.3,12.01
5.031858205795288,-7.07,-4.75,-6.52,10.72
5.032294034957886,-6.38,-4.8,-5.96,9.96
5.040915012359619,-6.12,-4.78,-5.59,9.56
5.051405191421509,-5.82,-4.73,-5.2,9.12
5.0614659786224365,-5.63,-4.65,-4.71,8.68
5.070793867111206,-5.84,-4.36,-4.65,8.64
5.0816240310668945,-6.95,0.79,-5.11,8.66
5.091598987579346,-0.14,3.0,-4.36,5.29
5.10089898109436,13.78,11.26,13.11,22.1
5.132371187210083,26.69,24.57,28.62,46.2
5.132811069488525,3.75,24.58,-13.8,28.43
5.13323712348938,-1.71,7.88,-12.64,14.99
5.140696048736572,-7.94,-6.12,-2.15,10.25
5.151285886764526,-14.0,-7.88,0.83,16.08
5.161275148391724,-11.98,-4.54,1.91,12.95
5.170684099197388,-12.4,-3.2,-6.97,14.58
5.181502103805542,-10.46,-1.08,-6.83,12.53
5.191339015960693,-6.15,0.09,-1.96,6.45
5.201318025588989,-1.9,0.02,-0.14,1.9
5.232277154922485,1.13,0.42,-0.4,1.27
5.232723951339722,3.32,1.19,-1.57,3.86
5.233155012130737,3.31,1.4,-2.45,4.34
5.240573167800903,0.16,0.93,-1.74,1.97
5.251147031784058,-1.66,0.49,-1.46,2.26
5.261090993881226,-1.21,0.2,-1.7,2.09
5.270524978637695,-0.78,-0.11,-1.58,1.76
5.281141042709351,-0.92,-0.24,-1.33,1.63
5.291295051574707,-0.51,-0.16,-1.28,1.38
5.300595998764038,0.42,0.0,-1.14,1.21
5.3328468799591064,0.99,0.06,-0.86,1.31
5.333288908004761,0.77,0.12,-0.6,0.98
5.333717107772827,0.11,0.15,-0.45,0.48
5.340381860733032,-0.53,0.1,-0.25,0.59
5.3509361743927,-0.88,-0.05,-0.02,0.88
5.360782861709595,-0.98,-0.2,0.08,1.0
5.370290994644165,-0.85,-0.25,-0.02,0.88
5.381088018417358,-0.45,-0.18,-0.01,0.48
5.391138076782227,0.24,-0.02,0.09,0.25
5.4004480838775635,1.02,0.17,0.17,1.04
5.432337999343872,1.65,0.26,0.39,1.71
5.432771921157837,1.8,0.3,0.63,1.93
5.433186054229736,1.58,0.23,0.68,1.73
5.440294981002808,0.84,0.09,0.68,1.08
5.450762033462524,-0.1,0.01,0.74,0.74
5.4608190059661865,-0.57,-0.05,0.89,1.05
5.470192193984985,-0.63,-0.05,1.09,1.25
5.480931997299194,-0.4,-0.14,1.3,1.36
5.49100399017334,-0.03,-0.29,1.17,1.2
5.500326871871948,0.53,-0.37,0.81,1.03
5.532718896865845,1.31,-0.34,0.58,1.47
5.533160924911499,1.81,-0.16,0.54,1.89
5.533583879470825,1.72,0.11,0.46,1.78
5.540035009384155,1.19,0.24,0.36,1.26
5.550598859786987,0.8,0.1,0.78,1.12
5.560594081878662,0.9,-0.02,1.43,1.68
5.570044994354248,1.22,0.09,1.93,2.28
5.580765962600708,1.47,0.28,2.05,2.53
5.590836048126221,1.42,0.42,1.88,2.39
5.600090980529785,1.21,0.53,1.66,2.12
5.6330790519714355,1.23,0.68,1.4,1.98
5.633512020111084,1.29,0.89,1.25,2.0
5.633928060531616,1.29,1.1,1.29,2.13
5.639816045761108,1.16,1.1,1.37,2.1
5.6504881381988525,1.05,1.41,1.18,2.11
5.660387992858887,1.04,1.89,1.34,2.53
5.669857025146484,1.18,2.09,1.37,2.76
5.680592060089111,1.98,3.09,1.23,3.87
5.690776109695435,2.47,4.92,0.93,5.58
5.699923992156982,4.14,6.57,1.71,7.95
5.732007026672363,5.53,6.04,3.6,8.94
5.732435941696167,5.11,5.31,4.49,8.62
5.732850074768066,3.99,5.84,5.0,8.66
5.739776849746704,3.31,7.25,5.81,9.86
5.750326871871948,3.98,8.46,6.9,11.61
5.760299921035767,4.43,8.86,7.59,12.47
5.769708871841431,5.05,8.52,6.65,11.92
5.780450105667114,5.69,7.62,5.1,10.79
5.790550947189331,5.89,6.36,2.95,9.15
5.799803018569946,5.43,5.81,-0.3,7.95
5.832856893539429,4.32,6.76,-3.18,8.62
5.833298921585083,0.89,9.28,-3.21,9.85
5.833729028701782,-4.62,9.02,-0.53,10.14
5.839612007141113,-5.88,7.7,0.59,9.7
5.850168943405151,-2.26,5.98,1.33,6.52
5.860202074050903,2.81,3.17,1.4,4.46
5.869543075561523,1.3,1.63,0.48,2.13
5.8802809715271,-1.39,2.1,-4.56,5.2
5.890237092971802,1.91,4.21,-2.98,5.5
5.899684190750122,5.76,3.11,1.45,6.7
5.933042049407959,8.21,0.45,3.41,8.9
5.9334800243377686,8.9,-1.39,3.46,9.64
5.9339048862457275,7.93,-2.4,3.22,8.88
5.939265012741089,6.78,-2.74,3.5,8.1
5.949998140335083,5.67,-2.61,3.39,7.1
5.960000038146973,4.71,-2.01,2.81,5.84
5.969428062438965,3.8,-1.36,2.37,4.68
5.98020601272583,2.62,-1.21,2.15,3.59
5.990149974822998,1.67,-0.86,1.37,2.32
5.999528169631958,1.76,-0.14,0.56,1.85
6.032733201980591,2.4,0.18,0.42,2.44
6.0331690311431885,2.93,0.15,0.55,2.98
6.033590078353882,3.29,0.11,0.71,3.36
6.039133071899414,2.98,0.08,0.79,3.08
6.049875020980835,1.58,-0.63,0.27,1.72
6.059830904006958,-0.45,-1.5,-1.39,2.09
6.069308042526245,-1.72,-1.9,-3.16,4.06
6.0800721645355225,-2.19,-2.55,-2.72,4.32
6.08998703956604,-1.94,-3.45,-1.14,4.11
6.099279165267944,-1.32,-3.97,-0.53,4.21
6.132554054260254,-1.21,-3.97,-1.02,4.27
6.13296914100647,-1.61,-3.78,-1.77,4.47
6.133384943008423,-2.7,-3.53,-2.05,4.89
6.139002084732056,-4.27,-3.26,-2.67,5.99
6.149696111679077,-5.55,-3.2,-3.45,7.27
6.159671068191528,-6.45,-3.05,-4.52,8.44
6.169170141220093,-7.17,-2.66,-6.06,9.75
6.17984414100647,-7.87,-2.06,-7.26,10.9
6.189934968948364,-8.69,-1.64,-8.03,11.94
6.199141025543213,-9.47,-1.44,-8.11,12.55
6.232717990875244,-10.18,-1.43,-7.88,12.95
6.2331531047821045,-10.08,-1.57,-7.67,12.76
6.233568906784058,-9.18,-1.95,-6.88,11.63
6.239120006561279,-7.89,-2.32,-6.15,10.26
6.249612092971802,-6.29,-2.56,-4.59,8.19
6.259536981582642,-6.14,-2.36,-3.87,7.63
6.268939971923828,-7.53,-1.97,-4.81,9.14
6.279685020446777,-8.06,0.83,-5.39,9.73
6.289960145950317,-5.2,-4.02,-6.61,9.32
6.29902720451355,-3.77,-0.69,-3.78,5.38
6.332604169845581,7.25,9.12,7.46,13.83
6.33304500579834,16.39,11.94,14.71,25.05
6.333470106124878,6.33,19.11,-4.25,20.57
6.339080095291138,-1.75,11.62,-10.82,15.97
6.349452018737793,-8.56,-2.39,-6.66,11.1
6.359347105026245,-12.51,-6.88,-3.27,14.64
6.368764162063599,-8.87,-5.23,-0.83,10.33
6.379521131515503,-7.52,-2.87,-3.9,8.94
6.415240049362183,-7.11,-0.75,-2.5,7.57
6.4156739711761475,-5.47,-0.02,-0.75,5.52
6.416095018386841,-2.41,-0.03,-0.18,2.41
6.418696165084839,-0.02,0.15,-0.57,0.58
6.428693056106567,0.71,0.32,-1.13,1.37
6.438965082168579,0.0,0.43,-1.48,1.54
6.44928503036499,-1.08,0.35,-1.65,2.0
6.459390878677368,-1.22,0.38,-1.47,1.94
6.468720197677612,-0.71,0.36,-1.45,1.65
6.479533910751343,-0.41,0.15,-1.62,1.67
6.517399072647095,-0.59,0.01,-1.62,1.72
6.517842054367065,-0.66,0.11,-1.51,1.65
6.518595933914185,-0.45,0.26,-1.46,1.54
6.519011974334717,-0.29,0.26,-1.43,1.48
6.528563976287842,-0.39,0.27,-1.26,1.34
6.538542985916138,-0.56,0.22,-0.96,1.13
6.549186944961548,-0.62,0.11,-0.67,0.91
6.559144020080566,-0.65,0.0,-0.4,0.76
6.568562030792236,-0.67,-0.12,-0.25,0.72
6.579325914382935,-0.63,-0.15,-0.22,0.68
6.616507053375244,-0.56,-0.12,-0.24,0.62
6.616936922073364,-0.52,-0.01,-0.17,0.54
6.617369890213013,-0.36,0.12,-0.11,0.39
6.618417978286743,-0.06,0.15,-0.03,0.16
6.6284019947052,0.22,0.18,0.1,0.3
6.638375997543335,0.33,0.14,0.17,0.39
6.649036169052124,0.39,0.08,0.19,0.44
6.6590189933776855,0.43,0.04,0.34,0.54
6.668419122695923,0.37,-0.03,0.31,0.48
6.679311037063599,0.14,-0.05,0.43,0.45
6.716796159744263,-0.2,-0.1,0.82,0.84
6.717232942581177,-0.43,-0.17,1.11,1.2
6.717660188674927,-0.11,-0.18,1.0,1.02
6.718425989151001,0.91,-0.17,0.99,1.35
6.728295087814331,2.08,-0.19,1.34,2.48
6.738269090652466,3.18,-0.06,1.64,3.57
6.748906850814819,3.69,0.19,1.62,4.03
6.758854150772095,3.24,0.28,1.61,3.62
6.768239974975586,2.45,0.07,1.78,3.02
6.779007196426392,2.05,0.02,1.77,2.7
6.816021203994751,1.7,0.31,1.73,2.44
6.816989183425903,1.35,0.5,1.83,2.32
6.817417860031128,1.36,0.6,1.92,2.42
6.818174123764038,1.72,0.71,2.0,2.73
6.828130006790161,2.08,0.93,2.02,3.04
6.838073015213013,2.02,1.17,1.75,2.91
6.848747968673706,1.65,1.4,1.29,2.51
6.858691930770874,1.37,1.72,1.28,2.54
6.868088006973267,1.34,2.14,1.66,3.02
6.878938913345337,1.39,2.25,1.88,3.24
6.915886163711548,2.25,3.13,1.54,4.15
6.916857004165649,3.78,5.16,2.01,6.7
6.917299032211304,4.91,5.61,3.45,8.21
6.918068170547485,5.68,5.16,4.53,8.91
6.927937030792236,5.82,5.32,4.88,9.27
6.937916994094849,5.55,6.16,5.75,10.09
6.948533058166504,4.84,6.89,6.78,10.81
6.958625078201294,4.35,7.62,6.91,11.16
6.967956066131592,4.27,8.08,6.96,11.48
6.97871994972229,4.6,8.16,6.39,11.33
6.9888410568237305,6.11,7.51,4.91,10.85
7.016769170761108,6.41,7.0,2.4,9.79
7.0171849727630615,4.39,7.62,-0.54,8.81
7.017935037612915,0.31,9.77,-2.57,10.1
7.027801990509033,-5.31,10.83,-2.11,12.24
7.037726163864136,-6.54,9.03,-1.52,11.25
7.048400163650513,-2.82,7.27,0.04,7.79
7.058521032333374,2.09,4.74,0.6,5.21
7.067755937576294,1.87,2.3,0.88,3.09
7.078603982925415,-1.3,2.47,-3.11,4.17
7.088836908340454,1.36,4.61,-2.33,5.34
7.117884874343872,5.22,3.2,1.6,6.32
7.118407964706421,7.84,0.51,3.36,8.54
7.118834972381592,7.96,-1.19,3.54,8.79
7.127641916275024,6.53,-1.93,2.58,7.28
7.13757586479187,5.63,-2.26,2.3,6.48
7.148296117782593,4.71,-2.39,2.56,5.86
7.158243894577026,3.62,-2.11,2.31,4.78
7.16764497756958,2.63,-1.49,2.14,3.7
7.178468942642212,1.92,-1.21,2.49,3.36
7.1884989738464355,1.54,-1.01,2.22,2.88
7.217700004577637,2.02,-0.56,1.45,2.54
7.218135118484497,3.11,-0.09,1.42,3.42
7.2185540199279785,3.88,-0.04,1.83,4.29
7.2281880378723145,3.71,-0.34,1.66,4.07
7.237433195114136,2.75,-0.69,1.38,3.15
7.248064994812012,1.71,-1.25,0.99,2.33
7.257947206497192,0.81,-1.97,0.34,2.15
7.267464876174927,-0.04,-2.45,-0.64,2.53
7.278289079666138,-0.81,-2.98,-1.18,3.3
7.288351058959961,-1.1,-3.67,-1.04,3.96
7.3179590702056885,-0.98,-4.14,-0.79,4.32
7.3183979988098145,-0.94,-4.18,-1.12,4.42
7.31882119178772,-1.09,-3.84,-1.66,4.32
7.3273420333862305,-1.79,-3.37,-2.26,4.43
7.33735203742981,-3.12,-2.81,-3.29,5.33
7.347930192947388,-4.5,-2.21,-4.97,7.05
7.357763051986694,-5.32,-1.64,-6.55,8.59
7.367265939712524,-5.91,-0.93,-8.05,10.02
7.378090143203735,-6.58,-0.35,-9.01,11.16
7.38816499710083,-7.19,-0.59,-9.69,12.08
7.418607950210571,-7.54,-1.14,-10.95,13.34
7.419049978256226,-7.73,-1.4,-11.57,13.98
7.419475078582764,-8.09,-1.68,-11.49,14.15
7.427175998687744,-8.53,-2.34,-11.5,14.5
7.437129974365234,-8.38,-2.99,-11.02,14.16
7.447860956192017,-8.06,-2.48,-10.17,13.21
7.4575910568237305,-6.64,3.48,-7.24,10.42
7.46720814704895,-2.38,-3.16,-6.1,7.27
7.478036165237427,-3.97,-0.93,-5.81,7.09
7.4880030155181885,4.28,11.91,15.48,19.99
7.51795506477356,11.92,11.08,20.1,25.86
7.518387079238892,5.04,9.04,-7.62,12.85
7.518805027008057,-3.33,4.58,-5.3,7.75
7.526963949203491,-9.68,2.22,-2.04,10.13
7.536993026733398,-10.95,1.01,-6.13,12.58
7.547621011734009,-5.84,-0.58,-5.8,8.25
7.557726144790649,-5.46,-1.37,-3.74,6.75
7.567082166671753,-4.73,-2.66,-6.63,8.56
7.577801942825317,-2.98,-1.1,-7.86,8.47
7.587830066680908,-1.83,-0.76,-5.57,5.91
7.617690086364746,0.08,-0.33,-3.33,3.34
7.618129014968872,1.96,0.89,-2.46,3.26
7.618546009063721,2.49,1.39,-1.48,3.21
7.626887083053589,1.06,0.84,0.05,1.35
7.636877059936523,-0.91,0.17,0.17,0.94
7.64754319190979,-1.55,0.14,-1.07,1.88
7.657624006271362,-1.5,0.24,-0.98,1.8
7.6668431758880615,-1.56,0.19,-0.71,1.72
7.677683115005493,-1.6,0.07,-1.14,1.96
7.687716007232666,-1.57,-0.09,-1.22,1.99
7.718458890914917,-1.33,-0.15,-1.04,1.69
7.718903064727783,-1.01,-0.06,-1.13,1.51
7.719326972961426,-1.18,0.05,-1.22,1.69
7.726675987243652,-1.52,0.02,-0.84,1.73
7.736721992492676,-1.57,-0.13,-0.35,1.61
7.747265100479126,-1.29,-0.22,0.31,1.34
7.757499933242798,-0.85,-0.2,0.74,1.14
7.76673698425293,-0.07,0.0,0.8,0.8
7.777497053146362,0.77,0.18,0.85,1.16
7.787437200546265,1.31,0.3,0.82,1.57
7.818229913711548,1.36,0.32,0.37,1.44
7.81866192817688,0.93,0.22,-0.1,0.96
7.81908106803894,0.39,0.01,-0.18,0.42
7.82660698890686,0.12,-0.06,0.27,0.3
7.836477994918823,0.28,0.01,0.88,0.92
7.847226858139038,0.45,0.05,1.09,1.18
7.857482194900513,0.73,0.1,1.12,1.34
7.866552114486694,1.2,0.05,1.07,1.6
7.877363920211792,1.7,-0.01,1.05,1.99
7.887286901473999,2.09,0.05,0.9,2.27
7.917471170425415,2.16,0.2,0.64,2.26
7.917909860610962,2.02,0.38,0.55,2.12
7.918328046798706,1.88,0.57,0.66,2.07
7.926457166671753,1.39,0.7,0.82,1.75
7.936382055282593,0.78,0.64,1.08,1.47
7.9470720291137695,0.77,0.78,0.97,1.46
7.957309007644653,1.15,1.31,0.91,1.96
7.966444969177246,1.67,1.94,1.19,2.82
7.977097988128662,1.94,2.37,2.11,3.71
7.987136125564575,1.49,2.03,2.36,3.45
8.017948865890503,1.7,2.55,2.26,3.8
8.018388986587524,1.97,2.82,2.36,4.17
8.01880407333374,2.32,2.84,2.36,4.36
8.026256084442139,2.92,3.21,2.57,5.04
8.036226034164429,3.05,4.53,2.72,6.1
8.046808958053589,3.87,7.31,2.68,8.69
8.05719804763794,6.07,8.4,4.24,11.19
8.066333055496216,5.77,8.15,5.46,11.38
8.077006101608276,4.38,8.99,6.31,11.82
8.086970090866089,4.56,9.77,8.05,13.45
8.119277000427246,4.94,10.24,8.07,13.94
8.119721174240112,5.04,9.19,6.42,12.29
8.120141983032227,5.13,7.21,3.91,9.67
8.126077890396118,5.87,6.39,0.28,8.68
8.136161088943481,5.42,7.29,-4.06,9.95
8.146642923355103,1.0,9.54,-6.08,11.35
8.156933069229126,-3.03,10.28,-3.53,11.28
8.166162014007568,-3.16,7.41,-0.28,8.06
8.176940202713013,-1.21,4.12,0.54,4.32
8.186820983886719,0.28,0.96,1.26,1.6
8.219280004501343,-1.98,-0.48,-2.04,2.88
8.219719171524048,0.01,2.75,-3.63,4.55
8.220139980316162,4.83,3.49,0.05,5.95
8.225972890853882,8.12,1.4,2.3,8.55
8.2359139919281,9.46,-0.19,3.57,10.11
8.24651312828064,8.96,-1.07,3.46,9.66
8.256546020507812,8.05,-1.41,2.47,8.53
8.265938997268677,6.98,-1.55,2.15,7.46
8.276812076568604,5.91,-1.66,2.61,6.67
8.28674602508545,4.89,-1.81,3.01,6.02
8.320520162582397,4.05,-1.9,3.03,5.4
8.320960998535156,3.21,-2.08,2.53,4.58
8.32138204574585,2.48,-2.35,1.91,3.91
8.32579493522644,1.9,-2.2,1.67,3.35
8.335768938064575,1.32,-1.8,1.76,2.84
8.346349954605103,1.15,-1.18,1.82,2.45
8.356395959854126,1.48,-0.63,1.83,2.43
8.365813970565796,1.62,-0.25,1.74,2.39
8.37654709815979,1.11,-0.09,1.0,1.49
8.386551141738892,0.06,0.01,-0.54,0.54
8.41895604133606,-1.33,0.02,-2.17,2.54
8.419397115707397,-2.68,-0.44,-2.51,3.69
8.419816970825195,-3.03,-1.21,-1.94,3.79
8.425610065460205,-2.49,-1.99,-1.22,3.41
8.435669183731079,-2.1,-2.37,-0.99,3.31
8.446215867996216,-2.48,-2.26,-1.23,3.57
8.456051111221313,-3.57,-1.94,-1.78,4.43
8.465686082839966,-4.98,-1.58,-2.49,5.78
8.476403951644897,-5.99,-1.36,-2.93,6.8
8.486329078674316,-6.72,-1.34,-3.29,7.6
8.520126104354858,-7.35,-1.2,-4.15,8.52
8.520573854446411,-7.7,-0.71,-5.39,9.42
8.521002054214478,-8.21,-0.27,-6.42,10.42
8.52547001838684,-9.01,-0.26,-7.15,11.5
8.535476922988892,-9.97,-0.92,-7.49,12.5
8.546020984649658,-10.66,-1.74,-7.79,13.31
8.556033849716187,-10.89,-2.58,-8.57,14.09
8.56543517112732,-10.64,-3.53,-9.45,14.66
8.576416015625,-9.83,-4.04,-9.0,13.92
8.586245059967041,-9.78,-1.97,-8.15,12.88
8.62054705619812,-7.34,0.54,-8.55,11.28
8.620980024337769,-4.75,-5.46,-8.82,11.4
8.621397018432617,-3.77,3.54,-4.71,6.99
8.625303983688354,12.06,16.4,18.82,27.72
8.635199069976807,16.02,22.99,10.12,29.79
8.645876169204712,0.93,18.32,-16.91,24.94
8.655892133712769,-2.01,-2.3,-6.48,7.16
8.665377855300903,-9.95,-8.96,7.4,15.29
8.676059007644653,-13.29,-8.87,0.37,15.98
8.686096906661987,-13.04,-5.22,-5.13,14.95
8.719435930252075,-11.49,-2.61,-4.89,12.75
8.719878911972046,-6.93,0.64,-3.69,7.87
8.720307111740112,-2.69,1.5,-1.17,3.29
8.725075006484985,0.1,0.64,-1.37,1.51
8.735058069229126,2.38,0.44,-3.19,4.0
8.745647192001343,3.03,0.61,-3.64,4.77
8.75573205947876,1.13,0.76,-2.79,3.1
8.765198945999146,-0.8,0.7,-1.33,1.7
8.775914907455444,-1.15,0.3,-0.75,1.4
8.785945177078247,-0.84,-0.01,-1.03,1.32
8.819446086883545,-0.78,-0.1,-0.78,1.1
8.819881200790405,-0.61,0.05,-0.66,0.9
8.820306062698364,-0.34,0.17,-0.68,0.77
8.824872970581055,-0.41,0.15,-0.51,0.67
8.834980010986328,-0.5,0.06,-0.3,0.58
8.845554113388062,-0.45,0.02,-0.28,0.53
8.855569124221802,-0.61,-0.04,-0.32,0.69
8.865094900131226,-0.56,-0.09,-0.19,0.59
8.875705003738403,-0.15,-0.08,-0.3,0.34
8.885791063308716,0.38,-0.02,-0.34,0.51
8.920564889907837,0.42,-0.01,-0.13,0.43
8.921012163162231,0.38,0.1,-0.01,0.39
8.92143201828003,0.67,0.3,0.39,0.83
8.924713850021362,0.88,0.39,0.48,1.07
8.93485403060913,0.87,0.3,0.32,0.97
8.945447206497192,0.85,0.15,0.41,0.95
8.955383062362671,0.66,0.11,0.66,0.93
8.964900016784668,0.39,0.13,0.88,0.97
8.975423097610474,0.19,0.12,1.04,1.06
8.985574960708618,0.29,0.07,1.16,1.19
9.020559072494507,0.61,0.06,1.09,1.25
9.021001100540161,0.74,0.12,0.79,1.08
9.021420001983643,0.44,0.13,0.47,0.65
9.024737119674683,0.15,0.13,0.18,0.26
9.034701108932495,0.37,0.27,0.08,0.46
9.045270204544067,1.05,0.45,0.29,1.17
9.055235147476196,1.7,0.64,0.7,1.94
9.064750909805298,2.12,0.68,1.16,2.51
9.075600862503052,2.4,0.4,1.93,3.1
9.085553884506226,2.54,0.36,2.53,3.6
9.120196104049683,2.65,0.83,2.49,3.72
9.120630025863647,2.67,1.08,2.21,3.63
9.121049165725708,2.55,1.56,2.22,3.72
9.124675989151001,2.7,1.77,2.14,3.87
9.134559869766235,2.68,2.09,1.92,3.9
9.145095109939575,2.61,2.41,2.08,4.11
9.15511703491211,2.56,2.9,2.41,4.55
9.164572954177856,2.59,3.99,2.77,5.5
9.175729036331177,3.13,5.64,3.0,7.11
9.185343980789185,4.55,6.95,3.59,9.04
9.219938039779663,5.17,6.87,4.68,9.78
9.220372915267944,4.68,7.19,5.15,10.0
9.22079586982727,3.69,7.5,6.02,10.3
9.224684000015259,2.78,8.35,6.67,11.04
9.234349012374878,3.94,9.48,7.17,12.52
9.244994878768921,4.79,9.17,5.65,11.78
9.254935026168823,4.96,8.35,4.21,10.58
9.264475107192993,5.32,7.11,1.97,9.09
9.275561094284058,4.81,6.46,-1.83,8.25
9.285186052322388,2.34,7.42,-4.45,8.96
9.321106195449829,-0.75,9.72,-3.9,10.5
9.321546077728271,-2.45,10.24,-0.25,10.53
9.32196593284607,-2.18,8.09,1.34,8.48
9.324529886245728,0.76,4.27,0.04,4.33
9.334233045578003,1.27,1.07,0.33,1.69
9.344840049743652,-1.31,-0.46,-2.05,2.47
9.354830980300903,-0.54,2.37,-4.64,5.23
9.36420202255249,3.74,4.54,-0.34,5.89
9.375216007232666,6.65,2.36,2.38,7.44
9.384989023208618,8.21,-0.09,3.92,9.09
9.42176604270935,7.64,-1.68,4.98,9.27
9.422201871871948,6.17,-2.37,4.83,8.18
9.42261815071106,4.88,-2.3,3.94,6.68
9.42408299446106,3.77,-2.02,3.31,5.4
9.434098958969116,3.01,-2.03,3.08,4.76
9.444615125656128,2.36,-2.23,2.86,4.32
9.454676866531372,1.36,-2.23,2.77,3.8
9.464114904403687,0.31,-1.86,2.54,3.16
9.47512698173523,-0.31,-1.39,2.0,2.45
9.484791040420532,-0.02,-1.22,1.82,2.19
9.521862983703613,0.89,-1.45,2.18,2.76
9.52230191230774,1.66,-1.47,2.26,3.16
9.52272915840149,1.65,-1.24,2.13,2.96
9.523844957351685,0.48,-1.27,1.48,2.0
9.533913850784302,-1.16,-1.84,0.42,2.21
9.54450798034668,-2.35,-2.15,-1.35,3.45
9.554467916488647,-2.71,-2.3,-2.34,4.25
9.563961029052734,-2.89,-2.79,-1.67,4.35
9.575033903121948,-2.65,-3.15,-0.82,4.19
9.584697961807251,-2.26,-2.91,-0.8,3.77
9.621563196182251,-2.71,-2.35,-1.5,3.88
9.621997117996216,-4.12,-1.77,-2.56,5.16
9.622412919998169,-5.82,-1.32,-3.56,6.94
9.623743057250977,-7.37,-0.87,-5.08,8.99
9.633797883987427,-8.24,-0.54,-6.42,10.45
9.644463062286377,-8.89,-0.62,-7.35,11.55
9.654378175735474,-9.79,-0.88,-8.38,12.91
9.663836002349854,-10.65,-1.44,-8.96,13.99
9.674710988998413,-10.75,-2.15,-9.2,14.31
9.684529066085815,-9.71,-2.81,-8.82,13.41
9.722285985946655,-8.38,-3.29,-8.24,12.2
9.722726106643677,-7.37,-3.34,-7.73,11.19
9.723168134689331,-7.01,-3.29,-7.38,10.69
9.723919153213501,-7.08,-3.64,-6.94,10.56
9.733591079711914,-7.15,-4.28,-6.2,10.38
9.744273900985718,-7.8,-3.24,-6.05,10.38
9.75420594215393,-7.02,1.75,-5.73,9.22
9.763678073883057,1.64,-2.29,-3.84,4.76
9.774311065673828,11.43,8.45,11.16,18.07
9.784398078918457,21.45,14.41,20.07,32.71
9.821912050247192,6.73,18.8,-8.23,21.59
9.822357892990112,0.84,12.5,-12.76,17.88
9.822803020477295,-4.91,1.23,-4.34,6.66
9.823569059371948,-11.73,-5.73,-3.88,13.61
9.833534955978394,-10.16,-4.47,1.07,11.15
9.844093084335327,-11.15,-3.77,-3.18,12.19
9.854037046432495,-10.98,-2.29,-6.87,13.15
9.863535165786743,-8.09,-0.48,-3.47,8.81
9.874050855636597,-4.27,-0.19,-1.08,4.4
9.884217977523804,-0.76,0.12,-0.62,0.98
9.921818017959595,1.49,0.93,-0.88,1.96
9.922255039215088,2.76,1.19,-0.68,3.08
9.922693014144897,1.88,0.79,-0.71,2.15
9.923449993133545,0.04,0.33,-2.1,2.12
9.933474063873291,-0.55,0.16,-2.7,2.76
9.943958044052124,-0.38,0.13,-1.92,1.96
9.953933000564575,-0.54,-0.04,-0.96,1.1
9.963359117507935,-0.66,-0.14,-0.92,1.14
9.97400689125061,-0.75,-0.16,-1.2,1.42
9.984029054641724,-0.76,-0.13,-1.1,1.34
10.023530006408691,-0.66,0.03,-0.69,0.95
10.023975133895874,-0.47,0.17,-0.23,0.55
10.024397134780884,-0.36,0.21,0.16,0.44
10.025187969207764,-0.37,0.2,0.28,0.5
10.033198118209839,-0.39,0.17,0.24,0.48
10.043762922286987,-0.18,0.07,0.1,0.21
10.053722143173218,0.18,0.03,0.0,0.18
10.063173055648804,0.61,-0.03,-0.06,0.61
10.073827028274536,1.0,-0.07,-0.05,1.0
10.08396601676941,1.21,-0.02,0.05,1.21
10.124165058135986,1.18,0.02,0.26,1.2
10.12460708618164,0.94,0.05,0.67,1.15
10.125343084335327,0.66,0.05,1.12,1.3
10.125746965408325,0.58,-0.04,1.41,1.52
10.13305401802063,0.66,-0.08,1.36,1.51
10.143562078475952,0.73,-0.11,1.11,1.33
10.153573036193848,0.65,-0.24,0.85,1.09
10.163039922714233,0.48,-0.3,0.58,0.81
10.173611879348755,0.46,-0.23,0.36,0.62
10.18376088142395,0.75,-0.01,0.38,0.84
10.223730087280273,1.11,0.33,0.39,1.22
10.2241690158844,1.36,0.45,0.61,1.55
10.224571943283081,1.49,0.45,1.08,1.89
10.225311994552612,1.37,0.25,0.98,1.7
10.2329580783844,0.98,0.01,1.57,1.85
10.243306875228882,0.88,0.29,1.84,2.06
10.253493070602417,1.27,0.72,1.55,2.12
10.26288390159607,1.41,1.11,1.52,2.35
10.27362608909607,1.4,1.2,1.3,2.25
10.283581972122192,1.82,1.25,1.22,2.52
10.325062036514282,2.6,1.77,1.42,3.45
10.325493097305298,2.66,2.26,1.4,3.76
10.325909852981567,2.37,2.95,1.5,4.07
10.326337099075317,2.19,3.15,2.04,4.34
10.332741022109985,2.13,3.2,2.74,4.72
10.343147039413452,2.11,3.71,3.02,5.22
10.353223085403442,2.48,5.75,2.78,6.85
10.362704038619995,3.86,7.39,3.38,8.99
10.373316049575806,4.44,7.49,4.93,10.0
10.383386850357056,4.33,7.79,5.95,10.71
10.424474000930786,4.64,8.42,7.15,11.98
10.424914121627808,5.11,9.21,7.58,12.97
10.425677061080933,5.47,9.47,7.49,13.25
10.426094055175781,4.84,8.44,7.57,12.32
10.432538986206055,4.33,6.98,5.61,9.94
10.443006038665771,5.02,6.05,1.72,8.04
10.453145027160645,5.93,6.45,-2.89,9.22
10.462512969970703,4.97,9.07,-6.45,12.18
10.473196029663086,1.04,11.74,-4.01,12.44
10.48331093788147,-2.17,11.58,0.56,11.79
10.524963140487671,-2.38,8.74,1.48,9.17
10.5257408618927,-0.51,4.51,0.68,4.58
10.526165008544922,0.76,1.23,0.86,1.68
10.526593923568726,-2.47,-0.65,-2.01,3.25
10.532356023788452,-1.97,1.5,-5.53,6.05
10.543160200119019,2.89,3.67,-1.63,4.94
10.55296015739441,6.84,2.0,1.72,7.33
10.562402963638306,8.99,-0.6,3.68,9.73
10.573097944259644,9.56,-2.6,4.87,11.03
10.583050012588501,8.45,-3.61,4.69,10.31
10.624691009521484,6.97,-3.65,4.03,8.83
10.625468015670776,5.85,-3.27,3.16,7.4
10.625890970230103,5.14,-2.76,2.42,6.31
10.626312017440796,4.38,-2.43,2.24,5.48
10.632187128067017,2.95,-2.18,2.63,4.51
10.642932176589966,1.27,-1.8,2.68,3.46
10.652712106704712,0.14,-1.47,2.64,3.02
10.662277936935425,-0.41,-1.12,2.59,2.85
10.672927141189575,0.2,-0.93,2.09,2.29
10.682915925979614,1.79,-0.99,2.16,2.97
10.725264072418213,2.82,-1.13,2.26,3.78
10.72569489479065,2.63,-0.33,1.19,2.9
10.726109981536865,0.56,0.07,0.31,0.64
10.72656798362732,-2.79,0.06,-1.09,2.99
10.732047080993652,-4.5,0.84,-4.39,6.34
10.742863893508911,-4.67,1.03,-6.86,8.36
10.752593040466309,-5.29,0.03,-5.33,7.5
10.762055158615112,-5.22,-1.56,-2.36,5.93
10.772777080535889,-4.79,-1.98,-1.58,5.41
10.782899141311646,-4.59,-1.39,-2.36,5.34
10.826131105422974,-4.41,-0.99,-3.2,5.53
10.826581001281738,-5.18,-0.33,-4.96,7.17
10.827000856399536,-6.5,0.58,-6.65,9.31
10.827419996261597,-7.33,1.12,-7.45,10.51
10.831847906112671,-7.61,1.13,-8.06,11.14
10.842689990997314,-8.01,0.45,-9.25,12.24
10.852412939071655,-8.21,-0.69,-9.89,12.87
10.861830949783325,-8.21,-2.06,-9.51,12.73
10.872616052627563,-8.32,-3.29,-8.91,12.62
10.882698059082031,-8.34,-4.21,-8.33,12.51
10.891900062561035,-8.22,-4.21,-7.94,12.17
10.926419019699097,-8.04,1.71,-7.07,10.84
10.926849126815796,-2.84,-2.23,-5.66,6.71
10.927271127700806,-3.97,-4.6,-5.17,7.97
10.931731939315796,-2.88,3.73,-1.45,4.93
10.942671060562134,7.14,11.72,18.29,22.86
10.952368974685669,8.41,9.66,7.51,14.84
10.961812973022461,-0.42,10.82,-11.48,15.78
10.972461938858032,-6.72,8.93,-5.16,12.3
10.982583999633789,-7.04,-1.1,-6.47,9.62
10.991781949996948,-7.45,-1.92,-0.33,7.7
11.026867151260376,-9.31,-4.2,-1.3,10.29
11.027314901351929,-8.89,-4.36,-7.9,12.66
11.02773904800415,-7.21,-1.98,-9.01,11.7
11.03162407875061,-4.86,-0.09,-5.59,7.4
11.04248595237732,-1.44,0.49,-3.19,3.53
11.052175998687744,1.71,0.84,-2.18,2.89
11.06164002418518,3.53,1.12,-0.84,3.79
11.07228398323059,3.63,1.1,-0.22,3.79
11.082421064376831,1.59,0.67,-1.98,2.62
11.091515064239502,-0.35,0.3,-3.23,3.26
11.126896142959595,-1.25,0.29,-2.31,2.64
11.127345085144043,-1.33,0.25,-1.29,1.86
11.127774000167847,-0.93,0.18,-1.08,1.43
11.131484985351562,-0.67,0.07,-1.23,1.4
11.141999006271362,-0.56,-0.01,-1.12,1.25
11.152086973190308,-0.35,-0.02,-1.0,1.05
11.161476850509644,-0.25,0.08,-0.74,0.78
11.172183990478516,-0.33,0.09,-0.26,0.42
11.182109117507935,-0.3,0.02,0.17,0.34
11.19151520729065,-0.21,-0.04,0.56,0.59
11.226945161819458,-0.16,-0.1,0.78,0.8
11.22738003730774,-0.01,-0.13,0.83,0.84
11.227813005447388,0.38,-0.08,0.78,0.87
11.231260061264038,0.65,0.01,0.42,0.77
11.241783857345581,0.6,0.06,0.18,0.62
11.251919031143188,0.44,0.1,0.14,0.47
11.261379957199097,0.31,0.1,0.21,0.38
11.271950960159302,0.18,0.05,0.42,0.45
11.282148122787476,0.11,-0.01,0.76,0.76
11.29131007194519,0.23,-0.03,1.06,1.08
11.327568054199219,0.61,-0.04,1.38,1.5
11.327990055084229,1.03,-0.04,1.45,1.77
11.328402996063232,1.26,-0.07,1.39,1.87
11.331158876419067,1.03,-0.14,1.26,1.63
11.341656923294067,0.79,-0.08,0.84,1.15
11.351670980453491,0.85,0.04,0.67,1.08
11.361085176467896,1.08,0.18,0.63,1.26
11.371733903884888,1.37,0.26,0.82,1.61
11.381877183914185,1.59,0.21,1.46,2.16
11.391098022460938,1.84,0.29,1.7,2.52
11.427336931228638,1.69,0.43,1.12,2.07
11.42778205871582,1.07,0.57,0.73,1.41
11.428200006484985,0.51,1.06,0.67,1.35
11.430968999862671,0.2,1.3,0.78,1.52
11.44153904914856,0.62,1.46,0.81,1.78
11.45160698890686,1.34,2.06,1.13,2.7
11.460988998413086,2.15,2.52,1.74,3.74
11.47175908088684,2.99,3.13,2.23,4.86
11.481744050979614,3.66,3.96,2.69,6.02
11.491027116775513,4.12,5.46,2.68,7.34
11.528073072433472,4.52,7.73,2.47,9.28
11.528507947921753,5.49,9.21,3.91,11.41
11.52891206741333,5.49,10.05,5.72,12.8
11.53079605102539,5.19,11.04,6.66,13.89
11.541391134262085,4.71,11.92,7.09,14.64
11.551431894302368,4.21,12.4,7.45,15.06
11.560853004455566,4.32,12.22,8.05,15.25
11.571675062179565,4.47,10.43,7.79,13.76
11.581552028656006,4.25,7.97,4.12,9.92
11.590861082077026,4.06,6.92,-0.36,8.03
11.628910064697266,2.18,7.79,-3.48,8.8
11.629350900650024,-1.37,10.67,-2.81,11.11
11.62977385520935,-2.86,9.95,1.63,10.48
11.630563974380493,-1.71,5.78,1.89,6.31
11.641191005706787,-0.4,2.21,2.68,3.49
11.651283979415894,-3.15,-0.44,1.73,3.62
11.66063404083252,-5.72,0.8,-4.46,7.29
11.671404123306274,-1.09,4.69,-1.71,5.1
11.681443929672241,3.12,4.06,2.95,5.9
11.69072699546814,5.65,0.7,5.18,7.69
11.729042053222656,5.58,-1.5,5.51,7.98
11.729490995407104,4.35,-2.24,3.5,6.01
11.729938983917236,3.41,-2.4,1.72,4.51
11.730704069137573,2.85,-2.11,1.38,3.8
11.741054058074951,2.46,-1.66,1.61,3.37
11.75111198425293,1.88,-1.67,1.4,2.87
11.760372877120972,1.31,-2.08,0.99,2.65
11.771193027496338,1.45,-2.46,0.79,2.96
11.781220197677612,2.24,-2.66,0.59,3.52
11.79054307937622,3.19,-2.85,0.46,4.3
11.829482078552246,3.62,-3.0,0.5,4.72
11.830302953720093,3.44,-3.11,0.68,4.68
11.830744981765747,2.84,-3.23,0.5,4.32
11.831167936325073,1.92,-3.75,-0.17,4.21
11.840904951095581,0.82,-4.13,-1.39,4.43
11.850974082946777,0.16,-4.2,-2.5,4.89
11.86022686958313,0.13,-4.31,-2.25,4.86
11.871056079864502,0.27,-4.55,-1.38,4.76
11.881141901016235,0.31,-4.54,-1.5,4.79
11.890436887741089,-0.12,-4.11,-2.04,4.59
11.929948091506958,-1.23,-3.47,-2.75,4.59
11.930702924728394,-2.79,-2.85,-3.84,5.53
11.931124925613403,-3.97,-2.51,-4.62,6.58
11.931567907333374,-4.91,-2.08,-5.32,7.53
11.94071888923645,-5.99,-1.53,-6.13,8.7
11.95077109336853,-7.28,-0.79,-7.26,10.31
11.960272073745728,-8.06,0.06,-8.02,11.37
11.970906972885132,-8.6,0.65,-8.54,12.13
11.980931997299194,-9.09,0.88,-8.93,12.77
11.990258932113647,-9.05,0.55,-8.54,12.45
12.030591011047363,-8.41,-0.44,-8.14,11.71
12.031028032302856,-7.05,-1.39,-7.9,10.67
12.031450033187866,-5.75,-1.59,-6.77,9.02
12.031864881515503,-5.03,-2.11,-5.54,7.77
12.04059100151062,-4.93,-3.17,-4.83,7.59
12.050709962844849,-5.68,-3.91,-5.07,8.55
12.06038784980774,-6.5,-2.94,-6.1,9.38
12.07075810432434,-5.0,3.92,-5.05,8.11
12.080766916275024,1.85,2.99,0.18,3.52
12.090128183364868,7.01,4.66,10.0,13.07
12.131582021713257,11.49,5.21,12.75,17.93
12.132022142410278,7.37,6.0,3.43,10.1
12.132438898086548,1.03,11.31,-4.44,12.19
12.132861852645874,-2.75,13.05,-9.47,16.35
12.140398979187012,-6.55,1.85,-8.02,10.51
12.150563955307007,-7.72,-4.04,0.59,8.73
12.160297155380249,-10.43,-4.05,0.76,11.21
12.170597076416016,-9.98,-3.79,-4.81,11.7
12.1805899143219,-7.4,-2.39,-6.18,9.93
12.189962148666382,-4.17,-0.67,-4.34,6.05
12.231932878494263,-1.76,0.12,-2.22,2.83
12.232869863510132,-0.78,0.02,-1.84,1.99
12.233301877975464,0.23,0.06,-1.69,1.7
12.233733892440796,0.68,0.27,-1.56,1.72
12.240248918533325,-0.34,0.28,-1.27,1.34
12.250305891036987,-1.39,0.4,-0.64,1.58
12.259999990463257,-1.57,0.47,-0.81,1.82
12.270382165908813,-1.51,0.26,-1.24,1.97
12.28047800064087,-1.49,0.07,-1.3,1.97
12.289797067642212,-1.51,-0.03,-1.16,1.9
12.332020998001099,-1.34,-0.08,-1.07,1.71
12.33296513557434,-1.11,-0.02,-1.09,1.55
12.333395004272461,-0.97,0.01,-1.17,1.51
12.333800077438354,-0.86,0.01,-1.12,1.41
12.340049028396606,-0.71,0.02,-0.92,1.16
12.350152969360352,-0.5,0.04,-0.65,0.82
12.359617948532104,-0.18,0.03,-0.36,0.4
12.370260000228882,0.12,0.0,-0.1,0.15
12.380321979522705,0.25,-0.04,0.09,0.26
12.389648199081421,0.08,-0.07,0.25,0.27
12.433179140090942,-0.13,-0.03,0.36,0.38
12.434104204177856,0.07,0.06,0.28,0.29
12.434530973434448,0.67,0.2,0.17,0.71
12.43494701385498,1.22,0.26,0.2,1.26
12.44000506401062,1.44,0.24,0.33,1.49
12.449991941452026,1.45,0.17,0.42,1.51
12.459362983703613,1.36,0.17,0.6,1.49
12.470076084136963,1.35,0.15,0.88,1.61
12.480179071426392,1.31,0.13,1.05,1.68
12.489431142807007,1.29,0.18,0.93,1.6
12.532448053359985,1.4,0.23,0.72,1.59
12.53342604637146,1.45,0.15,0.56,1.56
12.533846139907837,1.44,-0.01,0.63,1.57
12.534260988235474,1.33,-0.06,0.83,1.56
12.539825201034546,1.34,0.16,1.08,1.72
12.549823999404907,1.35,0.32,1.3,1.9
12.559263944625854,1.13,0.48,1.4,1.86
12.56998896598816,0.96,0.6,1.49,1.87
12.580151081085205,0.97,0.67,1.67,2.04
12.589350938796997,1.12,0.85,1.78,2.26
12.633056879043579,1.2,1.06,1.43,2.14
12.633974075317383,1.21,1.63,1.43,2.48
12.634366035461426,1.21,1.77,1.71,2.74
12.634764909744263,1.27,1.79,2.25,3.14
12.639568090438843,1.57,1.89,2.43,3.45
12.649696111679077,1.8,2.2,2.43,3.73
12.659156084060669,1.74,2.55,2.64,4.06
12.669832944869995,1.76,3.03,2.57,4.34
12.679836988449097,1.66,3.85,2.6,4.93
12.689220190048218,1.72,5.62,2.32,6.31
12.733352899551392,2.72,7.36,3.68,8.66
12.734328985214233,3.55,8.45,5.62,10.75
12.734755992889404,3.93,9.49,6.67,12.24
12.735174894332886,4.01,10.48,7.51,13.5
12.739714860916138,2.99,10.57,8.38,13.81
12.74950098991394,1.53,9.29,8.99,13.01
12.758826971054077,-0.16,6.69,7.81,10.28
12.769608974456787,-0.52,4.56,2.22,5.09
12.779753923416138,1.61,4.6,-2.97,5.7
12.788994073867798,1.22,7.65,-4.46,8.93
12.833407163619995,-2.05,9.24,-2.1,9.69
12.834200143814087,-3.25,8.56,1.22,9.23
12.834622144699097,-1.7,6.07,1.7,6.52
12.83503794670105,0.98,2.56,1.42,3.08
12.839274168014526,-0.32,0.01,1.15,1.19
12.849281072616577,-4.07,-0.66,-2.36,4.75
12.858815908432007,-3.27,1.84,-4.96,6.21
12.869434118270874,1.1,4.19,-0.94,4.43
12.879639863967896,4.15,3.09,2.0,5.54
12.88878607749939,6.39,0.66,3.52,7.32
12.934000968933105,6.89,-1.19,3.94,8.02
12.934942960739136,6.14,-1.66,2.93,7.0
12.935366868972778,5.75,-1.61,2.42,6.44
12.935786962509155,5.14,-1.54,2.79,6.04
12.939139127731323,4.04,-1.47,2.7,5.07
12.949072122573853,2.93,-1.58,2.26,4.02
12.95862603187561,2.04,-1.81,2.11,3.44
12.969342947006226,1.25,-2.1,1.95,3.12
12.979444026947021,0.74,-2.25,1.6,2.85
12.988600969314575,0.64,-2.27,1.22,2.65
13.034794092178345,0.85,-2.54,1.08,2.88
13.035545110702515,1.14,-2.88,1.25,3.34
13.035971879959106,1.18,-3.05,1.12,3.45
13.036391019821167,0.96,-3.21,0.82,3.44
13.039035081863403,0.51,-3.3,0.77,3.42
13.049064874649048,-0.04,-3.44,0.71,3.51
13.058543920516968,-0.79,-3.59,0.52,3.71
13.069132089614868,-1.5,-3.72,-0.13,4.01
13.079192876815796,-2.19,-3.43,-1.46,4.32
13.088517904281616,-2.5,-2.95,-3.06,4.93
13.13527798652649,-2.74,-2.62,-3.63,5.24
13.13622498512268,-3.4,-2.51,-3.09,5.23
13.136718034744263,-4.2,-2.32,-2.88,5.59
13.137137174606323,-4.82,-1.65,-3.42,6.13
13.138861894607544,-5.13,-0.73,-4.35,6.76
13.148844957351685,-4.92,-0.11,-5.06,7.05
13.158315896987915,-4.59,0.43,-5.48,7.16
13.16894006729126,-5.35,0.97,-6.92,8.8
13.178977012634277,-7.12,1.21,-9.03,11.56
13.188430070877075,-8.15,0.27,-9.42,12.45
13.23555588722229,-8.47,-1.46,-8.63,12.17
13.236490964889526,-8.39,-2.59,-8.49,12.21
13.236919164657593,-8.43,-2.99,-9.13,12.78
13.237345933914185,-8.7,-3.42,-9.78,13.52
13.238645076751709,-8.78,-3.86,-9.55,13.53
13.248664140701294,-9.43,-0.15,-8.83,12.91
13.258182048797607,-6.88,4.17,-3.56,8.79
13.268901109695435,5.28,3.61,7.07,9.53
13.278789043426514,13.88,4.47,18.45,23.51
13.288231134414673,11.53,4.13,10.61,16.2
13.335831880569458,3.78,8.84,-5.52,11.08
13.336781978607178,-2.54,14.44,-10.74,18.17
13.337205171585083,-8.42,7.43,-4.96,12.27
13.337956190109253,-11.34,-4.16,-1.67,12.19
13.338899850845337,-7.33,-4.53,-4.26,9.61
13.348480939865112,-7.85,-2.0,-6.73,10.53
13.358073949813843,-5.54,-0.97,-7.52,9.39
13.368728876113892,-3.63,0.85,-5.12,6.33
13.378769159317017,-2.56,1.22,-3.37,4.4
13.388141870498657,-0.17,1.02,-2.72,2.9
13.437201976776123,1.51,0.89,-2.23,2.83
13.43796420097351,0.96,0.76,-1.81,2.18
13.438384056091309,-0.6,0.6,-1.63,1.83
13.438786029815674,-1.21,0.33,-1.63,2.05
13.439710855484009,-1.16,0.18,-1.29,1.74
13.448447942733765,-1.11,0.07,-0.78,1.35
13.457867860794067,-1.09,-0.07,-0.37,1.15
13.468638181686401,-1.18,-0.27,-0.2,1.22
13.478693008422852,-1.16,-0.28,-0.11,1.19
13.487816095352173,-0.9,-0.22,-0.04,0.92
13.536843061447144,-0.39,-0.2,-0.11,0.45
13.537328004837036,0.08,-0.11,-0.2,0.24
13.538029909133911,0.58,-0.1,-0.17,0.61
13.538448095321655,0.94,-0.12,0.08,0.95
13.53937315940857,0.96,-0.07,0.42,1.05
13.548213005065918,0.87,-0.05,0.58,1.04
13.557756185531616,0.85,-0.06,0.81,1.17
13.568413972854614,0.99,-0.1,0.92,1.35
13.620121002197266,1.11,-0.12,0.81,1.37
13.620632886886597,1.26,-0.12,0.74,1.46
13.621041059494019,1.45,-0.13,0.83,1.67
13.621459007263184,1.42,-0.05,1.01,1.74
13.621877908706665,1.15,0.1,1.16,1.63
13.627942085266113,0.65,0.09,1.08,1.26
13.638298034667969,-0.01,-0.06,0.85,0.85
13.648138999938965,-0.42,-0.21,0.7,0.84
13.65758490562439,-0.28,-0.28,0.72,0.82
13.668354034423828,0.45,-0.24,0.82,0.96
13.721635103225708,1.4,-0.11,0.74,1.58
13.722112894058228,1.73,0.02,0.63,1.84
13.72253704071045,1.39,-0.01,0.8,1.6
13.722958087921143,1.1,-0.2,0.95,1.46
13.723375082015991,1.44,-0.37,1.31,1.98
13.727782964706421,2.01,-0.47,1.77,2.71
13.737977981567383,2.03,-0.47,1.73,2.7
13.747988939285278,1.8,-0.35,1.57,2.41
13.757447004318237,1.75,-0.05,1.63,2.39
13.768190145492554,1.76,0.37,1.82,2.55
13.82127594947815,2.0,0.88,1.65,2.73
13.82171893119812,2.12,1.24,1.33,2.79
13.82214617729187,1.73,1.54,1.02,2.53
13.822561979293823,1.0,1.75,1.01,2.25
13.822981119155884,0.25,2.17,1.3,2.54
13.827300071716309,0.06,2.69,1.52,3.09
13.837899923324585,-0.05,4.08,1.98,4.53
13.847848176956177,1.41,5.77,2.23,6.34
13.857326984405518,2.76,6.38,2.99,7.56
13.8680579662323,3.38,6.25,4.72,8.53
13.922345876693726,3.16,6.29,5.56,8.97
13.92279314994812,3.2,7.01,6.4,10.01
13.923226118087769,3.75,8.2,8.06,12.09
13.923640966415405,3.95,9.02,8.86,13.24
13.924060106277466,3.76,8.92,8.54,12.9
13.927124977111816,3.69,8.21,8.11,12.11
13.937716007232666,3.77,6.93,6.62,10.29
13.947768926620483,4.56,5.46,3.01,7.72
13.95707106590271,5.06,6.05,-2.24,8.19
13.967858076095581,1.71,9.72,-5.44,11.26
14.021230936050415,-4.14,11.63,-3.12,12.73
14.022578954696655,-4.29,10.88,-0.42,11.7
14.022999048233032,-2.2,8.54,0.38,8.82
14.023412942886353,1.5,4.52,1.33,4.94
14.023836851119995,1.67,1.28,1.52,2.59
14.02693486213684,-2.59,0.22,-1.77,3.14
14.037544012069702,-2.29,2.52,-4.52,5.65
14.047605991363525,2.39,4.39,-0.4,5.01
14.056992053985596,5.58,2.58,3.0,6.84
14.0677969455719,7.4,0.18,4.22,8.52
14.077661991119385,8.22,-1.32,4.88,9.65
14.12307620048523,7.11,-1.9,4.66,8.71
14.123507976531982,5.57,-1.83,4.65,7.48
14.12394118309021,4.17,-1.76,4.86,6.64
14.124366998672485,2.82,-1.68,4.61,5.65
14.126904010772705,1.68,-1.59,4.02,4.63
14.13742995262146,1.16,-1.7,3.48,4.04
14.147414922714233,1.15,-1.96,3.23,3.94
14.156895875930786,1.18,-2.4,2.74,3.82
14.167600870132446,1.26,-2.82,2.27,3.83
14.177545070648193,1.39,-3.31,2.04,4.12
14.223129034042358,1.43,-3.82,2.04,4.56
14.223550081253052,1.14,-4.09,1.67,4.56
14.223968982696533,0.62,-4.24,1.04,4.4
14.224386930465698,-0.1,-4.52,0.67,4.57
14.226608037948608,-0.95,-4.83,0.36,4.93
14.237293004989624,-1.47,-4.71,-0.19,4.93
14.24728512763977,-2.01,-4.28,-1.3,4.9
14.256731986999512,-2.88,-3.32,-2.87,5.24
14.267487049102783,-3.94,-2.04,-4.89,6.6
14.277416944503784,-4.94,-0.84,-6.79,8.43
14.323639154434204,-5.73,-0.14,-6.6,8.74
14.324089050292969,-6.18,0.11,-5.21,8.08
14.324506044387817,-6.04,1.02,-5.16,8.0
14.32492208480835,-6.27,2.34,-7.36,9.94
14.326503038406372,-7.72,3.01,-10.12,13.07
14.337126970291138,-10.07,2.55,-12.42,16.19
14.347105026245117,-11.45,0.13,-13.24,17.5
14.356525182723999,-10.08,-3.23,-10.59,14.97
14.367171049118042,-7.29,-4.02,-8.1,11.61
14.377223014831543,-5.87,-3.2,-8.11,10.51
14.424041032791138,-6.44,1.36,-7.69,10.12
14.424482107162476,-4.28,-0.46,-5.42,6.92
14.42491888999939,-3.38,-5.1,-7.22,9.46
14.425343036651611,0.87,4.76,-0.01,4.83
14.426270008087158,13.25,9.41,17.44,23.83
14.43696403503418,12.1,11.72,7.83,18.57
14.446933031082153,-2.59,22.03,-17.69,28.37
14.456423997879028,-3.22,8.3,-20.66,22.49
14.467069864273071,-5.15,-5.33,1.57,7.57
14.47710108757019,-12.34,-10.47,5.83,17.2
14.525027990341187,-12.64,-6.87,-7.3,16.13
14.525468111038208,-11.12,-3.0,-8.49,14.3
14.5262291431427,-7.73,0.52,-2.11,8.02
14.52665901184082,-2.11,1.13,-0.71,2.49
14.527083158493042,2.28,0.8,-2.4,3.4
14.536772966384888,4.04,1.71,-3.57,5.65
14.546758890151978,2.65,1.5,-2.63,4.02
14.55620002746582,0.3,0.7,-1.46,1.64
14.56692385673523,-0.81,0.38,-1.48,1.72
14.576876878738403,-1.06,0.13,-1.82,2.11
14.625662088394165,-0.96,0.04,-1.79,2.03
14.626420021057129,-0.81,0.09,-1.69,1.87
14.626846075057983,-0.53,0.16,-1.49,1.58
14.62726092338562,-0.4,0.15,-1.28,1.34
14.627695083618164,-0.47,0.01,-0.98,1.08
14.63674807548523,-0.69,-0.08,-0.41,0.8
14.646465063095093,-0.75,-0.08,0.09,0.75
14.656066179275513,-0.57,-0.15,0.37,0.69
14.666783094406128,-0.28,-0.23,0.6,0.7
14.676809072494507,0.07,-0.15,0.74,0.75
14.726500988006592,0.39,-0.02,0.61,0.72
14.726940870285034,0.52,0.03,0.6,0.79
14.727359056472778,0.48,0.06,0.43,0.64
14.727773904800415,0.47,0.08,0.1,0.48
14.728533029556274,0.54,0.11,0.05,0.55
14.736545085906982,0.74,0.05,0.27,0.78
14.746358156204224,1.11,0.04,0.61,1.26
14.755944967269897,1.4,0.11,0.89,1.66
14.766547918319702,1.25,0.12,0.88,1.53
14.776609182357788,0.67,0.11,0.78,1.03
14.82869005203247,0.16,0.11,0.7,0.72
14.829095125198364,0.02,0.02,0.7,0.7
14.829540967941284,0.08,-0.13,0.79,0.8
14.82999300956726,0.11,-0.32,0.66,0.74
14.830482006072998,0.18,-0.38,0.46,0.62
14.836258172988892,0.63,-0.28,0.4,0.79
14.846191167831421,1.31,-0.02,0.55,1.42
14.855685949325562,1.57,0.3,0.52,1.68
14.86634087562561,1.44,0.44,0.83,1.71
14.876471996307373,1.41,0.56,1.6,2.2
14.92648696899414,1.6,0.73,1.52,2.32
14.926925897598267,1.38,0.91,1.02,1.94
14.927350997924805,0.83,1.29,0.69,1.68
14.927776098251343,0.68,1.65,0.84,1.97
14.928200960159302,0.72,1.61,1.22,2.14
14.936187982559204,1.4,2.22,1.23,2.89
14.946310997009277,1.75,2.56,1.85,3.61
14.955654859542847,1.74,2.69,2.24,3.9
14.966210126876831,1.98,2.87,2.51,4.29
14.976283073425293,2.2,3.22,2.4,4.57
15.026624917984009,2.13,3.92,2.22,4.98
15.02706503868103,2.16,5.35,2.08,6.13
15.02748417854309,3.3,6.46,3.2,7.92
15.027899980545044,4.32,6.55,4.83,9.21
15.028325080871582,5.05,6.62,6.11,10.32
15.036120176315308,5.57,7.25,6.38,11.14
15.046354055404663,6.32,8.06,6.64,12.2
15.055525064468384,6.01,7.83,7.59,12.45
15.066097974777222,5.36,6.71,7.38,11.32
15.076183080673218,5.04,5.15,5.69,9.18
15.127197980880737,4.66,4.45,1.85,6.7
15.127645015716553,4.59,5.36,-2.88,7.62
15.128067016601562,3.22,8.07,-6.93,11.11
15.128865957260132,-0.4,11.35,-4.77,12.31
15.129288911819458,-4.08,9.89,0.29,10.7
15.135838031768799,-4.44,6.99,1.64,8.44
15.146104097366333,-1.2,4.28,0.87,4.52
15.155336141586304,2.13,1.65,1.04,2.88
15.165959119796753,0.05,0.29,0.39,0.48
15.175953149795532,-1.67,1.71,-4.24,4.86
15.228034019470215,1.66,4.55,-2.73,5.55
15.22847294807434,4.93,3.94,0.88,6.37
15.229242086410522,6.92,1.41,3.13,7.72
15.22965693473816,8.05,-1.06,4.63,9.34
15.230069875717163,7.23,-2.41,3.94,8.57
15.23577618598938,5.94,-2.5,2.44,6.89
15.246077060699463,4.82,-2.37,2.43,5.89
15.255182981491089,3.5,-2.23,2.68,4.94
15.265769004821777,2.06,-1.64,2.17,3.41
15.2758629322052,0.9,-0.92,1.38,1.88
15.328744173049927,0.45,-0.74,0.92,1.26
15.329187154769897,0.78,-1.14,0.69,1.54
15.32960820198059,1.33,-1.66,0.26,2.14
15.330038070678711,1.84,-2.13,-0.16,2.81
15.330456972122192,2.27,-2.36,0.02,3.27
15.3354971408844,2.58,-2.57,0.65,3.69
15.345781087875366,2.23,-2.82,0.91,3.7
15.35496997833252,0.93,-3.34,0.25,3.47
15.365594148635864,-0.57,-3.82,-0.96,3.97
15.375722169876099,-1.44,-3.99,-2.35,4.84
15.429010152816772,-1.42,-4.01,-2.93,5.16
15.429447889328003,-1.28,-4.39,-2.04,5.0
15.42989206314087,-1.71,-4.66,-1.85,5.29
15.430311918258667,-2.95,-4.37,-3.01,6.07
15.430747985839844,-4.6,-3.93,-4.12,7.31
15.435417890548706,-5.83,-3.43,-5.05,8.44
15.44530987739563,-6.3,-2.63,-5.86,8.99
15.454823017120361,-6.57,-1.8,-6.64,9.51
15.46553111076355,-7.03,-1.2,-7.69,10.48
15.475528001785278,-7.79,-0.59,-8.71,11.7
15.530029058456421,-8.58,-0.37,-8.84,12.32
15.530467987060547,-9.05,-0.68,-8.62,12.51
15.530885934829712,-9.23,-1.18,-8.44,12.56
15.53131103515625,-8.93,-1.75,-8.32,12.33
15.53172516822815,-7.89,-2.02,-7.85,11.31
15.535125017166138,-6.84,-2.07,-7.08,10.05
15.545156002044678,-6.67,-2.06,-6.89,9.8
15.554663896560669,-7.09,-1.75,-6.75,9.94
15.565439939498901,-7.54,3.13,-6.26,10.28
15.575298070907593,-2.05,-0.51,-5.47,5.86
15.630105018615723,2.04,3.32,3.61,5.31
15.630558013916016,11.82,9.91,17.84,23.58
15.63098692893982,14.25,9.24,13.81,21.88
15.631411075592041,3.84,10.4,-3.88,11.74
15.631829023361206,-5.49,9.51,-5.89,12.46
15.635063886642456,-10.39,1.14,-8.44,13.43
15.645004034042358,-11.1,-2.26,-0.8,11.35
15.654574155807495,-9.09,-2.24,4.05,10.2
15.665305852890015,-7.01,-3.38,-2.42,8.14
15.675270080566406,-4.92,-2.56,-5.51,7.81
15.73058295249939,-2.54,-1.12,-5.13,5.83
15.731033086776733,-0.8,-0.13,-3.57,3.66
15.73145604133606,0.47,0.74,-2.5,2.64
15.731880903244019,1.55,1.18,-2.63,3.27
15.732301950454712,1.88,0.88,-2.59,3.31
15.734843969345093,0.85,0.5,-2.07,2.29
15.744869947433472,-0.73,0.4,-1.41,1.63
15.754384994506836,-1.2,0.33,-0.77,1.46
15.76518702507019,-1.11,0.1,-0.27,1.14
15.775047063827515,-1.06,0.0,-0.17,1.07
15.830976009368896,-1.01,0.06,-0.55,1.15
15.831423997879028,-0.97,0.11,-1.1,1.47
15.831873178482056,-0.85,0.17,-1.13,1.42
15.832288026809692,-0.74,0.13,-1.02,1.26
15.832702875137329,-0.72,0.1,-1.01,1.24
15.834705114364624,-0.7,0.02,-0.97,1.19
15.844709157943726,-0.61,-0.07,-0.73,0.95
15.854263067245483,-0.53,-0.07,-0.26,0.59
15.864886045455933,-0.36,-0.08,0.14,0.39
15.874789953231812,-0.06,-0.01,0.35,0.35
15.931079149246216,0.15,0.08,0.6,0.62
15.931586980819702,0.32,0.12,0.68,0.76
15.932000875473022,0.69,0.15,0.52,0.87
15.932417154312134,0.93,0.16,0.56,1.09
15.932826042175293,0.98,0.05,0.54,1.12
15.934542894363403,1.03,-0.1,0.88,1.35
15.944568872451782,1.19,-0.21,1.46,1.89
15.95411992073059,1.35,-0.3,1.64,2.14
15.964680910110474,1.45,-0.25,1.44,2.05
15.974776029586792,1.37,-0.3,1.32,1.92
16.03153920173645,1.22,-0.36,0.98,1.6
16.031979084014893,1.34,-0.14,0.5,1.43
16.03240203857422,1.31,0.23,0.07,1.33
16.032819032669067,0.97,0.45,-0.05,1.07
16.033241987228394,0.68,0.47,0.28,0.87
16.034528970718384,0.61,0.23,0.79,1.02
16.044379949569702,0.83,0.01,1.51,1.72
16.05391001701355,1.23,0.01,1.74,2.13
16.064476013183594,1.56,0.11,1.5,2.16
16.074537992477417,1.78,0.4,1.37,2.28
16.131152868270874,1.69,0.8,1.17,2.2
16.131587982177734,1.19,1.02,0.97,1.84
16.132009029388428,0.69,1.24,0.85,1.65
16.132421016693115,0.71,1.6,0.87,1.95
16.132839918136597,1.1,2.38,0.99,2.8
16.1341769695282,1.95,3.55,1.08,4.19
16.14428210258484,2.35,4.87,1.22,5.54
16.15385103225708,3.24,5.4,1.73,6.53
16.16444206237793,3.31,4.98,2.64,6.53
16.174454927444458,2.96,4.79,3.41,6.58
16.230530977249146,2.83,4.92,4.37,7.16
16.23096203804016,3.13,5.64,5.09,8.21
16.23137593269348,4.24,6.32,6.0,9.69
16.23178791999817,5.13,6.72,6.39,10.59
16.232197999954224,5.39,6.64,6.25,10.59
16.234060049057007,4.87,6.28,6.04,9.98
16.244116067886353,4.86,5.53,5.45,9.15
16.25364899635315,4.47,4.58,3.76,7.42
16.26415705680847,3.69,4.98,0.9,6.26
16.27428698539734,2.53,5.73,-2.07,6.59
16.330829858779907,0.11,7.78,-4.0,8.74
16.33127188682556,-3.84,9.8,-1.14,10.58
16.331691026687622,-4.33,9.7,1.37,10.71
16.332110166549683,0.54,8.64,0.1,8.65
16.33254599571228,4.35,5.92,-0.26,7.35
16.333816051483154,4.25,2.95,0.6,5.2
16.34394097328186,1.22,1.48,-0.41,1.96
16.35347819328308,-1.85,2.28,-4.66,5.5
16.364085912704468,0.68,4.55,-3.55,5.81
16.374039888381958,4.04,4.26,0.99,5.95
16.430763006210327,6.23,1.56,3.65,7.38
16.431267976760864,7.87,-0.82,5.65,9.72
16.431689977645874,7.02,-2.22,5.85,9.4
16.432106971740723,5.3,-2.43,5.2,7.81
16.432550191879272,3.55,-1.82,4.75,6.2
16.43387508392334,1.81,-0.96,4.07,4.55
16.44378113746643,0.46,-0.29,3.03,3.07
16.45333504676819,-0.28,-0.13,2.24,2.26
16.464160203933716,0.17,-0.36,1.82,1.86
16.47393488883972,1.16,-0.97,1.59,2.19
16.53167986869812,2.02,-1.8,1.94,3.32
16.532120943069458,2.54,-2.49,2.41,4.29
16.532560110092163,2.75,-2.93,2.93,4.97
16.53333020210266,2.09,-3.22,3.09,4.92
16.53374409675598,0.46,-3.73,2.02,4.26
16.534670114517212,-1.1,-4.15,-0.1,4.29
16.543640851974487,-1.96,-4.07,-2.2,5.02
16.553174018859863,-2.58,-4.0,-2.86,5.55
16.564038038253784,-3.36,-4.47,-2.15,5.99
16.573774099349976,-3.73,-4.87,-1.94,6.43
16.63229012489319,-4.02,-5.24,-1.82,6.85
16.633068084716797,-4.62,-5.15,-2.38,7.31
16.63349199295044,-4.99,-4.29,-3.83,7.61
16.633915185928345,-5.41,-3.33,-4.98,8.07
16.63432812690735,-6.35,-2.27,-6.52,9.38
16.635279893875122,-7.29,-1.44,-7.82,10.78
16.643437147140503,-8.08,-0.98,-8.58,11.82
16.653032064437866,-9.05,-0.77,-9.12,12.87
16.66403102874756,-9.78,-1.32,-9.36,13.6
16.673665046691895,-8.94,-1.87,-8.93,12.77
16.73247790336609,-7.28,-2.01,-8.24,11.17
16.733241081237793,-6.12,-1.61,-8.22,10.37
16.733676195144653,-6.19,5.09,-6.76,10.48
16.734097003936768,-1.4,-1.1,-5.64,5.91
16.734532117843628,-3.62,-4.49,-8.13,9.96
16.735486030578613,-1.6,7.25,-2.37,7.79
16.743306875228882,9.2,18.57,16.95,26.77
16.75290298461914,2.4,16.64,-1.54,16.88
16.763850927352905,-8.38,5.6,-8.85,13.41
16.773500204086304,-6.06,-5.15,-1.76,8.14
16.83366894721985,-7.11,-2.64,-1.37,7.7
16.83410906791687,-8.55,-2.89,-0.88,9.06
16.83452796936035,-7.59,-2.92,-2.93,8.64
16.834951162338257,-6.79,-1.77,-4.86,8.53
16.835368871688843,-4.57,-0.14,-3.63,5.83
16.836313009262085,-0.92,0.32,-2.03,2.25
16.8433940410614,2.18,0.38,-2.07,3.03
16.85262417793274,3.68,0.88,-2.45,4.5
16.863617181777954,2.7,1.11,-2.02,3.55
16.873321056365967,0.25,0.83,-1.35,1.6
16.933969020843506,-1.09,0.32,-1.05,1.54
16.934417009353638,-1.07,-0.06,-1.31,1.69
16.93483805656433,-1.1,-0.17,-1.48,1.85
16.935240983963013,-1.25,0.01,-1.48,1.93
16.935649156570435,-0.86,0.14,-1.45,1.69
16.936599016189575,-0.29,0.15,-1.28,1.32
16.942993879318237,-0.22,0.12,-1.09,1.11
16.952553033828735,-0.53,0.14,-0.92,1.07
16.963399171829224,-0.72,0.09,-0.74,1.03
16.973164081573486,-0.82,0.0,-0.52,0.97
17.034024953842163,-0.88,-0.07,-0.39,0.96
17.034473180770874,-0.8,-0.14,-0.25,0.84
17.03488802909851,-0.51,-0.15,-0.18,0.56
17.035302877426147,-0.05,-0.01,-0.15,0.15
17.035714864730835,0.41,0.18,-0.1,0.45
17.03663206100464,0.51,0.23,0.04,0.56
17.042909860610962,0.44,0.15,0.15,0.48
17.052386045455933,0.41,0.1,0.09,0.43
17.062955141067505,0.36,0.04,0.08,0.37
17.073040008544922,0.16,-0.05,0.25,0.3
17.134734869003296,0.06,-0.07,0.41,0.42
17.13520312309265,0.18,-0.03,0.64,0.66
17.13562798500061,0.34,-0.01,0.71,0.78
17.136048078536987,0.46,-0.03,0.57,0.73
17.136465072631836,0.58,-0.05,0.53,0.78
17.137396097183228,0.67,-0.04,0.4,0.78
17.142704010009766,0.71,0.0,0.28,0.76
17.15226101875305,0.89,0.01,0.44,0.99
17.16284704208374,1.18,0.0,0.79,1.42
17.172888040542603,1.52,0.03,1.13,1.89
17.234421968460083,1.95,0.13,1.09,2.23
17.234874963760376,2.16,0.26,1.4,2.58
17.23529887199402,2.25,0.51,1.88,2.97
17.23572611808777,2.19,0.69,1.55,2.77
17.236144065856934,1.87,0.74,1.35,2.42
17.237088918685913,1.71,0.69,1.34,2.27
17.242483854293823,1.93,0.76,1.22,2.4
17.25214695930481,2.21,1.36,1.2,2.85
17.26266598701477,2.49,2.08,1.47,3.56
17.272680044174194,2.11,2.58,1.51,3.65
17.335692167282104,1.61,3.81,1.84,4.52
17.336135149002075,1.81,5.27,1.66,5.81
17.336551904678345,2.73,5.85,2.35,6.87
17.33699107170105,3.03,5.36,3.06,6.87
17.337403059005737,3.1,5.39,3.33,7.05
17.338337182998657,3.0,5.52,3.99,7.44
17.342380046844482,2.18,5.87,4.23,7.55
17.351907968521118,1.89,6.44,5.19,8.48
17.36244297027588,2.23,7.03,6.66,9.93
17.37250018119812,3.49,7.8,6.86,10.95
17.435487031936646,4.21,7.2,6.1,10.33
17.4359290599823,4.13,6.16,5.03,8.96
17.436350107192993,4.61,5.65,3.13,7.93
17.436772108078003,5.46,5.43,-0.59,7.72
17.437191009521484,4.76,7.14,-3.98,9.45
17.43816113471985,1.2,9.59,-3.02,10.12
17.4422709941864,-1.66,9.58,-0.6,9.74
17.451727151870728,-0.76,7.93,-0.05,7.96
17.462323904037476,1.78,5.41,-0.14,5.69
17.472482919692993,1.97,2.41,0.61,3.17
17.53568696975708,-1.3,0.96,-1.19,2.0
17.536123037338257,-0.87,2.68,-4.54,5.34
17.536545038223267,3.91,3.87,-1.64,5.74
17.53696298599243,7.77,1.72,1.59,8.11
17.537380933761597,9.93,-0.66,2.86,10.35
17.538289070129395,9.11,-1.9,3.14,9.82
17.542051076889038,7.09,-2.46,2.71,7.97
17.551617860794067,5.27,-2.64,2.47,6.39
17.56217098236084,3.58,-2.73,2.45,5.12
17.572269201278687,2.34,-2.73,2.33,4.28
17.63634991645813,1.71,-2.66,2.31,3.91
17.636793851852417,1.62,-2.69,2.37,3.93
17.63721799850464,1.83,-2.54,2.28,3.87
17.637645959854126,2.13,-2.22,2.21,3.78
17.638077974319458,2.33,-1.72,2.08,3.56
17.6390221118927,1.91,-1.17,1.5,2.69
17.641929864883423,0.94,-0.93,0.18,1.33
17.651437997817993,-0.06,-1.02,-1.21,1.58
17.66207504272461,-1.01,-1.22,-1.95,2.51
17.672066926956177,-1.25,-1.68,-1.71,2.7
17.737120866775513,-1.35,-2.2,-0.92,2.74
17.73757815361023,-1.49,-2.49,-0.62,2.96
17.73800492286682,-1.57,-2.63,-0.97,3.21
17.738427877426147,-1.61,-2.56,-1.37,3.32
17.738849878311157,-2.05,-2.27,-1.57,3.43
17.739794969558716,-3.2,-1.86,-1.92,4.16
17.741710901260376,-4.52,-1.51,-2.39,5.33
17.751263856887817,-5.38,-1.29,-2.89,6.24
17.761839151382446,-5.39,-1.12,-3.23,6.38
17.77188515663147,-5.39,-0.71,-3.92,6.7
17.837178945541382,-6.29,-0.17,-5.4,8.29
17.837624073028564,-7.75,0.13,-6.49,10.1
17.838053941726685,-9.0,-0.09,-6.83,11.29
17.838484048843384,-9.68,-0.7,-6.86,11.88
17.838907957077026,-9.64,-1.36,-6.61,11.76
17.8398220539093,-8.82,-1.93,-6.05,10.86
17.841554880142212,-7.95,-2.22,-5.57,9.95
17.851099014282227,-7.2,-2.45,-5.11,9.16
17.861695051193237,-6.8,-2.89,-4.73,8.77
17.871782064437866,-6.96,-3.23,-4.52,8.9
17.937462091445923,-7.85,-2.12,-4.75,9.41
17.937931060791016,-6.04,0.74,-5.61,8.27
17.93835186958313,-4.26,-1.96,-5.3,7.07
17.938776969909668,-4.29,2.17,-1.57,5.05
17.93919587135315,5.18,8.85,8.1,13.06
17.940134048461914,12.97,12.19,13.36,22.25
17.941417932510376,5.02,18.54,-5.18,19.89
17.950984001159668,1.36,10.0,-19.93,22.33
17.961593866348267,0.93,-1.28,-1.41,2.11
17.971724033355713,-7.75,-7.36,7.87,13.27
18.0382821559906,-9.3,-6.57,-0.99,11.42
18.03872299194336,-9.02,-3.87,-3.32,10.36
18.03914999961853,-8.78,-1.89,-2.62,9.35
18.03957200050354,-5.99,0.47,-2.16,6.38
18.039987087249756,-3.41,1.16,-0.36,3.61
18.04129719734192,-1.8,0.32,-0.07,1.82
18.042222023010254,-0.22,-0.13,-1.13,1.15
18.050837993621826,0.61,0.11,-1.4,1.53
18.061305046081543,0.02,0.66,-1.59,1.72
18.071479082107544,-0.3,1.19,-2.16,2.48
18.138437032699585,-0.16,1.18,-2.54,2.8
18.138885974884033,-0.19,0.48,-2.34,2.39
18.13931393623352,-0.69,-0.07,-2.1,2.21
18.139738082885742,-1.09,-0.3,-1.91,2.21
18.140186071395874,-0.98,-0.31,-1.6,1.9
18.141424894332886,-0.6,-0.12,-0.98,1.15
18.14234185218811,-0.38,0.01,-0.38,0.53
18.150604963302612,-0.36,0.09,-0.03,0.37
18.161295175552368,-0.48,0.19,0.25,0.57
18.171289205551147,-0.39,0.15,0.27,0.49
18.238399028778076,-0.03,0.06,0.13,0.14
18.23884606361389,0.21,0.01,-0.19,0.28
18.23927402496338,0.05,0.0,-0.52,0.52
18.239693880081177,-0.1,-0.02,-0.63,0.63
18.24047303199768,0.23,0.03,-0.5,0.55
18.241437196731567,0.89,0.13,-0.16,0.91
18.242336988449097,1.53,0.22,0.32,1.57
18.2505099773407,1.59,0.18,0.81,1.79
18.26107907295227,1.19,0.04,1.14,1.64
18.27115511894226,0.87,-0.11,1.34,1.6
18.28059697151184,0.81,-0.18,1.47,1.68
18.33949899673462,0.97,-0.2,1.35,1.67
18.340276956558228,1.16,-0.19,1.03,1.56
18.340704202651978,1.29,-0.24,1.04,1.67
18.341126203536987,1.3,-0.2,1.16,1.75
18.342041969299316,1.19,-0.11,1.21,1.7
18.34296202659607,1.23,0.07,0.98,1.57
18.350330114364624,1.5,0.22,0.73,1.68
18.360932111740112,1.43,0.21,0.33,1.48
18.370923042297363,0.74,0.12,0.03,0.75
18.380290985107422,-0.06,-0.01,0.14,0.15
18.439028024673462,-0.3,-0.03,0.39,0.49
18.439486026763916,0.14,0.18,0.64,0.67
18.440263986587524,0.83,0.48,0.76,1.22
18.4406840801239,1.3,0.79,0.89,1.76
18.441653966903687,1.42,0.98,1.16,2.07
18.44255518913269,1.48,1.21,0.8,2.07
18.450231075286865,1.21,1.6,0.63,2.1
18.460793018341064,1.25,2.03,0.76,2.5
18.47081685066223,1.34,2.32,0.93,2.83
18.48024606704712,1.44,3.7,1.36,4.19
18.540180921554565,2.87,5.33,1.39,6.21
18.540809869766235,4.16,5.44,2.55,7.3
18.541227102279663,3.58,4.96,2.74,6.7
18.5416419506073,3.03,5.02,2.61,6.41
18.54258418083191,2.62,5.17,3.21,6.62
18.543469190597534,2.32,5.3,3.64,6.83
18.5501070022583,2.28,5.43,4.42,7.36
18.56066107749939,2.05,5.7,5.24,8.0
18.57064700126648,2.68,6.69,5.72,9.2
18.579859018325806,3.3,6.86,5.32,9.28
18.640012979507446,3.3,6.04,3.66,7.79
18.640629053115845,3.91,5.57,1.98,7.08
18.641062021255493,5.46,5.33,-0.07,7.63
18.641479969024658,6.02,6.33,-2.51,9.08
18.642401933670044,3.96,7.94,-2.44,9.2
18.64333200454712,0.61,8.62,-0.95,8.69
18.649911165237427,-0.32,8.17,0.09,8.17
18.660506010055542,1.24,6.12,0.31,6.25
18.670482873916626,3.24,3.47,0.29,4.75
18.67991614341736,2.29,1.68,0.42,2.87
18.74065089225769,-1.42,1.53,-2.89,3.56
18.741096019744873,0.1,3.36,-4.71,5.78
18.7415189743042,4.58,3.58,-0.92,5.88
18.741940021514893,7.85,1.08,2.18,8.21
18.742886066436768,9.09,-0.89,3.66,9.83
18.74377703666687,8.17,-1.66,4.11,9.29
18.749801874160767,6.98,-1.63,4.14,8.27
18.760324001312256,5.73,-1.37,4.31,7.29
18.77035689353943,4.53,-1.26,4.28,6.35
18.779764890670776,3.86,-1.31,4.13,5.8
18.841142892837524,3.53,-1.37,3.86,5.4
18.841588973999023,3.2,-1.34,3.53,4.94
18.8420090675354,2.61,-1.22,2.94,4.11
18.842432975769043,1.65,-1.14,2.27,3.02
18.843382120132446,0.84,-0.85,1.64,2.02
18.844268083572388,0.52,-0.45,1.3,1.47
18.849537134170532,0.59,-0.54,1.59,1.77
18.860123872756958,0.68,-0.85,1.75,2.06
18.870217084884644,0.63,-0.57,1.39,1.62
18.879419088363647,-0.04,-0.53,0.93,1.07
18.941694021224976,-1.34,-0.37,-0.48,1.47
18.942135095596313,-2.65,0.19,-2.78,3.84
18.942559957504272,-3.54,0.45,-4.11,5.44
18.94298005104065,-3.79,0.47,-3.25,5.01
18.94391417503357,-3.39,0.14,-1.86,3.86
18.944809198379517,-2.44,0.03,-1.45,2.83
18.949437856674194,-1.92,0.06,-1.81,2.63
18.95996904373169,-2.48,0.2,-2.54,3.55
18.9700448513031,-3.87,0.29,-3.54,5.25
18.97928786277771,-5.28,-0.07,-4.59,6.99
19.042484998703003,-6.13,-0.54,-5.8,8.45
19.042932987213135,-6.57,-0.73,-7.07,9.67
19.04335904121399,-7.36,-1.02,-8.34,11.16
19.04378604888916,-8.21,-1.17,-9.04,12.26
19.04473090171814,-8.6,-1.74,-9.22,12.72
19.045621156692505,-8.62,-2.64,-8.64,12.48
19.04925513267517,-8.23,-3.36,-8.03,11.97
19.059808015823364,-7.82,-3.9,-7.69,11.64
19.0698401927948,-7.54,-4.57,-7.22,11.39
19.079295873641968,-7.94,-3.35,-6.92,11.05
19.14293098449707,-5.16,-1.28,-5.88,7.92
19.143375158309937,-4.06,-3.62,-4.91,7.32
19.14380717277527,-5.78,0.31,-3.05,6.54
19.144227027893066,1.23,5.59,5.82,8.16
19.14518094062805,8.11,4.65,12.26,15.41
19.14606785774231,4.88,9.13,-0.63,10.37
19.148900032043457,-6.32,16.55,-11.88,21.33
19.159636974334717,-4.23,4.29,-14.3,15.51
19.16994309425354,-4.46,-2.37,1.42,5.24
19.179126024246216,-8.66,-6.45,2.48,11.07
19.242357969284058,-7.92,-4.48,-6.64,11.26
19.242805004119873,-8.62,-2.47,-5.97,10.77
19.243229150772095,-6.14,-0.88,-1.69,6.42
19.243650197982788,-2.6,-0.07,0.53,2.65
19.24460506439209,0.61,0.45,-0.95,1.21
19.245537042617798,2.45,1.24,-2.59,3.77
19.248809099197388,2.1,1.11,-3.01,3.83
19.259618997573853,0.85,1.09,-2.04,2.46
19.269644021987915,-0.08,0.97,-1.54,1.82
19.279052019119263,-0.21,0.52,-1.76,1.84
19.34353995323181,-0.26,0.27,-2.13,2.16
19.343976974487305,-0.67,0.09,-2.18,2.28
19.344388008117676,-1.01,0.09,-1.97,2.21
19.34479308128357,-1.17,0.03,-1.68,2.04
19.345715045928955,-1.27,-0.12,-1.22,1.76
19.34663414955139,-1.24,-0.1,-0.56,1.36
19.348846197128296,-0.88,0.0,-0.15,0.89
19.359429121017456,-0.63,0.04,0.06,0.63
19.36926507949829,-0.55,0.01,0.42,0.69
19.378823041915894,-0.28,-0.03,0.58,0.64
19.443665027618408,0.03,-0.07,0.47,0.47
19.444107055664062,0.0,-0.09,0.29,0.3
19.444533109664917,-0.16,-0.11,0.09,0.21
19.444953203201294,-0.15,-0.07,-0.16,0.23
19.44589900970459,0.05,0.03,-0.1,0.11
19.44681715965271,0.32,0.07,0.26,0.41
19.448938131332397,0.7,0.13,0.86,1.11
19.459249019622803,1.08,0.2,1.41,1.78
19.46929907798767,1.15,0.21,1.55,1.94
19.478668928146362,0.92,0.13,1.25,1.55
19.54411292076111,0.75,-0.11,1.1,1.33
19.544553995132446,0.89,-0.34,1.18,1.51
19.54497504234314,1.43,-0.39,1.12,1.85
19.5453941822052,1.89,-0.08,0.7,2.01
19.54633903503418,1.95,0.37,0.29,2.0
19.547231912612915,1.7,0.69,0.33,1.86
19.54879903793335,1.66,0.82,0.69,1.97
19.559115171432495,1.8,0.86,1.15,2.3
19.56912112236023,1.78,0.87,1.35,2.39
19.57849907875061,1.78,0.97,1.35,2.43
19.64440608024597,1.94,1.34,1.65,2.87
19.644842863082886,2.46,1.48,2.09,3.55
19.645267009735107,2.75,1.75,2.12,3.88
19.645692110061646,3.01,2.13,2.41,4.4
19.64660620689392,3.11,2.61,2.22,4.62
19.647528886795044,2.88,3.22,2.37,4.92
19.648319005966187,2.5,3.82,2.74,5.32
19.658926010131836,2.25,5.77,2.71,6.76
19.668928861618042,3.79,7.98,3.11,9.36
19.678309202194214,4.75,7.71,4.99,10.33
19.745197057724,3.59,8.05,5.61,10.44
19.7456271648407,3.78,9.27,7.51,12.51
19.74604105949402,3.97,9.95,8.12,13.44
19.746455907821655,4.35,10.7,6.72,13.36
19.74739098548889,4.77,10.5,5.94,12.97
19.749006032943726,4.41,8.69,4.25,10.63
19.749430894851685,5.02,6.8,0.45,8.46
19.758810997009277,5.15,6.65,-4.72,9.64
19.768795013427734,2.33,8.93,-6.56,11.32
19.778196096420288,-2.15,10.44,-3.69,11.27
19.845448970794678,-3.44,8.98,-1.32,9.7
19.845884084701538,-0.62,5.4,-0.84,5.5
19.846307039260864,1.62,1.8,0.88,2.57
19.846728086471558,-0.91,-0.26,-0.47,1.05
19.84803605079651,-1.02,2.15,-4.19,4.81
19.84930920600891,4.0,4.51,-0.79,6.07
19.849733114242554,8.2,2.76,2.52,9.01
19.85866904258728,10.28,0.95,3.55,10.91
19.868654012680054,9.64,-0.05,3.4,10.22
19.877989053726196,7.9,-0.73,2.51,8.32
19.946179151535034,6.42,-1.06,2.0,6.8
19.946613073349,5.21,-1.19,1.74,5.62
19.947027921676636,4.26,-1.46,1.81,4.85
19.947803020477295,3.45,-1.85,2.12,4.45
19.949097871780396,2.69,-2.24,1.88,3.97
19.950044870376587,1.94,-2.37,1.31,3.33
19.950462102890015,1.24,-2.17,1.07,2.71
19.958456993103027,0.72,-1.95,1.13,2.36
19.968502044677734,0.73,-1.59,1.38,2.22
19.977874040603638,1.03,-0.45,0.98,1.49
20.0468590259552,-0.05,-0.07,0.18,0.19
20.047672986984253,-2.42,-0.78,-1.91,3.18
20.048107862472534,-3.44,-0.95,-5.27,6.36
20.048535108566284,-3.92,-1.66,-5.4,6.87
20.049851179122925,-3.11,-3.05,-2.01,4.79
20.050764083862305,-1.53,-3.93,-0.35,4.23
20.051192045211792,-0.92,-3.83,-0.92,4.04
20.058307886123657,-0.88,-3.97,-1.28,4.26
20.068333864212036,-1.67,-4.24,-1.03,4.67
20.077698945999146,-2.99,-4.33,-0.68,5.3
20.14726996421814,-4.04,-4.39,-0.98,6.04
20.147950887680054,-3.94,-4.39,-1.75,6.15
20.148354053497314,-4.47,-4.19,-2.8,6.73
20.148776054382324,-6.32,-3.92,-4.55,8.71
20.150106191635132,-8.32,-3.78,-5.93,10.89
20.151051998138428,-9.74,-3.69,-7.32,12.73
20.151503086090088,-10.55,-3.43,-8.17,13.77
20.158180952072144,-11.09,-3.69,-7.83,14.06
20.168248891830444,-11.64,-4.39,-7.6,14.57
20.177536010742188,-11.25,-4.88,-7.8,14.53
20.24794316291809,-9.58,-4.59,-7.72,13.13
20.248569011688232,-7.9,-4.01,-7.07,11.33
20.249327898025513,-6.8,-3.29,-6.73,10.11
20.24976086616516,-6.08,-2.69,-6.26,9.13
20.250720977783203,-7.03,-0.35,-6.15,9.34
20.251660108566284,-5.64,4.75,-7.37,10.42
20.25208592414856,1.11,-0.81,-7.31,7.43
20.258040189743042,9.71,15.12,12.12,21.67
20.267983198165894,28.55,31.39,32.47,53.42
20.277453184127808,4.34,22.7,-9.49,24.98
20.346419095993042,-9.24,-1.5,-8.49,12.63
20.34685206413269,-12.78,-13.13,-1.66,18.39
20.3475821018219,-19.94,-7.41,4.03,21.65
20.34799885749817,-18.43,-2.6,0.52,18.61
20.348920106887817,-10.99,-1.9,-4.74,12.11
20.35016107559204,-4.49,-0.14,-4.91,6.65
20.350600004196167,0.04,0.9,-2.94,3.07
20.35784888267517,2.3,0.6,-2.03,3.12
20.36778998374939,3.98,0.35,-3.96,5.62
20.377291917800903,4.37,0.82,-4.89,6.6
20.446830987930298,1.83,1.21,-2.96,3.68
20.447519063949585,-0.93,1.01,-1.54,2.06
20.44794201850891,-1.34,0.69,-1.61,2.2
20.44835591316223,-1.1,0.2,-1.66,2.0
20.449637174606323,-1.23,-0.23,-1.0,1.6
20.450594186782837,-1.45,-0.42,-0.49,1.58
20.45101284980774,-1.33,-0.38,-0.35,1.42
20.457720041275024,-1.04,-0.13,-0.21,1.06
20.46752405166626,-0.64,0.03,-0.17,0.66
20.4770929813385,-0.18,0.14,-0.19,0.29
20.5481698513031,0.07,0.15,-0.34,0.37
20.548609972000122,0.35,0.08,-0.5,0.61
20.5490300655365,0.43,0.07,-0.43,0.61
20.549805879592896,0.26,0.16,-0.35,0.46
20.550801992416382,0.24,0.27,-0.18,0.4
20.551739931106567,0.23,0.27,0.04,0.35
20.552155017852783,0.27,0.2,0.13,0.36
20.55756115913391,0.43,0.17,0.23,0.51
20.567342042922974,0.77,0.19,0.52,0.94
20.576950073242188,1.22,0.18,0.84,1.49
20.648128032684326,1.42,0.14,1.15,1.83
20.648555040359497,1.36,0.0,1.55,2.06
20.648985147476196,1.17,-0.18,1.79,2.14
20.649739027023315,1.08,-0.39,1.98,2.28
20.650699853897095,1.21,-0.6,1.93,2.35
20.65162491798401,1.38,-0.73,1.71,2.31
20.65204119682312,1.45,-0.59,1.22,1.98
20.657373189926147,1.47,-0.05,0.68,1.62
20.667153120040894,1.28,0.5,0.35,1.41
20.677581071853638,0.89,0.75,0.33,1.2
20.74820113182068,0.67,0.74,0.51,1.12
20.748643159866333,0.69,0.49,1.28,1.53
20.749067068099976,0.88,0.41,2.07,2.28
20.74983286857605,1.51,0.88,1.86,2.55
20.750782012939453,1.87,1.46,1.41,2.75
20.75169587135315,1.19,1.93,1.31,2.61
20.752113103866577,0.56,2.71,1.41,3.1
20.75722599029541,1.05,3.45,1.58,3.93
20.767302989959717,1.92,4.17,1.99,5.0
20.776654958724976,3.1,4.87,2.25,6.19
20.848665952682495,4.2,5.82,2.36,7.55
20.849093198776245,4.92,6.48,2.86,8.62
20.849880933761597,4.71,6.88,3.69,9.11
20.850298166275024,4.05,7.31,4.52,9.5
20.851248025894165,3.21,8.4,5.51,10.54
20.852192163467407,3.43,9.45,7.27,12.4
20.852608919143677,4.3,9.41,7.38,12.7
20.857053995132446,4.73,8.55,6.38,11.66
20.86727213859558,4.24,6.89,5.34,9.69
20.876510858535767,4.32,5.24,2.51,7.24
20.949034929275513,4.52,5.07,-1.97,7.07
20.949836015701294,3.5,7.21,-4.66,9.27
20.95025897026062,0.31,9.9,-2.81,10.29
20.950716018676758,-1.73,9.87,0.1,10.02
20.951653003692627,-1.57,8.68,0.65,8.84
20.952579021453857,0.64,5.74,-0.14,5.77
20.953008890151978,2.73,2.46,0.72,3.74
20.956907987594604,0.57,0.98,-0.42,1.2
21.032867193222046,-0.69,2.99,-4.65,5.57
21.033302068710327,2.54,5.59,-1.3,6.27
21.03372097015381,5.35,4.1,2.75,7.27
21.034167051315308,7.7,1.42,5.58,9.61
21.03457999229431,7.55,-0.64,6.86,10.22
21.035006046295166,5.39,-1.41,5.13,7.57
21.036315202713013,3.35,-1.54,3.41,5.02
21.037226915359497,1.73,-1.34,2.93,3.65
21.04617190361023,0.81,-0.93,2.7,2.96
21.056811094284058,0.35,-0.61,2.54,2.63
21.134289979934692,-0.12,-0.64,2.13,2.22
21.134744882583618,-0.38,-0.93,1.59,1.88
21.13516592979431,-0.14,-1.13,1.25,1.69
21.13596200942993,0.44,-1.32,1.3,1.9
21.136397123336792,0.92,-1.99,1.55,2.68
21.136822938919067,1.17,-2.76,1.81,3.5
21.13779091835022,1.16,-3.29,1.99,4.01
21.13870596885681,0.97,-3.43,1.81,3.99
21.146034002304077,-0.04,-3.7,1.35,3.93
21.15662908554077,-1.34,-4.31,0.61,4.55
21.233536958694458,-1.83,-4.75,-0.31,5.09
21.236001014709473,-1.47,-4.79,-1.32,5.18
21.236417055130005,-1.47,-5.01,-1.02,5.31
21.236823081970215,-1.62,-5.18,-0.28,5.43
21.23724913597107,-2.09,-5.01,-0.74,5.47
21.23767399787903,-3.6,-4.52,-2.55,6.31
21.238643884658813,-5.56,-3.8,-4.79,8.26
21.239586114883423,-6.74,-3.04,-5.99,9.51
21.245882987976074,-7.16,-2.32,-6.93,10.23
21.256514072418213,-7.34,-1.65,-7.94,10.93
21.33319592475891,-7.67,-1.33,-8.65,11.63
21.335596084594727,-7.87,-1.58,-8.42,11.63
21.336023092269897,-7.86,-1.89,-7.94,11.33
21.336426973342896,-7.86,-1.88,-8.29,11.57
21.336833000183105,-8.01,-1.62,-9.37,12.43
21.33725619316101,-7.63,-1.46,-10.15,12.78
21.338221073150635,-6.89,-1.52,-9.89,12.14
21.339125871658325,-6.7,-1.96,-9.5,11.78
21.345595121383667,-6.98,-2.88,-9.15,11.86
21.356187105178833,-6.99,-3.68,-8.64,11.7
21.366184949874878,-7.2,-0.79,-9.11,11.63
21.43448305130005,-4.53,8.93,-4.7,11.06
21.434925079345703,11.3,6.58,8.53,15.61
21.435664892196655,23.1,9.08,25.32,35.45
21.43607997894287,14.8,9.37,9.11,19.74
21.43649411201477,1.83,10.41,-10.35,14.79
21.4374258518219,-7.31,8.99,-7.57,13.84
21.438363075256348,-14.19,1.1,-5.18,15.14
21.445418119430542,-10.71,-2.02,-4.41,11.75
21.456095933914185,-9.15,1.02,0.93,9.25
21.466094970703125,-6.6,-2.22,-0.28,6.96
21.534952878952026,-4.58,-2.74,-3.89,6.6
21.535714864730835,-2.65,-1.82,-4.7,5.69
21.536134958267212,-0.79,-1.3,-3.36,3.68
21.536553144454956,0.24,-0.63,-2.09,2.19
21.536969900131226,1.57,0.54,-1.78,2.43
21.53794002532959,2.26,1.26,-2.0,3.27
21.53885293006897,1.63,1.37,-2.49,3.27
21.54530906677246,0.08,1.16,-2.9,3.12
21.555994987487793,-0.72,0.92,-2.8,3.03
21.565903902053833,-0.66,0.59,-1.57,1.8
21.635305166244507,-0.56,0.08,-0.88,1.04
21.63594102859497,-0.67,-0.32,-0.75,1.05
21.636368989944458,-0.83,-0.46,-0.57,1.1
21.636815071105957,-0.86,-0.33,-0.29,0.96
21.637242078781128,-0.62,-0.12,-0.11,0.64
21.638203859329224,-0.29,0.09,0.01,0.3
21.639145135879517,-0.34,0.23,-0.23,0.47
21.645132064819336,-0.24,0.15,-0.48,0.55
21.655769109725952,-0.09,0.0,-0.44,0.44
21.665921926498413,-0.09,-0.13,-0.15,0.21
21.73604989051819,-0.28,-0.22,0.17,0.39
21.736543893814087,-0.36,-0.19,0.18,0.44
21.736961126327515,-0.06,-0.05,0.01,0.07
21.73737597465515,0.35,0.13,-0.12,0.39
21.737791061401367,0.69,0.25,-0.08,0.73
21.738731145858765,0.77,0.28,0.2,0.84
21.73963499069214,0.51,0.2,0.37,0.66
21.745007038116455,0.24,0.15,0.38,0.47
21.75555920600891,-0.06,0.06,0.37,0.37
21.765583038330078,-0.33,-0.06,0.5,0.6
21.83625602722168,-0.35,-0.09,0.84,0.91
21.83669114112854,0.01,-0.06,0.94,0.94
21.83711004257202,0.49,0.04,0.79,0.93
21.83752417564392,0.73,0.19,0.62,0.97
21.83793616294861,0.94,0.33,0.51,1.11
21.838873147964478,1.23,0.33,0.65,1.42
21.839773893356323,1.74,0.16,1.07,2.04
21.84490990638733,2.36,-0.06,1.55,2.82
21.855458974838257,2.58,-0.02,1.61,3.04
21.865499019622803,2.23,0.16,1.72,2.82
21.936388969421387,1.63,0.48,2.05,2.66
21.936856031417847,1.54,1.28,1.55,2.53
21.93728518486023,1.43,1.81,1.14,2.57
21.937718152999878,0.86,2.35,1.33,2.83
21.938151121139526,1.08,2.56,1.86,3.34
21.93911600112915,1.81,2.82,2.2,4.0
21.94006896018982,2.45,3.25,2.56,4.8
21.944756031036377,2.76,4.5,2.5,5.84
21.955360174179077,3.43,7.03,1.96,8.06
21.96537709236145,4.89,7.86,3.05,9.74
22.03633189201355,4.38,7.42,4.31,9.63
22.03678011894226,3.37,7.64,5.06,9.76
22.03721308708191,3.13,8.71,6.8,11.48
22.037636041641235,3.66,10.01,8.26,13.48
22.038063049316406,3.96,10.45,7.77,13.61
22.03902506828308,3.24,9.15,7.03,11.98
22.03996706008911,2.77,7.07,4.89,9.03
22.044684171676636,4.18,5.6,0.49,7.0
22.05524516105652,6.52,6.69,-4.42,10.33
22.065245866775513,5.23,11.06,-4.92,13.18
22.13656497001648,-0.04,11.9,-1.13,11.95
22.13701105117798,-1.1,10.46,0.72,10.54
22.137437105178833,1.14,8.35,-0.13,8.42
22.137866973876953,3.39,4.41,0.22,5.56
22.13828706741333,2.12,1.6,1.16,2.89
22.139238119125366,-0.61,0.47,-2.88,2.98
22.140177011489868,1.0,3.07,-4.69,5.69
22.14437985420227,5.46,4.5,-0.89,7.13
22.15499520301819,8.85,2.39,2.01,9.38
22.164990186691284,10.33,-0.29,4.54,11.28
22.23712992668152,10.04,-2.24,5.36,11.59
22.237571954727173,7.91,-2.88,4.34,9.47
22.237998008728027,5.19,-2.43,3.22,6.57
22.23842215538025,3.31,-1.68,2.39,4.41
22.23884415626526,2.41,-1.43,2.65,3.85
22.23978018760681,1.82,-1.7,3.29,4.12
22.24069905281067,1.44,-1.8,3.07,3.83
22.244263887405396,0.85,-1.78,1.89,2.73
22.25475287437439,0.32,-1.64,0.7,1.81
22.264913082122803,0.32,-1.48,0.34,1.55
22.336894989013672,0.79,-1.72,0.89,2.09
22.33734393119812,1.15,-2.13,1.27,2.73
22.337795972824097,0.92,-2.52,1.05,2.88
22.338227033615112,-0.05,-3.03,0.74,3.11
22.33866810798645,-1.11,-3.33,0.44,3.53
22.339616060256958,-1.65,-3.6,0.34,3.97
22.34055495262146,-2.39,-3.65,-0.12,4.36
22.34417986869812,-3.02,-3.22,-1.39,4.62
22.35480308532715,-3.45,-2.6,-2.88,5.19
22.364721059799194,-4.68,-1.95,-3.24,6.01
22.43709707260132,-6.31,-1.65,-2.81,7.1
22.437639951705933,-7.72,-1.13,-3.58,8.58
22.438073873519897,-8.18,-0.21,-5.02,9.59
22.438514947891235,-7.87,0.71,-6.2,10.04
22.438946962356567,-7.98,1.52,-7.36,10.96
22.439897060394287,-9.21,1.8,-8.73,12.81
22.44082808494568,-10.53,1.1,-9.84,14.45
22.444018125534058,-11.02,-0.65,-10.02,14.9
22.454612016677856,-10.38,-2.65,-9.98,14.64
22.464662075042725,-9.46,-3.54,-9.42,13.81
22.53706407546997,-9.02,-4.1,-8.69,13.17
22.537530183792114,-9.92,0.58,-8.54,13.1
22.537963151931763,-6.46,-1.57,-8.62,10.88
22.538395166397095,-6.69,-8.55,-11.13,15.54
22.538819074630737,-3.3,5.64,-5.94,8.83
22.53982400894165,15.12,17.58,19.29,30.16
22.540767908096313,14.69,20.66,2.54,25.47
22.543859004974365,7.71,15.34,-12.76,21.39
22.554464101791382,-1.07,0.42,-6.85,6.94
22.564482927322388,-10.46,-6.66,-1.18,12.45
22.63753604888916,-11.35,-5.21,-0.69,12.5
22.63798999786377,-10.49,-3.76,-5.35,12.36
22.63841700553894,-10.63,-2.32,-6.21,12.52
22.638846158981323,-8.1,-0.08,-4.66,9.34
22.639282941818237,-4.19,0.76,-2.04,4.72
22.640249967575073,-0.99,0.45,-1.19,1.61
22.641157865524292,0.6,0.57,-1.48,1.69
22.643718004226685,1.52,0.81,-0.97,1.97
22.65429711341858,0.86,0.72,-1.27,1.69
22.66425585746765,-0.54,0.36,-2.6,2.67
22.737812042236328,-0.81,0.29,-2.8,2.92
22.738259077072144,-0.78,0.26,-1.97,2.13
22.738686084747314,-0.87,0.09,-1.26,1.53
22.739113092422485,-0.96,-0.07,-1.08,1.44
22.73953413963318,-0.84,-0.19,-1.05,1.35
22.74049997329712,-0.65,-0.22,-0.59,0.9
22.74141812324524,-0.22,-0.1,0.03,0.24
22.743555068969727,0.38,0.12,0.25,0.47
22.75413203239441,0.61,0.24,0.24,0.69
22.76411199569702,0.54,0.21,0.18,0.6
22.83736801147461,0.45,0.08,0.19,0.49
22.837789058685303,0.54,-0.03,0.19,0.57
22.838196992874146,0.66,-0.05,0.22,0.69
22.838603019714355,0.66,0.0,0.13,0.67
22.839007139205933,0.74,0.04,-0.07,0.74
22.839967012405396,0.91,0.13,0.07,0.92
22.840859174728394,1.02,0.2,0.4,1.11
22.843406915664673,1.05,0.17,0.78,1.31
22.85404086112976,0.96,0.13,1.33,1.64
22.863961935043335,0.87,0.05,1.82,2.01
22.937543153762817,0.77,0.0,1.73,1.89
22.93798518180847,0.63,-0.12,1.3,1.44
22.938413858413696,0.66,-0.37,1.14,1.36
22.938843965530396,0.8,-0.47,1.05,1.4
22.939265966415405,1.05,-0.28,0.94,1.43
22.94022297859192,1.38,0.03,0.74,1.56
22.941128969192505,1.52,0.31,0.41,1.6
22.943276166915894,1.4,0.48,0.45,1.54
22.95385503768921,1.31,0.53,0.8,1.62
22.963845014572144,1.33,0.53,1.15,1.83
23.037355184555054,1.26,0.35,2.19,2.55
23.037798166275024,1.39,0.42,2.5,2.89
23.038224935531616,1.77,1.01,1.9,2.78
23.03864312171936,1.46,1.66,1.57,2.71
23.039058923721313,1.44,2.43,1.39,3.14
23.040026903152466,1.34,2.89,1.94,3.72
23.040929079055786,1.6,2.88,2.43,4.09
23.043081045150757,2.2,3.33,2.97,4.97
23.053688049316406,2.88,4.5,3.0,6.12
23.06366991996765,3.76,6.24,2.77,7.79
23.13771891593933,4.67,6.79,3.84,9.09
23.138153076171875,3.9,6.93,4.83,9.3
23.13857102394104,3.59,7.7,5.17,9.94
23.138988971710205,3.7,8.63,6.48,11.4
23.13940691947937,4.04,10.15,7.78,13.41
23.14035701751709,4.75,10.38,7.95,13.91
23.14125108718872,4.96,8.71,7.07,12.26
23.142987966537476,5.01,6.71,5.15,9.83
23.15348792076111,5.3,5.22,0.91,7.49
23.1635479927063,5.81,5.84,-4.14,9.21
23.238383054733276,4.42,9.86,-6.75,12.74
23.238849878311157,-0.05,12.18,-2.66,12.46
23.239292860031128,-2.2,10.45,0.95,10.72
23.239731073379517,-1.82,7.21,0.87,7.48
23.240171194076538,-0.03,2.69,0.89,2.83
23.24115490913391,0.13,0.02,1.1,1.1
23.242109060287476,-3.27,-0.27,-2.97,4.42
23.242922067642212,-1.65,2.83,-5.19,6.13
23.253379106521606,3.08,4.85,-0.52,5.76
23.263437032699585,6.51,2.92,2.44,7.54
23.33777117729187,8.85,0.46,4.53,9.95
23.338215112686157,9.14,-1.12,5.39,10.66
23.338644981384277,7.47,-1.61,4.0,8.62
23.339068174362183,5.85,-1.5,3.4,6.93
23.339488983154297,4.35,-1.35,3.46,5.71
23.340412855148315,3.03,-1.32,3.21,4.6
23.341315031051636,1.8,-1.55,3.09,3.89
23.34256601333618,0.73,-1.87,2.78,3.42
23.353100061416626,0.05,-2.05,2.19,3.0
23.363238096237183,-0.14,-2.2,1.74,2.8
23.437875986099243,0.07,-2.54,1.5,2.95
23.43835186958313,0.31,-2.93,1.12,3.15
23.4387948513031,0.86,-3.18,1.16,3.49
23.439228057861328,1.07,-3.34,1.43,3.78
23.439651012420654,0.74,-3.4,1.08,3.64
23.44061589241028,-0.08,-3.93,0.67,3.98
23.44153618812561,-1.22,-4.6,-0.15,4.76
23.442471981048584,-2.35,-4.87,-1.55,5.62
23.45295214653015,-2.71,-4.86,-2.83,6.24
23.46308207511902,-2.58,-4.93,-2.33,6.03
23.53814387321472,-2.73,-5.22,-1.04,5.98
23.538599014282227,-3.45,-4.77,-1.74,6.13
23.539028882980347,-4.27,-3.77,-3.19,6.52
23.539452075958252,-5.02,-2.61,-4.58,7.27
23.53987407684326,-5.67,-1.39,-6.28,8.57
23.540837049484253,-6.79,-0.17,-8.15,10.6
23.541749000549316,-8.19,0.4,-9.5,12.54
23.542516946792603,-9.18,-0.05,-10.06,13.61
23.55285620689392,-9.5,-0.8,-10.32,14.04
23.562989950180054,-9.51,-1.33,-10.51,14.23
23.63903498649597,-9.67,-1.72,-10.53,14.39
23.639479875564575,-9.27,-1.95,-10.52,14.15
23.639901876449585,-8.67,-1.27,-9.79,13.13
23.640323877334595,-7.26,4.81,-8.3,12.03
23.640744924545288,-1.47,-1.05,-6.25,6.5
23.64167094230652,-4.09,-0.94,-4.68,6.28
23.642914056777954,4.84,11.39,14.62,19.15
23.64333701133728,13.38,13.78,20.12,27.81
23.65276789665222,3.3,9.8,-9.85,14.28
23.662739038467407,-5.39,3.73,-6.17,9.0
23.738528966903687,-10.71,-1.35,-4.61,11.73
23.73900008201599,-11.28,-1.7,-4.92,12.42
23.739440202713013,-10.64,1.92,0.64,10.83
23.739866971969604,-8.26,-1.38,-3.67,9.14
23.740290880203247,-4.5,-1.32,-5.99,7.6
23.741254091262817,-2.94,-0.75,-4.54,5.46
23.742506980895996,-1.42,-0.18,-3.17,3.47
23.742931127548218,1.13,0.53,-2.78,3.04
23.75271701812744,2.44,1.15,-3.31,4.26
23.762519121170044,1.58,1.2,-2.32,3.05
23.838905096054077,0.42,0.77,-1.08,1.39
23.83935809135437,-0.29,0.3,-0.97,1.05
23.839790105819702,-0.98,-0.05,-0.93,1.35
23.840233087539673,-1.23,-0.21,-0.92,1.55
23.84066414833069,-1.35,-0.2,-0.76,1.56
23.8419668674469,-1.03,-0.07,-0.69,1.24
23.842907190322876,-0.49,0.07,-0.59,0.77
23.843332052230835,0.09,0.04,-0.54,0.54
23.852627992630005,0.43,0.01,-0.58,0.72
23.862416982650757,0.32,-0.08,-0.2,0.38
23.93880009651184,0.1,-0.25,0.29,0.39
23.93923592567444,0.04,-0.17,0.58,0.6
23.93965220451355,0.13,0.03,0.56,0.57
23.940064191818237,0.31,0.15,0.45,0.56
23.940474033355713,0.59,0.1,0.38,0.7
23.94174098968506,0.81,0.08,0.57,0.99
23.942671060562134,0.91,0.0,0.51,1.04
23.943080186843872,1.06,0.0,0.48,1.16
23.95250391960144,1.2,0.04,0.59,1.33
23.96227192878723,1.04,0.02,0.88,1.36
24.03830313682556,0.59,-0.07,1.21,1.34
24.038761854171753,0.54,-0.16,1.04,1.18
24.039193868637085,0.77,-0.14,0.67,1.03
24.03962206840515,0.76,0.0,0.33,0.82
24.040045022964478,0.53,0.14,0.06,0.55
24.04103398323059,0.18,0.15,0.07,0.24
24.042309999465942,0.09,0.15,0.31,0.35
24.04272699356079,0.43,0.36,0.43,0.7
24.052543878555298,1.01,0.58,0.81,1.41
24.062174081802368,1.46,0.72,1.22,2.03
24.138171911239624,1.41,0.75,1.2,1.99
24.13863205909729,1.27,0.58,1.43,1.99
24.139060020446777,1.29,0.47,2.01,2.43
24.13949418067932,1.5,0.78,1.79,2.46
24.139917135238647,1.85,1.35,1.27,2.61
24.14091420173645,1.94,1.7,1.14,2.82
24.142215967178345,1.89,2.18,1.59,3.29
24.142652988433838,2.11,2.35,1.74,3.6
24.152379989624023,2.24,2.59,2.0,3.96
24.162065982818604,2.5,2.79,2.6,4.56
24.23867106437683,2.77,3.53,3.26,5.54
24.2391140460968,3.07,5.32,3.38,7.01
24.239530086517334,4.55,7.41,3.92,9.53
24.239943981170654,5.74,7.77,5.69,11.21
24.240360021591187,4.8,8.07,6.15,11.22
24.241624116897583,3.71,8.89,6.98,11.89
24.242570161819458,3.45,10.18,8.4,13.64
24.243008852005005,3.66,10.77,9.08,14.55
24.251862049102783,3.27,9.7,8.18,13.1
24.261901140213013,3.06,8.18,6.25,10.73
24.339115858078003,3.83,6.19,1.67,7.46
24.339574098587036,5.64,7.01,-5.43,10.5
24.340019941329956,4.09,12.43,-7.31,14.98
24.3404700756073,0.08,13.9,-2.82,14.18
24.341243982315063,-1.02,11.36,0.91,11.44
24.342221975326538,1.03,7.33,1.05,7.47
24.34313201904297,2.84,3.26,0.96,4.42
24.343558073043823,-0.3,1.11,0.08,1.15
24.351724863052368,-3.67,1.27,-4.73,6.12
24.36167311668396,-1.13,4.31,-4.44,6.29
24.43961787223816,3.73,5.09,0.22,6.31
24.440070867538452,7.17,2.68,2.61,8.08
24.44088387489319,9.07,0.19,4.59,10.16
24.441314935684204,8.86,-1.55,4.99,10.28
24.441742181777954,7.08,-2.25,3.69,8.29
24.442699193954468,5.64,-2.41,3.51,7.06
24.443644046783447,3.99,-2.62,3.87,6.14
24.444080114364624,2.53,-2.71,3.53,5.11
24.451564073562622,1.23,-2.78,3.36,4.53
24.4616219997406,0.08,-2.85,3.14,4.24
24.53955912590027,-0.58,-2.88,2.57,3.9
24.540062189102173,-0.59,-3.06,2.27,3.85
24.540842056274414,-0.29,-3.32,2.15,3.96
24.541266202926636,0.12,-3.56,2.02,4.09
24.541692972183228,0.42,-3.82,1.97,4.31
24.542664051055908,0.35,-4.25,1.63,4.56
24.543614149093628,0.24,-4.71,1.22,4.87
24.54403805732727,-0.01,-5.0,0.98,5.09
24.55138611793518,-0.75,-5.0,0.5,5.08
24.561455965042114,-1.49,-4.96,-0.56,5.2
24.63994812965393,-1.73,-5.0,-1.08,5.39
24.640732049942017,-1.87,-4.72,-1.95,5.43
24.64116597175598,-2.22,-4.08,-3.24,5.66
24.641595125198364,-3.57,-3.66,-3.52,6.2
24.642016172409058,-5.25,-3.47,-3.53,7.21
24.64297604560852,-6.41,-2.67,-4.86,8.47
24.6438992023468,-6.95,-1.45,-6.86,9.87
24.64432692527771,-6.87,-0.1,-8.48,10.91
24.651170015335083,-6.85,0.93,-9.44,11.7
24.66144585609436,-7.44,1.35,-9.97,12.51
24.74003005027771,-8.52,0.96,-10.04,13.2
24.740794897079468,-9.23,-0.13,-9.89,13.52
24.741225957870483,-8.97,-1.08,-9.69,13.24
24.741647005081177,-8.2,-1.14,-9.07,12.28
24.74207615852356,-7.57,4.22,-8.4,12.06
24.743026971817017,-1.66,0.13,-6.89,7.08
24.74393391609192,-5.09,-5.14,-6.82,9.94
24.744354963302612,-6.19,0.49,-5.54,8.32
24.751029014587402,6.35,10.86,11.47,17.02
24.76104998588562,12.03,14.71,9.54,21.26
24.84048104286194,-1.57,18.44,-10.06,21.06
24.841114044189453,-10.0,4.16,-7.22,13.01
24.841553926467896,-12.06,-2.46,0.7,12.32
24.84197998046875,-11.74,-6.52,2.85,13.72
24.842400074005127,-9.47,-6.41,-2.97,11.81
24.843385934829712,-8.51,-3.81,-5.34,10.74
24.84431290626526,-5.4,-0.58,-4.59,7.11
24.844743013381958,-2.29,1.12,-1.73,3.08
24.850882053375244,0.45,1.06,-1.1,1.59
24.860923051834106,2.63,0.78,-3.32,4.3
24.9408118724823,3.77,0.79,-4.22,5.71
24.94144606590271,2.84,0.51,-3.13,4.25
24.941881895065308,0.5,0.43,-1.91,2.02
24.942305088043213,-0.9,0.44,-1.5,1.8
24.94273018836975,-1.29,0.26,-1.51,2.0
24.94366717338562,-1.12,0.06,-1.15,1.6
24.944599866867065,-0.67,0.09,-0.64,0.93
24.945033073425293,-0.27,0.12,-0.52,0.59
24.950685024261475,-0.12,0.13,-0.61,0.63
24.960771083831787,-0.32,0.03,-0.47,0.56
25.040741205215454,-0.63,0.0,-0.42,0.75
25.04137897491455,-0.67,0.04,-0.36,0.76
25.041810035705566,-0.48,-0.02,-0.17,0.5
25.042239904403687,-0.28,-0.08,0.14,0.32
25.04266095161438,-0.08,-0.14,0.39,0.42
25.043601989746094,0.38,-0.06,0.61,0.72
25.044538974761963,0.76,0.02,0.53,0.92
25.044953107833862,0.78,0.06,0.49,0.92
25.050567865371704,0.82,0.13,0.63,1.04
25.06062388420105,0.87,0.2,0.53,1.03
25.140908002853394,0.74,0.26,0.3,0.83
25.14135193824768,0.5,0.18,0.38,0.65
25.14177918434143,0.42,0.12,0.56,0.71
25.142196893692017,0.4,0.16,0.73,0.84
25.142616033554077,0.24,0.21,0.89,0.94
25.14354395866394,0.17,0.19,0.8,0.83
25.14444398880005,0.17,0.12,0.77,0.79
25.14484715461731,0.32,0.13,0.66,0.74
25.15040898323059,0.4,0.1,0.54,0.67
25.160423040390015,0.55,0.26,0.27,0.66
25.240805864334106,0.99,0.52,0.2,1.13
25.241254091262817,1.13,0.65,0.5,1.39
25.24168300628662,1.21,0.89,0.96,1.78
25.24210500717163,1.56,1.07,1.1,2.18
25.242520093917847,1.57,1.19,2.21,2.96
25.243457078933716,1.45,1.46,2.89,3.54
25.24438500404358,1.71,1.91,2.33,3.46
25.244803190231323,1.41,2.12,2.15,3.33
25.250291109085083,1.22,2.16,2.12,3.26
25.260268926620483,1.56,2.16,2.28,3.5
25.340723037719727,2.02,2.2,2.23,3.72
25.341166973114014,2.48,2.47,2.24,4.15
25.341593980789185,2.92,2.98,2.57,4.9
25.342017889022827,3.29,3.98,2.65,5.8
25.342437982559204,3.44,5.88,2.76,7.35
25.34337019920349,4.56,8.41,3.34,10.13
25.34430193901062,6.43,9.46,5.35,12.62
25.344722986221313,6.84,9.75,6.45,13.54
25.350176095962524,6.23,9.95,7.44,13.89
25.360077142715454,4.84,9.74,8.72,13.94
25.43948006629944,3.69,9.07,9.05,13.33
25.44180417060852,3.45,7.8,5.78,10.3
25.44223713874817,4.98,6.77,-1.14,8.48
25.442676067352295,6.25,8.98,-7.2,13.09
25.443113088607788,2.92,12.81,-8.12,15.44
25.444084882736206,-1.08,12.75,-1.33,12.86
25.445028066635132,-1.5,9.83,2.35,10.21
25.445468187332153,1.0,5.43,0.93,5.59
25.449947118759155,2.04,1.66,0.91,2.78
25.460010051727295,-0.93,-0.42,0.87,1.34
25.469357013702393,-3.24,-0.74,-4.5,5.59
25.541488885879517,-0.51,2.6,-5.51,6.11
25.54192090034485,5.05,4.25,-1.08,6.68
25.542343854904175,8.89,2.75,1.6,9.44
25.542764902114868,9.94,0.58,3.36,10.5
25.543724060058594,9.28,-1.14,4.16,10.23
25.54464316368103,6.99,-2.4,3.17,8.04
25.54506802558899,5.08,-2.74,2.34,6.22
25.549815893173218,3.96,-2.8,2.5,5.45
25.559773206710815,3.13,-2.95,2.8,5.13
25.569295167922974,2.57,-3.16,3.12,5.13
25.642004013061523,1.9,-3.24,3.03,4.82
25.64246392250061,1.32,-2.99,2.35,4.02
25.642892122268677,0.79,-2.55,1.79,3.21
25.643321990966797,0.74,-2.27,1.94,3.07
25.644325017929077,1.23,-1.85,1.75,2.82
25.645259141921997,1.13,-1.02,1.29,1.99
25.645694971084595,0.03,-0.85,0.7,1.1
25.649669885635376,-1.28,-1.09,-0.81,1.86
25.65968108177185,-1.98,-0.94,-2.9,3.63
25.669129133224487,-2.65,-1.41,-2.66,4.01
25.74201202392578,-2.37,-2.32,-0.88,3.43
25.742472887039185,-1.56,-2.51,-0.58,3.01
25.742911100387573,-1.5,-2.37,-1.32,3.09
25.743373155593872,-2.26,-2.2,-2.19,3.83
25.744340181350708,-3.51,-2.07,-2.77,4.92
25.745267152786255,-4.98,-1.93,-3.46,6.36
25.745697021484375,-6.46,-1.51,-4.64,8.09
25.74940514564514,-7.6,-1.1,-5.79,9.61
25.75956892967224,-8.13,-0.78,-6.78,10.61
25.768795013427734,-8.04,-0.73,-7.41,10.95
25.841522932052612,-7.64,-0.89,-7.44,10.7
25.841975927352905,-7.53,-1.46,-7.49,10.72
25.842406034469604,-7.98,-1.89,-8.0,11.45
25.842840909957886,-8.53,-1.99,-8.3,12.06
25.84380602836609,-8.88,-2.44,-8.42,12.47
25.844727039337158,-8.95,-3.02,-8.2,12.5
25.845160007476807,-8.55,-3.55,-7.59,11.97
25.84934401512146,-8.75,0.44,-7.2,11.34
25.85940408706665,-4.66,-0.7,-6.56,8.07
25.868673086166382,-4.8,-5.41,-8.36,11.05
25.941153049468994,-5.41,3.46,-6.82,9.36
25.94169306755066,6.46,12.95,12.1,18.86
25.94214105606079,12.23,10.66,11.38,19.81
25.942578077316284,6.18,11.45,-9.4,16.05
25.943552017211914,4.33,7.67,-5.99,10.65
25.944495916366577,-5.42,1.42,-0.89,5.67
25.94494318962097,-12.6,-1.66,-0.6,12.72
25.949181079864502,-8.08,-4.66,-3.28,9.88
25.95924687385559,-6.51,-2.52,-5.58,8.93
25.968616008758545,-7.34,-1.55,-6.51,9.93
26.040844202041626,-4.84,0.24,-5.47,7.3
26.041311025619507,-2.98,0.41,-3.5,4.61
26.041738033294678,-1.74,0.21,-2.94,3.42
26.042168855667114,-0.69,0.65,-2.64,2.8
26.04313898086548,0.04,0.88,-2.17,2.34
26.044059991836548,0.13,0.8,-1.5,1.7
26.04448390007019,-0.08,0.48,-1.26,1.35
26.049061059951782,-0.33,0.23,-1.39,1.44
26.059072017669678,-0.76,0.13,-0.84,1.14
26.06850504875183,-1.2,-0.03,-0.48,1.29
26.14130187034607,-1.31,-0.22,-0.7,1.5
26.141752004623413,-1.42,-0.33,-0.77,1.64
26.142189979553223,-1.08,-0.25,-0.82,1.37
26.14262104034424,-0.29,0.05,-0.92,0.96
26.14359211921692,0.32,0.24,-0.77,0.86
26.14452290534973,0.65,0.18,-0.45,0.81
26.144958972930908,0.67,0.02,0.02,0.67
26.148864030838013,0.56,-0.14,0.52,0.77
26.158931970596313,0.49,-0.22,0.61,0.81
26.168340921401978,0.32,-0.16,0.32,0.48
26.241955995559692,0.24,0.04,0.12,0.27
26.242457151412964,0.4,0.17,0.12,0.45
26.242861032485962,0.74,0.16,0.49,0.9
26.243282079696655,0.95,0.14,0.87,1.29
26.244241952896118,1.1,0.1,1.2,1.63
26.24516201019287,1.15,0.12,1.37,1.79
26.24557399749756,1.08,0.07,1.13,1.56
26.248739004135132,0.84,-0.04,1.03,1.32
26.258774042129517,0.65,-0.17,1.18,1.35
26.26805806159973,0.8,-0.3,1.35,1.59
26.341387033462524,1.26,-0.33,1.17,1.75
26.34184193611145,1.5,-0.23,0.91,1.76
26.342279195785522,1.68,-0.08,0.96,1.93
26.34274411201477,1.91,0.18,0.65,2.02
26.343700170516968,1.67,0.37,0.47,1.77
26.34464192390442,1.03,0.44,0.27,1.15
26.345080137252808,0.44,0.49,0.17,0.68
26.3486111164093,0.17,0.67,0.58,0.9
26.35853409767151,-0.02,0.87,1.29,1.55
26.367942094802856,-0.03,1.01,1.6,1.89
26.440882921218872,0.08,1.44,1.53,2.1
26.44132399559021,0.76,2.12,1.48,2.69
26.44174599647522,1.18,2.52,1.65,3.23
26.44216799736023,1.66,3.3,1.9,4.15
26.443115949630737,2.15,3.45,2.03,4.54
26.444041967391968,2.37,3.68,2.55,5.06
26.444464921951294,2.47,3.81,2.97,5.42
26.448440074920654,2.37,5.07,2.99,6.34
26.458314180374146,3.35,7.58,2.86,8.76
26.467880964279175,5.32,8.71,4.71,11.24
26.541473150253296,5.51,8.69,6.33,12.08
26.54192090034485,5.98,9.46,7.67,13.56
26.542359113693237,6.65,10.39,9.09,15.32
26.542793035507202,5.54,10.48,9.33,15.08
26.54375720024109,3.91,9.37,9.3,13.76
26.54471516609192,3.46,7.09,7.07,10.59
26.545149087905884,5.04,5.57,0.51,7.52
26.548285007476807,6.73,7.59,-5.28,11.43
26.558295011520386,4.04,12.52,-6.88,14.84
26.5676429271698,-1.36,14.07,-1.6,14.22
26.64215898513794,-2.91,9.75,1.88,10.34
26.642693996429443,-0.76,5.1,1.93,5.5
26.643131017684937,1.47,2.39,2.01,3.45
26.643572092056274,-2.48,1.28,0.02,2.79
26.64457607269287,-3.56,3.13,-4.85,6.78
26.645527124404907,1.41,6.62,-1.99,7.05
26.645958185195923,5.87,5.79,2.05,8.49
26.648158073425293,8.46,2.76,4.21,9.84
26.65814518928528,9.09,0.37,5.33,10.54
26.667598962783813,7.76,-0.99,4.47,9.0
26.742643117904663,6.35,-1.66,3.34,7.36
26.74309515953064,5.31,-2.23,3.12,6.55
26.743528127670288,4.32,-2.55,3.26,5.98
26.74396300315857,3.22,-2.79,3.43,5.46
26.744924068450928,2.2,-3.22,3.82,5.45
26.745840072631836,1.4,-3.74,3.95,5.61
26.74626898765564,1.16,-4.08,3.55,5.53
26.747864961624146,1.37,-4.27,3.13,5.46
26.75794816017151,1.46,-4.34,2.55,5.24
26.76740002632141,1.5,-4.33,1.76,4.9
26.842918157577515,1.21,-4.42,1.19,4.73
26.843722105026245,0.71,-4.38,0.62,4.48
26.844146013259888,0.52,-4.13,0.16,4.16
26.844560861587524,0.6,-4.12,-0.07,4.16
26.84548807144165,-0.04,-4.27,-0.38,4.28
26.8464138507843,-1.16,-3.98,-1.21,4.31
26.84683918952942,-1.82,-3.36,-2.46,4.54
26.848146200180054,-2.65,-2.34,-3.83,5.21
26.858139038085938,-3.54,-0.72,-5.76,6.79
26.867293119430542,-4.48,0.78,-7.87,9.08
26.943029165267944,-5.58,1.97,-7.74,9.74
26.94383692741394,-6.61,3.21,-6.2,9.61
26.94427514076233,-7.61,5.04,-6.71,11.32
26.94471287727356,-8.22,6.26,-9.18,13.82
26.945668935775757,-8.25,5.82,-11.23,15.1
26.94696593284607,-8.5,4.99,-12.84,16.18
26.94742512702942,-9.17,2.82,-14.25,17.17
26.948405027389526,-10.08,0.53,-12.04,15.71
26.95768094062805,-9.23,-2.5,-7.42,12.1
26.96710705757141,-6.84,-6.85,-8.84,13.1
27.04278016090393,-6.75,-5.65,-7.72,11.7
27.04375910758972,-5.02,-2.58,-5.68,8.0
27.044202089309692,2.33,7.84,13.59,15.86
27.044638872146606,5.19,8.04,20.53,22.65
27.045613050460815,2.4,3.91,-3.04,5.5
27.046908140182495,1.84,1.6,-3.84,4.54
27.0473370552063,-0.69,7.72,-6.03,9.82
27.048328161239624,-4.74,9.79,-12.94,16.9
27.05781388282776,-2.84,8.99,-10.8,14.33
27.066953897476196,-8.01,2.93,-2.89,9.0
27.142420053482056,-10.61,-5.84,-4.17,12.8
27.14324688911438,-8.47,-5.23,-8.76,13.26
27.14369511604309,-6.88,-3.11,-7.19,10.42
27.144134044647217,-5.44,-0.28,-4.52,7.07
27.145097970962524,-2.82,1.92,-3.26,4.71
27.14608597755432,0.09,1.59,-2.1,2.63
27.146869897842407,1.05,0.9,-1.12,1.77
27.147912979125977,-0.12,0.63,-0.89,1.09
27.158825159072876,-1.07,0.17,-0.5,1.19
27.166800022125244,-1.26,-0.09,-0.32,1.3
27.243563890457153,-0.93,-0.18,-0.06,0.94
27.244372129440308,-0.47,-0.15,0.2,0.53
27.244809865951538,0.08,0.04,0.35,0.36
27.245248079299927,0.77,0.16,0.11,0.79
27.24660301208496,1.29,0.17,-0.22,1.31
27.247545957565308,1.39,0.08,-0.5,1.47
27.247968912124634,1.39,-0.13,-0.45,1.46
27.24896001815796,1.3,-0.3,0.06,1.33
27.25823187828064,1.18,-0.36,0.29,1.26
27.266608953475952,1.05,-0.28,0.36,1.14
27.34273600578308,0.79,-0.19,0.36,0.88
27.34365200996399,0.5,-0.06,0.33,0.6
27.344095945358276,0.3,0.15,0.38,0.5
27.34452795982361,0.27,0.22,0.42,0.54
27.34549307823181,0.52,0.12,0.32,0.62
27.3467960357666,0.76,0.01,0.11,0.76
27.34723997116089,0.85,-0.08,0.01,0.85
27.348249197006226,0.61,-0.12,-0.11,0.63
27.35794711112976,0.27,-0.11,0.14,0.32
27.366456031799316,0.13,-0.02,0.43,0.44
27.442740201950073,0.12,0.07,0.36,0.38
27.443727016448975,0.1,0.12,0.28,0.32
27.444167852401733,0.3,0.0,0.3,0.42
27.444595098495483,0.74,-0.12,0.62,0.97
27.44555687904358,1.51,-0.12,0.98,1.8
27.446816205978394,2.09,-0.1,1.42,2.52
27.44725799560547,2.12,0.11,1.78,2.77
27.448243856430054,1.94,0.21,2.03,2.81
27.458160161972046,1.82,0.37,2.21,2.88
27.466353178024292,1.83,0.58,2.14,2.87
27.54300093650818,1.92,0.75,1.96,2.84
27.543954133987427,1.93,0.9,1.84,2.81
27.544394969940186,1.76,1.11,1.63,2.64
27.544819116592407,1.81,1.59,1.57,2.87
27.546125173568726,1.93,2.71,1.71,3.74
27.547059059143066,2.02,3.82,2.38,4.93
27.547509908676147,1.63,3.72,2.7,4.87
27.548516988754272,1.54,4.11,3.17,5.41
27.558248043060303,1.92,5.22,3.35,6.49
27.566156148910522,3.43,6.86,3.47,8.41
27.643049001693726,4.85,7.04,4.96,9.88
27.644097089767456,4.74,7.02,5.35,10.01
27.644530057907104,4.55,7.61,5.89,10.64
27.644960165023804,4.49,9.1,7.72,12.75
27.646306037902832,4.93,10.42,8.5,14.32
27.647268056869507,4.87,9.69,8.64,13.86
27.647695064544678,4.46,7.73,7.24,11.49
27.648696184158325,5.48,6.48,2.56,8.86
27.659752130508423,7.69,7.31,-3.1,11.05
27.665955066680908,6.18,10.7,-5.94,13.71
27.74349808692932,0.23,13.16,-3.04,13.5
27.744489908218384,-2.27,11.93,0.76,12.16
27.744931936264038,-1.33,8.54,0.05,8.64
27.745410203933716,0.75,4.8,-0.24,4.86
27.746729135513306,-0.38,2.57,1.89,3.21
27.74766707420349,-5.53,1.6,-1.54,5.95
27.748120069503784,-4.28,4.46,-5.19,8.07
27.749101877212524,1.38,6.25,-0.44,6.41
27.758599996566772,5.35,3.89,3.01,7.26
27.765887022018433,8.43,1.18,4.69,9.71
27.84345006942749,8.3,-0.57,4.95,9.68
27.844435930252075,6.26,-1.33,3.47,7.27
27.84487795829773,4.68,-1.9,2.42,5.6
27.845649003982544,3.55,-2.57,2.27,4.93
27.846627950668335,2.69,-3.02,2.32,4.66
27.847574949264526,2.07,-3.21,2.38,4.5
27.848031044006348,1.45,-3.4,2.66,4.55
27.84902310371399,1.02,-3.6,2.5,4.5
27.85850501060486,1.16,-3.89,2.12,4.57
27.865673065185547,1.61,-4.32,1.78,4.94
27.943780183792114,2.05,-4.78,1.61,5.44
27.944589853286743,2.05,-4.94,1.29,5.5
27.945378065109253,1.86,-4.93,0.97,5.35
27.945822954177856,1.29,-5.1,0.67,5.3
27.946798086166382,0.83,-5.4,0.27,5.47
27.947734117507935,0.31,-5.76,0.04,5.76
27.94819188117981,-0.07,-5.79,-0.34,5.8
27.949213981628418,-0.3,-5.4,-1.19,5.53
27.95850706100464,-1.28,-4.6,-2.66,5.46
27.965602159500122,-2.92,-3.67,-4.76,6.68
28.04356098175049,-4.74,-2.61,-6.83,8.71
28.0445659160614,-6.72,-1.5,-6.93,9.76
28.04539203643799,-8.16,-0.57,-5.78,10.01
28.045822858810425,-8.49,0.8,-5.9,10.36
28.046796083450317,-8.03,2.46,-7.65,11.36
28.047734022140503,-7.17,3.11,-8.78,11.75
28.048174142837524,-7.55,2.47,-8.71,11.78
28.04916787147522,-9.02,1.25,-9.63,13.25
28.058522939682007,-9.34,-0.34,-11.01,14.44
28.065479040145874,-7.9,-1.91,-10.67,13.41
28.14349913597107,-5.82,-2.77,-8.99,11.06
28.144261121749878,-5.17,-3.36,-7.99,10.09
28.144695043563843,-6.09,-3.87,-7.58,10.46
28.145435094833374,-7.27,2.06,-6.34,9.86
28.14639687538147,-2.12,0.73,-4.76,5.26
28.14731502532959,5.45,3.91,4.2,7.91
28.147731065750122,12.1,7.13,21.02,25.28
28.148707151412964,12.64,3.79,12.34,18.06
28.158517122268677,4.49,5.3,-7.28,10.06
28.165212869644165,-7.14,17.76,-14.89,24.25
28.24474000930786,-12.08,10.95,-18.63,24.75
28.24573016166687,-5.74,0.28,-2.32,6.19
28.246153116226196,-8.18,-7.21,8.86,14.04
28.246569871902466,-7.29,-7.07,-3.79,10.83
28.2475368976593,-5.59,-3.56,-10.2,12.16
28.248461961746216,-4.35,-1.53,-4.6,6.51
28.248879194259644,-2.25,-0.82,-1.09,2.63
28.249866008758545,-1.5,0.02,-1.58,2.17
28.32805609703064,-0.47,1.23,-2.48,2.8
28.328511953353882,0.51,1.58,-2.45,2.95
28.328954935073853,0.52,0.91,-1.68,1.98
28.3293879032135,-0.63,0.92,-1.25,1.67
28.3298180103302,-2.18,0.67,-1.26,2.6
28.330249071121216,-2.27,0.1,-1.33,2.63
28.331194162368774,-1.56,-0.14,-1.44,2.12
28.332130193710327,-1.02,-0.04,-1.29,1.64
28.33496403694153,-0.6,0.11,-1.58,1.69
28.345525979995728,-0.39,0.22,-2.04,2.08
28.427685976028442,-0.57,0.18,-1.99,2.07
28.42812991142273,-0.88,0.06,-1.42,1.67
28.428568124771118,-0.98,-0.13,-0.59,1.15
28.4289870262146,-0.82,-0.25,-0.03,0.85
28.429408073425293,-0.55,-0.15,0.21,0.6
28.429831981658936,-0.2,-0.04,0.23,0.3
28.430795907974243,-0.03,0.04,0.29,0.29
28.43167996406555,-0.11,0.04,0.24,0.26
28.434802055358887,-0.05,0.03,0.08,0.09
28.445411920547485,0.11,0.07,0.04,0.13
28.52719497680664,0.55,0.08,0.11,0.56
28.527663946151733,1.21,0.09,0.4,1.27
28.528094053268433,1.75,0.18,0.82,1.94
28.52852702140808,2.13,0.28,1.03,2.38
28.528947114944458,1.87,0.38,0.96,2.13
28.529350996017456,1.24,0.38,0.87,1.56
28.530289888381958,0.76,0.37,0.91,1.24
28.531213998794556,0.44,0.28,0.74,0.9
28.534645080566406,0.45,0.17,0.73,0.87
28.545228004455566,0.91,0.16,0.97,1.33
28.62586808204651,1.51,0.2,0.91,1.77
28.628090143203735,1.84,0.26,0.68,1.97
28.628517866134644,1.8,0.49,0.45,1.91
28.62894320487976,2.07,0.75,0.51,2.25
28.629364013671875,2.15,1.04,1.13,2.64
28.62978506088257,2.13,1.22,1.81,3.04
28.630763053894043,1.97,1.63,1.43,2.92
28.631712198257446,1.53,2.32,1.71,3.26
28.634502172470093,1.41,2.44,1.87,3.38
28.645081996917725,1.49,2.32,2.11,3.47
28.72501015663147,2.05,2.33,2.25,3.83
28.727225065231323,2.73,2.54,2.45,4.46
28.72766900062561,3.2,3.02,2.85,5.24
28.728095054626465,3.55,4.08,3.15,6.25
28.72850203514099,3.74,6.02,3.15,7.75
28.728904008865356,4.58,7.62,3.31,9.48
28.729870080947876,4.59,7.29,4.66,9.79
28.73080611228943,3.36,7.39,5.91,10.04
28.734345197677612,3.12,8.56,7.42,11.75
28.744834184646606,4.14,9.74,7.45,12.94
28.75494885444641,5.19,10.13,6.7,13.2
28.827551126480103,4.35,9.15,5.53,11.54
28.827988862991333,4.11,7.66,1.96,8.91
28.828418016433716,5.14,7.43,-3.15,9.56
28.82884192466736,3.51,10.09,-6.35,12.42
28.829272031784058,-1.8,12.11,-4.3,12.97
28.830230951309204,-2.93,10.19,-1.13,10.66
28.831161975860596,0.39,6.34,0.17,6.35
28.834168195724487,1.4,2.69,1.26,3.28
28.844726085662842,-1.65,0.23,0.8,1.84
28.85479187965393,-3.04,1.9,-3.71,5.15
28.92819619178772,1.69,4.89,-1.55,5.4
28.928641080856323,6.12,3.34,2.1,7.28
28.92906403541565,8.9,1.04,3.65,9.67
28.929491996765137,9.18,-0.09,4.86,10.38
28.92991304397583,7.86,-0.76,4.7,9.18
28.930845022201538,6.37,-1.06,3.99,7.59
28.931779146194458,5.05,-1.25,3.44,6.23
28.934026956558228,3.97,-1.5,3.22,5.32
28.944653034210205,3.07,-1.89,3.3,4.88
28.954627990722656,2.39,-2.29,3.12,4.54
29.02787208557129,1.85,-2.35,2.68,4.01
29.028289079666138,1.16,-2.35,2.26,3.46
29.02868914604187,0.39,-2.36,1.37,2.75
29.029104948043823,-0.33,-2.27,0.44,2.33
29.029525995254517,-0.56,-2.07,0.11,2.14
29.030494928359985,-0.14,-1.87,0.4,1.91
29.031434059143066,0.43,-2.01,0.7,2.17
29.033822059631348,0.64,-2.41,0.66,2.57
29.044265031814575,0.51,-2.82,0.18,2.87
29.054349184036255,0.33,-3.39,-0.17,3.41
29.12839102745056,-0.06,-4.03,0.2,4.03
29.12883496284485,-0.65,-4.42,0.42,4.48
29.12926197052002,-1.1,-4.43,0.2,4.56
29.12968611717224,-1.61,-3.88,-0.65,4.25
29.130109071731567,-2.9,-3.14,-2.36,4.88
29.131055116653442,-5.12,-2.5,-4.89,7.5
29.13197898864746,-7.26,-2.04,-6.02,9.64
29.133651971817017,-8.16,-1.96,-4.92,9.72
29.144317865371704,-8.04,-1.5,-4.64,9.4
29.15425205230713,-7.74,-0.31,-6.28,9.97
29.22881293296814,-7.74,1.16,-7.93,11.14
29.229241132736206,-7.93,2.21,-8.69,11.97
29.229671001434326,-8.72,2.4,-9.65,13.22
29.230095148086548,-9.21,1.54,-10.3,13.9
29.23052406311035,-8.32,-0.43,-9.51,12.64
29.231487035751343,-6.66,-2.44,-8.43,11.01
29.232395887374878,-5.66,-3.9,-8.02,10.56
29.233475923538208,-6.48,-4.47,-8.22,11.38
29.244184017181396,-8.56,-1.34,-8.5,12.13
29.254141092300415,-10.76,2.47,-5.61,12.38
29.328920125961304,-1.84,1.63,-2.59,3.57
29.32944107055664,10.33,6.94,12.28,17.48
29.32986617088318,14.03,8.32,17.94,24.24
29.330293893814087,0.96,14.83,-5.47,15.83
29.330722093582153,-9.54,15.15,-15.01,23.36
29.331679105758667,-3.72,2.99,-12.05,12.96
29.332602977752686,-7.18,-5.33,4.31,9.92
29.33337712287903,-9.02,-7.75,3.55,12.41
29.344053030014038,-8.98,-4.39,-5.64,11.47
29.35403609275818,-7.42,-1.84,-4.66,8.95
29.428334951400757,-4.15,-0.38,-3.17,5.23
29.428788900375366,-1.18,0.89,-2.22,2.66
29.429216146469116,1.45,1.48,-2.09,2.94
29.429670095443726,3.04,1.1,-2.41,4.03
29.430114030838013,2.4,0.55,-1.86,3.08
29.43109107017517,0.17,0.5,-1.66,1.74
29.432002067565918,-1.05,0.52,-2.29,2.57
29.433207035064697,-1.05,0.28,-2.14,2.4
29.44388198852539,-0.96,0.07,-1.25,1.57
29.45378804206848,-0.96,-0.02,-0.71,1.19
29.528666973114014,-0.89,-0.05,-0.38,0.96
29.529093980789185,-0.74,-0.05,-0.19,0.76
29.529505968093872,-0.4,0.02,-0.32,0.51
29.529927968978882,-0.07,0.14,-0.45,0.47
29.530351877212524,0.0,0.19,-0.39,0.43
29.531301021575928,-0.07,0.16,-0.19,0.25
29.53220820426941,0.07,0.05,-0.18,0.19
29.5331130027771,0.54,0.09,-0.19,0.57
29.54369616508484,0.78,0.13,-0.31,0.84
29.55370593070984,0.74,0.04,-0.43,0.85
29.62866497039795,0.78,-0.01,-0.43,0.89
29.629158973693848,0.98,0.1,-0.24,1.01
29.629586935043335,1.35,0.18,0.28,1.39
29.63000988960266,1.58,0.19,0.85,1.8
29.63042402267456,1.43,0.16,1.37,1.98
29.63139510154724,0.87,0.03,1.44,1.68
29.632341146469116,0.53,-0.07,1.26,1.36
29.633087873458862,0.69,-0.12,1.33,1.5
29.643654108047485,0.81,-0.13,1.13,1.39
29.653527975082397,0.71,0.0,0.7,0.99
29.728159189224243,0.58,0.17,0.51,0.79
29.728599071502686,0.61,0.34,0.45,0.83
29.72902202606201,0.94,0.35,0.52,1.12
29.72944712638855,1.34,0.23,0.91,1.63
29.729868173599243,1.64,0.1,1.3,2.09
29.730817079544067,1.66,0.07,1.53,2.25
29.731719970703125,1.42,0.18,1.6,2.14
29.732702016830444,1.07,0.35,1.48,1.85
29.743381023406982,0.86,0.6,1.46,1.79
29.753371000289917,0.78,0.88,1.95,2.27
29.82689905166626,1.0,1.1,2.12,2.58
29.827335119247437,1.58,2.05,2.32,3.47
29.827760934829712,1.49,2.1,2.77,3.78
29.82816195487976,1.49,2.16,2.54,3.65
29.828562021255493,1.68,2.1,2.63,3.76
29.829493045806885,1.78,2.49,2.18,3.75
29.830419063568115,1.91,3.87,1.77,4.66
29.832674026489258,2.6,5.91,1.54,6.63
29.84325909614563,3.91,6.37,2.6,7.91
29.85324215888977,3.63,5.71,3.69,7.7
29.927683115005493,3.48,6.07,4.25,8.18
29.928158044815063,3.57,6.56,5.91,9.52
29.928602933883667,3.52,6.97,6.94,10.44
29.929052114486694,2.88,7.47,7.09,10.69
29.929473161697388,1.39,7.02,7.38,10.27
29.93044400215149,0.02,5.92,5.91,8.36
29.93135905265808,0.53,4.78,1.97,5.19
29.932443857192993,3.53,5.34,-2.95,7.04
29.9431369304657,3.03,8.79,-4.25,10.22
29.953041076660156,-2.71,9.71,-2.19,10.31
30.027709007263184,-3.33,9.28,-0.67,9.88
30.028155088424683,-0.85,8.7,-0.67,8.76
30.028606176376343,2.5,6.9,0.27,7.34
30.029028177261353,3.06,3.74,0.6,4.86
30.029443979263306,0.46,3.07,-0.2,3.11
30.03040599822998,-1.3,3.79,-4.27,5.85
30.031308889389038,3.32,6.42,-3.59,8.07
30.032302141189575,8.73,6.56,-0.08,10.92
30.042927026748657,12.56,3.13,2.65,13.21
30.052844047546387,14.43,0.33,4.71,15.18
30.128591060638428,12.08,-1.03,4.71,13.0
30.12900996208191,8.72,-1.63,4.28,9.84
30.129448175430298,6.5,-1.81,4.02,7.85
30.129870176315308,4.41,-1.73,3.45,5.86
30.130300045013428,3.01,-1.91,2.64,4.43
30.131265878677368,2.04,-2.14,2.32,3.75
30.132539987564087,1.33,-2.41,2.5,3.71
30.132960081100464,0.93,-2.5,2.13,3.41
30.142814874649048,0.81,-2.31,1.59,2.91
30.152781009674072,0.93,-2.33,1.15,2.75
