time,ax,ay,az,atotal
0.00546717643737793,-0.35,0.1,-0.37,0.51
0.014886140823364258,-0.17,0.1,-0.16,0.25
0.02561330795288086,-0.05,-0.27,0.03,0.27
0.03567814826965332,0.11,-0.13,0.01,0.17
0.0448911190032959,0.04,0.03,0.04,0.06
0.07807111740112305,0.05,-0.05,0.15,0.16
0.0785071849822998,0.14,-0.04,0.13,0.19
0.07892799377441406,0.06,0.0,0.04,0.07
0.08478713035583496,-0.04,-0.02,-0.02,0.04
0.0954890251159668,0.0,-0.01,-0.08,0.08
0.10528326034545898,0.05,0.0,-0.07,0.08
0.11476707458496094,0.04,0.0,-0.02,0.04
0.1255812644958496,0.01,-0.01,0.0,0.01
0.13554000854492188,0.04,-0.01,0.04,0.05
0.14470219612121582,0.08,0.0,0.04,0.08
0.17838716506958008,0.05,-0.01,0.0,0.05
0.1788163185119629,-0.02,-0.02,0.02,0.03
0.17920303344726562,-0.02,0.0,0.02,0.02
0.18446826934814453,-0.06,-0.01,-0.01,0.06
0.19516420364379883,-0.07,-0.01,-0.02,0.07
0.20520830154418945,-0.05,0.0,-0.01,0.05
0.2146282196044922,-0.02,0.0,-0.01,0.02
0.22546100616455078,0.0,-0.02,0.01,0.02
0.23533916473388672,0.03,-0.02,0.02,0.04
0.24463224411010742,0.01,-0.01,0.03,0.03
0.27819299697875977,-0.01,0.0,0.02,0.02
0.27861714363098145,0.02,-0.01,0.01,0.02
0.27901220321655273,0.02,0.0,0.03,0.03
0.2842981815338135,-0.02,0.02,-0.02,0.03
0.29512500762939453,-0.04,0.0,-0.05,0.06
0.30501604080200195,-0.03,-0.02,-0.03,0.04
0.31443023681640625,-0.04,-0.01,-0.03,0.05
0.3251371383666992,-0.02,-0.01,-0.01,0.02
0.33511924743652344,-0.01,0.0,-0.03,0.03
0.3444242477416992,0.01,0.0,-0.01,0.01
0.3782482147216797,0.02,0.0,0.0,0.02
0.3786301612854004,0.0,0.0,0.0,0.0
0.37902116775512695,-0.01,-0.01,0.03,0.03
0.3841891288757324,-0.02,-0.01,0.01,0.02
0.3948631286621094,0.0,-0.01,0.03,0.03
0.4048643112182617,0.0,-0.01,0.0,0.01
0.41427016258239746,0.02,-0.02,-0.02,0.03
0.42502927780151367,0.01,-0.02,-0.01,0.02
0.4352540969848633,0.0,-0.01,0.0,0.01
0.4443221092224121,-0.04,0.0,0.0,0.04
0.47748327255249023,-0.08,0.0,-0.02,0.08
0.47789716720581055,-0.06,-0.02,-0.03,0.06
0.4783172607421875,0.0,0.0,-0.02,0.02
0.4842209815979004,0.0,0.0,0.02,0.02
0.4946911334991455,0.01,-0.01,0.02,0.02
0.5046741962432861,0.01,-0.01,-0.01,0.01
0.5140781402587891,0.0,-0.02,0.04,0.04
0.524834156036377,0.0,-0.01,0.03,0.03
0.5351042747497559,-0.02,-0.02,0.03,0.04
0.5443141460418701,0.01,-0.02,0.06,0.06
0.5781340599060059,0.02,0.0,0.02,0.02
0.5785613059997559,0.0,-0.01,-0.03,0.03
0.5789642333984375,0.0,0.0,-0.04,0.04
0.5842432975769043,0.01,0.0,-0.04,0.04
0.5946121215820312,-0.01,0.01,-0.06,0.06
0.6045291423797607,-0.01,0.0,-0.04,0.04
0.6139872074127197,-0.01,-0.02,-0.01,0.02
0.6247200965881348,-0.02,-0.01,0.02,0.03
0.6600379943847656,-0.03,-0.01,0.03,0.04
0.6604361534118652,-0.02,-0.01,0.02,0.03
0.6607990264892578,-0.03,-0.01,0.02,0.03
0.6638081073760986,-0.05,-0.01,0.02,0.05
0.6739382743835449,-0.06,0.01,0.0,0.06
0.684136152267456,-0.07,0.01,-0.02,0.07
0.6945443153381348,-0.07,-0.01,-0.01,0.07
0.704686164855957,-0.05,-0.02,-0.01,0.05
0.7138371467590332,-0.08,-0.03,-0.03,0.09
0.7247252464294434,-0.07,-0.04,0.04,0.09
0.7625222206115723,-0.13,-0.02,-0.02,0.13
0.7630162239074707,-0.03,-0.01,0.01,0.03
0.7638611793518066,0.01,-0.04,0.03,0.05
0.7643561363220215,-0.09,0.03,-0.08,0.12
0.7737569808959961,-0.04,-0.02,0.02,0.04
0.7837800979614258,-0.05,-0.01,0.04,0.06
0.7944149971008301,-0.15,-0.02,-0.04,0.15
0.8043951988220215,-0.09,-0.01,-0.11,0.14
0.8137691020965576,0.0,0.0,-0.1,0.1
0.8245220184326172,0.02,0.0,-0.13,0.13
0.8612422943115234,0.04,-0.01,-0.1,0.1
0.8616642951965332,0.05,0.02,-0.09,0.1
0.8620631694793701,0.04,0.02,-0.32,0.32
0.8635351657867432,0.26,0.07,-0.39,0.47
0.8736181259155273,0.37,0.03,-0.33,0.49
0.883568286895752,0.36,-0.02,-0.14,0.38
0.8941521644592285,0.35,-0.05,0.05,0.35
0.9042530059814453,0.31,0.02,0.11,0.32
0.9136972427368164,0.35,-0.03,0.13,0.37
0.9245100021362305,0.56,-0.09,0.38,0.68
0.961827278137207,0.69,-0.07,0.75,1.02
0.9622581005096436,0.55,-0.03,0.91,1.06
0.9626801013946533,0.34,-0.06,0.85,0.91
0.963414192199707,0.22,-0.09,0.7,0.73
0.9735221862792969,0.14,-0.08,0.42,0.44
0.9835062026977539,0.03,-0.1,0.25,0.27
0.994124174118042,-0.09,-0.07,0.09,0.14
1.004127025604248,-0.16,-0.03,0.0,0.16
1.0135071277618408,-0.19,0.0,-0.1,0.21
1.0243251323699951,-0.17,0.04,-0.05,0.18
1.0607821941375732,-0.04,0.0,0.22,0.22
1.0617570877075195,0.14,-0.17,0.57,0.61
1.062183141708374,0.0,-0.23,0.7,0.73
1.063453197479248,0.03,-0.15,0.65,0.66
1.0734162330627441,0.27,-0.08,0.11,0.3
1.0833461284637451,0.22,-0.14,-0.11,0.28
1.0939512252807617,-0.04,-0.1,0.06,0.12
1.1039762496948242,-0.33,-0.06,0.04,0.33
1.1134181022644043,-0.72,-0.1,-0.08,0.73
1.124171257019043,-0.89,-0.12,-0.41,0.98
1.1341242790222168,-0.64,-0.14,0.22,0.69
1.1621041297912598,-0.38,-0.05,0.86,0.94
1.1625490188598633,-0.07,0.09,0.7,0.7
1.163257122039795,0.38,0.11,0.27,0.47
1.1732161045074463,0.72,0.19,-0.53,0.91
1.1831591129302979,0.99,0.27,-0.96,1.4
1.1938111782073975,0.8,0.24,-0.95,1.26
1.2038960456848145,0.3,0.18,-1.01,1.06
1.2132420539855957,0.07,0.12,-0.75,0.76
1.224053144454956,-0.14,0.08,-0.55,0.57
1.2339351177215576,-0.42,0.03,-0.17,0.45
1.26143217086792,-0.63,0.1,-0.22,0.67
1.2618613243103027,-0.76,0.12,-0.24,0.8
1.262904167175293,-0.77,-0.01,-0.23,0.8
1.273056983947754,-0.76,-0.05,-0.25,0.8
1.2829980850219727,-0.75,-0.03,-0.18,0.77
1.2936882972717285,-0.64,0.02,-0.26,0.69
1.303650140762329,-0.26,0.07,-0.34,0.43
1.3130791187286377,0.12,0.06,-0.4,0.42
1.3237953186035156,0.38,0.07,-0.51,0.63
1.3340129852294922,0.68,0.03,-0.4,0.78
1.3626492023468018,0.85,-0.03,-0.19,0.87
1.3633341789245605,0.77,0.0,0.07,0.77
1.3637542724609375,0.63,0.03,0.29,0.69
1.3729331493377686,0.71,0.07,0.17,0.73
1.382906198501587,0.94,0.06,-0.08,0.94
1.3935601711273193,0.92,0.04,-0.4,1.0
1.4035561084747314,0.69,0.0,-0.59,0.9
1.41294527053833,0.36,-0.06,-0.52,0.63
1.4237060546875,0.05,-0.07,-0.38,0.38
1.4337821006774902,-0.08,0.0,-0.22,0.23
1.4616761207580566,-0.29,0.0,-0.22,0.36
1.4620862007141113,-0.45,-0.01,-0.05,0.45
1.462846279144287,-0.36,0.04,-0.05,0.36
1.4728221893310547,-0.24,0.13,-0.02,0.27
1.4827322959899902,-0.13,0.11,0.21,0.27
1.4933571815490723,0.03,0.08,0.14,0.16
1.5034081935882568,0.21,0.07,0.1,0.24
1.5128321647644043,0.44,0.12,-0.03,0.45
1.5235810279846191,0.57,0.24,-0.31,0.69
1.533623218536377,0.44,0.32,-0.27,0.6
1.5628342628479004,0.38,0.29,-0.07,0.48
1.5632672309875488,0.64,0.35,-0.2,0.75
1.5636911392211914,0.86,0.44,-0.41,1.04
1.572700023651123,1.08,0.46,-0.45,1.25
1.582597255706787,1.21,0.4,-0.4,1.33
1.593271255493164,1.35,0.36,-0.47,1.47
1.6031551361083984,1.52,0.32,-0.51,1.63
1.6126441955566406,1.71,0.26,-0.27,1.75
1.6234941482543945,1.84,0.51,-0.11,1.91
1.633514165878296,1.66,0.82,-0.17,1.85
1.6627020835876465,1.6,0.98,0.0,1.87
1.663128137588501,1.8,1.36,-0.24,2.26
1.6635513305664062,2.24,1.67,-0.23,2.8
1.6725010871887207,2.84,2.69,-0.19,3.91
1.6824262142181396,3.0,2.99,0.2,4.24
1.6931142807006836,3.01,3.03,0.64,4.31
1.7029380798339844,3.09,2.98,0.92,4.39
1.7124981880187988,2.84,2.88,0.79,4.12
1.7232990264892578,2.86,2.99,0.63,4.18
1.7333812713623047,3.04,3.08,0.52,4.35
1.7631940841674805,3.3,3.34,0.41,4.71
1.763620138168335,3.68,3.75,0.13,5.25
1.7640352249145508,3.99,3.98,0.06,5.63
1.7723159790039062,4.44,3.76,0.11,5.81
1.7822961807250977,4.83,3.93,-0.2,6.23
1.7929363250732422,4.8,3.9,-0.44,6.2
1.802983283996582,4.18,3.95,-0.68,5.79
1.8122951984405518,2.83,4.24,-0.88,5.17
1.823160171508789,1.21,4.78,-1.5,5.15
1.8331031799316406,0.1,4.86,-1.89,5.21
1.8625061511993408,-0.41,3.94,-2.11,4.48
1.8629381656646729,-0.71,4.27,-3.01,5.27
1.863363265991211,0.76,5.04,-4.35,6.7
1.8721489906311035,2.91,2.91,-2.27,4.69
1.882190227508545,4.35,1.04,-0.86,4.55
1.892888069152832,5.4,-0.77,-0.74,5.5
1.90301513671875,6.65,-1.41,-0.25,6.8
1.9122061729431152,2.56,-2.24,0.65,3.46
1.9229471683502197,2.51,-1.97,-1.53,3.53
1.9331302642822266,5.64,-0.49,-1.76,5.92
1.963757038116455,7.25,-0.49,-0.69,7.29
1.964169979095459,6.81,-1.62,-0.37,7.0
1.9645941257476807,5.73,-2.61,-0.18,6.29
1.972095012664795,5.34,-2.6,-0.24,5.94
1.982039213180542,5.43,-2.33,-0.16,5.91
1.9927420616149902,5.49,-2.01,0.15,5.84
2.0029802322387695,5.46,-1.72,0.5,5.74
2.01210618019104,5.28,-1.36,0.72,5.49
2.022881031036377,4.97,-1.02,0.78,5.13
2.0329322814941406,4.64,-0.68,0.76,4.75
2.0636720657348633,4.48,-0.45,0.86,4.58
2.0641160011291504,4.01,-0.19,0.97,4.13
2.064542293548584,3.12,0.22,0.66,3.19
2.0718913078308105,2.19,0.4,0.22,2.23
2.0818872451782227,1.62,0.51,-0.05,1.69
2.092501163482666,1.27,0.87,-0.29,1.56
2.1028571128845215,0.86,1.17,-0.35,1.49
2.1118741035461426,0.34,1.38,-0.1,1.42
2.122587203979492,-0.27,1.46,0.02,1.48
2.132639169692993,-0.64,1.54,-0.21,1.68
2.1633100509643555,-0.92,1.6,-0.48,1.9
2.163738250732422,-1.42,1.73,-0.74,2.35
2.1641581058502197,-2.23,1.8,-1.01,3.03
2.1718029975891113,-3.46,1.78,-1.08,4.03
2.1818411350250244,-4.73,1.59,-1.02,5.09
2.192453145980835,-6.32,1.38,-1.26,6.59
2.202669143676758,-7.8,1.01,-1.74,8.05
2.2117490768432617,-7.2,5.71,-2.9,9.63
2.2225091457366943,-4.58,3.26,-3.01,6.37
2.232551097869873,-10.26,0.46,-0.68,10.29
2.2641162872314453,-13.64,0.77,-0.26,13.66
2.264545202255249,-14.3,1.07,-0.25,14.34
2.264968156814575,-13.29,0.83,-1.0,13.35
2.2716431617736816,-11.91,0.79,-1.3,12.0
2.2815701961517334,-10.24,0.52,-0.62,10.27
2.2922019958496094,-8.48,0.2,0.38,8.49
2.3024861812591553,-7.34,-0.03,1.47,7.48
2.311622142791748,-7.45,0.41,1.54,7.61
2.322327136993408,-4.4,2.91,-0.7,5.32
2.3323161602020264,-0.07,4.55,1.29,4.72
2.3637962341308594,-1.94,3.53,2.1,4.54
2.364234209060669,-5.39,1.04,-1.17,5.61
2.364655017852783,-4.48,2.03,-0.91,5.0
2.3714590072631836,-3.89,-0.08,1.54,4.18
2.3814282417297363,-4.24,-2.41,1.79,5.19
2.392069101333618,-6.13,-1.51,0.31,6.32
2.4020421504974365,-6.6,0.42,0.07,6.61
2.411530017852783,-5.86,1.41,0.36,6.03
2.422214984893799,-4.43,0.88,0.19,4.52
2.432180166244507,-2.48,-0.32,0.22,2.51
2.4647271633148193,-0.9,-0.6,0.05,1.08
2.4651541709899902,-0.1,-0.28,-0.22,0.36
2.465579032897949,0.13,0.2,-0.51,0.56
2.471292018890381,0.51,0.32,-0.53,0.8
2.4812982082366943,1.02,0.09,-0.27,1.05
2.491875171661377,1.32,0.08,-0.7,1.49
2.5018463134765625,1.09,0.01,-1.15,1.58
2.5113210678100586,0.49,0.03,-1.48,1.55
2.521979331970215,0.04,0.2,-1.71,1.72
2.5320281982421875,0.21,0.23,-1.49,1.52
2.564444065093994,0.51,0.12,-0.93,1.06
2.5648813247680664,0.8,0.15,-0.56,0.98
2.565291166305542,0.8,-0.03,-0.29,0.85
2.5710930824279785,0.44,0.06,-0.27,0.51
2.583059310913086,0.2,0.26,-0.02,0.32
2.591832160949707,0.42,0.21,0.43,0.63
2.6016030311584473,0.42,0.24,0.1,0.49
2.6111550331115723,0.11,0.24,-0.46,0.53
2.6219401359558105,-0.18,0.22,-0.59,0.65
2.6319501399993896,-0.03,0.18,-0.44,0.47
2.6655492782592773,0.2,0.25,-0.29,0.43
2.6660032272338867,0.16,0.32,0.09,0.36
2.6664211750030518,0.18,0.26,0.17,0.35
2.670964241027832,0.59,0.21,0.11,0.63
2.680988311767578,1.05,0.09,0.01,1.05
2.691685199737549,1.18,-0.07,-0.1,1.18
2.701627254486084,1.2,-0.05,-0.53,1.31
2.7110021114349365,1.22,-0.05,-0.87,1.49
2.7218642234802246,1.16,-0.07,-0.83,1.42
2.731812000274658,0.72,-0.13,-0.67,0.99
2.7644052505493164,0.1,-0.12,-0.3,0.33
2.7648441791534424,-0.25,-0.02,-0.15,0.29
2.765270233154297,-0.41,0.16,-0.33,0.55
2.770836114883423,-0.34,0.17,-0.53,0.65
2.7808032035827637,-0.04,0.04,-0.27,0.27
2.79141902923584,0.52,0.15,0.01,0.54
2.801396131515503,0.95,0.41,0.11,1.04
2.810936212539673,1.08,0.72,0.31,1.33
2.8215341567993164,0.94,0.98,0.19,1.37
2.8316221237182617,0.97,1.27,0.16,1.6
2.8657240867614746,1.62,1.43,-0.3,2.18
2.866157054901123,2.47,1.88,-0.08,3.1
2.866579055786133,2.72,1.93,0.22,3.34
2.870554208755493,3.31,1.78,0.03,3.75
2.8806562423706055,3.66,1.79,0.0,4.07
2.8913230895996094,3.74,1.87,-0.09,4.18
2.901271104812622,3.82,2.01,-0.19,4.32
2.910698175430298,3.86,2.25,-0.23,4.47
2.9214560985565186,4.07,2.44,-0.3,4.75
2.931502103805542,4.57,2.66,-0.28,5.29
2.965092182159424,5.28,2.93,-0.26,6.04
2.965529203414917,6.16,3.39,-0.37,7.04
2.965954303741455,6.68,4.26,-0.41,7.93
2.9704461097717285,6.7,4.76,-0.3,8.22
2.980539321899414,6.68,4.91,0.04,8.29
2.9911701679229736,6.53,5.07,0.26,8.27
3.0011441707611084,6.08,5.1,0.33,7.94
3.0106041431427,4.82,5.03,0.38,6.97
3.02132511138916,3.5,5.15,0.09,6.22
3.0312821865081787,2.92,6.11,-0.37,6.78
3.0652031898498535,2.48,7.03,-1.38,7.58
3.0656280517578125,1.46,7.37,-2.85,8.03
3.066049098968506,-0.97,7.56,-3.59,8.42
3.0702672004699707,-1.48,7.62,-4.09,8.77
3.080416202545166,1.3,5.62,-3.71,6.85
3.0909531116485596,4.58,4.0,-2.27,6.49
3.1009902954101562,7.51,1.32,-0.83,7.67
3.1104812622070312,8.64,-2.17,0.04,8.9
3.1211390495300293,0.43,-3.59,0.75,3.69
3.1311912536621094,-3.0,-2.26,-2.16,4.33
3.165764331817627,3.38,-0.55,-2.81,4.42
3.166199207305908,8.94,-0.72,-0.81,9.0
3.1666221618652344,11.51,-1.85,0.42,11.66
3.170281171798706,11.37,-2.56,1.8,11.79
3.18033504486084,9.4,-2.81,2.93,10.23
3.190855026245117,7.19,-2.73,3.41,8.41
3.2008180618286133,5.96,-2.67,3.4,7.36
3.210318088531494,5.81,-2.59,2.99,7.02
3.2212562561035156,5.68,-2.21,2.41,6.55
3.2310752868652344,5.24,-1.72,1.85,5.81
3.2655110359191895,4.52,-1.33,1.47,4.93
3.2659382820129395,3.71,-0.9,1.53,4.11
3.266362190246582,2.77,-0.45,1.78,3.32
3.270238161087036,1.74,-0.08,1.69,2.42
3.280217170715332,0.96,0.34,1.11,1.5
3.2907562255859375,0.43,0.77,0.35,0.94
3.3007402420043945,0.2,0.87,-0.39,0.97
3.310206174850464,-0.32,1.17,-0.71,1.4
3.3212180137634277,-1.25,1.47,-0.42,1.97
3.3309051990509033,-2.07,1.68,0.03,2.66
3.365828037261963,-2.27,1.69,0.4,2.85
3.366260051727295,-1.65,1.85,0.73,2.58
3.366678237915039,-0.79,2.21,1.1,2.59
3.370171070098877,-0.51,2.59,1.31,2.94
3.380012035369873,-1.05,2.87,0.8,3.15
3.3905982971191406,-2.24,2.98,-0.24,3.73
3.400473117828369,-3.57,2.96,-1.37,4.83
3.410041332244873,-4.62,3.15,-2.13,5.98
3.4211339950561523,-5.54,3.45,-2.77,7.08
3.4307680130004883,-6.67,4.76,-3.42,8.87
3.465869188308716,-5.49,9.6,-5.1,12.17
3.466308116912842,-8.76,1.39,-4.86,10.11
3.466732978820801,-14.27,-1.77,-4.53,15.07
3.4697999954223633,-13.06,-0.13,-4.41,13.78
3.4798312187194824,-10.9,0.12,-4.2,11.68
3.4903712272644043,-9.26,0.32,-3.3,9.83
3.500380039215088,-9.01,-0.24,-2.26,9.29
3.509921073913574,-9.12,-0.31,-1.62,9.26
3.5209879875183105,-8.75,-0.24,-0.88,8.79
3.5305962562561035,-8.75,0.0,-0.09,8.75
3.567277193069458,-9.61,0.44,0.42,9.62
3.5677170753479004,-10.3,1.62,-1.46,10.52
3.56813907623291,-3.1,3.29,-2.77,5.3
3.5696861743927,4.33,2.62,3.93,6.4
3.579707145690918,3.14,3.94,4.4,6.68
3.59023118019104,-3.3,6.27,0.95,7.14
3.600290298461914,-7.62,4.14,-0.39,8.68
3.609750270843506,-6.93,1.61,-1.43,7.25
3.6207711696624756,-5.73,1.96,-1.56,6.25
3.630533218383789,-6.36,1.95,-3.36,7.45
3.6655702590942383,-5.61,1.0,-3.58,6.72
3.6660001277923584,-3.99,0.85,-0.83,4.16
3.6664280891418457,-4.0,-0.56,0.65,4.09
3.6694822311401367,-4.6,-0.64,0.09,4.64
3.6795501708984375,-4.37,-0.08,0.1,4.37
3.6901392936706543,-3.42,0.07,0.66,3.48
3.7000961303710938,-2.08,0.17,0.59,2.16
3.7096142768859863,-0.77,0.43,0.27,0.92
3.7206871509552,0.15,0.27,-0.08,0.31
3.7303919792175293,0.62,-0.01,-0.18,0.64
3.7655391693115234,1.13,0.07,-0.24,1.15
3.7659661769866943,1.35,0.25,-0.79,1.58
3.766388177871704,0.9,0.29,-1.77,2.0
3.769340991973877,0.5,0.01,-2.13,2.18
3.779419183731079,0.53,-0.35,-2.06,2.15
3.789994239807129,0.14,-0.71,-1.94,2.07
3.7999563217163086,-0.58,-0.45,-1.8,1.94
3.8094351291656494,-0.78,-0.26,-1.07,1.34
3.820223331451416,-0.46,-0.18,-0.44,0.66
3.830198287963867,-0.08,-0.11,0.1,0.16
3.866429328918457,0.36,-0.17,0.47,0.61
3.866859197616577,0.79,-0.14,0.31,0.86
3.867277145385742,0.66,0.11,-0.09,0.67
3.8692140579223633,0.1,0.16,-0.32,0.37
3.879249095916748,-0.14,0.21,-0.35,0.43
3.8899459838867188,-0.07,0.04,-0.21,0.22
3.899862289428711,-0.09,-0.14,-0.41,0.44
3.9092111587524414,0.13,-0.13,-0.59,0.61
3.91996431350708,0.3,-0.13,-0.66,0.73
3.930093288421631,0.51,0.02,-0.53,0.73
3.965536117553711,0.62,0.06,-0.32,0.7
3.9659643173217773,0.38,-0.05,-0.27,0.46
3.966369152069092,0.02,-0.12,-0.27,0.29
3.9689981937408447,-0.27,-0.06,-0.12,0.3
3.9793310165405273,-0.59,0.02,-0.07,0.59
3.989720106124878,-0.83,0.17,0.15,0.86
3.9996800422668457,-0.86,0.23,0.33,0.94
4.009209156036377,-0.74,0.13,0.19,0.77
4.019959211349487,-0.4,0.19,-0.04,0.44
4.029909133911133,-0.17,0.21,-0.09,0.28
4.065295219421387,-0.4,0.1,-0.21,0.46
4.065721035003662,-0.45,0.09,-0.23,0.51
4.066143989562988,-0.06,0.04,-0.21,0.22
4.068859100341797,0.33,-0.15,-0.21,0.41
4.078972101211548,0.9,-0.25,-0.06,0.93
4.0895421504974365,1.72,-0.42,0.17,1.77
4.099550247192383,2.43,-0.58,-0.06,2.49
4.109010219573975,2.3,-0.25,-0.34,2.33
4.119678020477295,1.38,0.57,0.07,1.49
4.129777193069458,0.8,0.84,0.51,1.26
4.166340112686157,0.8,0.72,0.73,1.3
4.166751146316528,1.52,0.58,0.81,1.81
4.167176246643066,2.46,0.34,0.71,2.58
4.168780326843262,3.0,0.43,0.29,3.04
4.178778171539307,2.86,0.92,-0.3,3.01
4.189254283905029,2.47,1.36,-0.54,2.87
4.199398994445801,2.73,1.62,-0.58,3.22
4.208876132965088,2.78,1.64,-0.42,3.25
4.219517230987549,2.66,1.88,-0.56,3.3
4.229623317718506,2.57,2.33,-0.42,3.49
4.26594614982605,3.04,2.51,-0.3,3.95
4.2663702964782715,3.95,2.96,-0.12,4.93
4.266786098480225,4.68,3.5,-0.99,5.92
4.268688201904297,6.41,4.53,-1.59,8.0
4.278680324554443,4.56,3.89,0.31,6.0
4.289124011993408,4.76,4.05,-0.83,6.3
4.299261093139648,5.16,4.2,0.06,6.65
4.308654308319092,5.27,4.18,0.03,6.72
4.3193039894104,5.77,4.7,-0.23,7.44
4.32951021194458,6.12,5.08,-0.24,7.95
4.367600202560425,5.92,5.26,-0.4,7.92
4.368028163909912,5.25,5.62,-0.15,7.69
4.3687591552734375,4.45,5.64,-0.02,7.18
4.3691771030426025,4.15,5.8,-0.28,7.13
4.378565311431885,3.81,6.58,-1.71,7.79
4.38895320892334,3.05,7.3,-2.8,8.39
4.399104118347168,-0.07,7.97,-0.22,7.97
4.40850830078125,-3.54,6.83,0.37,7.7
4.419254302978516,-0.96,6.39,-3.24,7.22
4.42936110496521,2.81,5.09,-2.82,6.46
4.466745138168335,6.26,3.0,-1.59,7.12
4.4671711921691895,8.6,0.32,-0.45,8.61
4.467615127563477,4.65,-1.69,1.04,5.05
4.4683802127838135,-3.52,-2.16,-0.3,4.14
4.478401184082031,-0.36,0.01,-3.93,3.94
4.488954067230225,6.59,0.43,-2.66,7.11
4.499000072479248,10.82,-0.55,-0.49,10.84
4.508443117141724,12.04,-1.54,0.88,12.16
4.5190041065216064,11.07,-2.36,1.96,11.48
4.529067039489746,8.64,-2.87,2.33,9.39
4.567382097244263,6.57,-3.21,2.25,7.65
4.568112134933472,5.66,-3.21,1.93,6.78
4.568504333496094,5.66,-2.43,1.4,6.31
4.568907260894775,5.86,-1.59,1.08,6.16
4.5782811641693115,5.47,-1.04,1.05,5.66
4.589052200317383,4.48,-0.88,1.23,4.72
4.598749160766602,3.35,-1.17,1.39,3.81
4.608161211013794,2.68,-1.47,1.57,3.43
4.618908166885376,2.69,-1.56,1.8,3.59
4.629111289978027,2.68,-1.23,2.19,3.67
4.667457103729248,2.39,-0.74,2.37,3.44
4.668232202529907,2.11,-0.11,2.33,3.14
4.668661117553711,1.85,0.65,2.13,2.89
4.669081211090088,0.96,1.84,1.4,2.5
4.678089141845703,-0.89,2.85,0.44,3.01
4.688908100128174,-2.81,3.35,-0.53,4.4
4.698657989501953,-3.64,4.0,-1.08,5.51
4.708106994628906,-3.59,4.83,-0.83,6.07
4.718727111816406,-3.53,5.27,-0.21,6.34
4.728859186172485,-4.07,5.22,-0.38,6.63
4.766749143600464,-5.21,5.06,-1.32,7.38
4.767218112945557,-6.57,5.0,-2.64,8.66
4.767998218536377,-8.01,5.08,-3.68,10.17
4.768432140350342,-9.17,4.78,-4.03,11.09
4.777886152267456,-9.69,3.96,-3.95,11.18
4.788847208023071,-9.94,2.95,-3.77,11.03
4.798552989959717,-10.17,1.7,-3.19,10.79
4.807999134063721,-9.95,0.29,-2.41,10.24
4.818663120269775,-10.19,-0.85,-1.98,10.41
4.828798294067383,-10.41,-1.56,-2.31,10.77
4.867308139801025,-10.3,-1.87,-2.66,10.8
4.868080139160156,-10.28,-1.85,-2.96,10.85
4.868504047393799,-10.23,-1.71,-3.16,10.84
4.868926048278809,-8.9,2.22,-3.3,9.74
4.877816200256348,-4.33,8.7,-3.74,10.41
4.888602256774902,-4.15,1.82,-3.8,5.91
4.898360252380371,4.51,-1.15,-1.12,4.78
4.907833099365234,11.12,-0.98,10.08,15.04
4.9184911251068115,5.39,0.94,5.93,8.06
4.928629159927368,-3.91,2.26,-1.77,4.85
4.937806129455566,-8.76,2.0,-2.07,9.22
4.966767311096191,-7.08,3.13,-0.78,7.78
4.967511177062988,-5.61,6.3,-0.79,8.47
4.967936992645264,-6.21,7.35,-1.78,9.78
4.977508068084717,-6.52,6.64,-2.67,9.68
4.988455295562744,-8.35,2.07,-3.43,9.26
4.998162269592285,-6.89,0.13,-1.67,7.09
5.007518291473389,-4.98,-1.11,1.81,5.41
5.0182952880859375,-4.56,-2.89,0.96,5.48
5.028417110443115,-4.03,-2.44,-0.82,4.78
5.037757158279419,-3.24,-1.23,-0.98,3.6
5.067580223083496,-2.56,0.0,-0.96,2.73
5.068004131317139,-2.0,0.67,-1.3,2.47
5.068427085876465,-1.24,0.64,-1.59,2.11
5.077500104904175,-0.26,0.67,-1.96,2.08
5.088032245635986,0.56,0.74,-1.72,1.95
5.098132133483887,0.79,0.37,-0.84,1.21
5.1075661182403564,0.61,-0.09,-0.04,0.61
5.118187189102173,0.21,-0.2,0.36,0.46
5.1283183097839355,-0.46,-0.23,0.25,0.57
5.137453079223633,-1.01,-0.12,-0.28,1.05
5.167632102966309,-1.02,0.02,-0.74,1.26
5.168062210083008,-0.79,0.13,-0.76,1.1
5.168483257293701,-0.56,0.33,-0.62,0.89
5.177363157272339,-0.19,0.21,-0.25,0.37
5.187894105911255,-0.01,-0.07,-0.18,0.19
5.197988986968994,-0.29,-0.15,-0.39,0.5
5.207340240478516,-0.73,0.09,-0.53,0.9
5.217922210693359,-0.81,0.21,-0.53,0.99
5.228165149688721,-0.66,0.04,-0.62,0.9
5.237389087677002,-0.17,-0.04,-0.88,0.89
5.268126010894775,0.48,0.06,-0.9,1.02
5.268555164337158,0.92,0.07,-0.76,1.19
5.268980979919434,0.86,-0.1,-0.24,0.89
5.277210235595703,0.58,-0.11,0.21,0.62
5.287772178649902,0.49,0.03,0.34,0.59
5.297758102416992,0.43,0.06,0.37,0.57
5.30725622177124,0.04,-0.03,0.28,0.28
5.3178391456604,-0.4,-0.05,0.12,0.42
5.328159332275391,-0.59,-0.03,0.18,0.61
5.3372602462768555,-0.43,0.03,0.07,0.43
5.367562294006348,-0.3,0.09,-0.21,0.37
5.367992162704468,-0.23,0.19,-0.25,0.38
5.368418216705322,-0.16,0.14,-0.12,0.24
5.3771281242370605,-0.06,0.15,-0.25,0.29
5.387659072875977,-0.16,0.3,-0.44,0.55
5.397684097290039,-0.15,0.27,-0.33,0.45
5.407173156738281,0.0,0.16,-0.42,0.44
5.417771100997925,0.58,0.02,-0.28,0.64
5.427957057952881,1.75,0.03,0.37,1.78
5.437188148498535,3.16,0.24,0.39,3.19
5.468437194824219,3.95,0.28,0.1,3.96
5.468876123428345,4.47,0.31,0.14,4.48
5.469309329986572,4.66,0.47,-0.08,4.68
5.4769392013549805,4.68,0.65,0.46,4.74
5.487497329711914,4.54,1.1,-0.09,4.67
5.497463226318359,4.56,1.19,-0.25,4.71
5.506996154785156,4.81,1.5,-0.78,5.09
5.517728328704834,4.71,1.92,-0.51,5.11
5.527754306793213,3.87,3.04,-0.53,4.94
5.536985158920288,2.65,5.84,-1.24,6.53
5.568531036376953,2.18,6.69,0.26,7.04
5.568941116333008,2.18,5.62,0.92,6.09
5.5693371295928955,3.44,5.47,0.12,6.46
5.576758146286011,4.78,5.71,0.14,7.44
5.587323188781738,6.0,6.28,-0.32,8.69
5.597407102584839,7.32,7.2,-0.87,10.3
5.606710195541382,8.13,6.98,-1.24,10.78
5.617439270019531,8.47,6.34,-1.14,10.64
5.6275951862335205,8.31,5.99,-1.12,10.3
5.636736154556274,6.96,6.17,-0.85,9.33
5.668804168701172,5.58,7.05,-0.31,8.99
5.669229984283447,4.38,8.45,-1.04,9.57
5.669647216796875,2.99,9.19,-2.21,9.91
5.676621198654175,0.52,8.48,-3.14,9.05
5.687207221984863,-2.45,8.19,-3.77,9.34
5.697179317474365,0.34,7.47,-5.5,9.28
5.706542015075684,5.38,6.21,-2.35,8.54
5.717294216156006,9.45,2.08,-0.58,9.69
5.727652072906494,8.24,-2.54,0.45,8.63
5.736462116241455,-4.22,-2.95,-0.09,5.14
5.769253253936768,-4.78,-1.73,-4.32,6.67
5.769683122634888,4.39,0.08,-3.29,5.48
5.770108222961426,10.7,-1.1,-1.1,10.81
5.776419162750244,13.1,-2.45,0.2,13.32
5.787067174911499,12.32,-3.22,1.72,12.84
5.796993255615234,9.96,-3.46,3.12,10.99
5.806343078613281,7.77,-4.0,3.67,9.47
5.817185163497925,6.69,-4.57,3.49,8.82
5.827369213104248,6.91,-4.28,3.0,8.66
5.836494207382202,7.02,-3.69,2.12,8.2
5.869854211807251,6.01,-3.39,1.07,6.98
5.870284080505371,4.76,-3.06,0.25,5.66
5.870707035064697,3.95,-2.66,-0.08,4.76
5.876280307769775,3.26,-2.33,0.04,4.0
5.886837005615234,2.74,-2.11,0.25,3.46
5.896831035614014,2.29,-1.85,0.56,2.99
5.906370162963867,1.82,-1.48,0.77,2.46
5.916980266571045,1.26,-0.9,0.58,1.65
5.927175998687744,0.73,-0.16,0.03,0.74
5.936336994171143,0.09,0.71,-0.76,1.04
5.969635009765625,-1.31,2.05,-1.74,2.99
5.970064163208008,-3.21,3.01,-2.17,4.9
5.970486164093018,-4.01,3.48,-1.75,5.59
5.976153135299683,-3.69,4.11,-1.15,5.64
5.986710071563721,-3.1,4.73,-0.63,5.69
5.996689319610596,-3.27,5.44,-0.81,6.39
6.0065131187438965,-4.21,5.54,-1.69,7.16
6.016993045806885,-5.67,5.12,-2.97,8.19
6.027040004730225,-7.32,4.92,-4.23,9.78
6.036239147186279,-8.87,4.77,-4.99,11.23
6.0698323249816895,-10.01,4.53,-4.98,12.06
6.07026219367981,-9.56,5.37,-4.71,11.93
6.070696115493774,-11.27,0.84,-3.64,11.87
6.076035022735596,-12.58,0.06,-3.14,12.96
6.086513042449951,-11.83,-0.24,-2.42,12.07
6.09660530090332,-10.29,-1.21,-1.6,10.48
6.106317043304443,-8.65,-0.47,-0.65,8.68
6.116641998291016,-7.87,0.62,-0.34,7.9
6.126992225646973,-7.68,1.07,-0.44,7.76
6.1360931396484375,-7.25,1.49,-0.07,7.4
6.1701061725616455,-6.14,2.36,1.14,6.67
6.170536041259766,-3.87,3.77,1.74,5.67
6.170957088470459,1.79,3.47,2.94,4.88
6.175918102264404,4.05,-0.33,6.32,7.51
6.186474323272705,-0.85,-1.07,1.66,2.15
6.196449279785156,-6.74,1.37,-2.39,7.28
6.205876111984253,-9.11,4.56,-2.13,10.4
6.216598033905029,-7.7,8.54,-1.67,11.61
6.2267069816589355,-7.33,7.19,-2.07,10.47
6.235907077789307,-7.61,2.19,-4.05,8.89
6.27107310295105,-6.61,2.23,-3.06,7.61
6.271500110626221,-5.32,0.87,0.52,5.41
6.271917104721069,-5.02,-1.8,1.49,5.53
6.275750160217285,-5.43,-1.51,0.3,5.64
6.286343097686768,-4.98,-0.35,-0.6,5.02
6.296285152435303,-3.59,0.17,-0.29,3.6
6.305689096450806,-1.95,-0.14,-0.21,1.96
6.316484212875366,-0.44,-0.34,-0.15,0.57
6.326508045196533,0.52,-0.22,-0.14,0.58
6.335768222808838,0.85,0.04,-0.33,0.91
6.369868278503418,0.81,0.14,-0.3,0.87
6.37029504776001,0.78,0.06,-0.32,0.84
6.370715141296387,0.68,0.09,-0.61,0.91
6.375655174255371,0.2,0.08,-1.08,1.1
6.3861870765686035,-0.2,-0.02,-1.68,1.69
6.396140098571777,-0.5,-0.07,-1.96,2.02
6.405429124832153,-0.83,-0.06,-1.7,1.89
6.416309118270874,-1.2,0.06,-1.34,1.79
6.426401138305664,-1.08,0.08,-0.87,1.38
6.435620307922363,-0.41,-0.05,-0.39,0.56
6.471329212188721,0.1,-0.13,0.15,0.22
6.471758127212524,0.26,-0.07,0.65,0.7
6.47216010093689,0.2,0.14,0.65,0.69
6.47547721862793,0.27,0.29,0.02,0.39
6.485996246337891,0.54,0.16,-0.83,1.0
6.49594521522522,0.6,-0.06,-1.05,1.21
6.505434036254883,0.65,-0.12,-0.9,1.11
6.516197204589844,0.43,-0.02,-0.78,0.89
6.5262792110443115,0.16,0.22,-0.14,0.3
6.535428047180176,0.29,0.25,0.7,0.79
6.570374011993408,0.56,0.23,0.7,0.92
6.570784091949463,0.82,0.17,0.58,1.01
6.571210145950317,0.87,0.12,0.55,1.03
6.575329303741455,0.78,0.15,0.34,0.86
6.585813999176025,0.52,0.09,-0.07,0.53
6.595843315124512,0.0,0.05,-0.38,0.38
6.605257034301758,-0.43,0.04,-0.49,0.65
6.616063117980957,-0.62,0.24,-0.67,0.94
6.626113176345825,-0.71,0.38,-0.76,1.1
6.635311126708984,-0.63,0.46,-0.92,1.2
6.670196056365967,-0.28,0.4,-0.69,0.84
6.670627117156982,0.25,0.24,-0.13,0.37
6.671048164367676,0.74,0.13,0.31,0.81
6.675070285797119,1.22,0.24,0.14,1.25
6.68569016456604,1.7,0.62,0.19,1.81
6.695743083953857,1.87,1.11,-0.05,2.17
6.70515513420105,2.4,1.84,-0.24,3.03
6.71582818031311,2.66,2.47,0.72,3.7
6.7258501052856445,2.55,2.22,0.39,3.4
6.7350993156433105,2.84,2.22,0.72,3.67
6.770786285400391,3.33,2.06,0.56,3.95
6.771209239959717,3.6,2.09,0.0,4.16
6.771627187728882,3.77,2.43,-0.1,4.48
6.7749412059783936,3.85,2.93,-0.56,4.87
6.78551721572876,3.98,3.3,-0.52,5.19
6.795685291290283,4.43,3.43,-0.63,5.63
6.805042266845703,5.12,3.62,-0.89,6.33
6.8157172203063965,6.13,3.99,-1.05,7.38
6.825801134109497,7.39,4.65,-0.98,8.78
6.8350043296813965,8.16,5.3,-1.0,9.78
6.870566129684448,8.21,5.99,-1.19,10.23
6.870992183685303,7.92,6.58,-0.58,10.31
6.871410131454468,7.26,6.8,-0.2,9.94
6.874875068664551,6.39,7.17,-0.19,9.6
6.885369300842285,5.29,7.52,0.2,9.19
6.895417213439941,3.37,7.95,-0.19,8.63
6.904827117919922,1.75,8.41,-2.17,8.85
6.915557146072388,0.29,8.24,-2.7,8.67
6.925570011138916,-0.54,9.06,-4.33,10.05
6.93486213684082,3.17,8.41,-4.83,10.2
6.971319198608398,6.58,7.31,-2.0,10.03
6.971748113632202,9.63,4.09,-0.85,10.49
6.972175121307373,10.1,-0.69,-0.07,10.12
6.974603176116943,-0.98,-1.38,0.72,1.83
6.985195159912109,-5.58,-0.69,-4.27,7.06
6.9952661991119385,2.67,1.1,-4.51,5.35
7.0046892166137695,9.64,0.19,-1.51,9.75
7.01544713973999,12.77,-0.71,0.13,12.79
7.025366306304932,12.78,-1.39,1.47,12.93
7.034778118133545,10.5,-1.91,2.47,10.95
7.071015119552612,8.06,-3.19,3.25,9.25
7.071444034576416,6.54,-3.94,3.33,8.32
7.07186222076416,6.23,-3.31,2.75,7.57
7.07439112663269,6.42,-2.38,1.91,7.1
7.08508825302124,6.28,-1.93,1.36,6.7
7.095084190368652,5.75,-1.65,1.37,6.13
7.104544162750244,4.98,-1.2,1.54,5.34
7.1153082847595215,4.08,-0.71,1.63,4.45
7.125192165374756,3.1,-0.38,1.83,3.61
7.134624004364014,2.21,-0.22,2.07,3.03
7.170729160308838,1.45,0.28,1.71,2.25
7.17116117477417,0.64,0.77,0.67,1.2
7.1715922355651855,-0.5,1.28,-0.42,1.43
7.174249172210693,-1.99,1.94,-0.91,2.92
7.18495512008667,-3.42,2.26,-0.51,4.13
7.194921016693115,-3.92,2.38,0.29,4.59
7.204331159591675,-3.56,2.47,0.96,4.43
7.215114116668701,-2.99,2.95,1.3,4.39
7.225157260894775,-3.0,3.86,0.92,4.97
7.234373092651367,-4.17,4.68,-0.1,6.26
7.270942211151123,-5.88,5.26,-1.8,8.09
7.2713751792907715,-7.85,5.69,-3.31,10.24
7.271797180175781,-9.63,5.36,-4.04,11.73
7.2743401527404785,-10.57,4.25,-4.01,12.07
7.2848100662231445,-10.81,2.57,-3.85,11.75
7.294857978820801,-10.76,2.95,-3.67,11.74
7.304261207580566,-10.05,4.01,-3.67,11.42
7.315029144287109,-12.25,-1.11,-2.91,12.63
7.325213193893433,-12.62,-0.29,-2.69,12.9
7.334289073944092,-12.29,-0.13,-2.45,12.53
7.37136697769165,-11.56,-0.03,-2.96,11.93
7.37179708480835,-10.49,-0.16,-3.29,10.99
7.372226238250732,-9.47,-0.31,-3.41,10.07
7.374326229095459,-9.6,0.01,-3.16,10.1
7.384625196456909,-9.29,2.6,-4.91,10.82
7.394643306732178,-1.45,5.43,-3.83,6.8
7.404138088226318,4.54,4.64,2.75,7.05
7.414848327636719,2.14,3.13,1.63,4.12
7.453614234924316,-3.38,4.09,-0.84,5.37
7.454363107681274,-6.84,4.7,-0.79,8.33
7.45478630065918,-7.88,3.33,-1.25,8.64
7.455209255218506,-6.58,0.97,-0.52,6.67
7.464055061340332,-6.44,0.51,-0.8,6.5
7.474367141723633,-7.5,-1.29,-2.51,8.01
7.484677314758301,-5.7,0.54,-1.47,5.91
7.494554042816162,-5.02,0.09,0.14,5.02
7.504021167755127,-4.33,-0.93,-0.07,4.42
7.514790058135986,-2.74,-0.17,-0.05,2.74
7.556694984436035,-1.27,0.37,0.92,1.61
7.557126045227051,-0.57,0.03,0.7,0.9
7.557863235473633,-0.75,-0.25,-0.07,0.79
7.558284282684326,-0.99,-0.17,-0.59,1.16
7.563862323760986,-1.13,-0.03,-0.93,1.46
7.573729991912842,-1.08,0.1,-1.15,1.58
7.584447145462036,-1.16,0.27,-1.22,1.7
7.594443321228027,-1.06,0.34,-1.14,1.59
7.603830099105835,-0.84,0.18,-0.98,1.3
7.614651203155518,-0.7,0.15,-1.15,1.35
7.655208110809326,-0.68,0.09,-1.27,1.44
7.655642986297607,-0.56,0.0,-1.14,1.27
7.656074047088623,-0.12,-0.12,-0.72,0.73
7.656504154205322,0.33,-0.06,-0.1,0.35
7.663700103759766,0.65,0.07,0.29,0.71
7.673694133758545,0.63,0.12,-0.03,0.64
7.6842591762542725,0.22,0.26,-0.95,1.0
7.694387197494507,-0.08,0.16,-1.2,1.21
7.703782081604004,-0.13,-0.02,-0.26,0.29
7.714568138122559,-0.25,0.16,-0.16,0.33
7.755787134170532,-0.05,0.33,-0.79,0.85
7.7562291622161865,0.42,0.22,-0.58,0.74
7.7566633224487305,0.79,0.16,-0.56,0.98
7.757094144821167,0.64,0.15,-0.89,1.1
7.763576030731201,0.22,0.14,-0.78,0.82
7.773525238037109,0.15,0.1,-0.38,0.42
7.784178256988525,0.08,0.09,-0.14,0.18
7.794166088104248,-0.03,0.04,-0.03,0.05
7.803713321685791,-0.07,-0.04,0.08,0.11
7.814416170120239,-0.25,-0.1,0.02,0.27
7.824342250823975,-0.28,-0.23,0.04,0.36
7.855415105819702,0.14,-0.09,-0.24,0.29
7.855839252471924,0.11,0.15,-0.35,0.39
7.856258153915405,-0.2,0.35,-0.32,0.51
7.863386154174805,-0.17,0.63,-0.22,0.68
7.873425006866455,-0.03,0.72,0.09,0.72
7.884051322937012,0.11,0.72,0.24,0.76
7.894021034240723,0.45,0.71,0.33,0.9
7.903452157974243,0.95,0.52,0.35,1.13
7.9142632484436035,1.53,0.32,0.29,1.58
7.924182176589966,2.09,0.37,0.22,2.13
7.955358028411865,2.66,0.42,0.23,2.7
7.955778121948242,3.32,0.8,0.14,3.41
7.956197261810303,3.23,1.37,-0.07,3.5
7.963182210922241,3.1,1.71,-0.1,3.54
7.973262310028076,3.24,1.91,0.2,3.76
7.983962059020996,3.29,2.13,0.07,3.91
7.99392032623291,3.35,2.46,-0.14,4.15
8.003345012664795,3.76,2.67,-0.13,4.61
8.014093160629272,3.76,2.92,-0.41,4.77
8.02389907836914,3.37,3.14,-0.27,4.61
8.055204153060913,3.31,3.11,-0.12,4.54
8.055633068084717,3.54,3.05,-0.16,4.67
8.056055068969727,4.08,3.21,-0.18,5.19
8.063040256500244,5.03,3.73,-0.3,6.26
8.073028087615967,5.84,4.37,-0.71,7.32
8.083561182022095,6.61,5.07,-0.92,8.38
8.09348726272583,7.43,5.49,-0.62,9.25
8.103223323822021,7.68,5.55,-0.59,9.49
8.113928318023682,7.46,5.63,-0.42,9.35
8.123807191848755,6.75,5.84,-0.22,8.92
8.155346155166626,5.61,6.31,0.01,8.44
8.155774116516113,4.32,6.89,-0.08,8.13
8.156195163726807,2.81,7.72,-0.99,8.27
8.162944316864014,0.59,7.67,-1.44,7.82
8.17286729812622,-1.3,7.6,-1.65,7.88
8.183388233184814,1.52,7.78,-3.37,8.61
8.193482160568237,5.24,6.84,-2.29,8.91
8.202898025512695,8.07,5.31,-1.5,9.77
8.213731288909912,10.31,1.94,-0.69,10.51
8.223815202713013,7.49,-2.45,0.77,7.91
8.256978034973145,-3.61,-1.44,-1.17,4.05
8.257408142089844,-3.17,1.72,-6.04,7.03
8.257832050323486,4.66,2.12,-3.9,6.43
8.262754201889038,9.66,0.69,-1.14,9.75
8.272782325744629,11.82,-0.05,0.41,11.82
8.283403158187866,11.66,-0.71,1.57,11.78
8.293334007263184,9.95,-1.28,2.4,10.31
8.302762031555176,8.17,-1.75,2.75,8.79
8.313749313354492,6.76,-1.69,2.58,7.43
8.323533058166504,5.93,-1.07,2.3,6.44
8.362115144729614,5.1,-0.61,2.09,5.54
8.362895011901855,4.26,-0.83,1.66,4.64
8.363322257995605,3.77,-1.28,1.42,4.22
8.363755226135254,3.69,-1.63,1.57,4.32
8.372719287872314,3.37,-1.68,1.71,4.13
8.383378028869629,2.67,-1.47,1.74,3.5
8.393224239349365,1.89,-1.28,1.53,2.74
8.402703285217285,1.2,-0.89,1.05,1.82
8.413462162017822,0.59,-0.17,0.61,0.86
8.42345905303955,0.27,0.53,0.45,0.74
8.461843013763428,-0.31,1.51,0.3,1.57
8.462590217590332,-2.06,2.4,0.0,3.16
8.463012218475342,-4.13,2.67,-0.57,4.95
8.463431119918823,-5.2,3.06,-1.14,6.14
8.472616195678711,-5.03,3.96,-0.9,6.46
8.483189105987549,-4.89,4.72,-0.49,6.81
8.4929780960083,-5.53,5.17,-1.01,7.63
8.502609252929688,-6.35,5.25,-2.64,8.65
8.513244152069092,-7.41,5.19,-4.28,10.0
8.523328304290771,-8.71,4.57,-4.84,10.96
8.562934160232544,-9.87,3.43,-4.39,11.33
8.563363075256348,-9.79,5.66,-3.91,11.96
8.563785076141357,-9.8,1.99,-3.5,10.59
8.56420612335205,-13.45,-1.89,-3.24,13.96
8.572331190109253,-12.26,-0.7,-3.09,12.66
8.583001136779785,-11.16,-0.85,-3.01,11.59
8.592998027801514,-10.66,-0.59,-3.48,11.22
8.602362155914307,-10.05,-0.57,-3.96,10.81
8.613103151321411,-9.92,-0.45,-4.15,10.76
8.62311315536499,-10.86,0.7,-3.74,11.5
8.66175127029419,-9.41,3.42,-5.87,11.6
8.662544250488281,-1.15,4.59,-3.09,5.65
8.662970066070557,2.6,2.43,2.7,4.46
8.66339111328125,-1.11,3.9,1.24,4.24
8.67215633392334,-7.48,7.67,-0.32,10.71
8.6827871799469,-11.0,4.31,-1.06,11.86
8.693095207214355,-8.64,1.46,-2.2,9.03
8.702232122421265,-7.28,1.11,-3.29,8.06
8.712953090667725,-7.6,-0.94,-3.56,8.44
8.72300100326538,-5.18,1.56,-1.51,5.61
8.76163911819458,-3.76,0.05,0.4,3.78
8.7623872756958,-3.54,-2.23,-0.17,4.18
8.762814044952393,-2.93,-1.75,-1.28,3.64
8.763236045837402,-1.59,-0.53,-0.67,1.8
8.772025108337402,-0.29,0.39,0.35,0.59
8.782652139663696,0.44,0.74,0.5,0.99
8.793071269989014,0.27,0.37,-0.26,0.52
8.802162170410156,-0.32,-0.08,-0.98,1.03
8.812860012054443,-0.82,0.04,-1.32,1.55
8.822924137115479,-1.21,0.33,-0.82,1.49
8.862394332885742,-1.22,0.43,-0.5,1.38
8.862833023071289,-1.01,0.31,-0.63,1.23
8.86325716972351,-0.88,0.17,-0.9,1.27
8.86367917060852,-0.81,0.05,-1.16,1.41
8.87194299697876,-0.82,0.02,-1.19,1.44
8.88258409500122,-0.54,0.01,-0.78,0.94
8.892778158187866,-0.11,-0.01,-0.13,0.17
8.901977062225342,0.14,-0.02,0.11,0.17
8.912734031677246,0.17,0.08,-0.02,0.18
8.922752141952515,-0.24,0.07,-0.23,0.33
8.962356090545654,-0.84,0.09,-0.38,0.92
8.962785243988037,-1.4,-0.05,-0.05,1.4
8.963205099105835,-1.59,-0.02,0.06,1.59
8.96362829208374,-1.05,-0.04,-0.14,1.06
8.971792221069336,-0.29,0.03,-0.32,0.43
8.982469081878662,0.16,0.13,-0.51,0.55
8.992588996887207,0.3,0.17,-0.43,0.55
9.001804113388062,0.45,0.17,-0.34,0.58
9.01250410079956,0.49,0.15,-0.22,0.55
9.022544145584106,0.41,0.1,-0.01,0.42
9.061730146408081,0.33,-0.06,0.06,0.34
9.06235122680664,0.36,-0.08,-0.04,0.37
9.062758207321167,0.54,0.0,-0.04,0.54
9.063158988952637,0.74,0.12,-0.11,0.75
9.071614265441895,0.82,0.18,-0.16,0.85
9.082281112670898,0.72,0.17,-0.14,0.75
9.092185020446777,0.87,0.29,-0.33,0.97
9.101640224456787,1.08,0.49,-0.7,1.37
9.11253809928894,0.85,0.56,-0.61,1.18
9.122417211532593,0.61,0.42,-0.23,0.77
9.163828134536743,0.75,0.32,0.03,0.81
9.164261102676392,1.19,0.48,0.16,1.29
9.164680004119873,1.75,0.76,0.2,1.91
9.165104150772095,2.06,1.01,0.24,2.3
9.171507120132446,2.57,1.21,-0.02,2.84
9.182042121887207,2.78,1.53,-0.46,3.2
9.19191598892212,3.0,2.31,-0.63,3.83
9.201511144638062,3.66,2.92,0.52,4.71
9.212259292602539,3.87,2.71,0.93,4.81
9.222325325012207,4.3,2.79,0.66,5.16
9.26563024520874,4.24,3.16,0.58,5.31
9.266059160232544,4.13,3.42,0.19,5.36
9.266481161117554,4.11,3.46,0.15,5.37
9.266898155212402,4.21,3.57,0.0,5.51
9.271326065063477,4.81,3.98,-0.1,6.24
9.281897068023682,5.82,4.67,-0.5,7.47
9.291935205459595,6.85,5.45,-0.63,8.77
9.301359176635742,7.69,6.17,-0.3,9.86
9.312101125717163,7.86,6.47,-0.39,10.18
9.322058200836182,7.59,6.48,-0.55,9.99
9.365869998931885,7.0,6.1,0.0,9.28
9.366295099258423,5.65,5.67,-0.11,8.0
9.366737127304077,3.88,5.95,0.31,7.11
9.367161273956299,2.27,6.76,0.12,7.13
9.371179103851318,1.29,7.07,-1.99,7.45
9.381776332855225,-0.84,8.04,-3.26,8.71
9.39163613319397,-1.01,7.99,-4.88,9.41
9.40123701095581,2.85,7.07,-3.9,8.56
9.411824226379395,6.36,5.35,-1.52,8.44
9.421839237213135,9.18,1.61,-0.7,9.34
9.465519189834595,8.12,-2.57,0.4,8.52
9.465963125228882,-2.22,-2.38,0.5,3.29
9.46638298034668,-6.06,-1.48,-4.2,7.52
9.46680498123169,0.59,0.61,-4.83,4.9
9.47114109992981,7.52,-0.43,-1.8,7.74
9.481685161590576,10.82,-1.44,0.09,10.91
9.491619110107422,11.24,-2.08,1.26,11.5
9.501096248626709,9.66,-2.33,2.57,10.26
9.511770248413086,7.47,-3.02,3.6,8.82
9.521812200546265,6.01,-4.16,3.69,8.18
9.566311120986938,5.88,-4.2,3.07,7.85
9.566737174987793,6.48,-3.32,2.17,7.59
9.567155122756958,6.84,-2.29,1.57,7.38
9.567572116851807,6.54,-1.41,1.56,6.86
9.57089900970459,5.63,-1.01,1.71,5.97
9.5814790725708,4.36,-0.9,1.58,4.72
9.591485977172852,3.04,-0.71,1.14,3.32
9.60094928741455,1.95,-0.37,0.62,2.07
9.611627101898193,1.09,0.02,0.38,1.15
9.621689319610596,0.11,0.47,0.23,0.53
9.666737079620361,-0.92,0.68,-0.12,1.15
9.667174100875854,-1.94,0.71,-0.36,2.09
9.667595148086548,-3.03,1.0,-0.26,3.2
9.668015003204346,-3.84,1.37,0.02,4.07
9.670726299285889,-3.58,1.49,0.49,3.9
9.681272983551025,-2.29,1.93,1.15,3.2
9.691302299499512,-1.21,2.57,1.39,3.16
9.700798988342285,-1.11,3.12,0.93,3.43
9.711552143096924,-1.62,3.5,0.01,3.85
9.721452236175537,-2.86,3.88,-1.18,4.96
9.765535116195679,-4.71,4.24,-2.36,6.76
9.765968322753906,-6.81,4.55,-2.81,8.65
9.766390323638916,-8.36,4.24,-3.05,9.85
9.766815185546875,-9.39,3.27,-3.16,10.43
9.770528316497803,-9.91,2.21,-3.02,10.59
9.781119108200073,-9.71,2.98,-2.88,10.55
9.791138172149658,-8.01,5.72,-2.58,10.17
9.800652980804443,-9.97,0.19,-1.76,10.12
9.811317205429077,-11.18,-0.9,-1.9,11.37
9.821348190307617,-10.62,-0.54,-1.5,10.73
9.865772247314453,-9.47,-0.83,-1.39,9.6
9.866218090057373,-8.02,-0.62,-1.2,8.13
9.866640090942383,-8.37,-0.13,-0.94,8.42
9.867063045501709,-10.14,2.21,-2.8,10.74
9.870412111282349,-4.6,5.49,-5.09,8.78
9.881007194519043,3.05,5.31,0.55,6.14
9.891034126281738,2.85,5.23,2.29,6.38
9.900545120239258,-3.86,7.51,-0.42,8.45
9.911163330078125,-9.15,3.46,-0.83,9.81
9.921159267425537,-8.48,-0.65,-2.25,8.79
9.965676307678223,-5.89,-0.58,-2.46,6.4
9.96610403060913,-6.67,-1.53,-2.54,7.29
9.966525077819824,-7.27,-0.12,-2.6,7.72
9.966942310333252,-6.7,1.42,-1.1,6.93
9.970270156860352,-6.14,0.03,-0.09,6.14
9.980887174606323,-5.05,-0.6,-0.4,5.1
9.99092721939087,-3.02,-0.58,-0.39,3.09
10.000344276428223,-1.48,-0.43,0.38,1.58
10.011090278625488,-0.73,0.24,1.0,1.26
10.021183013916016,-0.27,0.59,0.94,1.14
10.066599130630493,-0.32,0.22,0.42,0.57
10.067034244537354,-0.17,-0.23,0.09,0.29
10.067459106445312,0.01,-0.26,-0.5,0.56
10.067883014678955,-0.06,-0.06,-1.06,1.06
10.070141315460205,-0.47,0.17,-1.19,1.29
10.080671310424805,-0.95,0.23,-1.14,1.5
10.090650081634521,-1.08,0.26,-1.21,1.64
10.100184202194214,-0.79,0.22,-1.22,1.47
10.111093997955322,-0.63,0.11,-1.23,1.38
10.120869159698486,-0.69,0.09,-0.94,1.16
10.16653823852539,-0.66,0.01,-0.02,0.66
10.166971206665039,-0.39,-0.03,0.33,0.51
10.16739821434021,0.1,0.05,0.12,0.16
10.167822122573853,0.34,0.23,-0.24,0.47
10.169990062713623,0.07,0.2,-0.54,0.58
10.180619239807129,-0.27,0.08,-0.74,0.79
10.190553188323975,-0.25,0.01,-0.69,0.73
10.199972152709961,0.01,0.04,-0.68,0.68
10.21096920967102,0.1,0.07,-0.46,0.47
10.220725059509277,-0.22,0.07,-0.19,0.29
10.265976190567017,-0.64,0.08,0.21,0.67
10.266410112380981,-0.79,0.09,0.07,0.79
10.266828060150146,-0.65,0.06,-0.16,0.67
10.26724624633789,-0.32,0.02,-0.06,0.32
10.269918203353882,0.09,-0.03,-0.04,0.1
10.280393123626709,0.31,-0.02,-0.1,0.32
10.290445327758789,0.2,0.01,-0.15,0.25
10.29990816116333,0.12,0.06,-0.5,0.51
10.310734272003174,0.18,0.06,-0.74,0.76
10.320650100708008,0.02,-0.18,-0.7,0.72
10.366209030151367,-0.31,-0.16,-0.75,0.82
10.3666353225708,-0.41,-0.02,-0.31,0.51
10.36705207824707,-0.18,0.13,-0.42,0.47
10.36747121810913,0.15,0.22,-0.15,0.3
10.369677066802979,0.63,0.41,-0.16,0.76
10.380284309387207,0.9,0.49,-0.31,1.07
10.390389204025269,1.02,0.41,-0.05,1.1
10.399761199951172,1.08,0.38,-0.12,1.15
10.410744190216064,1.36,0.51,-0.6,1.57
10.420409202575684,1.86,0.6,-0.8,2.11
10.466448307037354,1.99,0.64,-0.89,2.27
10.466878175735474,2.18,0.67,-0.78,2.41
10.467303276062012,2.64,0.74,-0.55,2.79
10.46772813796997,3.41,0.67,-0.21,3.48
10.469560146331787,4.06,0.84,-0.28,4.15
10.480154037475586,4.41,1.29,-0.51,4.62
10.490167140960693,4.51,1.85,-0.57,4.9
10.499627113342285,5.02,3.5,-1.2,6.23
10.510467052459717,5.33,4.39,0.3,6.91
10.520376205444336,5.18,4.05,0.44,6.59
10.566814184188843,5.99,4.44,0.04,7.45
10.567243099212646,6.12,4.99,0.32,7.9
10.567659139633179,6.16,5.0,0.45,7.94
10.568121194839478,6.23,5.03,0.63,8.03
10.569362163543701,6.7,5.35,0.27,8.57
10.579977989196777,7.29,5.49,0.15,9.12
10.590013980865479,7.45,5.6,-0.11,9.32
10.599500179290771,7.28,5.88,-0.3,9.36
10.61016321182251,6.64,6.18,-0.52,9.08
10.620166301727295,5.8,6.21,-0.67,8.52
10.666965007781982,4.44,6.78,-0.85,8.14
10.667404174804688,3.19,7.54,-0.65,8.21
10.667823314666748,2.5,7.11,-0.48,7.55
10.668241024017334,0.03,8.17,-1.13,8.24
10.66939401626587,0.29,8.04,-4.1,9.02
10.679901123046875,3.44,6.69,-2.29,7.86
10.689860105514526,6.15,4.43,0.07,7.57
10.699371099472046,9.47,0.45,0.54,9.49
10.71003532409668,5.48,-2.44,1.19,6.11
10.720018148422241,-3.9,-1.98,-1.37,4.58
10.767714023590088,1.61,0.51,-4.18,4.5
10.768155097961426,9.27,1.45,-1.61,9.51
10.768607139587402,12.93,0.39,-0.18,12.93
10.769373178482056,12.8,-1.17,0.52,12.86
10.76979398727417,9.62,-2.9,1.48,10.15
10.779614210128784,6.6,-3.78,1.98,7.85
10.78973913192749,5.36,-4.14,2.03,7.07
10.799159049987793,5.23,-4.05,1.82,6.86
10.809803009033203,5.22,-3.43,1.45,6.41
10.819977283477783,4.88,-2.86,1.01,5.74
10.86652421951294,4.19,-2.7,0.67,5.02
10.866950035095215,3.4,-2.62,0.59,4.33
10.867367267608643,2.82,-2.27,0.79,3.7
10.86778211593628,2.52,-2.05,1.14,3.44
10.868916988372803,2.13,-1.92,1.4,3.19
10.879412174224854,1.79,-1.45,1.26,2.62
10.88949203491211,1.08,-0.4,0.55,1.27
10.898963212966919,-0.25,0.63,-0.29,0.73
10.909687995910645,-1.74,1.14,-0.66,2.18
10.919554233551025,-2.57,1.57,-0.59,3.06
10.967563152313232,-2.54,2.43,-0.36,3.53
10.967993259429932,-2.36,3.69,-0.01,4.38
10.968741178512573,-2.74,4.48,-0.32,5.26
10.969179153442383,-3.73,4.45,-1.26,5.94
10.96959924697876,-4.83,4.07,-2.44,6.77
10.9792799949646,-6.17,4.22,-3.61,8.3
10.989338159561157,-7.77,4.49,-4.17,9.89
10.998692989349365,-9.35,4.55,-4.44,11.3
11.009302139282227,-10.38,3.71,-4.63,11.95
11.019426107406616,-10.63,2.01,-4.39,11.67
11.067164182662964,-10.25,0.43,-3.51,10.84
11.0675950050354,-9.41,-0.58,-2.84,9.84
11.06801700592041,-9.22,-0.86,-2.61,9.62
11.068761110305786,-9.59,-0.4,-2.59,9.94
11.069194316864014,-7.79,3.65,-3.02,9.11
11.07917833328247,-6.86,1.07,-2.38,7.33
11.08915114402771,-8.6,-0.36,-1.56,8.74
11.098653316497803,-7.95,0.31,-0.2,7.95
11.109209060668945,-6.43,0.76,1.32,6.6
11.119348049163818,-6.24,2.19,2.56,7.09
11.167899131774902,-3.89,2.55,0.95,4.74
11.168660163879395,0.66,1.64,3.12,3.58
11.16908311843872,-0.67,1.69,3.44,3.89
11.16950511932373,-5.7,6.64,-0.25,8.75
11.16992712020874,-10.33,9.55,-0.7,14.08
11.178900241851807,-11.15,5.02,-1.7,12.34
11.189014196395874,-8.43,2.5,-4.29,9.78
11.198691129684448,-8.25,1.22,-4.43,9.44
11.20918607711792,-6.75,0.7,-2.9,7.37
11.219250202178955,-5.02,-0.49,-1.25,5.19
11.26802921295166,-4.06,-1.15,-0.7,4.27
11.268784999847412,-3.36,-0.31,-1.22,3.58
11.269208192825317,-2.55,0.36,-0.38,2.6
11.26963210105896,-1.94,0.0,0.22,1.95
11.270051002502441,-1.13,-0.22,0.21,1.17
11.278796195983887,-0.53,-0.09,0.19,0.57
11.288872241973877,-0.19,0.1,0.38,0.43
11.298476219177246,-0.07,0.09,0.84,0.84
11.309030055999756,-0.61,-0.09,1.01,1.18
11.31913709640503,-1.1,-0.06,0.7,1.3
11.36781930923462,-0.94,0.06,-0.11,0.94
11.369129180908203,-0.09,0.09,-1.09,1.09
11.36955714225769,0.68,0.01,-1.99,2.1
11.369982242584229,1.01,-0.12,-2.2,2.42
11.370404243469238,0.94,-0.27,-1.89,2.12
11.382785320281982,0.52,-0.41,-1.71,1.83
11.38889217376709,-0.35,-0.29,-1.94,1.99
11.398260116577148,-1.13,-0.07,-1.56,1.92
11.408992290496826,-1.18,-0.01,-0.77,1.4
11.419012069702148,-0.5,-0.18,0.03,0.53
11.467742204666138,0.25,-0.14,0.26,0.38
11.468484163284302,0.56,0.12,0.15,0.59
11.4689040184021,0.69,0.13,-0.14,0.71
11.469322204589844,0.68,0.23,-0.63,0.95
11.469739198684692,0.17,0.45,-0.28,0.55
11.478934288024902,-0.57,0.46,0.34,0.8
11.488646984100342,-0.88,0.19,0.31,0.95
11.49812126159668,-0.66,0.11,0.0,0.66
11.508721113204956,-0.41,0.04,-0.2,0.45
11.518762111663818,-0.07,0.04,-0.26,0.27
11.568221092224121,0.27,0.1,-0.27,0.39
11.56883716583252,0.18,0.22,-0.39,0.48
11.569258213043213,0.09,0.33,-0.57,0.66
11.569676160812378,0.23,0.25,-0.76,0.83
11.570091247558594,0.35,0.12,-0.86,0.93
11.578834056854248,0.45,0.08,-0.75,0.87
11.58838701248169,0.69,-0.07,0.04,0.69
11.597851276397705,1.12,-0.12,0.31,1.16
11.608652114868164,1.19,0.06,0.42,1.26
11.61865520477295,1.24,0.36,0.55,1.4
11.666720151901245,1.26,0.73,0.21,1.47
11.66718316078186,0.74,0.92,0.19,1.19
11.667943000793457,0.62,0.96,0.0,1.14
11.668361186981201,1.08,0.89,-0.12,1.4
11.66877818107605,1.88,0.66,0.03,1.99
11.678628206253052,2.68,0.81,-0.11,2.8
11.688382148742676,3.36,1.16,-0.05,3.55
11.697803020477295,4.0,1.4,-0.5,4.26
11.70844030380249,4.61,1.65,-0.67,4.94
11.71851921081543,5.09,1.99,-0.86,5.53
11.727833271026611,5.43,2.98,-1.63,6.4
11.767089128494263,4.65,3.51,-0.66,5.86
11.767872333526611,4.41,3.38,-0.49,5.57
11.768294334411621,4.62,3.6,-0.36,5.86
11.768700122833252,4.69,3.6,-0.35,5.92
11.778432130813599,4.96,3.62,-0.27,6.14
11.788262128829956,5.46,3.96,-0.35,6.75
11.797706127166748,5.92,4.42,-0.19,7.39
11.808431148529053,6.56,5.01,0.34,8.26
11.818421125411987,6.62,5.12,0.43,8.37
11.827705144882202,6.44,5.15,0.47,8.25
11.867289066314697,6.28,5.1,0.15,8.09
11.867981195449829,5.67,5.28,-0.13,7.74
11.868407249450684,4.61,5.71,-0.67,7.36
11.868829250335693,3.55,6.33,-1.69,7.45
11.878405094146729,2.79,6.41,-1.5,7.14
11.888114213943481,0.67,7.37,-0.42,7.41
11.897667169570923,-2.05,8.47,-1.92,8.92
11.908214092254639,0.34,6.59,-3.96,7.69
11.918284177780151,4.38,6.27,-1.72,7.83
11.92747712135315,7.99,4.38,-0.44,9.12
11.9674072265625,10.3,0.06,0.37,10.3
11.968035221099854,3.83,-2.06,1.69,4.66
11.968457221984863,-4.32,-1.21,-1.33,4.67
11.968881130218506,-0.36,0.97,-4.54,4.65
11.977939128875732,6.51,0.96,-2.47,7.02
11.9879732131958,10.62,-0.4,-0.52,10.64
11.997534275054932,12.17,-1.24,0.6,12.24
12.008028984069824,11.19,-2.02,1.54,11.47
12.01817512512207,8.89,-2.62,2.14,9.51
12.027414321899414,6.76,-3.25,2.37,7.86
12.068082332611084,5.75,-3.48,2.18,7.06
12.068514108657837,5.65,-3.02,1.64,6.61
12.06893515586853,5.71,-2.62,1.07,6.37
12.069362163543701,5.31,-2.34,0.59,5.83
12.077722072601318,4.66,-2.02,0.36,5.09
12.087830066680908,3.98,-1.79,0.54,4.39
12.097277164459229,3.27,-1.67,1.06,3.82
12.107920169830322,2.55,-1.6,1.52,3.37
12.117973327636719,2.08,-1.52,1.58,3.02
12.127271175384521,1.77,-1.0,1.37,2.45
12.167837142944336,1.85,-0.33,1.14,2.19
12.168280124664307,1.53,0.52,0.75,1.78
12.168702125549316,-0.07,1.59,-0.12,1.59
12.169124126434326,-2.28,2.2,-0.89,3.29
12.177603244781494,-3.65,2.58,-1.11,4.6
12.18760633468628,-3.9,3.31,-0.98,5.2
12.197134017944336,-3.75,4.1,-0.72,5.6
12.207775115966797,-4.04,4.82,-0.84,6.34
12.217826128005981,-5.23,5.23,-1.93,7.64
12.227140188217163,-6.78,5.36,-3.54,9.33
12.268189191818237,-8.72,5.56,-4.98,11.47
12.268627166748047,-10.58,5.46,-5.72,13.2
12.269050121307373,-11.61,4.52,-5.4,13.57
12.269474983215332,-11.56,2.65,-4.3,12.61
12.277427196502686,-10.59,2.01,-3.1,11.21
12.287517070770264,-8.91,2.52,-1.8,9.43
12.296918153762817,-10.2,-1.21,-0.66,10.29
12.307622194290161,-10.82,0.25,-1.16,10.88
12.317710161209106,-10.8,1.37,-1.26,10.95
12.326853275299072,-10.14,1.15,-0.82,10.23
12.368694305419922,-7.59,0.94,0.5,7.66
12.369132041931152,-6.42,2.18,0.86,6.83
12.36955213546753,0.08,5.74,0.09,5.74
12.369970321655273,5.11,3.95,5.74,8.64
12.377328157424927,0.17,1.31,2.83,3.12
12.38745403289795,-7.02,5.02,-2.14,8.89
12.396781206130981,-11.09,6.76,-1.13,13.03
12.407446146011353,-10.41,4.7,-1.1,11.47
12.417497158050537,-6.88,1.91,-2.35,7.51
12.426884174346924,-4.06,0.58,-2.36,4.73
12.468764305114746,-5.4,-1.17,-4.18,6.92
12.469196319580078,-6.55,1.34,-3.24,7.42
12.469614028930664,-7.2,0.35,0.1,7.2
12.470036029815674,-6.65,-1.18,0.66,6.78
12.477121114730835,-4.67,-0.84,0.41,4.76
12.487189292907715,-2.16,-0.28,0.49,2.23
12.496570110321045,-0.74,-0.46,0.27,0.91
12.50727915763855,-0.03,-0.37,-0.01,0.37
12.51737117767334,0.0,0.4,-0.12,0.41
12.526691198348999,-0.26,0.81,0.23,0.88
12.569085121154785,-0.55,0.74,0.13,0.93
12.569514274597168,-0.65,0.49,-0.73,1.09
12.56993317604065,-0.69,0.2,-1.98,2.1
12.570353984832764,-0.98,-0.05,-2.61,2.78
12.57692003250122,-1.04,-0.08,-2.5,2.7
12.587009191513062,-0.52,-0.08,-1.69,1.77
12.596302032470703,-0.06,-0.14,-0.87,0.88
12.607048988342285,-0.06,-0.1,-0.79,0.79
12.61714220046997,-0.19,-0.03,-0.71,0.73
12.62647819519043,-0.35,-0.06,-0.35,0.49
12.670216083526611,-0.54,-0.02,-0.13,0.55
12.67073106765747,-0.52,0.05,-0.08,0.52
12.67119312286377,-0.45,0.05,-0.25,0.51
12.671631097793579,-0.55,-0.01,-0.32,0.63
12.67685317993164,-0.7,-0.12,-0.28,0.76
12.686846256256104,-0.81,-0.16,-0.13,0.83
12.696356296539307,-0.94,-0.12,0.0,0.94
12.707009315490723,-1.07,-0.05,0.22,1.09
12.717082977294922,-0.86,-0.03,0.17,0.87
12.726363182067871,-0.54,-0.04,0.02,0.54
12.76921010017395,-0.36,0.08,-0.15,0.39
12.769649982452393,-0.12,0.09,-0.21,0.25
12.770069122314453,0.18,0.03,-0.3,0.35
12.770485162734985,0.36,0.0,-0.39,0.53
12.776570320129395,0.48,0.02,-0.18,0.51
12.786614179611206,0.57,0.1,-0.03,0.57
12.796439170837402,0.54,0.16,-0.16,0.58
12.806820154190063,0.5,0.21,-0.08,0.54
12.816901206970215,0.61,0.29,0.0,0.67
12.82636308670044,0.57,0.27,-0.08,0.63
12.869543075561523,0.49,0.18,-0.13,0.53
12.86997127532959,0.6,0.24,-0.36,0.73
12.870387077331543,0.73,0.33,-0.37,0.88
12.870785236358643,0.92,0.49,-0.37,1.1
12.876705169677734,1.25,0.57,-0.39,1.42
12.886552333831787,2.0,0.61,-0.26,2.1
12.896364212036133,3.02,0.67,-0.07,3.09
12.906748294830322,3.65,0.87,-0.11,3.75
12.916827201843262,3.56,1.27,-0.32,3.79
12.926120281219482,3.18,1.68,0.17,3.6
12.970593214035034,3.66,1.93,0.25,4.14
12.971029281616211,4.38,1.94,0.03,4.79
12.971448183059692,4.95,2.35,-0.71,5.52
12.97186803817749,6.03,3.41,-1.25,7.03
12.976424217224121,5.15,3.72,-0.65,6.38
12.986455202102661,4.38,3.82,-0.85,5.87
12.996150016784668,4.4,4.08,-0.39,6.01
13.006608009338379,4.35,3.99,-0.43,5.91
13.016736030578613,4.44,4.22,-0.15,6.12
13.025952100753784,4.76,4.64,-0.08,6.64
13.06986117362976,5.2,5.07,0.35,7.27
13.070290088653564,5.52,5.46,0.36,7.77
13.070713996887207,5.54,5.6,0.06,7.87
13.0711350440979,5.47,5.52,-0.3,7.77
13.076263189315796,5.07,5.31,-0.57,7.36
13.08626914024353,5.26,5.56,-0.66,7.68
13.09578800201416,5.07,6.45,-2.14,8.47
13.106454133987427,5.15,7.64,-3.49,9.85
13.116501331329346,4.79,8.63,-1.8,10.03
13.125830173492432,0.92,10.28,0.2,10.32
13.170842170715332,-0.56,7.6,-3.19,8.26
13.171267986297607,1.84,5.6,-4.94,7.69
13.171686172485352,6.79,4.82,-3.73,9.12
13.172111988067627,11.38,0.49,-2.02,11.56
13.17612910270691,6.23,-3.03,0.5,6.94
13.1861572265625,-3.61,-2.46,-1.59,4.64
13.195558071136475,-0.29,0.04,-5.41,5.41
13.206307172775269,6.84,0.52,-2.76,7.39
13.216345310211182,11.12,-0.64,0.06,11.13
13.225619316101074,12.47,-1.98,1.47,12.71
13.271329164505005,11.24,-2.81,2.13,11.78
13.271762132644653,9.03,-3.33,2.36,9.9
13.272184133529663,7.11,-3.64,2.49,8.36
13.272608280181885,6.07,-3.29,2.23,7.25
13.27598524093628,5.73,-2.54,1.92,6.55
13.286043167114258,5.4,-2.12,1.57,6.0
13.29538631439209,5.12,-2.39,1.12,5.76
13.306128978729248,4.61,-2.66,0.81,5.38
13.316256999969482,3.95,-2.42,0.8,4.7
13.325494289398193,3.37,-1.88,1.01,3.98
13.371031284332275,2.79,-1.31,1.27,3.33
13.37146520614624,2.16,-0.51,1.71,2.8
13.371886253356934,1.77,0.59,2.15,2.84
13.372304201126099,1.42,1.58,2.01,2.92
13.375819206237793,0.54,2.48,1.08,2.75
13.385913133621216,-1.23,3.63,-0.78,3.91
13.395317077636719,-4.06,4.79,-2.35,6.7
13.40601921081543,-6.59,5.77,-2.99,9.25
13.41608715057373,-7.57,6.0,-2.98,10.1
13.425336122512817,-7.22,5.56,-2.22,9.37
13.472568988800049,-6.89,5.09,-1.95,8.78
13.473006248474121,-6.96,4.5,-3.14,8.86
13.473429203033447,-8.03,4.14,-4.8,10.23
13.47385311126709,-9.53,4.03,-5.38,11.66
13.47559928894043,-10.43,3.38,-4.19,11.73
13.485730171203613,-10.43,1.71,-2.62,10.88
13.495136260986328,-10.46,-0.2,-2.05,10.66
13.505855083465576,-10.77,-1.39,-2.24,11.08
13.515768051147461,-10.87,-1.6,-2.79,11.33
13.525179147720337,-10.18,-1.38,-3.03,10.71
13.571718215942383,-9.45,-1.08,-2.95,9.95
13.572147130966187,-9.26,-0.84,-3.08,9.79
13.57256817817688,-7.79,4.76,-3.38,9.73
13.572991132736206,-4.91,6.24,-2.82,8.42
13.575493097305298,-6.9,0.35,-1.69,7.11
13.585516214370728,-5.99,-0.6,-0.98,6.09
13.594864130020142,2.41,2.96,1.61,4.14
13.605739116668701,7.76,3.14,7.78,11.42
13.61587905883789,3.27,0.07,4.55,5.6
13.625072002410889,-4.95,1.05,-2.36,5.58
13.672821998596191,-9.7,3.76,-3.26,10.9
13.673259258270264,-10.07,6.64,-1.81,12.19
13.673681259155273,-9.88,6.76,-2.1,12.15
13.674127101898193,-7.28,3.51,-2.68,8.51
13.675405025482178,-5.19,-0.29,-3.41,6.21
13.685509204864502,-4.17,-0.04,-1.95,4.6
13.69488000869751,-3.68,-0.3,0.61,3.74
13.705574989318848,-4.56,-2.05,0.51,5.02
13.715524196624756,-4.16,-1.44,-0.63,4.44
13.72486925125122,-2.67,-0.39,-0.63,2.77
13.773617267608643,-1.73,-0.14,-0.07,1.73
13.77408504486084,-1.39,-0.23,0.07,1.41
13.774856090545654,-1.09,-0.12,0.24,1.12
13.775259017944336,-0.61,0.22,0.24,0.69
13.77617621421814,-0.34,0.44,-0.35,0.65
13.785166263580322,-0.31,0.7,-0.67,1.01
13.794747114181519,-0.14,0.61,-0.48,0.78
13.805437088012695,0.05,0.34,-1.29,1.33
13.815308094024658,0.01,0.13,-2.55,2.55
13.824794292449951,-0.36,0.07,-2.65,2.67
13.873671054840088,-0.74,0.14,-1.89,2.03
13.87416124343872,-0.85,0.06,-1.28,1.53
13.87489914894104,-0.6,-0.03,-0.44,0.74
13.875335216522217,-0.2,0.08,0.09,0.23
13.87627124786377,0.0,0.14,0.29,0.32
13.885083198547363,-0.17,0.14,0.48,0.52
13.894559144973755,-0.47,0.1,0.3,0.56
13.905285120010376,-0.93,0.03,0.05,0.93
13.915115118026733,-1.35,-0.03,-0.28,1.37
13.92455005645752,-1.39,-0.07,-0.61,1.51
13.973522186279297,-0.82,-0.1,-0.82,1.16
13.974324226379395,-0.25,0.01,-0.87,0.9
13.974756240844727,0.15,0.09,-0.67,0.69
13.975174188613892,0.26,0.07,-0.55,0.61
13.976119041442871,0.07,0.02,-0.34,0.34
13.984891176223755,-0.28,0.02,0.07,0.28
13.994288206100464,-0.38,0.1,0.37,0.53
14.005121231079102,-0.19,0.15,0.43,0.49
14.015011310577393,0.04,0.09,0.41,0.42
14.024509191513062,0.35,-0.01,0.27,0.44
14.073568105697632,0.48,0.05,-0.07,0.48
14.074313163757324,0.61,0.24,-0.28,0.71
14.074732303619385,0.72,0.44,-0.46,0.96
14.07515001296997,0.43,0.47,-0.35,0.72
14.076094150543213,0.22,0.36,0.05,0.42
14.084672212600708,0.36,0.26,0.48,0.65
14.094115257263184,0.77,0.24,0.68,1.05
14.104901313781738,1.52,0.47,0.37,1.63
14.114972114562988,2.35,0.56,0.0,2.41
14.124154090881348,2.89,0.61,-0.43,2.98
14.174774169921875,3.15,0.75,-0.58,3.28
14.17519998550415,3.66,1.44,-0.14,3.93
14.175617218017578,3.5,1.64,0.43,3.88
14.176032066345215,3.28,1.68,0.2,3.69
14.176961183547974,3.39,2.18,0.53,4.06
14.184561252593994,3.81,2.55,0.62,4.62
14.194011211395264,3.86,2.88,0.41,4.83
14.204645156860352,4.08,3.1,0.13,5.12
14.257112979888916,4.49,3.3,-0.29,5.57
14.257543087005615,4.75,3.48,-0.56,5.91
14.257970333099365,4.96,3.62,-0.74,6.18
14.25839114189148,5.2,3.81,-0.87,6.5
14.258807182312012,5.32,4.12,-0.74,6.76
14.264093160629272,5.59,4.85,-0.65,7.42
14.274590015411377,6.23,5.54,-0.52,8.35
14.284491062164307,6.62,5.68,0.11,8.72
14.293950080871582,6.29,5.39,0.36,8.29
14.304574012756348,5.64,5.03,-0.01,7.55
14.359280109405518,4.86,4.75,0.44,6.8
14.359713077545166,3.59,4.91,0.25,6.08
14.360133171081543,2.54,5.71,-0.09,6.25
14.360557079315186,1.88,6.84,-1.23,7.19
14.360977172851562,-0.38,8.48,-3.02,9.0
14.364152193069458,-2.36,9.55,-4.91,10.99
14.374452114105225,0.68,8.42,-5.34,9.99
14.384305000305176,5.11,7.42,-3.49,9.66
14.393928050994873,8.75,4.78,-2.09,10.18
14.404547214508057,10.29,0.0,-1.11,10.34
14.458731174468994,5.23,-2.29,0.22,5.71
14.459166049957275,-4.58,-2.01,-0.54,5.03
14.459588050842285,-7.88,-0.04,-4.44,9.04
14.460009098052979,-1.39,1.04,-5.42,5.69
14.460428237915039,6.79,-0.92,-3.04,7.49
14.463700294494629,11.21,-2.62,-0.8,11.53
14.47430419921875,11.97,-3.74,0.69,12.55
14.484230041503906,11.02,-3.94,1.83,11.84
14.493681192398071,9.69,-4.13,2.74,10.88
14.504518985748291,8.65,-4.25,2.89,10.06
14.559197187423706,8.17,-3.95,2.76,9.48
14.559638023376465,8.13,-3.21,2.58,9.11
14.560059070587158,8.23,-2.54,2.32,8.92
14.560476303100586,7.96,-2.35,1.82,8.49
14.560900211334229,7.12,-2.33,1.27,7.59
14.563570022583008,6.0,-2.18,0.63,6.41
14.574175119400024,4.9,-1.87,0.16,5.24
14.58406925201416,4.05,-1.26,0.09,4.24
14.593614101409912,3.26,-0.4,0.63,3.34
14.604242324829102,2.33,0.81,1.01,2.66
14.659235000610352,0.97,2.01,0.61,2.31
14.659661293029785,-0.3,2.43,-0.66,2.53
14.6600821018219,-1.87,2.75,-1.97,3.86
14.660502195358276,-4.23,3.34,-2.55,5.96
14.660925149917603,-6.56,3.56,-2.06,7.74
14.663334131240845,-7.06,3.67,-1.7,8.13
14.67400598526001,-5.55,3.88,-1.02,6.84
14.684046268463135,-4.07,4.08,0.21,5.76
14.693480014801025,-3.79,4.15,0.38,5.63
14.704148292541504,-4.11,3.73,-0.9,5.62
14.758920192718506,-5.68,3.53,-2.81,7.25
14.760265111923218,-8.28,3.97,-4.56,10.25
14.760690212249756,-10.39,4.68,-5.22,12.53
14.761113166809082,-11.26,4.74,-4.72,13.09
14.761535167694092,-9.78,6.75,-3.91,12.5
14.76331114768982,-11.09,1.49,-3.2,11.63
14.773844242095947,-13.71,-0.9,-3.3,14.13
14.78386116027832,-12.43,0.26,-2.78,12.73
14.793329238891602,-11.17,0.44,-2.07,11.36
14.804083108901978,-10.57,0.43,-1.64,10.7
14.813940048217773,-9.65,0.43,-1.53,9.77
14.860332012176514,-8.09,0.97,-0.65,8.17
14.860766172409058,-5.97,3.68,-0.3,7.01
14.861184120178223,2.28,5.29,1.22,5.88
14.861606121063232,6.59,1.65,7.31,9.97
14.863206148147583,0.54,-0.24,3.84,3.88
14.873700141906738,-7.18,2.89,-1.11,7.81
14.883761167526245,-10.25,4.93,-1.25,11.44
14.893107175827026,-8.77,4.53,-1.75,10.02
14.903810977935791,-6.17,3.25,-2.44,7.38
14.913738250732422,-5.94,1.3,-3.87,7.2
14.960784196853638,-6.19,0.99,-4.39,7.65
14.961225032806396,-4.38,2.45,-1.55,5.25
14.96164608001709,-3.5,-0.48,0.11,3.53
14.9620680809021,-3.78,-1.99,-0.73,4.33
14.962972164154053,-3.41,-1.01,-1.36,3.8
14.973610162734985,-2.06,0.05,-0.35,2.09
14.983548164367676,-0.92,-0.01,0.19,0.93
14.992999076843262,-0.15,-0.25,0.03,0.29
15.003684997558594,-0.1,-0.04,0.07,0.12
15.013553142547607,-0.58,0.04,0.26,0.63
15.061734199523926,-1.0,0.2,0.4,1.09
15.062190055847168,-0.93,0.47,0.04,1.04
15.062915325164795,-0.55,0.39,-0.67,0.95
15.063337326049805,-0.26,0.22,-1.56,1.59
15.06376028060913,-0.14,0.1,-2.06,2.06
15.073322296142578,-0.43,0.03,-1.79,1.84
15.083277225494385,-0.71,-0.05,-1.25,1.43
15.09285306930542,-0.67,-0.07,-0.62,0.91
15.103479146957397,-0.62,-0.08,-0.48,0.78
15.113535165786743,-0.59,-0.01,-0.61,0.84
15.16267728805542,-0.34,-0.04,-0.47,0.58
15.163281202316284,-0.27,-0.06,-0.51,0.58
15.16370415687561,-0.59,0.0,-0.59,0.83
15.164123058319092,-1.12,0.07,-0.2,1.13
15.16490125656128,-1.48,0.03,-0.1,1.48
15.173274993896484,-1.33,0.0,-0.09,1.33
15.183131217956543,-0.93,0.01,0.14,0.94
15.19276213645935,-0.52,0.15,0.0,0.54
15.203282117843628,-0.16,0.12,-0.05,0.2
15.213338136672974,0.06,-0.02,-0.05,0.08
15.262643098831177,0.32,0.0,-0.13,0.34
15.26326322555542,0.44,-0.01,-0.06,0.44
15.263686180114746,0.36,-0.08,0.17,0.4
15.264105319976807,0.16,-0.11,0.48,0.51
15.264863014221191,0.1,-0.09,0.61,0.62
15.273107051849365,0.3,-0.06,0.41,0.51
15.28299331665039,0.38,0.14,-0.18,0.44
15.292519092559814,0.65,0.26,-0.5,0.86
15.303214073181152,0.99,0.32,-0.92,1.38
15.313192129135132,1.07,0.28,-1.29,1.69
15.362799167633057,1.07,-0.07,-0.6,1.22
15.363209247589111,1.01,-0.06,-0.32,1.06
15.36362910270691,0.9,0.1,0.0,0.9
15.364045143127441,0.87,0.28,0.44,1.01
15.364465236663818,1.23,0.47,0.66,1.47
15.372932195663452,1.59,0.65,0.67,1.84
15.38277816772461,2.13,0.72,0.41,2.28
15.392372131347656,2.74,0.65,-0.17,2.82
15.403095245361328,3.11,0.55,-0.32,3.17
15.413097143173218,3.6,0.69,-0.03,3.66
15.463557243347168,3.93,0.97,0.06,4.04
15.46399211883545,3.83,1.31,0.48,4.07
15.464410305023193,3.65,1.98,0.26,4.16
15.465179204940796,3.46,3.72,-0.15,5.08
15.46561312675476,3.14,4.42,1.18,5.54
15.472825050354004,3.36,4.43,0.06,5.56
15.482847213745117,4.2,4.71,0.31,6.31
15.492262125015259,4.54,4.44,0.32,6.35
15.502923011779785,4.08,4.14,-0.38,5.82
15.512868165969849,3.94,3.95,-0.14,5.58
15.563895225524902,4.66,3.9,-0.56,6.1
15.564320087432861,5.53,4.2,-0.6,6.97
15.564746141433716,6.19,4.7,-0.54,7.79
15.565495014190674,6.53,4.92,-0.41,8.18
15.565916061401367,6.37,4.78,0.01,7.96
15.572571277618408,5.73,4.87,-0.14,7.52
15.582818984985352,5.05,5.14,0.11,7.2
15.592082023620605,4.43,5.92,-0.02,7.39
15.602774143218994,4.88,7.07,-0.75,8.62
15.61278510093689,4.74,8.57,-1.68,9.93
15.664342164993286,1.1,9.69,-2.04,9.96
15.664769172668457,-1.78,9.26,-2.77,9.82
15.665552139282227,1.15,9.17,-4.21,10.15
15.665972232818604,5.4,7.51,-3.4,9.85
15.666408061981201,9.28,4.62,-2.44,10.64
15.672487258911133,11.09,-0.81,-0.87,11.15
15.682691097259521,1.92,-2.57,0.4,3.23
15.691935062408447,-7.27,-1.36,-3.77,8.3
15.702641010284424,-1.14,0.76,-5.98,6.13
15.712644100189209,6.01,0.39,-3.02,6.73
15.764594078063965,10.4,-0.79,-0.56,10.44
15.765358209609985,12.16,-2.26,0.88,12.39
15.765786170959473,11.15,-3.51,2.06,11.86
15.766211032867432,9.34,-4.45,2.73,10.7
15.766656160354614,7.74,-5.16,2.77,9.7
15.772282123565674,7.22,-4.9,2.7,9.13
15.782496213912964,7.35,-3.98,2.82,8.82
15.791828155517578,7.29,-3.39,2.34,8.37
15.802428245544434,6.77,-3.21,1.4,7.62
15.812470197677612,5.86,-2.74,0.86,6.52
15.86630916595459,4.8,-2.16,0.71,5.31
15.866742134094238,3.92,-1.57,0.72,4.28
15.867164134979248,3.18,-1.08,0.86,3.46
15.867584228515625,2.51,-0.36,1.22,2.81
15.868003129959106,1.98,0.79,1.63,2.68
15.872136116027832,1.5,2.21,1.26,2.95
15.88250207901001,0.06,3.5,-0.17,3.5
15.891703128814697,-2.71,4.29,-1.89,5.41
15.90224313735962,-5.16,4.2,-2.58,7.13
15.912331104278564,-6.15,4.64,-1.97,7.95
15.966477155685425,-5.76,5.6,-1.26,8.13
15.966912269592285,-5.36,6.22,-1.29,8.31
15.967335224151611,-5.71,5.89,-1.84,8.4
15.967761039733887,-6.49,4.92,-2.45,8.5
15.968183994293213,-7.74,4.3,-3.41,9.48
15.97199821472168,-9.34,4.54,-4.49,11.31
15.982394218444824,-10.69,4.29,-4.71,12.44
15.991543292999268,-11.16,3.11,-3.67,12.15
16.00221824645996,-11.14,1.89,-2.46,11.56
16.012261152267456,-11.0,0.35,-1.58,11.11
16.066884994506836,-10.73,-0.94,-1.03,10.82
16.067318201065063,-10.32,-1.3,-0.94,10.44
16.06774115562439,-8.81,2.66,-1.31,9.29
16.0681631565094,-7.89,2.94,-1.65,8.58
16.06858515739441,-9.05,-0.04,-1.9,9.24
16.071827173233032,-9.92,-0.75,-1.45,10.05
16.081842184066772,-9.57,0.25,-1.3,9.66
16.09140110015869,-4.44,3.58,-1.95,6.02
16.102166175842285,3.92,3.86,2.32,5.97
16.11202311515808,4.1,0.64,4.5,6.12
16.167883157730103,-1.83,0.62,-0.32,1.95
16.168321132659912,-6.54,3.08,-1.44,7.37
16.16874408721924,-8.54,5.21,-0.45,10.01
16.169170141220093,-9.4,6.82,-2.43,11.86
16.169588088989258,-8.89,4.76,-3.24,10.59
16.171722173690796,-8.62,0.86,-3.47,9.33
16.181693077087402,-6.14,1.33,-1.65,6.49
16.191213130950928,-4.4,-0.15,0.86,4.48
16.20188617706299,-4.38,-2.36,0.68,5.02
16.21192717552185,-4.5,-1.75,-1.11,4.95
16.26876401901245,-3.23,-0.09,-1.47,3.54
16.269200325012207,-1.54,0.34,-0.35,1.61
16.2696270942688,-0.09,0.04,0.21,0.23
16.27005910873413,0.67,-0.01,-0.31,0.73
16.270501136779785,0.99,-0.2,-0.85,1.32
16.271746158599854,1.2,-0.21,-1.02,1.58
16.281583309173584,0.96,-0.04,-0.93,1.33
16.291102170944214,0.2,0.13,-0.69,0.73
16.301777124404907,-0.65,0.22,-0.14,0.7
16.311811208724976,-1.0,0.18,-0.17,1.03
16.36862802505493,-0.76,0.08,-0.8,1.1
16.369060039520264,-0.15,0.16,-1.19,1.21
16.369482040405273,0.03,0.2,-1.41,1.42
16.369904041290283,-0.42,0.02,-0.99,1.07
16.370338201522827,-0.66,-0.02,-0.48,0.81
16.371578216552734,-0.58,0.08,-0.11,0.59
16.381404161453247,-0.38,-0.05,-0.02,0.38
16.390955209732056,-0.36,-0.07,-0.15,0.39
16.401653289794922,-0.53,-0.05,-0.25,0.58
16.411598205566406,-0.73,-0.02,-0.02,0.73
16.469515323638916,-1.2,0.14,0.1,1.21
16.469942092895508,-1.56,0.14,0.21,1.58
16.470723152160645,-1.58,0.05,0.28,1.6
16.471127033233643,-1.27,0.05,0.1,1.27
16.471529006958008,-0.77,0.11,-0.35,0.85
16.472495079040527,-0.04,0.25,-0.46,0.52
16.4813232421875,0.53,0.23,-0.5,0.76
16.490883111953735,0.59,0.11,-0.48,0.76
16.501370191574097,0.25,0.11,-0.09,0.28
16.511406183242798,-0.16,0.16,0.49,0.53
16.5695321559906,-0.43,0.11,0.96,1.05
16.569960117340088,-0.35,0.12,0.82,0.89
16.570698261260986,0.05,0.21,0.4,0.45
16.571115016937256,0.52,0.32,0.0,0.61
16.571529150009155,0.72,0.31,-0.5,0.92
16.572426319122314,0.73,0.23,-0.71,1.04
16.58108615875244,0.71,0.17,-0.94,1.19
16.590665102005005,0.86,0.21,-0.86,1.23
16.60110902786255,1.14,0.25,-0.79,1.4
16.611188173294067,1.06,0.29,-0.69,1.29
16.669437170028687,1.03,0.38,-0.14,1.1
16.66987133026123,1.34,0.6,0.02,1.46
16.670567989349365,1.47,0.82,-0.09,1.68
16.67098617553711,1.26,0.92,-0.13,1.56
16.67140531539917,1.21,0.99,-0.25,1.58
16.672338008880615,1.67,1.02,-0.26,1.97
16.680941104888916,2.51,1.08,-0.24,2.74
16.690484046936035,3.61,1.24,-0.27,3.82
16.701000213623047,3.64,1.48,0.02,3.92
16.71101212501526,3.64,1.68,-0.19,4.01
16.77012610435486,3.69,2.08,-0.33,4.24
16.770878314971924,3.19,2.58,-0.55,4.13
16.771302223205566,3.06,2.93,-0.46,4.26
16.771721124649048,2.76,3.12,-0.24,4.17
16.772138118743896,2.56,3.14,0.01,4.05
16.77308225631714,2.95,3.03,-0.17,4.23
16.780765056610107,3.56,3.0,-0.48,4.68
16.79033899307251,4.4,3.06,-0.61,5.39
16.800860166549683,5.54,3.16,-1.08,6.46
16.81096124649048,6.66,3.46,-1.23,7.6
16.871273040771484,7.43,3.85,-0.74,8.4
16.8717041015625,7.46,3.74,-0.52,8.36
16.872128009796143,6.97,3.69,-0.26,7.89
16.872549057006836,6.43,4.11,0.19,7.63
16.872974157333374,5.69,4.57,-0.05,7.29
16.873934268951416,4.68,5.13,-0.21,6.94
16.88071918487549,3.58,5.56,-0.69,6.64
16.89022207260132,2.99,6.21,-1.88,7.14
16.900695323944092,2.34,6.95,-1.31,7.44
16.910823106765747,0.72,8.34,-0.78,8.4
16.971359252929688,1.04,7.3,-3.08,7.99
16.971796989440918,3.45,6.17,-2.73,7.57
16.972217082977295,5.5,5.13,-1.45,7.65
16.972644329071045,7.84,3.14,-1.08,8.51
16.97306728363037,8.21,-1.15,-0.41,8.3
16.974005222320557,1.91,-2.68,0.2,3.29
16.980552196502686,-2.79,-0.35,-3.61,4.57
16.990060329437256,3.11,1.73,-5.36,6.43
17.000728130340576,9.26,1.32,-2.68,9.72
17.010685205459595,12.65,0.99,-0.71,12.7
17.07178521156311,13.78,0.3,0.89,13.81
17.072222232818604,11.84,-0.66,2.07,12.03
17.072646141052246,8.85,-1.08,2.25,9.19
17.073071002960205,6.5,-1.34,2.22,6.99
17.0734920501709,5.23,-1.56,2.07,5.83
17.074448108673096,4.7,-1.5,1.69,5.21
17.080392122268677,4.22,-1.23,0.94,4.49
17.089910984039307,3.9,-0.97,0.56,4.05
17.100779056549072,3.61,-0.79,0.95,3.81
17.110565185546875,3.12,-0.64,1.49,3.51
17.173473119735718,2.38,-0.31,2.2,3.25
17.173906326293945,1.87,0.04,2.76,3.33
17.174326181411743,1.56,0.56,2.42,2.93
17.174743175506592,1.17,1.65,1.1,2.3
17.17516016960144,0.23,2.84,-0.19,2.85
17.1760892868042,-1.31,3.39,-0.52,3.67
17.180238246917725,-2.5,3.6,-0.24,4.38
17.189711093902588,-3.11,3.92,0.28,5.01
17.20042610168457,-3.62,4.45,0.64,5.77
17.210400104522705,-4.3,4.98,0.13,6.58
17.27380919456482,-5.69,5.38,-0.9,7.88
17.274240016937256,-7.45,5.73,-2.5,9.72
17.274662017822266,-9.25,6.02,-4.99,12.11
17.275082111358643,-10.78,5.89,-6.95,14.11
17.27550506591797,-11.6,5.0,-6.61,14.25
17.276475191116333,-11.86,3.29,-5.18,13.35
17.280017137527466,-11.86,1.06,-4.11,12.59
17.289589166641235,-11.87,-0.93,-3.6,12.43
17.300456047058105,-11.36,-2.52,-3.66,12.19
17.310282230377197,-10.84,-3.48,-2.82,11.72
17.374471187591553,-10.95,-2.61,-2.35,11.49
17.374906063079834,-11.23,-1.84,-3.28,11.84
17.375328063964844,-10.53,-1.48,-4.49,11.54
17.3757541179657,-8.99,4.61,-5.22,11.37
17.37618398666382,-4.85,8.28,-4.62,10.65
17.377135276794434,-6.67,1.19,-2.41,7.19
17.379943132400513,-7.32,-2.87,-3.08,8.44
17.389523029327393,3.71,0.54,0.31,3.76
17.400419235229492,12.02,3.96,10.03,16.14
17.40998411178589,6.33,2.24,6.41,9.28
17.47274923324585,-4.82,2.14,-2.69,5.92
17.473186016082764,-10.75,4.11,-3.2,11.94
17.473610162734985,-11.04,6.7,-1.72,13.02
17.47403120994568,-10.77,7.63,-2.17,13.37
17.474452018737793,-7.92,2.92,-1.95,8.66
17.475426197052002,-4.65,1.23,-1.49,5.03
17.479780197143555,-4.89,-1.19,-3.22,5.97
17.489257097244263,-4.77,-0.12,-1.95,5.15
17.50035524368286,-5.28,-0.26,-0.31,5.29
17.50990629196167,-5.49,-0.93,-0.53,5.59
17.574411153793335,-4.82,0.19,-0.56,4.85
17.574848175048828,-3.51,0.86,-0.39,3.63
17.57526731491089,-2.16,0.49,-0.37,2.24
17.575701236724854,-0.89,0.03,-0.67,1.11
17.57611608505249,0.12,0.04,-0.84,0.84
17.57702112197876,0.71,0.24,-0.65,0.99
17.579596996307373,0.83,0.15,-0.37,0.92
17.58915114402771,0.85,-0.07,-0.17,0.86
17.59966802597046,0.93,-0.21,-0.45,1.05
17.609697103500366,0.89,-0.18,-1.19,1.49
17.674158096313477,0.59,-0.01,-1.91,1.99
17.674589157104492,0.05,0.04,-2.3,2.3
17.675008296966553,-0.46,-0.05,-2.16,2.2
17.67543125152588,-0.89,-0.28,-1.63,1.87
17.67585015296936,-1.16,-0.35,-1.14,1.66
17.676777124404907,-1.07,-0.18,-0.34,1.13
17.679444313049316,-0.6,-0.05,0.51,0.78
17.688992023468018,-0.07,0.0,0.9,0.9
17.69954013824463,0.55,0.01,0.78,0.95
17.70956325531006,0.93,-0.05,0.07,0.93
17.774435997009277,0.99,0.02,-0.7,1.21
17.774866104125977,0.77,-0.03,-0.97,1.23
17.77528715133667,0.09,0.14,-0.81,0.82
17.775724172592163,-0.72,0.35,-0.07,0.8
17.776143074035645,-1.08,0.24,0.55,1.23
17.777064323425293,-0.92,-0.01,0.46,1.02
17.779234170913696,-0.32,-0.07,0.37,0.49
17.78885507583618,0.25,-0.03,0.24,0.34
17.79939913749695,0.52,0.04,0.06,0.52
17.80946397781372,0.52,0.09,-0.32,0.61
17.875710010528564,0.43,0.16,-0.72,0.85
17.876160144805908,0.32,0.13,-0.88,0.94
17.876578330993652,0.01,0.08,-1.12,1.12
17.876999139785767,-0.32,-0.07,-0.74,0.8
17.877421140670776,-0.42,-0.13,-0.24,0.5
17.87840223312378,-0.25,0.17,-0.45,0.54
17.879597187042236,0.17,0.24,-0.78,0.83
17.888734102249146,0.74,0.02,-0.53,0.91
17.89928102493286,1.39,-0.12,0.0,1.39
17.90934705734253,1.94,0.04,0.34,1.96
17.97544813156128,2.25,0.28,0.91,2.44
17.975882053375244,2.55,0.54,1.05,2.81
17.976306200027466,2.83,0.68,0.57,2.96
17.976720333099365,2.92,0.77,-0.14,3.02
17.977140188217163,3.06,0.76,-0.57,3.2
17.97811222076416,3.18,0.69,-0.51,3.29
17.979340076446533,3.57,1.08,-0.37,3.74
17.988591194152832,3.66,1.59,-0.62,4.03
17.999158143997192,3.57,2.17,-0.67,4.23
18.00919198989868,3.67,4.06,-1.06,5.57
18.07581615447998,3.82,4.72,0.63,6.1
18.076253175735474,3.35,4.42,0.44,5.56
18.076679229736328,3.19,4.77,0.52,5.76
18.077099323272705,3.49,4.86,0.37,5.99
18.077516078948975,3.79,4.58,0.01,5.94
18.07882022857666,4.22,4.48,-0.12,6.15
18.07972002029419,5.45,4.66,-0.36,7.17
18.08839225769043,6.77,4.94,-0.53,8.39
18.098949193954468,7.73,5.1,-0.5,9.27
18.109122276306152,7.89,5.16,-0.43,9.43
18.17659902572632,7.14,5.19,-0.49,8.84
18.177035331726074,6.09,5.31,-0.17,8.08
18.177478313446045,5.08,6.06,0.04,7.9
18.17824125289917,4.47,7.55,-0.08,8.77
18.178665161132812,4.44,8.98,-0.86,10.05
18.179630279541016,3.18,9.38,-3.3,10.43
18.18052625656128,-0.34,9.73,-4.95,10.92
18.188220977783203,0.08,9.37,-5.53,10.88
18.198702096939087,4.21,8.19,-3.09,9.71
18.20895004272461,7.92,5.73,-1.16,9.84
18.279787063598633,9.92,0.24,-0.36,9.92
18.280320167541504,5.05,-3.14,0.88,6.01
18.280811309814453,-5.85,-2.59,-1.72,6.62
18.281333208084106,-6.63,-0.67,-5.77,8.81
18.281904220581055,1.94,0.46,-4.67,5.07
18.282952308654785,8.3,-1.08,-2.25,8.66
18.284223079681396,10.97,-2.16,-0.59,11.19
18.288010120391846,11.08,-2.74,0.89,11.44
18.298668146133423,9.45,-3.11,2.21,10.19
18.30865716934204,7.29,-4.16,3.02,8.92
18.377906322479248,5.87,-5.05,3.04,8.31
18.378526210784912,6.01,-4.78,2.75,8.15
18.37894916534424,6.81,-3.96,2.59,8.29
18.379379272460938,6.97,-3.43,2.19,8.07
18.379796981811523,6.37,-3.34,1.64,7.37
18.380752086639404,5.41,-3.14,1.31,6.39
18.381689071655273,4.5,-2.8,1.2,5.43
18.387930154800415,3.74,-2.58,1.34,4.73
18.39855432510376,3.0,-2.62,1.48,4.24
18.408589124679565,2.19,-2.49,1.43,3.61
18.478250980377197,1.62,-2.14,1.32,2.99
18.478873252868652,1.01,-1.3,1.68,2.35
18.47929620742798,0.37,-0.07,2.14,2.17
18.47972011566162,-0.2,1.21,1.74,2.12
18.480136156082153,-1.66,2.46,0.44,3.0
18.481130123138428,-4.08,3.84,-1.41,5.77
18.482065200805664,-6.28,5.06,-2.49,8.44
18.4878351688385,-7.35,6.62,-2.68,10.24
18.498445987701416,-7.57,7.92,-2.47,11.23
18.508414268493652,-7.41,8.17,-2.35,11.27
18.5799241065979,-7.07,6.83,-2.28,10.09
18.58035707473755,-7.18,5.39,-2.67,9.36
18.580782175064087,-8.97,5.25,-4.25,11.22
18.5812029838562,-11.02,4.86,-5.34,13.17
18.581627130508423,-11.73,3.7,-4.49,13.09
18.582581043243408,-11.56,2.12,-2.98,12.12
18.583515167236328,-11.72,0.41,-1.98,11.89
18.587720155715942,-11.6,1.23,-1.99,11.83
18.59821605682373,-10.26,1.23,-2.27,10.57
18.608275175094604,-9.32,0.05,-2.42,9.62
18.679708003997803,-8.54,0.88,-2.29,8.88
18.68014121055603,-8.2,0.86,-1.5,8.38
18.680567264556885,-8.69,0.28,-1.43,8.81
18.68099021911621,-4.82,2.36,-2.31,5.84
18.681410312652588,5.84,4.15,1.99,7.43
18.682361125946045,9.93,2.23,6.97,12.33
18.683265209197998,2.4,0.39,2.82,3.72
18.687557220458984,-7.19,0.45,-1.7,7.4
18.698040008544922,-9.46,1.03,-2.8,9.91
18.708190202713013,-6.87,5.22,-2.36,8.94
18.717491149902344,-5.11,7.16,-1.24,8.88
18.779993057250977,-5.02,3.24,-0.02,5.97
18.78042697906494,-5.89,1.02,-1.28,6.11
18.780845165252686,-6.57,0.07,-2.68,7.09
18.78126811981201,-5.16,1.02,-0.89,5.33
18.78223705291748,-4.15,-0.99,0.07,4.26
18.783170223236084,-3.5,-1.66,-0.71,3.93
18.787333011627197,-2.3,-0.31,-0.97,2.51
18.79798412322998,-1.1,0.38,-0.35,1.21
18.807993173599243,-0.79,0.22,-0.05,0.82
18.817382097244263,-0.84,0.1,-0.34,0.91
18.88152313232422,-1.08,0.15,-0.64,1.26
18.881959199905396,-1.17,0.26,-0.9,1.49
18.882373332977295,-1.17,0.24,-1.11,1.63
18.882791996002197,-1.07,0.12,-1.13,1.56
18.88370132446289,-0.85,0.05,-1.1,1.39
18.884990215301514,-0.54,0.06,-1.12,1.24
18.887184143066406,-0.23,0.05,-1.17,1.19
18.8975830078125,-0.05,0.02,-1.18,1.18
18.907902240753174,-0.08,0.04,-1.28,1.28
18.917115211486816,-0.13,-0.05,-1.26,1.26
18.981288194656372,-0.06,-0.16,-1.16,1.17
18.98173427581787,0.22,-0.28,-0.81,0.88
18.98215913772583,0.33,-0.29,-0.45,0.62
18.982583045959473,0.19,-0.23,-0.33,0.44
18.983514308929443,0.14,-0.19,-0.5,0.55
18.984455108642578,0.22,-0.35,-0.27,0.49
18.987075328826904,0.27,-0.32,-0.31,0.52
18.997709274291992,0.19,0.01,-0.53,0.56
19.007687091827393,0.05,0.2,-0.09,0.22
19.01699924468994,0.08,0.17,0.66,0.68
19.081383228302002,0.05,0.09,0.84,0.84
19.081809043884277,-0.19,0.13,0.71,0.74
19.082228183746338,-0.28,0.22,0.49,0.6
19.082651138305664,-0.11,0.14,0.27,0.32
19.0835862159729,0.28,0.09,0.34,0.44
19.084481239318848,0.38,0.16,0.01,0.41
19.086931228637695,-0.04,0.2,-0.46,0.5
19.09745216369629,-0.52,0.23,-0.46,0.73
19.107510089874268,-0.59,0.3,-0.42,0.78
19.116847038269043,-0.46,0.34,-0.45,0.72
19.18195104598999,-0.14,0.35,-0.27,0.46
19.182388305664062,0.55,0.28,-0.18,0.64
19.182810306549072,1.17,0.12,-0.07,1.17
19.183210134506226,1.61,0.09,-0.07,1.61
19.184123039245605,2.11,0.21,-0.19,2.12
19.185407161712646,2.55,0.2,-0.3,2.57
19.18676519393921,2.63,0.31,-0.32,2.66
19.197242259979248,3.0,0.46,-0.19,3.04
19.207418203353882,3.74,0.69,-0.23,3.81
19.216732025146484,3.79,0.95,-0.15,3.91
19.282241106033325,3.69,1.12,0.06,3.85
19.28266716003418,4.1,1.51,0.04,4.36
19.283083200454712,4.09,1.91,0.08,4.51
19.283499240875244,3.7,3.01,-0.16,4.77
19.28443431854248,4.0,4.52,-0.57,6.06
19.285675048828125,3.74,4.45,0.39,5.82
19.2864511013031,3.57,4.12,0.45,5.47
19.297221183776855,4.08,4.16,0.29,5.83
19.30723524093628,4.73,4.14,-0.01,6.28
19.316633224487305,4.97,4.04,-0.35,6.41
19.38296604156494,5.21,4.4,-0.4,6.83
19.38339328765869,5.76,5.07,-0.32,7.68
19.38381314277649,6.39,5.48,-0.15,8.41
19.384230136871338,6.74,5.14,-0.02,8.47
19.385513305664062,6.51,5.09,-0.16,8.26
19.38681125640869,5.9,5.09,0.03,7.79
19.38722515106201,4.74,5.13,0.2,6.98
19.397054195404053,3.45,5.89,-0.01,6.82
19.407175064086914,2.23,7.45,-0.64,7.8
19.41645097732544,2.2,8.69,-2.72,9.36
19.483023166656494,1.09,8.94,-3.48,9.65
19.483453273773193,-0.61,9.2,-4.58,10.29
19.483875274658203,1.74,8.02,-4.1,9.17
19.484292030334473,4.83,6.49,-1.89,8.3
19.48561716079712,8.49,3.15,-1.52,9.18
19.48688507080078,10.08,-2.28,-0.72,10.35
19.487308979034424,0.23,-3.19,0.79,3.29
19.496952056884766,-6.86,-2.74,-3.66,8.24
19.50691819190979,-1.04,0.53,-5.46,5.58
19.516301155090332,6.95,-0.01,-2.5,7.38
19.584416151046753,11.0,-1.39,-0.29,11.09
19.584848165512085,12.07,-2.31,1.11,12.33
19.5856192111969,10.75,-2.78,2.27,11.33
19.586369037628174,8.64,-3.08,2.9,9.62
19.58728814125061,6.89,-3.58,3.07,8.34
19.588282108306885,6.14,-3.48,2.82,7.6
19.588701248168945,6.26,-2.81,2.46,7.28
19.596817016601562,6.23,-2.36,2.14,6.99
19.606735229492188,5.77,-2.24,1.7,6.41
19.616077184677124,5.11,-2.07,1.3,5.66
19.68481206893921,4.38,-1.9,1.12,4.9
19.685612201690674,3.66,-1.91,1.25,4.31
19.6863911151886,2.99,-1.87,1.37,3.78
19.686809062957764,2.44,-1.67,1.45,3.29
19.687754154205322,1.86,-1.25,2.0,3.0
19.68865418434143,1.19,-0.52,2.55,2.86
19.68908715248108,1.06,0.2,2.69,2.89
19.69663429260254,0.84,1.57,1.91,2.61
19.706611156463623,-0.99,3.13,0.18,3.28
19.715914249420166,-3.72,3.63,-1.59,5.43
19.785749197006226,-5.3,4.2,-2.46,7.19
19.78643226623535,-5.64,5.24,-2.13,7.98
19.78687620162964,-5.73,6.08,-1.42,8.47
19.787299156188965,-6.16,6.12,-1.43,8.8
19.788275241851807,-6.72,5.25,-2.07,8.77
19.789210319519043,-7.72,4.45,-3.34,9.51
19.789635181427002,-9.77,4.33,-5.29,11.92
19.79644513130188,-11.46,4.54,-6.18,13.78
19.806457042694092,-11.77,3.87,-5.22,13.44
19.815773010253906,-11.0,1.9,-3.75,11.77
19.88717031478882,-10.33,-0.26,-2.23,10.57
19.887612104415894,-10.64,-1.27,-1.52,10.82
19.888036251068115,-11.35,-1.43,-2.09,11.62
19.888460159301758,-11.13,-0.84,-2.51,11.44
19.889419078826904,-8.57,4.28,-2.55,9.91
19.890316009521484,-6.51,3.75,-2.31,7.85
19.890743255615234,-8.3,0.3,-1.31,8.4
19.896270275115967,-8.04,-0.27,-0.24,8.04
19.90631628036499,-1.21,2.67,-0.3,2.94
19.91574215888977,8.73,3.06,5.3,10.66
19.987159252166748,8.15,0.98,7.52,11.13
19.98758816719055,-1.53,0.33,-0.04,1.56
19.988009214401245,-9.77,2.75,-2.89,10.55
19.988428115844727,-11.09,5.86,-2.03,12.7
19.989384174346924,-9.7,8.31,-1.18,12.82
19.99028205871582,-7.78,4.5,-0.95,9.03
19.990702152252197,-5.72,1.24,-1.34,6.0
19.996121168136597,-5.92,-0.73,-2.22,6.36
20.00613832473755,-5.09,-0.16,-1.03,5.19
20.015671253204346,-4.98,-0.74,0.06,5.03
20.087501049041748,-5.03,-1.06,-0.23,5.14
20.087940216064453,-3.99,-0.1,-0.73,4.05
20.088366985321045,-2.44,0.45,-0.18,2.48
20.08878803253174,-1.27,0.03,0.15,1.27
20.089744091033936,-0.16,-0.12,0.13,0.23
20.090656280517578,0.29,-0.04,0.11,0.31
20.091079235076904,0.11,0.1,-0.21,0.25
20.095919132232666,-0.3,0.12,-0.27,0.42
20.106043100357056,-0.43,-0.01,-0.11,0.44
20.115403175354004,-0.11,-0.1,-0.34,0.37
20.188377141952515,0.28,-0.04,-1.04,1.07
20.18882131576538,0.54,0.1,-1.96,2.03
20.18924617767334,0.3,0.16,-2.28,2.3
20.189669132232666,-0.32,-0.11,-1.67,1.7
20.190628051757812,-0.71,-0.34,-1.09,1.34
20.191530227661133,-0.69,-0.25,-0.67,0.99
20.19197130203247,-0.49,-0.03,-0.27,0.56
20.19571828842163,-0.41,0.09,0.23,0.47
20.205785274505615,-0.37,0.02,0.31,0.48
20.21525812149048,-0.04,0.18,-0.15,0.23
20.28856611251831,0.58,0.27,-0.73,0.97
20.289015293121338,0.78,0.15,-1.09,1.34
20.28943419456482,0.41,-0.03,-0.89,0.98
20.289857149124146,-0.18,-0.11,-0.75,0.77
20.290788173675537,-0.41,-0.08,-0.73,0.84
20.291718006134033,-0.26,0.05,-0.45,0.52
20.2921199798584,-0.07,0.05,-0.27,0.28
20.2955801486969,-0.05,0.06,-0.26,0.27
20.305776119232178,-0.01,0.03,-0.32,0.32
20.315147161483765,0.14,-0.14,-0.15,0.24
20.388840198516846,0.22,-0.18,-0.15,0.32
20.38927125930786,0.33,-0.1,-0.18,0.38
20.38969612121582,0.4,-0.03,-0.12,0.41
20.390116214752197,0.24,0.0,-0.16,0.28
20.391043186187744,-0.16,0.13,-0.37,0.42
20.39196515083313,-0.37,0.27,-0.42,0.62
20.39238929748535,-0.3,0.22,-0.11,0.38
20.395548105239868,-0.24,0.47,-0.32,0.61
20.40551519393921,-0.02,0.68,0.07,0.68
20.41501021385193,0.3,0.55,0.22,0.66
20.489307165145874,0.71,0.47,0.03,0.85
20.489742279052734,1.29,0.39,0.16,1.35
20.490162134170532,1.83,0.26,0.05,1.84
20.49057912826538,2.17,0.41,-0.3,2.22
20.4915452003479,2.48,0.52,-0.22,2.54
20.492473125457764,2.88,0.84,-0.21,3.0
20.492902278900146,3.0,1.35,-0.09,3.29
20.495477199554443,3.17,1.78,-0.02,3.63
20.505393028259277,3.83,2.75,-0.15,4.71
20.51485300064087,4.13,3.54,0.84,5.5
20.590081214904785,3.46,3.62,0.44,5.02
20.59050703048706,3.42,3.63,0.36,5.0
20.59092617034912,3.54,3.34,0.16,4.86
20.59134531021118,3.63,2.87,-0.47,4.65
20.592315196990967,3.82,2.7,-0.62,4.71
20.593247175216675,4.27,2.76,-0.95,5.17
20.593666076660156,4.84,2.88,-1.31,5.78
20.595192193984985,5.61,3.33,-1.23,6.63
20.605212211608887,6.32,3.97,-1.4,7.59
20.614696979522705,6.92,4.65,-1.33,8.44
20.690529108047485,7.45,5.43,-0.8,9.25
20.690957069396973,7.05,5.77,-0.41,9.11
20.6913800239563,6.02,5.93,-0.39,8.45
20.69179916381836,5.04,6.15,-0.35,7.95
20.69276213645935,4.32,6.19,-0.43,7.56
20.693669319152832,3.64,6.59,-0.96,7.58
20.69445514678955,2.82,7.68,-2.52,8.56
20.695419311523438,2.14,8.49,-2.98,9.24
20.705049991607666,0.94,9.41,-3.94,10.24
20.714488983154297,3.04,8.27,-4.63,9.95
20.79110312461853,6.26,7.66,-2.75,10.26
20.791535139083862,9.29,5.69,-1.68,11.02
20.7919602394104,11.02,0.89,-1.08,11.1
20.792379140853882,5.76,-1.6,0.51,5.99
20.793315172195435,-4.15,-1.58,-1.25,4.61
20.794546127319336,-4.65,1.06,-5.06,6.95
20.794969081878662,3.29,1.45,-4.05,5.41
20.79593324661255,9.09,-0.3,-1.13,9.16
20.804871082305908,11.16,-1.4,0.54,11.26
20.814399242401123,10.45,-1.99,1.67,10.76
20.89186120033264,8.36,-2.45,2.31,9.01
20.892295122146606,6.31,-3.3,2.72,7.62
20.892722129821777,5.27,-4.07,2.59,7.14
20.89314913749695,5.25,-4.22,2.21,7.08
20.894461154937744,5.39,-3.75,1.98,6.85
20.89541220664978,5.03,-3.19,1.71,6.19
20.89583110809326,4.28,-2.92,1.37,5.35
20.89682412147522,3.73,-2.87,1.13,4.84
20.90469217300415,3.52,-2.7,1.22,4.6
20.91433310508728,3.51,-2.49,1.6,4.59
20.99151110649109,3.31,-2.17,2.23,4.54
20.99194312095642,2.85,-1.68,2.74,4.29
20.992364168167114,2.45,-1.06,2.98,4.0
20.992783069610596,2.33,-0.12,2.58,3.47
20.994073152542114,1.0,1.43,1.3,2.17
20.995002269744873,-1.94,2.74,-0.32,3.37
20.9954252243042,-4.25,2.95,-1.4,5.35
20.99640917778015,-4.65,3.81,-1.25,6.14
21.00451421737671,-4.18,5.48,-0.46,6.9
21.01406717300415,-4.28,7.05,-0.54,8.26
21.092453002929688,-5.15,7.61,-1.98,9.39
21.092881202697754,-6.45,6.99,-3.64,10.18
21.093302249908447,-7.53,5.77,-5.23,10.83
21.09403920173645,-9.38,5.46,-6.29,12.54
21.094985008239746,-11.4,5.35,-6.1,13.99
21.095900058746338,-12.29,3.76,-5.17,13.85
21.09632110595703,-12.12,0.99,-4.01,12.8
21.09728717803955,-11.96,-0.52,-3.37,12.43
21.10454797744751,-11.4,-0.63,-3.25,11.87
21.11403799057007,-9.71,1.45,-2.57,10.14
21.19279432296753,-9.15,0.4,-1.79,9.33
21.193233013153076,-10.46,0.9,-2.55,10.8
21.193968296051025,-10.71,1.23,-3.22,11.25
21.19438910484314,-10.38,0.4,-2.8,10.75
21.19532823562622,-8.25,1.38,-2.57,8.75
21.1962411403656,0.77,5.01,-1.15,5.19
21.196662187576294,9.11,4.6,5.93,11.8
21.197622299194336,4.96,1.27,5.14,7.25
21.204544067382812,-4.36,1.03,-0.43,4.5
21.213841199874878,-9.06,2.1,-1.34,9.39
21.29471731185913,-8.91,4.37,-1.9,10.1
21.295154094696045,-7.92,5.63,-2.99,10.16
21.295579195022583,-6.03,3.31,-1.87,7.12
21.296001195907593,-6.02,0.32,-2.31,6.45
21.296940326690674,-6.32,0.27,-2.4,6.76
21.297856330871582,-5.01,0.92,-0.03,5.09
21.29827618598938,-4.63,-1.33,0.86,4.89
21.299236297607422,-4.38,-1.6,0.12,4.66
21.378618240356445,-3.1,-0.36,-0.34,3.13
21.379048109054565,-1.65,0.35,-0.02,1.68
21.379486083984375,-0.98,0.02,-0.25,1.01
21.379908084869385,-0.51,-0.15,-0.43,0.68
21.380325317382812,0.08,0.02,-0.75,0.75
21.380743980407715,0.26,0.15,-0.85,0.9
21.3816921710968,-0.04,0.14,-0.56,0.57
21.38260507583618,-0.56,-0.05,-0.58,0.8
21.383519172668457,-1.01,0.04,-1.07,1.47
21.394134044647217,-1.16,0.13,-1.17,1.65
21.479132175445557,-1.17,0.11,-1.24,1.7
21.479578018188477,-1.28,0.26,-1.2,1.77
21.480018138885498,-1.16,0.2,-0.68,1.35
21.48044729232788,-0.83,-0.01,-0.3,0.88
21.480874061584473,-0.5,0.08,-0.04,0.5
21.48129916191101,0.03,0.22,0.22,0.31
21.482230186462402,0.48,0.27,0.21,0.58
21.483472108840942,0.36,0.23,-0.44,0.61
21.48388910293579,-0.01,0.14,-0.96,0.97
21.49391508102417,-0.27,0.04,-1.01,1.04
21.578620195388794,-0.48,-0.07,-1.17,1.26
21.579060077667236,-0.63,-0.08,-1.02,1.2
21.579485177993774,-0.43,-0.04,-0.63,0.76
21.579920291900635,-0.15,0.0,-0.46,0.48
21.580344200134277,0.11,0.13,-0.56,0.58
21.580764293670654,0.55,0.18,-0.89,1.06
21.581743240356445,0.94,-0.03,-0.62,1.12
21.582704067230225,0.71,-0.06,-0.45,0.84
21.583465099334717,0.33,0.1,-0.29,0.45
21.59380531311035,0.14,0.07,-0.15,0.21
21.677157163619995,0.09,0.02,-0.51,0.51
21.679623126983643,0.41,-0.13,-0.91,1.0
21.68005132675171,0.67,-0.52,-0.72,1.11
21.680477142333984,0.43,-0.46,-0.64,0.89
21.680902004241943,0.09,0.06,-0.59,0.59
21.68132209777832,-0.23,0.39,0.02,0.45
21.682260990142822,-0.32,0.54,0.51,0.8
21.683582305908203,-0.28,0.71,0.64,0.99
21.68401527404785,-0.02,0.69,0.74,1.01
21.693689107894897,0.34,0.55,0.56,0.85
21.703550100326538,0.7,0.24,0.21,0.76
21.778249263763428,1.37,0.26,-0.01,1.39
21.778685092926025,2.21,0.6,0.12,2.29
21.779105186462402,3.09,1.0,0.22,3.25
21.77952003479004,2.93,1.3,0.48,3.24
21.779938220977783,2.97,1.59,0.49,3.4
21.780863285064697,3.13,1.78,0.22,3.6
21.781760215759277,3.59,1.67,0.14,3.96
21.78285026550293,4.01,1.8,-0.07,4.39
21.793477058410645,3.98,2.09,-0.35,4.5
21.803399085998535,4.07,2.24,-0.23,4.65
21.878262996673584,4.1,2.55,-0.58,4.86
21.878698110580444,3.81,2.87,-0.48,4.79
21.87912607192993,3.8,3.18,-0.35,4.96
21.879549026489258,4.04,3.48,-0.5,5.35
21.879951000213623,4.34,3.74,-0.5,5.75
21.88087511062622,4.93,4.03,-0.34,6.37
21.88178515434265,5.57,4.39,-0.32,7.09
21.88266921043396,6.2,4.67,-0.47,7.77
21.893550157546997,6.77,4.81,-0.48,8.31
21.903367042541504,6.68,4.63,-0.33,8.13
21.977980136871338,5.51,4.45,-0.47,7.09
21.97841215133667,4.49,4.86,-0.33,6.62
21.978835105895996,4.2,5.67,-0.24,7.06
21.979258060455322,4.31,6.43,-0.31,7.74
21.979687213897705,3.54,7.61,-0.93,8.44
21.980642318725586,1.58,8.65,-2.19,9.06
21.981556177139282,-1.11,8.9,-3.0,9.45
21.982537269592285,0.32,9.12,-4.4,10.13
21.99324917793274,4.05,8.1,-3.22,9.61
22.003172159194946,7.19,6.74,-2.21,10.09
22.078071117401123,9.76,3.35,-1.72,10.46
22.078505992889404,8.71,-0.98,-0.29,8.76
22.078923225402832,-0.86,-0.98,0.17,1.31
22.07932710647583,-5.44,0.36,-4.67,7.17
22.07974910736084,1.02,1.81,-5.68,6.04
22.08072328567505,7.72,0.41,-2.36,8.08
22.081639289855957,10.83,-0.34,0.15,10.83
22.082491159439087,11.03,-1.19,1.79,11.23
22.093003273010254,9.32,-1.75,2.67,9.85
22.10307025909424,7.38,-2.49,2.95,8.32
22.17887830734253,6.18,-3.24,2.81,7.52
22.179314136505127,5.8,-3.55,2.62,7.28
22.179745197296143,6.02,-3.38,2.25,7.26
22.18016529083252,6.18,-3.04,1.57,7.06
22.180583000183105,6.08,-2.83,1.16,6.8
22.181546211242676,5.88,-2.61,0.97,6.5
22.18285608291626,5.54,-2.3,1.07,6.09
22.183276176452637,4.84,-2.12,1.53,5.5
22.192928314208984,4.01,-2.07,1.96,4.92
22.20292329788208,3.38,-1.73,2.08,4.32
22.278634071350098,3.05,-1.04,2.04,3.81
22.27906608581543,2.83,0.08,1.77,3.33
22.279487133026123,1.59,1.84,0.88,2.58
22.279905319213867,-0.94,3.72,-0.74,3.9
22.280322074890137,-3.37,4.97,-1.93,6.3
22.281239986419678,-4.52,6.3,-2.04,8.01
22.282535076141357,-5.27,6.95,-1.46,8.84
22.282968044281006,-6.21,7.35,-1.61,9.75
22.292705059051514,-6.51,6.94,-2.09,9.74
22.30269432067871,-6.72,5.76,-2.45,9.18
22.379531145095825,-7.56,5.83,-3.67,10.22
22.37997531890869,-9.15,6.5,-5.49,12.49
22.380415201187134,-11.3,6.42,-6.65,14.59
22.380848169326782,-12.96,4.51,-6.21,15.06
22.381282329559326,-13.17,1.85,-4.83,14.14
22.38258719444275,-12.77,0.06,-3.8,13.32
22.383498191833496,-12.65,-1.26,-3.25,13.12
22.38392925262451,-12.05,-0.46,-3.28,12.49
22.392603158950806,-10.76,2.77,-3.41,11.62
22.40263605117798,-11.18,0.38,-4.05,11.89
22.479584217071533,-10.94,-1.3,-3.77,11.64
22.48001718521118,-9.78,-0.63,-2.74,10.17
22.480441093444824,-6.77,1.97,-1.98,7.32
22.48086929321289,2.49,7.31,-0.15,7.72
22.481319189071655,10.88,5.6,7.53,14.36
22.48258924484253,6.01,0.06,5.83,8.37
22.48354721069336,-4.09,-0.02,-0.55,4.12
22.48396921157837,-9.5,1.93,-0.99,9.74
22.492505073547363,-10.09,2.78,-0.27,10.46
22.50243902206421,-10.03,4.4,-3.27,11.43
22.579750061035156,-8.33,3.66,-3.81,9.86
22.580196142196655,-9.51,1.62,-1.85,9.82
22.580626010894775,-8.25,3.09,-0.32,8.81
22.581046104431152,-7.26,-0.25,1.35,7.38
22.581786155700684,-6.69,-2.31,0.75,7.11
22.582805156707764,-5.33,-0.92,-0.83,5.47
22.583763122558594,-3.22,0.06,-0.48,3.25
22.584187984466553,-1.17,0.33,0.09,1.21
22.592759132385254,0.83,0.29,-0.12,0.88
22.602375030517578,1.71,-0.1,-1.16,2.06
22.680711269378662,1.59,-0.21,-2.34,2.83
22.68147897720337,1.12,-0.15,-2.65,2.88
22.68190622329712,0.43,-0.12,-2.62,2.65
22.682332038879395,-0.49,0.09,-3.19,3.22
22.682753086090088,-1.08,0.34,-2.98,3.18
22.68372631072998,-1.01,-0.04,-2.2,2.42
22.684650182724,-0.72,-0.05,-2.15,2.26
22.685081005096436,-0.06,0.03,-1.62,1.62
22.692182064056396,0.32,-0.14,-0.98,1.04
22.702214241027832,0.52,-0.37,0.02,0.63
22.78052806854248,0.7,-0.18,0.71,1.01
22.781313180923462,0.81,0.05,1.0,1.28
22.781737327575684,0.57,0.0,0.99,1.14
22.78214931488037,0.1,0.1,0.36,0.38
22.782570123672485,-0.23,0.26,-0.23,0.41
22.78351616859436,-0.44,0.18,-0.62,0.78
22.784406185150146,-0.76,0.2,-0.77,1.1
22.784823179244995,-1.0,0.19,-0.74,1.25
22.79198408126831,-0.7,0.11,-0.55,0.89
22.802040100097656,-0.2,0.09,-0.19,0.29
22.880458116531372,0.17,0.14,0.1,0.24
22.881263256072998,0.32,0.22,0.28,0.47
22.881678104400635,0.17,0.22,0.37,0.46
22.88209819793701,-0.11,0.28,0.28,0.41
22.882519245147705,0.06,0.34,0.48,0.59
22.883467197418213,0.58,0.22,0.76,0.98
22.884350299835205,1.05,0.01,0.71,1.26
22.88477325439453,1.44,-0.26,1.09,1.82
22.891858100891113,1.86,-0.39,1.2,2.24
22.901793003082275,2.27,-0.36,0.86,2.45
22.980271100997925,2.55,-0.17,0.76,2.66
22.98107624053955,2.68,0.16,0.34,2.7
22.981510162353516,2.55,0.44,-0.32,2.6
22.981933116912842,2.03,0.36,-0.66,2.16
22.982351303100586,1.83,0.13,-0.33,1.86
22.983294010162354,1.93,0.32,-0.28,1.97
22.984207153320312,1.97,0.49,-0.41,2.07
22.98462414741516,2.06,0.91,-0.84,2.4
22.99172019958496,1.95,1.26,-1.28,2.65
23.001846313476562,1.68,1.63,-1.45,2.75
23.079764127731323,1.64,1.89,-1.18,2.76
23.08019733428955,1.96,2.42,-1.25,3.35
23.080939292907715,3.0,3.39,-0.8,4.59
23.081361293792725,3.24,3.46,0.5,4.76
23.081778049468994,4.38,3.38,0.58,5.56
23.08273410797119,5.64,4.09,0.68,7.0
23.0836501121521,6.85,5.24,-0.01,8.62
23.0840802192688,7.31,6.5,-0.53,9.79
23.091569185256958,7.52,7.36,-0.48,10.53
23.101693153381348,8.32,8.1,-0.7,11.63
23.180310249328613,9.25,8.68,-1.04,12.72
23.181124210357666,9.43,8.58,-1.66,12.85
23.18154525756836,8.77,8.46,-1.85,12.32
23.181968212127686,7.79,9.14,-1.92,12.16
23.182388305664062,6.54,10.81,-1.48,12.72
23.183337211608887,4.05,12.49,-1.64,13.23
23.18427801132202,0.81,13.82,-3.66,14.31
23.184699058532715,-2.34,14.02,-7.28,15.96
23.19151210784912,1.49,12.25,-9.25,15.42
23.20143699645996,7.27,10.27,-5.39,13.68
23.280198097229004,11.61,6.71,-1.22,13.46
23.28096318244934,4.31,4.44,1.93,6.48
23.281386137008667,-9.23,1.87,-1.9,9.6
23.281811237335205,-7.07,1.68,-5.36,9.02
23.282236099243164,2.03,2.14,-2.07,3.6
23.283205032348633,6.82,1.14,0.04,6.91
23.284133195877075,7.85,0.24,0.76,7.89
23.2845561504364,6.37,-1.51,1.46,6.7
23.29130506515503,4.77,-3.57,1.83,6.23
23.301305294036865,3.54,-4.16,1.4,5.63
23.380958080291748,3.12,-4.31,0.96,5.4
23.381603240966797,3.24,-4.95,1.0,6.0
23.38202428817749,3.16,-5.7,1.27,6.63
23.382448196411133,3.0,-6.29,1.56,7.14
23.38286828994751,2.97,-6.63,1.82,7.48
23.383843183517456,3.09,-6.76,1.97,7.68
23.38478422164917,3.18,-6.83,2.14,7.83
23.385210037231445,3.21,-6.88,2.33,7.94
23.391120195388794,3.07,-6.84,2.46,7.89
23.40110206604004,2.79,-6.9,2.68,7.91
23.480882167816162,2.51,-6.94,2.87,7.91
23.481510162353516,1.97,-6.98,2.9,7.81
23.481930255889893,1.28,-7.09,2.68,7.68
23.482354164123535,0.61,-7.18,2.22,7.54
23.482783317565918,0.16,-7.15,2.0,7.42
23.483750104904175,0.14,-7.06,2.13,7.37
23.48466420173645,0.09,-6.99,2.13,7.3
23.485072135925293,-0.33,-6.88,2.04,7.18
23.491010189056396,-1.03,-6.78,2.06,7.16
23.50101900100708,-1.75,-6.75,2.22,7.31
23.580308198928833,-2.52,-6.56,2.08,7.32
23.580939292907715,-3.38,-6.1,1.52,7.13
23.58137321472168,-4.3,-5.3,1.15,6.92
23.581787109375,-5.22,-4.36,1.31,6.92
23.58220410346985,-6.35,-3.2,1.02,7.18
23.58320426940918,-7.78,-1.86,0.02,7.99
23.584150314331055,-9.24,-0.58,-1.16,9.33
23.584575176239014,-10.13,0.63,-2.19,10.38
23.590789318084717,-9.96,1.39,-2.96,10.48
23.60091209411621,-9.07,1.59,-3.33,9.79
23.6814022064209,-8.69,1.47,-3.24,9.39
23.681865215301514,-8.6,2.71,-3.65,9.72
23.68228816986084,-4.1,13.31,-7.14,15.65
23.68271517753601,1.45,11.12,-7.44,13.45
23.683134078979492,-5.73,21.69,-3.37,22.68
23.68407416343689,-12.26,32.82,-6.96,35.71
23.684981107711792,-10.66,14.79,-0.42,18.23
23.685408115386963,-5.75,0.79,-0.22,5.8
23.69056224822998,-4.07,-4.56,3.3,6.94
23.70069932937622,-2.12,-9.79,6.32,11.84
23.782104015350342,-4.04,-7.71,2.32,9.0
23.782564163208008,-6.2,-1.51,-2.55,6.87
23.78299117088318,-4.95,3.15,-3.2,6.68
23.783416271209717,-2.51,3.4,-3.5,5.48
23.78384017944336,0.22,0.31,-1.53,1.57
23.784796237945557,1.26,-0.57,-0.09,1.38
23.78577709197998,0.7,0.16,-0.41,0.82
23.786197185516357,0.97,0.12,-0.34,1.03
23.790396213531494,1.29,0.42,-1.73,2.19
23.800544261932373,-0.58,0.57,-2.36,2.49
23.882508277893066,-2.48,0.16,-1.4,2.85
23.882951259613037,-2.24,0.4,-0.78,2.4
23.883371114730835,-1.83,0.16,-1.39,2.3
23.88379430770874,-2.41,-0.5,-1.62,2.94
23.884218215942383,-2.3,-0.46,-0.71,2.45
23.885152101516724,-1.07,0.18,-0.34,1.13
23.886101245880127,-0.13,0.23,0.02,0.26
23.88651132583618,0.18,-0.11,0.02,0.21
23.89028310775757,-0.04,-0.16,-0.2,0.25
23.90037512779236,-0.74,-0.01,-0.35,0.81
23.982980251312256,-1.24,0.12,-0.41,1.31
23.983431100845337,-1.11,0.18,-0.4,1.19
23.983861207962036,-0.9,0.1,-0.59,1.08
23.98430824279785,-0.79,0.01,-0.73,1.07
23.984734058380127,-0.62,-0.16,-0.75,0.98
23.985695123672485,-0.38,-0.38,-0.65,0.84
23.98660898208618,-0.16,-0.4,-0.43,0.6
23.987001180648804,-0.16,-0.4,-0.33,0.54
23.9903621673584,-0.27,-0.35,-0.42,0.6
24.000269174575806,-0.31,-0.22,-0.02,0.38
24.083112239837646,-0.19,0.06,0.29,0.35
24.08355712890625,0.21,0.23,-0.01,0.31
24.083981037139893,0.51,0.16,0.46,0.7
24.08440923690796,0.5,0.11,0.87,1.0
24.084819316864014,0.28,0.04,0.96,1.0
24.085764169692993,0.24,0.07,0.99,1.02
24.086656093597412,0.71,-0.02,0.46,0.84
24.08707904815674,1.38,0.01,-0.12,1.38
24.09034514427185,1.67,0.25,-0.05,1.68
24.10002112388611,1.64,0.74,0.2,1.81
24.183001041412354,1.83,0.95,0.12,2.06
24.18344211578369,2.13,0.83,-0.26,2.3
24.183861255645752,2.51,0.63,-0.39,2.61
24.184280157089233,3.09,0.69,-0.58,3.21
24.18470001220703,3.32,0.95,-0.59,3.5
24.18566131591797,3.75,0.89,-0.2,3.85
24.186609268188477,4.7,0.98,-0.21,4.8
24.18703031539917,5.3,1.71,-0.11,5.57
24.190149307250977,5.11,2.61,-0.33,5.74
24.199925184249878,5.38,3.93,-1.04,6.74
24.28317928314209,5.75,4.78,0.54,7.49
24.283623218536377,4.94,4.03,0.6,6.4
24.284041166305542,5.15,3.86,0.92,6.5
24.284459114074707,5.75,3.97,0.87,7.04
24.284879207611084,6.2,4.47,0.37,7.65
24.28583526611328,6.61,5.97,0.01,8.9
24.286744117736816,7.17,7.42,-0.44,10.32
24.28716230392456,8.42,8.58,-0.5,12.03
24.290220260620117,9.42,8.78,-0.56,12.88
24.299835205078125,9.2,8.32,-0.96,12.44
24.38278102874756,8.18,8.33,-1.25,11.74
24.38324499130249,6.57,9.67,-0.79,11.71
24.383665084838867,5.09,11.37,-1.15,12.51
24.384085178375244,4.37,12.77,-2.06,13.65
24.384504318237305,-0.35,13.52,-1.29,13.58
24.38542914390564,-4.2,13.52,-5.91,15.34
24.386301040649414,1.72,12.73,-8.92,15.63
24.38672113418579,8.53,9.86,-5.55,14.16
24.389910221099854,10.95,6.98,-0.98,13.02
24.399644136428833,-1.81,4.65,0.44,5.0
24.482320308685303,-13.81,1.42,-5.19,14.82
24.48287320137024,-8.33,2.38,-5.71,10.37
24.483301162719727,0.6,3.07,-1.61,3.51
24.48373508453369,4.35,1.07,0.35,4.49
24.48418617248535,4.69,-0.38,1.0,4.81
24.485124111175537,3.49,-1.42,1.37,4.0
24.48602819442749,3.03,-2.86,1.6,4.46
24.486451148986816,3.26,-3.85,1.32,5.21
24.489461183547974,3.39,-4.23,0.97,5.5
24.49949312210083,3.04,-4.78,0.71,5.7
24.582889080047607,2.45,-5.3,0.73,5.88
24.583335161209106,2.14,-5.87,1.04,6.33
24.583765029907227,2.17,-6.59,1.49,7.09
24.584187030792236,2.28,-7.14,1.83,7.71
24.584614276885986,2.44,-7.48,2.08,8.13
24.585585117340088,2.56,-7.7,2.11,8.38
24.58652925491333,2.58,-7.8,2.07,8.47
24.586949110031128,2.6,-7.93,2.06,8.59
24.58939504623413,2.91,-8.08,2.02,8.82
24.599436283111572,3.5,-8.26,2.16,9.22
24.68259620666504,3.88,-8.44,2.36,9.58
24.683040142059326,4.01,-8.54,2.67,9.8
24.68346118927002,3.96,-8.59,2.85,9.87
24.683879137039185,3.76,-8.55,2.83,9.75
24.684298038482666,3.75,-8.1,2.85,9.36
24.685221195220947,3.64,-7.65,3.02,8.99
24.6861310005188,3.19,-7.43,3.2,8.69
24.686559200286865,2.81,-7.24,3.32,8.44
24.68916130065918,2.38,-6.96,3.55,8.16
24.69927215576172,1.58,-6.39,3.63,7.51
24.781410217285156,0.39,-5.7,3.24,6.56
24.781853199005127,-0.89,-4.88,2.63,5.61
24.782281160354614,-2.03,-3.84,2.23,4.88
24.782708168029785,-3.38,-2.81,1.47,4.63
24.783128261566162,-4.85,-1.95,-0.09,5.22
24.78406310081482,-6.12,-1.03,-1.77,6.45
24.785008192062378,-7.25,-0.24,-2.23,7.58
24.785449028015137,-8.53,0.03,-2.3,8.83
24.789053201675415,-9.87,-0.52,-2.58,10.21
24.799025058746338,-10.55,-0.96,-2.69,10.92
24.881264209747314,-10.09,-0.54,-3.17,10.59
24.88171625137329,-9.0,0.16,-3.38,9.61
24.88214612007141,-8.55,0.81,-3.28,9.19
24.88257122039795,-8.61,1.59,-3.59,9.46
24.882987022399902,-6.48,11.2,-7.11,14.76
24.883955001831055,1.06,8.65,-9.54,12.92
24.884854316711426,0.77,18.81,-7.11,20.12
24.885276317596436,2.29,43.06,-0.67,43.12
24.888822078704834,-7.62,23.06,-3.01,24.47
24.898922204971313,-10.58,2.64,-1.91,11.07
24.974919319152832,-9.31,-8.16,7.02,14.23
24.97542715072632,-6.72,-14.6,5.29,16.92
24.975893020629883,-5.78,-7.17,-0.67,9.23
24.97633123397827,-4.65,1.22,-4.9,6.86
24.976770162582397,-3.08,3.71,-2.12,5.26
24.977742195129395,-0.53,1.88,-2.14,2.89
24.97900414466858,1.32,-0.14,-0.8,1.54
24.97942614555359,0.69,0.09,-0.35,0.77
24.988718032836914,-0.1,0.89,-1.14,1.44
24.998780250549316,0.37,0.47,-0.71,0.92
25.07492733001709,0.52,0.19,-1.21,1.33
25.0753812789917,-0.2,0.44,-1.8,1.86
25.07579016685486,-0.8,0.44,-2.25,2.42
25.076197147369385,-1.09,0.06,-2.05,2.32
25.076627254486084,-1.45,-0.33,-1.33,1.99
25.077932119369507,-1.38,-0.28,-0.86,1.64
25.078864097595215,-0.76,0.1,-0.36,0.84
25.079284191131592,0.21,0.16,0.18,0.31
25.08862018585205,0.83,-0.09,0.29,0.88
25.098701000213623,0.58,-0.44,0.67,0.98
25.175132274627686,0.21,-0.12,0.74,0.77
25.175645112991333,-0.01,0.33,0.2,0.38
25.176080226898193,-0.33,0.43,-0.19,0.57
25.176513195037842,-0.62,0.31,-0.57,0.89
25.176947116851807,-0.56,0.13,-0.58,0.81
25.178213119506836,-0.47,-0.06,-0.76,0.89
25.179104328155518,-0.32,-0.09,-0.89,0.95
25.17952299118042,0.05,0.08,-0.62,0.62
25.188366174697876,0.58,0.35,0.09,0.68
25.198441982269287,0.81,0.23,0.51,0.98
25.275615215301514,0.83,-0.1,0.71,1.09
25.27606511116028,0.87,-0.26,0.63,1.1
25.27650213241577,0.77,-0.15,0.26,0.82
25.276955127716064,0.51,-0.01,0.08,0.51
25.27768898010254,0.47,0.12,-0.24,0.54
25.27863121032715,0.53,0.17,-0.15,0.57
25.279520988464355,0.62,0.06,0.02,0.62
25.2799391746521,0.95,-0.11,0.08,0.95
25.28818917274475,1.46,-0.16,0.15,1.47
25.298235177993774,2.12,-0.07,0.08,2.12
25.37485408782959,2.49,0.08,0.06,2.49
25.37529230117798,2.54,0.29,-0.46,2.59
25.375715255737305,2.45,0.4,-0.72,2.58
25.376134157180786,2.25,0.63,-0.55,2.4
25.376553058624268,1.69,1.02,-0.25,1.98
25.377812147140503,1.8,1.5,0.04,2.34
25.378743171691895,2.4,2.01,-0.12,3.13
25.37918710708618,2.91,2.21,0.15,3.65
25.38812017440796,3.74,2.33,-0.54,4.43
25.398130178451538,4.78,2.92,-0.09,5.6
25.475033283233643,4.32,3.54,0.38,5.59
25.475484132766724,4.03,3.71,0.06,5.47
25.475906133651733,4.28,3.69,0.42,5.66
25.4763240814209,4.93,3.42,0.01,6.0
25.476742267608643,5.31,3.58,-0.05,6.4
25.478000164031982,5.96,4.3,-0.23,7.35
25.47892999649048,7.02,5.94,-0.57,9.21
25.47935199737549,8.36,7.87,-0.7,11.5
25.487967014312744,10.08,8.61,-0.27,13.25
25.498141288757324,10.81,8.6,-0.21,13.81
25.575820207595825,10.22,8.53,0.0,13.31
25.576273202896118,8.96,9.43,-0.74,13.02
25.57671618461609,7.07,11.37,-2.16,13.56
25.57748818397522,5.75,13.73,-3.32,15.25
25.577911138534546,4.31,15.16,-3.54,16.15
25.578869104385376,-0.91,15.99,-3.94,16.49
25.57981014251709,-3.62,15.34,-9.31,18.3
25.580233097076416,2.95,13.13,-9.37,16.39
25.587852001190186,9.42,8.99,-4.7,13.84
25.59794330596924,7.59,5.11,-0.63,9.17
25.675332069396973,-8.4,2.18,-2.72,9.09
25.675774097442627,-13.26,0.21,-7.63,15.29
25.676197052001953,-3.76,2.69,-3.99,6.1
25.676626205444336,3.51,1.78,-1.57,4.23
25.67736315727234,4.96,-0.44,-0.52,5.0
25.678322315216064,4.04,-1.95,0.32,4.49
25.679285049438477,2.9,-3.26,0.78,4.43
25.67970609664917,2.49,-4.43,0.72,5.13
25.68779706954956,2.68,-5.33,0.66,6.0
25.697867155075073,3.04,-6.16,0.65,6.89
25.77493715286255,3.14,-6.53,0.81,7.29
25.77538299560547,3.38,-6.48,1.16,7.4
25.77580499649048,3.74,-8.17,1.78,9.15
25.77627921104431,3.49,-10.49,2.53,11.34
25.777047157287598,4.0,-10.73,3.13,11.87
25.77802610397339,5.02,-9.38,3.32,11.14
25.778964042663574,5.77,-8.54,3.22,10.79
25.77938222885132,5.91,-8.46,3.32,10.84
25.787573099136353,5.84,-8.45,3.61,10.88
25.797723293304443,5.81,-8.33,3.77,10.83
25.807043075561523,5.57,-8.17,3.74,10.57
25.876002311706543,4.9,-8.17,3.58,10.17
25.876784324645996,4.09,-8.17,3.36,9.73
25.877202033996582,3.39,-8.27,3.32,9.53
25.87761926651001,2.77,-8.44,3.47,9.53
25.878576278686523,2.44,-8.41,3.39,9.39
25.879509210586548,2.32,-8.24,3.34,9.18
25.879934310913086,2.07,-7.89,3.21,8.76
25.88749599456787,1.29,-7.33,2.57,7.87
25.89747714996338,0.24,-6.55,1.46,6.71
25.90669012069702,-1.15,-5.55,0.42,5.68
25.976065158843994,-2.92,-4.48,-0.03,5.34
25.976890087127686,-4.88,-3.36,-0.36,5.93
25.977333068847656,-6.7,-2.37,-1.26,7.21
25.977769136428833,-8.2,-1.23,-2.16,8.56
25.978764057159424,-9.66,-0.13,-2.91,10.08
25.979719161987305,-10.89,0.88,-3.93,11.61
25.98014497756958,-11.23,1.66,-5.11,12.44
25.987357139587402,-10.44,1.92,-5.63,12.01
25.99727201461792,-10.07,1.28,-5.08,11.35
26.006704330444336,-10.82,0.42,-3.98,11.53
26.076073169708252,-12.02,0.66,-3.52,12.54
26.076847076416016,-7.9,12.32,-7.79,16.57
26.07728099822998,0.67,14.37,-5.99,15.58
26.07771611213684,6.28,29.55,0.81,30.22
26.07869529724121,6.88,33.48,6.05,34.71
26.079671144485474,0.12,13.12,4.44,13.85
26.080090045928955,-5.2,-0.19,-7.02,8.73
26.08715510368347,-10.14,1.89,-3.67,10.94
26.097182273864746,-8.31,-0.63,6.66,10.66
26.10658597946167,-5.52,-6.28,3.82,9.19
26.17477321624756,-6.69,-4.82,-1.12,8.32
26.175279140472412,-5.89,-0.84,-2.97,6.64
26.175719261169434,-4.18,1.12,-2.96,5.24
26.176470279693604,-2.12,0.43,-1.58,2.67
26.177500247955322,-0.82,-0.33,-1.13,1.43
26.178439140319824,0.56,0.31,-1.25,1.4
26.178863048553467,1.5,1.23,-1.64,2.54
26.18699598312378,1.39,0.95,-1.28,2.11
26.197049140930176,0.54,0.13,-0.43,0.7
26.20642113685608,-0.71,-0.09,-0.84,1.1
26.27552032470703,-1.46,0.3,-2.22,2.67
26.276287078857422,-1.45,0.42,-2.36,2.8
26.276729106903076,-1.41,-0.05,-1.51,2.06
26.277198314666748,-1.33,-0.18,-0.8,1.56
26.27818202972412,-0.9,-0.05,-0.32,0.95
26.279110193252563,-0.08,-0.04,-0.11,0.14
26.279529094696045,0.72,0.0,-0.45,0.84
26.286986112594604,0.82,-0.07,-0.66,1.05
26.29689598083496,0.3,-0.26,-0.43,0.58
26.306313037872314,-0.41,-0.23,-0.71,0.85
26.37563419342041,-0.82,0.09,-0.73,1.1
26.376399993896484,-0.75,0.11,-0.39,0.85
26.37682819366455,-0.41,0.04,-0.22,0.46
26.377249240875244,0.01,0.19,-0.34,0.38
26.378218173980713,0.43,0.14,0.01,0.45
26.37912130355835,0.83,-0.24,0.66,1.08
26.37954807281494,1.38,-0.43,0.9,1.7
26.386640071868896,1.78,-0.15,0.99,2.04
26.396677017211914,1.92,0.2,1.2,2.27
26.406012058258057,1.87,0.21,1.58,2.45
26.47585105895996,2.01,0.09,1.83,2.71
26.47654914855957,2.22,0.06,0.96,2.41
26.476977109909058,1.85,0.14,-0.26,1.87
26.477400302886963,1.27,0.23,-0.16,1.3
26.478332996368408,1.21,0.53,-0.49,1.4
26.47929310798645,1.33,0.74,-0.85,1.74
26.479722023010254,1.56,0.67,-0.44,1.75
26.486515998840332,1.9,0.45,-0.15,1.95
26.496615171432495,2.64,0.28,-0.07,2.65
26.505966186523438,3.18,0.7,-0.57,3.3
26.57542133331299,3.44,1.25,-0.98,3.78
26.576223134994507,3.42,1.72,-0.72,3.89
26.57665514945984,2.55,2.56,-0.23,3.62
26.577081203460693,3.0,3.27,-0.16,4.44
26.578068256378174,2.37,2.9,1.45,4.01
26.579026222229004,2.24,2.4,1.52,3.61
26.579440116882324,2.68,2.41,1.8,4.02
26.586419105529785,3.16,2.36,1.12,4.09
26.5964412689209,3.44,2.44,0.42,4.23
26.605881214141846,3.75,2.4,-0.07,4.45
26.67571520805359,4.42,2.5,-0.29,5.08
26.67637300491333,5.67,2.99,-0.2,6.41
26.676798105239868,7.17,3.8,-0.31,8.12
26.677223205566406,8.57,5.47,-0.59,10.18
26.678200244903564,9.24,8.0,-1.27,12.28
26.679115295410156,9.27,9.44,-0.87,13.25
26.67953109741211,8.74,10.2,-0.78,13.45
26.686201095581055,7.81,11.01,-1.4,13.57
26.696328163146973,6.72,12.63,-2.81,14.57
26.705764293670654,6.08,14.52,-3.03,16.03
26.77595806121826,2.78,15.72,-1.35,16.02
26.77681827545166,-2.72,16.26,-5.44,17.36
26.777268171310425,-1.75,15.65,-10.84,19.11
26.777722120285034,4.87,13.96,-7.55,16.6
26.77871799468994,10.09,9.66,-2.73,14.23
26.77966022491455,2.84,6.32,0.91,6.98
26.780081272125244,-15.39,1.81,-3.15,15.81
26.78608012199402,-15.44,1.0,-7.89,17.36
26.79613208770752,-2.3,2.36,-3.64,4.91
26.805514097213745,4.27,1.01,-0.85,4.46
26.87346601486206,3.91,-0.51,0.8,4.02
26.873900175094604,1.97,-1.21,1.91,2.99
26.874317169189453,1.22,-2.79,2.41,3.88
26.874759197235107,2.16,-4.22,1.92,5.11
26.876399993896484,3.38,-5.02,1.25,6.17
26.877320289611816,3.38,-5.7,1.04,6.7
26.877721309661865,2.36,-6.14,1.38,6.72
26.886096000671387,1.74,-6.71,1.97,7.2
26.896038055419922,2.08,-7.59,2.63,8.29
26.905479192733765,3.09,-8.31,3.11,9.39
26.974584102630615,4.56,-8.55,3.21,10.2
26.975714206695557,5.53,-8.25,3.21,10.43
26.976121187210083,5.8,-7.76,3.26,10.22
26.976555109024048,5.81,-7.58,3.3,10.1
26.977529048919678,5.92,-7.81,3.34,10.35
26.97846221923828,6.05,-7.99,3.33,10.56
26.978893280029297,5.95,-8.02,3.39,10.54
26.985870122909546,5.67,-8.04,3.63,10.48
26.99587321281433,5.44,-8.09,3.76,10.44
27.005117177963257,5.2,-8.25,3.81,10.46
27.074100017547607,4.96,-8.46,3.83,10.52
27.0745792388916,4.72,-8.7,3.92,10.64
27.075650215148926,4.52,-8.77,3.86,10.59
27.076097011566162,4.45,-8.68,3.63,10.4
27.07707929611206,4.28,-8.54,3.31,10.1
27.078023195266724,3.36,-8.51,3.21,9.69
27.0784649848938,1.64,-8.68,3.12,9.36
27.08572816848755,-0.05,-8.59,2.57,8.96
27.095739126205444,-1.36,-8.05,1.87,8.37
27.105069160461426,-2.25,-7.15,1.51,7.64
27.173923015594482,-3.2,-5.82,1.27,6.76
27.17438817024231,-4.46,-4.36,0.67,6.27
27.175137996673584,-5.57,-2.82,-0.77,6.29
27.175899028778076,-6.06,-0.82,-2.16,6.48
27.1768741607666,-6.15,1.08,-2.15,6.6
27.17779517173767,-6.37,1.99,-1.82,6.91
27.17822027206421,-7.57,1.32,-2.33,8.02
27.185631275177002,-9.17,0.97,-3.07,9.71
27.19560718536377,-9.96,1.79,-3.64,10.75
27.204936027526855,-10.0,2.46,-3.64,10.92
27.273555278778076,-9.83,4.28,-3.58,11.3
27.27400827407837,-4.5,17.46,-8.24,19.82
27.27481508255005,4.6,17.49,-9.07,20.23
27.275243282318115,5.92,36.19,-4.48,36.94
27.27668333053589,-3.91,42.94,-0.1,43.11
27.277595043182373,-11.38,7.1,-4.46,14.13
27.27802801132202,-8.13,-6.4,2.81,10.72
27.285426139831543,-3.02,-10.77,10.04,15.03
27.295495986938477,0.61,-8.41,3.16,9.0
27.304824113845825,-4.86,-2.7,-4.48,7.14
27.374059200286865,-4.91,0.23,-6.15,7.87
27.374831199645996,-2.13,2.42,-3.95,5.09
27.375263214111328,-0.23,1.87,-0.66,1.99
27.37606906890869,-0.02,-0.23,-0.06,0.23
27.37705111503601,0.06,-0.47,-1.16,1.25
27.377978324890137,0.92,0.42,-0.83,1.3
27.37840223312378,0.95,0.91,-1.39,1.91
27.38517713546753,-0.77,0.82,-1.71,2.04
27.395371198654175,-2.8,0.63,-0.51,2.91
27.404680252075195,-2.77,0.4,-0.67,2.87
27.47472906112671,-1.24,0.39,-0.9,1.58
27.475370168685913,-0.78,0.12,-0.23,0.82
27.476163148880005,-1.6,-0.04,-0.6,1.7
27.476613998413086,-2.22,-0.12,-0.8,2.36
27.477556228637695,-1.62,-0.27,-0.44,1.7
27.478517055511475,-0.59,-0.19,-0.21,0.65
27.478942155838013,-0.12,0.11,-0.14,0.21
27.485072135925293,-0.1,0.26,-0.15,0.31
27.49512815475464,-0.1,0.37,-0.27,0.46
27.50446605682373,-0.15,0.44,0.05,0.46
27.574580192565918,-0.15,0.34,0.06,0.37
27.575191020965576,0.06,0.18,-0.04,0.19
27.575945138931274,0.22,-0.02,0.02,0.22
27.57637119293213,0.48,0.12,0.07,0.49
27.57733416557312,1.09,0.27,0.05,1.12
27.578267097473145,1.27,0.19,-0.18,1.29
27.578688144683838,0.83,-0.14,-0.12,0.85
27.584956169128418,0.32,-0.53,-0.1,0.62
27.594926118850708,0.07,-0.59,-0.39,0.71
27.60432720184326,-0.11,-0.45,-0.61,0.76
27.675233125686646,-0.1,-0.26,-0.74,0.79
27.675989151000977,0.17,-0.01,-0.58,0.6
27.67641830444336,0.44,0.15,-0.53,0.7
27.676868200302124,0.53,0.35,-0.05,0.63
27.67781710624695,0.53,0.64,0.2,0.85
27.67878818511963,0.66,0.84,0.27,1.1
27.67921209335327,0.98,0.96,0.2,1.38
27.684784173965454,0.89,0.97,0.24,1.33
27.69474720954895,1.03,1.3,0.58,1.75
27.70422124862671,1.55,1.78,0.71,2.46
27.7748441696167,2.56,1.74,0.3,3.1
27.775279998779297,3.7,1.29,0.11,3.91
27.775701999664307,4.62,1.45,0.55,4.87
27.776488304138184,4.77,1.78,0.99,5.18
27.777428150177002,3.64,2.26,0.92,4.38
27.778332233428955,4.06,2.6,1.05,4.93
27.778748035430908,5.46,2.63,0.22,6.06
27.784523010253906,6.34,2.68,-0.48,6.89
27.794596195220947,6.78,3.09,-0.53,7.46
27.804054260253906,6.87,3.73,-0.35,7.82
27.87526226043701,6.97,4.0,0.05,8.03
27.875696182250977,7.4,5.13,0.42,9.01
27.876487255096436,8.67,7.89,0.75,11.74
27.87690305709839,10.05,9.58,0.75,13.9
27.877808094024658,9.86,10.19,0.85,14.2
27.87872815132141,8.92,10.28,0.52,13.62
27.879167079925537,7.7,9.79,-0.24,12.45
27.884496212005615,6.52,9.31,-1.23,11.43
27.894375324249268,5.51,11.09,-2.88,12.71
27.904072284698486,2.69,14.92,-2.32,15.33
27.9760103225708,-3.7,17.34,-0.08,17.73
27.97680902481079,-4.17,16.16,-4.66,17.32
27.977262020111084,3.01,13.44,-8.07,15.96
27.977688312530518,8.08,8.35,-6.31,13.22
27.978641986846924,7.39,6.52,-2.28,10.11
27.979637145996094,-7.26,4.37,-2.88,8.94
27.98006010055542,-13.18,1.89,-7.9,15.48
27.984375,-4.77,3.13,-4.54,7.29
27.994219303131104,2.43,2.92,-1.36,4.03
28.0038161277771,5.35,0.83,-0.7,5.45
28.075403213500977,5.2,-1.85,-0.17,5.52
28.07584524154663,3.87,-3.62,0.66,5.34
28.07659101486206,2.95,-4.55,0.94,5.5
28.077041149139404,2.45,-5.39,0.98,6.0
28.0779390335083,2.48,-6.06,1.03,6.62
28.07883930206299,2.83,-6.43,1.13,7.11
28.079276084899902,3.39,-6.64,1.51,7.6
28.084168195724487,4.04,-6.87,1.96,8.2
28.094061136245728,4.76,-7.46,2.32,9.14
28.10360813140869,5.5,-8.24,2.61,10.24
28.17592716217041,6.04,-8.87,2.77,11.08
28.176709175109863,6.24,-9.15,2.88,11.44
28.17713499069214,6.1,-8.87,3.01,11.17
28.177566051483154,5.85,-7.97,2.99,10.32
28.17847728729248,5.47,-7.5,2.85,9.71
28.17940616607666,4.97,-7.72,2.82,9.6
28.17983317375183,4.48,-7.98,2.74,9.55
28.184003114700317,3.93,-8.21,2.64,9.47
28.194096088409424,3.28,-8.48,2.71,9.48
28.20347023010254,2.83,-8.71,2.85,9.59
28.275472164154053,2.51,-8.9,3.06,9.74
28.275963306427002,2.05,-9.02,3.26,9.8
28.27671527862549,1.18,-9.13,3.18,9.73
28.277167320251465,0.21,-9.19,2.58,9.54
28.278088092803955,-0.52,-8.64,1.54,8.79
28.279004096984863,-1.13,-7.62,0.53,7.72
28.2794451713562,-1.78,-6.5,0.15,6.74
28.283891201019287,-2.52,-5.21,0.42,5.8
28.294111251831055,-3.4,-3.67,0.56,5.03
28.303383111953735,-4.36,-1.23,0.14,4.53
28.375359058380127,-5.52,2.09,-0.74,5.94
28.37580633163452,-7.29,5.7,-2.3,9.53
28.376235008239746,-9.7,6.94,-4.17,12.63
28.377020120620728,-11.51,4.89,-4.99,13.46
28.377989292144775,-12.19,3.87,-4.66,13.61
28.378899097442627,-10.93,3.31,-3.93,12.07
28.37933611869812,-7.79,9.41,-4.68,13.08
28.38374423980713,-0.17,14.19,-6.88,15.77
28.459259033203125,-0.44,8.2,-7.99,11.45
28.459702014923096,-10.54,26.6,-9.98,30.3
28.460494995117188,-8.76,34.36,-10.67,37.02
28.460937023162842,-4.67,7.58,-5.22,10.32
28.461366176605225,-1.47,-6.18,4.08,7.54
28.46178412437439,-5.83,-11.56,5.45,14.04
28.46273112297058,-6.97,-9.38,1.62,11.79
28.463961124420166,-6.79,-2.4,-2.22,7.53
28.473064184188843,-5.97,1.62,-1.47,6.35
28.483636140823364,-5.15,2.6,-1.93,6.08
28.560294151306152,-2.13,0.79,-0.67,2.36
28.56072211265564,-0.07,-0.14,0.08,0.17
28.561161041259766,0.81,0.92,-0.29,1.25
28.561578273773193,0.82,1.05,0.19,1.34
28.56199312210083,0.66,0.32,0.46,0.86
28.562437057495117,0.68,0.37,-0.04,0.77
28.563711166381836,0.87,0.4,-1.4,1.69
28.564609050750732,0.6,0.34,-3.19,3.26
28.572922229766846,-0.97,0.01,-4.15,4.26
28.583508014678955,-2.29,-0.19,-3.42,4.12
28.658473014831543,-1.75,0.02,-2.23,2.83
28.660597324371338,-0.32,0.18,-1.4,1.44
28.66105318069458,0.61,-0.1,-0.22,0.65
28.66147518157959,0.79,-0.28,0.83,1.17
28.66190004348755,0.62,-0.14,1.48,1.61
28.66236114501953,-0.02,0.08,1.46,1.46
28.663701057434082,-0.68,0.38,0.99,1.25
28.66463804244995,-0.68,0.58,0.31,0.94
28.67278003692627,-0.3,0.48,-0.63,0.84
28.683362007141113,0.29,-0.01,-1.17,1.2
28.758175134658813,0.76,-0.59,-1.31,1.62
28.759879112243652,0.96,-0.56,-1.26,1.68
28.76067018508911,1.18,-0.22,-0.81,1.44
28.761109113693237,1.29,-0.06,0.0,1.29
28.761540174484253,1.46,-0.02,0.68,1.61
28.7619571685791,1.69,0.03,0.78,1.86
28.76324701309204,1.61,-0.04,0.8,1.79
28.764161109924316,1.22,0.01,0.45,1.3
28.772568225860596,0.86,0.14,-0.1,0.87
28.78311824798584,0.48,0.26,-0.53,0.76
28.7932391166687,0.38,0.14,-0.56,0.69
28.860260009765625,0.14,0.24,-0.59,0.65
28.86068630218506,-0.04,0.63,0.02,0.63
28.86110830307007,0.35,0.84,0.74,1.17
28.861539125442505,0.84,0.94,0.85,1.52
28.86195707321167,1.63,1.04,0.68,2.04
28.863312244415283,2.16,0.95,0.14,2.36
28.86423420906067,2.29,0.73,0.1,2.4
28.872406005859375,2.01,0.93,0.06,2.21
28.88306999206543,2.04,1.44,0.06,2.49
28.89309310913086,2.95,2.25,-0.74,3.78
28.96099615097046,3.11,2.92,0.28,4.27
28.961462020874023,3.33,2.76,0.25,4.33
28.962238311767578,3.61,2.77,0.64,4.59
28.962684154510498,3.72,2.79,0.69,4.7
28.963135242462158,3.67,3.0,0.26,4.74
28.964101314544678,3.65,3.04,0.12,4.75
28.965047121047974,4.02,3.06,-0.12,5.05
28.97231411933899,4.69,3.43,-0.68,5.85
28.98288631439209,5.94,4.56,-0.9,7.54
28.992990016937256,7.27,5.94,-0.66,9.41
29.060140132904053,8.5,7.34,-1.11,11.28
29.0609130859375,10.07,7.98,-0.89,12.87
29.061345100402832,10.37,7.6,-0.68,12.87
29.061763286590576,8.47,7.52,-1.3,11.4
29.062549114227295,5.2,8.37,-1.43,9.95
29.063512325286865,3.03,10.08,-1.65,10.65
29.064446210861206,3.39,11.53,-2.1,12.2
29.072189331054688,2.81,11.12,-1.05,11.51
29.082869052886963,-1.58,11.62,-2.83,12.06
29.092872142791748,-0.48,14.42,-7.58,16.29
29.16035509109497,5.96,13.04,-6.47,15.72
29.16114902496338,9.75,8.76,-2.56,13.35
29.16190004348755,8.57,6.5,-0.21,10.75
29.1623272895813,-5.63,5.64,-0.58,7.99
29.16276502609253,-13.07,3.92,-6.36,15.05
29.163742065429688,-3.76,4.97,-4.8,7.86
29.164659023284912,4.41,3.34,-2.01,5.88
29.171993255615234,6.72,1.58,-0.47,6.91
29.182623147964478,6.21,-0.24,1.07,6.3
29.192606210708618,4.66,-1.96,2.43,5.6
29.2613582611084,2.92,-3.3,2.66,5.14
29.2621431350708,2.14,-4.2,2.09,5.15
29.262579202651978,2.02,-4.25,1.7,5.0
29.263009071350098,2.46,-4.15,1.44,5.03
29.263442039489746,2.86,-5.3,1.39,6.18
29.264377117156982,2.64,-7.25,1.88,7.94
29.265279293060303,2.76,-8.21,2.6,9.04
29.271899223327637,3.64,-7.8,3.11,9.15
29.28244113922119,4.43,-7.35,3.23,9.16
29.292433261871338,4.8,-7.39,3.26,9.39
29.36100721359253,4.89,-7.68,3.35,9.7
29.361764192581177,4.67,-7.74,3.33,9.63
29.36221218109131,4.37,-7.55,3.22,9.29
29.362629175186157,4.19,-7.44,3.08,9.07
29.36306118965149,3.77,-7.47,2.82,8.82
29.36400818824768,3.17,-7.54,2.52,8.55
29.36492419242859,2.68,-7.54,2.54,8.39
29.371771097183228,2.46,-7.53,2.82,8.4
29.38239812850952,2.24,-7.6,3.32,8.59
29.3923282623291,1.97,-7.85,3.8,8.94
29.461101055145264,1.85,-7.83,4.01,8.98
29.46187114715576,1.91,-7.29,3.78,8.43
29.462294101715088,1.81,-6.48,3.09,7.4
29.462714195251465,1.19,-5.49,2.58,6.18
29.463134288787842,-0.39,-4.68,2.57,5.35
29.46409010887146,-2.49,-3.98,2.16,5.16
29.4650239944458,-4.44,-2.86,0.71,5.32
29.47152614593506,-6.53,-1.7,-1.26,6.86
29.4821720123291,-8.45,-0.81,-3.01,9.0
29.49203610420227,-9.71,0.49,-4.3,10.63
29.560816287994385,-11.33,1.45,-5.15,12.52
29.561594009399414,-12.82,1.31,-6.02,14.22
29.562019109725952,-12.68,1.1,-6.66,14.36
29.562442302703857,-11.45,1.24,-6.42,13.18
29.562864303588867,-9.79,6.62,-6.75,13.6
29.563773155212402,-0.93,15.58,-9.29,18.16
29.564680099487305,2.33,17.91,0.31,18.06
29.571495056152344,-3.27,36.22,-0.64,36.37
29.581953048706055,-11.81,25.33,-1.64,27.99
29.59185218811035,-7.88,2.99,-1.72,8.6
29.659070014953613,-6.76,-5.47,0.65,8.72
29.65951418876648,-7.31,-7.69,3.1,11.05
29.659945011138916,-3.96,-5.09,1.9,6.72
29.6603741645813,-4.76,-2.18,-3.04,6.05
29.66080617904663,-4.98,0.0,-3.29,5.96
29.662487030029297,-2.98,1.27,-5.2,6.12
29.663456201553345,0.16,0.9,-4.4,4.49
29.671252250671387,1.17,-0.1,-1.61,1.99
29.681941986083984,1.14,-0.02,-1.53,1.9
29.69181203842163,1.17,0.33,-1.27,1.75
29.759644031524658,0.68,0.4,-0.17,0.8
29.760078191757202,-0.32,0.49,0.72,0.92
29.76051425933838,-1.33,0.53,0.53,1.52
29.76166009902954,-1.97,0.44,-0.8,2.17
29.762094020843506,-2.37,0.24,-1.81,2.99
29.76304531097412,-2.51,0.03,-1.69,3.02
29.76397705078125,-1.99,-0.02,-0.72,2.11
29.771064281463623,-1.08,0.13,0.2,1.1
29.781805992126465,-0.28,-0.06,0.57,0.63
29.79170799255371,0.5,-0.29,0.79,0.97
29.85925006866455,1.0,-0.03,0.12,1.0
29.85967516899109,0.5,0.37,-0.82,1.02
29.86009407043457,-0.57,0.52,-0.95,1.22
29.86051607131958,-1.02,0.22,-0.24,1.07
29.861613273620605,-0.48,0.18,0.21,0.55
29.862565994262695,0.43,0.09,-0.11,0.45
29.863495111465454,1.25,-0.09,-0.35,1.3
29.870981216430664,2.12,-0.07,-0.09,2.12
29.881617069244385,2.59,-0.01,0.59,2.65
29.89170217514038,2.05,0.17,0.78,2.19
29.959899187088013,1.4,0.33,0.41,1.49
29.960365295410156,1.15,0.28,0.03,1.18
29.96111011505127,0.83,0.08,-0.13,0.84
29.961870193481445,0.29,0.1,-0.2,0.36
29.96230912208557,0.02,0.21,-0.27,0.34
29.963231086730957,0.18,0.32,-0.18,0.4
29.964129209518433,0.44,0.42,-0.17,0.63
29.970863103866577,0.75,0.64,-0.47,1.09
29.981497287750244,1.07,0.85,-0.71,1.53
29.991446018218994,1.36,0.87,-0.68,1.75
30.059214115142822,1.52,0.91,-0.31,1.79
30.059640169143677,1.45,1.19,-0.17,1.88
30.060058116912842,2.5,1.82,0.4,3.11
30.060800075531006,2.73,1.68,1.63,3.59
30.06158208847046,3.07,1.15,1.38,3.55
30.06251311302185,3.32,1.27,1.15,3.73
30.063424110412598,3.47,1.47,0.69,3.83
30.070743083953857,3.73,1.76,0.2,4.12
30.081400156021118,3.87,2.09,-0.1,4.39
30.091212272644043,4.06,2.22,-0.33,4.63
30.159615993499756,4.38,2.24,-0.24,4.92
30.16037917137146,4.75,2.47,-0.15,5.35
30.16080331802368,4.87,3.51,-0.4,6.01
30.161221981048584,5.33,5.19,-0.27,7.44
