time,ax,ay,az,atotal
0.009132862091064453,-0.47,0.03,-0.34,0.58
0.019110679626464844,0.07,0.09,-0.18,0.21
0.029059886932373047,0.17,-0.04,-0.08,0.19
0.03918600082397461,0.05,0.02,-0.14,0.15
0.049086809158325195,0.0,0.02,-0.07,0.07
0.07602381706237793,-0.04,0.01,-0.07,0.08
0.0765998363494873,-0.05,-0.03,0.01,0.05
0.07907772064208984,0.0,-0.02,0.19,0.19
0.08910465240478516,0.06,-0.03,0.23,0.23
0.09901571273803711,0.09,-0.02,0.15,0.17
0.1090238094329834,-0.04,-0.03,0.09,0.1
0.11901664733886719,-0.03,-0.03,0.12,0.12
0.12897968292236328,0.17,-0.04,0.22,0.28
0.13905882835388184,0.25,0.02,0.08,0.26
0.14904499053955078,0.12,0.01,-0.09,0.15
0.17611074447631836,0.07,0.01,-0.04,0.08
0.17669296264648438,0.12,0.0,0.02,0.12
0.17881178855895996,0.11,0.01,-0.07,0.13
0.18888187408447266,0.0,0.02,-0.14,0.14
0.19880199432373047,-0.03,-0.01,-0.03,0.04
0.2088017463684082,-0.11,0.0,0.01,0.11
0.2188248634338379,-0.22,0.01,-0.02,0.22
0.22882986068725586,-0.11,0.0,0.06,0.12
0.23884987831115723,-0.06,0.0,0.03,0.06
0.24882268905639648,-0.2,0.01,-0.05,0.2
0.276364803314209,-0.19,-0.02,-0.07,0.2
0.27700090408325195,-0.14,-0.03,-0.11,0.18
0.27889490127563477,-0.21,-0.04,-0.05,0.21
0.2887587547302246,-0.32,-0.01,-0.06,0.32
0.29867982864379883,-0.27,-0.03,-0.03,0.27
0.30870676040649414,-0.11,0.0,0.22,0.24
0.3187747001647949,-0.15,-0.03,0.3,0.33
0.32873988151550293,-0.17,-0.04,0.21,0.27
0.3387937545776367,-0.16,0.03,0.01,0.16
0.3486299514770508,-0.19,0.0,-0.09,0.21
0.37660884857177734,0.02,0.03,-0.08,0.08
0.3772597312927246,0.1,0.02,-0.11,0.15
0.3785867691040039,-0.19,0.02,-0.17,0.25
0.3886137008666992,-0.23,-0.01,-0.04,0.23
0.3985309600830078,-0.08,-0.01,0.09,0.12
0.40862369537353516,-0.01,0.0,0.16,0.16
0.41863298416137695,0.03,-0.05,0.26,0.26
0.42859983444213867,-0.01,-0.05,0.34,0.34
0.4386868476867676,-0.21,-0.09,0.44,0.49
0.44863080978393555,-0.42,-0.1,0.63,0.76
0.47619080543518066,-0.45,-0.1,0.85,0.96
0.47678685188293457,-0.35,-0.14,0.85,0.92
0.4784717559814453,-0.35,-0.18,0.71,0.81
0.4885118007659912,-0.36,-0.04,0.2,0.41
0.4984908103942871,-0.54,-0.01,-0.24,0.59
0.5085108280181885,-0.74,-0.02,-0.44,0.86
0.5185036659240723,-0.74,0.0,-0.49,0.88
0.5283827781677246,-0.53,0.1,-0.51,0.74
0.5384998321533203,-0.4,-0.01,-0.47,0.61
0.5484268665313721,-0.44,-0.04,-0.49,0.65
0.5770049095153809,-0.25,0.05,-0.46,0.52
0.5776567459106445,0.02,0.07,-0.29,0.29
0.5783078670501709,-0.02,0.01,-0.11,0.11
0.5884687900543213,-0.04,0.0,0.03,0.05
0.598322868347168,-0.35,0.0,0.14,0.37
0.6083657741546631,-0.27,-0.03,0.19,0.33
0.6182608604431152,0.15,-0.04,0.21,0.26
0.6282157897949219,0.22,-0.08,0.18,0.29
0.6383237838745117,0.31,-0.08,0.11,0.33
0.6482818126678467,0.17,-0.05,0.12,0.21
0.6765358448028564,0.16,-0.05,0.07,0.18
0.677149772644043,0.5,-0.07,0.03,0.5
0.6781606674194336,0.55,-0.05,0.17,0.57
0.6882209777832031,0.57,-0.02,0.24,0.61
0.6981987953186035,0.43,0.05,0.01,0.43
0.7082188129425049,0.26,0.02,-0.18,0.31
0.7180428504943848,0.43,0.0,-0.15,0.45
0.7281699180603027,0.41,0.02,-0.09,0.42
0.7382428646087646,0.36,0.03,-0.06,0.36
0.7481768131256104,0.42,0.04,-0.06,0.42
0.7772607803344727,0.53,0.0,-0.07,0.53
0.7778878211975098,0.53,0.04,-0.14,0.54
0.7784857749938965,0.27,0.02,-0.22,0.34
0.7879638671875,0.27,-0.01,-0.22,0.34
0.7980589866638184,0.28,-0.01,-0.17,0.32
0.8080377578735352,0.11,0.01,-0.23,0.25
0.817983865737915,-0.08,0.04,-0.16,0.18
0.8280539512634277,-0.18,0.1,-0.15,0.25
0.8380990028381348,-0.1,0.04,-0.19,0.21
0.8480467796325684,0.1,0.03,-0.26,0.28
0.8770608901977539,0.04,0.02,-0.29,0.29
0.8777127265930176,-0.09,0.05,-0.11,0.15
0.8783588409423828,-0.1,0.02,-0.01,0.1
0.8878967761993408,-0.07,0.01,-0.04,0.08
0.8978829383850098,-0.26,-0.01,-0.1,0.27
0.9079787731170654,-0.28,-0.02,0.04,0.28
0.9180247783660889,0.24,0.01,0.2,0.31
0.927832841873169,0.15,0.16,-0.54,0.58
0.9379220008850098,-0.49,0.12,-0.85,0.98
0.9478259086608887,-0.07,-0.07,0.14,0.17
0.9770059585571289,0.74,-0.09,0.79,1.08
0.9776568412780762,0.73,-0.07,0.67,0.99
0.978294849395752,0.31,0.0,0.38,0.49
0.9877958297729492,0.38,0.02,0.24,0.44
0.9977037906646729,0.62,-0.02,0.41,0.74
1.0077118873596191,0.63,-0.05,0.47,0.78
1.018080711364746,0.41,-0.07,0.21,0.46
1.0276567935943604,0.33,-0.04,0.15,0.36
1.037679672241211,0.26,-0.04,0.13,0.29
1.047684669494629,0.05,-0.04,-0.13,0.14
1.0778379440307617,0.07,0.0,-0.07,0.09
1.0785026550292969,0.09,-0.09,0.13,0.18
1.07912278175354,-0.16,-0.09,0.12,0.21
1.0876998901367188,-0.35,-0.06,0.05,0.35
1.097627878189087,-0.44,-0.06,-0.08,0.45
1.1075849533081055,-0.32,-0.09,-0.08,0.34
1.1176166534423828,-0.27,-0.05,-0.09,0.28
1.1274588108062744,-0.34,-0.02,-0.09,0.35
1.1375768184661865,-0.43,-0.04,0.04,0.43
1.1476516723632812,-0.59,-0.05,0.12,0.6
1.177257776260376,-0.64,0.01,0.24,0.68
1.177912712097168,-0.45,0.03,0.35,0.57
1.1785528659820557,-0.41,0.02,0.16,0.44
1.1875557899475098,-0.42,0.07,-0.23,0.48
1.1975007057189941,-0.33,0.03,-0.42,0.53
1.2074799537658691,-0.16,0.04,-0.36,0.39
1.2174937725067139,-0.06,0.05,-0.23,0.24
1.2273187637329102,-0.21,0.03,-0.4,0.45
1.2374329566955566,-0.48,0.06,-0.62,0.78
1.2474236488342285,-0.33,0.06,-0.36,0.49
1.2777400016784668,-0.12,0.03,-0.18,0.21
1.2783918380737305,-0.05,0.04,-0.34,0.34
1.279031753540039,-0.08,0.02,-0.4,0.4
1.287348747253418,-0.29,-0.01,-0.26,0.38
1.2973477840423584,-0.24,-0.03,0.07,0.25
1.3073668479919434,-0.11,-0.01,0.21,0.23
1.3172638416290283,-0.12,-0.03,0.15,0.19
1.3273377418518066,-0.26,-0.01,0.07,0.26
1.3373908996582031,-0.52,0.04,-0.2,0.55
1.347247838973999,-0.52,0.01,-0.24,0.57
1.3769018650054932,-0.16,-0.05,-0.04,0.17
1.3775768280029297,0.17,-0.06,0.06,0.19
1.3782029151916504,0.33,-0.06,0.15,0.36
1.3872277736663818,0.33,0.0,0.23,0.4
1.397242784500122,0.23,-0.01,0.04,0.23
1.4071848392486572,0.17,-0.03,-0.15,0.22
1.4174189567565918,0.27,0.05,-0.19,0.33
1.4271447658538818,0.13,0.06,-0.14,0.2
1.437208652496338,0.0,0.03,0.04,0.05
1.44716477394104,0.15,0.03,0.22,0.26
1.4768409729003906,0.15,0.02,0.12,0.19
1.4774467945098877,-0.06,0.02,0.07,0.09
1.4780538082122803,-0.13,0.1,-0.01,0.16
1.4870448112487793,-0.07,-0.05,-0.05,0.09
1.497025966644287,0.04,-0.06,0.04,0.08
1.507049798965454,0.2,-0.02,0.02,0.2
1.5170297622680664,0.32,-0.06,0.06,0.33
1.527115821838379,0.33,-0.05,0.1,0.34
1.5370817184448242,0.35,-0.04,0.15,0.38
1.546980857849121,0.43,-0.04,0.25,0.49
1.5773417949676514,0.33,0.06,0.21,0.39
1.577967882156372,0.2,0.06,0.01,0.2
1.5785667896270752,0.17,0.0,-0.05,0.17
1.5870237350463867,0.05,0.01,-0.09,0.1
1.5969328880310059,0.01,-0.03,-0.17,0.17
1.6070067882537842,-0.06,-0.1,-0.28,0.3
1.6169018745422363,-0.26,-0.15,-0.32,0.43
1.626936912536621,-0.29,-0.09,-0.24,0.38
1.6369538307189941,-0.21,-0.09,-0.07,0.23
1.6468796730041504,-0.18,-0.03,0.08,0.19
1.6766529083251953,-0.23,0.01,0.15,0.27
1.6773009300231934,-0.37,0.09,0.03,0.38
1.6779327392578125,-0.38,0.02,-0.05,0.38
1.6868438720703125,-0.32,0.0,-0.11,0.33
1.6968517303466797,-0.26,0.03,-0.34,0.42
1.7068548202514648,-0.09,-0.06,-0.26,0.28
1.7167918682098389,0.14,-0.08,0.0,0.16
1.7266788482666016,0.32,-0.06,0.17,0.36
1.73683500289917,0.38,-0.03,0.24,0.45
1.7468068599700928,0.43,-0.05,0.37,0.56
1.7771787643432617,0.38,-0.09,0.48,0.61
1.7778258323669434,0.34,-0.05,0.51,0.61
1.7784466743469238,0.31,-0.07,0.53,0.61
1.786576747894287,0.13,-0.09,0.44,0.46
1.7965598106384277,-0.14,0.0,0.19,0.23
1.8066737651824951,-0.35,0.08,-0.06,0.36
1.8166227340698242,-0.25,0.09,-0.16,0.31
1.8266198635101318,-0.2,0.03,-0.11,0.23
1.836655855178833,-0.32,-0.01,-0.15,0.35
1.8467028141021729,-0.46,0.03,-0.28,0.53
1.8767848014831543,-0.6,0.04,-0.31,0.67
1.877443790435791,-0.67,0.03,-0.15,0.68
1.878065824508667,-0.67,0.0,0.14,0.68
1.8863108158111572,-0.45,-0.06,0.25,0.51
1.8965277671813965,-0.07,-0.09,0.26,0.28
1.9065279960632324,0.02,-0.07,0.33,0.33
1.9164857864379883,-0.2,0.02,0.2,0.28
1.9263458251953125,-0.26,0.03,-0.1,0.28
1.9365208148956299,-0.17,0.03,-0.36,0.39
1.9463818073272705,-0.06,0.03,-0.5,0.5
1.9772019386291504,0.0,0.03,-0.46,0.46
1.9778499603271484,0.09,0.06,-0.41,0.42
1.9785089492797852,0.14,0.11,-0.41,0.44
1.9865238666534424,0.07,0.08,-0.43,0.44
1.9963927268981934,-0.07,0.09,-0.54,0.55
2.0064759254455566,-0.12,0.12,-0.58,0.6
2.0163097381591797,-0.09,0.1,-0.45,0.46
2.0263848304748535,0.01,0.07,-0.33,0.33
2.0362517833709717,0.14,0.07,-0.25,0.29
2.046290874481201,0.22,0.07,-0.19,0.29
2.0776047706604004,0.26,0.09,-0.11,0.29
2.078277826309204,0.33,0.09,-0.16,0.37
2.0789217948913574,0.54,0.01,-0.19,0.57
2.086251735687256,0.79,0.05,-0.17,0.8
2.0962939262390137,0.94,0.08,-0.14,0.95
2.106290817260742,1.03,0.09,-0.11,1.03
2.1161718368530273,1.09,0.14,-0.08,1.1
2.1262238025665283,1.22,0.14,-0.06,1.22
2.1361279487609863,1.4,0.12,0.03,1.4
2.146251678466797,1.62,0.12,0.21,1.63
2.1772878170013428,1.92,0.14,0.35,1.95
2.1779837608337402,2.27,0.1,0.6,2.35
2.178663730621338,2.44,0.09,1.03,2.65
2.186006784439087,2.91,0.14,1.16,3.13
2.1961169242858887,3.35,0.36,1.17,3.56
2.206157684326172,3.47,0.6,1.12,3.69
2.2160496711730957,3.12,0.47,0.87,3.27
2.2261428833007812,2.89,0.1,0.62,2.95
2.235996723175049,3.51,1.67,0.27,3.89
2.2458877563476562,5.0,3.61,-0.75,6.21
2.2780556678771973,3.89,5.38,-2.02,6.93
2.278759002685547,4.09,6.44,-3.39,8.34
2.2794437408447266,4.44,4.69,-2.41,6.89
2.2859597206115723,2.89,3.58,-1.59,4.86
2.296038866043091,1.07,3.06,-1.74,3.67
2.3059287071228027,-0.01,2.15,-1.52,2.63
2.315903663635254,-0.08,1.19,-0.82,1.44
2.325758934020996,-0.14,-0.05,-0.25,0.29
2.3358359336853027,-0.01,-1.78,0.03,1.78
2.345862865447998,1.51,-2.01,0.38,2.54
2.3778247833251953,2.16,-1.1,1.54,2.87
2.3785147666931152,1.27,-1.23,1.91,2.6
2.379196882247925,3.62,-1.51,0.68,3.98
2.3859739303588867,6.96,-0.78,0.76,7.04
2.3957719802856445,7.49,-1.08,2.03,7.83
2.4057798385620117,6.47,-1.58,2.85,7.24
2.415794849395752,5.5,-1.69,2.88,6.43
2.4258267879486084,5.18,-1.3,2.35,5.83
2.435945987701416,5.02,-0.88,2.04,5.48
2.4461138248443604,4.48,-0.8,1.92,4.93
2.4774527549743652,3.58,-0.85,1.68,4.04
2.4781508445739746,2.69,-0.79,1.47,3.16
2.47883677482605,2.22,-0.56,1.25,2.6
2.485930919647217,2.14,0.0,0.9,2.32
2.495699882507324,1.74,0.48,0.6,1.9
2.505727767944336,1.04,0.79,0.39,1.36
2.5156538486480713,0.5,1.2,-0.02,1.3
2.5256388187408447,-0.05,1.65,-0.44,1.7
2.5360517501831055,-0.89,1.96,-0.66,2.25
2.545590877532959,-2.25,1.75,-0.53,2.89
2.5780577659606934,-3.54,1.02,-0.28,3.69
2.5787577629089355,-3.76,0.51,-0.42,3.81
2.5794248580932617,-3.44,0.4,-0.5,3.49
2.5859038829803467,-3.17,0.67,-0.56,3.28
2.5956168174743652,-3.03,0.73,-0.72,3.19
2.6056299209594727,-2.97,0.62,-0.9,3.16
2.615550994873047,-2.94,0.4,-0.98,3.12
2.625551700592041,-2.67,0.03,-0.73,2.76
2.6355457305908203,-2.64,-0.06,-0.4,2.67
2.645538806915283,-3.31,0.07,-0.4,3.33
2.6777148246765137,-3.91,-0.18,-0.64,3.96
2.678356647491455,-4.08,-0.55,-0.64,4.16
2.6789658069610596,-3.9,-0.82,-0.49,4.01
2.6853747367858887,-3.73,-0.98,-0.51,3.89
2.6953587532043457,-4.06,-0.67,-0.4,4.13
2.705542802810669,-3.49,3.34,-0.65,4.87
2.715420722961426,-1.79,1.28,-0.12,2.2
2.7253618240356445,-3.46,-1.11,0.69,3.69
2.7354159355163574,-4.39,-0.52,0.72,4.47
2.7455508708953857,-5.48,-0.03,0.18,5.48
2.777888774871826,-4.81,0.39,-0.65,4.86
2.778590679168701,-0.16,0.54,0.33,0.65
2.7792768478393555,5.13,0.59,2.18,5.6
2.7852728366851807,5.9,0.19,2.98,6.61
2.7952098846435547,1.85,0.54,2.37,3.05
2.805210828781128,-2.44,0.74,0.28,2.56
2.8152167797088623,-3.56,0.61,-1.57,3.93
2.825251817703247,-1.19,2.16,-2.04,3.2
2.8352577686309814,-0.29,3.97,-1.52,4.26
2.845228672027588,-3.04,1.99,-2.61,4.47
2.8783957958221436,-5.33,2.19,-2.46,6.26
2.8790957927703857,-3.96,2.77,0.98,4.93
2.879786968231201,-4.12,-1.34,2.52,5.01
2.88507080078125,-4.23,-2.86,1.0,5.2
2.8951478004455566,-3.33,-1.95,0.25,3.86
2.9051709175109863,-2.64,-0.93,0.49,2.84
2.9151077270507812,-2.76,0.16,0.38,2.79
2.92513370513916,-2.75,0.81,-0.23,2.87
2.935133934020996,-2.18,1.11,-0.38,2.47
2.9450459480285645,-1.06,0.68,-0.6,1.39
2.977815866470337,-0.38,-0.1,-0.4,0.56
2.9785027503967285,-0.32,-0.21,-0.23,0.44
2.9791457653045654,-0.47,-0.04,-0.44,0.64
2.984959840774536,-0.6,0.0,-0.58,0.83
2.995001792907715,-0.51,-0.11,-0.67,0.84
3.005046844482422,-0.46,-0.03,-0.77,0.89
3.014967918395996,-0.42,0.13,-0.91,1.01
3.024979829788208,-0.21,0.11,-0.93,0.95
3.034970760345459,0.09,0.02,-0.73,0.73
3.044956684112549,0.01,-0.03,-0.53,0.53
3.0779929161071777,-0.43,-0.01,-0.45,0.62
3.0786609649658203,-0.87,0.02,-0.31,0.92
3.079310894012451,-1.2,0.2,-0.15,1.22
3.0848348140716553,-1.13,0.26,0.03,1.15
3.0948867797851562,-0.75,0.22,0.4,0.87
3.1048707962036133,-0.47,0.16,0.65,0.81
3.1149017810821533,-0.43,0.07,0.6,0.74
3.124825954437256,-0.32,0.07,0.33,0.46
3.1347877979278564,0.24,0.11,0.24,0.35
3.144657850265503,0.76,0.02,0.06,0.76
3.1785218715667725,0.85,-0.19,0.14,0.88
3.17924165725708,0.53,-0.28,0.11,0.6
3.180292844772339,0.2,-0.06,-0.6,0.63
3.184701919555664,0.04,0.08,-1.25,1.25
3.194736957550049,-0.01,0.01,-1.37,1.37
3.2047276496887207,-0.22,-0.03,-0.75,0.78
3.2147059440612793,-0.32,-0.03,-0.21,0.38
3.224698781967163,-0.08,-0.14,0.07,0.17
3.234693765640259,0.22,-0.15,-0.08,0.27
3.244584798812866,0.34,-0.08,-0.28,0.44
3.278857707977295,0.05,-0.06,-0.09,0.11
3.2799618244171143,-0.3,-0.01,0.02,0.3
3.2805967330932617,-0.27,0.17,0.02,0.31
3.2846269607543945,0.16,0.13,-0.37,0.42
3.2945609092712402,0.55,0.03,-0.71,0.89
3.304642677307129,0.58,0.1,-1.22,1.35
3.314553737640381,0.18,0.08,-1.15,1.16
3.324619770050049,-0.33,-0.04,-0.74,0.81
3.334479808807373,-0.43,-0.05,-0.25,0.49
3.3444409370422363,-0.24,0.08,-0.01,0.25
3.3785388469696045,-0.08,0.13,0.11,0.18
3.3796439170837402,0.14,0.18,0.0,0.22
3.3803277015686035,0.43,0.13,-0.02,0.44
3.384486675262451,0.64,-0.05,0.41,0.76
3.3945188522338867,0.66,-0.04,0.56,0.86
3.4045276641845703,0.37,0.1,0.31,0.49
3.4143548011779785,0.18,0.1,0.32,0.38
3.424489974975586,0.45,0.08,0.43,0.62
3.4343907833099365,0.81,0.17,0.28,0.87
3.4443907737731934,1.3,0.31,0.12,1.34
3.47814679145813,1.82,0.4,0.15,1.86
3.478827953338623,2.33,0.27,0.5,2.39
3.4798178672790527,2.78,0.1,-0.05,2.78
3.4843428134918213,2.8,0.0,-0.75,2.89
3.4943268299102783,2.76,0.2,-0.37,2.79
3.504307746887207,2.75,0.66,-0.41,2.85
3.514274835586548,3.09,0.91,-0.75,3.3
3.524333953857422,3.69,0.88,-0.97,3.91
3.5342538356781006,3.84,0.65,-0.9,3.99
3.544212818145752,3.48,0.62,-0.79,3.62
3.5784177780151367,3.35,1.05,-0.82,3.6
3.5794639587402344,3.43,1.51,-0.55,3.78
3.580108880996704,2.64,2.1,0.06,3.37
3.5841217041015625,1.34,3.1,-0.36,3.39
3.5941996574401855,2.18,5.11,-0.82,5.61
3.604238986968994,3.24,4.92,1.33,6.03
3.614224910736084,2.46,3.89,0.89,4.68
3.624264717102051,2.63,3.98,0.72,4.82
3.6341378688812256,3.04,3.76,0.32,4.84
3.644178867340088,3.5,3.59,0.06,5.01
3.6781978607177734,4.06,3.59,-0.44,5.43
3.6792168617248535,3.89,3.04,-0.87,5.01
3.6798598766326904,3.19,2.82,-1.12,4.4
3.6840128898620605,2.91,3.18,-1.28,4.49
3.694061756134033,3.13,4.08,-1.6,5.38
3.7039308547973633,3.54,5.93,-2.51,7.34
3.7139837741851807,3.88,7.7,-2.93,9.1
3.7239677906036377,3.89,7.37,-2.72,8.76
3.7339329719543457,2.11,6.29,-0.99,6.7
3.7439489364624023,-1.15,7.1,-1.29,7.3
3.777841806411743,-0.35,6.32,-4.18,7.58
3.7785086631774902,2.22,4.05,-2.5,5.25
3.7795019149780273,4.92,1.35,-0.56,5.13
3.7839698791503906,6.24,0.31,0.82,6.3
3.793917655944824,4.07,0.21,2.67,4.87
3.803759813308716,1.09,-2.6,1.44,3.16
3.8138489723205566,4.51,-2.76,-0.62,5.32
3.82389497756958,9.56,-1.47,-0.33,9.67
3.8338327407836914,10.87,-1.88,2.14,11.23
3.8438358306884766,9.64,-3.1,3.24,10.63
3.8783187866210938,7.93,-3.69,2.82,9.18
3.8793249130249023,7.24,-3.64,2.08,8.36
3.879971981048584,7.06,-3.14,1.48,7.86
3.883654832839966,6.41,-2.71,1.17,7.05
3.893673896789551,5.52,-2.57,1.0,6.17
3.903657913208008,4.81,-2.38,0.85,5.43
3.9137978553771973,3.96,-2.07,0.92,4.56
3.9237637519836426,3.01,-1.88,1.06,3.7
3.933741807937622,2.21,-1.68,1.13,2.99
3.943755865097046,1.77,-1.42,1.17,2.55
3.978031873703003,1.5,-1.03,1.0,2.07
3.979029655456543,1.47,-0.53,0.79,1.75
3.979674816131592,1.4,0.22,0.59,1.53
3.983553886413574,1.03,1.0,0.14,1.44
3.993623733520508,0.34,1.82,-0.63,1.95
4.003704786300659,-0.47,2.82,-1.46,3.21
4.013465881347656,-1.06,3.85,-2.07,4.49
4.023781776428223,-1.59,4.71,-1.99,5.35
4.033572673797607,-1.92,5.09,-1.41,5.61
4.043643951416016,-2.47,5.47,-1.44,6.17
4.079219818115234,-3.58,5.64,-2.06,6.99
4.079916000366211,-5.06,5.15,-2.63,7.68
4.080591678619385,-6.34,3.97,-2.93,8.03
4.083504676818848,-7.04,2.81,-3.11,8.19
4.093549728393555,-7.53,2.29,-3.47,8.6
4.103798866271973,-7.72,2.03,-3.58,8.74
4.113515853881836,-7.56,1.24,-3.27,8.32
4.123561859130859,-7.43,0.26,-2.8,7.94
4.133562803268433,-7.36,-0.38,-2.52,7.78
4.143547773361206,-7.57,-0.26,-2.41,7.94
4.178583860397339,-7.51,-0.56,-1.93,7.77
4.17950177192688,-7.15,-1.12,-1.19,7.33
4.1801438331604,-6.74,-1.37,-0.49,6.89
4.183348655700684,-6.62,-1.18,-0.24,6.72
4.193282842636108,-6.7,-0.96,-0.57,6.79
4.203314781188965,-6.35,-0.91,-0.95,6.48
4.213352680206299,-5.67,0.28,-0.92,5.75
4.223455905914307,-3.47,5.55,-0.58,6.57
4.233301877975464,-3.76,3.76,-0.54,5.34
4.243337869644165,-7.79,-0.81,-0.92,7.88
4.253268718719482,-5.67,-2.21,-0.82,6.14
4.2804038524627686,3.98,0.05,1.93,4.42
4.281089782714844,11.37,1.51,6.03,12.95
4.2832159996032715,7.49,1.37,5.61,9.45
4.293231964111328,-2.24,1.35,1.28,2.91
4.303164958953857,-7.89,3.52,-1.96,8.85
4.313138961791992,-6.82,8.28,-1.89,10.89
4.323186874389648,-6.38,8.49,-2.69,10.95
4.333177804946899,-7.27,3.68,-4.31,9.21
4.343150854110718,-4.93,3.57,-0.79,6.13
4.353092670440674,-3.4,0.14,3.8,5.1
4.379705905914307,-4.2,-3.9,2.9,6.42
4.380392789840698,-5.55,-3.53,0.85,6.63
4.3830766677856445,-5.45,-1.04,0.01,5.54
4.393126964569092,-4.4,0.49,0.18,4.43
4.403064727783203,-3.12,0.73,0.05,3.2
4.4130706787109375,-1.6,0.21,-0.5,1.68
4.423053741455078,-0.68,-0.15,-0.86,1.1
4.432983875274658,0.04,0.02,-0.96,0.96
4.4430036544799805,0.58,0.21,-0.61,0.86
4.453013896942139,0.97,0.18,-0.27,1.02
4.478866815567017,1.04,0.2,-0.43,1.14
4.479514837265015,0.8,0.03,-0.68,1.05
4.482940673828125,0.41,-0.18,-1.24,1.31
4.492998838424683,0.12,-0.06,-2.38,2.38
4.502959728240967,0.13,-0.11,-2.53,2.53
4.512930870056152,0.19,-0.29,-1.5,1.53
4.522946834564209,0.04,-0.14,-1.01,1.02
4.532934665679932,0.01,-0.05,-0.71,0.71
4.542893886566162,0.23,-0.27,-0.34,0.49
4.552816867828369,0.45,-0.29,-0.56,0.77
4.579562664031982,0.49,-0.18,-0.35,0.62
4.580256938934326,0.12,0.1,0.01,0.15
4.582812786102295,-0.53,0.35,0.57,0.85
4.592809677124023,-1.02,0.56,1.33,1.76
4.60277795791626,-1.01,0.42,1.54,1.88
4.612766742706299,-0.78,-0.09,1.04,1.3
4.6227898597717285,-0.39,-0.03,-0.06,0.39
4.632795810699463,-0.1,0.07,-0.46,0.47
4.642789840698242,0.1,-0.02,-0.57,0.57
4.652738809585571,0.15,0.01,-0.98,0.99
4.6788318157196045,0.06,-0.04,-0.94,0.94
4.679527759552002,-0.21,-0.05,-0.29,0.36
4.682651996612549,-0.36,-0.03,0.23,0.42
4.6926798820495605,-0.18,0.0,0.28,0.33
4.702635765075684,0.15,-0.02,0.32,0.35
4.712528705596924,0.52,0.02,0.14,0.53
4.722644805908203,0.62,0.04,-0.21,0.65
4.732684850692749,0.26,0.02,-0.41,0.48
4.742639780044556,-0.04,0.07,-0.44,0.44
4.752665996551514,-0.27,0.16,-0.41,0.51
4.779301881790161,-0.47,0.18,-0.21,0.54
4.779997825622559,-0.58,0.3,-0.2,0.68
4.782535791397095,-0.41,0.33,0.03,0.52
4.79260778427124,0.12,0.3,0.14,0.35
4.802515983581543,0.53,0.25,0.09,0.59
4.812490940093994,0.79,0.26,0.1,0.83
4.822542667388916,1.24,0.28,-0.08,1.27
4.832505702972412,1.68,0.39,-0.19,1.73
4.8425068855285645,1.85,0.55,-0.14,1.93
4.8523337841033936,1.71,0.83,-0.14,1.9
4.879571914672852,1.67,0.93,0.1,1.91
4.8802618980407715,1.98,0.94,0.09,2.19
4.88231897354126,2.11,1.0,-0.15,2.33
4.892343997955322,2.35,1.02,-0.26,2.57
4.902202844619751,2.66,1.32,-0.55,3.02
4.912383794784546,2.99,1.69,-0.74,3.51
4.922408819198608,3.93,2.23,-1.5,4.76
4.932297706604004,5.19,3.21,-1.44,6.27
4.961471796035767,4.13,3.15,-0.89,5.26
4.9621498584747314,4.12,3.3,-0.6,5.31
4.962791919708252,4.22,3.52,-0.16,5.49
4.972235679626465,4.64,3.56,-0.02,5.84
4.98214864730835,5.16,3.99,0.15,6.52
4.992318868637085,5.71,4.59,0.09,7.32
5.002222776412964,5.78,4.95,-0.26,7.61
5.012225866317749,5.4,4.92,-0.47,7.32
5.022274971008301,5.34,4.69,-0.32,7.11
5.032203674316406,5.07,4.95,-0.39,7.09
5.062408924102783,4.07,5.31,-0.85,6.74
5.063097953796387,2.62,5.6,-1.8,6.43
5.063743829727173,2.08,6.06,-2.15,6.75
5.072137832641602,2.66,6.81,-2.37,7.68
5.082088947296143,3.8,6.96,-2.16,8.21
5.092167854309082,3.67,6.78,-1.39,7.83
5.102064847946167,1.64,7.58,-3.11,8.35
5.112002849578857,2.06,7.02,-4.97,8.84
5.1220526695251465,4.39,6.88,-3.34,8.81
5.132075786590576,6.79,4.52,-1.41,8.27
5.163163661956787,9.54,1.11,-0.65,9.62
5.1638569831848145,8.65,-1.17,0.92,8.77
5.164540767669678,-1.13,-2.59,1.16,3.05
5.171933650970459,-3.16,-1.95,-3.18,4.88
5.182060718536377,3.89,0.79,-3.37,5.2
5.192071914672852,8.78,0.34,-0.61,8.8
5.2019548416137695,10.47,-0.29,1.15,10.53
5.211822986602783,9.58,-1.46,1.86,9.86
5.221810817718506,7.1,-2.26,2.14,7.75
5.231929779052734,5.39,-3.14,2.0,6.55
5.263117790222168,4.9,-3.82,1.81,6.47
5.263810873031616,5.2,-3.58,1.56,6.5
5.264489650726318,5.24,-2.86,1.36,6.12
5.271792888641357,4.82,-2.39,1.12,5.49
5.281860828399658,4.11,-2.33,0.96,4.82
5.291829824447632,3.49,-2.33,0.97,4.3
5.301933765411377,3.33,-2.53,1.12,4.32
5.312028884887695,3.14,-2.79,1.7,4.53
5.321715831756592,2.91,-2.76,2.27,4.6
5.331813812255859,2.51,-2.2,2.73,4.31
5.363218784332275,1.94,-1.29,3.03,3.82
5.363921880722046,1.69,-0.42,2.44,2.99
5.364605903625488,1.87,0.26,0.99,2.13
5.371622800827026,1.07,1.35,0.05,1.72
5.381742000579834,-0.65,2.84,-0.25,2.92
5.391703844070435,-1.55,3.7,-0.62,4.05
5.401711940765381,-1.42,4.5,-0.9,4.8
5.41166877746582,-1.97,6.1,-0.81,6.46
5.421570777893066,-3.23,7.39,-1.55,8.21
5.43153190612793,-5.52,7.82,-3.12,10.06
5.463313817977905,-8.61,7.5,-4.44,12.25
5.464015960693359,-10.84,6.92,-5.27,13.89
5.464705944061279,-12.05,5.88,-5.61,14.53
5.471614837646484,-12.25,4.35,-5.56,14.13
5.481566905975342,-10.6,2.06,-4.52,11.7
5.491637706756592,-8.57,-0.31,-2.77,9.01
5.501551866531372,-8.07,-1.53,-2.06,8.46
5.511562824249268,-9.3,-1.44,-1.63,9.55
5.521565914154053,-10.68,-1.49,-1.38,10.87
5.531583786010742,-10.62,-1.7,-1.57,10.86
5.562755823135376,-9.22,0.2,-1.9,9.41
5.563445806503296,-6.65,5.17,-2.12,8.68
5.564090728759766,-7.69,2.14,-3.04,8.54
5.571542739868164,-9.86,-0.56,-3.41,10.44
5.581178665161133,-9.04,-0.89,-3.26,9.65
5.591442823410034,0.62,0.9,-0.58,1.23
5.601348876953125,10.15,1.48,4.67,11.27
5.6114277839660645,9.14,0.68,5.39,10.63
5.6215739250183105,0.49,0.71,1.88,2.06
5.63149881362915,-7.18,1.51,-0.75,7.37
5.662907838821411,-8.48,4.58,-1.85,9.81
5.663594722747803,-7.17,7.9,-2.33,10.92
5.664237976074219,-7.08,5.09,-4.18,9.66
5.671630859375,-6.96,2.94,-3.94,8.52
5.681336879730225,-3.48,2.49,0.14,4.28
5.691303730010986,-2.47,-2.28,2.88,4.42
5.701268672943115,-4.12,-4.18,1.39,6.03
5.711302757263184,-4.84,-2.19,-0.53,5.33
5.721593856811523,-4.1,-0.3,-0.39,4.12
5.731186866760254,-2.86,0.62,0.16,2.93
5.763091802597046,-1.43,0.38,0.12,1.48
5.763800859451294,-0.56,-0.06,-0.18,0.59
5.764467716217041,-0.24,-0.06,-0.66,0.7
5.7711687088012695,-0.21,0.33,-1.14,1.2
5.781174659729004,-0.19,0.44,-1.02,1.12
5.791241884231567,0.05,0.03,-0.26,0.26
5.801156997680664,0.25,-0.09,-0.06,0.27
5.811139822006226,0.1,0.06,-0.27,0.29
5.8211448192596436,-0.2,0.12,-0.48,0.53
5.831129789352417,-0.47,0.1,-0.72,0.86
5.863465785980225,-0.5,0.05,-0.87,1.0
5.864156723022461,-0.44,-0.07,-0.73,0.85
5.8648388385772705,-0.41,-0.06,-0.43,0.59
5.8710198402404785,-0.43,0.11,-0.38,0.58
5.880976676940918,-0.49,0.07,0.0,0.49
5.890893936157227,-0.48,0.06,0.44,0.65
5.900941848754883,-0.4,0.12,0.5,0.65
5.911008834838867,-0.09,0.19,0.33,0.39
5.920943737030029,0.26,0.21,-0.07,0.34
5.930960655212402,0.4,0.07,-0.8,0.89
5.963400840759277,0.18,0.02,-1.11,1.12
5.964096784591675,-0.32,-0.1,-1.02,1.07
5.964778900146484,-0.58,-0.16,-0.53,0.8
5.970893859863281,-0.48,-0.08,0.24,0.54
5.980818748474121,-0.26,-0.06,0.51,0.57
5.990789890289307,-0.18,0.01,0.28,0.33
6.000812768936157,-0.15,0.17,0.03,0.22
6.010842800140381,-0.23,0.08,-0.16,0.29
6.020702838897705,-0.47,-0.14,-0.34,0.59
6.030909776687622,-0.69,-0.11,-0.43,0.82
6.06307578086853,-0.68,-0.08,-0.28,0.73
6.063760757446289,-0.6,0.02,-0.06,0.6
6.064399719238281,-0.52,0.18,0.07,0.55
6.070734977722168,-0.49,0.25,0.14,0.56
6.0807108879089355,-0.4,0.27,-0.02,0.48
6.090800762176514,-0.38,0.31,-0.3,0.57
6.100791931152344,-0.26,0.32,-0.29,0.5
6.110720872879028,-0.08,0.32,-0.25,0.41
6.120715856552124,0.19,0.31,-0.17,0.4
6.130688667297363,0.62,0.24,-0.06,0.66
6.163841724395752,1.06,0.12,0.06,1.06
6.164529800415039,1.28,0.14,0.24,1.3
6.165220737457275,1.34,0.16,0.21,1.36
6.170592784881592,1.32,0.32,-0.12,1.36
6.180657863616943,1.31,0.33,-0.3,1.38
6.190576791763306,1.47,0.38,-0.47,1.58
6.200582981109619,1.88,0.53,-0.46,2.0
6.210640907287598,2.26,0.6,-0.14,2.34
6.220595836639404,2.59,0.64,-0.04,2.66
6.230543851852417,2.91,0.8,0.2,3.02
6.264601707458496,3.01,1.03,0.36,3.2
6.265693664550781,3.28,1.26,0.2,3.51
6.266396999359131,3.6,1.45,-0.07,3.88
6.270517826080322,3.52,1.81,-0.36,3.97
6.280441761016846,3.3,2.72,-0.3,4.28
6.290419816970825,2.96,3.05,-0.43,4.27
6.300328731536865,2.7,3.07,-0.57,4.12
6.310359954833984,2.8,3.17,-0.08,4.23
6.320339679718018,2.94,2.99,-0.08,4.19
6.330370903015137,3.23,3.01,-0.13,4.41
6.363395690917969,3.79,3.24,-0.13,4.98
6.364043712615967,4.21,3.47,-0.23,5.46
6.364727973937988,4.89,3.78,-0.43,6.19
6.370222806930542,5.62,4.27,-0.48,7.07
6.380385875701904,5.75,4.39,-0.3,7.24
6.390329837799072,5.79,4.4,-0.03,7.27
6.40031099319458,5.31,4.32,-0.02,6.84
6.410345792770386,4.24,4.22,-0.33,5.99
6.420271873474121,3.22,4.19,-0.2,5.28
6.430254936218262,3.08,4.68,0.1,5.6
6.463475704193115,3.98,5.31,-0.08,6.63
6.464166879653931,4.04,5.74,-0.33,7.02
6.464864730834961,1.91,6.59,-0.09,6.86
6.470196723937988,-0.71,6.6,-0.72,6.67
6.480195999145508,-1.46,7.82,-2.52,8.34
6.490192890167236,0.79,8.11,-2.74,8.59
6.500171661376953,3.94,6.67,-1.71,7.93
6.510239839553833,5.99,5.88,-1.02,8.45
6.520172834396362,6.97,4.01,-1.24,8.13
6.530228853225708,5.58,-1.73,-2.18,6.23
6.564141750335693,1.52,-3.25,-1.94,4.07
6.565194845199585,-4.45,-0.91,-3.62,5.8
6.5658838748931885,-1.6,2.7,-6.17,6.92
6.570069789886475,6.82,1.23,-5.02,8.55
6.580030918121338,11.62,-0.41,-1.64,11.74
6.589970827102661,12.62,-1.48,0.46,12.71
6.600030899047852,11.05,-2.47,1.62,11.43
6.610013961791992,8.82,-2.78,2.51,9.58
6.619960784912109,7.38,-2.79,2.52,8.28
6.629986763000488,6.52,-2.86,2.01,7.39
6.6644487380981445,6.0,-2.95,1.37,6.82
6.665511846542358,5.59,-3.4,1.04,6.62
6.66619873046875,5.21,-3.58,1.02,6.4
6.6698479652404785,5.06,-3.33,0.9,6.12
6.679942846298218,4.73,-2.91,0.95,5.63
6.689962863922119,4.08,-2.6,1.41,5.03
6.699868679046631,3.29,-2.49,1.76,4.48
6.70996880531311,2.75,-1.9,2.0,3.89
6.719897747039795,2.51,-0.71,2.25,3.44
6.729986667633057,2.38,0.7,2.3,3.38
6.763840675354004,1.73,2.0,1.49,3.03
6.764890670776367,0.47,2.71,-0.1,2.75
6.76557183265686,-1.73,3.74,-1.57,4.4
6.769779682159424,-4.61,5.0,-2.19,7.14
6.779717922210693,-6.62,5.6,-2.59,9.04
6.7896318435668945,-7.27,6.47,-2.85,10.14
6.799771785736084,-7.65,7.12,-2.77,10.81
6.80975866317749,-8.65,6.69,-3.18,11.38
6.819772720336914,-10.01,5.11,-3.78,11.85
6.829771995544434,-11.69,3.78,-4.79,13.18
6.864312648773193,-13.1,3.21,-6.02,14.77
6.865359783172607,-13.1,2.44,-5.61,14.45
6.8659987449646,-12.47,1.36,-4.05,13.18
6.8696677684783936,-12.14,-0.51,-2.59,12.42
6.879697799682617,-11.6,-1.49,-2.04,11.87
6.889384746551514,-9.76,2.5,-1.98,10.26
6.8995888233184814,-9.64,2.25,-2.31,10.16
6.909668922424316,-10.01,-0.28,-2.5,10.32
6.919623851776123,-8.99,-0.62,-0.82,9.04
6.929632663726807,-6.49,0.92,-0.22,6.55
6.964911937713623,2.58,4.86,1.15,5.62
6.965822696685791,11.0,4.46,7.12,13.84
6.966503858566284,6.82,0.54,4.47,8.17
6.969515800476074,-3.33,0.38,-0.61,3.4
6.979439735412598,-9.06,1.83,-1.11,9.3
6.989339828491211,-8.69,2.29,-0.47,8.99
6.999489784240723,-7.46,4.14,-1.95,8.75
7.009577751159668,-5.71,4.4,-3.31,7.93
7.019468784332275,-4.96,1.95,-2.33,5.81
7.029367923736572,-5.97,-0.12,-2.65,6.53
7.0644659996032715,-4.75,0.77,-1.77,5.12
7.065386772155762,-4.2,-0.62,-0.27,4.25
7.066056728363037,-4.09,-1.98,-0.27,4.55
7.069415807723999,-3.69,-1.22,-0.65,3.94
7.079416751861572,-2.72,0.23,-0.2,2.73
7.089343786239624,-1.78,0.91,0.3,2.02
7.099346876144409,-1.01,0.61,0.32,1.22
7.1093549728393555,-0.4,-0.01,0.18,0.43
7.119300842285156,0.02,-0.24,0.16,0.28
7.12939977645874,0.11,-0.13,0.06,0.18
7.165440797805786,0.01,-0.11,-0.35,0.36
7.166135787963867,-0.06,-0.12,-0.7,0.71
7.1668219566345215,0.05,-0.4,-0.54,0.67
7.169236660003662,0.22,-0.33,-0.44,0.59
7.179236888885498,0.55,0.1,-0.45,0.71
7.189406871795654,0.68,0.26,-0.7,1.0
7.199164867401123,0.13,0.09,-1.22,1.23
7.209267854690552,-0.58,0.03,-1.07,1.21
7.219175815582275,-0.99,0.3,-0.65,1.22
7.229180812835693,-1.03,0.3,-0.41,1.14
7.265610694885254,-0.85,0.29,-0.06,0.9
7.266305923461914,-0.45,0.11,0.56,0.72
7.266986846923828,-0.28,-0.09,0.91,0.95
7.269119739532471,-0.43,-0.05,0.59,0.73
7.279106855392456,-0.58,0.11,-0.04,0.59
7.289301872253418,-0.52,0.12,-0.36,0.64
7.299252986907959,-0.53,0.05,-0.7,0.87
7.309078693389893,-0.6,-0.07,-1.03,1.19
7.3190388679504395,-0.5,-0.14,-0.89,1.03
7.329038858413696,-0.28,-0.04,-0.73,0.78
7.365660667419434,0.01,0.0,-0.32,0.32
7.366358757019043,0.12,0.03,0.01,0.12
7.367035865783691,0.14,0.12,0.11,0.21
7.368940830230713,0.26,0.07,0.09,0.28
7.3789567947387695,0.16,0.02,0.03,0.16
7.388972759246826,-0.13,0.02,-0.28,0.3
7.39895486831665,-0.49,-0.01,-0.27,0.55
7.409023761749268,-0.55,0.04,-0.11,0.56
7.418899774551392,-0.5,0.05,-0.18,0.53
7.428943872451782,-0.36,0.07,-0.13,0.38
7.4388957023620605,-0.17,0.13,0.0,0.21
7.465723991394043,-0.03,0.15,0.19,0.24
7.466404914855957,0.08,0.21,0.45,0.5
7.468752861022949,0.28,0.31,0.35,0.54
7.478824853897095,0.56,0.38,0.24,0.71
7.4887778759002686,0.75,0.44,0.15,0.88
7.49879789352417,1.03,0.46,-0.14,1.13
7.508824825286865,1.4,0.36,-0.54,1.54
7.518733978271484,1.67,0.24,-0.66,1.81
7.528754711151123,1.99,0.23,-0.58,2.08
7.538667678833008,2.4,0.48,-0.55,2.5
7.565454959869385,2.53,0.78,-0.58,2.71
7.566143989562988,2.63,0.91,-0.23,2.79
7.568610668182373,2.97,1.01,-0.01,3.13
7.5786848068237305,3.27,1.07,0.07,3.44
7.588591814041138,3.44,1.31,0.19,3.68
7.598625659942627,3.55,1.59,-0.04,3.89
7.608611822128296,3.57,2.17,-0.85,4.26
7.618551731109619,3.89,3.27,-1.72,5.36
7.628633975982666,3.92,4.14,-1.22,5.83
7.6386189460754395,3.17,3.82,-1.13,5.09
7.665246963500977,3.02,3.75,-0.56,4.84
7.665939807891846,3.23,3.43,-0.05,4.71
7.668543815612793,3.39,3.07,0.27,4.58
7.678546905517578,3.84,3.35,0.5,5.12
7.688508987426758,4.59,3.76,0.1,5.93
7.698347806930542,5.55,4.28,-0.07,7.0
7.7085089683532715,6.32,4.63,-0.08,7.83
7.718484878540039,6.46,4.55,-0.38,7.91
7.728519916534424,6.15,4.37,-0.21,7.54
7.738434791564941,5.49,4.21,0.03,6.91
7.764769792556763,4.27,3.96,-0.3,5.83
7.7654547691345215,2.9,4.06,-0.48,5.01
7.768432855606079,1.77,4.74,-0.5,5.08
7.7784388065338135,1.74,5.26,-0.97,5.62
7.788414001464844,1.12,5.81,-1.61,6.13
7.798367977142334,-0.99,6.84,-1.82,7.14
7.808283805847168,-1.14,7.61,-3.98,8.66
7.818242788314819,1.62,6.86,-3.98,8.09
7.828435897827148,4.56,5.8,-2.56,7.8
7.838411808013916,7.07,3.72,-1.72,8.17
7.865123748779297,8.82,1.15,-0.97,8.94
7.865813732147217,7.93,-1.19,-0.14,8.02
7.868541717529297,1.63,-1.96,0.34,2.57
7.8783228397369385,-3.17,-1.68,-3.25,4.84
7.888195991516113,-2.54,1.07,-5.11,5.8
7.898221969604492,3.99,0.42,-4.43,5.97
7.908244848251343,8.51,-1.34,-2.7,9.02
7.918274879455566,10.07,-2.01,-1.49,10.37
7.928218841552734,9.99,-2.01,-0.33,10.19
7.93819785118103,8.78,-2.05,0.88,9.05
7.968347787857056,7.2,-2.38,1.47,7.72
7.968993663787842,6.11,-2.67,1.33,6.79
7.969631671905518,5.41,-2.72,1.07,6.14
7.978141784667969,4.97,-2.64,0.88,5.69
7.988126754760742,4.81,-2.52,0.72,5.47
7.998145818710327,4.71,-2.21,0.52,5.22
8.008135795593262,4.66,-1.8,0.39,5.01
8.018117904663086,4.43,-1.3,0.59,4.65
8.028132915496826,3.94,-1.01,0.96,4.17
8.038034915924072,3.26,-0.85,1.35,3.62
8.067417860031128,2.37,-0.5,1.58,2.89
8.068089962005615,1.72,0.07,1.59,2.34
8.068727970123291,1.52,0.77,1.31,2.14
8.078083992004395,1.55,1.2,0.71,2.08
8.087947845458984,0.7,2.05,-0.36,2.19
8.09791374206543,-1.27,3.08,-1.4,3.61
8.107985973358154,-3.63,3.82,-1.96,5.62
8.117873668670654,-5.27,4.22,-2.25,7.11
8.127950668334961,-5.61,4.53,-2.26,7.55
8.137854814529419,-5.23,4.73,-1.9,7.3
8.166307926177979,-5.36,4.76,-1.58,7.34
8.166919708251953,-6.44,4.78,-2.13,8.29
8.167744874954224,-8.25,4.72,-3.17,10.01
8.177841663360596,-10.14,4.58,-3.79,11.75
8.187771797180176,-11.39,4.09,-3.85,12.69
8.197774887084961,-11.57,2.7,-3.65,12.42
8.20786190032959,-11.05,0.8,-3.15,11.51
8.217720985412598,-10.64,-0.55,-2.8,11.01
8.227782726287842,-11.11,-0.26,-2.83,11.46
8.237827777862549,-10.82,-0.31,-2.78,11.17
8.26624870300293,-8.82,2.63,-2.25,9.47
8.266862869262695,-7.99,3.25,-2.22,8.9
8.267643928527832,-8.96,0.09,-2.73,9.36
8.277705669403076,-9.65,-1.12,-1.5,9.82
8.287645816802979,-8.3,-0.59,-0.42,8.33
8.297631740570068,-2.45,3.41,0.6,4.24
8.30769968032837,7.87,6.03,4.22,10.77
8.317646980285645,11.71,2.59,8.05,14.44
8.327652931213379,4.57,-0.81,4.17,6.23
8.33767580986023,-5.41,-0.01,-0.59,5.44
8.366105794906616,-9.42,2.55,-2.2,10.0
8.366706848144531,-8.53,4.39,-1.74,9.74
8.367478847503662,-7.64,3.32,-3.48,9.02
8.377635955810547,-9.46,0.59,-5.54,10.97
8.38752269744873,-6.92,3.46,-2.98,8.29
8.397497653961182,-4.87,1.1,1.49,5.21
8.40738296508789,-4.89,-3.68,2.17,6.49
8.417488813400269,-4.89,-3.15,0.38,5.82
8.42756175994873,-3.28,-0.37,-0.8,3.39
8.437461853027344,-1.88,1.12,-0.73,2.3
8.466659784317017,-1.57,0.48,-0.1,1.64
8.46728777885437,-1.34,0.13,0.22,1.36
8.467877864837646,-0.53,0.51,-0.54,0.91
8.477433681488037,0.13,0.5,-0.9,1.03
8.487417697906494,-0.03,0.24,-0.56,0.61
8.497398853302002,-0.62,0.2,-0.54,0.84
8.50725793838501,-0.84,0.18,-0.94,1.27
8.517422676086426,-0.81,0.15,-1.15,1.41
8.527448654174805,-1.07,0.01,-1.33,1.7
8.537351846694946,-1.16,-0.18,-1.07,1.58
8.566497802734375,-0.8,-0.23,-0.62,1.03
8.567141771316528,-0.55,0.03,-0.37,0.66
8.567734718322754,-0.49,0.18,-0.2,0.55
8.577269792556763,-0.57,0.08,-0.12,0.58
8.58725881576538,-0.55,0.06,0.18,0.58
8.597272872924805,-0.37,-0.02,0.06,0.37
8.607083797454834,-0.23,-0.03,-0.28,0.36
8.617132663726807,-0.15,-0.04,-0.36,0.39
8.627274990081787,-0.14,0.01,-0.47,0.49
8.637192726135254,-0.23,0.1,-0.98,1.01
8.666664838790894,-0.11,0.01,-1.0,1.0
8.667296886444092,0.12,-0.26,-0.5,0.57
8.667882919311523,0.25,-0.16,-0.43,0.52
8.677185773849487,0.28,0.08,-0.18,0.34
8.687189817428589,0.36,0.2,0.09,0.42
8.697123765945435,0.44,0.14,0.11,0.47
8.707162857055664,0.37,0.02,0.09,0.38
8.717076778411865,0.16,-0.03,0.14,0.21
8.727130889892578,0.0,0.0,0.0,0.0
8.737050771713257,0.01,0.08,-0.09,0.12
8.766611814498901,0.03,0.11,-0.13,0.17
8.767204761505127,-0.01,0.13,-0.18,0.22
8.767785787582397,-0.03,0.11,-0.31,0.33
8.776959896087646,0.08,0.04,-0.22,0.23
8.787532806396484,0.22,0.07,-0.05,0.23
8.797003746032715,0.38,0.23,-0.07,0.44
8.807110786437988,0.41,0.38,0.0,0.55
8.816950798034668,0.57,0.4,0.27,0.74
8.827008724212646,0.99,0.45,0.42,1.16
8.836942672729492,1.07,0.55,0.38,1.26
8.866884708404541,0.94,0.61,0.53,1.23
8.867471694946289,0.98,0.7,0.62,1.35
8.868058681488037,1.28,0.8,0.38,1.55
8.876824855804443,1.7,0.77,0.05,1.86
8.886752843856812,2.19,0.74,-0.12,2.31
8.896803855895996,2.6,0.83,-0.23,2.73
8.907127857208252,3.26,1.08,-0.36,3.45
8.916867733001709,3.93,1.43,-0.24,4.18
8.926801681518555,4.49,1.97,-0.36,4.91
8.936742782592773,3.78,2.27,-0.33,4.42
8.967689990997314,3.18,2.67,-0.17,4.15
8.968289852142334,2.92,2.94,-0.01,4.14
8.968881845474243,2.93,3.05,-0.5,4.25
8.976823806762695,3.27,3.11,-0.62,4.55
8.986840724945068,3.78,2.96,-0.45,4.82
8.996724843978882,4.16,2.81,-0.52,5.04
9.00668478012085,4.43,2.71,-0.25,5.19
9.01648998260498,4.53,2.89,-0.1,5.37
9.02669382095337,4.75,3.54,0.03,5.92
9.036638736724854,5.13,4.14,0.42,6.6
9.067473888397217,5.36,4.36,0.14,6.91
9.068067789077759,5.7,4.53,0.34,7.28
9.06864881515503,5.35,4.42,0.2,6.94
9.07660984992981,4.2,4.38,0.0,6.06
9.086567878723145,3.38,4.89,0.08,5.94
9.096576690673828,3.47,5.87,-0.33,6.82
9.106403827667236,4.7,6.98,-1.24,8.5
9.116533756256104,5.91,7.22,-1.92,9.52
9.126588821411133,4.53,7.95,-1.25,9.23
9.136490821838379,-0.11,8.31,-2.07,8.56
9.167304992675781,-1.4,8.65,-4.45,9.82
9.167898654937744,1.94,8.04,-3.99,9.18
9.168481826782227,5.53,6.3,-2.07,8.63
9.176379680633545,7.46,3.87,-0.86,8.44
9.18647289276123,6.98,-0.82,-0.17,7.03
9.196432828903198,3.58,-3.96,-0.36,5.35
9.206421852111816,-3.37,-2.93,-1.39,4.67
9.21631383895874,-4.79,0.25,-4.78,6.77
9.22642993927002,3.21,0.2,-4.74,5.72
9.236362934112549,9.19,-1.9,-2.03,9.6
9.268085956573486,10.92,-2.88,-0.03,11.29
9.268683910369873,10.5,-3.23,1.31,11.06
9.269266843795776,8.72,-3.2,2.4,9.59
9.276326656341553,7.19,-3.45,2.15,8.25
9.2862868309021,6.44,-4.25,1.71,7.9
9.296268939971924,6.51,-4.44,1.62,8.04
9.30622386932373,6.44,-3.98,1.59,7.73
9.31630277633667,5.89,-3.61,1.54,7.07
9.326220989227295,5.42,-3.17,1.62,6.48
9.336233854293823,5.18,-2.4,1.79,5.98
9.368278980255127,4.64,-1.45,2.02,5.26
9.368870735168457,3.46,-0.66,2.26,4.18
9.369454860687256,1.96,-0.07,2.23,2.96
9.376194953918457,0.67,0.3,1.57,1.73
9.386177778244019,0.28,0.49,0.89,1.05
9.39615774154663,0.53,1.17,0.66,1.44
9.40610384941101,-0.26,2.4,0.36,2.44
9.416118860244751,-1.86,3.75,-0.09,4.18
9.426179885864258,-3.42,4.83,-0.79,5.97
9.436103820800781,-4.24,5.79,-1.61,7.35
9.468790769577026,-4.68,6.95,-1.81,8.57
9.469389915466309,-5.63,7.73,-2.04,9.77
9.469973802566528,-7.3,7.83,-3.01,11.12
9.476050853729248,-8.98,7.24,-4.42,12.35
9.486024856567383,-10.11,5.85,-5.14,12.76
9.49602484703064,-10.39,4.03,-4.58,12.04
9.506024837493896,-10.53,2.03,-3.9,11.41
9.516010761260986,-10.92,0.4,-3.5,11.47
9.526039838790894,-11.16,0.14,-3.43,11.67
9.53595781326294,-10.12,0.27,-3.18,10.61
9.569079875946045,-9.51,-0.16,-2.46,9.82
9.569670677185059,-9.24,-0.34,-2.12,9.48
9.57026982307434,-8.99,-0.04,-1.99,9.2
9.575965881347656,-8.91,0.51,-2.35,9.22
9.585740804672241,-8.2,0.88,-2.22,8.54
9.595913887023926,-6.67,0.6,-1.27,6.81
9.605863809585571,-3.51,1.41,-0.95,3.9
9.615888833999634,4.59,3.27,1.74,5.89
9.625796794891357,7.98,2.01,4.94,9.59
9.635909795761108,3.17,-0.75,2.04,3.84
9.669726848602295,-4.09,-0.77,-1.18,4.32
9.670354843139648,-7.61,0.36,-2.23,7.93
9.671255826950073,-6.35,3.16,-2.41,7.49
9.67577576637268,-4.8,6.57,-2.31,8.45
9.685751914978027,-5.18,3.48,-3.32,7.06
9.69576382637024,-7.25,0.63,-3.42,8.04
9.70566177368164,-5.04,2.73,-1.31,5.87
9.715567827224731,-4.46,0.4,0.61,4.51
9.725733757019043,-4.83,-2.61,0.35,5.5
9.735684871673584,-4.21,-2.49,-0.03,4.89
9.770156860351562,-2.65,-0.82,0.24,2.78
9.771070957183838,-1.69,0.43,0.5,1.81
9.771654844284058,-1.7,0.38,0.24,1.75
9.77565884590149,-1.82,0.21,0.12,1.83
9.785526752471924,-1.49,0.17,0.21,1.51
9.795593738555908,-0.85,0.02,0.16,0.86
9.805570840835571,-0.37,-0.07,-0.01,0.37
9.81543493270874,-0.32,-0.04,-0.34,0.46
9.82559871673584,-0.56,0.17,-0.68,0.89
9.835494995117188,-0.73,0.14,-0.9,1.16
9.870398998260498,-0.82,0.0,-1.08,1.35
9.871246814727783,-0.86,-0.07,-1.29,1.55
9.871831893920898,-0.67,-0.03,-1.36,1.51
9.875536918640137,-0.26,0.08,-1.17,1.2
9.885418891906738,0.05,0.04,-0.94,0.94
9.895399808883667,0.12,0.08,-0.81,0.82
9.905459880828857,0.16,0.17,-0.85,0.88
9.91541576385498,0.18,0.01,-0.41,0.44
9.925457000732422,0.12,0.02,-0.17,0.2
9.935436725616455,0.23,0.07,-0.14,0.27
9.969998836517334,0.33,-0.17,-0.14,0.39
9.970873832702637,0.19,-0.26,-0.36,0.48
9.971454858779907,-0.16,-0.1,-0.43,0.46
9.975363731384277,-0.49,-0.01,-0.36,0.6
9.985365867614746,-0.87,0.03,-0.29,0.91
9.995390892028809,-0.99,0.11,-0.17,1.01
10.005338668823242,-0.62,0.05,0.1,0.63
10.015344858169556,-0.23,-0.04,0.27,0.35
10.025227785110474,0.02,0.12,-0.06,0.13
10.035249710083008,0.13,0.11,-0.21,0.27
10.07129979133606,0.07,0.08,-0.2,0.22
10.071892738342285,-0.15,0.07,-0.1,0.19
10.072474002838135,-0.34,0.02,0.18,0.38
10.075043678283691,-0.53,-0.04,0.28,0.6
10.08533787727356,-0.7,-0.05,0.13,0.71
10.095273971557617,-0.71,-0.03,0.05,0.71
10.105268001556396,-0.6,0.05,-0.22,0.64
10.115052700042725,-0.46,0.24,-0.53,0.74
10.1250638961792,-0.44,0.4,-0.45,0.74
10.135108947753906,-0.47,0.44,-0.08,0.64
10.17139196395874,-0.29,0.33,0.29,0.52
10.171992778778076,0.11,0.24,0.47,0.53
10.172558784484863,0.68,0.24,0.51,0.88
10.174868822097778,1.23,0.23,0.5,1.34
10.185052871704102,1.55,0.18,0.18,1.57
10.195066928863525,1.59,0.09,-0.05,1.59
10.205029964447021,1.67,0.18,-0.29,1.7
10.215028762817383,1.62,0.39,-0.66,1.79
10.224847793579102,1.61,0.64,-0.81,1.91
10.234927654266357,1.67,0.73,-0.71,1.95
10.271317958831787,1.88,0.72,-0.44,2.06
10.27191686630249,2.15,0.76,-0.43,2.32
10.272500991821289,2.35,0.78,-0.32,2.49
10.274786949157715,2.55,0.85,-0.25,2.69
10.28495979309082,2.69,0.88,-0.04,2.83
10.294903755187988,2.92,1.06,-0.06,3.1
10.304866790771484,2.99,1.58,-0.39,3.4
10.314868927001953,2.76,2.4,-0.75,3.73
10.324774742126465,3.12,3.48,-1.42,4.88
10.334786891937256,3.51,4.01,-0.69,5.37
10.371833801269531,3.06,3.46,-0.59,4.65
10.37242579460144,3.54,3.22,0.05,4.78
10.373005867004395,4.19,3.11,0.41,5.23
10.374706745147705,4.86,3.11,0.44,5.78
10.384708881378174,5.63,3.44,0.81,6.64
10.394810676574707,6.22,3.79,0.48,7.29
10.404752731323242,6.69,4.21,0.51,7.92
10.414774894714355,6.85,4.59,0.7,8.27
10.42493200302124,6.54,4.55,0.68,7.99
10.434895992279053,6.24,4.85,0.91,7.95
10.472458839416504,5.64,5.06,0.55,7.59
10.473046779632568,4.57,4.82,0.05,6.64
10.473626852035522,3.36,4.83,0.19,5.88
10.47515082359314,2.54,5.66,-0.76,6.25
10.48470687866211,2.16,6.75,-2.56,7.53
10.494632720947266,1.32,7.7,-1.99,8.06
10.50458574295044,-0.76,7.86,-0.53,7.91
10.514604806900024,-0.77,8.41,-2.3,8.75
10.524909973144531,1.74,7.22,-3.35,8.14
10.534578800201416,4.69,5.41,-2.49,7.58
10.57231879234314,7.7,4.17,-1.98,8.97
10.572908878326416,10.75,1.88,-1.02,10.96
10.573498725891113,8.12,-2.54,-0.09,8.5
10.575040817260742,-0.79,-2.48,0.04,2.6
10.584300994873047,-5.75,0.24,-3.42,6.69
10.59447979927063,-0.67,1.23,-4.58,4.78
10.604463815689087,6.17,-0.48,-2.38,6.63
10.614458799362183,8.93,-1.64,-0.31,9.08
10.624395847320557,8.98,-2.46,1.07,9.37
10.634415864944458,7.41,-2.7,1.58,8.04
10.672621726989746,6.17,-3.49,1.45,7.23
10.673218727111816,5.78,-4.28,1.44,7.33
10.673808813095093,6.3,-4.64,1.46,7.95
10.675364971160889,6.93,-4.06,1.65,8.19
10.68438196182251,6.48,-2.85,1.88,7.32
10.694385766983032,5.5,-2.17,1.9,6.21
10.704288959503174,4.64,-2.18,1.88,5.46
10.714301824569702,3.74,-2.27,2.02,4.81
10.724299907684326,3.29,-2.13,2.21,4.49
10.734206676483154,3.36,-1.49,2.12,4.24
10.773270845413208,3.77,-0.69,2.07,4.35
10.773880958557129,3.35,0.07,2.14,3.97
10.774472713470459,1.44,0.98,1.28,2.16
10.775969982147217,-0.65,1.98,-0.27,2.1
10.784219741821289,-1.75,2.52,-1.41,3.37
10.79420280456543,-2.14,3.1,-1.53,4.06
10.804176807403564,-3.21,4.32,-1.5,5.58
10.814169883728027,-4.95,5.25,-1.8,7.43
10.824178695678711,-6.81,5.36,-2.49,9.01
10.834176778793335,-8.27,5.21,-3.09,10.25
10.873738765716553,-9.54,5.59,-3.64,11.64
10.87433385848999,-10.89,5.95,-4.61,13.23
10.875284671783447,-12.0,5.38,-4.57,13.92
10.876443862915039,-12.24,3.83,-3.46,13.28
10.884039878845215,-11.39,2.07,-2.64,11.87
10.894023895263672,-9.97,0.6,-1.92,10.17
10.904120922088623,-9.06,-0.51,-1.61,9.21
10.914063930511475,-9.4,-1.15,-1.85,9.64
10.924015998840332,-11.06,-1.04,-2.03,11.29
10.93393087387085,-11.34,-0.87,-1.95,11.53
10.97294569015503,-9.55,-0.97,-1.45,9.7
10.973560810089111,-8.23,-0.04,-1.27,8.32
10.97414779663086,-5.98,7.03,-1.89,9.42
10.975637912750244,-6.01,6.08,-2.57,8.92
10.983934879302979,-3.08,0.66,-3.82,4.95
10.99401569366455,9.5,-1.39,3.82,10.33
11.003904819488525,14.25,-1.39,10.07,17.5
11.013925790786743,7.62,0.47,4.5,8.86
11.023916721343994,-3.34,1.77,-1.08,3.93
11.033918857574463,-10.3,0.77,-2.5,10.62
11.075113773345947,-9.29,2.38,-2.41,9.88
11.075707912445068,-5.92,7.93,-1.74,10.04
11.076312780380249,-4.6,8.42,-0.62,9.61
11.077471733093262,-4.79,1.87,-1.43,5.33
11.083813667297363,-4.38,-0.47,-1.19,4.56
11.093812942504883,-3.56,-0.34,1.27,3.79
11.103713989257812,-5.04,-2.53,1.1,5.74
11.113771915435791,-6.09,-2.61,-1.01,6.7
11.123727798461914,-4.26,-1.41,-1.1,4.62
11.133697986602783,-2.04,-0.22,-0.53,2.11
11.17380976676941,-1.34,0.2,-0.04,1.35
11.174402713775635,-1.44,0.31,0.47,1.54
11.175320863723755,-1.55,0.47,0.34,1.65
11.176472663879395,-1.17,0.78,-0.59,1.52
11.183851718902588,-0.73,0.77,-0.8,1.32
11.193697929382324,-0.71,0.49,-0.43,0.96
11.203744888305664,-0.86,0.13,-0.42,0.96
11.21378469467163,-1.01,-0.05,-1.34,1.67
11.223660945892334,-1.01,-0.19,-1.83,2.09
11.233635902404785,-0.95,-0.02,-1.98,2.19
11.274695873260498,-0.81,-0.04,-1.42,1.63
11.27563190460205,-0.36,-0.11,-0.56,0.67
11.276224851608276,0.17,0.05,0.0,0.17
11.277405738830566,0.32,0.16,-0.04,0.36
11.283581733703613,0.0,0.07,-0.16,0.17
11.293578863143921,-0.22,0.02,-0.03,0.22
11.303449869155884,-0.28,0.0,0.34,0.44
11.31355881690979,-0.46,0.04,0.26,0.52
11.323483943939209,-0.51,0.05,-0.28,0.58
11.333608865737915,-0.33,-0.08,-0.63,0.71
11.375316858291626,-0.29,-0.21,-0.9,0.96
11.375907897949219,-0.28,-0.12,-0.74,0.8
11.376486778259277,-0.15,-0.01,-0.53,0.55
11.377663850784302,0.02,0.0,-0.39,0.39
11.38344669342041,-0.02,0.06,-0.28,0.28
11.393309831619263,-0.11,0.06,-0.12,0.17
11.403360843658447,-0.23,-0.05,0.03,0.23
11.413317680358887,-0.18,-0.05,0.05,0.19
11.423250675201416,-0.07,0.01,0.1,0.12
11.433199882507324,-0.14,0.03,0.01,0.14
11.47556185722351,-0.31,0.01,-0.12,0.33
11.47617769241333,-0.16,0.04,-0.24,0.29
11.476763725280762,0.03,0.02,-0.24,0.24
11.477909803390503,0.17,0.1,-0.35,0.4
11.483261823654175,0.45,0.21,-0.12,0.51
11.493189811706543,0.7,0.41,0.18,0.83
11.50324296951294,0.58,0.48,0.16,0.76
11.513229846954346,0.41,0.44,0.11,0.61
11.523191928863525,0.26,0.29,0.28,0.47
11.533162832260132,0.0,0.11,0.38,0.39
11.575148820877075,-0.14,-0.05,0.48,0.5
11.575738906860352,0.03,-0.07,0.5,0.5
11.576327800750732,0.36,0.11,0.43,0.57
11.577518939971924,0.69,0.4,0.19,0.81
11.583134651184082,1.22,0.63,-0.42,1.43
11.593070983886719,1.98,0.52,-0.53,2.11
11.603121757507324,2.38,0.19,-0.42,2.42
11.613109827041626,2.46,0.24,-0.36,2.49
11.623111724853516,2.5,0.51,-0.28,2.56
11.633060932159424,2.65,0.61,0.03,2.71
11.675524711608887,2.89,1.11,-0.5,3.13
11.676129817962646,3.24,2.34,-0.84,4.08
11.676715850830078,3.33,2.52,-0.24,4.18
11.67829179763794,3.3,2.71,-0.69,4.32
11.68292784690857,3.39,3.15,-0.91,4.71
11.692883968353271,3.95,3.0,-0.81,5.02
11.702923774719238,4.2,2.69,-0.69,5.03
11.712955951690674,4.25,2.59,-0.51,5.0
11.722953796386719,4.43,2.78,-0.39,5.24
11.732764720916748,4.53,3.21,-0.34,5.56
11.77662467956543,4.63,3.85,-0.22,6.02
11.777222871780396,4.81,4.33,-0.14,6.47
11.778159856796265,5.17,4.52,0.12,6.86
11.779309749603271,5.42,4.47,0.35,7.03
11.782826900482178,5.27,4.24,0.29,6.77
11.792705774307251,4.65,4.23,-0.08,6.28
11.80276083946228,3.7,4.32,-0.32,5.69
11.812854766845703,2.35,5.05,-0.59,5.6
11.822771787643433,1.19,6.14,-0.55,6.27
11.832711696624756,0.86,7.11,-0.62,7.18
11.876087665557861,1.52,6.96,-1.7,7.32
11.876682758331299,1.71,6.06,-3.05,6.99
11.877298831939697,0.46,5.76,-2.65,6.35
11.87879991531372,0.29,6.57,-4.2,7.8
11.882619857788086,2.48,5.89,-4.03,7.55
11.892396926879883,5.96,5.4,-2.2,8.33
11.902632713317871,9.36,3.73,-1.74,10.22
11.912708759307861,9.51,-0.98,-1.2,9.63
11.92270565032959,5.07,-3.23,-0.36,6.02
11.932673931121826,-1.68,-3.11,-1.82,3.97
11.976615905761719,-1.95,0.05,-4.36,4.77
11.977542877197266,4.9,0.33,-3.35,5.94
11.978132724761963,9.68,-1.14,-0.73,9.77
11.979291915893555,10.95,-1.77,0.69,11.11
11.982471942901611,9.7,-2.3,1.61,10.09
11.992413997650146,7.51,-2.77,2.23,8.3
12.002548694610596,5.64,-3.52,2.12,6.97
12.012547969818115,4.7,-4.32,1.98,6.68
12.022520780563354,4.72,-4.35,1.7,6.64
12.032521724700928,4.9,-3.65,1.13,6.21
12.078125953674316,4.85,-2.84,0.54,5.64
12.078730821609497,4.7,-2.18,0.18,5.18
12.079316854476929,4.63,-1.75,0.25,4.95
12.080481767654419,4.35,-1.32,0.71,4.6
12.082413673400879,3.54,-0.74,1.28,3.83
12.092524766921997,2.22,-0.14,1.6,2.74
12.102404832839966,1.21,0.15,1.04,1.6
12.11233377456665,0.92,0.27,-0.28,0.99
12.122419834136963,0.34,1.07,-1.64,1.98
12.132365703582764,-1.1,1.84,-2.35,3.18
12.17762279510498,-2.59,2.3,-2.48,4.26
12.178415775299072,-3.65,2.66,-2.49,5.15
12.179013729095459,-4.07,3.02,-2.48,5.64
12.180150985717773,-4.13,3.13,-2.48,5.74
12.182321786880493,-4.52,3.28,-2.72,6.21
12.192617893218994,-5.36,3.56,-3.67,7.4
12.202255725860596,-6.88,4.29,-4.83,9.43
12.212286949157715,-8.73,5.15,-5.18,11.38
12.222127914428711,-10.18,5.5,-4.53,12.42
12.232255935668945,-10.85,4.82,-3.44,12.36
12.278114795684814,-10.76,3.2,-2.49,11.49
12.278724670410156,-10.35,1.16,-1.45,10.51
12.279313802719116,-9.63,-0.33,-0.66,9.65
12.2804536819458,-9.41,-1.23,-0.08,9.49
12.282089710235596,-9.54,-1.18,0.22,9.61
12.292064666748047,-9.18,-1.08,0.44,9.25
12.302074909210205,-8.39,0.46,0.21,8.4
12.31218671798706,-5.83,5.28,-0.49,7.88
12.322091817855835,-5.7,3.01,-0.71,6.48
12.332144737243652,-8.02,-0.06,-0.2,8.02
12.34208869934082,-7.41,-0.32,-0.96,7.47
12.379090785980225,1.73,1.92,0.51,2.63
12.379682779312134,11.28,2.39,6.48,13.22
12.380863666534424,9.3,1.51,5.1,10.71
12.382026672363281,-0.4,1.26,0.54,1.42
12.392041683197021,-7.95,0.48,-0.9,8.01
12.401959896087646,-8.56,1.17,-0.97,8.69
12.411982774734497,-6.98,4.73,-1.26,8.52
12.422008991241455,-5.77,7.11,-1.52,9.28
12.43196988105774,-5.73,3.29,-3.09,7.29
12.44187879562378,-5.81,1.78,-3.27,6.9
12.478977680206299,-4.08,2.29,0.28,4.68
12.479582786560059,-4.09,-1.86,1.75,4.82
12.480752944946289,-4.55,-2.13,0.38,5.03
12.481940746307373,-4.01,-0.69,-0.66,4.12
12.491814851760864,-2.84,-0.07,-0.32,2.85
12.50182294845581,-1.83,0.14,-0.14,1.84
12.5118567943573,-1.26,0.03,-0.25,1.28
12.521785736083984,-1.01,-0.02,-0.13,1.01
12.531882762908936,-0.57,-0.12,-0.22,0.62
12.541804790496826,0.22,-0.14,-0.03,0.26
12.57955265045166,0.69,0.03,-0.3,0.75
12.580135822296143,0.58,0.03,-0.76,0.95
12.581233978271484,0.09,0.02,-0.76,0.76
12.58235478401184,-0.57,0.1,-0.8,0.98
12.591681957244873,-0.87,0.07,-1.0,1.32
12.601682662963867,-0.76,0.08,-1.13,1.36
12.611745834350586,-0.46,0.15,-0.97,1.08
12.621668815612793,-0.15,0.14,-0.78,0.8
12.631646871566772,0.14,0.14,-0.59,0.62
12.641628742218018,0.45,0.06,-0.28,0.53
12.679409980773926,0.41,-0.03,-0.04,0.41
12.680010795593262,0.21,0.0,-0.01,0.21
12.681185722351074,0.05,0.06,0.02,0.08
12.68232774734497,-0.01,0.01,-0.22,0.22
12.691497802734375,-0.4,0.07,-0.22,0.46
12.701469898223877,-0.67,0.03,-0.22,0.7
12.711607933044434,-0.85,-0.09,-0.14,0.86
12.721625804901123,-0.85,-0.07,-0.02,0.85
12.731582880020142,-0.6,-0.16,0.23,0.66
12.741567850112915,-0.33,-0.1,0.14,0.37
12.780171871185303,-0.1,0.0,-0.11,0.14
12.780777931213379,-0.14,-0.07,0.08,0.17
12.781956672668457,-0.53,-0.05,0.19,0.56
12.783108711242676,-0.8,-0.1,0.34,0.87
12.791425704956055,-0.84,-0.07,0.61,1.04
12.801330804824829,-0.51,0.05,0.32,0.6
12.811416864395142,0.18,0.06,-0.29,0.34
12.821348667144775,0.66,0.12,-0.48,0.82
12.831487655639648,0.64,0.3,-0.47,0.84
12.841448783874512,0.57,0.24,-0.3,0.68
12.88053584098816,0.64,0.12,-0.07,0.65
12.881166934967041,0.5,0.15,-0.13,0.53
12.882325649261475,0.43,0.16,-0.22,0.5
12.883465766906738,0.73,0.07,0.03,0.73
12.891230821609497,0.83,0.14,0.15,0.85
12.901341915130615,0.64,0.25,0.11,0.69
12.911297798156738,0.48,0.29,0.23,0.6
12.92120885848999,0.34,0.33,0.34,0.58
12.96302580833435,0.22,0.34,0.41,0.57
12.96362590789795,0.39,0.39,0.19,0.58
12.964205741882324,1.01,0.62,-0.82,1.44
12.964788913726807,1.95,0.58,-1.48,2.51
12.971224784851074,2.72,0.26,-1.07,2.93
12.981167793273926,3.16,0.29,-0.86,3.28
12.991283893585205,3.38,0.3,-0.61,3.44
13.001189708709717,3.28,0.74,-0.37,3.38
13.011189937591553,3.1,1.56,-0.61,3.52
13.021143913269043,3.03,2.79,-0.17,4.12
13.065018653869629,2.61,2.93,0.58,3.96
13.065626859664917,2.54,2.79,0.53,3.81
13.066511869430542,2.66,2.79,0.75,3.92
13.067059993743896,2.96,2.86,0.35,4.13
13.071058750152588,3.27,3.2,-0.06,4.57
13.081146717071533,3.7,3.68,-0.83,5.28
13.090994834899902,4.49,3.98,-0.77,6.04
13.101077795028687,4.8,4.08,-0.76,6.34
13.1109938621521,4.97,4.36,-0.81,6.66
13.121043682098389,5.59,5.01,-0.38,7.51
13.165045738220215,6.06,5.3,-0.28,8.05
13.165990829467773,5.7,5.38,-0.32,7.84
13.16658067703247,4.71,5.29,-0.22,7.08
13.16716194152832,3.1,5.3,-0.27,6.14
13.170856952667236,1.59,6.38,-0.35,6.58
13.180981874465942,1.0,8.23,-1.36,8.4
13.190831661224365,1.93,8.48,-2.75,9.12
13.200928688049316,2.94,8.04,-3.56,9.27
13.210761785507202,1.38,7.75,-2.9,8.38
13.220836877822876,0.89,7.72,-4.18,8.82
13.264935970306396,2.31,5.53,-4.34,7.39
13.26589298248291,5.4,4.2,-2.46,7.26
13.266473770141602,8.4,2.96,-1.5,9.03
13.267058849334717,9.51,-0.54,-0.72,9.55
13.270795822143555,4.95,-3.7,0.44,6.19
13.280818939208984,-2.17,-5.19,-0.47,5.64
13.290714740753174,-3.05,-3.14,-3.73,5.75
13.300787925720215,3.49,-0.27,-3.92,5.25
13.310635805130005,9.01,-1.71,-2.11,9.41
13.320716857910156,11.64,-2.62,-0.14,11.93
13.36614465713501,11.65,-2.74,1.19,12.02
13.366943836212158,9.62,-2.59,2.19,10.2
13.36752986907959,7.08,-2.72,2.59,8.01
13.368113994598389,5.15,-3.55,2.26,6.65
13.370609760284424,4.27,-3.81,1.81,6.0
13.380666732788086,4.44,-3.45,1.38,5.78
13.390602827072144,4.77,-3.29,1.0,5.88
13.400544881820679,4.92,-3.12,0.5,5.84
13.410460948944092,4.86,-2.8,0.33,5.61
13.420530796051025,4.65,-2.33,0.53,5.22
13.465316772460938,4.25,-1.73,1.2,4.74
13.466227769851685,3.93,-1.13,2.36,4.72
13.466811656951904,3.84,-0.34,2.94,4.84
13.467402935028076,3.44,0.48,2.03,4.02
13.47051191329956,1.73,1.53,0.31,2.33
13.480506896972656,-1.38,3.09,-1.16,3.57
13.490460872650146,-3.88,4.09,-1.82,5.92
13.500503778457642,-4.04,4.33,-1.61,6.13
13.510307788848877,-3.16,5.46,-1.0,6.38
13.52049970626831,-3.09,6.2,-0.4,6.93
13.566319942474365,-4.15,6.05,-0.8,7.38
13.566913843154907,-6.03,5.23,-2.36,8.32
13.567497730255127,-7.0,4.85,-3.75,9.3
13.568081855773926,-7.79,5.93,-4.52,10.78
13.570350646972656,-8.76,6.9,-5.26,12.32
13.58040976524353,-9.32,5.77,-5.04,12.06
13.590343952178955,-9.84,3.79,-3.91,11.24
13.600383758544922,-9.46,1.64,-3.06,10.07
13.610277652740479,-9.09,-0.2,-1.31,9.18
13.62028169631958,-9.28,-1.19,0.06,9.35
13.666966915130615,-10.32,-1.59,-0.48,10.45
13.667568683624268,-10.5,-1.95,-1.46,10.77
13.668152809143066,-8.93,-1.59,-1.55,9.2
13.668744802474976,-7.4,0.92,-1.57,7.62
13.670198917388916,-5.7,7.23,-1.77,9.37
13.680254936218262,-5.06,5.32,-1.42,7.47
13.690204858779907,-8.65,-0.44,-2.1,8.91
13.700239658355713,-5.19,-1.9,-2.22,5.95
13.710163831710815,5.91,0.66,3.12,6.71
13.720179796218872,11.72,1.41,7.13,13.79
13.767301797866821,5.48,0.52,3.91,6.75
13.767894744873047,-4.3,0.13,0.11,4.3
13.7684907913208,-9.55,-0.94,-1.26,9.67
13.769081830978394,-8.47,0.89,-2.26,8.81
13.770322799682617,-6.02,6.05,-1.86,8.73
13.780125856399536,-4.64,8.42,-1.03,9.66
13.790120840072632,-5.21,4.56,-2.0,7.2
13.800026893615723,-6.62,0.56,-3.47,7.49
13.810261726379395,-5.3,2.19,-1.18,5.85
13.820013999938965,-4.31,0.32,1.45,4.55
13.868237972259521,-4.07,-1.92,1.31,4.68
13.868839740753174,-3.81,-1.38,0.13,4.05
13.869419813156128,-2.62,-0.42,-0.5,2.7
13.870025873184204,-1.44,-0.15,-0.32,1.48
13.871187686920166,-0.84,-0.08,-0.24,0.87
13.87987995147705,-0.35,0.06,-0.37,0.51
13.889803886413574,-0.12,0.11,-0.58,0.6
13.89992094039917,-0.04,0.09,-0.72,0.72
13.909904956817627,-0.02,0.06,-0.54,0.54
13.919918775558472,-0.04,0.03,-0.13,0.13
13.96856689453125,0.04,-0.02,0.07,0.08
13.969139814376831,0.16,-0.02,-0.4,0.43
13.969703674316406,0.17,-0.15,-1.26,1.28
13.97029185295105,0.38,-0.39,-1.4,1.5
13.971462726593018,0.55,-0.08,-1.2,1.32
13.979948997497559,0.72,0.3,-0.82,1.13
13.989798784255981,0.68,0.23,-0.2,0.74
13.999795913696289,0.44,-0.05,0.07,0.44
14.009767770767212,0.11,-0.29,-0.1,0.32
14.019633769989014,-0.37,-0.27,-0.35,0.57
14.068392753601074,-0.74,-0.06,-0.55,0.92
14.068996906280518,-1.12,0.11,-0.42,1.2
14.069604873657227,-1.48,0.06,-0.06,1.48
14.070188999176025,-1.45,-0.06,0.13,1.45
14.071337699890137,-1.03,0.0,0.11,1.03
14.079729795455933,-0.78,0.11,0.07,0.79
14.089637756347656,-1.07,0.33,0.23,1.14
14.099684715270996,-1.21,0.18,0.52,1.32
14.10965085029602,-0.78,-0.07,0.04,0.78
14.119635820388794,-0.24,-0.04,-0.89,0.92
14.169277667999268,0.1,-0.04,-1.01,1.01
14.169830799102783,0.14,0.03,-0.89,0.9
14.170415878295898,-0.08,0.09,-0.49,0.5
14.171000957489014,-0.25,0.02,0.04,0.25
14.172130823135376,-0.3,0.02,0.16,0.34
14.179500818252563,-0.3,0.06,0.25,0.39
14.189512729644775,-0.31,0.08,0.21,0.38
14.199472904205322,-0.23,0.08,0.07,0.25
14.209486961364746,0.05,-0.02,0.04,0.06
14.219464778900146,0.43,-0.07,0.09,0.44
14.269018650054932,0.67,-0.04,0.02,0.67
14.269593715667725,0.72,0.01,0.02,0.72
14.270102977752686,0.72,0.01,0.15,0.73
14.270608901977539,0.75,0.05,0.16,0.76
14.271744728088379,0.86,0.12,0.07,0.87
14.279361724853516,1.05,0.21,-0.09,1.07
14.289339780807495,1.41,0.28,-0.21,1.45
14.299463748931885,1.68,0.36,-0.36,1.75
14.309316873550415,1.63,0.43,-0.58,1.78
14.319341659545898,1.71,0.44,-0.46,1.82
14.369592666625977,2.0,0.47,-0.44,2.1
14.37019968032837,2.48,0.5,-0.43,2.56
14.370790958404541,2.78,0.47,-0.33,2.83
14.371372699737549,2.97,0.52,-0.31,3.03
14.372544765472412,3.24,0.67,-0.29,3.32
14.379230976104736,3.47,0.77,-0.57,3.59
14.389229774475098,3.51,1.14,-0.86,3.78
14.399232864379883,3.47,1.55,-0.73,3.86
14.40916395187378,3.18,2.17,-0.46,3.87
14.419104814529419,3.34,3.12,-0.97,4.67
14.470213890075684,3.86,4.1,-0.96,5.71
14.47081184387207,3.44,3.74,0.15,5.08
14.47139596939087,3.31,3.54,0.45,4.86
14.471970796585083,3.26,3.64,0.61,4.92
14.473126888275146,3.24,3.68,0.32,4.91
14.479044914245605,3.12,3.87,0.58,5.0
14.489065647125244,3.39,4.16,0.36,5.37
14.499140739440918,4.03,4.66,-0.01,6.16
14.509064674377441,4.36,4.41,-0.3,6.2
14.518996715545654,4.05,4.0,-0.39,5.7
14.570267677307129,3.79,4.32,-0.45,5.76
14.570856809616089,3.69,5.07,-0.56,6.29
14.571441650390625,4.01,6.72,-0.81,7.86
14.572025775909424,4.79,7.88,-1.86,9.4
14.573158740997314,4.97,7.37,-2.76,9.3
14.579027652740479,4.16,6.85,-1.92,8.24
14.588984966278076,1.45,7.07,-0.43,7.22
14.59900188446045,-1.56,7.97,-1.96,8.35
14.6089608669281,-1.05,6.94,-3.85,8.0
14.618993759155273,1.85,5.22,-2.29,5.99
14.67103099822998,5.21,4.02,-1.5,6.74
14.671630859375,8.67,1.08,-1.32,8.83
14.672213792800903,8.62,-2.57,-0.31,9.0
14.672796726226807,1.03,-4.16,0.5,4.31
14.674296855926514,-4.14,-3.99,-3.02,6.49
14.678900718688965,-0.42,-0.03,-4.5,4.51
14.68881893157959,5.85,-1.0,-3.0,6.65
14.698859691619873,9.01,-2.22,-0.68,9.3
14.708833694458008,9.75,-2.54,0.7,10.09
14.71875286102295,8.71,-2.96,1.45,9.31
14.771711826324463,7.07,-3.56,1.79,8.11
14.772302865982056,5.63,-4.51,1.78,7.43
14.772891998291016,5.15,-4.75,1.44,7.15
14.773483753204346,5.01,-4.15,0.85,6.56
14.774971961975098,4.86,-3.6,0.35,6.05
14.778540849685669,4.53,-3.29,0.02,5.59
14.788627862930298,4.25,-3.05,-0.07,5.23
14.798630714416504,4.08,-2.75,0.13,4.92
14.80861783027649,3.91,-2.3,0.46,4.55
14.818483829498291,3.63,-1.8,1.17,4.21
14.871782779693604,3.41,-1.38,2.05,4.21
14.872369766235352,3.66,-0.72,2.69,4.59
14.872983932495117,4.08,0.06,2.89,5.0
14.87388277053833,3.07,1.58,2.14,4.06
14.875037670135498,0.93,3.17,0.3,3.31
14.87845778465271,-0.78,4.11,-1.5,4.44
14.888388872146606,-1.58,5.07,-1.96,5.66
14.898562908172607,-2.3,6.33,-1.89,6.99
14.908369779586792,-3.59,7.38,-2.61,8.61
14.9185209274292,-5.91,7.63,-3.79,10.36
14.972712993621826,-8.93,7.77,-4.55,12.68
14.973621845245361,-10.68,7.49,-5.28,14.07
14.974223852157593,-11.16,6.25,-6.42,14.31
14.974804878234863,-11.55,4.92,-6.83,14.29
14.97596788406372,-11.83,3.16,-5.56,13.44
14.978253841400146,-11.83,0.64,-3.1,12.24
14.98842191696167,-11.32,-1.47,-1.3,11.48
14.998442649841309,-10.47,-2.68,-0.79,10.83
15.00837779045105,-9.35,-2.82,-1.0,9.81
15.018279790878296,-8.16,-2.11,-1.29,8.52
15.073418855667114,-7.0,-1.22,-1.51,7.26
15.074217796325684,-6.03,-0.38,-1.66,6.26
15.074800968170166,-5.5,0.96,-1.58,5.8
15.075379848480225,-3.91,6.24,-1.54,7.52
15.076536655426025,-3.3,5.41,-1.1,6.43
15.078135967254639,-5.58,0.93,-0.17,5.65
15.088241815567017,-1.95,0.2,0.13,1.96
15.09827184677124,5.93,0.53,4.65,7.55
15.108230829238892,8.63,0.32,8.52,12.13
15.118079662322998,3.82,-0.11,2.73,4.69
15.174335956573486,-3.48,0.16,-1.42,3.76
15.174929857254028,-7.63,0.01,-1.56,7.78
15.175512790679932,-6.66,1.71,-2.1,7.18
15.176097869873047,-4.44,6.15,-2.39,7.95
15.177230834960938,-2.43,7.37,-1.05,7.83
15.178755760192871,-2.48,2.57,0.6,3.62
15.188224792480469,-3.08,0.43,0.72,3.19
15.198150873184204,-4.38,-1.23,-1.9,4.93
15.208085775375366,-4.7,-0.62,-2.38,5.3
15.218124866485596,-4.49,-0.1,-1.14,4.63
15.274959802627563,-4.26,-1.26,-0.78,4.51
15.275556802749634,-3.98,-1.13,-0.98,4.25
15.276136875152588,-3.54,-0.27,-1.14,3.72
15.276724815368652,-2.85,0.57,-0.55,2.95
15.278233766555786,-2.24,0.89,0.14,2.41
15.279380798339844,-1.39,0.58,0.46,1.57
15.288009881973267,-0.69,0.36,0.42,0.88
15.298049926757812,-0.17,0.24,0.24,0.37
15.307973861694336,0.49,-0.08,0.15,0.51
15.31801176071167,1.04,-0.33,0.06,1.09
15.3750638961792,1.09,-0.33,-0.42,1.21
15.375625848770142,0.37,-0.23,-1.02,1.1
15.376219749450684,-0.45,-0.18,-1.23,1.32
15.376799821853638,-0.87,0.15,-1.17,1.46
15.378310680389404,-1.04,0.26,-1.02,1.47
15.379471778869629,-0.92,0.17,-0.9,1.29
15.387808799743652,-0.86,0.16,-0.85,1.21
15.397841930389404,-0.9,0.08,-0.72,1.15
15.407803773880005,-0.88,-0.04,-0.31,0.93
15.417827844619751,-0.62,-0.01,0.27,0.67
15.475605964660645,-0.35,-0.03,0.56,0.66
15.476195812225342,-0.12,-0.08,0.37,0.39
15.476787805557251,0.0,0.0,0.02,0.02
15.477368831634521,0.09,0.08,-0.51,0.52
15.478919982910156,0.07,0.02,-0.98,0.98
15.480067729949951,-0.15,-0.03,-0.86,0.87
15.487685680389404,-0.41,-0.03,-0.68,0.79
15.497731685638428,-0.48,0.01,-0.48,0.67
15.507670879364014,-0.35,0.02,-0.38,0.51
15.51771068572998,-0.2,-0.07,-0.34,0.4
15.527671813964844,-0.14,-0.11,-0.22,0.28
15.576554775238037,-0.1,0.05,-0.17,0.2
15.57714581489563,-0.02,0.11,-0.05,0.12
15.578099727630615,0.06,0.09,0.01,0.1
15.579250812530518,0.06,0.03,-0.16,0.17
15.58033800125122,0.06,-0.06,-0.19,0.2
15.58759069442749,0.16,-0.07,-0.16,0.23
15.59764575958252,0.11,0.04,-0.19,0.22
15.607520818710327,0.02,0.12,0.03,0.12
15.617515802383423,0.07,0.16,0.15,0.23
15.627485752105713,0.27,0.14,0.13,0.33
15.676217794418335,0.57,0.11,0.17,0.6
15.676806926727295,0.88,0.17,0.05,0.89
15.677430868148804,1.09,0.16,-0.02,1.1
15.678936958312988,1.11,0.18,-0.22,1.14
15.68007779121399,1.16,0.26,-0.43,1.26
15.687407970428467,1.5,0.26,-0.57,1.62
15.697396755218506,1.9,0.22,-0.46,1.96
15.70735478401184,2.35,0.33,-0.29,2.39
15.717374801635742,2.94,0.5,-0.22,2.99
15.727309703826904,3.57,0.51,-0.1,3.6
15.776437759399414,3.86,0.46,-0.02,3.88
15.777068853378296,4.02,0.44,0.02,4.04
15.777660846710205,4.16,0.59,-0.13,4.2
15.77923583984375,4.24,0.98,-0.65,4.4
15.780439853668213,3.89,1.34,-1.13,4.26
15.787318706512451,3.3,1.64,-1.4,3.94
15.79731273651123,2.71,2.49,-1.3,3.9
15.807231903076172,2.27,4.37,-1.66,5.19
15.817272663116455,2.76,4.8,-0.17,5.53
15.827255725860596,2.58,3.94,0.76,4.77
15.876547813415527,2.74,3.82,0.95,4.79
15.877152919769287,3.08,3.85,0.8,4.99
15.877731800079346,3.29,3.92,0.88,5.19
15.879236698150635,3.57,4.18,0.44,5.51
15.880384922027588,4.37,4.49,0.05,6.26
15.88714075088501,5.15,4.53,-0.47,6.87
15.897193908691406,5.55,4.29,-0.69,7.04
15.907120704650879,5.43,3.74,-0.92,6.65
15.917122840881348,4.87,3.77,-1.07,6.25
15.927014827728271,4.14,4.53,-0.97,6.21
15.977185726165771,3.89,6.66,-1.65,7.88
15.977774858474731,3.48,8.77,-2.28,9.7
15.978758811950684,2.51,8.71,-2.2,9.32
15.979906797409058,2.05,7.59,-2.5,8.24
15.981043815612793,0.82,7.04,-3.24,7.79
15.987042903900146,0.49,6.89,-4.49,8.23
15.996989727020264,2.6,6.01,-5.05,8.26
16.006964683532715,5.45,6.13,-2.94,8.71
16.017008781433105,7.81,4.23,-1.21,8.96
16.026855945587158,7.3,-1.22,-0.26,7.4
16.077420711517334,3.92,-4.07,0.87,5.71
16.078027725219727,-2.15,-5.21,-0.47,5.65
16.078979969024658,-4.32,-2.4,-4.11,6.42
16.080156803131104,1.72,0.27,-4.26,4.6
16.081331729888916,8.35,-1.35,-2.37,8.78
16.086899757385254,10.69,-2.38,-0.37,10.95
16.096889972686768,10.17,-2.57,1.11,10.54
16.106870651245117,8.21,-3.38,2.0,9.1
16.116920948028564,5.94,-4.1,2.3,7.57
16.126754760742188,4.63,-4.41,1.74,6.62
16.177843809127808,4.3,-4.45,1.26,6.31
16.17876386642456,4.28,-4.18,0.9,6.04
16.17935085296631,4.06,-3.77,0.35,5.55
16.18050479888916,3.74,-3.47,0.07,5.1
16.181955814361572,3.6,-3.15,-0.04,4.78
16.18667984008789,3.69,-2.78,0.13,4.62
16.196669816970825,3.75,-2.24,0.58,4.4
16.20664381980896,3.66,-1.4,1.02,4.04
16.216640949249268,3.3,-0.27,1.7,3.72
16.22651481628418,2.84,0.93,2.61,3.96
16.278499841690063,2.33,1.42,2.89,3.97
16.27908182144165,1.29,1.47,1.41,2.41
16.279669761657715,-0.96,2.44,-1.28,2.91
16.280824661254883,-3.74,3.21,-3.14,5.84
16.282330989837646,-5.31,3.72,-3.4,7.32
16.286600828170776,-5.38,4.07,-2.73,7.27
16.296538829803467,-4.63,3.84,-1.75,6.26
16.306564807891846,-4.14,3.65,-1.0,5.6
16.316665649414062,-4.43,3.94,-1.48,6.11
16.32660675048828,-6.05,4.74,-2.78,8.17
16.379097938537598,-8.3,5.24,-4.17,10.66
16.379711866378784,-10.28,5.79,-3.94,12.43
16.38029980659485,-11.39,5.91,-3.03,13.18
16.381821870803833,-11.41,4.65,-2.38,12.54
16.382954835891724,-10.37,2.35,-1.82,10.78
16.38647484779358,-9.13,0.18,-1.69,9.28
16.396420001983643,-8.76,-1.02,-1.59,8.96
16.406385898590088,-9.47,-0.52,-1.41,9.58
16.41646671295166,-10.23,-0.44,-0.98,10.28
16.426341772079468,-9.74,-0.93,-0.42,9.79
16.47957181930542,-8.41,-0.79,-0.42,8.45
16.480140686035156,-5.95,4.56,-0.96,7.55
16.480751991271973,-4.07,6.43,-1.33,7.72
16.482221841812134,-5.65,1.75,-1.92,6.21
16.483353853225708,-3.67,-0.48,-1.47,3.98
16.486315727233887,6.35,0.75,2.82,6.98
16.496187686920166,13.84,1.23,8.42,16.24
16.50627899169922,9.71,1.05,6.08,11.5
16.516302824020386,-0.48,1.31,0.86,1.63
16.52622890472412,-8.29,-0.17,-1.17,8.37
16.580556869506836,-8.76,-0.92,-1.66,8.96
16.581469774246216,-6.35,1.14,-1.85,6.71
16.58204698562622,-4.66,4.7,-1.13,6.71
16.583173751831055,-4.04,5.84,-0.54,7.12
16.58430767059326,-4.29,2.94,-0.17,5.2
16.586155891418457,-4.36,0.1,-1.93,4.76
16.596110820770264,-5.14,-0.2,-3.03,5.96
16.606114864349365,-4.56,2.11,-0.96,5.11
16.616228818893433,-3.73,1.0,0.51,3.89
16.626123905181885,-2.9,-0.72,0.79,3.09
16.68094778060913,-1.76,-0.59,0.63,1.96
16.6817889213562,-1.23,-0.37,0.35,1.33
16.68237066268921,-1.63,-0.59,0.08,1.73
16.683507919311523,-1.97,-0.58,0.02,2.05
16.68462896347046,-1.73,0.02,0.0,1.73
16.686028957366943,-0.84,0.49,-0.18,0.98
16.695806980133057,-0.06,0.43,-0.47,0.63
16.705995798110962,-0.02,0.14,-0.5,0.51
16.715985774993896,-0.45,-0.16,-0.72,0.86
16.72598385810852,-0.84,-0.17,-1.15,1.43
16.781770706176758,-0.91,-0.03,-1.49,1.74
16.782365798950195,-0.95,0.06,-1.57,1.83
16.782956838607788,-0.96,0.01,-1.32,1.63
16.7842059135437,-0.76,-0.16,-0.96,1.23
16.785359859466553,-0.49,-0.17,-0.63,0.81
16.785966873168945,-0.36,-0.08,-0.4,0.54
16.795825958251953,-0.3,0.06,-0.2,0.36
16.80577278137207,-0.2,0.02,-0.04,0.2
16.81590700149536,-0.46,0.04,0.03,0.46
16.825867652893066,-0.68,0.16,-0.07,0.7
16.882081985473633,-0.64,0.11,-0.29,0.71
16.88267469406128,-0.58,0.0,-0.63,0.85
16.88326597213745,-0.37,-0.07,-0.82,0.9
16.884421825408936,-0.39,-0.14,-0.76,0.86
16.885584831237793,-0.42,-0.03,-0.54,0.68
16.88619899749756,-0.26,0.11,-0.46,0.53
16.895955801010132,-0.27,0.09,-0.25,0.37
16.905728816986084,-0.28,0.16,-0.27,0.42
16.91574478149414,-0.18,0.13,-0.53,0.57
16.925699710845947,-0.05,-0.05,-0.54,0.54
16.98199486732483,0.15,-0.1,-0.49,0.52
16.982584953308105,0.32,-0.09,-0.46,0.56
16.983150959014893,0.33,-0.14,-0.46,0.58
16.984235763549805,0.39,-0.14,-0.4,0.57
16.985344886779785,0.52,-0.08,-0.34,0.62
16.9859299659729,0.66,-0.14,-0.12,0.68
16.99604082107544,0.71,-0.24,0.12,0.75
17.005582809448242,0.68,-0.15,0.29,0.75
17.015679836273193,0.39,0.21,0.22,0.49
17.025580883026123,0.01,0.41,0.42,0.58
17.082350730895996,-0.12,0.42,0.73,0.85
17.082944869995117,0.02,0.22,0.45,0.5
17.08354091644287,0.53,-0.06,-0.03,0.53
17.08470582962036,1.26,-0.1,-0.11,1.26
17.08585476875305,1.86,0.17,-0.12,1.87
17.086419820785522,1.86,0.49,-0.13,1.92
17.09545087814331,1.83,0.65,-0.19,1.95
17.10548973083496,2.09,0.5,-0.34,2.17
17.115530967712402,2.34,0.33,-0.43,2.4
17.12545680999756,2.76,0.18,-0.37,2.79
17.183006763458252,3.3,0.25,-0.46,3.34
17.18360185623169,3.51,0.52,-0.64,3.6
17.18419075012207,3.9,0.85,-0.55,4.02
17.185369968414307,4.16,1.25,-0.73,4.4
17.18649387359619,4.02,1.72,-0.79,4.44
17.187071800231934,4.04,2.04,-0.42,4.54
17.195334911346436,3.81,2.35,0.03,4.47
17.20531988143921,3.4,2.78,0.04,4.39
17.2153377532959,3.32,4.13,-0.61,5.33
17.225274801254272,3.91,4.52,-0.03,5.97
17.283487796783447,3.51,3.57,0.66,5.04
17.28407573699951,4.01,3.72,0.2,5.47
17.284660816192627,4.63,3.92,0.33,6.07
17.285847663879395,5.5,4.01,-0.03,6.8
17.28698182106018,5.72,4.1,-0.08,7.03
17.28756093978882,5.64,4.04,-0.19,6.94
17.29520082473755,5.17,4.27,-0.47,6.72
17.30515480041504,4.15,4.38,-1.09,6.13
17.315188884735107,3.14,4.39,-1.23,5.53
17.325230836868286,2.93,5.09,-1.08,5.97
17.383216857910156,3.31,6.29,-1.85,7.34
17.38380479812622,4.53,7.35,-3.48,9.3
17.38438367843628,4.86,7.15,-3.31,9.25
17.385541915893555,1.64,7.7,-1.49,8.01
17.386674880981445,-2.16,8.08,-2.07,8.61
17.38725471496582,-1.02,6.89,-4.87,8.49
17.394933700561523,2.9,4.96,-3.58,6.76
17.404953002929688,6.57,3.97,-2.04,7.94
17.414921760559082,9.02,2.47,-1.07,9.41
17.424930810928345,8.4,-1.19,-0.12,8.48
17.483619689941406,2.41,-3.18,0.72,4.05
17.484224796295166,-4.31,-3.66,-1.17,5.77
17.484810829162598,-5.31,-0.77,-3.67,6.5
17.48595380783081,2.4,0.78,-4.38,5.05
17.487079858779907,9.09,-1.15,-3.16,9.69
17.487663745880127,11.42,-2.01,-0.99,11.63
17.49480676651001,10.52,-2.18,0.92,10.78
17.504734992980957,7.86,-2.67,2.3,8.61
17.514903783798218,5.28,-3.72,2.69,6.99
17.524855852127075,4.4,-4.25,2.49,6.6
17.584433794021606,5.12,-4.21,2.18,6.97
17.58502197265625,5.64,-4.01,1.84,7.16
17.585601806640625,5.55,-3.91,1.59,6.97
17.586737871170044,4.98,-3.93,1.42,6.5
17.587864875793457,4.5,-3.84,1.3,6.05
17.588443756103516,4.4,-3.67,1.37,5.89
17.594658851623535,4.46,-3.5,1.54,5.87
17.60469079017639,4.27,-3.02,1.77,5.52
17.614691734313965,3.79,-2.17,2.11,4.85
17.624658823013306,3.1,-1.29,2.43,4.14
17.684444904327393,2.31,-0.27,2.93,3.74
17.685036659240723,1.57,0.88,3.46,3.9
17.685625791549683,1.39,1.95,3.31,4.08
17.686786651611328,0.93,3.72,1.7,4.19
17.68792986869812,-0.64,6.29,-1.06,6.41
17.688514709472656,-2.96,8.88,-3.71,10.06
17.695233821868896,-5.5,11.38,-5.27,13.69
17.705135822296143,-8.28,12.64,-5.58,16.1
17.71469283103943,-10.31,11.31,-5.18,16.15
17.724538803100586,-11.04,7.95,-3.79,14.12
17.78381085395813,-11.49,4.55,-3.21,12.76
17.784419775009155,-11.93,2.03,-4.11,12.78
17.785006999969482,-12.28,0.85,-3.95,12.92
17.786215782165527,-13.03,0.62,-3.0,13.38
17.787386894226074,-12.86,-0.68,-2.17,13.05
17.787969827651978,-11.87,-1.42,-1.56,12.05
17.794389724731445,-10.81,-1.59,-1.31,11.0
17.804377794265747,-10.03,-1.76,-1.52,10.29
17.81432580947876,-8.78,2.04,-1.85,9.2
17.82435369491577,-6.74,7.96,-2.14,10.64
17.88372778892517,-8.38,2.44,-3.61,9.44
17.88432478904724,-3.63,-0.11,-3.5,5.04
17.884906768798828,10.89,0.9,3.68,11.53
17.886061668395996,16.97,-0.25,12.2,20.9
17.887162685394287,8.83,-0.54,6.8,11.15
17.887739658355713,-4.02,0.48,-0.47,4.07
17.89442491531372,-12.03,0.83,-2.74,12.36
17.904401779174805,-10.68,5.13,-2.78,12.16
17.914413928985596,-7.55,10.09,-2.64,12.87
17.924272775650024,-5.88,7.66,-2.96,10.1
17.983998775482178,-6.04,2.06,-3.54,7.29
17.98458766937256,-4.37,1.59,-0.04,4.65
17.985175848007202,-3.64,-0.89,2.62,4.57
17.98634386062622,-3.92,-3.31,1.48,5.33
17.98746085166931,-4.53,-2.67,-0.45,5.27
17.9880428314209,-3.75,-0.87,-1.35,4.07
17.994186878204346,-2.51,0.1,-1.07,2.73
18.004207849502563,-1.51,0.17,-0.85,1.74
18.01425266265869,-1.01,-0.05,-0.94,1.38
18.02402973175049,-0.99,-0.06,-1.01,1.41
18.08459997177124,-1.06,0.36,-0.66,1.29
18.085198879241943,-0.79,0.69,-0.2,1.06
18.08578395843506,-0.4,0.59,0.19,0.73
18.08690071105957,-0.2,0.16,0.21,0.33
18.087998867034912,-0.24,-0.09,-0.34,0.42
18.0885808467865,-0.33,-0.01,-0.64,0.72
18.094058990478516,-0.38,0.01,-0.65,0.75
18.103956699371338,-0.35,0.1,-1.3,1.35
18.114060878753662,-0.43,0.13,-1.31,1.38
18.123955726623535,-0.61,-0.05,-0.98,1.15
18.185035705566406,-0.56,-0.26,-1.01,1.18
18.185635805130005,-0.49,-0.22,-0.35,0.64
18.18622398376465,-0.44,-0.1,0.42,0.61
18.18740487098694,-0.29,0.08,0.21,0.36
18.188583850860596,-0.09,0.14,-0.38,0.41
18.189493656158447,0.26,0.02,-0.87,0.9
18.193928718566895,0.53,-0.16,-0.97,1.11
18.203974723815918,0.73,-0.19,-0.84,1.12
18.213809967041016,0.74,-0.24,-0.93,1.21
18.223890781402588,0.62,-0.3,-1.08,1.28
18.284772872924805,0.45,-0.11,-1.4,1.47
18.285358905792236,0.45,-0.28,-1.04,1.16
18.28590679168701,0.25,-0.6,-0.58,0.87
18.287070751190186,-0.34,-0.51,-0.57,0.83
18.288235664367676,-0.92,-0.24,0.11,0.95
18.289153814315796,-1.16,-0.02,0.76,1.38
18.2938289642334,-1.46,0.21,0.79,1.67
18.303828716278076,-1.92,0.3,0.52,2.01
18.313673973083496,-2.38,0.16,0.19,2.39
18.323814868927002,-2.41,0.08,0.04,2.41
18.38509178161621,-1.65,0.19,-0.1,1.66
18.38567066192627,-0.26,0.37,-0.1,0.46
18.38621997833252,0.78,0.41,0.23,0.91
18.387388706207275,0.85,0.41,0.59,1.11
18.388847827911377,0.75,0.29,0.19,0.82
18.389429807662964,1.2,0.11,0.09,1.2
18.393658876419067,1.73,-0.12,-0.03,1.73
18.403625965118408,1.95,-0.2,-0.36,1.99
18.413509845733643,2.05,0.1,-0.21,2.06
18.42362070083618,2.24,0.47,-0.24,2.3
18.485337734222412,2.53,0.5,-0.03,2.57
18.485938787460327,2.82,0.54,0.21,2.87
18.486520767211914,2.9,0.56,0.18,2.95
18.487698793411255,2.91,0.67,0.02,2.98
18.489194869995117,2.9,0.74,-0.44,3.02
18.48978567123413,2.74,0.71,-0.6,2.89
18.49354887008667,2.65,0.72,-0.39,2.77
18.503560781478882,2.79,0.8,-0.51,2.94
18.513678789138794,2.95,1.04,-0.95,3.26
18.52362298965454,2.72,1.61,-0.9,3.28
18.58557367324829,2.43,2.75,-1.21,3.86
18.5861759185791,2.99,4.9,-1.88,6.04
18.58675980567932,3.88,4.39,-0.39,5.87
18.587970733642578,3.48,3.73,0.21,5.1
18.589435815811157,3.76,4.0,0.57,5.51
18.590024948120117,4.14,3.75,0.78,5.64
18.593408823013306,4.4,3.6,0.73,5.73
18.603319883346558,4.55,3.72,0.6,5.9
18.61370277404785,4.84,3.86,0.22,6.19
18.623206853866577,5.14,4.08,-0.08,6.56
18.685741901397705,4.77,4.1,-0.43,6.3
18.686339855194092,4.0,3.95,-0.52,5.64
18.68692398071289,3.14,4.04,-0.43,5.13
18.68840789794922,2.78,4.97,-0.57,5.72
18.68952465057373,3.19,6.48,-1.38,7.35
18.690119743347168,4.12,7.26,-2.6,8.74
18.693246841430664,4.16,6.56,-3.09,8.35
18.70330786705017,2.53,7.04,-2.27,7.81
18.71314787864685,0.02,8.8,-2.53,9.15
18.72327470779419,0.22,7.62,-5.08,9.16
18.786409854888916,3.36,5.88,-3.84,7.78
18.787012815475464,7.21,5.8,-2.01,9.46
18.787592887878418,9.56,3.35,-0.79,10.16
18.78907585144043,7.46,-2.5,-0.5,7.88
18.790207862854004,2.05,-4.35,-0.43,4.82
18.79078984260559,-4.81,-3.97,-1.7,6.46
18.793097972869873,-4.96,-0.19,-4.08,6.42
18.8031268119812,2.81,-0.24,-4.78,5.54
18.813084840774536,8.16,-2.18,-2.66,8.85
18.822958946228027,9.63,-2.79,-0.73,10.05
18.886963844299316,8.39,-2.91,0.57,8.89
18.88758683204651,6.3,-3.22,1.46,7.22
18.888495922088623,4.9,-4.29,1.58,6.7
18.889680862426758,4.96,-5.44,1.49,7.51
18.890835762023926,5.59,-5.82,1.48,8.2
18.891421794891357,5.9,-5.37,1.28,8.07
18.892874717712402,5.77,-4.43,0.86,7.32
18.90301275253296,5.35,-3.64,0.72,6.51
18.91291379928589,4.91,-3.25,0.74,5.93
18.922902822494507,4.43,-3.0,0.74,5.4
18.98713970184326,3.61,-2.52,0.95,4.5
18.988075733184814,3.03,-1.92,1.26,3.8
18.98865795135498,2.76,-1.32,1.6,3.45
18.989805698394775,2.9,-0.93,2.17,3.73
18.990935802459717,2.99,-0.32,2.6,3.97
18.99153470993042,2.39,1.08,2.11,3.36
18.99279284477234,1.01,2.74,0.65,2.99
19.00299596786499,-0.72,4.02,-0.91,4.18
19.012778759002686,-2.1,5.28,-2.19,6.08
19.02279567718506,-3.56,6.47,-2.83,7.9
19.088162899017334,-5.31,6.9,-2.46,9.04
19.088950872421265,-6.93,6.8,-1.94,9.9
19.08954882621765,-8.26,6.49,-2.11,10.71
19.09072780609131,-9.13,6.0,-2.51,11.2
19.09188175201416,-9.85,5.67,-3.25,11.82
19.092485904693604,-10.24,5.4,-4.26,12.33
19.093689918518066,-10.18,4.23,-4.34,11.84
19.102721691131592,-9.99,2.32,-3.57,10.85
19.112663745880127,-10.14,0.6,-2.75,10.52
19.122631788253784,-10.35,-0.81,-1.88,10.55
19.188763856887817,-10.33,-1.74,-1.27,10.55
19.189359664916992,-9.9,-1.82,-1.13,10.12
19.189947843551636,-9.1,-1.54,-1.43,9.33
19.191129684448242,-8.12,-1.07,-1.84,8.39
19.192298889160156,-7.53,-0.4,-1.95,7.78
19.192880868911743,-5.53,5.96,-2.06,8.38
19.194074869155884,-3.24,8.06,-1.74,8.85
19.202528953552246,-3.05,2.25,-2.43,4.5
19.212530851364136,7.14,-0.2,1.79,7.36
19.22246265411377,14.64,-0.49,10.49,18.01
19.28926372528076,11.16,0.26,8.3,13.91
19.289865970611572,1.61,1.18,2.24,3.0
19.290457725524902,-7.37,-0.04,-1.07,7.44
19.29163694381714,-8.91,0.22,-2.18,9.17
19.292816877365112,-7.48,4.46,-2.6,9.08
19.29340696334839,-6.16,8.25,-3.24,10.79
19.294602870941162,-7.56,4.22,-4.84,9.91
19.30245876312256,-6.67,4.52,-1.97,8.29
19.31239891052246,-3.82,1.67,2.57,4.89
19.32243299484253,-4.04,-3.68,2.66,6.07
19.390156745910645,-5.74,-4.3,-0.05,7.17
19.390737771987915,-5.74,-1.92,-1.23,6.17
19.39128875732422,-4.09,0.15,-0.42,4.11
19.39247989654541,-2.3,0.85,-0.09,2.45
19.393617868423462,-1.83,0.37,-0.38,1.9
19.394198894500732,-1.32,0.04,-0.04,1.32
19.395381927490234,-0.76,0.16,-0.06,0.77
19.40228271484375,-0.11,0.31,-0.36,0.48
19.412246704101562,0.06,0.32,-0.7,0.77
19.42213773727417,-0.3,0.3,-0.3,0.51
19.490534782409668,-0.37,0.13,0.64,0.75
19.49113368988037,-0.07,0.0,0.35,0.35
19.491742849349976,0.03,0.09,-1.71,1.71
19.49291682243347,-0.45,0.02,-3.1,3.13
19.49406886100769,-1.04,-0.11,-2.4,2.61
19.494650840759277,-0.83,-0.12,-1.09,1.37
19.49583888053894,-0.29,-0.1,0.0,0.3
19.502180814743042,0.08,-0.14,0.48,0.5
19.512112855911255,0.38,-0.06,0.36,0.52
19.522135734558105,0.35,0.06,0.11,0.37
19.59080481529236,0.1,0.05,-0.16,0.19
19.591405868530273,-0.36,-0.08,-0.36,0.51
19.592001914978027,-0.89,-0.19,-0.57,1.07
19.59316396713257,-1.1,-0.15,-0.68,1.3
19.59430980682373,-0.87,-0.09,-0.83,1.2
19.59488868713379,-0.53,-0.01,-0.95,1.08
19.596092700958252,-0.39,0.09,-0.72,0.82
19.60202980041504,-0.23,0.26,-0.42,0.54
19.611955881118774,-0.09,0.24,-0.2,0.32
19.62195873260498,0.02,0.04,-0.24,0.24
19.69155788421631,-0.14,-0.04,-0.4,0.42
19.6921648979187,-0.48,-0.02,-0.39,0.61
19.692746877670288,-0.6,0.05,-0.28,0.66
19.69391179084778,-0.4,0.03,-0.18,0.43
19.695047855377197,-0.09,-0.09,-0.1,0.16
19.695631980895996,0.19,-0.1,-0.02,0.21
19.697165966033936,0.32,-0.01,-0.08,0.33
19.70190668106079,0.4,0.01,-0.01,0.4
19.711795806884766,0.51,0.05,0.1,0.52
19.721773862838745,0.66,0.17,-0.01,0.68
19.791236877441406,0.75,0.21,0.24,0.81
19.791812896728516,0.86,0.21,0.18,0.9
19.79233694076538,0.86,0.16,0.02,0.87
19.793455839157104,0.7,0.17,0.01,0.72
19.794594764709473,0.71,0.21,-0.27,0.78
19.79517889022827,0.97,0.23,-0.29,1.03
19.7963547706604,1.1,0.23,-0.06,1.12
19.8017418384552,1.26,0.34,0.09,1.3
19.811713695526123,1.66,0.57,0.1,1.75
19.82166886329651,2.17,0.63,0.12,2.26
19.891356945037842,2.61,0.58,0.01,2.67
19.8919517993927,2.52,0.59,-0.34,2.61
19.892541885375977,1.98,0.76,-0.56,2.19
19.893754959106445,1.91,0.94,-0.73,2.25
19.894953727722168,1.98,1.05,-0.91,2.41
19.895533800125122,1.95,1.01,-0.82,2.34
19.897111892700195,1.98,0.94,-0.35,2.21
19.901633739471436,2.36,1.07,0.07,2.59
19.911552906036377,2.85,1.42,-0.09,3.18
19.92150068283081,3.13,2.1,-0.67,3.82
19.99157476425171,3.84,3.04,-1.15,5.03
19.992167949676514,4.2,3.84,-0.49,5.71
19.992750883102417,3.66,3.65,-0.58,5.2
19.99391269683838,4.06,3.53,-0.27,5.38
19.99505376815796,4.35,3.48,0.08,5.57
19.995633840560913,4.73,3.38,-0.16,5.81
19.997161865234375,5.21,3.63,0.12,6.35
20.001354694366455,5.59,3.97,-0.21,6.85
20.01136589050293,5.92,4.53,-0.36,7.46
20.02129888534546,5.73,4.85,-0.33,7.51
20.092520713806152,5.18,4.87,-0.35,7.11
20.093135833740234,4.39,4.64,-0.56,6.41
20.093730926513672,3.42,4.18,-0.76,5.45
20.094924926757812,2.67,4.25,-0.81,5.08
20.096088886260986,2.51,5.42,-1.42,6.13
20.09700870513916,3.1,6.36,-2.72,7.58
20.098561763763428,2.72,6.9,-2.44,7.8
20.101465702056885,-0.18,7.77,-0.91,7.82
20.111417770385742,-0.85,8.2,-3.6,8.99
20.121304988861084,1.79,6.15,-4.92,8.07
20.193107843399048,4.78,4.61,-2.93,7.25
20.193718910217285,7.39,3.16,-1.68,8.21
20.194307804107666,9.17,1.06,-0.68,9.25
20.195474863052368,7.1,-2.33,0.18,7.47
20.196963787078857,-0.4,-3.09,0.97,3.26
20.197550773620605,-5.95,-2.2,-1.95,6.63
20.19913077354431,-4.43,0.43,-3.65,5.75
20.201178789138794,3.73,-0.34,-3.41,5.06
20.21110987663269,8.88,-1.8,-1.88,9.25
20.221115827560425,10.17,-2.69,-0.56,10.53
20.29318881034851,9.58,-3.1,0.55,10.08
20.293790817260742,7.99,-3.39,1.68,8.84
20.294389724731445,6.03,-3.99,1.98,7.49
20.295588970184326,4.68,-4.44,1.74,6.68
20.297061920166016,4.32,-4.4,1.26,6.29
20.297653675079346,4.46,-4.04,0.81,6.07
20.299229860305786,4.65,-3.72,0.57,5.98
20.30101776123047,4.77,-3.5,0.36,5.92
20.311011791229248,4.78,-3.19,0.35,5.75
20.320987701416016,4.56,-2.85,0.59,5.4
20.330992698669434,4.06,-2.54,0.87,4.86
20.394328832626343,3.27,-2.28,1.12,4.14
20.394924879074097,2.64,-2.07,1.21,3.56
20.396466732025146,2.39,-1.5,1.18,3.05
20.397605895996094,2.38,-0.61,1.05,2.67
20.39853572845459,2.63,0.2,1.21,2.9
20.399741649627686,2.48,1.32,1.12,3.02
20.400911808013916,1.26,3.05,0.17,3.3
20.410895824432373,-0.61,4.65,-1.73,4.99
20.42088794708252,-2.47,6.16,-3.51,7.5
20.430851936340332,-4.02,7.96,-4.46,9.97
20.49439787864685,-5.62,8.87,-4.39,11.38
20.494996786117554,-7.4,8.42,-3.86,11.85
20.496525764465332,-8.67,7.36,-3.3,11.84
20.497671842575073,-9.0,5.92,-2.87,11.14
20.498634815216064,-9.8,5.08,-3.63,11.61
20.49987483024597,-10.43,4.46,-4.89,12.35
20.501070976257324,-10.67,3.3,-4.26,11.95
20.510709762573242,-10.72,1.51,-1.98,11.0
20.520736694335938,-10.82,-0.64,-0.13,10.83
20.53068494796753,-11.0,-1.75,0.15,11.13
20.594932794570923,-10.42,-1.81,-0.42,10.58
20.595879793167114,-8.78,-1.49,-0.66,8.92
20.5970618724823,-6.6,1.98,-0.5,6.9
20.598572731018066,-5.15,6.59,-0.88,8.4
20.599188804626465,-7.23,2.63,-2.05,7.96
20.6004319190979,-9.3,-1.03,-2.09,9.58
20.601658821105957,-2.71,0.36,-1.5,3.11
20.61049485206604,8.16,2.2,4.21,9.44
20.62055778503418,9.68,1.39,6.62,11.8
20.630530834197998,1.73,0.6,2.22,2.87
20.695249795913696,-6.72,1.42,-0.64,6.89
20.696192741394043,-8.19,1.35,-1.21,8.38
20.697370767593384,-5.93,3.32,-0.92,6.85
20.698880672454834,-5.11,6.08,-1.77,8.13
20.69947576522827,-5.41,5.55,-2.51,8.14
20.700706958770752,-6.62,2.13,-2.52,7.39
20.70191192626953,-6.63,1.21,-1.77,6.96
20.71041178703308,-4.9,1.28,0.31,5.07
20.720420837402344,-4.57,-1.34,1.08,4.88
20.730409860610962,-4.35,-1.92,-0.03,4.75
20.7971408367157,-3.49,-0.68,-0.77,3.63
20.797833919525146,-2.01,0.15,-0.11,2.01
20.799389839172363,-1.07,0.28,0.34,1.15
20.800586700439453,-0.59,-0.07,0.42,0.72
20.801225662231445,-0.45,-0.24,0.2,0.54
20.80258584022522,-0.41,-0.11,-0.24,0.48
20.803879737854004,-0.25,0.01,-0.58,0.63
20.810364723205566,-0.15,0.09,-0.72,0.74
20.820310831069946,-0.03,0.15,-0.69,0.7
20.83027982711792,0.07,0.07,-0.72,0.72
20.89647388458252,0.15,-0.17,-0.94,0.96
20.897087812423706,0.26,-0.22,-1.32,1.36
20.89868688583374,0.42,-0.03,-1.65,1.7
20.899892807006836,0.41,0.18,-1.64,1.7
20.900492668151855,0.22,0.17,-1.3,1.32
20.901721000671387,-0.02,0.04,-0.89,0.89
20.902934789657593,-0.26,-0.06,-0.54,0.6
20.910176753997803,-0.41,-0.14,-0.29,0.52
20.920190811157227,-0.58,-0.15,-0.16,0.62
20.930202960968018,-0.65,-0.08,0.1,0.66
20.99696683883667,-0.66,0.06,0.33,0.74
20.997577667236328,-0.61,0.02,0.49,0.78
20.99911594390869,-0.44,-0.05,0.71,0.83
21.000332832336426,-0.18,-0.01,0.9,0.91
21.000950813293457,0.1,0.08,0.62,0.63
21.002187728881836,0.06,-0.03,0.15,0.16
21.003373861312866,-0.08,-0.03,-0.19,0.2
21.009991884231567,0.15,0.13,-0.45,0.49
21.079834938049316,0.6,0.19,-0.73,0.96
21.080442905426025,0.64,0.03,-0.94,1.13
21.081026792526245,0.28,0.03,-1.08,1.11
21.08160376548767,-0.08,0.11,-0.91,0.92
21.083236694335938,-0.11,0.07,-0.46,0.47
21.084418773651123,0.06,-0.01,0.03,0.06
21.08535385131836,0.27,-0.06,0.19,0.33
21.089908838272095,0.33,0.01,0.03,0.33
21.099875926971436,0.21,0.06,-0.19,0.28
21.109891891479492,0.09,0.11,-0.57,0.58
21.180941820144653,-0.05,-0.02,-0.69,0.69
21.181546688079834,-0.19,-0.14,-0.6,0.64
21.182469844818115,-0.19,-0.01,-0.4,0.44
21.183043956756592,0.08,0.21,0.05,0.23
21.184228897094727,0.58,0.35,0.15,0.69
21.185723781585693,1.18,0.38,0.13,1.24
21.186304807662964,1.62,0.33,-0.05,1.65
21.189804792404175,1.69,0.24,-0.24,1.72
21.199744701385498,1.87,0.27,-0.23,1.9
21.20987892150879,2.24,0.4,-0.16,2.28
21.280442714691162,2.74,0.75,-0.13,2.84
21.281036853790283,3.07,0.82,0.32,3.19
21.28161883354187,3.42,0.84,0.21,3.52
21.28256893157959,3.69,0.94,0.07,3.8
21.283752918243408,3.75,1.18,-0.35,3.94
21.28524875640869,3.42,1.63,-0.89,3.89
21.285826683044434,2.84,1.93,-0.84,3.53
21.289645671844482,2.55,1.97,-0.66,3.28
21.299590826034546,2.76,2.16,-0.11,3.5
21.30964684486389,2.71,2.95,-0.14,4.0
21.380720853805542,3.74,3.94,-1.78,5.71
21.38133478164673,4.61,4.54,0.07,6.47
21.38227677345276,4.56,4.07,-0.02,6.11
21.38287878036499,5.25,4.64,-0.27,7.01
21.38407588005066,5.0,4.59,0.16,6.78
21.38555884361267,5.35,4.22,0.09,6.81
21.386140823364258,5.44,4.39,0.06,6.99
21.389427661895752,5.48,4.82,0.06,7.29
21.399340867996216,4.91,5.1,-0.29,7.08
21.409453868865967,4.08,5.1,-0.57,6.55
21.4807767868042,3.44,5.2,-0.76,6.28
21.48137879371643,3.37,5.81,-1.47,6.87
21.482361793518066,3.88,6.89,-3.0,8.45
21.482951879501343,4.42,6.84,-4.01,9.07
21.48442792892456,2.7,6.51,-2.61,7.51
21.485586881637573,-1.47,7.44,-0.57,7.6
21.48616886138916,-2.31,7.1,-2.95,8.02
21.48942279815674,0.99,4.14,-4.56,6.23
21.499186992645264,5.09,3.35,-2.96,6.77
21.509296894073486,8.23,2.97,-2.01,8.97
21.58118486404419,9.91,-0.39,-1.14,9.98
21.581791877746582,4.51,-3.45,0.19,5.68
21.582724809646606,-2.43,-4.08,-1.15,4.88
21.583326816558838,-4.5,-1.44,-4.1,6.25
21.58485984802246,1.35,0.37,-3.96,4.2
21.586020946502686,7.77,-1.41,-2.47,8.27
21.58660387992859,10.18,-2.61,-0.87,10.54
21.589240789413452,9.92,-2.96,0.33,10.35
21.599090814590454,8.38,-3.34,1.1,9.08
21.609153747558594,6.63,-3.9,1.51,7.83
21.68193483352661,5.68,-4.41,1.39,7.32
21.682899951934814,5.63,-4.58,1.23,7.36
21.683490753173828,6.03,-4.04,1.12,7.34
21.684414863586426,6.07,-3.18,0.95,6.91
21.685585975646973,5.73,-2.8,0.82,6.43
21.686701774597168,5.02,-2.72,0.77,5.76
21.687285900115967,4.1,-2.75,0.75,4.99
21.689055919647217,3.41,-2.67,0.74,4.39
21.69913673400879,2.94,-2.39,0.79,3.87
21.709049701690674,2.63,-1.94,0.82,3.36
21.78229570388794,2.61,-1.31,0.83,3.03
21.782898902893066,2.99,-0.59,1.14,3.25
21.783511877059937,3.2,0.63,1.58,3.62
21.784446716308594,2.55,2.83,1.61,4.13
21.78564167022705,0.84,4.92,0.36,5.0
21.786778926849365,-0.93,6.3,-2.31,6.77
21.787365913391113,-2.03,7.8,-4.84,9.4
21.78886890411377,-3.39,9.01,-5.48,11.07
21.799182891845703,-5.49,8.83,-4.76,11.43
21.808889865875244,-7.64,7.79,-4.09,11.65
21.88347291946411,-9.49,6.53,-3.92,12.16
21.88441777229309,-11.37,5.48,-4.42,13.37
21.885016918182373,-13.05,4.7,-5.87,15.06
21.885626792907715,-13.48,3.5,-6.82,15.5
21.886834859848022,-13.05,2.41,-5.73,14.45
21.888040781021118,-12.32,0.66,-3.72,12.88
21.888651847839355,-12.26,-1.37,-2.13,12.51
21.889859676361084,-12.42,-2.94,-1.37,12.83
21.898820877075195,-12.26,-3.07,-1.01,12.67
21.90872883796692,-10.77,0.69,-1.35,10.87
21.98398184776306,-7.97,5.22,-1.69,9.67
21.984752655029297,-7.97,3.52,-1.28,8.8
21.98530387878418,-6.32,1.39,0.7,6.5
21.985893726348877,2.3,2.82,2.74,4.55
21.987090826034546,12.14,2.14,11.76,17.03
21.988325834274292,9.95,0.1,9.35,13.65
21.98892068862915,-0.54,0.99,-0.09,1.13
21.990134716033936,-8.82,0.52,-1.81,9.01
21.998578786849976,-9.87,0.68,-1.91,10.07
22.008647918701172,-7.09,3.96,-3.79,8.96
22.084231853485107,-3.61,7.95,-3.74,9.49
22.085035800933838,-1.16,6.06,-2.58,6.68
22.085632801055908,-1.63,1.3,-0.43,2.12
22.086222648620605,-4.12,0.39,-0.35,4.15
22.087438821792603,-6.14,-0.65,-3.21,6.95
22.08862066268921,-5.71,0.1,-2.88,6.39
22.089208841323853,-4.44,0.29,-1.05,4.57
22.090413808822632,-3.22,-0.59,-0.53,3.31
22.09851598739624,-2.3,-0.46,-0.6,2.42
22.10858678817749,-1.59,-0.23,-0.01,1.6
22.18499183654785,-1.32,-0.35,0.66,1.51
22.185617923736572,-1.24,-0.51,0.82,1.57
22.186219692230225,-0.98,-0.24,0.54,1.14
22.186810970306396,-0.52,0.2,0.26,0.61
22.18805694580078,-0.06,0.21,0.1,0.24
22.189230918884277,0.28,-0.08,-0.22,0.36
22.18982481956482,0.56,-0.31,-0.61,0.88
22.191030979156494,0.65,-0.22,-1.27,1.44
22.19839382171631,0.46,0.02,-1.86,1.91
22.20844793319702,0.11,0.2,-1.91,1.92
22.284628868103027,-0.42,0.5,-1.85,1.96
22.28524684906006,-1.0,0.56,-1.63,1.99
22.285851001739502,-1.31,0.35,-1.19,1.8
22.28642988204956,-1.31,0.17,-0.71,1.49
22.287632942199707,-1.04,0.09,-0.18,1.05
22.28883981704712,-0.72,0.06,0.34,0.79
22.289433002471924,-0.46,-0.1,0.65,0.8
22.2906436920166,-0.13,-0.19,0.69,0.72
22.29826593399048,0.17,-0.17,0.64,0.68
22.308274745941162,0.42,-0.22,0.55,0.72
22.384065866470337,0.39,-0.22,0.43,0.62
22.384859800338745,0.24,-0.06,0.17,0.3
22.3854718208313,0.09,-0.02,-0.1,0.13
22.386088848114014,-0.12,-0.01,-0.27,0.29
22.387268781661987,-0.37,0.03,-0.46,0.59
22.388449668884277,-0.55,0.01,-0.58,0.79
22.389052867889404,-0.63,0.05,-0.6,0.87
22.390239715576172,-0.71,0.06,-0.48,0.85
22.398093700408936,-0.74,0.07,-0.36,0.82
22.40808391571045,-0.76,0.11,-0.21,0.79
22.484242916107178,-0.57,0.2,-0.24,0.65
22.484874725341797,-0.31,0.06,0.04,0.31
22.485496997833252,-0.17,-0.03,0.55,0.57
22.486114978790283,0.06,0.01,0.38,0.38
22.487353801727295,0.22,0.08,-0.2,0.3
22.488537788391113,0.35,0.13,-0.7,0.79
22.489118814468384,0.46,0.05,-0.93,1.03
22.490314960479736,0.55,-0.03,-0.61,0.82
22.49802279472351,0.95,0.02,0.08,0.95
22.507975816726685,1.48,0.02,0.75,1.65
22.584324836730957,1.78,-0.01,1.1,2.09
22.584950923919678,2.06,0.11,0.88,2.24
22.58555793762207,2.48,0.22,0.69,2.58
22.58616876602173,2.92,0.27,0.4,2.95
22.58742094039917,2.88,0.29,-0.36,2.91
22.588584899902344,2.68,0.37,-0.68,2.78
22.58916997909546,2.45,0.32,-0.86,2.61
22.590357780456543,2.16,0.24,-1.1,2.43
22.597806930541992,1.95,0.37,-1.09,2.26
22.60778570175171,2.35,0.55,-1.15,2.67
22.684441804885864,2.92,0.65,-1.22,3.23
22.685110807418823,3.15,0.77,-1.14,3.43
22.685755729675293,3.42,1.16,-1.28,3.83
22.68640375137329,3.45,1.61,-1.82,4.21
22.687734842300415,3.36,1.82,-1.72,4.19
22.688893795013428,3.33,2.34,-0.87,4.16
22.689477920532227,3.14,3.74,0.45,4.9
22.690666675567627,4.47,5.57,0.13,7.14
22.697669982910156,5.54,5.19,1.16,7.67
22.70761775970459,4.16,5.0,1.42,6.65
22.784255981445312,4.4,4.87,1.21,6.67
22.784879684448242,4.25,4.64,1.33,6.43
22.785462856292725,3.87,4.47,0.78,5.96
22.786033868789673,4.15,4.66,0.47,6.25
22.787166833877563,4.21,4.62,-0.02,6.25
22.7882719039917,3.27,4.23,-0.52,5.37
22.78884983062744,2.87,4.45,-0.47,5.31
22.78998565673828,3.61,5.21,-0.56,6.36
22.797478675842285,4.67,6.22,-1.18,7.86
22.807501792907715,5.12,6.22,-2.1,8.32
22.884387969970703,3.48,6.0,-1.89,7.18
22.884992837905884,-0.85,7.67,-0.46,7.73
22.885584831237793,-1.94,7.66,-2.73,8.36
22.886178970336914,1.02,5.19,-3.86,6.54
22.88735580444336,4.1,3.51,-1.46,5.59
22.888498783111572,6.64,2.03,-0.22,6.94
22.889065742492676,8.49,-0.54,-0.22,8.51
22.8902108669281,5.8,-3.83,0.02,6.95
22.897401809692383,-0.96,-5.32,-0.29,5.41
22.90740394592285,-3.84,-2.24,-3.63,5.73
22.98519468307495,1.51,0.57,-4.62,4.89
22.985795974731445,7.2,-0.77,-2.16,7.55
22.986388683319092,9.95,-1.48,0.04,10.05
22.987000942230225,10.2,-2.08,1.21,10.48
22.988154888153076,8.75,-2.58,2.01,9.34
22.989304780960083,7.05,-3.14,2.0,7.97
22.98988389968872,5.77,-3.82,1.42,7.06
22.991050720214844,5.33,-3.95,1.0,6.7
22.997259855270386,5.12,-3.66,0.82,6.34
23.00727891921997,4.69,-3.47,0.71,5.87
23.0853488445282,4.02,-3.54,0.6,5.38
23.085941791534424,3.51,-3.73,0.54,5.15
23.086532831192017,3.36,-3.75,0.62,5.07
23.08713388442993,3.45,-3.65,0.88,5.09
23.088302850723267,3.46,-3.25,1.2,4.89
23.089446783065796,3.35,-2.61,1.66,4.55
23.09003186225891,3.26,-1.9,2.02,4.27
23.091208934783936,3.36,-1.09,2.42,4.28
23.09714365005493,3.28,0.49,2.66,4.25
23.107106685638428,2.62,2.95,1.75,4.31
23.186433792114258,1.26,5.52,-0.57,5.69
23.18707799911499,-0.31,7.6,-3.16,8.23
23.187659740447998,-1.98,8.89,-4.29,10.06
23.18824577331543,-3.89,9.8,-4.18,11.34
23.18940496444702,-6.09,10.37,-4.42,12.81
23.19052481651306,-8.56,10.31,-4.71,14.2
23.191110849380493,-10.55,9.6,-4.53,14.96
23.192612648010254,-11.5,7.65,-5.28,14.78
23.196907997131348,-11.07,4.0,-6.73,13.55
23.206990718841553,-11.17,0.87,-5.6,12.52
23.287033796310425,-13.04,-0.28,-2.67,13.31
23.28766393661499,-14.11,-1.67,-0.97,14.24
23.288341999053955,-13.57,-2.49,-0.92,13.82
23.288952827453613,-11.55,-2.5,-0.9,11.85
23.290275812149048,-9.3,-1.85,-1.11,9.54
23.29146981239319,-6.97,2.3,-1.46,7.48
23.29238486289978,-3.72,7.98,-1.38,8.91
23.29357385635376,-3.85,4.48,-1.45,6.08
23.29684066772461,-3.29,0.27,-0.28,3.31
23.306903839111328,6.44,0.49,2.85,7.05
23.388030767440796,13.49,0.19,10.98,17.39
23.38874387741089,7.9,-0.16,7.05,10.58
23.38939380645752,-3.2,0.37,-0.87,3.33
23.38997793197632,-11.05,-1.08,-1.85,11.25
23.391197681427002,-10.87,-0.54,-2.26,11.11
23.392709732055664,-6.95,3.78,-2.5,8.29
23.393296718597412,-3.63,7.47,-1.39,8.42
23.39449691772461,-2.01,6.27,-0.75,6.62
23.396657943725586,-3.37,2.81,-1.03,4.5
23.4067440032959,-4.9,0.11,-3.36,5.94
23.416669845581055,-4.99,1.2,-2.83,5.86
23.488714694976807,-4.48,0.81,-0.74,4.61
23.4893159866333,-3.28,-1.4,-0.36,3.58
23.489903926849365,-2.28,-1.42,-0.63,2.75
23.49112367630005,-1.69,-0.78,-0.67,1.97
23.49263095855713,-1.12,-0.42,-0.24,1.22
23.49321985244751,-1.15,-0.06,-0.28,1.18
23.494422912597656,-1.3,0.09,-1.07,1.68
23.496532917022705,-1.16,0.19,-1.72,2.08
23.50656795501709,-0.72,0.12,-1.32,1.5
23.516547679901123,-0.19,-0.07,-0.02,0.2
23.588697910308838,0.42,-0.24,1.06,1.16
23.58930492401123,0.78,-0.57,1.21,1.54
23.58989667892456,0.72,-0.61,0.29,0.98
23.59111499786377,0.52,-0.32,-0.75,0.96
23.592601776123047,0.1,0.08,-1.0,1.0
23.593181848526,-0.38,0.41,-1.2,1.32
23.594401836395264,-0.71,0.34,-1.27,1.49
23.596410751342773,-1.19,0.14,-1.04,1.58
23.60647678375244,-1.66,0.15,-0.74,1.82
23.616317749023438,-1.75,0.17,-0.4,1.8
23.687650680541992,-1.36,0.03,0.03,1.36
23.688350677490234,-0.97,-0.21,0.32,1.04
23.68899178504944,-0.83,-0.25,0.37,0.94
23.690188884735107,-0.75,-0.15,0.5,0.91
23.691709995269775,-0.4,-0.07,0.82,0.91
23.692282676696777,0.01,0.02,0.83,0.83
23.693477869033813,0.47,0.09,0.8,0.93
23.696228981018066,0.76,0.13,0.63,0.99
23.706315994262695,0.45,0.03,-0.56,0.71
23.716309785842896,-0.33,0.0,-1.61,1.64
23.787137985229492,-1.1,-0.05,-1.38,1.76
23.7877938747406,-1.32,-0.15,-0.65,1.47
23.78843879699707,-0.7,-0.2,-0.05,0.72
23.78971767425537,-0.15,-0.12,0.36,0.4
23.79121494293213,-0.08,0.02,0.39,0.39
23.791794776916504,-0.01,0.07,0.37,0.37
23.793023824691772,-0.07,-0.01,0.36,0.36
23.79604196548462,-0.29,0.0,0.07,0.29
23.806029796600342,-0.25,0.01,-0.41,0.48
23.815971851348877,-0.06,0.04,-0.66,0.66
23.886767864227295,0.14,0.08,-0.69,0.7
23.887427806854248,0.23,0.17,-0.63,0.69
23.888067722320557,0.22,0.24,-0.62,0.7
23.889304876327515,0.17,0.2,-0.64,0.69
23.890500783920288,0.12,0.22,-0.35,0.43
23.891413688659668,0.05,0.24,-0.01,0.24
23.892615795135498,0.22,0.27,0.09,0.35
23.8958477973938,0.52,0.34,0.36,0.71
23.905986785888672,1.02,0.33,0.65,1.25
23.91587495803833,1.66,0.24,0.57,1.77
23.98713970184326,2.15,0.13,0.15,2.15
23.987738847732544,2.65,0.23,-0.14,2.66
23.988329887390137,2.86,0.45,-0.44,2.92
23.989510774612427,2.72,0.61,-0.8,2.9
23.990675926208496,2.69,0.64,-1.06,2.96
23.991588830947876,2.86,0.73,-1.06,3.13
23.99276065826416,3.0,0.73,-1.05,3.26
23.99609684944153,3.16,0.95,-0.92,3.42
24.005871772766113,3.22,1.3,-0.95,3.6
24.015851974487305,3.19,2.0,-1.37,4.0
24.086833953857422,3.41,2.85,-1.16,4.59
24.08750295639038,4.2,4.32,-1.38,6.18
24.088146686553955,4.69,4.86,-0.72,6.79
24.0894718170166,3.81,4.63,0.04,5.99
24.091004848480225,3.93,4.44,0.62,5.96
24.091582775115967,3.8,4.08,0.81,5.63
24.092779874801636,3.9,4.19,0.59,5.75
24.095730781555176,4.77,4.73,0.5,6.73
24.105798721313477,5.58,5.16,-0.26,7.6
24.11565065383911,5.83,5.24,-0.65,7.86
24.186975955963135,5.38,4.81,-0.92,7.27
24.187557697296143,4.82,4.81,-1.02,6.88
24.188109874725342,3.82,5.65,-1.34,6.95
24.189262866973877,2.41,7.35,-1.96,7.97
24.190738677978516,1.82,8.55,-2.83,9.18
24.19132685661316,2.45,7.82,-3.24,8.81
24.19249987602234,1.03,6.7,-2.91,7.37
24.195623874664307,-1.21,6.52,-3.14,7.33
24.205593824386597,-0.02,5.69,-4.61,7.32
24.215503692626953,2.6,3.95,-2.79,5.49
24.285728931427002,5.59,2.7,-1.06,6.29
24.286329746246338,8.11,0.14,-0.75,8.14
24.286918878555298,7.43,-3.09,-0.45,8.05
24.28809690475464,1.06,-4.08,0.96,4.32
24.289288997650146,-4.35,-4.59,-1.91,6.6
24.289896965026855,-2.69,-0.92,-4.47,5.29
24.2914137840271,5.01,-0.81,-3.87,6.38
24.29546880722046,10.24,-1.95,-1.4,10.51
24.305442810058594,11.84,-2.36,0.54,12.08
24.31541872024536,10.9,-2.56,1.9,11.35
24.386961936950684,8.87,-3.09,2.61,9.74
24.387574672698975,6.81,-3.65,2.69,8.18
24.388157844543457,5.52,-3.91,2.21,7.11
24.389326810836792,4.94,-3.59,1.39,6.26
24.39082098007202,4.63,-3.17,0.67,5.65
24.391400814056396,4.22,-3.1,0.41,5.25
24.392549991607666,3.97,-3.1,0.27,5.04
24.39531373977661,3.84,-2.95,0.07,4.84
24.40528678894043,3.68,-2.73,0.1,4.58
24.415275812149048,3.28,-2.52,0.37,4.15
24.48727798461914,2.87,-2.29,0.86,3.77
24.487884998321533,2.64,-1.61,1.65,3.5
24.48846983909607,2.63,-0.31,2.87,3.9
24.489673852920532,2.29,1.5,3.71,4.61
24.491164684295654,1.29,2.64,2.32,3.74
24.491747856140137,0.13,3.24,-0.64,3.3
24.49293088912964,-0.52,3.74,-2.39,4.46
24.49521279335022,-0.79,4.79,-1.63,5.12
24.505128860473633,-1.6,6.24,-0.48,6.45
24.515129804611206,-2.86,6.47,-1.0,7.14
24.58803367614746,-4.46,5.63,-2.49,7.6
24.588631868362427,-6.02,5.04,-2.92,8.37
24.58921980857849,-7.0,5.27,-3.05,9.27
24.59076166152954,-8.34,6.09,-4.07,11.09
24.59190273284912,-10.8,6.22,-5.35,13.56
24.592493772506714,-12.92,4.86,-5.52,14.86
24.593653678894043,-13.37,2.27,-4.09,14.16
24.595008850097656,-12.34,0.16,-2.05,12.51
24.60504674911499,-10.55,-1.21,-1.2,10.68
24.615015983581543,-9.18,-2.4,-0.67,9.51
24.6886568069458,-8.23,-2.62,-0.14,8.63
24.68925189971924,-8.16,-1.74,-0.12,8.34
24.69016981124878,-8.63,-1.04,-0.82,8.73
24.691340923309326,-7.83,3.86,-1.88,8.92
24.69250178337097,-4.2,8.97,-2.46,10.2
24.693089962005615,-4.99,3.09,-2.2,6.26
24.694270849227905,-4.32,-1.13,-3.09,5.43
24.695473670959473,5.36,-1.43,1.77,5.82
24.704880714416504,11.48,-0.25,7.56,13.74
24.71485996246338,7.34,0.91,4.02,8.41
24.788471698760986,-1.44,2.13,-0.67,2.65
24.789076805114746,-8.02,0.83,-0.87,8.1
24.790010929107666,-8.36,-0.09,-0.27,8.36
24.791192770004272,-6.36,3.04,-0.94,7.11
24.792349815368652,-4.8,6.51,-0.65,8.11
24.79294180870056,-4.39,5.8,-0.29,7.27
24.79412269592285,-4.65,2.51,-1.81,5.58
24.795310974121094,-5.46,-0.17,-2.92,6.19
24.804678916931152,-4.53,1.89,-0.49,4.93
24.814621925354004,-3.87,0.08,1.28,4.07
24.889830827713013,-3.24,-1.66,0.49,3.67
24.890638828277588,-2.84,-1.13,-0.35,3.07
24.891234874725342,-2.04,-0.63,-0.68,2.24
24.892391681671143,-1.15,-0.17,-0.34,1.21
24.893529891967773,-0.49,0.13,0.0,0.5
24.894129753112793,-0.43,0.17,-0.38,0.59
24.895315647125244,-0.47,0.09,-0.83,0.95
24.896464824676514,-0.43,0.2,-0.81,0.93
24.904679775238037,-0.13,0.29,-0.5,0.59
24.914572715759277,0.24,0.11,-0.32,0.41
24.99003267288208,0.33,-0.22,-0.12,0.41
24.990830898284912,0.48,-0.42,-0.07,0.64
24.99143886566162,0.71,-0.32,-0.57,0.96
24.992665767669678,0.76,0.02,-1.09,1.32
24.99384379386902,0.7,0.23,-1.17,1.38
24.994452953338623,0.58,0.16,-1.0,1.16
24.99565076828003,0.27,-0.02,-0.72,0.76
24.996830940246582,-0.17,-0.01,-0.33,0.37
25.004485845565796,-0.42,0.15,0.03,0.44
25.014412879943848,-0.53,0.14,0.27,0.61
25.090248823165894,-0.53,-0.01,0.4,0.66
25.091002941131592,-0.65,-0.02,0.01,0.65
25.09158992767334,-0.53,0.1,-0.12,0.55
25.092758655548096,-0.28,0.14,-0.12,0.33
25.0938777923584,-0.06,0.15,-0.57,0.59
25.094462871551514,-0.35,0.05,-0.85,0.92
25.095653772354126,-0.61,0.08,-0.83,1.03
25.096829891204834,-0.64,0.14,-0.42,0.77
25.104288816452026,-0.5,0.09,-0.04,0.5
25.114306926727295,-0.33,-0.14,0.04,0.36
25.19098997116089,-0.43,-0.33,-0.06,0.54
25.19163179397583,-0.71,-0.19,0.14,0.74
25.192245960235596,-0.79,-0.02,0.15,0.8
25.19350576400757,-0.49,0.08,-0.21,0.53
25.194681882858276,-0.11,0.06,-0.55,0.56
25.19526767730713,-0.02,-0.01,-0.67,0.67
25.196467876434326,-0.05,-0.05,-0.66,0.66
25.19763469696045,-0.05,-0.1,-0.51,0.52
25.204235792160034,0.02,-0.15,-0.4,0.42
25.21421194076538,0.14,-0.06,-0.24,0.28
25.28952980041504,0.39,0.15,-0.34,0.53
25.29031276702881,0.58,0.15,-0.16,0.62
25.2908718585968,0.66,0.12,-0.15,0.68
25.292069911956787,0.7,0.16,-0.29,0.77
25.29325294494629,0.65,0.26,-0.34,0.77
25.293851852416992,0.57,0.38,-0.42,0.8
25.29503583908081,0.74,0.38,-0.24,0.86
25.296177864074707,1.02,0.44,-0.31,1.15
25.304027795791626,1.11,0.54,-0.45,1.31
25.31400775909424,1.33,0.6,-0.26,1.48
25.389442920684814,1.87,0.79,-0.31,2.05
25.390371799468994,2.21,1.03,-0.48,2.48
25.3909649848938,2.73,1.18,-0.28,2.98
25.39215898513794,3.32,1.24,-0.22,3.55
25.393296718597412,3.76,1.37,-0.22,4.0
25.393873691558838,3.97,1.93,-0.57,4.45
25.395063877105713,4.35,2.83,-0.89,5.26
25.396254777908325,4.7,3.6,-0.5,5.94
25.40388298034668,4.08,3.53,-0.88,5.46
25.413949966430664,3.89,3.51,-0.84,5.3
25.489139795303345,3.79,3.41,-0.33,5.1
25.489935874938965,3.83,3.13,-0.4,4.96
25.490510940551758,4.15,3.49,-0.08,5.42
25.491683959960938,4.72,4.02,-0.16,6.2
25.492828845977783,5.31,4.45,-0.26,6.93
25.493400812149048,5.54,4.71,-0.26,7.27
25.49454975128174,5.4,4.52,-0.6,7.06
25.495710849761963,4.6,4.64,-0.76,6.57
25.50378680229187,3.31,4.8,-0.62,5.86
25.51366376876831,2.41,5.26,-1.01,5.87
25.588300704956055,2.43,6.31,-1.68,6.96
25.58923888206482,3.2,6.86,-2.51,7.97
25.5898277759552,4.11,6.32,-3.09,8.14
25.590993881225586,2.35,6.74,-1.36,7.26
25.59212875366211,-1.53,7.37,-0.6,7.55
25.592718839645386,-1.7,6.45,-3.5,7.53
25.593925952911377,1.26,4.54,-3.31,5.75
25.595088958740234,4.55,4.11,-1.92,6.42
25.60364294052124,7.08,3.49,-1.66,8.06
25.613558769226074,7.95,0.42,-1.22,8.05
25.688228845596313,4.37,-2.64,-0.52,5.13
25.689202785491943,-1.4,-3.26,-0.92,3.66
25.68978476524353,-2.26,-1.04,-3.91,4.63
25.690996646881104,4.58,0.51,-4.8,6.65
25.6921648979187,10.01,-0.97,-3.12,10.52
25.692753791809082,12.47,-1.61,-1.05,12.61
25.693992853164673,12.06,-1.73,0.82,12.21
25.695196866989136,9.47,-2.11,1.81,9.86
25.703519821166992,7.0,-2.81,2.0,7.8
25.713480949401855,5.72,-3.41,1.74,6.88
25.789387702941895,5.76,-3.65,1.39,6.95
25.790186882019043,6.0,-3.54,1.08,7.04
25.79077672958374,5.71,-3.44,0.74,6.7
25.791961669921875,5.23,-3.39,0.6,6.26
25.793134689331055,5.12,-3.45,0.5,6.19
25.793720722198486,4.97,-3.3,0.45,5.98
25.794917821884155,4.67,-2.83,0.43,5.47
25.796093940734863,4.13,-2.01,0.71,4.64
25.803436756134033,3.46,-1.04,1.51,3.91
25.81334400177002,2.81,0.13,2.46,3.73
25.889824867248535,2.01,1.47,2.46,3.5
25.890443801879883,0.93,2.99,0.8,3.23
25.89110779762268,-1.48,4.98,-1.87,5.52
25.89231586456299,-4.16,6.0,-3.84,8.24
25.893486976623535,-5.09,6.77,-3.64,9.21
25.89406681060791,-5.5,8.04,-2.31,10.01
25.895304679870605,-6.17,8.85,-1.76,10.93
25.896506786346436,-7.11,8.83,-2.64,11.64
25.90309977531433,-8.32,8.08,-3.2,12.03
25.913049697875977,-9.11,7.02,-3.26,11.95
25.991325855255127,-10.06,6.54,-4.26,12.73
25.99194574356079,-10.35,4.93,-4.35,12.26
25.992535829544067,-10.24,2.21,-2.73,10.82
25.993797779083252,-10.81,0.19,-1.11,10.86
25.994988918304443,-11.8,-1.23,-0.82,11.89
25.995574951171875,-11.62,-2.26,-1.14,11.89
25.996774673461914,-10.21,-2.12,-1.23,10.5
25.998353958129883,-9.0,-1.38,-1.53,9.23
26.003004789352417,-7.56,2.69,-2.1,8.29
26.013110876083374,-5.31,9.06,-2.03,10.69
26.091384887695312,-6.68,2.8,-3.32,7.96
26.092058658599854,-4.32,-1.99,-3.47,5.88
26.092739820480347,5.61,-0.96,2.44,6.19
26.093993663787842,9.91,0.91,8.01,12.77
26.09517192840576,4.57,1.42,4.16,6.34
26.095751762390137,-4.5,1.13,-0.13,4.64
26.096970796585083,-9.76,0.33,-1.35,9.85
26.09852886199951,-8.07,1.13,-1.24,8.24
26.102794647216797,-5.36,3.99,-0.66,6.71
26.112897872924805,-4.92,5.96,-0.91,7.78
26.19130778312683,-5.05,4.73,-1.73,7.13
26.19191884994507,-6.13,1.56,-3.35,7.15
26.192521810531616,-6.39,0.23,-3.46,7.27
26.19372272491455,-4.1,1.42,-0.61,4.38
26.194881916046143,-3.25,-0.72,0.81,3.42
26.195462703704834,-3.27,-2.04,-0.01,3.85
26.196679830551147,-2.84,-1.32,-1.02,3.29
26.198185920715332,-1.6,-0.38,-0.93,1.88
26.202675819396973,-0.9,0.01,-0.69,1.13
26.21272087097168,-0.81,0.02,-0.91,1.21
26.295410871505737,-0.9,0.11,-1.02,1.36
26.296040773391724,-0.93,0.19,-0.84,1.26
26.296660900115967,-0.84,0.27,-0.53,1.02
26.298295974731445,-0.65,0.31,-0.14,0.73
26.299463748931885,-0.37,0.08,0.15,0.4
26.300047874450684,-0.19,-0.24,0.17,0.35
26.301259994506836,-0.2,-0.36,-0.01,0.41
26.302796840667725,-0.3,-0.25,-0.12,0.4
26.303391933441162,-0.42,-0.06,-0.14,0.44
26.31264066696167,-0.7,0.08,-0.46,0.84
26.391775846481323,-0.94,0.14,-0.9,1.3
26.392398834228516,-1.03,0.19,-0.8,1.31
26.39298176765442,-0.9,0.28,-0.46,1.04
26.39416265487671,-0.74,0.2,-0.37,0.85
26.395312786102295,-0.56,0.04,-0.54,0.77
26.395894765853882,-0.44,0.11,-0.6,0.75
26.39712882041931,-0.2,0.14,-0.36,0.43
26.3986759185791,0.1,0.1,-0.04,0.14
26.402822971343994,0.28,-0.02,-0.06,0.28
26.412484884262085,0.19,-0.08,-0.57,0.6
26.491488933563232,-0.15,-0.06,-0.72,0.73
26.492196798324585,-0.27,0.05,-0.45,0.52
26.492787837982178,0.08,0.15,-0.38,0.41
26.49397897720337,0.46,0.04,-0.39,0.6
26.49514675140381,0.56,-0.07,-0.47,0.73
26.49573588371277,0.44,-0.12,-0.64,0.78
26.496960878372192,0.26,-0.05,-0.73,0.77
26.498478889465332,0.17,0.08,-0.69,0.71
26.502378940582275,0.27,0.01,-0.37,0.45
26.51236581802368,0.24,0.03,-0.11,0.26
26.589481830596924,0.13,0.06,-0.2,0.24
26.590088844299316,0.09,0.05,-0.3,0.31
26.59070873260498,0.18,0.06,-0.51,0.54
26.59190082550049,0.31,0.04,-0.82,0.87
26.59304189682007,0.5,-0.06,-0.69,0.85
26.593623876571655,0.74,-0.1,-0.27,0.79
26.59480094909668,0.84,0.1,-0.07,0.84
26.59595775604248,0.74,0.37,0.36,0.9
26.60224485397339,0.91,0.48,0.89,1.36
26.612257957458496,1.2,0.46,0.71,1.46
26.689011812210083,1.52,0.28,0.38,1.59
26.689624786376953,2.06,0.14,0.09,2.06
26.690200805664062,2.52,0.1,-0.1,2.52
26.691375732421875,2.81,0.32,-0.33,2.84
26.692511796951294,3.07,0.48,-0.54,3.15
26.693092823028564,3.31,0.49,-0.04,3.34
26.694262981414795,3.5,0.63,-0.3,3.56
26.695411682128906,3.45,0.76,-0.67,3.59
26.702093839645386,3.2,0.94,-0.47,3.36
26.71208882331848,2.89,1.1,-0.36,3.11
26.790337800979614,2.72,1.42,-0.48,3.1
26.791021823883057,2.59,3.37,-1.32,4.45
26.791642665863037,2.92,4.55,-0.25,5.41
26.792848825454712,3.0,4.18,0.13,5.14
26.794001817703247,2.76,4.18,0.43,5.02
26.79453992843628,2.92,4.26,0.53,5.19
26.795751810073853,3.29,4.13,0.55,5.3
26.79727578163147,3.68,4.25,0.41,5.63
26.801889896392822,4.19,4.59,0.22,6.21
26.81192684173584,4.76,5.03,-0.21,6.92
26.89073371887207,4.96,5.27,-0.4,7.24
26.891421794891357,4.76,4.98,-0.36,6.89
26.89203381538391,4.66,5.1,-0.45,6.92
26.89328670501709,4.09,5.52,-0.54,6.89
26.894463777542114,3.08,6.51,-1.02,7.27
26.89506483078003,2.65,7.3,-1.69,7.94
26.896296977996826,2.76,6.51,-1.71,7.27
26.89779782295227,2.49,5.8,-1.37,6.45
26.901813983917236,0.29,6.87,-0.96,6.94
26.91181182861328,-0.81,7.77,-3.48,8.55
26.990994930267334,1.63,6.31,-4.55,7.94
26.991700649261475,5.46,5.11,-2.73,7.96
26.992361783981323,8.97,3.66,-1.42,9.79
26.993614673614502,10.6,0.66,-0.3,10.62
26.99479579925537,7.9,-1.96,0.69,8.16
26.995381832122803,0.71,-2.75,0.6,2.9
26.996932983398438,-4.05,-2.17,-3.34,5.68
26.998154878616333,-2.94,0.46,-4.5,5.39
27.001622676849365,4.53,-0.34,-3.48,5.72
27.01164674758911,9.61,-2.18,-1.68,9.99
27.091574668884277,11.08,-2.83,-0.3,11.43
27.09223699569702,10.12,-2.75,0.93,10.52
27.092891693115234,8.3,-2.71,2.11,8.98
27.094130992889404,6.01,-3.26,2.45,7.26
27.0952787399292,4.51,-4.6,2.28,6.83
27.095858812332153,4.18,-5.18,1.89,6.91
27.09739875793457,4.59,-4.7,1.23,6.68
27.098606824874878,4.95,-4.28,0.81,6.59
27.101577758789062,4.98,-3.91,0.88,6.39
27.11141085624695,4.69,-3.37,1.0,5.86
27.192381858825684,4.22,-3.13,0.87,5.32
27.192985773086548,3.53,-2.85,0.95,4.63
27.19357681274414,2.98,-2.34,1.45,4.05
27.194769859313965,2.65,-1.48,2.32,3.82
27.195929765701294,2.19,-0.35,3.14,3.84
27.196826934814453,1.56,0.94,3.08,3.57
27.198043823242188,1.34,1.92,1.92,3.02
27.199259757995605,0.72,3.45,0.27,3.53
27.201422691345215,-1.43,5.77,-1.71,6.18
27.211391925811768,-3.74,7.4,-3.21,8.89
27.29236388206482,-5.26,8.92,-3.51,10.93
27.293540954589844,-5.99,9.74,-3.3,11.9
27.294137954711914,-6.71,9.41,-3.23,12.0
27.295352935791016,-6.82,7.79,-3.25,10.85
27.296873807907104,-7.63,5.87,-4.11,10.46
27.297459840774536,-9.79,5.04,-5.98,12.53
27.29865598678589,-11.14,4.21,-6.06,13.36
27.299845695495605,-10.86,2.32,-3.7,11.7
27.301175832748413,-10.66,-0.11,-1.13,10.72
27.311134815216064,-10.83,-1.76,-0.29,10.97
27.392956733703613,-10.75,-1.95,-0.88,10.96
27.39393377304077,-9.87,-1.41,-1.63,10.1
27.39452075958252,-8.57,-0.92,-1.8,8.8
27.395773887634277,-7.86,-0.63,-1.64,8.05
27.397275924682617,-6.73,3.41,-1.71,7.73
27.397862911224365,-4.78,7.88,-1.75,9.38
27.399057865142822,-6.74,2.6,-2.2,7.55
27.400235652923584,0.47,1.09,-0.92,1.5
27.40104579925537,10.78,0.44,6.7,12.7
27.411094665527344,10.62,-0.98,9.4,14.21
27.493441820144653,2.6,-1.36,2.89,4.11
27.494478702545166,-7.04,-2.06,-0.74,7.37
27.495069980621338,-11.34,-1.82,-2.49,11.75
27.49659490585327,-9.77,2.45,-4.08,10.86
27.497745990753174,-6.18,9.76,-2.29,11.77
27.49832773208618,-3.75,9.97,-0.57,10.66
27.499550819396973,-4.42,3.77,-1.58,6.02
27.500807762145996,-5.71,-0.65,-2.76,6.37
27.501412868499756,-5.09,0.33,-0.76,5.15
27.510987758636475,-5.63,-0.66,0.49,5.68
27.59397792816162,-5.41,-1.57,0.0,5.63
27.594998836517334,-4.54,-0.78,-0.6,4.64
27.59596085548401,-3.34,0.13,-0.35,3.36
27.59714365005493,-2.33,0.41,0.0,2.36
27.59833288192749,-1.58,0.1,-0.04,1.58
27.598925828933716,-0.76,-0.15,-0.24,0.81
27.60014295578003,-0.08,-0.13,-0.31,0.34
27.601369857788086,0.37,0.04,-0.37,0.52
27.601951837539673,0.34,0.27,-0.38,0.57
27.61076784133911,0.13,0.29,-0.39,0.5
27.694171905517578,0.0,0.01,-0.44,0.44
27.69525980949402,-0.09,-0.16,-0.75,0.77
27.6961989402771,-0.13,-0.05,-1.51,1.51
27.69745397567749,-0.21,0.17,-1.86,1.87
27.69862699508667,-0.3,0.18,-1.43,1.47
27.699211835861206,-0.32,-0.04,-0.91,0.96
27.700435876846313,-0.44,-0.21,-0.53,0.72
27.701632976531982,-0.47,-0.28,-0.24,0.59
27.702232837677002,-0.32,-0.19,-0.01,0.37
27.71071195602417,-0.05,0.09,0.03,0.1
27.7936429977417,0.16,0.19,0.12,0.27
27.7945237159729,0.31,0.03,0.56,0.64
27.79513692855835,0.33,-0.05,0.6,0.68
27.796681880950928,0.37,0.0,0.07,0.37
27.797891855239868,0.38,0.07,-0.74,0.83
27.798489809036255,0.05,0.06,-1.32,1.32
27.799771785736084,-0.2,-0.14,-1.49,1.5
27.801060676574707,-0.28,-0.35,-1.09,1.17
27.80168581008911,-0.07,-0.22,-0.5,0.55
27.81052279472351,0.18,-0.03,-0.2,0.27
27.893362998962402,0.25,0.02,-0.04,0.25
27.894319772720337,0.15,0.05,0.06,0.16
27.894957780838013,0.08,-0.02,0.07,0.1
27.89643096923828,0.07,-0.08,-0.05,0.11
27.897632837295532,0.02,-0.04,-0.38,0.38
27.898284912109375,0.01,-0.01,-0.61,0.61
27.899596691131592,0.12,-0.17,-0.58,0.61
27.900904655456543,0.06,-0.18,-0.61,0.63
27.901550769805908,-0.02,-0.09,-0.56,0.56
27.910438776016235,-0.16,0.05,-0.42,0.45
27.99271297454834,-0.47,0.34,-0.06,0.58
27.993708848953247,-0.66,0.24,0.77,1.04
27.99429988861084,-0.4,0.06,1.01,1.08
27.99590492248535,0.01,0.11,0.6,0.61
27.997103691101074,0.45,0.11,0.23,0.51
27.997662782669067,0.76,0.08,-0.15,0.77
27.998899936676025,0.83,0.06,-0.45,0.94
28.00013279914856,0.85,0.1,-0.78,1.15
28.00072979927063,1.07,0.18,-0.82,1.36
28.010291814804077,1.33,0.34,-0.58,1.49
28.091070652008057,1.53,0.46,-0.48,1.66
28.093625783920288,2.08,0.41,-0.11,2.12
28.09420871734619,2.7,0.4,0.05,2.72
28.09573984146118,3.28,0.5,0.1,3.31
28.0968918800354,3.61,0.56,-0.06,3.65
28.097484827041626,4.15,0.59,-0.2,4.19
28.09871768951416,5.11,0.73,-0.49,5.18
28.09994888305664,5.6,1.06,-1.53,5.9
28.100558757781982,4.96,1.22,-1.72,5.38
28.110057830810547,4.03,1.43,-1.57,4.55
28.12003993988037,2.99,2.11,-1.46,3.94
28.192563772201538,2.24,2.68,0.12,3.49
28.193182945251465,2.06,4.77,0.42,5.21
28.19435477256775,3.66,5.81,-0.76,6.9
28.195863723754883,3.25,4.83,1.35,5.97
28.196465969085693,3.75,4.65,0.98,6.05
28.197693824768066,3.49,4.47,0.84,5.73
28.198904991149902,3.05,4.33,0.35,5.3
28.200042724609375,3.04,4.54,-0.15,5.46
28.210158824920654,3.29,4.76,-0.7,5.82
28.219992876052856,3.18,4.51,-0.76,5.57
28.290088653564453,3.06,4.54,-0.94,5.55
28.290703773498535,3.11,5.58,-1.04,6.47
28.291871786117554,3.44,6.64,-1.94,7.72
28.29305386543274,4.22,6.46,-2.76,8.19
28.29363489151001,4.64,5.12,-1.97,7.18
28.295132875442505,3.49,4.7,-1.25,5.98
28.29628896713257,0.06,6.69,-0.96,6.75
28.29986572265625,-1.29,6.89,-3.8,7.97
28.309826850891113,1.37,5.66,-4.07,7.1
28.319839000701904,4.47,4.66,-1.84,6.71
28.39076566696167,7.48,2.8,-0.63,8.01
28.391372680664062,9.22,-0.76,-0.01,9.25
28.392531871795654,6.53,-2.97,0.92,7.23
28.393678665161133,-0.32,-3.84,0.35,3.86
28.394288778305054,-2.99,-2.12,-3.21,4.87
28.39581298828125,1.84,-0.09,-4.23,4.61
28.396982669830322,7.7,-1.41,-2.58,8.24
28.399706840515137,10.59,-1.99,-0.95,10.81
28.409711837768555,10.66,-1.97,0.15,10.84
28.41968083381653,9.31,-2.09,1.29,9.62
28.492798805236816,7.49,-2.76,1.91,8.2
28.493918895721436,5.93,-3.69,1.82,7.21
28.495492935180664,5.14,-4.19,1.57,6.81
28.496670722961426,4.95,-3.89,1.11,6.39
28.497257709503174,4.72,-3.41,0.62,5.85
28.498488903045654,4.39,-3.01,0.31,5.33
28.4997239112854,4.03,-2.76,0.2,4.88
28.500313758850098,3.67,-2.65,0.32,4.53
28.50958490371704,3.16,-2.5,0.65,4.08
28.51954698562622,2.69,-2.22,1.24,3.7
28.5939359664917,2.33,-1.66,1.98,3.47
28.595215797424316,2.1,-0.87,2.57,3.43
28.596407890319824,2.08,0.15,2.41,3.18
28.597572803497314,2.0,1.35,1.46,2.82
28.598151683807373,0.89,2.94,-0.15,3.07
28.59943389892578,-1.1,4.39,-1.86,4.89
28.600687980651855,-2.98,5.48,-2.59,6.75
28.60127592086792,-4.07,6.47,-2.59,8.07
28.609424829483032,-4.69,7.16,-2.53,8.92
28.61933994293213,-5.56,7.62,-2.67,9.8
28.692960739135742,-6.91,8.06,-3.11,11.06
28.694443702697754,-8.28,7.94,-4.02,12.15
28.695677757263184,-9.52,6.95,-4.76,12.71
28.69681692123413,-10.38,5.33,-4.81,12.62
28.697404861450195,-10.64,2.57,-3.65,11.53
28.69857692718506,-10.39,-0.27,-1.99,10.58
28.69975781440735,-10.52,-1.04,-1.03,10.62
28.700345993041992,-10.56,-0.93,-1.04,10.65
28.709338665008545,-9.51,-1.26,-1.05,9.65
28.719270706176758,-8.1,-0.99,-0.55,8.17
28.79428482055664,-7.18,-0.86,-0.44,7.24
28.795315742492676,-6.79,-0.8,-0.9,6.89
28.796541690826416,-6.12,1.97,-1.17,6.53
28.797735691070557,-4.32,8.07,-0.99,9.2
28.79833173751831,-6.77,3.71,-2.16,8.01
28.799611806869507,-5.86,-1.24,-2.75,6.59
28.800845861434937,5.16,-0.61,1.75,5.48
28.801450729370117,12.53,0.37,8.15,14.95
28.88137984275818,8.47,-0.02,6.39,10.61
28.881987810134888,-0.76,0.3,1.67,1.85
28.88257074356079,-8.42,-0.67,-0.65,8.47
28.883156776428223,-8.91,0.03,-1.41,9.02
28.884660720825195,-6.52,5.12,-1.64,8.45
28.885865688323975,-5.4,9.48,-1.69,11.04
28.886507987976074,-6.1,4.91,-4.38,8.97
28.88806390762329,-6.87,2.17,-4.16,8.31
28.889365673065186,-3.88,2.58,-0.06,4.65
28.899048805236816,-3.43,-1.52,2.25,4.37
28.977733850479126,-4.76,-3.37,1.36,5.98
28.978335857391357,-5.06,-1.77,-0.08,5.36
28.978938817977905,-4.09,-0.22,-0.32,4.1
28.979520797729492,-2.8,0.17,-0.35,2.82
28.98069477081299,-1.34,0.08,-0.8,1.56
28.98181986808777,-0.01,0.02,-0.93,0.93
28.9823956489563,0.68,0.13,-0.94,1.16
28.983569860458374,0.72,0.16,-1.11,1.33
28.98887872695923,0.27,0.16,-1.08,1.12
28.99893093109131,-0.07,0.17,-0.7,0.72
29.078224658966064,-0.16,0.03,-0.5,0.52
29.078864812850952,-0.24,-0.15,-0.63,0.69
29.079450845718384,-0.47,-0.06,-0.7,0.84
29.080037832260132,-0.75,0.04,-0.8,1.09
29.081228733062744,-1.07,0.02,-0.82,1.34
29.082429885864258,-1.3,0.19,-0.69,1.48
29.083017826080322,-1.26,0.19,-0.28,1.3
29.084582805633545,-0.94,0.04,0.37,1.01
29.08867073059082,-0.43,-0.16,0.69,0.82
29.0987548828125,-0.21,-0.26,0.37,0.49
29.178852796554565,-0.18,-0.13,-0.09,0.23
29.179526805877686,-0.3,-0.01,-0.15,0.33
29.180174827575684,-0.46,0.04,-0.1,0.47
29.18079376220703,-0.38,0.04,-0.4,0.55
29.182020664215088,-0.31,0.03,-0.89,0.94
29.183185815811157,-0.3,-0.05,-0.92,0.96
29.184149742126465,-0.22,-0.1,-0.9,0.93
29.18555974960327,0.08,-0.11,-1.03,1.03
29.188509941101074,0.38,-0.04,-0.7,0.79
29.198455810546875,0.4,-0.02,-0.25,0.47
29.27788281440735,0.26,0.08,-0.17,0.32
29.278518676757812,0.06,0.1,-0.06,0.13
29.279119968414307,-0.07,0.08,-0.11,0.15
29.27971386909485,-0.11,0.01,0.03,0.11
29.28088665008545,-0.11,-0.06,0.1,0.16
29.282007694244385,-0.07,-0.04,-0.14,0.16
29.282572746276855,0.02,-0.04,-0.48,0.48
29.28404998779297,0.05,-0.04,-0.5,0.5
29.288400650024414,0.01,-0.04,-0.33,0.33
29.29845881462097,-0.19,0.14,-0.31,0.38
29.377549648284912,-0.27,0.34,-0.07,0.43
29.378249883651733,-0.1,0.4,0.36,0.54
29.378832817077637,0.13,0.38,0.24,0.46
29.37941074371338,0.38,0.3,0.01,0.48
29.380611896514893,0.78,0.14,-0.32,0.85
29.3817617893219,1.37,0.06,-0.34,1.41
29.382364749908447,1.91,0.0,-0.12,1.91
29.383965969085693,2.14,0.02,-0.04,2.14
29.38836669921875,2.49,0.09,-0.05,2.49
29.398318767547607,3.26,0.17,-0.06,3.26
29.47719383239746,3.98,0.24,-0.16,3.99
29.47786283493042,4.38,0.44,-0.29,4.41
29.47847270965576,4.52,0.73,-0.32,4.58
29.47907280921936,4.6,1.01,-0.75,4.76
29.48033380508423,4.59,0.94,-1.11,4.81
29.481567859649658,4.5,0.74,-0.89,4.64
29.48215389251709,3.73,1.01,-0.63,3.91
29.483715772628784,3.0,1.54,-0.23,3.38
29.488377809524536,2.62,2.61,0.56,3.74
29.498170852661133,2.36,5.1,-0.36,5.63
29.57687783241272,3.06,5.57,0.2,6.35
29.57749366760254,2.96,4.75,1.27,5.73
29.57810378074646,3.4,4.58,0.98,5.78
29.578686714172363,3.48,4.27,1.05,5.6
29.579892873764038,3.19,4.35,0.44,5.41
29.58112096786499,3.2,4.87,-0.35,5.83
29.58172082901001,3.51,5.04,-1.04,6.22
29.583309650421143,3.91,4.89,-1.33,6.4
29.5880389213562,4.41,5.54,-1.83,7.31
29.59804677963257,5.46,7.21,-2.72,9.44
29.676660776138306,5.89,8.21,-3.44,10.67
29.677273750305176,5.11,7.87,-3.19,9.91
29.677884817123413,4.12,7.17,-2.62,8.67
29.678467750549316,2.17,6.94,-1.38,7.4
29.679641723632812,-1.33,7.92,0.18,8.03
29.680792808532715,-2.54,6.72,-2.48,7.6
29.681391716003418,-0.11,3.96,-3.72,5.43
29.68315076828003,3.61,3.34,-1.74,5.21
29.68792986869812,8.18,2.01,-0.75,8.45
29.69780397415161,9.49,-1.84,0.08,9.66
29.777333736419678,2.67,-3.71,1.52,4.81
29.77799081802368,-2.7,-4.8,-1.74,5.77
29.77858281135559,0.29,-1.09,-4.31,4.45
29.77916669845581,7.55,-0.14,-2.58,7.97
29.780364990234375,10.92,-1.32,0.02,10.99
29.781596660614014,11.55,-2.04,1.89,11.88
29.78227996826172,10.01,-2.84,2.97,10.82
29.783936977386475,8.06,-3.77,3.66,9.62
29.787776947021484,6.71,-4.2,3.61,8.7
29.797751903533936,6.14,-4.1,2.89,7.92
29.87762975692749,5.95,-3.55,2.11,7.24
29.878259658813477,5.56,-3.16,1.55,6.58
29.878864765167236,4.96,-3.22,1.21,6.03
29.87946581840515,4.48,-3.35,1.02,5.68
29.88073492050171,4.1,-3.16,1.12,5.29
29.881930828094482,3.73,-2.89,1.58,4.97
29.882877826690674,3.11,-2.44,2.3,4.57
29.884116649627686,2.68,-1.66,3.14,4.44
29.88758373260498,2.85,-0.65,3.56,4.6
29.8975887298584,2.78,0.83,2.97,4.15
29.978243827819824,1.6,2.92,1.28,3.56
29.978869915008545,-0.62,4.9,-1.0,5.03
29.97947597503662,-2.5,6.0,-2.57,6.98
29.980074882507324,-3.15,7.39,-2.89,8.53
29.98130178451538,-3.72,9.38,-2.76,10.46
29.982911825180054,-4.85,10.36,-3.05,11.83
29.983529806137085,-6.67,9.49,-4.18,12.32
29.98477268218994,-8.53,7.86,-4.93,12.6
29.987504959106445,-9.95,6.0,-5.48,12.84
29.99753189086914,-11.04,4.02,-6.47,13.41
30.079023838043213,-11.51,1.5,-6.34,13.22
30.079659938812256,-12.23,-0.79,-4.6,13.09
30.080270767211914,-13.19,-2.01,-3.35,13.75
30.080878734588623,-13.76,-2.64,-3.46,14.43
30.082518815994263,-12.45,-2.49,-3.91,13.28
30.083740711212158,-10.24,-2.03,-3.84,11.12
30.084333896636963,-8.54,0.09,-3.58,9.26
30.085595846176147,-6.27,7.45,-2.82,10.13
30.087365865707397,-6.28,4.5,-3.34,8.41
30.097376823425293,-6.78,-0.37,-4.55,8.17
30.177719831466675,3.32,-0.1,-0.33,3.33
30.178330898284912,13.34,0.35,8.11,15.61
30.178919792175293,10.9,-0.55,7.89,13.46
