time,ax,ay,az,atotal
0.0026717185974121094,-0.29,0.07,0.07,0.3
0.004197835922241211,-0.08,-0.19,-0.08,0.22
0.005834817886352539,0.31,0.02,0.02,0.31
0.015347957611083984,0.24,0.06,-0.04,0.25
0.025271892547607422,-0.19,-0.04,0.05,0.2
0.03539896011352539,-0.08,0.05,0.05,0.1
0.045314788818359375,0.13,-0.01,0.0,0.13
0.05491280555725098,0.18,0.03,-0.06,0.19
0.06543302536010742,0.02,0.0,-0.1,0.1
0.07839393615722656,-0.08,-0.03,-0.05,0.09
0.10074687004089355,-0.12,0.01,0.04,0.12
0.1023707389831543,-0.09,0.07,0.03,0.11
0.1044607162475586,0.0,0.07,0.02,0.07
0.11653375625610352,0.12,0.0,0.02,0.12
0.12476086616516113,0.15,-0.03,0.01,0.15
0.13463973999023438,0.11,-0.04,-0.03,0.12
0.14456486701965332,0.09,-0.07,-0.05,0.12
0.15446090698242188,0.03,-0.05,0.0,0.05
0.16486287117004395,0.0,-0.06,0.03,0.06
0.1777176856994629,0.01,-0.01,0.06,0.06
0.2049107551574707,0.16,-0.04,0.09,0.18
0.20650982856750488,0.27,-0.04,0.11,0.29
0.20816588401794434,0.16,-0.04,0.1,0.19
0.21385669708251953,0.0,-0.03,0.11,0.11
0.22384977340698242,-0.05,0.02,0.1,0.11
0.23398184776306152,-0.09,0.04,0.07,0.12
0.24380183219909668,-0.12,0.06,0.03,0.13
0.2536807060241699,-0.06,0.04,0.05,0.08
0.2640347480773926,0.0,0.05,0.07,0.08
0.27721071243286133,0.1,0.04,0.05,0.11
0.306337833404541,0.24,-0.02,-0.07,0.25
0.30794477462768555,0.3,0.0,-0.09,0.31
0.30968189239501953,0.2,-0.01,-0.16,0.25
0.31303977966308594,0.07,0.0,-0.13,0.14
0.3321528434753418,-0.13,0.04,-0.08,0.15
0.33366870880126953,-0.2,0.08,-0.02,0.21
0.3473658561706543,-0.11,0.09,0.08,0.16
0.35337281227111816,0.03,-0.01,0.06,0.06
0.36712169647216797,0.22,-0.27,-0.04,0.35
0.37318897247314453,0.19,0.05,0.12,0.23
0.4030609130859375,0.06,-0.1,0.08,0.14
0.4046468734741211,-0.1,-0.11,0.01,0.14
0.40610170364379883,-0.17,-0.03,0.02,0.17
0.4148728847503662,0.02,0.14,0.17,0.22
0.4222428798675537,-0.02,0.08,0.35,0.35
0.43226194381713867,-0.15,-0.02,0.26,0.3
0.4422578811645508,-0.17,0.02,0.2,0.26
0.4519467353820801,-0.13,0.04,0.1,0.16
0.46263980865478516,-0.08,0.01,-0.06,0.1
0.47564077377319336,-0.02,0.02,-0.12,0.12
0.5019938945770264,0.1,0.02,-0.12,0.15
0.5034348964691162,0.17,0.01,-0.11,0.2
0.5051298141479492,0.12,0.02,-0.08,0.14
0.5164868831634521,0.09,-0.02,-0.08,0.12
0.5214748382568359,0.1,0.0,-0.14,0.17
0.5315847396850586,0.05,0.04,-0.15,0.16
0.5415797233581543,-0.06,0.05,-0.04,0.08
0.5512447357177734,-0.18,0.02,0.02,0.18
0.5645217895507812,-0.27,0.04,0.01,0.27
0.5735907554626465,-0.23,0.03,0.07,0.24
0.5812349319458008,-0.15,0.06,0.13,0.2
0.6032698154449463,-0.09,0.06,0.12,0.16
0.6049857139587402,-0.07,0.04,0.04,0.09
0.6109168529510498,-0.03,-0.01,-0.07,0.07
0.6209518909454346,0.04,-0.02,-0.24,0.24
0.6309278011322021,0.2,-0.03,-0.34,0.39
0.6407718658447266,0.34,0.04,-0.28,0.44
0.6511650085449219,0.25,0.11,-0.31,0.41
0.663172721862793,-0.02,0.13,-0.31,0.33
0.6710858345031738,-0.21,0.17,0.11,0.29
0.6832027435302734,-0.41,0.12,0.36,0.55
0.7054886817932129,-0.4,0.09,0.16,0.44
0.7072067260742188,-0.05,0.11,0.05,0.13
0.7101328372955322,0.2,0.02,0.02,0.2
0.7201910018920898,0.19,-0.12,-0.05,0.23
0.7308218479156494,0.1,-0.08,0.1,0.16
0.7400608062744141,0.18,-0.07,0.26,0.32
0.7499380111694336,0.35,-0.18,0.27,0.47
0.7598578929901123,0.47,-0.25,0.16,0.55
0.770075798034668,0.42,-0.14,0.06,0.44
0.7822856903076172,0.27,-0.06,0.13,0.3
0.806419849395752,0.15,-0.04,0.21,0.26
0.8081197738647461,0.0,0.01,0.12,0.12
0.8098218441009521,-0.16,0.12,-0.03,0.2
0.8195288181304932,-0.25,0.11,-0.07,0.28
0.8319029808044434,-0.1,-0.04,-0.11,0.15
0.8391108512878418,0.27,-0.11,-0.07,0.29
0.8489668369293213,0.56,-0.15,-0.1,0.58
0.8592319488525391,0.58,-0.16,-0.23,0.64
0.8695418834686279,0.41,-0.09,-0.17,0.45
0.8813278675079346,0.27,-0.06,-0.03,0.27
0.9035797119140625,0.12,-0.07,0.14,0.19
0.9052109718322754,0.11,-0.12,0.25,0.29
0.9085078239440918,0.15,-0.09,0.25,0.3
0.9185068607330322,0.08,0.04,0.32,0.33
0.9286437034606934,-0.02,0.01,0.24,0.24
0.9385159015655518,-0.02,-0.03,0.12,0.12
0.948408842086792,0.08,0.04,0.11,0.14
0.9583597183227539,0.12,0.01,0.07,0.13
0.9688749313354492,-0.06,-0.03,0.05,0.08
0.9806346893310547,-0.23,-0.05,0.07,0.24
1.0098657608032227,-0.24,0.0,0.14,0.27
1.0115008354187012,-0.12,0.1,0.19,0.24
1.012922763824463,-0.04,0.08,0.14,0.16
1.0326929092407227,-0.02,0.03,-0.08,0.08
1.034193992614746,-0.15,0.05,-0.25,0.29
1.048858880996704,-0.34,0.08,-0.24,0.42
1.050184726715088,-0.27,0.08,-0.24,0.37
1.0649099349975586,-0.11,0.04,-0.26,0.28
1.0678668022155762,0.0,0.03,-0.31,0.31
1.0833117961883545,0.08,0.07,-0.28,0.29
1.1052026748657227,-0.01,0.05,-0.24,0.24
1.1070499420166016,-0.1,0.07,-0.3,0.32
1.108651876449585,-0.04,0.08,-0.2,0.21
1.1171038150787354,0.03,0.02,0.04,0.05
1.127065896987915,0.09,-0.09,0.15,0.19
1.136894702911377,0.26,-0.16,0.28,0.41
1.146702766418457,0.44,-0.15,0.3,0.55
1.1568968296051025,0.49,-0.09,0.04,0.49
1.167240858078003,0.15,-0.09,-0.49,0.52
1.1798768043518066,-0.51,0.15,-0.47,0.7
1.2083549499511719,-0.5,0.12,-0.13,0.53
1.2099428176879883,-0.04,0.09,0.05,0.11
1.2113258838653564,0.34,0.07,-0.01,0.34
1.2164759635925293,0.33,0.07,-0.21,0.39
1.226243019104004,0.13,0.1,-0.36,0.39
1.2362027168273926,-0.2,0.15,-0.74,0.78
1.2460968494415283,-0.36,0.24,-0.78,0.89
1.2561228275299072,-0.17,0.14,-0.53,0.57
1.2664098739624023,0.02,0.04,-0.33,0.33
1.2789807319641113,0.14,0.1,-0.24,0.29
1.3083829879760742,0.17,0.17,-0.17,0.29
1.3098008632659912,0.2,0.14,-0.2,0.31
1.3113389015197754,0.01,0.18,-0.46,0.49
1.315431833267212,-0.22,0.21,-0.74,0.8
1.3255977630615234,-0.39,0.19,-0.73,0.84
1.335655689239502,-0.45,0.24,-0.69,0.85
1.3456077575683594,-0.32,0.19,-0.54,0.65
1.355414867401123,-0.35,0.13,-0.33,0.49
1.3658888339996338,-0.56,0.11,-0.37,0.68
1.3784799575805664,-0.65,0.16,-0.53,0.85
1.3856608867645264,-0.43,0.27,-0.57,0.76
1.4091949462890625,-0.04,0.3,-0.43,0.52
1.4111528396606445,0.17,0.2,-0.2,0.33
1.4149937629699707,0.12,0.11,-0.32,0.35
1.4330158233642578,-0.1,0.17,-0.75,0.77
1.4345297813415527,-0.32,0.48,-1.16,1.29
1.4491078853607178,-0.29,0.67,-1.52,1.68
1.4552149772644043,-0.25,0.83,-1.78,1.97
1.4682798385620117,-0.26,1.03,-1.96,2.22
1.4780769348144531,0.03,1.04,-2.07,2.31
1.4865179061889648,0.57,1.19,-2.29,2.64
1.5093460083007812,1.26,1.28,-3.0,3.49
1.5111048221588135,1.71,0.44,-3.87,4.25
1.5141668319702148,1.59,0.65,-4.45,4.77
1.5332918167114258,1.22,0.77,-4.63,4.84
1.5347528457641602,0.81,0.52,-4.05,4.16
1.5495867729187012,0.32,-0.03,-3.31,3.32
1.5538578033447266,-0.77,-0.96,-2.43,2.72
1.5646278858184814,-1.59,-0.61,-1.14,2.04
1.574429988861084,-2.36,-1.82,-1.32,3.25
1.5857608318328857,-3.87,-2.19,-2.04,4.89
1.6103408336639404,-4.54,-1.36,-1.88,5.09
1.612353801727295,-4.2,-1.19,-1.26,4.54
1.6137800216674805,-3.64,-1.63,-0.89,4.08
1.6327738761901855,-3.26,-1.87,-0.61,3.8
1.6342339515686035,-3.1,-1.82,-0.28,3.6
1.6502418518066406,-3.09,-1.69,-0.07,3.52
1.653108835220337,-3.11,-1.41,0.03,3.41
1.6645848751068115,-3.21,-0.9,0.1,3.33
1.673257827758789,-3.29,-0.42,0.36,3.33
1.6852548122406006,-3.13,-0.07,0.77,3.22
1.7098188400268555,-2.75,0.22,1.39,3.08
1.7118959426879883,-2.53,0.32,1.94,3.2
1.713357925415039,-2.4,0.41,2.25,3.31
1.7330968379974365,-2.07,0.38,2.53,3.29
1.734595775604248,-1.53,0.19,2.68,3.09
1.749375820159912,-0.57,-0.03,2.58,2.64
1.7523159980773926,0.27,0.24,2.35,2.37
1.763474941253662,1.1,0.53,1.6,2.01
1.7727537155151367,1.99,0.48,1.12,2.33
1.784714698791504,2.67,0.21,1.12,2.9
1.8181509971618652,2.9,-0.27,1.42,3.24
1.8199739456176758,2.65,-0.79,1.73,3.26
1.8213319778442383,2.14,-1.16,1.98,3.13
1.8335490226745605,1.91,1.13,1.5,2.67
1.8349957466125488,3.75,0.97,0.76,3.94
1.849550724029541,7.98,-0.27,1.88,8.2
1.8514037132263184,11.65,2.93,4.78,12.92
1.864365816116333,9.06,4.24,6.98,12.19
1.8716177940368652,-2.7,4.14,7.04,8.6
1.8845798969268799,-9.52,1.94,4.9,10.88
1.9172029495239258,-7.63,0.52,2.83,8.15
1.9190597534179688,-3.43,0.38,0.65,3.51
1.9205307960510254,-0.22,0.74,0.29,0.82
1.922609806060791,1.07,0.34,1.62,1.97
1.9307847023010254,1.56,-1.12,2.5,3.15
1.9410147666931152,1.68,-1.14,1.41,2.47
1.9510178565979004,1.04,-0.32,-0.28,1.12
1.9608898162841797,0.68,0.05,-1.43,1.58
1.970834732055664,0.91,0.04,-1.91,2.11
1.9807078838348389,1.34,0.2,-1.71,2.18
2.011748790740967,1.54,0.32,-0.91,1.81
2.0133509635925293,1.07,0.0,0.35,1.12
2.014770030975342,0.19,-0.1,1.32,1.33
2.0329079627990723,-0.32,0.18,1.69,1.72
2.0343947410583496,-0.62,0.28,1.83,1.95
2.0493128299713135,-0.61,0.05,1.46,1.58
2.0507607460021973,-0.08,-0.19,0.82,0.84
2.063349723815918,0.54,-0.04,0.15,0.56
2.070495843887329,0.89,0.17,-0.49,1.03
2.0847678184509277,1.08,0.15,-0.98,1.46
2.110804796218872,1.02,-0.01,-1.29,1.64
2.1126270294189453,0.79,0.01,-1.22,1.45
2.1140389442443848,0.34,0.12,-1.0,1.06
2.1329269409179688,-0.19,0.12,-0.78,0.81
2.1343369483947754,-0.5,0.1,-0.54,0.74
2.149441719055176,-0.6,0.13,-0.67,0.9
2.1509079933166504,-0.56,0.08,-0.84,1.01
2.1654179096221924,-0.37,0.01,-0.89,0.96
2.1696410179138184,-0.17,-0.08,-0.92,0.93
2.1845738887786865,0.0,-0.12,-0.76,0.76
2.1896166801452637,-0.09,-0.19,-0.79,0.81
2.2205557823181152,-0.42,-0.15,-0.83,0.94
2.222132682800293,-0.63,-0.04,-0.7,0.94
2.2235898971557617,-0.72,-0.05,-0.45,0.85
2.2315988540649414,-0.57,0.11,-0.15,0.59
2.2388508319854736,-0.13,0.37,0.21,0.44
2.249297857284546,0.25,0.34,0.48,0.63
2.2586917877197266,0.57,0.18,0.64,0.87
2.268307685852051,0.85,0.07,0.5,0.98
2.27856183052063,0.8,-0.1,0.24,0.84
2.2888548374176025,0.63,-0.19,0.05,0.65
2.3159890174865723,0.57,-0.08,-0.07,0.57
2.317802906036377,0.47,0.03,-0.38,0.6
2.3192520141601562,0.2,0.15,-0.7,0.74
2.333611011505127,-0.13,0.37,-0.81,0.89
2.3379287719726562,-0.43,0.44,-0.89,1.08
2.3487398624420166,-0.64,0.43,-0.79,1.1
2.3580288887023926,-0.85,0.6,-0.7,1.25
2.367764949798584,-1.26,1.15,-0.93,1.94
2.37782883644104,-1.62,1.34,-1.38,2.51
2.390061855316162,-1.89,1.02,-2.07,2.98
2.4127140045166016,-2.12,0.73,-2.24,3.16
2.4145426750183105,-2.28,0.78,-2.1,3.19
2.4173038005828857,-2.62,0.99,-2.18,3.54
2.4336819648742676,-3.15,1.29,-1.97,3.93
2.4371988773345947,-3.37,1.92,-1.59,4.19
2.4489948749542236,-3.1,2.81,-1.29,4.37
2.457298755645752,-2.76,3.32,-1.78,4.66
2.4668569564819336,-3.55,4.0,-3.03,6.14
2.47744083404541,-3.85,5.25,-3.04,7.18
2.4896059036254883,-3.63,4.98,-2.36,6.59
2.517382860183716,-4.03,4.57,-2.5,6.58
2.5189528465270996,-4.17,4.73,-2.52,6.79
2.5204198360443115,-4.49,5.16,-2.7,7.35
2.534233808517456,-5.12,5.29,-3.05,7.96
2.5363779067993164,-5.25,5.23,-3.14,8.04
2.5495519638061523,-4.9,5.41,-3.22,7.97
2.556509017944336,-4.53,5.28,-3.55,7.81
2.5660619735717773,-4.59,5.19,-4.63,8.33
2.576068878173828,-4.87,5.33,-5.89,9.31
2.586139678955078,-4.26,5.01,-6.94,9.56
2.6223559379577637,-2.97,4.8,-6.89,8.9
2.624138832092285,-0.76,6.37,-3.87,7.49
2.625656843185425,4.22,8.67,0.12,9.64
2.631478786468506,5.06,5.67,-0.75,7.63
2.635718822479248,1.1,1.79,-4.12,4.62
2.6499898433685303,-3.4,-0.3,-5.89,6.8
2.6556577682495117,-6.94,-3.14,-5.61,9.46
2.665435791015625,-3.35,-4.35,-3.84,6.7
2.675407886505127,-2.41,-4.7,-3.1,6.12
2.6852059364318848,-7.21,-4.05,-3.31,8.9
2.7259578704833984,-10.8,-2.93,-3.05,11.59
2.7278389930725098,-11.13,-3.62,-1.75,11.83
2.729179859161377,-9.44,-5.04,-0.31,10.7
2.7313179969787598,-8.21,-5.81,0.08,10.05
2.7349438667297363,-7.76,-5.98,-0.25,9.8
2.7450199127197266,-7.58,-5.58,-0.55,9.42
2.755025863647461,-7.43,-5.0,-0.64,8.97
2.764774799346924,-7.14,-4.47,-0.65,8.44
2.774695873260498,-6.61,-4.23,-0.76,7.88
2.7847237586975098,-5.93,-4.03,-0.64,7.19
2.817464828491211,-5.33,-3.75,-0.04,6.51
2.8191137313842773,-4.91,-3.42,0.54,6.0
2.8205599784851074,-4.48,-2.89,0.74,5.38
2.833749771118164,-3.72,-2.22,0.41,4.35
2.835230827331543,-2.65,-1.34,0.07,2.97
2.849923849105835,-1.47,-0.16,-0.05,1.47
2.8539819717407227,-0.61,1.06,-0.03,1.22
2.8650360107421875,-0.07,1.9,0.36,1.93
2.873793840408325,0.45,2.63,0.84,2.79
2.8837027549743652,1.22,3.56,0.97,3.88
2.9204838275909424,2.4,4.64,0.88,5.29
2.922524929046631,3.75,5.56,0.84,6.75
2.923527717590332,4.95,6.2,0.86,7.98
2.9301888942718506,6.07,6.5,0.7,8.92
2.9334969520568848,7.49,6.26,0.64,9.78
2.949924945831299,8.63,6.73,0.93,10.98
2.9532628059387207,8.13,12.54,0.29,14.94
2.965054988861084,12.69,6.47,-1.6,14.33
2.9732789993286133,17.91,3.96,1.75,18.42
2.9832067489624023,16.76,4.13,3.79,17.67
2.996060848236084,14.0,4.86,4.02,15.35
3.021073818206787,13.1,5.36,4.93,14.98
3.0222697257995605,12.86,4.56,5.37,14.66
3.023468017578125,11.89,3.07,5.39,13.41
3.0324618816375732,10.57,1.14,5.08,11.78
3.0428466796875,7.3,-2.82,1.54,7.97
3.052572727203369,-0.35,-3.66,-3.01,4.75
3.0628299713134766,-6.1,6.01,-2.25,8.85
3.0725128650665283,-1.37,13.2,2.61,13.52
3.082446813583374,3.59,5.35,3.05,7.12
3.0922889709472656,4.21,-0.87,2.94,5.2
3.1223249435424805,4.6,-2.86,3.52,6.45
3.1240057945251465,4.58,-2.51,2.34,5.72
3.1255388259887695,3.79,-0.83,1.21,4.06
3.1316237449645996,2.35,0.18,1.28,2.68
3.14202880859375,1.6,0.07,2.03,2.58
3.152021884918213,1.47,-0.67,2.48,2.95
3.161953926086426,1.53,-0.87,3.11,3.57
3.171745777130127,1.55,-0.38,3.46,3.81
3.1816487312316895,0.85,0.05,2.15,2.31
3.191434860229492,0.24,0.25,0.45,0.56
3.222667694091797,0.15,0.31,-0.45,0.56
3.224336862564087,0.3,0.37,-1.18,1.27
3.2254929542541504,0.37,0.48,-1.84,1.93
3.2308619022369385,0.52,0.49,-2.0,2.12
3.241312026977539,0.78,0.11,-1.95,2.1
3.2510437965393066,1.04,-0.17,-2.25,2.48
3.2610929012298584,1.05,-0.29,-2.53,2.75
3.270901679992676,0.57,-0.39,-2.2,2.3
3.2809576988220215,-0.21,-0.2,-0.94,0.98
3.290822982788086,-1.06,0.01,0.26,1.09
3.3218798637390137,-1.6,0.03,0.85,1.81
3.3235738277435303,-1.46,0.03,0.66,1.6
3.324699878692627,-0.79,0.17,0.2,0.83
3.330612897872925,-0.31,0.33,0.1,0.46
3.340439796447754,-0.25,0.33,-0.05,0.41
3.350282907485962,-0.29,0.09,-0.17,0.34
3.360041856765747,-0.29,-0.07,-0.27,0.4
3.3701589107513428,-0.21,-0.05,-0.25,0.33
3.380280017852783,-0.26,0.03,-0.06,0.26
3.3902058601379395,-0.37,0.09,-0.07,0.38
3.4285998344421387,-0.19,-0.11,-0.29,0.36
3.430309772491455,0.03,-0.38,-0.08,0.38
3.4312949180603027,0.2,-0.47,0.0,0.51
3.4534077644348145,0.35,-0.31,-0.19,0.5
3.454429864883423,0.37,-0.06,-0.3,0.48
3.4671308994293213,0.34,0.16,-0.07,0.38
3.4686427116394043,0.32,0.29,0.08,0.43
3.4819207191467285,0.36,0.43,0.03,0.56
3.483386993408203,0.58,0.57,-0.16,0.82
3.499030828475952,0.56,0.57,-0.35,0.87
3.526057720184326,0.26,0.6,-0.47,0.8
3.5274338722229004,-0.08,0.64,-0.75,0.98
3.5284078121185303,-0.25,0.5,-0.91,1.06
3.5306618213653564,-0.49,0.37,-0.99,1.16
3.538794994354248,-0.73,0.35,-1.12,1.38
3.5490689277648926,-1.08,0.44,-1.13,1.62
3.558835029602051,-1.48,0.72,-1.08,1.96
3.5687708854675293,-1.9,1.26,-1.1,2.53
3.5788028240203857,-2.43,1.87,-1.06,3.24
3.5886008739471436,-2.79,2.19,-0.87,3.65
3.624769687652588,-2.65,2.11,-0.6,3.44
3.6264209747314453,-2.59,1.95,-0.54,3.28
3.627408027648926,-2.62,1.85,-0.78,3.3
3.629844903945923,-2.57,1.86,-1.12,3.36
3.6378989219665527,-2.55,1.79,-1.74,3.56
3.648268699645996,-2.54,1.72,-2.27,3.81
3.658127784729004,-2.55,2.02,-2.64,4.18
3.6679940223693848,-2.79,2.73,-3.27,5.09
3.678032875061035,-3.08,3.58,-3.96,6.16
3.6878647804260254,-3.46,4.21,-4.47,7.04
3.7244508266448975,-4.03,4.73,-4.65,7.76
3.726017951965332,-4.77,5.04,-4.71,8.38
3.726996898651123,-5.13,4.67,-4.65,8.35
3.729550838470459,-5.12,4.11,-4.5,7.95
3.750199794769287,-4.98,3.82,-4.15,7.52
3.751685857772827,-4.37,3.35,-3.76,6.66
3.7651209831237793,-3.22,2.89,-3.8,5.75
3.7670998573303223,-2.45,3.61,-4.54,6.29
3.7819108963012695,-2.47,5.35,-4.77,7.58
3.787144899368286,-2.33,6.83,-4.12,8.3
3.7989368438720703,0.1,8.62,-2.28,8.91
3.831049919128418,3.89,9.64,-1.69,10.53
3.8323678970336914,2.1,5.72,-4.14,7.36
3.833390712738037,-1.81,2.95,-5.66,6.63
3.8507838249206543,-4.95,1.26,-5.47,7.48
3.8522908687591553,-7.33,-0.84,-4.53,8.65
3.86666202545166,-7.69,-3.34,-3.68,9.15
3.8681328296661377,-2.1,-3.68,-2.14,4.74
3.8824520111083984,-0.24,-2.46,-1.08,2.69
3.8863229751586914,-4.38,-2.73,-1.66,5.42
3.8989598751068115,-8.3,-2.09,-2.32,8.86
3.9262919425964355,-10.49,-1.92,-1.96,10.84
3.9276700019836426,-10.42,-2.59,-1.04,10.78
3.928644895553589,-9.29,-3.36,-0.19,9.88
3.935694694519043,-8.01,-4.23,0.12,9.05
3.9460558891296387,-6.96,-4.97,-0.12,8.55
3.9559779167175293,-6.25,-4.94,-0.55,7.98
3.965765953063965,-5.88,-4.5,-0.91,7.46
3.9757018089294434,-5.76,-4.03,-1.1,7.11
3.9857850074768066,-5.78,-3.76,-1.16,6.99
3.9956560134887695,-5.75,-3.44,-1.04,6.78
4.0250067710876465,-5.48,-3.17,-0.83,6.38
4.0262370109558105,-5.06,-3.03,-0.5,5.91
4.027491807937622,-4.76,-2.76,0.07,5.5
4.035192966461182,-4.68,-2.07,1.01,5.21
4.050500869750977,-4.76,-1.19,1.17,5.04
4.055059909820557,-4.32,-0.3,0.17,4.33
4.065514802932739,-2.97,0.68,-1.08,3.23
4.075051784515381,-1.12,2.17,-1.6,2.91
4.084730863571167,0.71,3.91,-1.32,4.18
4.097636699676514,2.09,4.76,-1.21,5.33
4.1272807121276855,2.92,5.07,-0.81,5.9
4.128461837768555,3.49,5.27,-0.04,6.32
4.129447937011719,4.2,5.63,0.72,7.06
4.151017904281616,5.32,6.25,1.2,8.29
4.152519702911377,6.73,6.22,1.01,9.21
4.16668701171875,8.35,6.01,0.59,10.3
4.168154716491699,7.68,10.02,0.52,12.63
4.18255090713501,8.49,12.35,-0.35,14.99
4.184079885482788,16.73,4.25,-1.02,17.29
4.199052810668945,20.92,2.49,0.8,21.08
4.231082916259766,18.68,3.43,0.81,19.0
4.232794761657715,15.83,4.56,0.69,16.48
4.233804702758789,14.85,4.35,1.45,15.54
4.251107692718506,14.19,3.98,2.57,14.95
4.252598762512207,13.47,4.1,3.84,14.59
4.266783714294434,12.19,2.85,4.48,13.29
4.268270015716553,7.24,-1.52,1.83,7.62
4.282581806182861,-2.13,-2.87,-1.92,4.05
4.284032821655273,-8.37,0.53,-2.81,8.84
4.299026012420654,-5.52,5.29,0.81,7.68
4.332757949829102,-0.13,6.67,2.87,7.26
4.334033966064453,6.62,5.88,2.86,9.3
4.3350419998168945,10.37,-0.88,1.47,10.51
4.351085901260376,6.62,0.49,2.46,7.07
4.352547883987427,1.47,0.67,3.42,3.78
4.366801738739014,-0.54,-2.02,1.39,2.51
4.368246793746948,0.09,-2.14,0.05,2.14
4.38254189491272,2.25,-0.71,0.42,2.39
4.383998870849609,4.07,-0.03,1.26,4.26
4.399113893508911,3.47,-0.26,1.2,3.68
4.430165767669678,1.83,-0.41,0.41,1.91
4.431696891784668,1.28,0.08,0.26,1.3
4.432752847671509,1.44,-0.19,0.49,1.53
4.453057765960693,1.04,-0.43,0.46,1.21
4.454535961151123,0.2,-0.21,0.63,0.69
4.465292930603027,-0.41,0.16,-0.09,0.44
4.466726779937744,-0.44,0.24,-0.97,1.09
4.482935905456543,0.37,0.0,-1.11,1.17
4.484419822692871,1.32,-0.1,-0.74,1.51
4.498474836349487,1.31,-0.14,-0.53,1.42
4.527886867523193,0.75,-0.11,-0.34,0.83
4.529862880706787,0.33,-0.05,-0.01,0.33
4.531013011932373,0.04,0.02,0.2,0.2
4.551092863082886,0.05,0.08,0.23,0.24
4.552515983581543,0.1,0.2,0.23,0.32
4.566884994506836,0.01,0.32,0.33,0.45
4.568326950073242,-0.04,0.3,0.12,0.32
4.582433700561523,0.02,0.16,-0.1,0.18
4.583871841430664,0.2,0.09,-0.26,0.34
4.603129863739014,0.09,0.03,-0.73,0.73
4.608256816864014,-0.23,0.02,-0.93,0.95
4.638430833816528,-0.53,0.08,-0.87,1.02
4.640061855316162,-0.6,0.11,-0.9,1.08
4.641773700714111,-0.59,0.07,-0.53,0.79
4.64771580696106,-0.29,0.14,0.17,0.36
4.650247812271118,-0.17,0.09,-0.05,0.19
4.667146682739258,-0.14,0.17,-0.18,0.28
4.670435905456543,0.25,0.21,-0.07,0.33
4.68266487121582,0.58,0.08,-0.22,0.62
4.6902947425842285,0.38,-0.01,-0.45,0.58
4.700068950653076,0.01,0.05,-0.62,0.62
4.728878974914551,0.0,0.25,-0.51,0.56
4.730197906494141,0.21,0.33,-0.45,0.59
4.731179714202881,0.24,0.38,-0.62,0.76
4.751016855239868,0.04,0.54,-0.79,0.95
4.752503871917725,-0.28,0.59,-1.06,1.24
4.767101764678955,-0.5,0.6,-1.18,1.41
4.769640922546387,-0.8,0.61,-1.13,1.51
4.782678842544556,-1.32,0.76,-0.81,1.72
4.789674758911133,-1.95,1.2,-0.17,2.29
4.799304962158203,-2.52,1.75,-0.27,3.07
4.828348875045776,-3.04,2.06,-0.56,3.71
4.829756736755371,-3.29,2.13,-0.65,3.97
4.830745697021484,-3.32,2.19,-0.94,4.08
4.850989818572998,-3.1,2.41,-1.16,4.09
4.85241174697876,-2.93,2.51,-1.8,4.25
4.867076873779297,-2.88,2.68,-2.42,4.61
4.868913888931274,-3.21,2.98,-2.89,5.24
4.8826258182525635,-3.64,3.69,-3.18,6.08
4.888880729675293,-3.93,4.79,-3.58,7.15
4.898643970489502,-4.1,5.28,-4.35,7.97
4.93191385269165,-4.42,5.51,-4.59,8.42
4.9333577156066895,-5.19,6.09,-4.62,9.23
4.934352874755859,-5.79,5.99,-4.5,9.46
4.951521873474121,-6.04,5.28,-4.14,9.02
4.953016757965088,-5.49,4.16,-3.71,7.82
4.967113018035889,-4.45,3.38,-3.46,6.57
4.968606948852539,-3.0,2.91,-3.27,5.3
4.98270583152771,-2.02,2.87,-3.68,5.08
4.987950801849365,-1.33,4.4,-3.3,5.65
4.999013900756836,0.2,7.09,-2.06,7.38
5.040242910385132,3.48,9.69,-1.91,10.47
5.04204797744751,1.77,7.17,-4.55,8.67
5.043073892593384,-2.42,3.98,-5.54,7.23
5.046790838241577,-5.18,1.9,-4.91,7.38
5.047804832458496,-7.04,-0.49,-3.84,8.03
5.0674889087677,-8.13,-2.43,-3.06,9.02
5.068951845169067,-4.44,-3.52,-2.45,6.17
5.08272385597229,1.54,-2.04,-1.67,3.05
5.087279796600342,-0.05,-1.81,-1.69,2.47
5.098742961883545,-4.99,-1.52,-2.63,5.84
5.132375717163086,-8.92,-0.99,-3.09,9.49
5.1337080001831055,-10.51,-1.23,-2.49,10.87
5.134724855422974,-10.04,-1.63,-1.32,10.25
5.151721000671387,-8.52,-2.25,-0.31,8.81
5.1532158851623535,-7.03,-2.94,0.19,7.62
5.167159795761108,-6.07,-3.49,0.14,7.0
5.168651819229126,-5.69,-3.62,-0.23,6.74
5.1830198764801025,-5.5,-3.39,-0.52,6.48
5.186448812484741,-5.38,-3.14,-0.65,6.26
5.198784828186035,-5.21,-3.01,-0.63,6.04
5.233819961547852,-5.06,-2.96,-0.5,5.88
5.235127925872803,-5.06,-2.9,-0.31,5.84
5.2360429763793945,-5.16,-2.87,0.05,5.9
5.251039028167725,-5.26,-2.62,0.69,5.91
5.252094745635986,-5.64,-2.01,1.46,6.16
5.267247676849365,-5.93,-1.18,1.35,6.19
5.2686848640441895,-5.66,-0.38,0.44,5.68
5.282784938812256,-4.54,0.39,-0.62,4.59
5.285806894302368,-2.71,1.04,-1.06,3.09
5.298651695251465,-0.88,1.59,-0.32,1.84
5.331979751586914,0.14,1.75,0.87,1.95
5.333298683166504,0.4,1.79,1.85,2.6
5.334324836730957,0.76,2.35,2.47,3.49
5.351550817489624,1.55,3.17,2.73,4.46
5.352967739105225,2.59,3.91,2.95,5.54
5.367339849472046,3.66,4.43,2.86,6.41
5.36881685256958,4.79,4.77,2.45,7.19
5.382966995239258,6.02,5.21,1.9,8.18
5.385009765625,7.46,5.43,1.29,9.31
5.399077892303467,9.36,5.55,0.73,10.9
5.404995918273926,8.35,10.58,0.72,13.49
5.44680380821228,10.27,11.21,-1.27,15.25
5.447981834411621,18.11,5.19,-2.08,18.95
5.448997974395752,21.12,4.03,-0.53,21.5
5.467823028564453,19.39,4.15,-0.01,19.82
5.469338893890381,17.21,4.55,0.69,17.81
5.484264850616455,16.19,4.75,2.16,17.01
5.48575496673584,15.05,4.79,3.61,16.2
5.499123811721802,13.06,3.3,4.34,14.15
5.500593900680542,6.46,-1.46,1.71,6.84
5.515838861465454,-3.76,-1.84,-1.07,4.32
5.542506694793701,-7.76,1.57,0.09,7.91
5.543879985809326,-2.43,3.92,2.43,5.21
5.544933795928955,2.73,5.41,1.76,6.31
5.547362804412842,4.29,5.52,1.98,7.26
5.553565979003906,6.33,3.85,1.68,7.59
5.563737869262695,7.86,1.33,0.32,7.97
5.57352876663208,4.88,-0.69,0.23,4.93
5.583706855773926,1.35,0.11,1.89,2.32
5.593737840652466,-0.13,-0.51,1.7,1.77
5.603514909744263,0.45,-1.24,1.39,1.91
5.633080005645752,1.17,-1.0,1.06,1.86
5.634346961975098,1.19,-0.49,0.45,1.36
5.635325908660889,0.84,-0.15,-0.07,0.85
5.651772975921631,0.41,-0.11,-0.65,0.77
5.6527509689331055,0.12,-0.06,-0.94,0.94
5.667528867721558,0.25,0.31,-0.77,0.86
5.67289400100708,0.52,0.65,-0.34,0.89
5.6830549240112305,0.72,0.53,0.07,0.89
5.692941904067993,0.68,0.09,0.3,0.74
5.7027528285980225,0.45,-0.15,0.29,0.55
5.734989881515503,0.27,-0.1,0.11,0.3
5.736382961273193,0.14,0.01,-0.2,0.24
5.737401962280273,0.04,0.16,-0.39,0.42
5.75137186050415,0.08,0.23,-0.48,0.53
5.752401828765869,0.15,0.15,-0.46,0.5
5.767469882965088,0.19,0.04,-0.34,0.39
5.772174835205078,0.17,0.06,-0.27,0.32
5.78292179107666,0.06,0.02,-0.36,0.36
5.792104721069336,0.24,-0.15,-0.36,0.45
5.8019938468933105,0.51,-0.15,-0.14,0.54
5.839138984680176,0.34,-0.11,-0.11,0.37
5.840587854385376,0.03,-0.04,-0.11,0.12
5.8415207862854,-0.16,-0.04,0.01,0.16
5.851358890533447,-0.53,-0.04,0.1,0.54
5.852346897125244,-0.97,0.08,0.27,1.01
5.867518901824951,-1.22,0.1,0.3,1.26
5.871470928192139,-0.97,0.08,-0.04,0.97
5.881333827972412,-0.16,0.13,-0.39,0.44
5.891373872756958,0.63,0.09,-0.56,0.84
5.901233911514282,0.84,0.03,-0.29,0.88
5.939873695373535,0.56,0.0,-0.16,0.58
5.9412617683410645,-0.1,0.15,-0.31,0.35
5.942271709442139,-0.47,0.35,-0.29,0.65
5.951291799545288,-0.38,0.39,-0.24,0.59
5.952316761016846,-0.2,0.31,-0.26,0.45
5.967741966247559,-0.03,0.28,-0.47,0.54
5.970744848251343,0.02,0.35,-0.45,0.57
5.982059955596924,-0.07,0.37,-0.43,0.57
5.990377902984619,-0.26,0.36,-0.76,0.88
6.000467777252197,-0.43,0.42,-1.0,1.16
6.039712905883789,-0.75,0.52,-1.29,1.58
6.041109800338745,-1.04,0.65,-1.22,1.72
6.042127847671509,-1.12,0.68,-0.97,1.63
6.051511764526367,-1.28,0.48,-1.01,1.69
6.052560806274414,-1.56,0.41,-0.97,1.88
6.067842960357666,-1.57,0.73,-0.9,1.95
6.0698747634887695,-1.6,1.14,-0.63,2.06
6.083178997039795,-1.77,1.55,-0.81,2.48
6.0898778438568115,-2.34,2.04,-1.56,3.47
6.099617958068848,-2.99,2.57,-2.2,4.51
6.139554023742676,-2.74,3.01,-1.88,4.48
6.140944957733154,-2.65,3.06,-1.62,4.36
6.141960859298706,-2.88,3.2,-1.81,4.67
6.151413917541504,-3.23,3.48,-2.32,5.28
6.1524817943573,-3.63,3.96,-2.87,6.09
6.16788387298584,-4.05,4.49,-3.32,6.89
6.169369697570801,-4.63,5.16,-3.92,7.96
6.183316707611084,-5.38,6.01,-4.3,9.14
6.189172744750977,-6.24,6.31,-4.86,10.11
6.199181795120239,-6.59,5.65,-5.0,10.01
6.2090678215026855,-6.36,4.85,-5.06,9.46
6.243922710418701,-5.87,4.14,-4.96,8.72
6.245060920715332,-5.12,3.36,-4.56,7.63
6.24602484703064,-3.94,3.48,-4.25,6.75
6.2482428550720215,-3.46,4.54,-4.65,7.36
6.2583088874816895,-3.3,5.95,-4.94,8.4
6.268248796463013,-1.47,8.71,-3.58,9.53
6.27826189994812,2.85,11.31,-1.73,11.79
6.288355827331543,2.55,7.26,-2.42,8.06
6.298236846923828,-0.77,3.29,-4.33,5.49
6.308230876922607,-4.12,1.59,-5.65,7.17
6.341247797012329,-6.55,-0.64,-5.52,8.58
6.342609882354736,-7.26,-4.97,-5.42,10.33
6.343636989593506,-2.43,-4.93,-3.44,6.48
6.348053932189941,2.54,-1.96,-1.15,3.4
6.367272853851318,-0.07,-2.2,-1.47,2.64
6.368360996246338,-4.31,-2.13,-3.22,5.78
6.383283853530884,-7.41,-2.18,-3.8,8.6
6.387542724609375,-8.87,-2.64,-3.28,9.81
6.3991968631744385,-9.01,-3.04,-2.19,9.75
6.407497882843018,-8.37,-3.43,-1.06,9.1
6.442054748535156,-7.45,-3.92,-0.25,8.42
6.443253993988037,-6.73,-4.47,0.12,8.08
6.444489002227783,-6.42,-4.74,0.05,7.98
6.44809103012085,-6.21,-4.57,-0.07,7.71
6.467432022094727,-5.89,-4.39,-0.18,7.34
6.4685187339782715,-5.49,-4.23,-0.22,6.93
6.483442783355713,-5.17,-4.14,-0.19,6.62
6.486618995666504,-5.07,-4.18,-0.23,6.57
6.499467849731445,-5.28,-4.07,-0.24,6.67
6.50679087638855,-5.69,-3.72,0.13,6.79
6.544498920440674,-6.26,-3.13,0.82,7.04
6.545645713806152,-6.81,-2.3,1.3,7.3
6.546597957611084,-6.82,-1.21,0.83,6.97
6.548851013183594,-5.5,-0.18,-0.58,5.53
6.55610990524292,-2.91,0.71,-1.71,3.44
6.566391944885254,-0.08,1.71,-1.46,2.24
6.575893878936768,2.06,2.74,-0.39,3.45
6.5861287117004395,2.89,2.96,0.75,4.2
6.59614372253418,3.61,3.55,1.71,5.34
6.60599684715271,4.57,4.43,2.02,6.67
6.644097805023193,5.21,5.62,2.1,7.94
6.645431995391846,5.44,6.91,1.75,8.96
6.6464009284973145,6.06,7.73,0.85,9.85
6.6488237380981445,7.72,9.01,0.37,11.87
6.655526876449585,6.73,15.7,0.23,17.08
6.665109872817993,13.69,12.48,-1.96,18.62
6.6752238273620605,23.12,6.72,-1.02,24.09
6.686154842376709,23.93,5.29,0.9,24.52
6.6951258182525635,21.17,6.23,1.65,22.12
6.705320835113525,19.99,6.25,2.72,21.12
6.742665767669678,18.78,5.76,3.77,20.0
6.743996858596802,15.33,3.26,3.58,16.07
6.744991779327393,7.08,-1.99,-0.26,7.35
6.747344017028809,-3.94,-2.2,-3.09,5.46
6.767729759216309,-8.15,3.53,-0.77,8.91
6.768775939941406,-4.0,6.82,4.22,8.96
6.783512830734253,1.95,5.28,4.46,7.18
6.7849907875061035,8.1,-0.85,2.42,8.49
6.7996296882629395,8.7,-2.53,1.08,9.12
6.804317951202393,7.06,1.41,2.79,7.72
6.844299793243408,4.56,1.62,3.5,5.97
6.845485687255859,2.15,-1.03,1.98,3.09
6.846461772918701,1.15,-1.58,1.39,2.39
6.848485946655273,0.99,-0.82,1.15,1.72
6.853756904602051,1.39,-0.09,1.12,1.78
6.863863945007324,1.64,0.1,1.33,2.11
6.873902797698975,1.48,0.04,1.2,1.9
6.883592844009399,0.95,-0.08,0.51,1.08
6.893924713134766,0.24,-0.02,-0.57,0.61
6.903803825378418,0.01,0.15,-1.43,1.43
6.9405107498168945,0.29,0.34,-1.34,1.41
6.941851854324341,0.54,0.18,-0.59,0.81
6.942893981933594,0.54,0.05,-0.14,0.56
6.949517726898193,0.26,0.05,-0.35,0.43
6.953104019165039,0.0,0.05,-0.65,0.65
6.9672417640686035,-0.03,0.08,-0.78,0.78
6.973169803619385,0.03,0.13,-0.56,0.57
6.9832868576049805,-0.1,0.2,-0.18,0.28
6.992802858352661,-0.47,0.17,-0.1,0.5
7.002825736999512,-0.57,0.24,-0.08,0.62
7.013129711151123,-0.48,0.2,-0.21,0.56
7.044720888137817,-0.28,0.16,-0.57,0.65
7.045825004577637,-0.04,0.02,-0.82,0.82
7.046780824661255,0.1,-0.12,-0.81,0.82
7.052290916442871,0.15,-0.12,-0.63,0.65
7.062267780303955,0.24,-0.15,-0.16,0.32
7.07227087020874,0.31,-0.08,0.09,0.33
7.082274913787842,0.23,-0.12,0.1,0.27
7.092089891433716,-0.02,-0.2,0.05,0.2
7.102341890335083,-0.32,-0.19,0.0,0.37
7.112045764923096,-0.53,0.0,0.08,0.53
7.143293857574463,-0.4,0.2,0.01,0.44
7.144443988800049,0.03,0.28,-0.03,0.28
7.1457648277282715,0.5,0.17,0.0,0.52
7.1517229080200195,0.77,0.02,0.01,0.77
7.161494731903076,0.76,-0.08,-0.04,0.76
7.171530723571777,0.55,-0.06,-0.06,0.55
7.181612014770508,0.35,0.08,-0.12,0.37
7.191638946533203,0.23,0.18,-0.11,0.31
7.201525688171387,0.06,0.23,-0.17,0.29
7.211385726928711,0.01,0.32,-0.4,0.51
7.243736743927002,-0.19,0.43,-0.6,0.76
7.2449328899383545,-0.42,0.49,-0.73,0.97
7.246097803115845,-0.78,0.65,-0.95,1.39
7.250785827636719,-1.24,0.79,-1.1,1.83
7.260781764984131,-1.75,0.72,-1.22,2.25
7.270903825759888,-2.16,0.76,-1.27,2.61
7.2807838916778564,-2.33,0.97,-1.14,2.76
7.290890693664551,-2.44,1.24,-1.29,3.02
7.300729751586914,-2.72,1.54,-1.51,3.47
7.310589790344238,-3.0,2.11,-1.51,3.96
7.342742919921875,-3.13,2.66,-1.49,4.36
7.343935966491699,-2.5,3.02,-1.03,4.05
7.345143795013428,-2.22,3.31,-0.75,4.05
7.3500447273254395,-2.64,3.83,-1.34,4.84
7.367843866348267,-3.25,4.32,-2.52,5.96
7.369877815246582,-3.61,4.32,-3.59,6.67
7.383310794830322,-3.81,4.12,-4.05,6.92
7.389884948730469,-4.54,4.58,-4.49,7.85
7.399956703186035,-5.09,4.9,-4.48,8.36
7.40989875793457,-5.29,4.87,-3.83,8.14
7.449525833129883,-5.8,4.98,-3.64,8.46
7.450689792633057,-6.57,4.86,-3.72,8.97
7.451704978942871,-6.83,4.16,-3.46,8.71
7.468832969665527,-6.33,3.36,-3.38,7.92
7.469887733459473,-5.18,2.6,-3.59,6.81
7.484984874725342,-3.76,2.56,-3.9,5.99
7.4864678382873535,-3.54,4.15,-4.89,7.32
7.500300884246826,-3.55,6.95,-6.03,9.86
7.50177001953125,-2.71,9.5,-5.97,11.54
7.516734838485718,0.59,12.02,-3.28,12.47
7.545352935791016,2.01,10.31,-2.27,10.74
7.546720027923584,0.24,5.14,-3.65,6.3
7.547707796096802,-2.08,2.59,-5.7,6.59
7.56927490234375,-3.76,0.38,-7.21,8.14
7.570288896560669,-4.8,-3.98,-7.52,9.76
7.585109710693359,-4.28,-7.59,-7.0,11.17
7.5861639976501465,1.34,-4.41,-4.59,6.5
7.600522994995117,3.65,-2.43,-2.93,5.27
7.602015972137451,-1.31,-2.89,-3.92,5.04
7.616748809814453,-6.58,-3.0,-5.32,8.97
7.644911766052246,-10.25,-3.28,-4.89,11.82
7.646317005157471,-11.77,-3.42,-3.01,12.62
7.647298812866211,-11.6,-3.76,-0.79,12.21
7.6488938331604,-10.78,-4.49,0.89,11.71
7.657879829406738,-10.05,-4.98,1.8,11.35
7.667752742767334,-9.63,-4.87,1.97,10.96
7.677717685699463,-9.04,-4.59,1.73,10.28
7.687672853469849,-8.18,-4.79,1.25,9.56
7.697633743286133,-7.45,-5.07,0.91,9.05
7.707773685455322,-7.09,-4.91,0.96,8.67
7.7448530197143555,-7.06,-4.44,1.15,8.41
7.7462358474731445,-6.99,-3.61,1.35,7.98
7.747212886810303,-6.85,-2.73,1.13,7.46
7.749687910079956,-6.74,-1.47,0.11,6.89
7.757266998291016,-6.1,0.25,-1.48,6.28
7.7671799659729,-4.14,1.87,-2.6,5.23
7.777066707611084,-0.59,2.87,-2.69,3.97
7.786905765533447,3.04,3.61,-1.62,4.98
7.797180891036987,5.43,3.74,0.05,6.59
7.806995868682861,6.92,3.56,1.29,7.88
7.816934823989868,7.98,3.99,1.48,9.04
7.849396705627441,7.67,5.17,1.34,9.34
7.8505518436431885,6.8,7.09,1.15,9.89
7.85154390335083,7.2,8.02,0.55,10.79
7.868606805801392,6.54,13.36,0.16,14.87
7.869673728942871,9.5,14.92,-1.93,17.79
7.882465839385986,21.1,9.29,-0.96,23.07
7.886213779449463,25.91,6.82,1.63,26.84
7.898378849029541,23.19,6.5,1.41,24.12
7.906354904174805,19.57,6.58,1.73,20.71
7.916750907897949,17.14,5.59,3.22,18.31
7.948829889297485,14.64,4.6,4.56,16.0
7.950212001800537,11.15,0.82,3.16,11.61
7.951226711273193,2.96,-3.23,-1.18,4.53
7.968691825866699,-5.02,-0.37,-2.85,5.78
7.969757795333862,-4.34,7.28,1.87,8.67
7.984494686126709,2.0,8.34,4.89,9.87
7.985476970672607,7.72,-0.54,2.42,8.1
7.999758720397949,6.89,-4.11,-0.39,8.03
8.005428791046143,4.82,0.15,0.31,4.83
8.01594090461731,3.37,1.54,2.01,4.21
8.047983884811401,1.72,-1.0,1.94,2.77
8.049572944641113,0.95,-1.35,1.8,2.44
8.050605773925781,0.93,-0.4,1.81,2.07
8.068450927734375,1.81,-0.04,1.95,2.66
8.069495677947998,2.48,-0.04,2.34,3.4
8.085011005401611,1.89,-0.13,1.99,2.74
8.086380958557129,1.06,-0.09,0.85,1.36
8.100539684295654,0.51,-0.16,0.38,0.65
8.104650020599365,0.16,-0.01,-0.03,0.16
8.11699891090393,-0.21,0.25,0.0,0.32
8.14714789390564,-0.49,0.44,-0.41,0.77
8.148577690124512,-0.54,0.5,-1.13,1.34
8.149582862854004,0.0,0.44,-1.04,1.12
8.16878080368042,0.79,0.0,-0.73,1.07
8.169813871383667,1.07,-0.09,-0.73,1.29
8.185171842575073,0.67,0.07,-0.53,0.85
8.186646938323975,0.15,0.19,-0.5,0.55
8.200753688812256,0.11,0.23,-0.54,0.59
8.203850746154785,0.44,0.11,-0.23,0.5
8.21712589263916,0.58,0.03,-0.01,0.58
8.252939701080322,0.49,-0.02,0.09,0.49
8.254205703735352,0.4,0.02,0.26,0.47
8.255221843719482,0.36,0.09,0.32,0.49
8.269203901290894,0.32,0.03,0.07,0.32
8.270227909088135,0.39,-0.15,-0.33,0.53
8.284840822219849,0.53,-0.34,-0.49,0.79
8.28588080406189,0.61,-0.47,-0.47,0.9
8.300801753997803,0.53,-0.41,-0.52,0.84
8.302993774414062,0.25,-0.34,-0.35,0.54
8.31720495223999,0.01,-0.28,-0.2,0.34
8.352090835571289,-0.14,-0.27,0.0,0.3
8.353419780731201,-0.22,-0.06,0.28,0.36
8.354447841644287,-0.29,0.21,0.12,0.37
8.369151830673218,-0.33,0.16,-0.03,0.36
8.370219707489014,-0.21,0.11,-0.15,0.28
8.384982824325562,0.09,0.12,-0.33,0.36
8.386024951934814,0.3,0.09,-0.34,0.46
8.400688886642456,0.4,0.07,-0.23,0.46
8.402386903762817,0.28,0.15,-0.12,0.33
8.417080879211426,-0.08,0.28,-0.18,0.34
8.450394868850708,-0.26,0.54,-0.35,0.69
8.451809883117676,-0.3,0.74,-0.45,0.91
8.4528489112854,-0.39,0.84,-0.74,1.18
8.468961715698242,-0.74,0.94,-1.06,1.59
8.470033884048462,-1.22,1.07,-1.13,1.97
8.485382795333862,-1.94,1.33,-1.5,2.78
8.486865997314453,-2.22,1.69,-1.6,3.21
8.50065279006958,-2.3,1.87,-1.56,3.34
8.502124786376953,-2.68,1.95,-1.81,3.77
8.517212867736816,-3.23,2.22,-1.76,4.29
8.549884796142578,-3.68,2.64,-1.59,4.8
8.551354885101318,-3.88,2.97,-1.49,5.1
8.55236291885376,-3.85,3.33,-1.45,5.29
8.56899881362915,-3.79,3.49,-1.51,5.36
8.570027828216553,-3.84,3.64,-1.69,5.55
8.585550785064697,-3.99,3.99,-2.07,6.01
8.586980819702148,-3.99,4.21,-2.47,6.3
8.600814819335938,-4.18,4.35,-2.98,6.72
8.602278709411621,-4.67,4.81,-3.38,7.5
8.617641925811768,-5.34,5.16,-3.59,8.24
8.620718955993652,-5.87,5.26,-3.81,8.75
8.664566993713379,-6.15,5.01,-4.19,8.97
8.665712833404541,-6.05,4.42,-4.38,8.67
8.666732788085938,-5.39,3.97,-4.62,8.13
8.686039924621582,-4.1,3.47,-5.11,7.41
8.687079906463623,-4.06,4.02,-5.67,8.04
8.702099800109863,-4.92,5.98,-5.98,9.78
8.703580856323242,-4.68,7.55,-5.71,10.55
8.71796178817749,-1.59,10.36,-2.83,10.85
8.719452857971191,2.06,12.19,-0.42,12.36
8.733909845352173,1.33,7.6,-1.39,7.83
8.76413083076477,-2.06,3.87,-4.1,6.0
8.76559591293335,-4.9,2.34,-5.52,7.74
8.766601800918579,-6.77,-1.27,-6.03,9.15
8.785868883132935,-6.77,-6.45,-5.86,11.03
8.786865711212158,-0.55,-4.87,-2.74,5.61
8.801967859268188,4.16,-1.85,0.16,4.55
8.803478717803955,0.7,-2.78,-1.21,3.11
8.817828893661499,-4.32,-3.14,-3.23,6.24
8.819310903549194,-7.66,-3.51,-3.61,9.16
8.833663940429688,-8.86,-3.82,-2.76,10.03
8.863426685333252,-8.61,-3.86,-1.46,9.54
8.864827871322632,-7.51,-4.37,-0.45,8.7
8.865826845169067,-6.37,-5.43,-0.01,8.37
8.885909795761108,-6.0,-5.99,-0.13,8.47
8.886948823928833,-6.21,-5.72,-0.55,8.46
8.90210771560669,-6.3,-5.07,-0.89,8.13
8.903596878051758,-6.08,-4.57,-1.06,7.67
8.917772769927979,-5.66,-4.21,-1.0,7.12
8.919227838516235,-5.27,-3.85,-0.68,6.56
8.933716773986816,-4.97,-3.5,-0.22,6.08
8.962246894836426,-4.74,-3.13,0.28,5.68
8.963656902313232,-4.54,-2.75,0.9,5.38
8.964614868164062,-4.35,-2.3,1.31,5.09
8.985925674438477,-4.22,-1.76,0.75,4.63
8.98701000213623,-3.96,-0.92,-0.57,4.1
9.001848697662354,-3.42,0.27,-1.71,3.83
9.002892017364502,-2.18,1.82,-1.57,3.24
9.018013954162598,-0.68,3.09,-0.52,3.2
9.019475936889648,0.46,3.43,0.24,3.46
9.033933877944946,1.51,3.63,0.65,3.98
9.061855792999268,3.17,4.57,0.82,5.62
9.063308715820312,5.05,5.47,0.83,7.49
9.06427788734436,6.6,5.96,0.79,8.92
9.06668996810913,7.36,6.31,0.6,9.71
9.068140983581543,7.67,6.61,0.44,10.13
9.076932907104492,8.59,6.31,0.84,10.69
9.087281703948975,10.31,5.36,1.57,11.72
9.097096920013428,9.88,7.94,2.08,12.84
9.10706090927124,9.32,10.74,1.7,14.32
9.116972923278809,14.51,6.1,2.13,15.88
9.151798725128174,16.17,3.62,3.94,17.03
9.152854919433594,14.69,2.74,4.72,15.67
9.153682708740234,13.66,4.41,5.16,15.25
9.16927194595337,13.89,6.43,5.82,16.37
9.170332908630371,14.24,7.23,6.02,17.06
9.185486793518066,11.72,3.15,3.77,12.7
9.186538696289062,2.52,-2.57,-1.63,3.95
9.200981855392456,-6.18,0.51,-3.52,7.13
9.206111907958984,-4.43,7.47,1.32,8.78
9.217808723449707,1.59,7.58,3.87,8.65
9.252343893051147,5.06,4.01,3.12,7.17
9.25373387336731,8.35,1.14,1.2,8.51
9.254774808883667,7.95,-0.9,-1.07,8.07
9.269410848617554,4.12,1.61,0.79,4.49
9.270461797714233,1.79,0.55,2.62,3.22
9.28558874130249,1.91,-1.66,2.0,3.22
9.286511898040771,2.94,-2.03,1.77,3.98
9.30112886428833,3.24,-1.18,1.85,3.91
9.305669784545898,2.62,0.06,1.66,3.1
9.317477703094482,1.21,0.32,1.22,1.74
9.352421760559082,0.03,-0.23,0.99,1.01
9.353768825531006,-0.12,0.05,0.36,0.38
9.354772806167603,-0.15,0.25,-0.72,0.77
9.369845867156982,0.08,0.23,-0.86,0.89
9.370916843414307,0.48,0.13,-0.37,0.61
9.385568857192993,0.81,0.05,0.02,0.81
9.386576890945435,0.65,-0.01,-0.24,0.69
9.400850772857666,0.44,-0.05,-0.85,0.95
9.404560804367065,0.52,0.1,-1.16,1.27
9.417435884475708,0.7,0.33,-1.11,1.35
9.424693822860718,0.55,0.26,-0.89,1.07
9.46013069152832,0.06,0.03,-0.58,0.58
9.461301803588867,-0.56,0.03,-0.15,0.58
9.462318897247314,-0.9,0.19,0.23,0.94
9.465834856033325,-0.83,0.28,0.1,0.88
9.485370874404907,-0.54,0.2,-0.29,0.64
9.486384868621826,-0.08,0.07,-0.66,0.66
9.501245021820068,0.32,0.05,-0.44,0.54
9.50403881072998,0.56,0.0,-0.13,0.57
9.518948793411255,0.65,-0.15,-0.05,0.66
9.524289846420288,0.65,-0.14,-0.01,0.66
9.563107013702393,0.49,-0.04,-0.11,0.5
9.564271926879883,0.29,-0.02,-0.22,0.36
9.565258979797363,0.13,-0.05,-0.29,0.32
9.586447715759277,-0.05,-0.12,0.03,0.13
9.587486743927002,-0.2,-0.04,0.06,0.21
9.602263927459717,-0.34,0.02,0.01,0.34
9.603296756744385,-0.43,0.18,-0.06,0.47
9.618147850036621,-0.28,0.3,-0.15,0.43
9.619633674621582,0.05,0.16,-0.08,0.18
9.634370803833008,0.18,-0.04,-0.12,0.22
9.66203784942627,0.18,-0.1,0.0,0.2
9.663359880447388,0.23,-0.03,0.06,0.23
9.664330959320068,0.14,0.06,-0.13,0.2
9.6665678024292,-0.11,0.1,-0.33,0.36
9.67262077331543,-0.32,0.17,-0.45,0.57
9.682628870010376,-0.51,0.33,-0.7,0.92
9.692566871643066,-0.58,0.45,-0.96,1.2
9.702493906021118,-0.63,0.38,-1.0,1.24
9.712625980377197,-0.89,0.42,-0.89,1.32
9.722151756286621,-1.28,0.52,-0.86,1.62
9.74519681930542,-1.69,0.67,-0.85,2.0
9.746600866317749,-2.14,0.93,-1.14,2.59
9.752248764038086,-2.53,1.15,-1.64,3.22
9.762225866317749,-2.92,1.37,-1.81,3.69
9.772171020507812,-3.12,1.8,-2.09,4.16
9.782317876815796,-3.48,2.62,-2.29,4.92
9.792155742645264,-2.78,3.39,-1.43,4.61
9.802048683166504,-2.47,3.11,-1.29,4.17
9.811981678009033,-2.63,3.21,-1.21,4.32
9.82180380821228,-2.8,3.47,-1.23,4.62
9.861224889755249,-3.09,3.54,-1.61,4.96
9.8625009059906,-3.1,3.66,-2.06,5.22
9.863476753234863,-3.23,3.79,-2.38,5.51
9.865802764892578,-3.78,4.38,-2.97,6.5
9.871203899383545,-4.5,5.03,-3.54,7.62
9.881266832351685,-5.06,5.05,-3.76,8.07
9.891544818878174,-5.47,4.94,-4.1,8.43
9.90132999420166,-5.43,4.31,-4.26,8.13
9.911253929138184,-5.15,3.87,-4.1,7.63
9.921218872070312,-4.58,3.47,-4.09,7.05
9.960232734680176,-3.56,2.92,-4.64,6.53
9.9614896774292,-3.54,3.85,-5.4,7.51
9.962477684020996,-4.12,6.09,-5.92,9.43
9.965997695922852,-3.94,7.49,-5.87,10.29
9.985958814620972,-1.5,9.34,-3.01,9.92
9.986992835998535,1.91,10.64,-0.27,10.81
10.0011568069458,1.47,6.74,-0.45,6.91
10.002652883529663,-1.57,3.34,-2.91,4.69
10.017867803573608,-4.18,2.27,-4.77,6.73
10.020289897918701,-5.86,-0.23,-5.87,8.29
10.062206745147705,-6.34,-5.41,-6.15,10.35
10.06338882446289,-1.84,-5.67,-3.93,7.13
10.064356803894043,3.07,-1.6,-1.08,3.62
10.066017866134644,-0.01,-1.8,-1.49,2.33
10.069575786590576,-4.42,-2.57,-3.02,5.93
10.079498767852783,-7.49,-2.92,-3.29,8.68
10.08945894241333,-8.76,-3.35,-2.51,9.7
10.099670886993408,-9.21,-4.07,-1.28,10.15
10.109777927398682,-9.23,-4.92,-0.15,10.46
10.119813919067383,-9.16,-5.63,0.28,10.75
10.155906677246094,-9.31,-5.64,0.16,10.88
10.15712285041809,-9.21,-4.63,0.33,10.31
10.15819787979126,-8.77,-3.55,0.51,9.47
10.168876886367798,-7.73,-3.21,0.11,8.37
10.169882774353027,-6.02,-3.3,-0.32,6.87
10.185898780822754,-4.51,-3.19,-0.33,5.53
10.18871784210205,-3.84,-2.87,-0.53,4.82
10.201605796813965,-3.48,-2.36,-0.94,4.3
10.209027767181396,-3.1,-1.77,-1.08,3.72
10.218689918518066,-2.43,-1.37,-0.95,2.94
10.228832721710205,-1.69,-1.27,-0.91,2.3
10.259432792663574,-1.25,-1.02,-0.81,1.8
10.260607719421387,-0.51,-0.28,-0.49,0.76
10.261841773986816,0.62,0.75,0.06,0.97
10.268144845962524,1.58,1.65,0.71,2.39
10.278173923492432,1.82,2.24,1.33,3.17
10.2881498336792,1.69,3.13,1.94,4.05
10.298168897628784,1.88,4.32,2.45,5.31
10.30802297592163,2.54,5.4,1.81,6.23
10.318569898605347,3.69,6.61,0.87,7.62
10.328293800354004,5.96,7.59,0.43,9.65
10.359257698059082,9.02,7.45,-0.16,11.69
10.360432863235474,11.39,7.02,-0.63,13.39
10.36168885231018,9.48,11.79,-0.71,15.14
10.367368698120117,12.36,8.94,-1.79,15.35
10.377566814422607,18.16,5.4,0.12,18.94
10.387251853942871,17.77,3.55,2.99,18.36
10.39746379852295,14.78,2.68,4.29,15.62
10.407388687133789,12.89,3.86,5.48,14.52
10.41753101348877,12.6,5.62,5.93,15.01
10.427295684814453,13.45,6.33,5.93,16.0
10.45842981338501,13.41,3.91,4.43,14.65
10.459702014923096,6.6,-1.7,-1.16,6.91
10.460711002349854,-3.63,0.47,-4.78,6.02
10.467429876327515,-6.06,8.29,-1.17,10.33
10.476788997650146,-0.72,9.79,3.88,10.55
10.486585855484009,5.31,4.28,3.26,7.55
10.496660709381104,8.7,-2.78,0.84,9.17
10.50690484046936,7.38,-2.82,0.05,7.9
10.516862869262695,4.74,0.42,1.98,5.15
10.526691913604736,3.03,0.09,2.24,3.76
10.559457778930664,2.41,-1.35,1.79,3.29
10.560858726501465,2.23,-1.39,1.89,3.23
10.561896800994873,2.32,-0.67,1.98,3.12
10.567370891571045,2.51,0.17,1.85,3.12
10.586074829101562,2.13,0.08,0.92,2.32
10.58713984489441,1.28,-0.13,-0.62,1.42
10.60172176361084,0.1,0.26,-1.34,1.36
10.605899810791016,-0.99,0.47,-1.11,1.55
10.618026733398438,-1.33,0.37,-0.53,1.47
10.625930786132812,-1.14,0.18,-0.13,1.16
10.664561748504639,-0.9,0.04,-0.08,0.9
10.665757894515991,-0.8,0.01,-0.31,0.85
10.666769981384277,-0.7,0.06,-0.68,0.97
10.686824798583984,-0.35,0.07,-0.94,1.0
10.687866687774658,0.09,0.04,-0.9,0.9
10.701576709747314,0.25,0.03,-0.57,0.62
10.703059911727905,0.1,0.07,-0.07,0.14
10.718597888946533,-0.04,0.0,0.15,0.15
10.7200767993927,-0.12,-0.02,0.03,0.12
10.73464298248291,0.12,-0.02,0.1,0.15
10.764106750488281,0.63,-0.12,0.23,0.68
10.76549768447876,0.92,-0.08,0.34,0.98
10.766520977020264,0.85,-0.07,0.16,0.86
10.786850929260254,0.74,-0.04,-0.07,0.74
10.787933826446533,0.79,0.04,-0.17,0.8
10.803253889083862,0.67,-0.15,-0.24,0.72
10.804773807525635,0.31,-0.23,-0.15,0.41
10.818635940551758,0.21,-0.12,0.16,0.28
10.820137977600098,0.47,-0.11,0.53,0.71
10.834831714630127,0.74,-0.11,0.68,1.01
10.862255811691284,0.75,-0.2,0.49,0.91
10.863643884658813,0.65,-0.23,0.34,0.76
10.864692687988281,0.56,-0.06,0.19,0.59
10.866881847381592,0.52,0.05,-0.03,0.52
10.873573780059814,0.37,0.09,-0.02,0.38
10.88396167755127,-0.05,0.06,-0.06,0.09
10.893671989440918,-0.47,0.08,-0.2,0.51
10.903656959533691,-0.7,0.28,-0.41,0.85
10.913449764251709,-0.89,0.43,-0.72,1.22
10.923527717590332,-1.1,0.62,-0.95,1.58
10.961562871932983,-1.25,0.72,-1.21,1.88
10.962983846664429,-1.37,0.63,-1.31,1.99
10.963927745819092,-1.45,0.58,-1.27,2.01
10.966359853744507,-1.48,0.66,-1.35,2.1
10.972827911376953,-1.47,0.78,-1.34,2.13
10.983024835586548,-1.4,0.82,-1.05,1.93
10.992905855178833,-1.54,0.9,-0.98,2.03
11.002945899963379,-1.67,0.95,-1.3,2.31
11.012879848480225,-1.88,0.76,-1.73,2.66
11.022779941558838,-2.05,0.9,-2.27,3.18
11.032866954803467,-2.14,1.38,-2.57,3.61
11.065470695495605,-2.43,2.26,-2.17,3.96
11.066648006439209,-2.74,3.6,-1.75,4.85
11.06762981414795,-2.72,3.79,-2.07,5.1
11.08687973022461,-2.82,4.25,-1.46,5.3
11.087955951690674,-3.42,4.33,-1.86,5.82
11.102936744689941,-3.57,4.11,-2.09,5.83
11.104407787322998,-3.47,4.03,-2.19,5.75
11.118843793869019,-3.72,4.32,-2.58,6.25
11.12193489074707,-3.99,4.49,-2.66,6.56
11.134690761566162,-4.0,4.09,-2.73,6.33
11.163850784301758,-4.16,3.88,-2.94,6.4
11.16524076461792,-4.4,3.72,-3.17,6.57
11.166249752044678,-4.27,3.5,-3.28,6.42
11.187088966369629,-3.76,2.87,-3.66,5.98
11.188078880310059,-3.4,2.66,-4.35,6.12
11.202956676483154,-3.64,3.71,-5.01,7.21
11.20402193069458,-4.29,5.44,-5.61,8.91
11.218984842300415,-4.82,6.1,-5.58,9.56
11.221162796020508,-3.56,6.18,-3.88,8.11
11.235015869140625,0.78,8.85,-0.78,8.91
11.263858795166016,3.48,9.27,-0.05,9.9
11.265169858932495,1.48,4.73,-1.49,5.17
11.266175746917725,-2.01,2.23,-3.86,4.89
11.287115812301636,-4.49,0.39,-4.82,6.59
11.288172721862793,-6.19,-2.53,-5.38,8.58
11.303071975708008,-6.15,-5.98,-5.08,9.96
11.30448579788208,-0.22,-3.94,-2.36,4.59
11.319095849990845,1.92,-2.04,-0.62,2.86
11.320519924163818,-2.15,-2.48,-1.78,3.73
11.335083961486816,-6.15,-2.39,-3.05,7.26
11.365408897399902,-8.7,-2.44,-2.86,9.47
11.36672592163086,-9.3,-2.7,-1.73,9.83
11.367734909057617,-8.78,-3.09,-0.55,9.32
11.386960983276367,-7.79,-3.96,0.12,8.73
11.387988805770874,-7.01,-4.91,0.23,8.56
11.403576850891113,-6.61,-5.08,-0.08,8.33
11.405016899108887,-6.33,-4.7,-0.29,7.88
11.418911933898926,-5.93,-4.13,-0.33,7.23
11.420348882675171,-5.55,-3.83,-0.28,6.74
11.434783935546875,-5.38,-3.84,-0.07,6.61
11.467923879623413,-5.42,-3.63,0.32,6.53
11.469371795654297,-5.66,-3.19,0.59,6.52
11.470374822616577,-5.99,-2.71,0.26,6.57
11.489192962646484,-5.77,-1.74,-0.53,6.04
11.49019193649292,-4.45,-0.71,-1.09,4.63
11.50369381904602,-2.48,-0.11,-1.27,2.78
11.505171775817871,-0.97,0.29,-1.08,1.48
11.519165992736816,-0.59,0.69,-0.27,0.94
11.52065372467041,-0.77,1.41,0.92,1.85
11.535058975219727,-0.8,2.39,1.96,3.19
11.568904876708984,-0.86,2.98,2.4,3.92
11.570219993591309,-0.39,3.91,2.43,4.62
11.571233749389648,0.89,5.11,2.41,5.71
11.587177753448486,2.29,5.72,1.54,6.35
11.588275909423828,3.93,6.39,0.43,7.51
11.603116989135742,6.22,6.79,-0.42,9.21
11.60460376739502,8.94,6.67,-1.22,11.22
11.618908882141113,11.75,6.52,-2.06,13.59
11.620378017425537,13.55,5.55,-3.41,15.03
11.635079860687256,12.98,6.28,-3.02,14.73
11.667473793029785,11.09,10.02,-1.51,15.02
11.668787956237793,16.23,3.33,-2.15,16.7
11.6697998046875,18.66,2.21,-0.41,18.79
11.687429904937744,16.23,2.54,0.85,16.44
11.688469886779785,13.72,2.8,1.51,14.08
11.703579902648926,12.02,3.42,2.83,12.81
11.705061912536621,10.86,3.73,4.08,12.18
11.71827483177185,9.47,4.08,5.08,11.49
11.719757795333862,6.55,2.05,3.92,7.9
11.735116004943848,-1.55,-1.1,0.07,1.9
11.766958713531494,-9.26,0.51,-2.13,9.51
11.76830768585205,-6.8,4.88,0.27,8.37
11.769361019134521,1.33,6.19,0.81,6.38
11.787327766418457,4.56,3.4,0.6,5.71
11.78838300704956,6.01,1.82,0.95,6.35
11.803748846054077,6.84,-0.25,0.57,6.86
11.805185794830322,4.64,0.22,0.81,4.71
11.818922996520996,2.84,-0.73,1.97,3.53
11.82037878036499,1.87,-2.04,2.0,3.41
11.835115909576416,1.85,-1.43,1.6,2.83
11.836591720581055,2.25,-0.01,1.09,2.5
11.883594989776611,2.68,0.74,0.76,2.88
11.884792804718018,2.57,0.27,0.32,2.6
11.885797023773193,1.95,-0.51,0.12,2.01
11.903698921203613,1.3,-0.4,1.09,1.74
11.904735803604126,0.29,-0.03,1.54,1.56
11.920154809951782,-0.55,0.2,0.99,1.15
11.921624898910522,-0.78,0.24,0.39,0.9
11.93564486503601,-0.52,0.21,-0.12,0.57
11.937144756317139,-0.3,0.2,-0.76,0.84
11.952141761779785,-0.2,0.19,-1.44,1.46
11.98386001586914,0.2,0.13,-1.97,1.98
11.985254764556885,1.11,0.05,-1.65,1.98
11.986153841018677,1.45,-0.18,-1.22,1.9
12.004065990447998,1.0,-0.22,-0.65,1.21
12.005114793777466,0.39,-0.05,0.18,0.43
12.020477771759033,-0.26,0.23,0.76,0.83
12.0219087600708,-0.61,0.38,0.97,1.2
12.035492897033691,-0.31,0.43,0.88,1.02
12.036935806274414,0.12,0.29,0.75,0.81
12.052242755889893,0.38,0.06,0.35,0.52
12.082051753997803,0.69,-0.07,0.06,0.69
12.083406925201416,1.1,0.11,0.07,1.1
12.084414005279541,0.91,0.2,-0.33,0.98
12.103709697723389,0.54,0.17,-0.51,0.76
12.104765892028809,0.45,0.07,-0.44,0.63
12.120154857635498,0.46,-0.18,-0.32,0.58
12.121170997619629,0.42,-0.33,-0.01,0.53
12.135556697845459,0.23,-0.19,-0.07,0.3
12.137003898620605,0.03,-0.06,-0.22,0.23
12.152091026306152,0.02,-0.07,-0.13,0.14
12.179969787597656,0.2,-0.15,-0.07,0.25
12.181317806243896,0.42,-0.26,-0.15,0.51
12.182288885116577,0.47,-0.29,-0.22,0.59
12.184646844863892,0.4,-0.02,-0.34,0.52
12.186018943786621,0.23,0.11,-0.41,0.48
12.193484783172607,0.04,0.14,-0.36,0.38
12.203888893127441,-0.14,0.2,-0.28,0.37
12.213594913482666,-0.42,0.1,-0.19,0.47
12.223618984222412,-0.67,-0.01,-0.25,0.71
12.233924865722656,-0.81,0.07,-0.27,0.85
12.269377708435059,-0.99,0.31,-0.37,1.1
12.270548820495605,-1.11,0.54,-0.56,1.35
12.271547794342041,-1.34,0.53,-0.78,1.63
12.287531852722168,-1.78,0.51,-0.93,2.07
12.288603782653809,-2.01,0.73,-0.8,2.28
12.303422927856445,-1.84,1.09,-0.82,2.29
12.304383754730225,-1.78,1.37,-1.0,2.45
12.319142818450928,-2.04,1.45,-1.21,2.77
12.322625875473022,-2.25,1.47,-1.37,3.01
12.335373878479004,-2.36,1.38,-1.6,3.16
12.370572805404663,-2.32,1.47,-2.08,3.44
12.371910810470581,-2.62,2.17,-2.72,4.35
12.372923851013184,-2.24,3.24,-2.01,4.42
12.387802839279175,-2.05,3.52,-1.8,4.45
12.3888418674469,-2.58,3.8,-1.9,4.97
12.403116703033447,-3.17,4.12,-2.07,5.59
12.404148817062378,-3.53,4.33,-2.36,6.06
12.419398784637451,-4.07,4.62,-2.8,6.76
12.422146797180176,-4.85,5.18,-3.05,7.72
12.435309886932373,-5.33,5.32,-3.27,8.21
12.469693899154663,-5.63,4.9,-3.64,8.3
12.471197843551636,-5.67,4.38,-3.32,7.89
12.472257852554321,-5.27,3.79,-3.38,7.31
12.488086700439453,-4.56,3.04,-3.75,6.64
12.489151000976562,-3.48,2.55,-3.5,5.55
12.503236770629883,-3.08,3.23,-3.9,5.92
12.504220962524414,-3.64,4.98,-4.63,7.71
12.519838809967041,-3.72,6.83,-5.17,9.33
12.521337985992432,-2.55,7.95,-4.5,9.48
12.535417795181274,1.07,9.79,-1.58,9.97
12.569253921508789,2.39,8.24,-1.14,8.65
12.570587873458862,0.54,4.76,-2.86,5.57
12.571623802185059,-1.87,2.93,-4.88,5.99
12.58781385421753,-3.66,1.2,-5.25,6.51
12.588864803314209,-5.54,-0.88,-5.09,7.57
12.603507995605469,-6.17,-5.57,-5.3,9.85
12.604578018188477,-1.13,-4.99,-3.43,6.15
12.619422912597656,2.42,-1.83,-0.98,3.18
12.620949745178223,-0.65,-3.03,-1.74,3.55
12.635562896728516,-5.08,-3.79,-3.38,7.18
12.640565872192383,-8.47,-4.08,-3.94,10.19
12.684908866882324,-10.14,-4.44,-3.35,11.56
12.686022758483887,-10.56,-4.51,-2.01,11.65
12.687042713165283,-10.04,-4.56,-0.51,11.03
12.704578876495361,-9.08,-4.89,0.75,10.34
12.705638885498047,-8.33,-5.35,1.29,9.98
12.720874786376953,-7.94,-5.52,1.24,9.74
12.722400903701782,-7.69,-5.23,1.07,9.36
12.736053943634033,-7.32,-4.56,0.89,8.66
12.737537860870361,-6.78,-4.18,0.76,8.0
12.752405881881714,-6.4,-4.22,0.7,7.69
12.783689022064209,-6.22,-3.95,0.65,7.39
12.784921884536743,-6.28,-3.26,0.39,7.08
12.785889863967896,-6.4,-2.21,-0.35,6.77
12.80445384979248,-5.74,-0.94,-1.26,5.95
12.805521011352539,-3.91,0.04,-2.01,4.39
12.82033085823059,-1.17,0.84,-2.61,2.98
12.821359872817993,1.76,2.16,-2.73,3.9
12.836071014404297,3.96,3.73,-2.55,6.0
12.83751392364502,4.56,4.49,-2.28,6.79
12.85237979888916,3.75,4.34,-1.51,5.93
12.88336181640625,3.42,5.24,-0.69,6.29
12.884784698486328,4.1,6.49,-0.2,7.67
12.88578486442566,5.04,7.29,0.36,8.86
12.903990745544434,5.84,7.53,0.62,9.54
12.905036926269531,6.86,7.5,0.61,10.18
12.920385837554932,7.9,7.24,0.35,10.72
12.921418905258179,6.22,11.79,0.33,13.33
12.936083793640137,9.08,8.36,-0.3,12.34
12.937481880187988,15.31,3.57,1.28,15.77
12.952536821365356,16.54,2.97,2.87,17.04
12.982098817825317,14.42,3.87,2.56,15.14
12.983527898788452,12.54,4.11,2.65,13.45
12.984500885009766,11.45,4.07,3.18,12.56
13.004812717437744,10.71,4.22,3.65,12.07
13.005851745605469,9.79,3.44,4.02,11.12
13.020752906799316,8.2,2.99,4.75,9.93
13.021805763244629,6.33,2.87,5.48,8.85
13.036359786987305,3.36,0.73,4.23,5.45
13.037818908691406,-2.17,-2.01,1.26,3.21
13.052635908126831,-6.74,-2.97,-1.06,7.44
13.083395957946777,-4.48,-1.91,-0.95,4.96
13.084704875946045,2.4,0.12,-0.82,2.53
13.085722923278809,5.32,4.12,0.16,6.73
13.104521751403809,7.68,8.05,1.14,11.18
13.105556011199951,9.84,2.82,-0.81,10.26
13.12048888206482,6.81,2.89,-0.48,7.41
13.121551990509033,4.27,1.29,0.77,4.52
13.136196851730347,2.38,-1.78,1.62,3.38
13.13766098022461,1.68,-2.33,2.15,3.58
13.152516841888428,1.33,-1.24,1.83,2.57
13.183024883270264,0.74,-0.21,1.77,1.92
13.18435287475586,0.65,-0.15,2.24,2.33
13.185415744781494,0.95,-0.3,2.1,2.32
13.204248905181885,0.96,-0.52,1.77,2.07
13.205310821533203,0.98,-0.41,1.55,1.87
13.220643997192383,0.97,-0.1,1.15,1.5
13.221665859222412,0.74,0.12,0.73,1.04
13.23627781867981,0.1,0.15,-0.03,0.18
13.237727880477905,-0.34,0.1,-1.0,1.06
13.252711772918701,-0.21,0.1,-1.53,1.54
13.282815933227539,0.22,0.03,-1.92,1.93
13.284199714660645,0.69,-0.02,-1.97,2.08
13.28507375717163,0.96,-0.04,-1.47,1.75
13.304394721984863,0.69,-0.06,-0.94,1.16
13.305420875549316,0.08,0.06,-0.28,0.29
13.320803880691528,-0.48,0.12,0.46,0.67
13.321854829788208,-0.61,0.21,0.66,0.92
13.33594274520874,-0.34,0.29,0.79,0.9
13.336989879608154,0.11,0.29,0.62,0.69
13.35261583328247,0.43,0.21,0.1,0.48
13.38117790222168,0.6,0.17,-0.07,0.62
13.382575988769531,0.67,0.06,-0.32,0.74
13.383577823638916,0.58,-0.05,-0.48,0.75
13.404376983642578,0.46,-0.04,-0.45,0.64
13.405423879623413,0.34,-0.01,-0.51,0.61
13.419672966003418,0.15,-0.02,-0.69,0.7
13.420685768127441,0.05,0.06,-0.47,0.47
13.435828685760498,0.01,0.09,-0.1,0.13
13.436842918395996,0.06,-0.04,0.17,0.18
13.45364785194397,0.07,-0.14,0.47,0.49
13.455098867416382,-0.04,-0.1,0.27,0.29
13.500253677368164,-0.1,0.04,-0.02,0.1
13.501393795013428,-0.01,0.13,-0.13,0.18
13.502418994903564,0.17,0.11,-0.19,0.27
13.521426677703857,0.31,-0.04,-0.19,0.36
13.522397994995117,0.34,-0.1,-0.12,0.37
13.537327766418457,0.46,-0.05,0.06,0.46
13.538809776306152,0.56,0.11,0.04,0.57
13.553215980529785,0.62,0.3,-0.11,0.69
13.554694890975952,0.61,0.34,-0.15,0.71
13.569240808486938,0.51,0.29,0.03,0.58
13.599424839019775,0.13,0.18,0.24,0.32
13.600788831710815,-0.46,0.16,0.01,0.48
13.601812839508057,-0.88,0.2,-0.29,0.94
13.621420860290527,-1.1,0.29,-0.63,1.3
13.622460842132568,-1.05,0.52,-0.9,1.47
13.637120723724365,-1.19,0.82,-1.2,1.87
13.638114929199219,-1.5,1.06,-1.49,2.36
13.653300762176514,-1.74,1.32,-1.21,2.49
13.654723882675171,-2.07,1.47,-1.24,2.82
13.669373989105225,-2.57,1.53,-1.62,3.4
13.697253704071045,-2.99,1.76,-2.02,4.01
13.698625802993774,-3.27,2.06,-2.42,4.55
13.69941782951355,-3.31,2.33,-2.51,4.76
13.701575756072998,-3.15,2.73,-2.32,4.77
13.702791690826416,-3.22,3.3,-2.36,5.17
13.703953742980957,-3.65,4.24,-2.91,6.3
13.712088823318481,-4.28,5.03,-3.69,7.56
13.722561836242676,-4.74,5.36,-4.27,8.33
13.732240676879883,-5.03,5.62,-4.51,8.78
13.742242813110352,-5.47,6.22,-4.56,9.45
13.769956827163696,-6.16,6.12,-4.5,9.78
13.771117687225342,-6.56,5.84,-4.13,9.7
13.771912813186646,-6.24,5.51,-3.59,9.06
13.78832483291626,-5.5,4.48,-3.5,7.91
13.791722774505615,-4.53,3.16,-3.82,6.71
13.803424835205078,-2.97,2.41,-3.88,5.44
13.811786890029907,-1.79,2.85,-4.12,5.31
13.821403980255127,-1.93,5.43,-4.27,7.17
13.831503868103027,-1.0,9.14,-3.1,9.7
13.841737747192383,2.12,12.35,-1.64,12.63
13.8787260055542,1.8,9.07,-2.07,9.47
13.879865884780884,-1.36,4.08,-3.51,5.55
13.88066577911377,-4.48,1.59,-4.44,6.5
13.884068965911865,-6.28,-0.4,-4.45,7.7
13.903979778289795,-7.34,-3.6,-4.87,9.51
13.905025959014893,-4.16,-5.98,-4.01,8.31
13.919845819473267,2.52,-2.55,-1.47,3.87
13.920899868011475,1.42,-2.41,-1.19,3.03
13.935779809951782,-3.7,-2.85,-2.86,5.47
13.940572738647461,-8.01,-2.57,-3.55,9.13
13.980585813522339,-10.04,-2.64,-2.74,10.73
13.98152494430542,-9.72,-2.97,-1.15,10.22
13.982566833496094,-8.24,-3.58,0.21,8.98
13.984046936035156,-6.89,-4.47,0.77,8.24
13.989933013916016,-6.34,-5.14,0.45,8.17
14.000346899032593,-6.45,-5.17,-0.2,8.26
14.010366916656494,-6.49,-4.76,-0.8,8.08
14.019821882247925,-6.27,-4.17,-0.92,7.58
14.030136823654175,-5.84,-3.81,-0.53,6.99
14.039973735809326,-5.55,-3.69,-0.11,6.66
14.075697898864746,-5.34,-3.52,0.29,6.4
14.076807975769043,-5.19,-3.12,0.45,6.07
14.077625751495361,-4.87,-2.29,-0.05,5.38
14.087955951690674,-4.29,-1.28,-0.88,4.56
14.089486837387085,-3.03,-0.46,-1.79,3.54
14.103457927703857,-1.17,0.03,-2.48,2.74
14.109714984893799,0.55,0.09,-2.42,2.48
14.119898796081543,1.46,0.11,-1.6,2.16
14.129475831985474,2.36,0.66,-0.7,2.54
14.139013767242432,3.5,1.26,-0.3,3.73
14.176374912261963,3.88,1.55,-0.21,4.18
14.177544832229614,3.37,2.1,0.16,3.97
14.178384780883789,2.9,3.08,1.19,4.39
14.188508987426758,3.22,3.67,2.11,5.31
14.18953275680542,3.99,4.01,2.19,6.06
14.204245805740356,5.22,4.64,1.85,7.22
14.208875894546509,6.71,4.9,1.35,8.41
14.219793796539307,8.03,4.99,1.19,9.52
14.228614807128906,9.33,5.03,1.18,10.66
14.238708019256592,9.27,7.05,0.9,11.68
14.248504877090454,7.7,11.06,0.24,13.47
14.281744956970215,11.62,6.97,0.53,13.56
14.28290581703186,14.95,5.24,2.98,16.11
14.283901691436768,14.05,4.27,4.22,15.27
14.30509090423584,11.98,4.8,4.58,13.69
14.30613088607788,10.76,5.58,5.41,13.27
14.321260929107666,9.89,6.44,6.65,13.54
14.32229995727539,9.11,6.46,7.39,13.39
14.336499691009521,6.23,2.34,4.96,8.3
14.33755087852478,-1.3,-2.0,0.29,2.4
14.353264808654785,-7.9,-2.28,-2.31,8.54
14.38322401046753,-5.89,-0.86,-0.65,5.98
14.384660720825195,1.63,0.14,0.98,1.9
14.385685920715332,5.86,1.41,1.31,6.16
14.404716968536377,7.28,4.79,1.56,8.85
14.405731678009033,9.14,4.73,1.19,10.35
14.420864820480347,8.65,2.58,-0.2,9.02
14.421883821487427,5.52,2.69,1.36,6.28
14.438148975372314,2.14,-0.9,2.49,3.4
14.43961477279663,1.02,-2.74,1.89,3.48
14.453796863555908,1.35,-1.87,1.36,2.67
14.483277797698975,1.52,-0.15,1.34,2.03
14.484579801559448,1.6,0.58,1.69,2.39
14.48544979095459,1.08,0.02,1.58,1.91
14.504742860794067,0.59,-0.6,1.05,1.34
14.505870819091797,0.64,-0.62,0.66,1.1
14.521232843399048,0.83,-0.17,0.32,0.9
14.522274017333984,0.65,0.09,-0.06,0.65
14.536417007446289,0.31,0.04,-0.4,0.5
14.537431716918945,0.12,0.09,-0.65,0.66
14.552911758422852,0.05,0.23,-0.95,0.97
14.582634925842285,0.18,0.21,-1.23,1.26
14.583956718444824,0.56,0.13,-1.23,1.35
14.584900856018066,0.91,0.06,-1.25,1.54
14.605021953582764,0.88,0.08,-1.01,1.34
14.606045722961426,0.4,0.11,-0.55,0.68
14.621264934539795,-0.13,0.1,-0.22,0.27
14.622264862060547,-0.46,0.1,0.43,0.63
14.636330842971802,-0.63,0.04,1.02,1.19
14.637311935424805,-0.68,-0.02,0.73,0.99
14.653514862060547,-0.46,0.0,0.11,0.47
14.681521892547607,0.02,0.28,-0.12,0.3
14.682719707489014,0.39,0.33,-0.47,0.69
14.683501720428467,0.48,0.08,-1.0,1.11
14.686064720153809,0.51,-0.09,-0.95,1.08
14.695132732391357,0.4,0.02,-0.63,0.74
14.704954862594604,0.01,0.02,-0.56,0.56
14.715048789978027,-0.42,0.09,-0.19,0.46
14.724910736083984,-0.63,0.32,0.09,0.71
14.734880924224854,-0.7,0.33,0.0,0.77
14.745004892349243,-0.54,0.25,-0.07,0.59
14.78188681602478,-0.18,0.11,0.01,0.21
14.783042907714844,0.15,0.03,0.05,0.16
14.783900737762451,0.34,-0.04,-0.18,0.38
14.805181980133057,0.44,-0.11,-0.32,0.55
14.806228876113892,0.33,-0.08,-0.42,0.54
14.821316719055176,0.13,0.1,-0.43,0.46
14.822350025177002,-0.09,0.38,-0.31,0.49
14.836630821228027,-0.33,0.44,-0.24,0.6
14.837649822235107,-0.35,0.39,-0.15,0.54
14.853178977966309,-0.32,0.33,-0.18,0.49
14.881489753723145,-0.38,0.31,-0.44,0.65
14.882736682891846,-0.54,0.41,-0.64,0.93
14.883496761322021,-0.74,0.38,-0.74,1.11
14.885634899139404,-1.07,0.51,-0.81,1.43
14.893467903137207,-1.61,0.72,-0.98,2.01
14.903520822525024,-2.14,0.92,-1.32,2.67
14.91349172592163,-2.63,1.03,-1.52,3.2
14.92341685295105,-2.87,1.38,-1.7,3.6
14.93337082862854,-2.91,2.03,-1.76,3.96
14.943474769592285,-2.61,2.73,-1.36,4.01
14.981765747070312,-2.48,2.72,-1.3,3.9
14.983178853988647,-2.58,2.55,-1.48,3.91
14.984196901321411,-2.8,2.59,-1.54,4.11
14.986459732055664,-2.96,3.0,-1.79,4.57
14.99266767501831,-3.09,3.65,-2.31,5.31
15.002789974212646,-3.52,4.41,-3.09,6.43
15.01277780532837,-4.18,5.04,-3.84,7.59
15.022750854492188,-4.68,5.48,-4.0,8.24
15.032553911209106,-5.22,5.89,-3.92,8.79
15.042333841323853,-5.84,5.83,-3.95,9.14
15.05265998840332,-5.98,5.29,-3.88,8.87
15.084909915924072,-5.47,4.47,-4.06,8.14
15.085877895355225,-4.69,3.84,-4.04,7.28
15.086671829223633,-3.43,3.09,-4.2,6.24
15.105334758758545,-2.7,3.54,-4.89,6.61
15.106403827667236,-3.07,5.23,-5.33,8.07
15.12139368057251,-3.27,7.02,-5.49,9.49
15.12245798110962,-1.51,9.51,-3.52,10.25
15.136857986450195,1.69,10.66,-0.79,10.82
15.141788005828857,1.47,6.26,-1.17,6.53
15.153364896774292,-1.11,2.72,-3.28,4.4
15.184882879257202,-3.79,1.23,-4.92,6.33
15.185981750488281,-5.83,-0.6,-5.26,7.87
15.186792850494385,-7.06,-4.0,-5.37,9.73
15.205609798431396,-2.62,-5.27,-3.75,6.97
15.206633806228638,3.01,-1.89,-0.95,3.67
15.22168493270874,0.61,-2.51,-1.21,2.85
15.222696781158447,-4.49,-2.9,-2.93,6.09
15.23704195022583,-8.24,-2.65,-3.54,9.35
15.240771770477295,-9.82,-2.8,-2.9,10.61
15.253414869308472,-9.82,-3.23,-1.62,10.46
15.285080909729004,-8.86,-3.69,-0.38,9.6
15.286387920379639,-7.56,-4.25,0.38,8.68
15.287405014038086,-6.54,-4.91,0.47,8.19
15.305855751037598,-5.95,-5.15,0.12,7.87
15.306887865066528,-5.62,-5.01,-0.29,7.53
15.321492910385132,-5.38,-4.86,-0.61,7.27
15.322532892227173,-5.05,-4.75,-0.76,6.97
15.337401866912842,-4.72,-4.66,-0.63,6.66
15.340367794036865,-4.66,-4.38,-0.26,6.4
15.353567838668823,-5.05,-3.92,0.24,6.39
15.382530689239502,-5.55,-3.13,0.64,6.4
15.383821964263916,-5.96,-1.97,0.42,6.29
15.384646892547607,-5.63,-1.02,-0.83,5.78
15.405491828918457,-4.05,-0.39,-2.2,4.62
15.406538009643555,-1.5,0.44,-2.48,2.93
15.42211389541626,0.94,1.2,-1.72,2.29
15.42310881614685,2.58,1.69,-0.63,3.14
15.4371919631958,3.38,1.81,0.26,3.84
15.439241886138916,3.67,2.06,0.62,4.25
15.453704833984375,3.43,2.75,0.75,4.45
15.489078998565674,3.18,4.04,1.31,5.3
15.490440845489502,3.46,5.26,1.5,6.47
15.491460800170898,4.24,5.83,0.97,7.27
15.50559687614441,5.59,6.51,0.65,8.6
15.506643772125244,7.53,7.15,0.53,10.39
15.521378993988037,9.22,7.32,0.32,11.77
15.522410869598389,7.9,12.58,0.47,14.86
15.536957740783691,10.71,9.83,-0.72,14.55
15.538482904434204,16.49,5.57,0.3,17.4
15.553635835647583,16.57,4.52,1.82,17.27
15.586509704589844,14.0,4.54,1.94,14.84
15.587644815444946,12.63,4.97,3.21,13.94
15.588473796844482,11.95,5.89,5.33,14.34
15.605731010437012,10.85,6.25,6.93,14.31
15.606732845306396,9.12,4.83,7.19,12.57
15.620309829711914,4.89,-0.02,4.12,6.39
15.621346950531006,-3.17,-2.65,-0.32,4.14
15.637166023254395,-7.5,-0.13,-0.74,7.53
15.638200759887695,-1.24,3.37,1.69,3.96
15.653729915618896,5.72,4.43,0.74,7.27
15.68727970123291,7.4,5.23,0.94,9.11
15.688609838485718,7.55,4.95,1.47,9.14
15.689610004425049,7.09,1.61,-0.26,7.27
15.705445766448975,3.95,-0.25,-1.09,4.1
15.706532955169678,1.95,-0.39,1.21,2.32
15.72167682647705,1.8,-1.41,2.03,3.05
15.722705841064453,2.29,-1.32,1.81,3.2
15.737061023712158,1.91,-0.23,1.59,2.49
15.738109827041626,1.13,0.39,0.88,1.48
15.753757953643799,0.56,0.2,0.41,0.72
15.786294937133789,0.17,-0.25,0.74,0.79
15.787691831588745,-0.11,-0.52,1.21,1.32
15.788721799850464,-0.46,-0.34,1.25,1.37
15.80576467514038,-0.6,-0.1,0.58,0.84
15.806804895401001,-0.29,0.03,-0.36,0.46
15.821879863739014,0.51,0.25,-0.83,1.0
15.822869777679443,1.03,0.32,-1.14,1.56
15.837241888046265,1.12,0.1,-1.03,1.52
15.838673830032349,1.1,-0.18,-0.83,1.38
15.853931903839111,1.14,-0.23,-0.66,1.33
15.856476783752441,0.93,-0.07,-0.36,0.99
15.9010648727417,0.31,0.17,-0.04,0.35
15.902238845825195,-0.06,0.36,0.31,0.47
15.90321397781372,-0.06,0.38,0.4,0.55
15.922721862792969,0.1,0.24,0.19,0.32
15.923681735992432,0.4,0.04,-0.05,0.4
15.937996864318848,0.57,-0.04,-0.29,0.64
15.939055919647217,0.75,0.01,-0.4,0.85
15.954582691192627,0.65,0.17,-0.53,0.85
15.955878734588623,0.46,0.26,-0.4,0.66
15.970003843307495,0.33,0.13,-0.09,0.36
15.99911379814148,0.18,-0.06,-0.05,0.19
16.000383853912354,0.09,-0.13,-0.08,0.17
16.001370906829834,0.11,-0.15,-0.11,0.21
16.022432804107666,0.14,-0.2,-0.09,0.26
16.02350687980652,0.12,-0.19,-0.14,0.26
16.038330793380737,-0.06,-0.2,-0.27,0.34
16.039357900619507,-0.18,-0.12,-0.28,0.35
16.054330825805664,-0.35,0.05,-0.33,0.48
16.055803775787354,-0.49,0.19,-0.33,0.62
16.070347785949707,-0.46,0.36,-0.16,0.6
16.09976577758789,-0.36,0.46,-0.11,0.59
16.100895881652832,-0.28,0.34,-0.01,0.44
16.101711750030518,-0.27,0.24,0.07,0.36
16.122426986694336,-0.39,0.17,0.01,0.42
16.123466968536377,-0.55,0.24,-0.1,0.6
16.13830590248108,-0.62,0.45,-0.23,0.79
16.13931679725647,-0.74,0.45,-0.39,0.94
16.154261827468872,-0.84,0.5,-0.37,1.04
16.15566086769104,-0.84,0.63,-0.51,1.16
16.169893741607666,-0.85,0.68,-0.57,1.22
16.197734832763672,-0.92,0.8,-0.52,1.32
16.198890686035156,-0.89,0.84,-1.07,1.62
16.199705839157104,-1.47,0.67,-1.47,2.18
16.202332019805908,-1.68,1.06,-1.21,2.32
16.20368480682373,-1.62,1.02,-1.18,2.24
16.21361494064331,-1.62,1.06,-0.8,2.09
16.223834991455078,-1.77,1.37,-0.82,2.38
16.23364281654358,-1.92,1.62,-1.12,2.75
16.24346399307251,-2.12,1.81,-1.26,3.05
16.253346920013428,-2.43,2.06,-1.38,3.47
16.28930377960205,-2.77,2.53,-1.61,4.08
16.29026699066162,-2.85,2.93,-1.71,4.43
16.291091918945312,-2.97,3.28,-1.87,4.8
16.293179988861084,-3.33,3.76,-2.24,5.49
16.30320167541504,-3.64,4.1,-2.77,6.14
16.312824726104736,-3.95,4.24,-3.1,6.57
16.32289695739746,-4.35,4.23,-3.2,6.85
16.33273482322693,-4.83,4.29,-3.3,7.25
16.342684745788574,-5.09,4.03,-3.42,7.33
16.352653980255127,-4.95,3.55,-3.4,6.97
16.389894008636475,-4.29,3.19,-3.41,6.34
16.391072750091553,-3.55,2.89,-3.72,5.89
16.392087936401367,-2.88,2.58,-4.51,5.94
16.40735673904419,-3.29,3.3,-5.08,6.89
16.408406734466553,-4.17,5.15,-5.45,8.57
16.42164182662964,-4.49,5.93,-5.64,9.33
16.422669887542725,-2.82,6.89,-3.86,8.38
16.43764591217041,1.3,9.81,-0.89,9.93
16.442078828811646,2.77,8.98,-0.91,9.44
16.454054832458496,1.03,5.67,-2.92,6.46
16.490869998931885,-1.48,4.11,-5.23,6.81
16.49221682548523,-3.37,3.0,-5.88,7.41
16.49322485923767,-4.77,0.02,-5.76,7.47
16.50618290901184,-5.17,-4.25,-5.58,8.71
16.507226943969727,-0.98,-4.77,-4.23,6.45
16.522114753723145,3.09,-2.08,-1.81,4.14
16.52315092086792,0.3,-1.93,-2.01,2.8
16.537421703338623,-4.87,-2.26,-3.82,6.58
16.541327953338623,-8.94,-2.64,-4.41,10.31
16.554062843322754,-10.52,-2.88,-3.14,11.35
16.58831787109375,-10.51,-3.23,-1.21,11.06
16.58962392807007,-10.15,-3.9,0.3,10.87
16.590709686279297,-9.66,-4.8,0.96,10.82
16.60590386390686,-9.14,-5.28,1.1,10.61
16.60695171356201,-8.7,-5.31,1.02,10.24
16.622217893600464,-8.17,-5.08,0.89,9.66
16.623238801956177,-7.72,-4.59,0.91,9.02
16.63757085800171,-7.54,-4.01,0.95,8.59
16.640542030334473,-7.67,-3.17,0.92,8.35
16.654188871383667,-7.77,-2.29,0.59,8.12
16.66042184829712,-7.57,-1.23,-0.32,7.67
16.700156688690186,-6.21,0.33,-1.58,6.41
16.70133399963379,-3.78,1.55,-2.7,4.89
16.702356815338135,-0.69,1.87,-3.27,3.82
16.72298789024353,1.97,1.77,-2.45,3.6
16.723986864089966,3.92,1.77,-1.14,4.44
16.73862075805664,5.47,1.61,-0.47,5.72
16.73961877822876,5.81,1.42,-0.41,5.99
16.75461983680725,4.52,1.94,-0.19,4.92
16.756029844284058,3.03,3.18,0.65,4.44
16.770753860473633,2.54,4.05,1.86,5.12
16.801132678985596,3.14,4.24,2.84,5.99
16.80244493484497,4.12,3.98,3.44,6.68
16.80345392227173,5.17,4.0,4.2,7.76
16.822619915008545,6.63,4.04,4.38,8.91
16.82366371154785,8.21,3.91,3.81,9.85
16.838910818099976,9.42,4.07,2.89,10.66
16.839914798736572,8.35,8.2,1.97,11.86
16.8550066947937,7.33,11.14,0.17,13.33
16.85651397705078,12.54,6.18,-0.55,13.99
16.870725870132446,17.53,5.29,1.1,18.34
16.900169849395752,19.67,4.46,1.45,20.22
16.901615858078003,19.61,4.53,1.28,20.16
16.90262484550476,19.44,5.58,1.59,20.28
16.9228298664093,15.44,2.64,-0.06,15.66
16.923888683319092,4.23,-1.23,-3.87,5.86
16.938647747039795,-6.36,1.3,-5.2,8.31
16.939669847488403,-8.1,5.95,-0.07,10.05
16.954798698425293,-2.25,6.45,3.95,7.89
16.956275939941406,2.25,2.88,3.71,5.2
16.970510959625244,4.97,-0.08,3.63,6.15
16.998511791229248,8.41,1.35,2.96,9.01
16.99980878829956,9.83,0.75,1.39,9.95
17.00065588951111,6.19,0.64,1.75,6.46
17.002440929412842,2.52,0.34,3.1,4.0
17.007498741149902,1.23,-1.05,2.6,3.06
17.01783275604248,1.63,-1.52,2.12,3.07
17.027668952941895,1.86,-0.93,1.4,2.5
17.037454843521118,1.59,0.17,0.61,1.71
17.04738473892212,1.08,0.72,-0.33,1.33
17.05733871459961,0.65,0.47,-1.32,1.54
17.09388279914856,0.43,0.22,-1.93,1.98
17.094980716705322,0.43,0.01,-2.18,2.22
17.095781803131104,0.83,-0.01,-1.62,1.82
17.105623722076416,1.36,0.05,-0.52,1.45
17.106664896011353,1.17,-0.14,-0.31,1.21
17.12237787246704,0.68,-0.27,-0.58,0.93
17.126744747161865,0.33,-0.1,-0.38,0.51
17.137650966644287,-0.16,-0.04,-0.28,0.32
17.14668583869934,-0.25,0.01,0.11,0.27
17.15669298171997,-0.13,0.09,0.44,0.46
17.193392753601074,-0.19,0.13,0.2,0.3
17.194657802581787,-0.31,0.15,-0.15,0.37
17.195650815963745,-0.09,0.01,-0.6,0.6
17.206326961517334,0.25,-0.16,-0.67,0.73
17.207398891448975,0.35,-0.15,-0.36,0.52
17.222429752349854,0.11,-0.02,-0.24,0.26
17.226006984710693,-0.53,-0.1,-0.35,0.64
17.237547874450684,-1.12,-0.17,-0.52,1.24
17.24602484703064,-1.21,0.06,-0.63,1.36
17.256003856658936,-0.65,0.21,-0.62,0.92
17.29314374923706,0.02,0.05,-0.58,0.58
17.29492473602295,0.34,0.0,-0.56,0.65
17.295899868011475,0.38,-0.04,-0.27,0.46
17.306102752685547,0.12,0.02,0.12,0.17
17.307150840759277,0.01,0.24,0.31,0.39
17.322490692138672,-0.04,0.24,0.08,0.25
17.325138807296753,-0.22,0.0,-0.29,0.36
17.337753772735596,-0.38,-0.19,-0.65,0.77
17.345236778259277,-0.35,-0.29,-1.01,1.1
17.35515594482422,-0.2,-0.39,-1.0,1.09
17.394824981689453,0.21,-0.26,-0.77,0.83
17.39619779586792,0.6,-0.08,-0.33,0.68
17.397218704223633,0.65,0.01,-0.09,0.65
17.40688991546631,0.36,0.06,-0.03,0.36
17.407949924468994,0.45,0.39,0.52,0.79
17.42245578765869,0.58,0.71,1.22,1.52
17.424485683441162,0.08,0.78,0.91,1.2
17.43800187110901,-0.38,0.79,0.14,0.88
17.44453191757202,-0.75,0.47,-0.52,1.02
17.454576015472412,-1.09,0.21,-1.04,1.52
17.46474599838257,-1.3,0.23,-1.42,1.93
17.497389793395996,-1.26,0.41,-1.43,1.94
17.498583793640137,-1.26,0.69,-1.39,1.99
17.49973201751709,-1.53,0.82,-1.64,2.38
17.503909826278687,-2.16,0.9,-1.77,2.93
17.522650718688965,-2.69,1.02,-1.77,3.37
17.52368688583374,-2.94,1.35,-1.55,3.58
17.538180828094482,-2.81,2.05,-1.66,3.85
17.54375696182251,-3.19,3.13,-2.23,4.99
17.55445671081543,-3.42,4.51,-1.42,5.83
17.563830852508545,-3.19,4.52,-1.61,5.76
17.59763193130493,-3.63,4.53,-2.21,6.21
17.59885883331299,-4.26,4.99,-2.68,7.08
17.60010576248169,-4.65,4.93,-3.23,7.5
17.60309600830078,-5.14,5.18,-3.52,8.1
17.62308979034424,-5.76,5.44,-3.92,8.83
17.624162912368774,-5.92,5.42,-4.09,9.0
17.638556957244873,-5.83,5.23,-4.21,8.89
17.64312982559204,-5.65,4.65,-4.22,8.44
17.654732704162598,-4.98,3.79,-4.31,7.59
17.66289782524109,-3.82,2.9,-4.05,6.27
17.699643850326538,-2.5,2.99,-3.67,5.35
17.700829029083252,-1.93,3.92,-4.29,6.12
17.701828956604004,-2.06,5.7,-4.88,7.78
17.72355580329895,-0.91,8.71,-3.21,9.32
17.72461485862732,1.98,11.31,-1.27,11.55
17.739388942718506,1.49,7.27,-1.95,7.67
17.740383863449097,-1.63,3.28,-3.74,5.23
17.754870891571045,-4.69,1.51,-4.87,6.92
17.756316900253296,-6.66,-0.42,-5.04,8.36
17.770880699157715,-7.64,-2.34,-4.64,9.23
17.799920797348022,-3.29,-4.09,-3.58,6.35
17.80208396911621,2.31,-2.19,-1.81,3.66
17.80312180519104,0.27,-2.42,-1.63,2.93
17.823248863220215,-4.42,-2.81,-2.78,5.92
17.824309825897217,-7.94,-2.4,-3.42,8.97
17.83858585357666,-9.4,-2.59,-2.88,10.16
17.840046882629395,-9.27,-3.12,-1.77,9.93
17.855376720428467,-8.16,-3.68,-0.86,8.99
17.85684299468994,-6.77,-4.34,-0.32,8.04
17.8713538646698,-5.72,-4.82,-0.18,7.48
17.90166997909546,-5.14,-4.75,-0.36,7.0
17.90302801132202,-5.0,-4.41,-0.62,6.69
17.90403985977173,-5.14,-4.23,-0.96,6.72
17.923211812973022,-5.23,-4.04,-1.15,6.7
17.92424988746643,-5.05,-3.84,-1.02,6.42
17.939297676086426,-4.74,-3.82,-0.57,6.11
17.940320014953613,-4.57,-3.95,-0.06,6.04
17.955321788787842,-4.72,-3.65,0.49,5.98
17.95677900314331,-5.28,-2.88,0.58,6.04
17.971158027648926,-5.75,-1.89,-0.23,6.05
17.999693870544434,-5.21,-1.03,-1.24,5.45
18.00104570388794,-3.28,-0.35,-1.96,3.83
18.002022743225098,-0.98,0.25,-1.82,2.08
18.00473690032959,0.93,1.04,-0.87,1.64
18.010186910629272,2.15,1.52,0.05,2.63
18.020269870758057,2.71,1.96,0.75,3.42
18.03018093109131,2.83,2.61,1.04,3.98
18.040000915527344,2.72,3.55,1.16,4.62
18.049787998199463,3.01,4.76,1.59,5.85
18.060261726379395,4.04,5.72,1.73,7.21
18.09657096862793,5.53,6.02,1.57,8.32
18.097933769226074,7.44,6.25,1.69,9.86
18.09891176223755,9.28,6.81,1.97,11.67
18.102773904800415,7.7,13.4,1.77,15.55
18.12273597717285,11.68,11.81,-0.45,16.61
18.12374186515808,19.66,7.65,1.0,21.11
18.138300895690918,20.45,5.98,3.73,21.63
18.139363765716553,18.38,6.83,4.84,20.19
18.1547589302063,17.32,7.36,5.7,19.66
18.159339904785156,16.7,6.54,6.45,19.05
18.19849181175232,14.46,3.94,5.97,16.13
18.19964599609375,6.86,-2.53,1.34,7.43
18.200925827026367,-3.72,-2.07,-2.79,5.08
18.203197956085205,-7.07,5.8,-0.84,9.18
18.208573818206787,-2.32,8.59,4.15,9.81
18.21878981590271,3.51,2.79,3.82,5.89
18.228813886642456,8.02,-2.23,2.21,8.61
18.238508701324463,9.38,-1.45,1.57,9.62
18.248336791992188,7.63,1.13,2.27,8.04
18.25871181488037,4.37,0.21,1.14,4.52
18.26866102218628,1.87,-1.01,0.21,2.13
18.29976177215576,0.85,-0.62,0.44,1.14
18.300890922546387,0.85,-0.02,0.72,1.11
18.301806926727295,0.85,-0.06,1.01,1.32
18.323672771453857,1.2,-0.25,1.49,1.92
18.324643850326538,1.23,-0.24,1.47,1.93
18.339072704315186,0.34,-0.28,0.66,0.79
18.34012794494629,-0.43,-0.12,-0.04,0.44
18.35465669631958,-0.44,0.2,-0.09,0.49
18.357720851898193,-0.1,0.41,-0.03,0.42
18.372390747070312,-0.14,0.21,-0.04,0.25
18.40206289291382,-0.29,0.03,-0.04,0.29
18.40335178375244,-0.27,0.09,-0.38,0.47
18.404356002807617,-0.29,0.02,-1.09,1.12
18.423476696014404,-0.07,-0.09,-1.57,1.57
18.424521923065186,0.41,0.06,-1.49,1.54
18.43827199935913,0.5,0.11,-1.05,1.16
18.43931293487549,0.25,0.14,-0.58,0.64
18.455424785614014,-0.09,0.2,-0.19,0.29
18.456920862197876,-0.49,0.26,0.02,0.55
18.471125841140747,-0.6,0.2,0.31,0.7
18.500433921813965,-0.22,-0.08,0.41,0.47
18.5017569065094,0.21,-0.18,0.38,0.47
18.50264883041382,0.43,-0.03,0.31,0.53
18.52368974685669,0.61,0.1,-0.05,0.62
18.524695873260498,0.65,-0.07,-0.55,0.85
18.540069818496704,0.82,-0.22,-0.53,1.0
18.541456699371338,1.02,-0.05,-0.06,1.02
18.552505016326904,0.73,0.07,-0.18,0.75
18.555906772613525,0.16,0.05,-0.36,0.39
18.56978487968445,-0.18,0.03,-0.33,0.37
18.597739696502686,-0.14,-0.07,-0.15,0.21
18.599032878875732,0.15,-0.1,-0.09,0.2
18.60010576248169,0.51,-0.04,0.01,0.51
18.605677843093872,0.69,-0.05,-0.04,0.69
18.62308979034424,0.6,-0.1,0.05,0.61
18.625516891479492,0.45,-0.04,0.24,0.51
18.638280868530273,0.34,0.13,0.32,0.48
18.645267963409424,0.27,0.08,0.1,0.29
18.655783891677856,0.16,0.03,-0.11,0.19
18.665589809417725,0.0,0.09,-0.25,0.26
18.701772689819336,-0.22,0.21,-0.36,0.47
18.70295000076294,-0.36,0.25,-0.52,0.68
18.703993797302246,-0.38,0.34,-0.59,0.77
18.72374677658081,-0.42,0.32,-0.82,0.97
18.72482991218567,-0.61,0.35,-1.04,1.25
18.739691734313965,-0.83,0.42,-1.06,1.41
18.74117088317871,-1.17,0.45,-1.2,1.73
18.755512714385986,-1.45,0.62,-1.08,1.91
18.756996870040894,-1.69,0.9,-0.84,2.09
18.771420001983643,-1.94,1.11,-1.01,2.45
18.80178189277649,-2.21,1.11,-1.34,2.81
18.80313777923584,-2.42,1.11,-1.59,3.1
18.80411195755005,-2.7,1.37,-1.68,3.46
18.823672771453857,-2.59,1.57,-1.78,3.51
18.82470989227295,-2.86,2.26,-2.16,4.23
18.83948802947998,-2.51,3.19,-1.75,4.42
18.84050703048706,-1.91,3.09,-1.5,3.93
18.85559582710266,-2.29,2.88,-1.67,4.04
18.857048988342285,-2.86,3.16,-1.8,4.62
18.871691703796387,-3.0,3.33,-1.91,4.87
18.899956703186035,-3.12,3.61,-2.13,5.22
18.90131902694702,-3.87,4.11,-2.79,6.29
18.902347803115845,-4.69,4.39,-3.21,7.18
18.90493083000183,-5.3,4.51,-3.44,7.76
18.91351580619812,-5.66,4.44,-3.91,8.18
18.923367977142334,-5.72,4.22,-4.28,8.29
18.933226823806763,-5.54,3.92,-4.37,8.07
18.943233013153076,-5.17,3.47,-4.24,7.53
18.95326280593872,-4.46,2.81,-4.37,6.84
18.963284969329834,-3.39,2.44,-4.37,6.04
18.998260974884033,-2.32,2.53,-4.27,5.47
18.999714851379395,-2.05,3.73,-4.45,6.15
19.000699996948242,-2.13,5.49,-4.65,7.5
19.003331899642944,-0.72,8.74,-3.15,9.31
19.01275086402893,2.52,11.91,-1.12,12.22
19.022600889205933,2.07,8.18,-1.82,8.63
19.03251075744629,-1.03,3.83,-3.8,5.49
19.042564868927002,-4.01,2.33,-5.43,7.14
19.052828788757324,-6.03,0.34,-5.73,8.32
19.062586784362793,-7.32,-3.22,-5.86,9.91
19.07254695892334,-4.52,-5.3,-4.41,8.24
19.104722023010254,2.12,-2.0,-1.53,3.29
19.105834007263184,1.74,-2.14,-0.92,2.9
19.1068058013916,-2.59,-3.1,-2.47,4.73
19.124396800994873,-6.16,-2.75,-3.57,7.63
19.12547779083252,-7.81,-2.8,-3.34,8.94
19.13979983329773,-8.1,-3.18,-2.43,9.03
19.14160990715027,-7.49,-3.85,-1.37,8.53
19.15582585334778,-6.62,-4.7,-0.65,8.14
19.161800861358643,-6.15,-5.35,-0.6,8.17
19.171782970428467,-5.88,-5.3,-0.75,7.95
19.20376181602478,-5.48,-4.87,-0.79,7.37
19.205103874206543,-5.1,-4.31,-0.7,6.71
19.206111907958984,-5.12,-3.96,-0.57,6.49
19.223965883255005,-5.46,-3.65,-0.45,6.58
19.22497272491455,-5.87,-3.11,-0.32,6.65
19.240299701690674,-5.98,-2.65,-0.57,6.56
19.241784811019897,-5.39,-2.26,-0.98,5.92
19.25576877593994,-3.93,-1.71,-1.28,4.47
19.26093292236328,-2.24,-1.05,-1.56,2.92
19.271674871444702,-1.06,-0.54,-1.5,1.91
19.30338478088379,-1.0,-0.44,-0.95,1.44
19.304718017578125,-1.59,-0.47,-0.16,1.66
19.30573272705078,-1.22,0.31,0.19,1.27
19.323850870132446,0.11,1.51,0.28,1.53
19.324917793273926,1.42,2.52,0.39,2.91
19.339860916137695,1.9,2.99,0.6,3.59
19.340871810913086,1.9,3.69,1.01,4.27
19.357096910476685,2.4,4.68,1.48,5.46
19.36086368560791,3.63,5.31,1.75,6.66
19.371381759643555,5.29,5.7,1.53,7.92
19.40203881263733,7.26,6.17,1.19,9.6
19.40343689918518,9.26,6.42,0.99,11.31
19.404475688934326,8.48,11.19,1.21,14.09
19.42398190498352,10.02,11.92,0.21,15.57
19.425033807754517,17.47,7.63,1.49,19.12
19.439984798431396,19.38,4.87,4.39,20.45
19.44102382659912,16.78,4.91,5.54,18.34
19.45595383644104,14.79,6.34,6.25,17.26
19.459433794021606,14.26,6.64,7.18,17.29
19.47188091278076,13.59,6.12,7.66,16.75
19.5069317817688,12.13,3.96,6.72,14.42
19.508248805999756,6.3,-1.36,1.89,6.71
19.509267807006836,-3.06,-3.68,-3.06,5.68
19.524012804031372,-7.79,-0.65,-4.11,8.83
19.525078773498535,-4.05,4.41,0.56,6.01
19.53995180130005,2.08,4.89,3.14,6.17
19.54099702835083,7.58,0.88,2.44,8.01
19.555741786956787,9.79,-1.2,0.53,9.87
19.558358907699585,7.67,1.48,0.66,7.83
19.57282781600952,5.41,1.33,1.75,5.83
19.6068377494812,3.05,-0.91,1.3,3.43
19.608256816864014,1.5,-1.28,1.39,2.41
19.609256744384766,0.83,-0.7,1.78,2.08
19.62425184249878,0.66,-0.39,1.98,2.12
19.625317811965942,0.78,-0.15,2.25,2.38
19.63988971710205,0.82,-0.05,1.79,1.96
19.640929698944092,0.61,-0.11,0.92,1.1
19.656134843826294,0.17,-0.09,0.44,0.48
19.657917022705078,-0.18,0.12,0.3,0.36
19.672050952911377,-0.22,0.22,-0.11,0.33
19.70601797103882,-0.15,0.13,-0.52,0.55
19.707374811172485,0.06,0.11,-0.77,0.78
19.70835781097412,0.32,0.11,-0.87,0.93
19.724345684051514,0.6,0.09,-0.79,0.99
19.725368976593018,0.81,0.08,-1.03,1.31
19.740208864212036,0.89,0.0,-1.47,1.71
19.74168586730957,0.83,0.11,-1.22,1.47
19.75599479675293,0.5,0.15,-0.31,0.6
19.7574520111084,0.15,0.06,0.36,0.39
19.77178382873535,0.15,0.08,0.58,0.6
19.804813861846924,0.15,0.12,0.48,0.51
19.806038856506348,0.13,0.18,0.36,0.42
19.807073831558228,0.18,0.4,0.31,0.53
19.824524879455566,0.12,0.64,0.1,0.65
19.825551986694336,0.08,0.49,-0.09,0.5
19.8386869430542,0.28,0.12,-0.21,0.37
19.8401837348938,0.5,-0.17,-0.35,0.63
19.855973720550537,0.55,-0.31,-0.22,0.66
19.8574857711792,0.33,-0.32,-0.46,0.65
19.872029781341553,-0.05,-0.25,-0.82,0.85
19.876445770263672,-0.13,-0.14,-0.69,0.71
19.919291973114014,-0.05,-0.1,-0.43,0.44
19.92051887512207,-0.13,-0.19,-0.28,0.36
19.921525955200195,-0.35,-0.16,-0.17,0.42
19.94094491004944,-0.37,-0.01,-0.14,0.39
19.942394733428955,-0.36,0.01,-0.16,0.39
19.957047939300537,-0.31,0.05,-0.23,0.38
19.958462715148926,-0.07,0.08,0.06,0.12
19.972574710845947,0.1,0.03,0.26,0.28
19.974013805389404,0.28,0.04,0.08,0.29
19.988911867141724,0.35,0.09,-0.01,0.36
20.01865577697754,0.0,0.19,-0.09,0.21
20.020038843154907,-0.31,0.41,-0.1,0.52
20.021053791046143,-0.2,0.46,-0.06,0.5
20.040623903274536,-0.02,0.39,-0.32,0.5
20.041562795639038,0.04,0.24,-0.74,0.77
20.057143688201904,-0.1,0.2,-1.13,1.15
20.058600902557373,-0.35,0.23,-1.21,1.28
20.072479724884033,-0.77,0.26,-1.09,1.35
20.073925971984863,-1.38,0.41,-1.02,1.76
20.08918571472168,-1.76,0.83,-0.98,2.17
20.11809778213501,-1.96,1.27,-0.92,2.51
20.11938190460205,-2.14,1.58,-0.91,2.81
20.120450973510742,-2.33,1.78,-0.97,3.08
20.14134693145752,-2.7,1.86,-1.35,3.54
20.142863750457764,-3.41,1.98,-2.07,4.45
20.157550811767578,-2.93,2.69,-1.71,4.32
20.159023761749268,-2.58,2.77,-1.69,4.14
20.172866821289062,-2.95,2.91,-1.75,4.49
20.17433500289917,-3.36,3.39,-1.67,5.05
20.189401865005493,-3.8,3.87,-2.1,5.81
20.2183358669281,-4.19,4.32,-2.57,6.54
20.219707012176514,-4.59,4.75,-3.19,7.33
20.220707893371582,-5.12,5.25,-3.63,8.18
20.240614891052246,-5.5,5.38,-3.75,8.55
20.241660833358765,-5.69,5.06,-3.7,8.46
20.257498741149902,-5.63,4.86,-3.71,8.31
20.258997917175293,-5.39,4.23,-3.85,7.85
20.272706985473633,-4.86,3.75,-3.79,7.21
20.274168014526367,-3.57,2.99,-3.65,5.91
20.289159774780273,-2.94,3.17,-4.12,5.97
20.31750988960266,-3.32,4.49,-4.81,7.37
20.318984985351562,-3.67,6.36,-5.54,9.19
20.320016860961914,-3.26,8.36,-5.06,10.3
20.342249870300293,-0.07,11.36,-1.45,11.45
20.343438863754272,1.72,9.77,-0.06,9.92
20.35784673690796,0.64,4.93,-1.56,5.21
20.359261989593506,-1.87,2.72,-4.29,5.41
20.372253894805908,-4.21,1.16,-5.75,7.22
20.373673915863037,-6.14,-1.01,-5.85,8.54
20.38944101333618,-5.91,-5.61,-5.65,9.91
20.418585777282715,0.82,-3.9,-2.61,4.76
20.419952869415283,3.29,-1.96,-0.43,3.85
20.42095685005188,-1.21,-3.2,-1.91,3.91
20.440773963928223,-5.75,-3.2,-3.38,7.39
20.44176983833313,-8.53,-3.13,-3.56,9.75
20.45746374130249,-9.36,-3.25,-2.6,10.24
20.458961009979248,-8.86,-3.68,-1.33,9.68
20.47279977798462,-7.86,-4.4,-0.2,9.0
20.474257946014404,-7.1,-5.24,0.44,8.83
20.489133834838867,-6.78,-5.59,0.47,8.79
20.518321990966797,-6.59,-5.34,0.23,8.48
20.519630908966064,-6.14,-4.82,-0.11,7.8
20.52065896987915,-5.58,-4.47,-0.31,7.15
20.541141986846924,-5.17,-4.37,-0.25,6.77
20.54217290878296,-5.17,-4.22,-0.01,6.67
20.557615756988525,-5.64,-3.82,0.33,6.81
20.559066772460938,-6.38,-3.13,0.29,7.11
20.572743892669678,-6.46,-2.13,-0.45,6.81
20.57424283027649,-5.18,-1.0,-1.51,5.48
20.589159965515137,-2.75,-0.41,-2.56,3.77
20.618556022644043,-0.18,-0.14,-2.97,2.97
20.619919776916504,1.71,0.42,-2.28,2.88
20.620938777923584,2.74,0.98,-1.09,3.1
20.640962839126587,3.19,1.15,-0.06,3.39
20.642026901245117,3.29,1.38,0.45,3.59
20.657716751098633,2.94,2.0,0.7,3.62
20.659186840057373,2.73,3.15,1.11,4.31
20.672918796539307,3.27,4.19,1.2,5.44
20.674370765686035,4.6,4.85,0.91,6.74
20.689380884170532,6.44,5.44,0.73,8.46
20.69079279899597,8.39,5.94,0.73,10.3
20.736925840377808,9.81,6.13,0.9,11.6
20.738059997558594,7.3,11.86,1.7,14.02
20.739054679870605,9.2,10.91,-0.37,14.27
20.758692741394043,15.02,6.49,-0.42,16.36
20.760185718536377,17.18,7.27,3.03,18.89
20.77416181564331,15.27,7.2,5.86,17.87
20.775651931762695,13.04,6.07,7.23,16.09
20.78987169265747,12.36,6.29,8.18,16.1
20.791332721710205,12.0,7.1,8.93,16.55
20.805843830108643,10.72,4.83,7.37,13.87
20.83592176437378,4.28,-1.83,1.27,4.82
20.83734369277954,-4.94,-2.74,-3.3,6.54
20.838323831558228,-6.56,2.44,-1.84,7.23
20.85765290260315,0.36,4.34,1.19,4.51
20.8586688041687,4.55,2.96,2.11,5.82
20.87433671951294,5.7,1.91,2.4,6.47
20.875731945037842,6.09,1.0,1.37,6.32
20.889630794525146,6.59,0.34,-0.1,6.59
20.891079902648926,4.74,0.08,-0.92,4.82
20.90596890449524,2.16,0.65,0.48,2.3
20.936028957366943,1.19,-0.48,0.85,1.53
20.937482833862305,1.68,-1.18,0.89,2.23
20.93846583366394,2.2,-0.7,1.3,2.64
20.957836866378784,1.77,0.18,1.38,2.25
20.95888090133667,0.95,0.54,1.22,1.63
20.974257946014404,0.05,0.13,0.8,0.81
20.97568368911743,-0.74,-0.34,0.22,0.84
20.98995590209961,-1.23,-0.33,-0.08,1.27
20.99142289161682,-1.32,-0.02,0.05,1.32
21.005924701690674,-0.87,0.11,0.24,0.9
21.0342698097229,0.18,-0.01,0.83,0.84
21.03570795059204,1.23,0.06,1.05,1.61
21.03670382499695,1.54,0.19,0.11,1.55
21.057981967926025,1.61,0.13,-0.74,1.77
21.05904483795166,1.54,0.09,-1.19,1.94
21.074472904205322,1.27,-0.06,-0.89,1.55
21.07594871520996,0.89,-0.03,-0.21,0.91
21.089972972869873,0.62,0.05,0.1,0.63
21.09144687652588,0.39,-0.03,-0.03,0.39
21.106038808822632,0.4,-0.07,0.03,0.4
21.135531902313232,0.45,-0.1,0.48,0.66
21.136920928955078,0.39,-0.13,0.65,0.76
21.137903690338135,0.38,-0.05,0.48,0.61
21.157683849334717,0.44,0.08,0.08,0.45
21.158727884292603,0.38,0.11,-0.41,0.56
21.174530029296875,0.29,0.05,-0.76,0.81
21.175983905792236,0.18,-0.07,-0.71,0.73
21.19008183479309,-0.13,-0.12,-0.24,0.29
21.19152283668518,-0.23,0.02,-0.05,0.23
21.205861806869507,-0.27,0.07,-0.46,0.53
21.233215808868408,-0.39,-0.05,-0.71,0.81
21.23448085784912,-0.41,-0.1,-0.51,0.66
21.235519886016846,-0.32,0.02,-0.14,0.34
21.238126754760742,-0.13,0.1,0.06,0.17
21.239511966705322,-0.08,0.12,0.09,0.17
21.240691900253296,0.07,0.13,0.11,0.18
21.2459077835083,0.46,0.15,0.3,0.56
21.25593090057373,0.68,0.06,0.45,0.81
21.265782833099365,0.64,0.08,0.21,0.67
21.27573299407959,0.58,0.1,-0.05,0.59
21.308362007141113,0.51,0.12,-0.24,0.57
21.309525966644287,0.26,0.21,-0.58,0.66
21.310527801513672,-0.03,0.3,-0.79,0.84
21.326359748840332,-0.38,0.32,-0.91,1.03
21.327414989471436,-0.74,0.43,-1.1,1.39
21.34087896347046,-1.13,0.51,-1.08,1.64
21.345037937164307,-1.49,0.55,-1.31,2.05
21.355660915374756,-1.72,0.61,-1.49,2.35
21.365256786346436,-1.89,0.83,-1.63,2.63
21.37537670135498,-2.29,1.03,-2.08,3.26
21.410808801651,-2.66,1.2,-2.25,3.68
21.41218090057373,-2.84,1.34,-2.04,3.74
21.413115978240967,-2.84,1.34,-2.2,3.83
21.42511796951294,-2.9,1.66,-2.6,4.23
21.42615795135498,-3.2,2.97,-2.01,4.8
21.44068670272827,-2.9,4.16,-1.52,5.29
21.44426202774048,-2.48,3.81,-1.53,4.79
21.45505380630493,-2.51,4.04,-0.79,4.82
21.46463394165039,-3.06,3.9,-1.31,5.12
21.474395751953125,-3.51,3.98,-1.87,5.62
21.484399795532227,-3.58,4.02,-2.34,5.86
21.516636848449707,-3.92,4.19,-2.62,6.3
21.517807006835938,-4.59,4.46,-2.99,7.06
21.519027709960938,-5.02,4.52,-3.21,7.47
21.52378273010254,-5.36,4.25,-3.39,7.63
21.533790826797485,-5.27,3.59,-3.56,7.3
21.543869018554688,-4.7,3.15,-3.56,6.68
21.554001808166504,-3.87,2.65,-3.8,6.03
21.5638427734375,-2.83,2.13,-4.15,5.45
21.573762893676758,-2.43,2.83,-4.59,5.91
21.583652019500732,-2.61,4.32,-4.9,7.03
21.61460590362549,-2.49,6.13,-4.86,8.2
21.615792751312256,-0.97,8.05,-3.74,8.92
21.617036819458008,2.48,10.84,-1.62,11.23
21.622970819473267,2.33,7.4,-1.65,7.93
21.633099794387817,-0.73,2.99,-3.34,4.54
21.642810821533203,-3.44,1.28,-4.92,6.13
21.652967929840088,-5.41,-0.79,-5.43,7.7
21.662868976593018,-6.76,-3.79,-5.64,9.58
21.673089027404785,-4.33,-5.65,-4.31,8.32
21.68287181854248,2.23,-2.84,-1.29,3.83
21.714391708374023,2.27,-2.79,-0.83,3.69
21.715559005737305,-1.95,-3.46,-2.65,4.77
21.716888904571533,-5.68,-3.12,-3.92,7.57
21.722368717193604,-7.57,-3.18,-3.79,9.04
21.73231267929077,-7.93,-3.4,-2.86,9.08
21.74215793609619,-7.4,-3.79,-1.76,8.49
21.752403736114502,-6.48,-4.45,-0.92,7.91
21.76212167739868,-5.78,-4.88,-0.51,7.58
21.772499799728394,-5.41,-4.75,-0.48,7.21
21.782198905944824,-5.21,-4.22,-0.56,6.72
21.81540584564209,-5.18,-3.73,-0.6,6.41
21.81680989265442,-5.19,-3.3,-0.65,6.18
21.81777572631836,-5.33,-2.95,-0.67,6.12
21.822304725646973,-5.58,-2.39,-0.4,6.08
21.84106969833374,-5.64,-1.77,-0.29,5.91
21.8421049118042,-5.27,-1.28,-0.74,5.47
21.856672763824463,-4.24,-0.64,-1.54,4.55
21.861735820770264,-2.77,-0.03,-1.99,3.41
21.87302875518799,-1.51,0.22,-1.69,2.27
21.88156270980835,-1.22,0.1,-0.89,1.51
21.91859197616577,-1.38,0.23,0.03,1.39
21.9197678565979,-1.04,0.83,0.62,1.46
21.92081069946289,-0.51,1.58,0.93,1.9
21.941805839538574,-0.08,2.19,1.31,2.55
21.94283890724182,0.32,2.75,1.71,3.25
21.958110809326172,0.88,3.24,1.99,3.9
21.959599018096924,1.6,3.71,2.19,4.59
21.973646879196167,2.5,4.13,2.07,5.25
21.975116729736328,3.46,4.46,1.67,5.88
21.98990297317505,4.74,5.17,1.4,7.15
22.020001888275146,6.58,5.67,1.0,8.74
22.021421909332275,8.58,5.69,0.83,10.32
22.022437810897827,10.46,5.55,0.79,11.86
22.041457891464233,9.82,8.87,0.86,13.26
22.04249882698059,10.44,9.34,0.74,14.02
22.057673931121826,15.23,4.21,0.68,15.81
22.059185028076172,16.28,4.19,2.28,16.96
22.07351779937744,14.9,4.11,2.51,15.65
22.075002908706665,13.82,3.56,2.54,14.49
22.090211868286133,12.75,3.7,3.03,13.61
22.121988773345947,11.75,4.56,3.9,13.19
22.123305797576904,10.85,5.53,4.9,13.12
22.124326705932617,7.91,2.64,3.38,8.99
22.141681909561157,0.06,-1.05,-0.57,1.19
22.14273500442505,-7.38,0.74,-2.37,7.78
22.158357858657837,-5.71,4.17,0.88,7.12
22.159842014312744,1.25,4.04,2.14,4.73
22.173585891723633,4.78,2.92,1.48,5.79
22.17501974105835,4.62,2.17,1.36,5.28
22.189759731292725,3.72,0.75,0.73,3.86
22.21925973892212,3.89,1.31,0.58,4.14
22.22055983543396,4.19,-0.39,0.47,4.23
22.221596717834473,2.73,-1.17,0.64,3.03
22.24148178100586,2.1,-1.01,1.1,2.57
22.24251079559326,2.06,-0.69,0.96,2.37
22.25830602645874,2.44,-0.05,1.11,2.68
22.25974702835083,2.52,0.47,0.86,2.7
22.2734317779541,1.99,0.31,0.39,2.05
22.27488088607788,1.27,0.04,0.16,1.28
22.289962768554688,0.68,-0.05,0.13,0.69
22.291419982910156,0.29,0.01,0.31,0.42
22.336864948272705,-0.01,0.13,0.56,0.57
22.3380389213562,-0.26,0.07,0.67,0.72
22.339043855667114,-0.43,-0.17,0.57,0.73
22.358588695526123,-0.44,-0.31,0.38,0.65
22.35995578765869,-0.23,-0.22,0.03,0.31
22.374791860580444,0.11,0.07,-0.39,0.41
22.3762149810791,0.4,0.29,-0.85,0.98
22.39052677154541,0.72,0.42,-1.19,1.45
22.392005920410156,0.92,0.32,-1.42,1.72
22.40654993057251,1.07,0.1,-1.21,1.61
22.436803817749023,1.23,-0.01,-0.71,1.42
22.43876886367798,1.17,-0.13,-0.27,1.2
22.439748764038086,0.85,-0.19,-0.07,0.87
22.458401679992676,0.5,-0.21,0.15,0.56
22.459444999694824,0.1,-0.14,0.75,0.76
22.47390079498291,-0.5,-0.08,0.96,1.08
22.475361824035645,-0.75,0.02,0.59,0.95
22.49060869216919,-0.5,0.13,0.16,0.54
22.492048740386963,0.0,0.12,-0.17,0.2
22.50649070739746,0.65,0.05,-0.4,0.76
22.53504180908203,1.01,-0.11,-0.52,1.14
22.536295890808105,0.72,-0.07,-0.26,0.76
22.53727674484253,0.33,0.12,-0.01,0.35
22.539597988128662,0.33,0.21,-0.09,0.4
22.54084587097168,0.37,0.16,0.13,0.42
22.546154975891113,0.31,0.01,0.01,0.31
22.55607581138611,0.09,0.02,-0.2,0.22
22.56608486175537,-0.07,0.13,-0.1,0.17
22.57596492767334,0.0,0.12,-0.13,0.17
22.586151838302612,0.02,0.03,-0.29,0.29
22.61617684364319,-0.16,-0.1,-0.54,0.57
22.617366790771484,-0.42,-0.12,-0.62,0.75
22.618468761444092,-0.64,0.01,-0.6,0.87
22.625481843948364,-0.9,0.21,-0.66,1.13
22.641631841659546,-1.1,0.42,-0.97,1.52
22.645294904708862,-1.09,0.56,-1.25,1.75
22.655447959899902,-1.2,0.7,-1.01,1.71
22.66526699066162,-1.46,0.77,-1.06,1.96
22.675368785858154,-2.02,0.72,-1.58,2.66
22.685423851013184,-2.67,0.52,-1.96,3.35
22.72131586074829,-2.93,0.52,-2.03,3.6
22.722439765930176,-2.86,0.74,-2.12,3.63
22.723447799682617,-2.56,1.05,-2.07,3.45
22.742148876190186,-2.28,1.4,-1.99,3.33
22.743177890777588,-1.8,1.61,-2.29,3.32
22.757827758789062,-1.59,1.9,-2.65,3.62
22.758826732635498,-1.69,3.2,-2.45,4.37
22.773859977722168,-2.07,4.98,-1.89,5.71
22.775365829467773,-2.41,4.77,-2.58,5.93
22.79021978378296,-2.66,5.0,-1.67,5.9
22.82143497467041,-3.36,4.98,-1.66,6.23
22.822786808013916,-4.41,5.24,-2.09,7.16
22.823859691619873,-5.0,5.65,-2.39,7.91
22.841960906982422,-5.09,4.96,-2.57,7.55
22.843045711517334,-4.83,4.44,-2.74,7.1
22.858726024627686,-4.9,4.13,-3.62,7.36
22.860208988189697,-4.62,3.27,-3.76,6.79
22.873848915100098,-3.56,2.73,-3.6,5.75
22.875339031219482,-2.76,2.74,-4.05,5.61
22.890177726745605,-2.6,3.66,-4.65,6.46
22.920777797698975,-3.09,5.0,-5.1,7.78
22.922080993652344,-3.48,6.14,-4.61,8.42
22.923089027404785,-1.54,7.62,-2.64,8.21
22.942131996154785,1.94,9.19,-1.36,9.49
22.94318199157715,1.31,6.48,-2.11,6.93
22.95812702178955,-1.54,2.73,-3.75,4.88
22.95916175842285,-3.99,0.58,-4.36,5.93
22.973922729492188,-5.51,-1.6,-4.25,7.14
22.975339889526367,-6.36,-4.39,-4.5,8.94
22.99022388458252,-3.74,-5.97,-3.44,7.83
23.020044803619385,2.04,-3.19,-1.41,4.04
23.021362781524658,1.68,-2.95,-1.1,3.56
23.022424697875977,-2.35,-3.12,-2.06,4.41
23.04204487800598,-6.09,-2.96,-3.08,7.43
23.043076992034912,-8.38,-3.01,-2.99,9.39
23.058636903762817,-9.06,-2.99,-2.0,9.74
23.060101985931396,-8.58,-3.18,-0.88,9.19
23.074041843414307,-7.73,-3.66,-0.13,8.55
23.075531005859375,-7.0,-4.1,0.09,8.11
23.09029984474182,-6.46,-4.04,-0.1,7.61
23.092131853103638,-5.93,-3.78,-0.39,7.04
23.135977745056152,-5.27,-3.62,-0.47,6.41
23.137120723724365,-4.72,-3.74,-0.41,6.03
23.138082027435303,-4.42,-3.86,-0.44,5.88
23.15922975540161,-4.52,-3.84,-0.45,5.94
23.16025400161743,-4.83,-3.63,-0.11,6.04
23.175107955932617,-5.25,-3.14,0.53,6.14
23.17657780647278,-5.7,-2.44,1.07,6.29
23.191073894500732,-5.82,-1.48,0.62,6.03
23.192535877227783,-5.12,-0.45,-0.66,5.18
23.206876754760742,-3.43,0.42,-1.97,3.97
23.23635768890381,-1.16,1.17,-2.41,2.91
23.237765789031982,0.97,2.08,-1.45,2.71
23.23878288269043,2.43,2.64,0.04,3.58
23.25882577896118,3.42,2.65,1.23,4.49
23.259867906570435,4.01,2.77,1.7,5.16
23.27518582344055,3.65,3.14,1.7,5.1
23.276543855667114,3.28,4.54,2.07,5.97
23.291616916656494,3.63,5.8,2.36,7.23
23.293015956878662,4.61,6.23,2.16,8.04
23.30759882926941,6.17,6.29,2.05,9.04
23.337485790252686,7.49,7.02,2.38,10.53
23.338826894760132,6.78,13.12,1.92,14.89
23.3398380279541,11.49,9.24,1.01,14.77
23.358795881271362,17.31,5.69,2.62,18.4
23.35981798171997,16.61,3.82,3.12,17.32
23.375300884246826,14.2,4.34,2.7,15.09
23.376771926879883,13.57,6.19,3.42,15.3
23.390859842300415,14.15,7.38,4.6,16.6
23.39233684539795,13.64,7.12,6.05,16.53
23.406909942626953,10.84,3.52,5.69,12.73
23.43669080734253,2.91,-2.2,1.4,3.9
23.43802499771118,-6.09,-3.06,-2.13,7.14
23.439103841781616,-8.48,-0.3,-1.14,8.56
23.458969831466675,-1.82,2.57,2.1,3.78
23.460004806518555,3.19,3.64,3.43,5.93
23.474957942962646,6.73,4.07,2.88,8.37
23.476003885269165,9.7,1.74,1.22,9.93
23.49086284637451,8.07,1.95,0.28,8.3
23.492352962493896,4.06,0.83,1.11,4.29
23.50698471069336,1.2,-1.6,1.01,2.24
23.535252809524536,1.03,-1.83,1.06,2.35
23.536641836166382,2.01,-1.04,1.39,2.65
23.537571907043457,2.9,-0.26,1.72,3.38
23.54003095626831,3.09,0.16,2.02,3.69
23.54140567779541,2.2,-0.12,1.64,2.74
23.54843783378601,0.87,-0.24,0.89,1.26
23.558669805526733,-0.08,0.03,0.28,0.29
23.56850290298462,-0.55,0.26,-0.26,0.66
23.578595876693726,-0.43,0.19,-0.4,0.61
23.58852481842041,-0.12,0.16,-0.27,0.33
23.623701810836792,0.0,0.19,-0.34,0.38
23.62488079071045,-0.06,0.22,-0.58,0.62
23.625858783721924,0.12,0.25,-0.8,0.84
23.64261484146118,0.3,0.19,-0.91,0.97
23.643657684326172,0.41,0.09,-0.8,0.9
23.658514976501465,0.49,0.04,-0.53,0.72
23.659564971923828,0.59,0.0,-0.38,0.7
23.67402172088623,0.56,-0.09,-0.28,0.63
23.67758083343506,0.48,0.02,0.17,0.5
23.69093084335327,0.23,0.1,0.52,0.57
23.7235107421875,-0.11,0.11,0.47,0.49
23.72485089302063,-0.14,0.07,0.18,0.23
23.725836753845215,0.11,-0.06,-0.2,0.23
23.742523908615112,0.33,-0.02,-0.27,0.42
23.743512868881226,0.33,0.08,-0.43,0.54
23.758327960968018,0.17,0.1,-0.66,0.68
23.75937581062317,0.16,0.05,-0.57,0.59
23.7741858959198,0.07,0.05,-0.38,0.38
23.777124881744385,-0.18,0.12,-0.44,0.49
23.79051971435547,-0.25,0.12,-0.28,0.39
23.82480478286743,-0.16,0.02,0.03,0.16
23.826112747192383,-0.1,0.06,0.01,0.11
23.827103853225708,-0.13,0.1,-0.07,0.17
23.842509746551514,-0.13,0.19,-0.18,0.29
23.84347677230835,-0.16,0.19,-0.26,0.35
23.858413696289062,-0.23,0.15,-0.28,0.39
23.859408855438232,-0.34,0.11,-0.2,0.4
23.874335765838623,-0.38,0.16,-0.14,0.43
23.876295804977417,-0.38,0.21,-0.11,0.44
23.890615940093994,-0.39,0.26,-0.13,0.48
23.896315813064575,-0.36,0.22,-0.27,0.5
23.937089920043945,-0.44,0.14,-0.53,0.7
23.938273906707764,-0.54,0.09,-0.93,1.07
23.939288854599,-0.44,0.2,-1.17,1.26
23.959393978118896,-0.36,0.34,-1.13,1.23
23.96044397354126,-0.46,0.45,-1.15,1.31
23.975547790527344,-0.77,0.49,-1.17,1.48
23.977062702178955,-1.24,0.51,-1.14,1.75
23.991257905960083,-1.82,0.67,-1.14,2.24
23.992647886276245,-2.42,0.84,-0.98,2.74
24.00732684135437,-2.65,1.18,-1.04,3.08
24.03661870956421,-2.83,1.63,-1.46,3.57
24.038081884384155,-3.02,2.31,-1.74,4.18
24.039095878601074,-2.56,2.86,-1.52,4.12
24.059544801712036,-2.06,2.85,-1.23,3.72
24.0605947971344,-1.95,2.72,-1.2,3.55
24.075838804244995,-2.02,2.75,-1.14,3.59
24.077334880828857,-2.26,3.11,-1.41,4.09
24.091163873672485,-2.7,3.62,-2.2,5.02
24.092617988586426,-3.24,3.93,-2.9,5.86
24.107406854629517,-3.76,4.32,-3.37,6.64
24.13673686981201,-4.38,4.85,-3.41,7.37
24.13808584213257,-5.29,5.28,-3.62,8.3
24.139086723327637,-5.93,4.93,-3.87,8.62
24.159621715545654,-5.82,4.43,-3.82,8.25
24.1606388092041,-5.36,4.16,-3.96,7.85
24.17546272277832,-5.02,3.64,-4.27,7.52
24.17676877975464,-4.08,3.1,-4.28,6.67
24.191927909851074,-2.9,2.7,-4.47,5.97
24.193349838256836,-3.0,3.79,-5.23,7.12
24.20743179321289,-3.41,6.11,-5.26,8.75
24.235748767852783,-2.58,8.66,-4.26,9.98
24.237138748168945,0.95,12.08,-1.94,12.27
24.238162994384766,1.97,10.44,-1.48,10.72
24.24055790901184,-0.15,5.42,-2.39,5.92
24.243428707122803,-2.9,2.81,-4.0,5.68
24.253427028656006,-4.7,0.92,-5.05,6.95
24.263543844223022,-6.16,-2.74,-6.06,9.06
24.273660898208618,-4.96,-6.05,-5.43,9.52
24.283755779266357,1.59,-2.69,-2.59,4.05
24.2935209274292,2.31,-1.7,-1.6,3.28
24.331177711486816,-2.15,-2.78,-2.91,4.56
24.33232069015503,-6.33,-3.08,-3.82,8.0
24.333285808563232,-8.73,-3.31,-3.4,9.93
24.34324598312378,-9.23,-3.52,-2.14,10.1
24.344266891479492,-8.58,-3.81,-0.78,9.42
24.35886788368225,-7.48,-4.56,0.19,8.76
24.362534999847412,-6.55,-5.53,0.48,8.58
24.373978853225708,-6.07,-5.85,0.22,8.43
24.382717847824097,-5.84,-5.35,-0.06,7.92
24.392640829086304,-5.6,-4.85,-0.32,7.41
24.431063890457153,-5.48,-4.61,-0.33,7.16
24.432411909103394,-5.36,-4.38,-0.1,6.92
24.433435916900635,-5.4,-4.05,0.28,6.75
24.442814826965332,-5.67,-3.63,0.37,6.74
24.44386887550354,-5.89,-2.81,-0.03,6.52
24.459133863449097,-5.6,-1.79,-0.72,5.92
24.461707830429077,-4.36,-0.95,-1.43,4.68
24.474661827087402,-2.27,-0.35,-1.94,3.0
24.481709003448486,-0.02,-0.01,-1.89,1.89
24.491691827774048,1.42,0.44,-1.07,1.83
24.529348850250244,2.01,0.78,0.05,2.15
24.53063201904297,2.49,1.31,0.87,2.94
24.53164577484131,2.77,2.0,1.08,3.58
24.542495727539062,2.62,2.97,1.24,4.15
24.543558835983276,2.78,4.39,1.69,5.46
24.5590877532959,3.73,5.64,1.91,7.02
24.560822010040283,5.21,6.27,1.77,8.34
24.574347019195557,6.93,6.68,1.57,9.75
24.581299781799316,8.82,6.91,1.56,11.31
24.59107494354248,10.76,6.57,1.53,12.69
24.629530906677246,10.51,8.35,1.13,13.47
24.630846977233887,10.09,10.76,0.3,14.75
24.63187074661255,15.27,5.57,0.21,16.25
24.64288568496704,17.03,4.92,1.97,17.83
24.643954753875732,15.21,5.12,2.83,16.29
24.659130811691284,13.04,5.38,3.44,14.51
24.6601619720459,11.47,6.73,5.58,14.42
24.6745388507843,10.2,8.24,8.01,15.36
24.68012285232544,7.5,5.25,7.4,11.77
24.69147777557373,-0.66,-0.96,2.66,2.9
24.70013189315796,-8.92,-1.02,-0.35,8.98
24.734363794326782,-7.34,1.39,1.43,7.6
24.735529899597168,0.67,1.2,2.56,2.9
24.736759901046753,5.52,0.03,1.84,5.81
24.739621877670288,7.08,1.56,0.82,7.29
24.75928497314453,6.59,4.17,0.71,7.83
24.760332822799683,4.32,3.37,0.06,5.47
24.774428844451904,3.6,2.09,-0.43,4.18
24.779266834259033,3.83,-0.57,-0.53,3.9
24.79101586341858,2.83,-1.18,0.22,3.07
24.79928970336914,2.69,-0.75,1.26,3.06
24.834417819976807,2.8,-0.29,1.1,3.02
24.835601806640625,2.67,0.21,1.11,2.89
24.836840867996216,1.99,0.32,0.85,2.18
24.83903479576111,1.06,-0.11,0.17,1.07
24.859418869018555,0.3,-0.36,-0.16,0.49
24.860455989837646,-0.26,-0.11,-0.06,0.28
24.874499797821045,-0.45,0.18,0.3,0.56
24.87853193283081,-0.46,0.24,0.63,0.81
24.891175746917725,-0.39,0.06,0.76,0.85
24.89855980873108,-0.23,-0.2,0.48,0.56
24.932798862457275,0.15,-0.22,0.18,0.32
24.934025764465332,0.62,-0.06,-0.11,0.63
24.935261726379395,0.96,0.17,-0.53,1.1
24.94151496887207,1.27,0.21,-0.74,1.48
24.948129892349243,1.42,0.14,-0.92,1.69
24.959614753723145,1.41,0.06,-1.02,1.74
24.9679217338562,1.17,-0.02,-0.94,1.5
24.97808599472046,0.73,-0.04,-0.69,1.0
24.98795795440674,0.36,-0.05,-0.34,0.49
24.998132705688477,0.33,-0.07,0.07,0.34
25.029067993164062,0.38,-0.1,0.22,0.45
25.030454874038696,0.21,-0.16,-0.03,0.26
25.031470775604248,-0.11,-0.09,-0.24,0.27
25.043272018432617,-0.29,-0.04,0.19,0.34
25.047346830368042,-0.22,-0.01,0.41,0.46
25.05915379524231,-0.22,0.06,0.04,0.23
25.067441940307617,-0.23,0.08,-0.24,0.34
25.077345848083496,-0.03,0.01,-0.62,0.62
25.087472915649414,0.2,-0.05,-0.66,0.69
25.09709882736206,0.17,-0.05,-0.43,0.46
25.137753009796143,0.02,-0.03,-0.21,0.21
25.139161825180054,-0.12,0.03,0.18,0.21
25.140053749084473,-0.32,0.06,0.48,0.58
25.159871816635132,-0.35,0.08,0.34,0.49
25.160921812057495,-0.31,0.13,0.2,0.39
25.17601490020752,-0.14,0.18,0.0,0.22
25.177424907684326,0.11,0.18,-0.26,0.33
25.191459894180298,0.38,0.1,-0.43,0.58
25.192843914031982,0.33,-0.05,-0.4,0.52
25.20763087272644,0.17,-0.06,-0.4,0.43
25.237578868865967,0.1,0.06,-0.23,0.25
25.23886775970459,-0.17,0.16,-0.09,0.25
25.239755868911743,-0.5,0.34,-0.22,0.64
25.26136088371277,-0.83,0.49,-0.45,1.06
25.262409687042236,-1.09,0.52,-0.96,1.54
25.276036739349365,-1.28,0.48,-1.27,1.86
25.27745294570923,-1.43,0.49,-1.36,2.03
25.29172372817993,-1.38,0.51,-1.36,2.0
25.29310894012451,-1.64,0.43,-1.37,2.17
25.307785987854004,-1.93,0.73,-1.73,2.69
25.3380708694458,-1.82,1.02,-1.96,2.86
25.33938479423523,-1.67,1.18,-1.91,2.79
25.340413808822632,-1.69,1.28,-2.05,2.94
25.359829902648926,-1.46,1.55,-1.93,2.87
25.36089277267456,-1.32,2.05,-1.91,3.09
25.37601089477539,-1.73,3.2,-1.42,3.9
25.37747287750244,-2.39,4.53,-0.8,5.18
25.391915798187256,-2.82,4.07,-2.04,5.35
25.393418788909912,-2.86,4.17,-1.58,5.29
25.407838821411133,-3.3,3.92,-1.92,5.47
25.439215898513794,-3.78,4.19,-2.54,6.18
25.44055700302124,-3.96,4.72,-2.88,6.8
25.441566944122314,-4.13,4.98,-3.24,7.23
25.459983825683594,-4.27,4.97,-3.21,7.29
25.460978984832764,-4.52,4.93,-3.46,7.53
25.475759029388428,-4.86,4.5,-4.06,7.76
25.476794719696045,-4.91,4.15,-3.92,7.52
25.491955757141113,-4.37,3.79,-3.99,7.02
25.493408679962158,-3.92,3.55,-4.78,7.12
25.507994890213013,-3.89,4.2,-5.48,7.92
25.509469985961914,-4.03,5.55,-5.75,8.95
25.554765701293945,-3.56,6.57,-5.24,9.12
25.55594491958618,-1.21,8.16,-3.29,8.88
25.556954860687256,3.42,10.83,-0.84,11.38
25.576319694519043,3.11,6.96,-1.11,7.7
25.577366828918457,-0.08,2.19,-3.17,3.85
25.59264373779297,-2.88,-0.14,-4.66,5.47
25.59367799758911,-4.83,-2.89,-4.82,7.41
25.6086528301239,-5.11,-6.94,-4.54,9.74
25.61013388633728,0.68,-6.02,-1.99,6.37
25.624722957611084,2.81,-4.36,-0.27,5.19
25.653870820999146,-1.56,-4.29,-1.74,4.88
25.65517282485962,-5.69,-4.08,-3.35,7.76
25.656181812286377,-8.19,-4.14,-3.21,9.72
25.67672085762024,-8.52,-4.15,-2.18,9.72
25.677676677703857,-7.59,-4.29,-1.02,8.77
25.69294285774231,-6.41,-5.07,-0.33,8.17
25.69397497177124,-5.82,-6.07,-0.22,8.41
25.70829486846924,-5.82,-6.03,-0.36,8.38
25.7096529006958,-5.91,-5.39,-0.59,8.02
25.72465991973877,-5.86,-4.69,-0.84,7.55
25.755676746368408,-5.63,-4.12,-0.73,7.01
25.757064819335938,-5.31,-3.63,-0.22,6.43
25.758090019226074,-5.11,-3.31,0.33,6.09
25.7763729095459,-5.15,-2.77,0.49,5.86
25.77739381790161,-5.35,-2.0,-0.16,5.71
25.79263973236084,-5.26,-1.13,-1.23,5.51
25.793672800064087,-4.31,-0.1,-1.84,4.68
25.808703899383545,-2.57,0.49,-1.87,3.21
25.810170888900757,-1.0,0.64,-1.3,1.76
25.824939727783203,-0.42,0.58,-0.62,0.94
25.85573101043701,-0.19,1.03,-0.14,1.05
25.857101917266846,0.39,2.14,0.1,2.17
25.85811185836792,1.11,3.08,0.17,3.27
25.876795768737793,1.6,3.67,0.1,4.0
25.87783193588257,2.01,4.11,0.24,4.58
25.892815828323364,2.6,4.59,0.72,5.32
25.893836975097656,3.36,4.81,0.94,5.94
25.908418893814087,4.15,4.79,0.67,6.37
25.90989589691162,5.07,4.99,0.51,7.13
25.9249267578125,6.73,5.19,1.01,8.55
25.955805778503418,8.24,6.1,1.28,10.33
25.957114696502686,7.31,11.42,0.82,13.58
25.958104848861694,11.07,8.11,0.12,13.72
25.976964950561523,15.69,5.32,2.12,16.7
25.978024005889893,15.19,3.85,3.87,16.14
25.9928297996521,13.12,4.13,4.81,14.57
25.99385690689087,11.98,4.9,6.12,14.31
26.00887680053711,11.52,4.86,7.36,14.5
26.01037287712097,10.78,3.94,7.99,13.98
26.025012969970703,9.67,1.84,7.39,12.3
26.054550886154175,5.89,-2.53,2.98,7.06
26.055957794189453,-1.3,-3.43,-1.97,4.16
26.05696678161621,-4.49,2.41,-2.33,5.6
26.07650899887085,-1.79,8.48,2.19,8.93
26.0775728225708,4.41,6.97,3.97,9.15
26.09292483329773,8.75,-0.94,1.56,8.93
26.093971729278564,7.98,-1.84,0.22,8.19
26.108820915222168,5.89,-0.71,0.66,5.96
26.110278844833374,3.68,-0.48,0.88,3.81
26.125054836273193,2.62,-0.66,0.69,2.78
26.155426025390625,2.08,-0.57,0.62,2.24
26.156744956970215,1.84,-0.2,0.92,2.06
26.15775775909424,1.63,-0.1,1.22,2.03
26.176663875579834,1.11,-0.42,0.98,1.53
26.177684783935547,0.38,-0.27,0.32,0.56
26.192571878433228,-0.33,0.01,-0.35,0.48
26.193598747253418,-0.73,0.09,-0.71,1.02
26.208611011505127,-0.79,0.23,-0.91,1.22
26.209823846817017,-0.54,0.31,-0.54,0.82
26.224973678588867,-0.22,0.31,-0.15,0.4
26.25383996963501,-0.13,0.17,-0.12,0.24
26.255305767059326,0.04,-0.01,-0.31,0.31
26.256338834762573,0.48,-0.1,-0.65,0.81
26.277013778686523,0.83,-0.08,-0.82,1.16
26.278039932250977,0.91,-0.02,-0.5,1.03
26.29320788383484,0.65,0.05,-0.01,0.65
26.294251918792725,0.11,-0.01,0.27,0.29
26.30873680114746,-0.21,0.05,0.47,0.51
26.310194969177246,-0.16,0.03,0.46,0.48
26.325260877609253,0.11,0.01,0.25,0.27
26.32669186592102,0.62,0.0,0.1,0.62
26.371248722076416,0.97,0.0,0.16,0.98
26.37234401702881,0.8,-0.06,0.1,0.8
26.37333583831787,0.31,-0.08,-0.2,0.37
26.39391589164734,-0.14,-0.02,-0.47,0.49
26.394961833953857,-0.24,0.04,-0.41,0.47
26.409324884414673,0.02,0.06,-0.16,0.17
26.410305976867676,0.16,0.02,0.08,0.18
26.426172733306885,0.11,-0.01,0.21,0.23
26.427565813064575,-0.07,-0.01,0.23,0.24
26.441855907440186,-0.15,0.1,0.25,0.3
26.47052574157715,-0.06,0.18,0.11,0.21
26.471797943115234,0.18,0.11,-0.09,0.22
26.472764015197754,0.41,0.02,-0.2,0.45
26.49402379989624,0.56,0.07,-0.24,0.61
26.49506902694702,0.4,0.16,-0.35,0.55
26.50860071182251,0.06,0.16,-0.49,0.51
26.509572982788086,-0.29,0.2,-0.78,0.85
26.525755882263184,-0.52,0.24,-0.98,1.13
26.527212858200073,-0.65,0.31,-1.12,1.33
26.541908740997314,-0.76,0.44,-1.31,1.57
26.570697784423828,-0.91,0.53,-1.68,1.98
26.572162866592407,-1.06,0.65,-1.86,2.23
26.57315969467163,-1.11,0.88,-1.64,2.16
26.593949794769287,-1.34,0.93,-1.52,2.22
26.59501600265503,-1.62,1.0,-1.41,2.36
26.609818935394287,-2.09,1.1,-1.39,2.74
26.610840797424316,-2.54,1.18,-1.67,3.26
26.625957012176514,-3.1,1.51,-1.67,3.83
26.627318859100342,-3.5,2.38,-1.09,4.37
26.64173984527588,-3.14,3.26,-1.4,4.73
26.6717267036438,-2.86,3.66,-2.34,5.2
26.673096895217896,-2.64,4.35,-1.99,5.46
26.674112796783447,-2.76,4.36,-2.48,5.72
26.693728923797607,-3.18,4.39,-2.98,6.18
26.69476890563965,-3.58,4.59,-3.21,6.64
26.7098228931427,-4.1,4.77,-3.35,7.12
26.710867881774902,-4.89,5.21,-3.67,8.03
26.725627899169922,-5.44,5.36,-3.84,8.54
26.7271089553833,-5.33,4.79,-3.6,8.01
26.741954803466797,-5.09,4.17,-3.88,7.63
26.770341873168945,-4.8,3.57,-4.26,7.34
26.771708965301514,-4.04,3.05,-4.18,6.56
26.772652864456177,-2.75,2.88,-4.19,5.78
26.77477502822876,-2.14,3.57,-4.7,6.27
26.775962829589844,-2.15,4.86,-4.74,7.12
26.77726984024048,-1.51,6.82,-4.09,8.09
26.778477907180786,1.21,9.78,-2.91,10.27
26.78409481048584,1.69,9.13,-3.09,9.78
26.79460096359253,-1.17,4.01,-4.28,5.98
26.80410671234131,-3.77,0.89,-4.95,6.28
26.83746886253357,-5.28,-1.14,-4.72,7.17
26.838624954223633,-5.86,-4.23,-4.92,8.74
26.839427947998047,-2.49,-4.69,-3.22,6.21
26.860684871673584,3.11,-2.34,-1.24,4.08
26.861527919769287,1.34,-3.07,-1.08,3.51
26.876267910003662,-3.04,-3.46,-2.91,5.44
26.87731170654297,-6.64,-3.24,-3.85,8.33
26.892229795455933,-8.34,-3.24,-3.23,9.51
26.89331579208374,-8.28,-3.49,-2.07,9.22
26.90798282623291,-7.28,-4.04,-0.95,8.37
26.937625885009766,-6.19,-4.97,-0.32,7.94
26.93878698348999,-5.76,-5.76,-0.23,8.14
26.939581871032715,-5.82,-5.68,-0.54,8.15
26.96090602874756,-5.86,-5.01,-0.86,7.75
26.961978912353516,-5.49,-4.29,-0.93,7.02
26.97672390937805,-5.02,-3.91,-0.84,6.41
26.977765798568726,-4.7,-3.66,-0.65,5.99
26.992498874664307,-4.73,-3.34,-0.33,5.79
26.993549823760986,-5.04,-2.89,-0.29,5.81
27.008646965026855,-5.07,-2.12,-0.81,5.55
27.03999376296997,-4.32,-1.22,-1.42,4.7
27.041831016540527,-2.66,-0.59,-1.65,3.18
27.042853832244873,-0.99,-0.5,-1.49,1.85
27.06054401397705,-0.24,-0.28,-0.93,1.0
27.06162190437317,-0.26,0.16,-0.08,0.31
27.076481819152832,-0.16,0.87,0.74,1.15
27.077518939971924,0.08,1.66,1.32,2.12
27.092631816864014,0.08,2.42,1.81,3.02
27.094019889831543,0.09,3.28,2.23,3.96
27.108376026153564,0.68,4.23,2.37,4.89
27.112218856811523,1.97,5.1,2.3,5.93
27.1562237739563,3.71,5.6,2.16,7.05
27.157383918762207,5.78,5.69,1.69,8.28
27.15837788581848,7.78,5.46,1.06,9.56
27.17726182937622,9.45,5.09,0.52,10.74
27.178308963775635,10.93,4.7,0.16,11.89
27.193156719207764,11.18,5.55,0.26,12.48
27.19447374343872,9.05,10.0,0.3,13.49
27.20909285545349,12.09,5.81,0.57,13.42
27.210543870925903,14.94,3.71,2.99,15.68
27.22670269012451,13.67,2.81,4.75,14.74
27.257362842559814,11.2,2.68,5.43,12.73
27.258683681488037,9.12,3.67,6.81,11.95
27.25969886779785,7.96,4.38,8.43,12.39
27.27723789215088,7.59,3.41,8.92,12.19
27.278283834457397,7.04,-0.41,6.3,9.45
27.292337894439697,2.89,-4.36,-0.48,5.25
27.293365955352783,-1.25,0.88,-3.67,3.97
27.309271812438965,-0.48,11.48,0.54,11.5
27.310763835906982,4.32,10.54,4.03,12.08
27.325459003448486,6.42,0.47,1.48,6.6
27.354642868041992,4.86,-1.85,0.48,5.22
27.356063842773438,3.73,-2.13,1.62,4.59
27.35707688331604,2.76,-2.19,1.36,3.77
27.377234935760498,2.32,-1.02,0.17,2.54
27.37828302383423,1.84,0.02,-0.24,1.85
27.393659830093384,1.6,-0.01,0.54,1.68
27.394678831100464,1.04,-0.28,1.5,1.84
27.409328937530518,0.33,-0.55,1.96,2.06
27.410806894302368,0.1,-0.44,1.5,1.56
27.42577075958252,0.06,-0.04,0.79,0.79
27.455758810043335,-0.07,0.33,0.06,0.34
27.457074880599976,-0.32,0.44,-0.37,0.65
27.458086013793945,-0.44,0.4,-0.2,0.62
27.47715473175049,-0.48,0.21,-0.24,0.57
27.47822093963623,-0.12,0.02,-0.7,0.71
27.493812799453735,0.59,0.01,-0.98,1.14
27.494836807250977,1.22,-0.04,-1.05,1.61
27.50895881652832,1.62,-0.14,-0.69,1.76
27.510079860687256,1.48,-0.17,-0.19,1.5
27.5256929397583,0.78,-0.02,0.13,0.79
27.55377197265625,0.25,0.17,0.38,0.48
27.556036949157715,0.08,0.16,0.51,0.54
27.557068824768066,0.38,0.13,0.41,0.57
27.57781481742859,0.8,-0.02,0.39,0.89
27.578874826431274,1.06,-0.25,0.22,1.11
27.59363079071045,0.99,-0.25,0.03,1.02
27.5945987701416,0.73,-0.15,0.0,0.74
27.60908079147339,0.61,-0.04,-0.03,0.61
27.610538005828857,0.4,0.09,-0.05,0.41
27.625691890716553,0.3,0.18,0.0,0.34
27.65443468093872,0.33,0.15,0.06,0.36
27.655788898468018,0.32,-0.03,0.07,0.32
27.656754970550537,0.18,-0.17,0.07,0.25
27.67768383026123,0.05,-0.03,0.02,0.06
27.678703784942627,-0.2,0.01,-0.27,0.33
27.694169998168945,-0.34,0.11,-0.42,0.55
27.695226907730103,-0.19,0.2,-0.27,0.38
27.70951795578003,-0.05,0.26,-0.23,0.35
27.711005687713623,0.0,0.21,-0.32,0.38
27.725785732269287,0.0,0.13,-0.43,0.44
27.75351881980896,-0.03,0.06,-0.41,0.41
27.754862785339355,-0.1,0.05,-0.34,0.35
27.755825996398926,-0.21,0.16,-0.29,0.39
27.758156776428223,-0.32,0.28,-0.4,0.58
27.75970482826233,-0.48,0.26,-0.63,0.83
27.7669198513031,-0.7,0.34,-0.87,1.16
27.777089834213257,-0.84,0.5,-1.19,1.54
27.78696584701538,-1.0,0.59,-1.52,1.91
27.796885013580322,-1.15,0.61,-1.59,2.05
27.8071928024292,-1.08,0.61,-1.17,1.7
27.84340786933899,-1.3,0.6,-0.98,1.73
27.844528675079346,-1.66,0.68,-1.26,2.19
27.845337867736816,-2.17,0.89,-1.49,2.77
27.861116886138916,-2.68,1.19,-1.53,3.3
27.862154960632324,-3.4,1.87,-1.51,4.16
27.876816749572754,-3.64,2.43,-2.23,4.91
27.8778178691864,-2.99,2.88,-1.75,4.5
27.89275074005127,-2.5,3.26,-1.42,4.34
27.89598274230957,-2.36,3.27,-1.71,4.38
27.908830881118774,-2.48,3.61,-1.74,4.71
27.916072845458984,-2.89,4.16,-2.09,5.47
27.952232837677002,-3.34,4.58,-2.72,6.28
27.953439712524414,-3.7,4.74,-3.06,6.74
27.954681873321533,-4.26,5.07,-3.26,7.38
27.95728874206543,-4.77,5.18,-3.18,7.72
27.976778030395508,-5.26,5.09,-3.12,7.95
27.97780179977417,-5.51,4.66,-3.41,7.98
27.991484880447388,-5.12,3.89,-3.33,7.24
27.995163917541504,-4.26,2.94,-3.16,6.06
28.008994817733765,-2.96,2.1,-3.22,4.85
28.015666961669922,-1.55,1.69,-3.67,4.32
28.05420684814453,-1.49,2.53,-4.39,5.28
28.05535387992859,-1.78,4.33,-4.01,6.16
28.05636978149414,-0.14,6.83,-2.48,7.26
28.077982902526855,2.33,8.45,-1.96,8.98
28.07902479171753,1.33,6.11,-3.09,6.97
28.094032764434814,-1.45,3.32,-4.34,5.65
28.095529794692993,-3.84,1.56,-4.53,6.14
28.109749794006348,-5.56,-0.52,-3.82,6.76
28.1112117767334,-6.52,-2.95,-3.5,7.96
28.12602186203003,-5.0,-5.85,-3.37,8.4
28.15451669692993,0.78,-3.77,-1.62,4.17
28.15593385696411,1.77,-2.44,-0.8,3.11
28.156919956207275,-1.94,-3.32,-1.83,4.25
28.17756175994873,-5.63,-3.09,-2.88,7.03
28.17860698699951,-7.85,-3.2,-2.76,8.91
28.194133758544922,-8.48,-3.43,-1.88,9.33
28.19513702392578,-7.98,-3.58,-0.88,8.79
28.21085286140442,-7.04,-3.89,-0.16,8.04
28.212312698364258,-6.18,-4.32,0.18,7.54
28.226801872253418,-5.77,-4.63,0.14,7.39
28.255661964416504,-5.57,-4.44,-0.15,7.12
28.25703477859497,-5.23,-4.04,-0.43,6.62
28.25804090499878,-4.63,-3.73,-0.56,5.97
28.27757978439331,-4.09,-3.46,-0.45,5.37
28.27862787246704,-3.99,-3.26,-0.33,5.16
28.293853759765625,-4.36,-2.78,-0.35,5.18
28.294874906539917,-4.8,-2.01,-0.65,5.24
28.309590816497803,-4.65,-1.28,-1.19,4.96
28.311052799224854,-3.54,-0.63,-1.59,3.93
28.325941801071167,-1.85,-0.28,-1.74,2.55
28.35524582862854,-0.53,-0.15,-1.52,1.61
28.356435775756836,-0.25,-0.01,-0.73,0.77
28.357234001159668,-0.15,0.61,0.33,0.7
28.377609729766846,0.58,1.57,1.2,2.05
28.378695964813232,1.17,2.29,1.64,3.05
28.39403772354126,1.09,2.72,1.87,3.47
28.395073890686035,0.83,3.58,2.2,4.28
28.409698963165283,1.23,4.69,2.23,5.33
28.41117572784424,2.67,5.41,1.98,6.34
28.426199913024902,4.9,5.57,1.46,7.56
28.45589280128479,7.18,5.47,0.72,9.05
28.457190990447998,9.05,5.52,-0.01,10.6
28.45819902420044,10.37,5.54,-0.67,11.77
28.47761082649231,8.13,10.89,-0.67,13.6
28.478588819503784,10.9,8.54,-1.58,13.93
28.494024753570557,17.46,4.99,1.02,18.18
28.49506688117981,17.66,3.43,3.61,18.34
28.509837865829468,14.22,3.05,4.01,15.08
28.511318683624268,11.31,3.86,5.02,12.96
28.526091814041138,10.01,4.41,6.59,12.77
28.55519986152649,9.04,4.19,7.51,12.47
28.556635856628418,7.58,2.64,7.53,11.0
28.557641983032227,4.05,-2.18,4.13,6.18
28.57796287536621,-2.63,-5.35,-0.72,6.0
28.578990936279297,-5.21,-2.12,-3.2,6.47
28.59430980682373,-0.3,4.33,-1.33,4.53
28.595338821411133,4.82,9.27,1.85,10.61
28.609915733337402,8.41,6.56,1.99,10.84
28.61137580871582,7.31,0.6,-0.53,7.35
28.626194953918457,3.86,-0.95,-0.33,3.98
28.656497955322266,2.01,-1.69,1.21,2.89
28.657744884490967,2.09,-1.65,1.53,3.07
28.658743858337402,2.59,-0.77,1.38,3.03
28.677729845046997,2.33,0.07,1.43,2.73
28.67877984046936,1.85,0.19,1.64,2.47
28.694116830825806,1.13,-0.18,1.62,1.98
28.695175886154175,0.68,-0.32,1.34,1.53
28.709863901138306,0.44,-0.31,0.89,1.04
28.711299896240234,0.24,-0.16,0.62,0.68
28.726058959960938,0.03,0.01,0.43,0.43
28.72745370864868,-0.22,0.14,0.4,0.47
28.772881031036377,-0.45,0.34,0.42,0.7
28.77406072616577,-0.72,0.35,0.13,0.81
28.775072813034058,-0.74,0.31,-0.43,0.91
28.795058727264404,-0.69,0.42,-1.01,1.29
28.796045780181885,-0.55,0.51,-1.4,1.58
28.810569763183594,-0.2,0.41,-1.45,1.52
28.811620712280273,0.39,0.22,-1.04,1.13
28.82666301727295,0.95,-0.04,-0.59,1.11
28.828150749206543,1.17,-0.12,-0.44,1.25
28.842772960662842,0.8,-0.11,-0.69,1.06
28.872179985046387,0.31,-0.09,-0.86,0.91
28.873483896255493,0.06,-0.17,-0.66,0.68
28.87451481819153,0.11,-0.2,-0.13,0.26
28.894940853118896,0.43,-0.14,0.02,0.45
28.89596390724182,0.73,-0.05,-0.05,0.73
28.910318851470947,0.66,-0.03,-0.3,0.72
28.911316871643066,0.6,-0.23,-0.33,0.72
28.926715850830078,0.55,-0.24,-0.08,0.6
28.92817497253418,0.19,0.03,-0.22,0.29
28.942811965942383,-0.23,0.14,-0.23,0.35
28.96985101699829,-0.52,0.0,-0.31,0.6
28.97110080718994,-0.64,-0.18,0.07,0.66
28.972105026245117,-0.55,-0.04,0.4,0.68
28.974493980407715,-0.22,0.18,0.25,0.37
28.97568368911743,0.06,0.25,-0.06,0.26
28.97785782814026,-0.05,0.17,-0.48,0.51
28.9878408908844,-0.34,0.08,-0.68,0.76
28.99803590774536,-0.37,0.03,-0.44,0.57
29.007747888565063,-0.32,0.09,-0.27,0.42
29.017859935760498,-0.2,0.11,-0.33,0.4
29.045159816741943,-0.08,0.14,-0.22,0.27
29.046327829360962,-0.12,0.14,-0.24,0.3
29.047303676605225,-0.31,0.07,-0.58,0.66
29.061973810195923,-0.23,-0.01,-0.66,0.69
29.067482948303223,0.04,0.09,-0.4,0.41
29.07755184173584,0.01,0.37,-0.21,0.42
29.08720874786377,-0.22,0.58,-0.41,0.74
29.097137928009033,-0.3,0.63,-0.76,1.03
29.107175827026367,-0.45,0.65,-1.06,1.32
29.117295742034912,-0.68,0.49,-1.28,1.53
29.15205478668213,-0.88,0.32,-1.32,1.61
29.153432846069336,-1.28,0.39,-1.51,2.01
29.154414892196655,-1.73,0.57,-1.33,2.25
29.15857481956482,-2.01,0.69,-0.93,2.31
29.177557945251465,-2.06,0.98,-0.62,2.36
29.17857599258423,-2.34,1.26,-0.59,2.72
29.193869829177856,-2.77,1.44,-0.8,3.22
29.19655990600586,-2.97,1.93,-1.2,3.73
29.210285902023315,-3.06,2.92,-1.8,4.59
29.21658992767334,-2.48,3.63,-1.65,4.69
29.25308084487915,-1.95,3.89,-1.5,4.6
29.25428080558777,-2.14,3.73,-1.79,4.65
29.255455017089844,-2.6,3.62,-1.87,4.83
29.25804376602173,-3.27,3.78,-1.96,5.36
29.278056859970093,-4.04,4.12,-2.41,6.25
29.279090881347656,-4.64,4.47,-3.03,7.11
29.293534755706787,-4.74,4.52,-3.09,7.24
29.295398712158203,-4.65,4.17,-3.09,6.96
29.309544801712036,-4.63,4.0,-3.72,7.16
29.31591796875,-4.58,3.8,-4.08,7.21
29.354710817337036,-4.14,3.34,-3.91,6.6
29.355859756469727,-3.52,3.0,-4.4,6.38
29.35685682296753,-3.4,3.85,-5.14,7.26
29.3592689037323,-3.91,5.27,-5.75,8.72
29.365099906921387,-4.06,6.35,-6.32,9.83
29.375157833099365,-3.99,6.65,-6.03,9.82
29.38490080833435,-1.44,8.53,-2.62,9.03
29.394816875457764,2.63,10.15,0.21,10.48
29.404757022857666,2.5,5.46,-0.59,6.03
29.414995908737183,-0.57,2.19,-3.2,3.91
29.45223569869995,-3.61,0.84,-5.11,6.31
29.453588008880615,-5.51,-0.98,-5.49,7.83
29.454588890075684,-5.89,-5.12,-5.22,9.38
29.45799493789673,-0.72,-5.33,-2.78,6.05
29.477837800979614,2.6,-3.65,-1.07,4.6
29.478875875473022,-1.01,-4.3,-1.71,4.73
29.493177890777588,-4.97,-4.28,-3.06,7.23
29.494218826293945,-7.47,-4.09,-3.54,9.22
29.50963592529297,-7.96,-4.17,-2.87,9.43
29.514044761657715,-7.21,-4.49,-1.91,8.7
29.52652597427368,-6.09,-5.21,-1.11,8.09
29.557036876678467,-5.22,-6.19,-0.76,8.13
29.558353900909424,-5.0,-6.63,-0.91,8.35
29.55937886238098,-5.14,-6.31,-1.18,8.22
29.57832098007202,-5.07,-5.59,-1.23,7.64
29.579368829727173,-4.68,-5.03,-0.99,6.94
29.594457864761353,-4.39,-4.74,-0.57,6.48
29.595465898513794,-4.55,-4.35,-0.19,6.29
29.610311031341553,-5.05,-3.6,-0.41,6.21
29.613345861434937,-5.28,-2.46,-1.39,5.98
29.626554012298584,-4.29,-1.44,-2.23,5.04
29.65449094772339,-2.15,-0.87,-2.63,3.5
29.655879974365234,0.09,-0.46,-2.22,2.26
29.656813859939575,1.26,-0.21,-1.37,1.87
29.662652015686035,1.17,-0.16,-0.46,1.26
29.6728618144989,1.29,0.42,0.41,1.41
29.682851791381836,1.88,1.23,0.81,2.38
29.692763805389404,2.15,1.83,1.03,3.0
29.70253086090088,2.14,2.51,1.41,3.58
29.712520837783813,2.39,3.24,1.68,4.36
29.722713947296143,2.97,3.86,1.65,5.14
29.7538800239563,3.97,4.49,1.65,6.21
29.754939794540405,5.62,4.95,1.71,7.68
29.756124019622803,7.47,4.86,1.56,9.04
29.76210379600525,8.68,4.82,1.31,10.01
29.77191400527954,7.24,10.32,0.66,12.62
29.78238296508789,7.6,11.49,-1.12,13.82
29.79210901260376,13.82,9.25,0.29,16.63
29.80189085006714,16.58,6.24,2.85,17.94
29.81171989440918,15.31,5.12,4.77,16.83
29.82185697555542,13.04,4.82,6.02,15.14
29.85431480407715,11.38,4.36,7.22,14.16
29.85526990890503,10.46,3.69,7.82,13.57
