time,ax,ay,az,atotal
0.0033578872680664062,-0.17,-0.25,-0.74,0.79
0.00475311279296875,-0.39,-0.31,-0.76,0.9
0.005803108215332031,-0.44,-0.01,-0.5,0.66
0.009654045104980469,-0.36,0.16,-0.16,0.42
0.02029895782470703,-0.38,0.05,0.03,0.38
0.029859066009521484,-0.18,0.02,0.14,0.22
0.03994297981262207,-0.13,0.01,0.1,0.16
0.04988503456115723,-0.17,0.02,-0.03,0.17
0.0594019889831543,-0.11,0.05,-0.13,0.17
0.06947994232177734,0.01,-0.06,-0.12,0.13
0.08200788497924805,0.12,-0.12,-0.03,0.17
0.10660409927368164,0.29,-0.06,0.09,0.3
0.10786581039428711,0.37,0.03,0.22,0.43
0.10908889770507812,0.24,0.02,0.3,0.38
0.11968088150024414,0.14,0.0,0.19,0.23
0.1291661262512207,0.11,-0.01,0.09,0.14
0.1390209197998047,0.07,-0.03,0.07,0.1
0.14906096458435059,0.09,-0.06,0.11,0.15
0.15883111953735352,0.18,-0.1,0.07,0.21
0.1688230037689209,0.28,-0.06,0.09,0.3
0.18173003196716309,0.42,-0.06,0.14,0.44
0.20682811737060547,0.38,-0.03,0.04,0.38
0.20804691314697266,0.15,0.03,-0.03,0.15
0.20918798446655273,0.0,0.03,-0.01,0.03
0.2191758155822754,-0.04,0.02,0.11,0.11
0.22839093208312988,0.0,0.0,0.14,0.14
0.2384171485900879,-0.01,0.04,0.11,0.11
0.2483348846435547,-0.03,0.03,0.08,0.09
0.25809693336486816,-0.06,-0.01,0.0,0.06
0.26798582077026367,-0.24,0.05,0.05,0.25
0.28161191940307617,-0.43,0.1,0.12,0.45
0.3067798614501953,-0.52,0.06,-0.07,0.52
0.308398962020874,-0.47,0.0,-0.23,0.52
0.30991506576538086,-0.09,0.04,0.02,0.1
0.32035398483276367,0.29,-0.04,0.18,0.34
0.32756900787353516,0.32,-0.1,0.07,0.34
0.3374359607696533,0.17,-0.02,-0.06,0.18
0.3474910259246826,0.09,0.0,-0.11,0.14
0.357403039932251,0.32,-0.01,0.0,0.32
0.3673069477081299,0.41,0.04,0.12,0.42
0.37779712677001953,0.21,0.09,0.18,0.29
0.40544986724853516,0.03,0.04,0.18,0.18
0.40692710876464844,-0.01,0.0,0.18,0.18
0.40839600563049316,0.05,-0.04,0.12,0.13
0.41982102394104004,0.07,-0.07,0.06,0.11
0.4266679286956787,0.0,-0.07,0.11,0.13
0.4366788864135742,-0.13,-0.01,0.15,0.19
0.44677305221557617,-0.11,-0.05,0.21,0.24
0.4563770294189453,-0.09,-0.01,0.23,0.24
0.4666738510131836,-0.17,-0.05,0.24,0.29
0.47980213165283203,-0.3,-0.06,0.25,0.39
0.5129029750823975,-0.36,0.04,0.2,0.41
0.514707088470459,-0.17,0.05,0.01,0.17
0.516110897064209,0.02,-0.01,-0.17,0.17
0.53643798828125,0.06,0.0,-0.18,0.18
0.5378539562225342,0.11,0.01,-0.16,0.19
0.5520820617675781,0.17,0.01,-0.06,0.18
0.5533709526062012,0.09,0.02,0.08,0.12
0.5683989524841309,-0.06,-0.01,0.25,0.25
0.5707390308380127,-0.17,-0.04,0.4,0.43
0.5883419513702393,-0.18,-0.03,0.36,0.4
0.6122040748596191,-0.1,-0.04,0.21,0.23
0.6139898300170898,0.02,-0.02,0.12,0.12
0.6150460243225098,0.07,0.03,0.08,0.11
0.6165361404418945,0.02,0.05,-0.1,0.11
0.6253480911254883,-0.07,0.1,-0.35,0.37
0.6353640556335449,-0.09,0.09,-0.4,0.41
0.6451559066772461,-0.01,0.01,-0.29,0.29
0.6551508903503418,0.11,-0.04,-0.15,0.19
0.6651890277862549,0.16,-0.07,-0.11,0.2
0.6749799251556396,0.05,-0.06,-0.03,0.08
0.7079060077667236,-0.1,-0.05,0.14,0.17
0.7096259593963623,-0.14,-0.05,0.28,0.31
0.7109019756317139,-0.11,-0.02,0.28,0.3
0.7162899971008301,-0.03,-0.01,0.14,0.14
0.7246909141540527,0.04,-0.01,0.08,0.09
0.7355649471282959,0.13,0.05,0.04,0.14
0.7443418502807617,0.19,0.09,-0.16,0.26
0.7544088363647461,0.2,0.08,-0.31,0.37
0.7644290924072266,0.16,0.03,-0.38,0.41
0.7741498947143555,0.16,0.02,-0.3,0.34
0.8099861145019531,0.18,-0.02,-0.17,0.24
0.8115940093994141,0.2,0.0,-0.06,0.2
0.812567949295044,0.16,0.04,-0.02,0.16
0.8157470226287842,0.17,0.01,-0.04,0.17
0.8359041213989258,0.24,0.03,0.0,0.24
0.8373560905456543,0.22,0.04,0.0,0.22
0.8511710166931152,0.1,0.06,-0.12,0.16
0.853489875793457,-0.04,0.09,-0.23,0.25
0.8671479225158691,-0.18,0.11,-0.32,0.38
0.873319149017334,-0.37,0.13,-0.49,0.62
0.8884119987487793,-0.56,0.17,-0.67,0.88
0.9131331443786621,-0.57,0.18,-0.69,0.91
0.9147911071777344,-0.56,0.2,-0.53,0.79
0.9157979488372803,-0.59,0.29,-0.51,0.83
0.9364609718322754,-0.67,0.47,-0.85,1.17
0.9379329681396484,-0.79,0.57,-1.6,1.87
0.9526591300964355,-0.98,0.58,-2.06,2.35
0.9541659355163574,-1.11,0.56,-2.01,2.36
0.9676170349121094,-1.32,0.64,-1.52,2.11
0.9727611541748047,-1.35,0.93,-1.43,2.17
0.9845681190490723,-1.14,1.33,-1.79,2.5
1.0131590366363525,-1.1,1.49,-1.87,2.63
1.014909029006958,-1.07,1.29,-1.52,2.26
1.0159039497375488,-0.6,0.92,-1.46,1.82
1.0392730236053467,0.87,0.16,-2.31,2.47
1.0407719612121582,2.55,-1.51,-6.03,6.71
1.0524258613586426,3.69,-2.94,-9.36,10.48
1.0539209842681885,4.44,-2.14,-8.34,9.68
1.0680639743804932,4.61,-1.61,-5.53,7.37
1.0717620849609375,3.89,-2.63,-3.63,5.93
1.0879311561584473,2.99,-3.37,-2.2,5.01
1.1159191131591797,1.27,-4.02,-1.19,4.38
1.1178150177001953,-2.48,-4.9,0.43,5.5
1.1192808151245117,-6.17,-4.62,2.32,8.04
1.1362738609313965,-6.36,-3.7,3.27,8.05
1.137753963470459,-4.25,-2.16,2.96,5.61
1.1527738571166992,-1.4,0.35,2.21,2.63
1.1542668342590332,-2.47,7.94,3.66,9.08
1.1680588722229004,-2.55,17.09,16.86,24.14
1.1709928512573242,-1.72,10.69,28.36,30.35
1.1831350326538086,-6.83,-6.05,17.75,19.95
1.206705093383789,-8.25,-5.67,0.34,10.01
1.2080731391906738,-2.62,-0.24,-8.52,8.91
1.2107958793640137,1.73,2.36,-4.95,5.75
1.2207908630371094,3.61,0.21,1.19,3.8
1.2308909893035889,3.91,-0.95,1.21,4.2
1.2404608726501465,2.86,0.56,-2.63,3.92
1.2507338523864746,2.35,0.34,-4.49,5.07
1.2607009410858154,1.86,-0.11,-3.64,4.08
1.270395040512085,0.55,0.39,-1.75,1.87
1.2832880020141602,-1.08,0.54,0.28,1.23
1.3169050216674805,-2.08,0.34,2.04,2.93
1.3186979293823242,-2.32,0.61,2.47,3.44
1.319836139678955,-1.62,0.52,0.82,1.88
1.3367729187011719,-0.14,0.31,-0.47,0.58
1.3382580280303955,1.18,0.12,-0.88,1.47
1.3525199890136719,1.5,-0.14,-1.03,1.82
1.353999137878418,1.45,-0.22,-0.9,1.72
1.368217945098877,1.3,-0.2,-0.69,1.48
1.3696730136871338,0.72,-0.08,-0.46,0.85
1.3849740028381348,0.2,0.08,-0.16,0.26
1.4141559600830078,-0.07,0.07,0.05,0.11
1.4159049987792969,-0.28,0.08,0.12,0.31
1.4173579216003418,-0.27,0.1,-0.11,0.3
1.436704158782959,-0.27,0.01,-0.35,0.44
1.4381108283996582,-0.24,0.01,-0.32,0.4
1.4524641036987305,-0.15,0.06,-0.19,0.24
1.4538369178771973,-0.33,0.06,-0.44,0.55
1.4681129455566406,-0.43,0.08,-0.62,0.75
1.4695701599121094,-0.15,0.03,-0.33,0.36
1.4880890846252441,0.07,-0.08,-0.11,0.15
1.5147719383239746,0.05,-0.11,-0.25,0.27
1.5165138244628906,-0.18,-0.02,-0.48,0.51
1.5175719261169434,-0.35,0.07,-0.6,0.69
1.5368239879608154,-0.2,0.01,-0.64,0.67
1.538290023803711,0.16,-0.09,-0.47,0.5
1.552778959274292,0.37,-0.07,-0.34,0.5
1.5541009902954102,0.5,-0.04,-0.16,0.52
1.5681018829345703,0.53,0.03,0.18,0.56
1.569559097290039,0.32,0.16,0.31,0.47
1.5848720073699951,0.04,0.21,0.12,0.24
1.6116960048675537,-0.11,0.21,0.07,0.24
1.6130361557006836,-0.26,0.31,-0.01,0.4
1.6140761375427246,-0.43,0.29,-0.2,0.55
1.6174139976501465,-0.46,0.19,-0.25,0.55
1.6279640197753906,-0.54,0.07,-0.37,0.65
1.6377179622650146,-0.68,0.07,-0.52,0.85
1.6475648880004883,-0.83,0.12,-0.71,1.09
1.6575498580932617,-1.03,0.31,-0.75,1.31
1.6675610542297363,-1.22,0.53,-0.82,1.56
1.677401065826416,-1.35,0.68,-0.89,1.75
1.6900889873504639,-1.22,0.76,-0.67,1.58
1.7172110080718994,-1.26,0.95,-0.66,1.71
1.7183728218078613,-1.24,1.36,-0.6,1.93
1.719377040863037,-0.97,1.52,-0.47,1.86
1.7368879318237305,-0.92,1.36,-0.7,1.78
1.7383408546447754,-1.11,1.18,-1.08,1.94
1.7528910636901855,-1.43,1.04,-1.15,2.1
1.7567310333251953,-1.93,1.19,-1.15,2.54
1.7680058479309082,-2.23,1.58,-1.72,3.22
1.7767670154571533,-2.54,1.65,-2.3,3.8
1.7869458198547363,-3.32,2.38,-3.68,5.49
1.8192768096923828,-3.17,4.08,-3.39,6.17
1.8207898139953613,-2.41,3.51,-2.68,5.03
1.8218050003051758,-2.77,2.98,-2.55,4.8
1.837170124053955,-3.4,3.28,-2.11,5.17
1.838663101196289,-4.16,3.48,-1.73,5.69
1.8529069423675537,-4.65,4.09,-1.78,6.44
1.8559298515319824,-4.8,4.49,-1.89,6.83
1.8668298721313477,-5.03,4.69,-2.42,7.29
1.8759169578552246,-5.26,4.55,-3.1,7.61
1.8861761093139648,-4.93,4.06,-3.28,7.17
1.914578914642334,-4.46,3.58,-3.39,6.64
1.916388988494873,-4.13,3.41,-4.01,6.69
1.9173998832702637,-3.09,3.62,-4.74,6.71
1.9368610382080078,-2.41,4.99,-5.93,8.11
1.9383468627929688,-2.52,6.16,-6.94,9.61
1.9529719352722168,-1.93,6.19,-6.38,9.09
1.9550938606262207,1.0,6.91,-3.7,7.9
1.968398094177246,5.16,8.69,-0.89,10.14
1.9749219417572021,3.79,5.73,-2.06,7.17
1.9874558448791504,-0.49,2.21,-4.5,5.03
2.0111141204833984,-4.54,-0.1,-5.44,7.08
2.0124459266662598,-7.16,-2.6,-4.66,8.92
2.0146141052246094,-5.9,-5.26,-3.38,8.59
2.0250349044799805,-0.81,-4.69,-1.38,4.95
2.0364320278167725,-3.81,-3.73,-1.76,5.61
2.0446910858154297,-7.83,-3.37,-3.31,9.14
2.0546939373016357,-10.2,-3.04,-3.81,11.3
2.0646071434020996,-10.35,-3.42,-3.04,11.31
2.074254035949707,-9.19,-4.16,-1.79,10.24
2.086977958679199,-8.16,-5.04,-0.92,9.63
2.1228339672088623,-7.78,-5.13,-0.82,9.35
2.124403953552246,-7.39,-4.61,-1.21,8.79
2.125865936279297,-6.56,-4.33,-1.46,7.99
2.137017011642456,-5.61,-4.3,-1.09,7.15
2.1384899616241455,-4.87,-4.14,-0.43,6.4
2.1530728340148926,-4.56,-3.92,-0.03,6.01
2.154567003250122,-4.5,-3.61,-0.18,5.77
2.1685080528259277,-4.44,-3.21,-0.63,5.51
2.1735270023345947,-4.08,-2.62,-0.89,4.92
2.185011863708496,-3.35,-1.97,-1.17,4.05
2.2202279567718506,-2.17,-1.45,-1.29,2.91
2.222093105316162,-0.5,-0.63,-0.66,1.04
2.2233359813690186,1.15,0.51,0.19,1.27
2.237205982208252,2.08,1.41,0.8,2.63
2.2386879920959473,2.33,2.08,1.19,3.34
2.2530529499053955,2.66,3.19,1.92,4.57
2.254511833190918,3.73,4.52,2.73,6.46
2.2684168815612793,5.66,5.17,2.85,8.17
2.2728610038757324,7.68,5.42,2.79,9.8
2.284532070159912,8.34,9.06,2.47,12.55
2.3182201385498047,7.58,16.79,-0.45,18.42
2.320056915283203,16.71,15.25,-1.61,22.67
2.3212790489196777,27.49,12.89,4.37,30.67
2.3361940383911133,31.42,8.31,7.23,33.29
2.3377561569213867,29.07,4.44,6.58,30.13
2.3530311584472656,23.83,3.37,5.08,24.59
2.3545379638671875,12.46,0.85,1.97,12.64
2.368557929992676,-3.4,-2.5,-1.73,4.56
2.372004985809326,-13.91,-0.49,-2.08,14.07
2.384881019592285,-10.2,3.32,2.48,11.0
2.4172768592834473,2.31,1.61,3.31,4.34
2.419050931930542,8.29,-1.72,2.7,8.88
2.420318126678467,8.96,-0.75,2.74,9.39
2.4372949600219727,6.52,1.01,1.94,6.87
2.4387569427490234,3.42,0.96,1.34,3.79
2.4531679153442383,0.56,-0.3,1.08,1.25
2.454648017883301,-0.48,-0.62,1.09,1.34
2.4686689376831055,0.7,-0.26,1.22,1.43
2.471174955368042,1.63,0.09,1.27,2.06
2.4841971397399902,1.88,0.16,1.08,2.17
2.4916000366210938,1.42,-0.08,0.51,1.51
2.528463840484619,0.75,-0.24,-0.04,0.78
2.5298209190368652,0.42,-0.23,-0.27,0.54
2.530987024307251,0.47,-0.09,-0.12,0.49
2.532835006713867,0.67,0.16,0.45,0.82
2.5405819416046143,0.46,0.13,1.05,1.15
2.550784111022949,0.05,-0.02,0.93,0.93
2.560878038406372,-0.33,-0.04,0.1,0.34
2.5706369876861572,-0.39,0.17,-0.82,0.92
2.580562114715576,-0.27,0.44,-1.58,1.66
2.5905208587646484,-0.09,0.35,-1.96,1.99
2.6177690029144287,0.0,0.04,-1.87,1.87
2.6190969944000244,0.08,-0.24,-1.57,1.59
2.6201000213623047,0.27,-0.37,-0.88,0.99
2.6374759674072266,0.37,-0.56,-0.59,0.89
2.640134811401367,0.23,-0.47,-0.65,0.83
2.653304100036621,-0.11,0.08,-0.33,0.35
2.6601009368896484,-0.46,0.38,0.08,0.6
2.6697869300842285,-0.53,0.24,0.31,0.65
2.6797938346862793,-0.21,-0.03,0.26,0.33
2.6898560523986816,0.19,-0.13,0.01,0.23
2.7190399169921875,0.27,0.16,-0.04,0.31
2.7204718589782715,0.0,0.42,-0.55,0.69
2.7214999198913574,-0.47,0.33,-1.0,1.15
2.73746395111084,-0.73,0.16,-0.86,1.13
2.7392678260803223,-0.54,0.03,-0.55,0.77
2.753203868865967,-0.09,0.0,-0.27,0.28
2.7592480182647705,0.07,-0.03,-0.32,0.32
2.769016981124878,0.04,-0.01,-0.57,0.57
2.7791590690612793,0.02,0.02,-0.5,0.5
2.791712999343872,0.04,0.05,-0.32,0.32
2.8186349868774414,-0.13,0.05,-0.17,0.21
2.8198671340942383,-0.62,0.14,-0.13,0.64
2.820876121520996,-0.97,0.13,-0.2,0.99
2.8377480506896973,-0.82,0.11,-0.04,0.82
2.839254856109619,-0.53,0.18,-0.07,0.56
2.853303909301758,-0.29,0.32,-0.3,0.52
2.858691930770874,-0.51,0.36,-0.56,0.83
2.8689088821411133,-0.94,0.35,-0.9,1.34
2.878410816192627,-1.15,0.42,-1.09,1.63
2.8883659839630127,-1.33,0.51,-0.99,1.73
2.924466133117676,-1.45,0.54,-1.16,1.93
2.9259350299835205,-1.5,0.47,-1.12,1.93
2.926906108856201,-1.45,0.47,-0.98,1.81
2.927886962890625,-1.23,0.51,-0.87,1.59
2.938075065612793,-0.99,0.64,-0.69,1.36
2.9478650093078613,-0.74,0.75,-0.61,1.21
2.9578559398651123,-0.66,0.77,-0.64,1.19
2.9686269760131836,-0.73,0.85,-0.74,1.34
2.977602005004883,-1.06,1.15,-0.72,1.72
2.987557888031006,-1.45,1.34,-0.54,2.04
3.0236659049987793,-1.76,1.43,-0.3,2.28
3.0252528190612793,-1.96,1.54,-0.3,2.51
3.02626895904541,-2.93,2.28,-1.67,4.07
3.0372118949890137,-3.52,3.41,-1.82,5.22
3.038710117340088,-2.15,3.26,-1.03,4.03
3.0523059368133545,-2.12,3.19,-1.47,4.1
3.0570778846740723,-3.05,3.78,-1.82,5.18
3.0674359798431396,-3.62,3.85,-1.86,5.6
3.0769128799438477,-4.19,4.19,-2.19,6.31
3.086519956588745,-4.64,4.8,-2.73,7.21
3.1297669410705566,-5.09,5.24,-3.26,7.99
3.1316328048706055,-5.63,5.12,-3.98,8.58
3.133078098297119,-5.89,4.7,-4.62,8.83
3.1348929405212402,-5.8,4.36,-4.49,8.53
3.136373996734619,-4.99,4.07,-4.35,7.77
3.146121025085449,-4.25,4.26,-4.53,7.53
3.156454086303711,-3.69,4.91,-4.59,7.66
3.166363000869751,-2.88,6.21,-4.5,8.19
3.176206111907959,-2.36,7.21,-4.73,8.94
3.1860580444335938,0.36,8.49,-2.89,8.97
3.2192349433898926,4.12,9.16,-1.7,10.18
3.2204160690307617,1.75,5.21,-3.25,6.38
3.221388816833496,-1.76,2.89,-4.6,5.71
3.237844944000244,-4.48,0.96,-5.07,6.83
3.2393550872802734,-6.27,-2.02,-4.16,7.79
3.253751039505005,-5.64,-5.12,-3.02,8.19
3.25527286529541,0.83,-5.46,-2.14,5.92
3.2706189155578613,1.14,-3.12,-1.17,3.52
3.275346040725708,-3.52,-3.75,-2.71,5.81
3.2867650985717773,-7.26,-3.32,-4.06,8.95
3.2954368591308594,-9.26,-3.42,-3.65,10.52
3.3269238471984863,-9.46,-3.82,-2.46,10.49
3.3281259536743164,-8.34,-4.46,-1.28,9.54
3.329369068145752,-6.91,-5.23,-0.58,8.68
3.3344950675964355,-6.08,-5.56,-0.5,8.25
3.3446078300476074,-5.8,-5.06,-0.77,7.73
3.3547210693359375,-5.57,-4.27,-1.11,7.1
3.3647289276123047,-5.34,-3.79,-1.32,6.67
3.374606132507324,-5.13,-3.33,-1.2,6.23
3.3847708702087402,-5.11,-2.92,-1.0,5.96
3.3945608139038086,-5.45,-2.5,-0.71,6.03
3.4244589805603027,-5.78,-1.96,-0.58,6.13
3.426116943359375,-5.74,-1.59,-0.74,6.0
3.427122116088867,-5.07,-1.27,-0.81,5.28
3.435206890106201,-3.75,-1.11,-0.81,3.99
3.4439549446105957,-2.45,-0.98,-0.64,2.71
3.4540019035339355,-1.64,-0.74,-0.52,1.87
3.463824987411499,-1.04,-0.1,-0.36,1.1
3.4737930297851562,-0.49,0.78,-0.07,0.92
3.483945846557617,0.03,1.59,0.27,1.61
3.493798017501831,0.44,2.46,0.68,2.58
3.5228958129882812,0.7,3.48,1.28,3.77
3.524181842803955,1.14,4.55,1.87,5.04
3.5251808166503906,2.31,5.33,2.31,6.25
3.537539005279541,4.24,5.94,2.06,7.58
3.5433390140533447,6.76,6.17,0.95,9.2
3.5535340309143066,9.14,6.5,-0.11,11.21
3.563354969024658,8.72,11.3,-0.55,14.28
3.573240041732788,9.72,12.88,-2.27,16.29
3.583181858062744,18.49,7.11,-2.19,19.93
3.5930380821228027,22.49,4.9,1.27,23.05
3.6246371269226074,19.77,4.34,2.59,20.4
3.6260581016540527,16.72,4.38,3.15,17.56
3.627094030380249,15.62,4.61,4.8,16.97
3.637375831604004,15.26,4.96,6.52,17.31
3.642580986022949,13.98,3.22,6.26,15.65
3.653424024581909,7.27,-2.43,1.32,7.77
3.66251802444458,-3.8,-2.12,-3.26,5.43
3.6724929809570312,-8.29,5.96,-1.91,10.38
3.6824729442596436,-4.25,10.52,3.62,11.9
3.692413806915283,1.33,5.13,3.39,6.29
3.7313270568847656,5.8,-1.7,1.53,6.23
3.7327799797058105,6.76,-3.96,-0.24,7.83
3.7337839603424072,5.2,-0.28,1.0,5.3
3.754478931427002,3.58,1.56,2.44,4.6
3.7559690475463867,2.42,-0.27,1.69,2.96
3.770172119140625,1.96,-1.02,1.16,2.49
3.771604061126709,1.74,-0.37,0.89,1.98
3.7858519554138184,1.67,0.15,0.72,1.82
3.787351131439209,1.56,-0.03,0.75,1.73
3.8023438453674316,1.22,-0.27,0.45,1.32
3.829944133758545,0.3,-0.21,-0.47,0.59
3.831347942352295,-0.61,0.05,-0.95,1.13
3.8323168754577637,-0.77,0.14,-0.42,0.88
3.833785057067871,-0.19,0.04,0.25,0.31
3.841007947921753,0.57,0.01,0.33,0.65
3.8509600162506104,0.9,0.08,0.35,0.96
3.8610479831695557,0.8,0.13,0.41,0.9
3.8709230422973633,0.42,0.05,0.34,0.54
3.880805015563965,0.27,0.09,0.16,0.32
3.8908019065856934,0.29,0.16,-0.1,0.34
3.924924850463867,0.47,0.22,-0.19,0.55
3.926208019256592,0.65,0.13,-0.46,0.8
3.9271440505981445,0.65,0.0,-0.76,1.0
3.930004119873047,0.56,-0.06,-0.63,0.84
3.9402871131896973,0.34,-0.05,-0.31,0.46
3.9501748085021973,0.12,0.01,-0.15,0.19
3.960268020629883,-0.03,0.03,-0.1,0.1
3.9700980186462402,-0.22,0.1,-0.07,0.25
3.980118989944458,-0.39,0.19,-0.14,0.45
3.990185022354126,-0.5,0.19,-0.16,0.55
4.024518013000488,-0.45,0.17,-0.18,0.51
4.025899887084961,-0.21,-0.03,-0.19,0.28
4.0269060134887695,-0.07,-0.22,-0.32,0.39
4.037725925445557,-0.05,-0.24,-0.29,0.37
4.039154052734375,-0.05,-0.16,-0.25,0.3
4.05374002456665,0.03,0.05,-0.24,0.24
4.059544086456299,0.14,0.13,-0.15,0.24
4.069357872009277,0.2,0.11,-0.12,0.25
4.079394817352295,0.24,0.15,-0.02,0.28
4.089123964309692,0.3,0.21,0.13,0.38
4.09929895401001,0.25,0.18,0.17,0.35
4.129863977432251,0.16,0.11,-0.03,0.19
4.131014823913574,0.08,0.05,-0.29,0.3
4.132213115692139,-0.04,0.07,-0.64,0.64
4.138682842254639,-0.32,0.22,-0.96,1.03
4.14866304397583,-0.73,0.4,-1.2,1.46
4.158707141876221,-1.15,0.53,-1.36,1.85
4.168734073638916,-1.52,0.66,-1.29,2.1
4.1784539222717285,-1.74,0.75,-1.17,2.22
4.188561916351318,-2.06,0.92,-0.98,2.45
4.198518991470337,-2.12,1.07,-0.66,2.46
4.228506088256836,-2.07,1.04,-0.69,2.41
4.229680061340332,-2.1,0.97,-0.98,2.51
4.230918884277344,-2.16,1.11,-1.27,2.74
4.237673997879028,-2.28,1.42,-1.85,3.26
4.254120826721191,-2.36,2.51,-1.78,3.87
4.258028030395508,-2.44,3.3,-2.13,4.62
4.269414901733398,-2.25,3.64,-1.83,4.65
4.27796196937561,-2.52,4.17,-1.81,5.19
4.2876129150390625,-3.37,4.61,-2.63,6.28
4.297624111175537,-4.05,4.87,-3.03,7.02
4.328150033950806,-4.19,4.92,-3.26,7.23
4.329373836517334,-4.44,5.34,-3.63,7.83
4.330615997314453,-4.55,5.37,-3.72,7.96
4.337103843688965,-4.83,5.45,-3.89,8.25
4.3541059494018555,-4.97,5.35,-4.02,8.33
4.357195854187012,-4.38,4.28,-3.74,7.17
4.369415998458862,-3.54,3.4,-3.78,6.19
4.3770060539245605,-2.71,3.37,-3.92,5.83
4.386821031570435,-2.39,4.17,-4.35,6.48
4.396884918212891,-2.82,5.63,-4.61,7.8
4.427393913269043,-1.62,6.92,-2.39,7.49
4.428615093231201,2.45,7.62,0.05,8.0
4.429695129394531,2.34,4.41,-1.7,5.27
4.436191082000732,-0.8,2.02,-3.62,4.22
4.446568012237549,-3.73,0.95,-3.95,5.51
4.456382989883423,-5.96,-1.45,-3.0,6.82
4.466552019119263,-7.43,-3.74,-2.04,8.56
4.476083993911743,-3.66,-4.01,-0.79,5.48
4.486352920532227,-1.78,-3.6,-0.71,4.07
4.496224880218506,-6.03,-3.47,-0.76,6.99
4.534041881561279,-10.35,-2.36,-0.73,10.64
4.5354390144348145,-11.88,-2.2,0.39,12.08
4.536424160003662,-10.47,-3.13,2.0,11.1
4.554909944534302,-8.81,-3.86,2.59,9.96
4.556421995162964,-7.96,-4.08,2.19,9.2
4.570702075958252,-7.72,-4.0,1.65,8.84
4.572160005569458,-7.57,-3.71,1.4,8.54
4.586254119873047,-7.16,-3.4,1.3,8.03
4.5877439975738525,-6.62,-3.25,1.57,7.54
4.602319002151489,-6.2,-3.06,1.95,7.18
4.6317458152771,-5.89,-2.63,1.89,6.72
4.633091926574707,-5.53,-1.83,1.42,5.99
4.6341259479522705,-4.9,-0.98,0.56,5.02
4.654499053955078,-3.74,-0.23,-0.12,3.74
4.655977964401245,-2.21,0.39,-0.04,2.24
4.670641899108887,-0.73,0.72,0.35,1.08
4.672120094299316,-0.14,0.77,0.74,1.07
4.68614387512207,-0.65,0.93,1.37,1.77
4.68759298324585,-1.4,1.56,2.16,3.0
4.702387809753418,-1.46,2.4,2.81,3.97
4.731148958206177,-0.91,3.09,3.34,4.64
4.732534885406494,-0.52,3.71,3.59,5.18
4.733597040176392,-0.17,4.46,3.69,5.79
4.754933834075928,0.77,4.9,3.19,5.89
4.756381034851074,2.97,5.18,2.58,6.5
4.769320964813232,5.84,5.29,1.51,8.02
4.770790100097656,8.63,4.93,-0.23,9.94
4.786267995834351,6.71,9.8,-0.8,11.9
4.787766933441162,7.22,10.05,-3.13,12.76
4.802539825439453,15.97,2.45,-3.54,16.54
4.8312201499938965,21.82,2.28,-1.86,22.01
4.832531929016113,22.16,1.96,-1.95,22.33
4.8335700035095215,19.61,1.39,-0.97,19.68
4.8549230098724365,17.09,0.67,0.58,17.11
4.856405019760132,16.01,0.84,1.54,16.1
4.870944023132324,15.82,0.84,1.99,15.96
4.872374057769775,10.56,-1.44,-0.36,10.66
4.886018991470337,-0.46,0.74,-3.78,3.87
4.887491941452026,-8.53,7.69,-2.76,11.81
4.90274715423584,-8.3,7.72,2.12,11.53
4.9045538902282715,-1.94,2.39,2.86,4.2
4.95435094833374,4.93,0.15,2.51,5.53
4.9555439949035645,6.62,-3.54,1.43,7.64
4.9565269947052,4.31,-2.22,0.71,4.89
4.973092079162598,1.78,0.33,1.44,2.31
4.974550008773804,0.41,0.2,1.72,1.77
4.986871004104614,0.58,-0.5,1.67,1.83
4.98833703994751,1.32,-0.16,1.0,1.66
5.002880096435547,2.18,0.22,-0.19,2.19
5.004349946975708,3.06,0.12,-1.17,3.27
5.019227981567383,3.18,-0.37,-1.15,3.4
5.047389984130859,2.15,-0.38,0.38,2.21
5.048809051513672,0.56,-0.18,1.78,1.87
5.049782037734985,-0.5,-0.02,1.7,1.77
5.052350044250488,-0.7,0.1,0.58,0.91
5.0538530349731445,-0.26,0.03,-0.6,0.65
5.0614848136901855,0.27,0.12,-1.01,1.05
5.0717689990997314,0.59,0.25,-0.81,1.03
5.081646919250488,0.58,0.21,-0.64,0.88
5.091878890991211,0.43,0.01,-0.38,0.57
5.101790904998779,0.44,-0.06,0.07,0.44
5.131998062133789,0.37,-0.02,0.26,0.45
5.133172035217285,0.12,0.1,0.22,0.26
5.134162902832031,0.07,0.22,0.16,0.28
5.15456485748291,0.12,0.27,0.22,0.36
5.155647039413452,0.17,0.3,0.19,0.39
5.170625925064087,0.06,0.23,-0.11,0.26
5.1716628074646,-0.04,0.36,-0.27,0.45
5.186812877655029,0.17,0.39,-0.07,0.43
5.1910529136657715,0.18,0.2,-0.19,0.32
5.2025909423828125,0.05,0.1,-0.36,0.37
5.230633974075317,-0.02,0.08,-0.27,0.28
5.231990814208984,-0.12,0.1,-0.36,0.39
5.23296594619751,-0.16,0.18,-0.52,0.57
5.2402729988098145,-0.02,0.15,-0.4,0.42
5.2503581047058105,0.09,0.0,-0.29,0.3
5.2603960037231445,0.1,-0.16,-0.28,0.33
5.270117998123169,0.21,-0.26,-0.15,0.36
5.280267000198364,0.28,-0.11,-0.14,0.33
5.2902140617370605,0.33,0.13,-0.23,0.42
5.300307989120483,0.26,0.21,-0.37,0.49
5.335848808288574,0.3,0.18,-0.41,0.53
5.337023019790649,0.41,0.15,-0.42,0.6
5.338034152984619,0.33,0.25,-0.46,0.61
5.355052947998047,-0.04,0.43,-0.62,0.75
5.356017112731934,-0.66,0.43,-0.65,1.02
5.369537830352783,-1.35,0.27,-0.45,1.44
5.370800971984863,-1.81,0.4,-0.42,1.9
5.38322114944458,-1.92,0.72,-0.53,2.11
5.389034032821655,-1.84,1.27,-0.6,2.31
5.399978160858154,-1.78,1.67,-0.62,2.51
5.436070919036865,-1.85,1.83,-0.58,2.66
5.437449932098389,-2.09,1.7,-0.73,2.79
5.438607931137085,-2.51,1.6,-1.0,3.14
5.440093040466309,-2.99,1.9,-0.86,3.64
5.449068069458008,-2.55,2.31,-0.6,3.49
5.458915948867798,-2.48,1.94,-0.97,3.29
5.468775033950806,-2.85,2.05,-1.49,3.81
5.478991985321045,-3.12,2.02,-1.97,4.2
5.4888129234313965,-2.98,2.19,-2.0,4.2
5.498619079589844,-2.86,2.53,-2.08,4.34
5.53550386428833,-3.16,2.98,-2.12,4.83
5.536849021911621,-3.95,3.75,-2.49,5.98
5.53783392906189,-4.46,4.31,-2.99,6.88
5.554884910583496,-4.61,4.43,-3.33,7.2
5.5559468269348145,-4.73,4.44,-3.46,7.35
5.571100950241089,-4.96,4.53,-3.41,7.53
5.572444915771484,-5.24,4.53,-3.35,7.69
5.586699962615967,-5.03,4.36,-3.26,7.41
5.5881569385528564,-4.25,3.79,-2.82,6.35
5.602797031402588,-3.57,3.27,-2.49,5.44
5.634568929672241,-2.97,3.96,-2.55,5.56
5.635951042175293,-2.03,4.86,-2.66,5.9
5.636932849884033,-0.01,5.94,-2.33,6.38
5.655458927154541,3.0,7.21,-2.21,8.11
5.656510829925537,2.4,5.24,-3.25,6.61
5.669469833374023,0.09,4.21,-4.64,6.26
5.670964002609253,-1.96,3.21,-5.09,6.32
5.686556816101074,-3.2,1.1,-3.79,5.08
5.68801212310791,-4.14,-1.52,-2.59,5.11
5.702811002731323,-4.24,-4.33,-3.39,6.94
5.707036018371582,-1.34,-3.33,-3.96,5.34
5.749204158782959,-2.66,-1.47,-3.32,4.5
5.750414848327637,-6.37,-1.58,-3.51,7.44
5.751453876495361,-9.55,-1.17,-3.65,10.29
5.7717249393463135,-10.96,-1.7,-2.72,11.41
5.773234844207764,-10.79,-2.61,-1.15,11.16
5.787649154663086,-9.79,-3.33,0.2,10.34
5.789143085479736,-8.7,-3.99,0.99,9.62
5.803319931030273,-8.04,-4.38,1.11,9.22
5.804702997207642,-7.82,-4.38,0.81,8.99
5.819469928741455,-7.72,-3.95,0.49,8.68
5.849952936172485,-7.65,-3.38,0.41,8.37
5.851300954818726,-7.57,-2.95,0.55,8.14
5.852330923080444,-7.41,-2.55,0.64,7.86
5.871786117553711,-7.02,-2.05,0.47,7.32
5.873289108276367,-6.44,-1.3,0.09,6.57
5.887669086456299,-5.5,-0.35,-0.8,5.56
5.88913893699646,-4.11,0.49,-1.83,4.52
5.903443813323975,-2.27,1.14,-2.32,3.44
5.90490198135376,-0.41,1.48,-2.35,2.8
5.919643878936768,0.55,1.29,-2.05,2.48
5.949090957641602,0.45,1.02,-1.44,1.82
5.950462818145752,0.49,1.37,-0.93,1.72
5.951449871063232,0.84,1.99,-0.87,2.32
5.972692012786865,1.19,2.7,-0.8,3.05
5.974151134490967,1.51,3.27,-0.36,3.61
5.987980842590332,1.65,3.66,0.29,4.02
5.989437103271484,1.84,4.26,1.07,4.76
6.003631114959717,2.36,4.81,1.84,5.66
6.005105018615723,2.35,7.11,2.39,7.86
6.019360065460205,0.9,14.45,1.75,14.58
6.049992084503174,7.4,13.11,-0.9,15.08
6.051347017288208,16.76,7.1,0.48,18.2
6.052370071411133,20.24,3.17,1.64,20.55
6.071506977081299,18.93,3.15,0.72,19.2
6.072569847106934,17.09,2.84,0.5,17.33
6.08787202835083,15.88,1.96,0.42,16.0
6.089334964752197,14.52,1.66,0.7,14.63
6.103549003601074,14.07,1.52,1.58,14.23
6.1049909591674805,14.61,1.03,2.83,14.91
6.119897842407227,15.76,1.06,3.35,16.14
6.149702072143555,14.7,0.99,1.91,14.85
6.1510138511657715,7.12,0.5,-1.86,7.37
6.152022838592529,-2.28,5.1,-1.98,5.92
6.171618938446045,-3.77,9.77,2.16,10.69
6.17265510559082,1.92,4.8,3.69,6.35
6.188035011291504,2.61,-3.88,1.13,4.81
6.1894941329956055,2.08,-3.52,1.88,4.5
6.203264951705933,2.26,-1.24,2.52,3.6
6.204629898071289,2.91,-0.2,2.38,3.76
6.218923091888428,3.26,0.46,2.24,3.98
6.247154951095581,2.83,0.38,1.82,3.38
6.248465061187744,2.31,-0.41,1.49,2.77
6.249518871307373,1.91,-0.78,1.26,2.41
6.252002954483032,1.47,-0.6,0.86,1.8
6.253392934799194,0.98,-0.15,0.44,1.08
6.26259183883667,0.41,0.19,-0.18,0.48
6.272671937942505,-0.17,0.16,-0.72,0.75
6.282496929168701,-0.47,0.13,-0.84,0.97
6.292685031890869,-0.38,0.13,-0.73,0.83
6.302771091461182,-0.06,0.11,-0.64,0.65
6.339749813079834,0.16,0.12,-0.8,0.82
6.340973854064941,0.23,0.15,-1.15,1.18
6.341966152191162,0.26,0.1,-1.36,1.38
6.355222940444946,0.25,0.01,-1.29,1.31
6.356266975402832,0.18,-0.06,-0.89,0.91
6.371191024780273,0.21,-0.03,-0.23,0.31
6.372205972671509,0.28,0.02,0.37,0.46
6.387081146240234,0.11,0.1,0.73,0.74
6.391880989074707,-0.15,0.1,0.83,0.84
6.403331995010376,-0.1,0.06,0.97,0.97
6.438383102416992,0.11,0.11,1.01,1.02
6.440165042877197,0.23,0.12,0.58,0.63
6.441245079040527,0.29,0.15,0.07,0.33
6.455343008041382,0.17,0.11,-0.33,0.38
6.4563679695129395,0.13,0.11,-0.71,0.73
6.471314907073975,0.22,0.07,-1.06,1.08
6.472340106964111,0.25,0.24,-0.83,0.89
6.4870171546936035,0.16,0.42,-0.76,0.88
6.491053104400635,-0.09,0.26,-1.05,1.08
6.503221035003662,-0.18,0.1,-0.78,0.8
6.5110039710998535,-0.17,-0.01,-0.5,0.52
6.549118995666504,-0.24,-0.02,-0.4,0.46
6.550262928009033,-0.33,0.06,-0.33,0.47
6.551255941390991,-0.35,0.22,-0.27,0.49
6.572082996368408,-0.21,0.33,-0.1,0.4
6.573135852813721,0.01,0.26,-0.02,0.26
6.588413953781128,0.17,0.21,-0.13,0.29
6.589846134185791,0.13,0.27,-0.38,0.48
6.603847026824951,-0.01,0.36,-0.6,0.69
6.605320930480957,-0.34,0.4,-0.76,0.92
6.61996603012085,-0.85,0.43,-0.9,1.31
6.648706912994385,-1.13,0.57,-0.97,1.59
6.650052070617676,-1.23,0.82,-1.23,1.92
6.651051044464111,-1.27,0.93,-1.39,2.09
6.671834945678711,-1.68,1.05,-1.32,2.38
6.672837018966675,-2.35,1.15,-1.27,2.9
6.6882429122924805,-2.88,1.22,-0.9,3.25
6.689327001571655,-3.4,1.59,-0.86,3.85
6.703815937042236,-4.45,2.26,-1.79,5.3
6.7052788734436035,-4.41,3.56,-1.72,5.92
6.719936847686768,-3.58,4.04,-1.71,5.66
6.747786045074463,-3.57,4.06,-2.17,5.82
6.749078035354614,-3.77,4.25,-2.31,6.13
6.750046968460083,-3.88,4.13,-2.42,6.16
6.751601934432983,-4.39,4.37,-2.8,6.79
6.759100914001465,-5.24,5.14,-3.67,8.2
6.769045829772949,-5.6,5.58,-4.07,8.89
6.778768062591553,-5.62,5.45,-3.86,8.72
6.788679122924805,-5.95,5.45,-4.01,9.01
6.798769950866699,-6.06,5.13,-4.04,8.9
6.8088719844818115,-5.6,4.38,-4.11,8.21
6.838032007217407,-4.79,3.6,-4.53,7.51
6.839362144470215,-3.32,2.9,-4.51,6.3
6.840375900268555,-2.56,3.87,-4.83,6.69
6.855464935302734,-2.53,5.97,-5.51,8.5
6.85810399055481,-2.7,8.27,-5.6,10.34
6.870973110198975,-0.8,10.65,-2.91,11.06
6.87808895111084,0.9,10.32,-0.56,10.37
6.887715816497803,-0.31,5.57,-1.05,5.67
6.898092031478882,-2.96,3.0,-3.35,5.38
6.908051013946533,-5.54,1.71,-5.07,7.7
6.94306492805481,-7.3,-1.06,-6.08,9.55
6.944498062133789,-6.71,-5.6,-5.77,10.47
6.945493936538696,-0.27,-3.52,-2.56,4.36
6.956154823303223,1.75,-1.09,-0.75,2.19
6.9571919441223145,-2.47,-1.78,-2.04,3.66
6.971386909484863,-6.7,-1.98,-3.4,7.76
6.977164030075073,-9.1,-2.22,-3.42,9.97
6.9873480796813965,-9.81,-2.57,-2.47,10.43
6.997478008270264,-9.51,-3.03,-1.12,10.04
7.007171154022217,-8.53,-3.85,0.08,9.35
7.04495906829834,-7.57,-4.83,0.7,9.0
7.046303987503052,-6.93,-5.22,0.69,8.7
7.047433853149414,-6.36,-4.91,0.39,8.04
7.052386999130249,-5.81,-4.45,0.06,7.31
7.071824073791504,-5.4,-4.22,-0.12,6.85
7.072914123535156,-5.19,-4.11,-0.21,6.62
7.087234973907471,-5.16,-3.97,-0.06,6.51
7.088696002960205,-4.99,-3.75,0.4,6.25
7.103396892547607,-4.81,-3.39,0.97,5.96
7.106356143951416,-4.81,-3.12,1.03,5.82
7.147221088409424,-5.09,-2.62,0.52,5.74
7.148385047912598,-5.01,-1.51,-0.78,5.29
7.149585008621216,-3.67,-0.39,-2.12,4.25
7.151602029800415,-0.94,0.48,-2.73,2.92
7.155916929244995,2.16,1.12,-2.14,3.24
7.16579794883728,4.3,1.68,-1.23,4.77
7.175980091094971,4.34,1.51,-0.66,4.64
7.18581485748291,3.67,2.01,0.28,4.19
7.1959228515625,3.98,3.34,1.38,5.37
7.205844879150391,5.13,4.62,2.3,7.27
7.242465019226074,6.57,5.41,2.28,8.81
7.243638038635254,7.99,5.64,1.35,9.87
7.244658946990967,9.43,6.28,0.28,11.33
7.255749940872192,10.96,6.46,-0.64,12.73
7.256798028945923,11.59,5.53,-1.14,12.89
7.271421909332275,8.61,11.33,-0.52,14.23
7.274974822998047,11.21,11.03,-1.25,15.77
7.287390947341919,18.72,4.82,0.12,19.33
7.295271873474121,18.88,3.3,2.24,19.29
7.304891109466553,15.19,3.13,3.18,15.83
7.315092086791992,12.53,4.52,5.17,14.28
7.348407983779907,11.61,5.08,6.98,14.46
7.349563121795654,9.79,1.7,5.6,11.4
7.350531101226807,2.62,-2.25,0.46,3.48
7.354406833648682,-4.65,1.09,-3.7,6.04
7.3643670082092285,-2.18,9.06,-1.34,9.41
7.374456882476807,4.22,9.78,1.83,10.8
7.3845391273498535,8.07,2.65,1.99,8.72
7.394503116607666,7.79,-4.05,-0.53,8.79
7.40435791015625,5.61,-1.82,0.68,5.93
7.414216041564941,4.88,0.28,3.46,5.98
7.447299003601074,4.1,-0.62,3.56,5.46
7.4484639167785645,2.74,-1.23,2.5,3.9
7.449717044830322,1.37,-0.66,1.7,2.28
7.453558921813965,0.89,0.11,0.84,1.22
7.463802814483643,1.25,0.35,0.36,1.34
7.473474025726318,1.45,-0.28,0.01,1.47
7.483237981796265,1.34,-0.45,0.85,1.64
7.493682861328125,0.75,-0.17,1.34,1.54
7.503520965576172,-0.07,0.22,0.52,0.56
7.513446807861328,-0.58,0.26,-0.47,0.79
7.546557903289795,-0.22,0.08,-1.71,1.72
7.5479559898376465,0.62,0.03,-2.21,2.29
7.548956871032715,0.99,0.01,-2.05,2.27
7.552793979644775,0.7,-0.01,-1.6,1.74
7.57200813293457,0.24,0.05,-0.93,0.96
7.573056936264038,-0.34,0.13,-0.3,0.47
7.587400913238525,-0.85,0.25,0.32,0.94
7.5928919315338135,-0.99,0.36,0.44,1.14
7.603592872619629,-0.75,0.34,0.45,0.93
7.612832069396973,-0.52,0.2,-0.03,0.55
7.645142078399658,-0.37,0.08,-0.47,0.6
7.64632511138916,-0.2,0.2,-0.28,0.39
7.647586822509766,-0.16,0.31,-0.65,0.73
7.652138948440552,-0.02,0.29,-1.09,1.12
7.662156105041504,0.11,0.21,-0.83,0.86
7.672034025192261,0.23,0.11,-0.59,0.64
7.681879043579102,0.38,-0.04,-0.18,0.42
7.692095994949341,0.47,-0.04,-0.15,0.49
7.702355861663818,0.73,0.05,-0.19,0.75
7.711987018585205,0.98,0.08,0.2,1.0
7.749382019042969,0.93,0.01,0.3,0.97
7.750707149505615,0.64,0.03,0.27,0.69
7.751706123352051,0.58,0.13,0.36,0.69
7.7725300788879395,0.52,0.2,0.2,0.59
7.773571014404297,0.24,0.31,-0.19,0.43
7.788896083831787,-0.12,0.22,-0.64,0.68
7.790327072143555,-0.4,0.15,-0.98,1.06
7.804598808288574,-0.66,0.32,-1.16,1.37
7.8060760498046875,-0.79,0.52,-1.08,1.43
7.820426940917969,-1.17,0.85,-1.02,1.76
7.849822044372559,-2.07,1.43,-0.7,2.61
7.851222991943359,-2.52,1.76,-1.09,3.26
7.852236986160278,-2.49,1.61,-1.17,3.18
7.872087001800537,-2.51,1.74,-1.02,3.21
7.873126029968262,-2.89,1.85,-1.45,3.72
7.8888020515441895,-3.21,1.92,-1.56,4.05
7.890149116516113,-3.21,1.92,-1.16,3.91
7.904265880584717,-3.28,1.96,-1.05,3.96
7.9056830406188965,-3.58,2.11,-1.44,4.39
7.92146110534668,-3.89,2.3,-2.06,4.96
7.950295925140381,-4.14,2.66,-2.78,5.65
7.952175140380859,-4.09,3.17,-2.98,5.97
7.953190803527832,-4.07,4.01,-3.01,6.45
7.972148895263672,-4.37,5.16,-3.15,7.45
7.9731950759887695,-5.23,6.11,-3.57,8.79
7.988885879516602,-6.03,6.22,-4.03,9.55
7.9903600215911865,-6.74,5.9,-3.97,9.79
8.004304885864258,-7.26,5.57,-3.8,9.9
8.005759000778198,-7.16,4.63,-3.52,9.22
8.020576000213623,-6.57,3.91,-3.67,8.48
8.05007791519165,-5.12,3.27,-3.73,7.12
8.051378011703491,-3.55,3.13,-4.15,6.29
8.052387952804565,-3.18,4.91,-4.67,7.48
8.072273969650269,-2.66,7.41,-4.93,9.28
8.073348999023438,-0.05,11.0,-3.52,11.54
8.088829040527344,2.25,13.04,-2.06,13.39
8.090314865112305,0.03,8.99,-2.49,9.32
8.104493141174316,-2.56,5.79,-4.03,7.5
8.10596513748169,-4.48,3.19,-5.53,7.79
8.120419025421143,-5.78,-1.42,-6.38,8.72
8.121891021728516,-5.54,-6.01,-6.37,10.36
8.169232845306396,0.8,-3.76,-3.95,5.51
8.170429944992065,4.47,-1.77,-1.75,5.11
8.171384811401367,0.34,-2.58,-3.11,4.05
8.190266132354736,-4.56,-3.1,-4.81,7.31
8.191750049591064,-7.97,-3.62,-4.29,9.74
8.205772876739502,-9.2,-3.77,-2.75,10.31
8.207293033599854,-9.14,-3.94,-1.13,10.01
8.221099853515625,-8.79,-4.6,0.23,9.92
8.222646951675415,-8.46,-5.24,0.99,10.0
8.23733901977539,-8.25,-5.4,1.24,9.93
8.269438982009888,-8.16,-5.19,1.33,9.76
8.27068281173706,-8.22,-4.9,1.33,9.66
8.27164602279663,-8.2,-4.47,1.41,9.44
8.289844036102295,-7.93,-4.26,1.54,9.13
8.291336059570312,-7.58,-4.29,1.27,8.8
8.30565094947815,-7.37,-4.09,0.82,8.46
8.30718183517456,-7.16,-3.47,0.43,7.96
8.321115016937256,-6.66,-2.41,0.26,7.08
8.32257890701294,-5.61,-1.29,-0.1,5.75
8.337265014648438,-3.85,-0.72,-1.06,4.05
8.367134094238281,-1.8,-0.43,-2.01,2.73
8.368503093719482,0.12,0.1,-1.96,1.96
8.369526863098145,1.71,0.73,-1.06,2.14
8.388893127441406,2.87,1.17,-0.06,3.09
8.389940023422241,4.3,1.93,0.73,4.76
8.405876159667969,5.67,2.72,1.12,6.38
8.407325029373169,6.03,3.37,1.18,7.0
8.42129397392273,5.57,4.56,1.56,7.36
8.422791957855225,5.32,6.27,2.78,8.68
8.4372079372406,6.24,7.25,4.34,10.5
8.466332912445068,8.02,6.6,5.22,11.62
8.468453884124756,9.72,4.88,5.54,12.2
8.46947193145752,8.81,8.06,4.7,12.83
8.489400863647461,8.02,12.85,1.92,15.26
8.490838050842285,14.51,7.64,0.77,16.41
8.506092071533203,19.05,5.32,2.12,19.89
8.50755500793457,18.66,5.07,2.31,19.47
8.521306037902832,19.2,7.45,2.36,20.72
8.522788047790527,20.71,7.37,2.71,22.14
8.537539005279541,14.94,0.37,-0.63,14.95
8.567911148071289,2.25,-2.87,-4.34,5.66
8.569348812103271,-6.06,3.31,-3.54,7.75
8.570366859436035,-4.45,9.82,3.87,11.45
8.589213848114014,0.76,6.46,7.25,9.74
8.590245962142944,4.73,0.16,5.81,7.49
8.605800151824951,8.52,-1.21,3.02,9.12
8.607277870178223,8.32,-2.08,0.64,8.59
8.621355056762695,5.0,0.67,2.07,5.45
8.622818946838379,2.16,0.47,2.92,3.66
8.63767695426941,0.88,-1.09,2.51,2.87
8.666465997695923,1.08,-1.2,2.27,2.78
8.667863845825195,1.23,-0.78,1.59,2.15
8.668868064880371,1.19,-0.09,1.01,1.56
8.689553022384644,0.97,0.6,0.41,1.21
8.690587997436523,0.62,0.65,-0.51,1.03
8.70593786239624,0.3,0.33,-1.77,1.82
8.707360982894897,0.11,0.39,-2.85,2.87
8.72144603729248,0.11,0.66,-3.01,3.08
8.722819805145264,0.67,0.34,-2.15,2.27
8.737457990646362,1.21,-0.16,-0.91,1.52
8.766744136810303,0.67,-0.26,-0.4,0.82
8.768095970153809,-0.32,-0.07,-0.48,0.58
8.769083023071289,-0.71,0.26,-0.18,0.77
8.789561033248901,-1.0,0.26,0.22,1.05
8.79051685333252,-1.32,0.12,0.18,1.33
8.805441856384277,-0.9,0.21,0.25,0.95
8.806442022323608,-0.53,0.2,-0.03,0.56
8.821830034255981,-0.42,0.13,-0.75,0.86
8.82333493232727,0.27,0.08,-0.95,0.99
8.837757110595703,0.86,-0.19,-0.67,1.1
8.86480188369751,0.79,-0.38,-0.48,0.99
8.866107940673828,0.39,-0.19,-0.32,0.53
8.867155075073242,-0.01,0.25,-0.06,0.25
8.869624137878418,-0.32,0.21,-0.08,0.39
8.871017932891846,-0.3,-0.12,-0.09,0.33
8.8729248046875,-0.14,-0.26,-0.05,0.29
8.882780075073242,-0.13,-0.17,-0.18,0.27
8.893011093139648,-0.24,-0.01,-0.38,0.44
8.903365135192871,-0.12,0.09,-0.42,0.44
8.913057804107666,-0.05,0.11,-0.39,0.4
8.922624111175537,0.16,0.16,-0.09,0.24
8.95082402229309,0.48,0.21,0.31,0.6
8.95197582244873,0.39,0.15,0.31,0.52
8.952821969985962,0.16,0.15,0.06,0.22
8.972934007644653,0.09,0.33,-0.01,0.34
8.97394609451294,-0.15,0.51,-0.26,0.59
8.98888111114502,-0.53,0.62,-0.67,1.05
8.992069005966187,-0.81,0.75,-1.04,1.51
9.004530906677246,-1.04,0.74,-1.19,1.74
9.012408018112183,-1.18,0.76,-1.31,1.91
9.022057056427002,-1.37,0.84,-1.35,2.09
9.05137014389038,-1.69,1.07,-1.19,2.32
9.052706956863403,-2.16,1.26,-1.0,2.69
9.053741931915283,-2.78,1.6,-0.89,3.32
9.073091983795166,-3.49,1.85,-1.8,4.34
9.074103832244873,-4.67,2.45,-1.79,5.56
9.088056087493896,-3.87,3.29,-1.08,5.19
9.091305017471313,-3.43,2.76,-1.6,4.68
9.104557037353516,-3.55,3.13,-1.68,5.02
9.111587047576904,-3.54,3.36,-1.68,5.16
9.121356964111328,-3.49,3.57,-1.98,5.37
9.152369022369385,-3.94,4.26,-2.94,6.5
9.153679847717285,-4.63,5.05,-3.76,7.81
9.154698848724365,-4.9,5.3,-3.85,8.18
9.173074007034302,-5.3,5.38,-3.98,8.53
9.174124002456665,-5.88,5.64,-4.24,9.18
9.189244985580444,-6.05,5.22,-4.18,9.01
9.190389156341553,-5.64,4.43,-3.98,8.2
9.204977035522461,-4.64,3.58,-4.38,7.31
9.210607051849365,-3.77,3.54,-5.01,7.2
9.221043109893799,-4.0,4.91,-5.69,8.51
9.252756118774414,-4.18,6.91,-6.28,10.23
9.25408411026001,-3.56,8.64,-6.11,11.16
9.255113124847412,0.09,11.24,-2.53,11.52
9.27310299873352,2.64,10.03,-0.25,10.37
9.274163961410522,1.23,4.72,-1.68,5.15
9.28892183303833,-2.07,2.95,-4.89,6.07
9.289961814880371,-5.03,1.63,-6.74,8.56
9.304927825927734,-6.95,-2.71,-7.06,10.27
9.309944152832031,-4.76,-6.08,-4.8,9.09
9.32113790512085,1.76,-2.42,-1.78,3.48
9.358530044555664,0.14,-2.33,-1.87,2.99
9.359853982925415,-4.6,-3.76,-3.5,6.89
9.360870838165283,-8.17,-3.66,-4.17,9.87
9.37313199043274,-9.89,-3.61,-3.66,11.14
9.37417197227478,-9.87,-3.94,-2.26,10.86
9.389132022857666,-8.82,-4.64,-0.84,10.0
9.390201091766357,-7.64,-5.54,0.06,9.43
9.40501594543457,-6.94,-5.97,0.34,9.16
9.409160137176514,-6.74,-5.83,0.16,8.91
9.421167850494385,-6.75,-5.44,-0.25,8.67
9.45705509185791,-6.79,-5.01,-0.48,8.45
9.458445072174072,-6.65,-4.36,-0.32,7.95
9.459443092346191,-6.32,-3.89,-0.02,7.42
9.473325967788696,-5.9,-3.42,-0.04,6.81
9.474349975585938,-5.52,-2.78,-0.68,6.21
9.489248037338257,-4.9,-1.67,-1.63,5.42
9.490262031555176,-3.49,-0.69,-2.47,4.33
9.505054950714111,-1.13,-0.31,-2.9,3.12
9.50835394859314,1.39,-0.22,-2.71,3.05
9.521123886108398,3.14,0.16,-2.06,3.75
9.556314945220947,3.6,0.57,-1.6,3.98
9.557633876800537,3.35,1.24,-1.28,3.79
9.558562994003296,3.24,2.24,-0.75,4.0
9.573346138000488,3.34,3.21,0.32,4.64
9.574400901794434,3.48,3.96,1.73,5.54
9.589048862457275,4.12,4.38,2.57,6.53
9.590086936950684,5.41,4.73,2.3,7.54
9.604895114898682,7.12,4.98,1.36,8.79
9.60736894607544,8.66,4.93,0.75,9.99
9.621340990066528,9.21,6.1,0.38,11.05
9.656121015548706,6.62,12.79,-0.04,14.4
9.65747594833374,11.21,9.18,-1.06,14.52
9.658484935760498,17.46,7.21,1.05,18.91
9.673409938812256,19.48,7.54,3.4,21.16
9.674468040466309,18.76,7.04,4.48,20.53
9.689276933670044,17.37,5.53,5.16,18.94
9.69030499458313,16.2,4.45,5.76,17.76
9.704754829406738,13.64,1.76,4.52,14.47
9.706503868103027,5.88,-2.6,-0.46,6.44
9.721240997314453,-3.6,-1.04,-3.36,5.03
9.726781845092773,-5.08,5.53,-0.46,7.52
9.766645908355713,0.19,7.14,4.0,8.18
9.767815113067627,4.51,3.36,4.03,6.91
9.768816947937012,7.88,-1.37,2.3,8.32
9.790255069732666,7.86,-3.1,-0.26,8.45
9.791291952133179,5.54,0.31,0.65,5.58
9.805990934371948,3.72,1.41,2.0,4.45
9.807018041610718,2.81,-0.47,1.88,3.41
9.822175979614258,2.7,-1.2,1.92,3.52
9.823616981506348,2.32,-0.69,1.88,3.06
9.83820915222168,1.68,-0.03,1.81,2.46
9.8681321144104,0.91,0.07,1.35,1.62
9.869457006454468,0.15,0.11,0.46,0.49
9.870447158813477,-0.28,0.2,-0.43,0.55
9.891160011291504,-0.38,0.33,-1.25,1.34
9.892199039459229,-0.46,0.48,-1.87,1.98
9.906406879425049,-0.38,0.36,-2.06,2.12
9.90745210647583,-0.21,0.19,-1.75,1.77
9.921966075897217,0.01,0.02,-1.16,1.16
9.92343282699585,0.23,-0.01,-0.62,0.66
9.938035011291504,0.54,-0.08,-0.74,0.91
9.967541933059692,0.54,-0.21,-1.0,1.15
9.9687819480896,0.17,-0.09,-0.72,0.74
9.969780921936035,-0.26,0.03,0.07,0.27
9.99000096321106,-0.55,0.18,0.63,0.85
9.99100112915039,-0.68,0.34,0.63,0.98
10.006033897399902,-0.5,0.28,0.08,0.57
10.007032871246338,0.06,0.15,-0.18,0.24
10.022022008895874,0.76,0.08,0.17,0.78
10.023498058319092,0.97,-0.1,0.4,1.05
10.038329124450684,0.68,-0.11,0.18,0.71
10.068726062774658,0.43,0.02,-0.32,0.53
10.070066928863525,0.22,0.16,-0.51,0.57
10.071035861968994,0.16,0.23,-0.51,0.58
10.089998006820679,0.24,0.18,-0.41,0.5
10.090968132019043,0.24,-0.05,-0.34,0.41
10.106053829193115,0.12,-0.26,-0.22,0.36
10.107079029083252,-0.1,-0.18,-0.01,0.2
10.121962070465088,-0.1,-0.08,-0.03,0.13
10.123317956924438,0.13,-0.1,-0.42,0.45
10.13810110092163,0.28,-0.24,-0.83,0.9
10.166306018829346,0.17,-0.24,-0.87,0.91
10.167666912078857,0.0,0.12,-0.7,0.71
10.1685049533844,-0.25,0.53,-0.7,0.91
10.170470952987671,-0.42,0.78,-0.69,1.12
10.173089981079102,-0.63,0.88,-0.64,1.25
10.183207035064697,-0.95,0.94,-0.77,1.54
10.19327998161316,-1.12,0.96,-0.87,1.71
10.203373908996582,-1.34,1.09,-0.91,1.95
10.213021039962769,-1.92,1.46,-1.18,2.68
10.222868919372559,-2.61,1.83,-1.3,3.44
10.259212970733643,-2.56,2.16,-1.0,3.49
10.260302066802979,-2.67,2.16,-1.12,3.61
10.26125192642212,-3.06,2.02,-1.16,3.84
10.273622989654541,-3.35,2.12,-1.25,4.15
10.274671077728271,-3.7,2.35,-1.54,4.64
10.289438962936401,-3.83,2.7,-1.88,5.04
10.292186975479126,-3.77,3.0,-2.11,5.25
10.304898023605347,-3.79,3.25,-2.26,5.48
10.31204605102539,-4.15,3.71,-2.43,6.07
10.322250843048096,-4.53,4.1,-3.01,6.81
10.359981060028076,-4.86,4.38,-3.45,7.39
10.361294984817505,-5.17,4.56,-3.65,7.8
10.362183094024658,-5.47,4.75,-3.68,8.12
10.37357497215271,-5.81,4.8,-3.9,8.48
10.374671936035156,-6.02,4.47,-3.72,8.37
10.38987684249878,-5.81,3.88,-3.75,7.92
10.39139986038208,-5.07,3.03,-4.19,7.24
10.405019998550415,-3.54,2.35,-4.37,6.09
10.411597967147827,-2.9,3.5,-5.0,6.75
10.421721935272217,-3.06,5.81,-5.63,8.64
10.458693981170654,-3.1,7.89,-5.87,10.31
10.460134029388428,-0.68,10.47,-3.53,11.06
10.461148977279663,3.15,11.26,-0.82,11.72
10.473822116851807,2.54,6.11,-2.14,6.95
10.474876880645752,-0.15,3.48,-5.85,6.8
10.489650964736938,-2.8,1.51,-8.2,8.79
10.490717887878418,-4.71,-3.04,-8.26,9.98
10.505270957946777,-3.51,-5.37,-6.53,9.15
10.510515928268433,2.75,-2.9,-3.77,5.49
10.520579814910889,1.75,-3.17,-2.96,4.67
10.530833959579468,-4.23,-3.42,-4.09,6.8
10.563370943069458,-8.67,-2.99,-5.3,10.59
10.564836978912354,-10.34,-2.8,-4.36,11.56
10.56585693359375,-10.09,-2.61,-2.23,10.65
10.570188999176025,-9.12,-3.02,-0.43,9.61
10.58031415939331,-8.52,-4.07,0.5,9.45
10.59009313583374,-8.82,-4.81,0.81,10.07
10.600113868713379,-9.44,-4.78,0.9,10.61
10.609624862670898,-9.48,-4.23,1.07,10.43
10.620315074920654,-8.83,-3.73,1.22,9.66
10.630048990249634,-8.19,-3.49,1.22,8.98
10.662263870239258,-7.72,-3.27,0.83,8.42
10.663633823394775,-7.22,-3.04,0.11,7.83
10.664689064025879,-6.61,-2.62,-0.48,7.12
10.674008846282959,-5.57,-1.85,-0.89,5.93
10.679322004318237,-4.34,-1.34,-1.49,4.78
10.689516067504883,-2.79,-0.97,-2.27,3.72
10.699352979660034,-1.13,-0.7,-2.4,2.74
10.708783149719238,0.52,-0.42,-1.99,2.09
10.719583988189697,1.7,-0.23,-1.63,2.36
10.729110956192017,2.27,-0.03,-1.33,2.63
10.762282848358154,2.88,0.84,-0.71,3.08
10.763518810272217,3.48,1.89,0.08,3.96
10.764487028121948,3.79,2.75,1.05,4.79
10.769761085510254,3.86,3.48,2.15,5.62
10.77882695198059,4.03,4.57,3.4,6.97
10.789788007736206,4.72,5.72,4.36,8.6
10.798675060272217,6.02,6.43,4.32,9.81
10.808735847473145,7.39,6.6,3.64,10.55
10.818825006484985,6.12,12.72,2.54,14.34
10.829088926315308,7.09,14.74,-0.49,16.36
10.861984968185425,16.38,9.07,0.51,18.73
10.863363981246948,22.24,5.48,2.72,23.06
10.864287853240967,22.47,5.66,2.54,23.31
10.874058961868286,20.64,6.28,2.63,21.73
10.87785005569458,18.92,5.55,3.71,20.06
10.888039112091064,16.85,4.05,3.49,17.67
10.897913932800293,11.42,0.02,0.71,11.44
10.907565116882324,1.56,-1.74,-3.22,3.97
10.917695999145508,-5.18,3.46,-2.33,6.65
10.927649021148682,-3.52,8.1,4.06,9.72
10.966547966003418,3.01,4.39,4.86,7.2
10.967952013015747,7.74,-3.52,1.77,8.68
10.968935012817383,7.3,-3.59,0.55,8.15
10.97119402885437,5.46,0.26,2.31,5.93
10.977102994918823,3.6,0.88,2.95,4.73
10.98756194114685,2.05,-0.67,2.37,3.2
10.997169971466064,1.04,-1.18,2.05,2.58
11.007011890411377,0.28,-0.75,1.7,1.87
11.017066955566406,0.28,-0.07,0.94,0.98
11.027135848999023,0.85,0.44,0.3,1.0
11.065971851348877,1.04,0.27,0.13,1.08
11.067308902740479,0.91,0.07,-0.45,1.01
11.068272113800049,0.81,-0.14,-1.85,2.02
11.070373058319092,0.73,0.01,-1.97,2.1
11.076416969299316,0.61,0.22,-1.1,1.27
11.0865478515625,0.6,0.18,-0.51,0.8
11.096342086791992,0.65,0.03,-0.48,0.8
11.106223106384277,0.6,-0.02,-0.61,0.85
11.116343975067139,0.39,0.04,-0.39,0.55
11.126346111297607,0.15,0.08,0.21,0.27
11.164530992507935,-0.08,0.08,0.59,0.6
11.165743827819824,-0.17,0.14,0.5,0.54
11.166532039642334,-0.1,0.2,0.25,0.33
11.169871807098389,-0.04,0.23,0.11,0.25
11.190088987350464,-0.05,0.11,-0.28,0.3
11.191104888916016,0.02,-0.05,-0.52,0.52
11.205436944961548,0.29,0.04,-0.43,0.52
11.206390857696533,0.36,0.01,-0.52,0.63
11.221954822540283,0.26,0.05,-0.43,0.5
11.225432872772217,0.14,0.18,0.06,0.23
11.267854928970337,0.0,0.15,0.24,0.28
11.269003868103027,0.05,-0.01,0.11,0.12
11.269994974136353,0.13,-0.16,-0.08,0.22
11.291029930114746,0.05,-0.12,0.04,0.13
11.292094945907593,-0.03,-0.03,-0.11,0.11
11.306699991226196,-0.08,0.02,-0.38,0.38
11.307760000228882,-0.05,0.17,-0.6,0.62
11.322556972503662,0.13,0.35,-0.67,0.76
11.324030876159668,0.19,0.34,-0.55,0.67
11.338737964630127,0.0,0.43,-0.56,0.7
11.340190887451172,-0.14,0.49,-0.49,0.7
11.386750936508179,-0.41,0.43,-0.45,0.74
11.387929916381836,-0.62,0.45,-0.64,0.99
11.388998985290527,-0.86,0.49,-0.72,1.22
11.407624959945679,-1.09,0.51,-0.85,1.47
11.40867280960083,-1.17,0.58,-1.06,1.68
11.423707962036133,-1.29,0.76,-1.55,2.15
11.425168991088867,-1.56,0.83,-1.92,2.6
11.439419984817505,-1.72,1.06,-2.11,2.92
11.440891981124878,-2.06,1.51,-2.25,3.4
11.455304145812988,-3.23,2.47,-1.9,4.48
11.488275051116943,-3.41,3.25,-0.84,4.78
11.489648818969727,-3.47,3.08,-0.75,4.69
11.49067497253418,-4.13,3.15,-1.13,5.31
11.507673978805542,-4.49,3.39,-1.26,5.76
11.508731842041016,-4.49,3.59,-1.41,5.91
11.523905992507935,-4.22,3.85,-1.79,5.98
11.525390148162842,-4.07,4.11,-2.16,6.17
11.539230823516846,-4.25,4.49,-2.69,6.74
11.540714025497437,-4.61,4.77,-3.15,7.34
11.55541181564331,-5.06,4.97,-3.5,7.9
11.58838415145874,-5.8,5.3,-3.81,8.73
11.589702129364014,-6.35,5.16,-3.92,9.07
11.590723991394043,-6.37,4.76,-3.9,8.85
11.607757091522217,-5.86,4.31,-4.34,8.47
11.608785152435303,-4.6,3.58,-4.7,7.48
11.62395191192627,-3.25,3.45,-5.33,7.13
11.625434875488281,-3.24,4.58,-5.92,8.15
11.63929796218872,-3.62,6.83,-5.75,9.63
11.640785932540894,-2.43,9.36,-4.11,10.5
11.655622959136963,1.39,12.17,-0.77,12.27
11.686622142791748,2.0,8.94,-0.53,9.17
11.687944889068604,-0.47,4.71,-2.8,5.49
11.688915967941284,-3.43,3.13,-5.06,6.86
11.708194017410278,-5.7,0.2,-6.34,8.52
11.709260940551758,-6.79,-5.05,-6.45,10.63
11.723626136779785,-2.23,-5.13,-3.78,6.75
11.725145816802979,3.26,-1.41,-0.62,3.6
11.739401817321777,0.39,-1.99,-1.74,2.67
11.740844011306763,-4.24,-2.55,-3.83,6.25
11.755673885345459,-7.39,-2.67,-4.47,9.04
11.786715984344482,-8.58,-2.74,-3.86,9.79
11.787992000579834,-8.51,-3.02,-2.43,9.35
11.789016962051392,-7.99,-4.01,-1.01,8.99
11.807420015335083,-7.58,-5.08,-0.17,9.12
11.808470964431763,-7.43,-5.41,0.01,9.19
11.82358694076538,-7.29,-5.09,-0.23,8.89
11.82505989074707,-7.05,-4.46,-0.36,8.35
11.839306831359863,-6.7,-3.96,-0.31,7.78
11.840821027755737,-6.38,-3.88,-0.06,7.46
11.856480121612549,-6.29,-3.75,0.45,7.33
11.887910842895508,-6.6,-3.64,0.84,7.58
11.889156818389893,-7.03,-3.45,0.85,7.87
11.89018702507019,-7.17,-2.79,0.4,7.7
11.907690048217773,-6.61,-1.77,-0.41,6.85
11.90880012512207,-5.43,-0.9,-1.21,5.63
11.923527002334595,-3.59,-0.28,-1.54,3.91
11.92454195022583,-1.75,-0.02,-1.38,2.22
11.93946099281311,-0.73,0.0,-0.87,1.13
11.940951824188232,0.25,0.44,-0.3,0.58
11.95560884475708,2.04,1.47,0.16,2.51
11.98701810836792,3.74,2.18,0.03,4.32
11.988350868225098,4.49,2.46,-0.04,5.11
11.989400863647461,4.84,3.43,0.37,5.94
12.007476806640625,5.81,4.6,0.05,7.41
12.00854206085205,7.02,5.32,-1.27,8.89
12.023767948150635,8.2,6.73,-1.84,10.76
12.024780988693237,10.62,8.44,-1.18,13.61
12.039665937423706,13.82,8.65,-1.01,16.33
12.041184902191162,12.18,13.32,-0.54,18.05
12.055685997009277,14.48,10.96,-0.72,18.17
12.08536696434021,19.14,5.79,0.57,20.0
12.086725950241089,17.84,4.23,3.35,18.63
12.087733030319214,15.13,4.43,5.06,16.55
12.107573986053467,13.74,5.11,6.72,16.12
12.108606815338135,12.97,5.5,7.81,16.1
12.123981952667236,11.67,4.82,7.55,14.71
12.125051021575928,7.21,-0.29,3.21,7.89
12.138986110687256,-2.04,-3.18,-1.98,4.26
12.140020847320557,-6.44,1.43,-3.02,7.25
12.155727863311768,-0.86,6.84,0.62,6.92
12.15720510482788,4.04,7.06,2.54,8.52
12.202018022537231,6.28,4.08,2.77,7.98
12.203181028366089,7.93,-0.96,0.63,8.01
12.204214096069336,6.8,-1.83,-0.47,7.05
12.224388122558594,4.9,-0.01,1.48,5.11
12.225417137145996,3.4,-0.48,1.93,3.93
12.240453004837036,2.72,-1.12,1.58,3.33
12.241479873657227,2.26,-0.85,1.44,2.81
12.256345987319946,1.74,-0.36,1.13,2.1
12.257826805114746,1.07,-0.02,0.65,1.25
12.27238392829895,0.27,0.15,0.19,0.36
12.301619052886963,-0.37,0.19,-0.24,0.48
12.30295991897583,-0.84,0.14,-0.75,1.13
12.303766965866089,-1.06,0.24,-0.99,1.47
12.324795007705688,-0.97,0.38,-0.89,1.37
12.325868129730225,-0.53,0.2,-0.34,0.66
12.340415000915527,0.14,-0.12,-0.05,0.19
12.341483116149902,0.79,-0.26,-0.09,0.83
12.356027126312256,1.33,-0.09,-0.26,1.35
12.357068061828613,1.41,0.03,-0.77,1.6
12.372619152069092,1.21,-0.09,-1.09,1.63
12.401567935943604,0.95,-0.09,-0.6,1.12
12.402693033218384,0.72,-0.06,0.28,0.77
12.403514862060547,0.46,-0.03,0.67,0.81
12.42476511001587,0.31,0.02,0.6,0.67
12.42581295967102,0.26,0.16,0.23,0.38
12.440799951553345,0.08,0.12,-0.19,0.23
12.441941976547241,0.03,0.07,-0.34,0.34
12.456060886383057,0.09,0.04,-0.21,0.23
12.457093000411987,0.14,-0.07,-0.2,0.25
12.472618103027344,0.11,-0.04,-0.31,0.33
12.502195835113525,-0.04,0.01,-0.39,0.39
12.503505945205688,-0.21,-0.03,-0.31,0.37
12.504377841949463,-0.29,0.04,0.03,0.29
12.52471113204956,-0.3,0.02,0.2,0.36
12.525714874267578,-0.3,-0.06,0.34,0.45
12.540663957595825,-0.24,-0.03,0.19,0.3
12.541677951812744,-0.14,-0.05,-0.2,0.24
12.555952072143555,-0.14,-0.02,-0.36,0.38
12.556910037994385,-0.21,0.1,-0.37,0.43
12.572818994522095,-0.27,0.24,-0.36,0.51
12.600739002227783,-0.18,0.31,-0.31,0.47
12.601907014846802,0.04,0.28,-0.2,0.34
12.602674961090088,0.01,0.36,-0.35,0.5
12.604889869689941,-0.24,0.4,-0.62,0.77
12.6059889793396,-0.5,0.37,-0.97,1.15
12.607163906097412,-0.72,0.57,-1.16,1.47
12.608400821685791,-1.02,0.88,-1.28,1.85
12.61458683013916,-1.29,0.92,-1.65,2.28
12.624917030334473,-1.67,0.8,-2.01,2.73
12.63453197479248,-2.23,0.89,-2.31,3.33
12.669595003128052,-2.34,1.11,-2.11,3.34
12.670730113983154,-2.37,1.34,-2.09,3.43
12.671526908874512,-2.3,1.92,-2.26,3.75
12.691149950027466,-2.33,2.58,-2.22,4.12
12.692174911499023,-3.2,4.26,-1.59,5.56
12.707118034362793,-3.43,4.72,-1.47,6.01
12.708153009414673,-3.35,4.06,-1.38,5.44
12.722826957702637,-3.8,4.59,-1.39,6.11
12.723856925964355,-4.63,4.97,-2.62,7.28
12.738947868347168,-4.7,5.1,-3.25,7.65
12.770995140075684,-4.62,5.27,-3.5,7.83
12.772097110748291,-5.31,5.64,-3.77,8.61
12.772902965545654,-6.16,5.58,-3.99,9.21
12.791229963302612,-6.54,5.13,-4.01,9.22
12.792255878448486,-6.28,4.4,-4.03,8.66
12.807243824005127,-5.34,3.33,-4.25,7.59
12.808292865753174,-3.98,2.39,-4.41,6.4
12.82233190536499,-2.76,2.92,-4.67,6.16
12.823347091674805,-2.77,4.82,-5.53,7.84
12.840353012084961,-3.21,6.43,-6.24,9.51
12.8695809841156,-1.53,8.08,-3.88,9.09
12.870695114135742,3.28,10.62,-0.49,11.12
12.871519088745117,3.94,7.12,-0.88,8.18
12.891204833984375,0.79,2.54,-3.63,4.5
12.892228126525879,-2.53,0.85,-5.99,6.55
12.90744686126709,-4.97,-1.8,-6.72,8.54
12.908502101898193,-5.11,-5.43,-6.31,9.76
12.922959804534912,0.73,-3.83,-3.56,5.27
12.923993110656738,2.39,-3.12,-2.06,4.43
12.939455032348633,-1.82,-3.86,-2.99,5.21
12.942604064941406,-6.12,-3.08,-4.42,8.15
12.986171960830688,-8.46,-2.56,-4.37,9.86
12.98737382888794,-8.98,-2.48,-3.29,9.88
12.98835802078247,-8.65,-3.07,-1.8,9.35
13.00827693939209,-8.28,-4.02,-0.64,9.22
13.009297847747803,-7.95,-4.58,-0.03,9.17
13.023752927780151,-7.87,-4.49,0.14,9.06
13.024799823760986,-7.95,-4.03,0.13,8.91
13.039942026138306,-7.93,-3.7,0.25,8.75
13.041409015655518,-7.54,-3.45,0.64,8.31
13.056111812591553,-6.91,-3.42,1.04,7.77
13.086773872375488,-6.5,-3.48,1.19,7.46
13.088419914245605,-6.35,-3.47,0.81,7.28
13.089452028274536,-6.34,-3.23,0.22,7.11
13.107982158660889,-6.27,-2.64,-0.23,6.8
13.10904598236084,-5.82,-1.76,-0.46,6.09
13.123838901519775,-4.66,-0.92,-0.71,4.8
13.124867916107178,-3.11,-0.46,-1.06,3.31
13.140175819396973,-1.63,-0.07,-1.04,1.93
13.141583919525146,-0.77,0.5,-0.42,1.0
13.156196117401123,-0.68,0.92,0.4,1.21
13.188122987747192,-0.37,1.9,1.46,2.42
13.189535140991211,0.53,3.0,2.42,3.89
13.190506935119629,1.58,3.82,2.94,5.07
13.208323001861572,2.5,4.73,3.17,6.21
13.209405899047852,3.54,5.99,3.14,7.63
13.224100112915039,4.99,7.15,2.5,9.07
13.225106000900269,6.87,7.61,1.39,10.34
13.239974975585938,8.79,7.53,0.48,11.58
13.241427898406982,7.85,12.15,-0.2,14.46
13.256607055664062,12.42,11.83,-3.85,17.57
13.287021160125732,22.73,6.67,-4.36,24.08
13.288383960723877,25.42,3.06,-0.92,25.62
13.289265155792236,21.46,2.92,1.49,21.7
13.30824089050293,17.4,4.14,3.54,18.23
13.309267044067383,14.7,4.11,5.52,16.23
13.324254989624023,12.58,3.7,7.47,15.09
13.32526683807373,10.99,3.55,9.31,14.83
13.339728832244873,8.42,0.67,6.83,10.86
13.340778827667236,0.05,-0.75,0.21,0.78
13.356259822845459,-6.61,6.34,-0.82,9.19
13.387086868286133,-2.38,8.72,1.77,9.21
13.388422966003418,0.92,0.88,1.15,1.71
13.389322996139526,1.56,-1.83,1.87,3.04
13.40796709060669,3.83,-2.42,3.32,5.61
13.408968925476074,4.43,-1.16,2.6,5.26
13.424736976623535,3.75,0.09,1.23,3.94
13.425763130187988,2.21,0.17,-0.16,2.22
13.439741134643555,1.14,-0.17,-0.23,1.17
13.4407320022583,0.99,-0.43,0.48,1.18
13.456499099731445,1.18,-0.23,0.59,1.33
13.485481977462769,1.35,-0.1,0.22,1.37
13.486663818359375,1.18,-0.11,-0.16,1.19
13.48749303817749,0.61,-0.03,-0.12,0.62
13.508502960205078,0.25,-0.06,-0.12,0.28
13.509485960006714,0.34,-0.12,-0.5,0.61
13.524500846862793,0.38,-0.05,-0.95,1.02
13.525545120239258,0.49,-0.04,-1.25,1.34
13.53985595703125,0.66,-0.15,-1.23,1.4
13.540895938873291,0.72,-0.09,-1.04,1.26
13.556412935256958,0.57,0.03,-0.58,0.81
13.588222980499268,0.34,0.12,0.08,0.36
13.589967012405396,0.23,0.12,0.46,0.52
13.590919017791748,0.33,0.03,0.58,0.66
13.608389854431152,0.58,-0.07,0.77,0.96
13.609413146972656,0.72,-0.04,0.91,1.16
13.624644994735718,0.63,-0.13,0.78,1.01
13.625691890716553,0.56,-0.13,0.57,0.8
13.64020299911499,0.47,-0.04,0.13,0.48
13.641655921936035,0.51,-0.02,-0.27,0.57
13.656481981277466,0.61,0.0,-0.43,0.74
13.689043998718262,0.53,-0.08,-0.48,0.71
13.690380096435547,0.35,-0.04,-0.5,0.61
13.691370964050293,0.13,0.08,-0.46,0.48
13.708323955535889,0.0,0.08,-0.34,0.34
13.709290981292725,-0.09,0.0,-0.1,0.13
13.724349975585938,-0.24,-0.07,-0.04,0.25
13.725359916687012,-0.39,0.0,0.02,0.39
13.740433931350708,-0.43,0.12,0.04,0.44
13.741907119750977,-0.46,0.2,-0.06,0.5
13.756318092346191,-0.49,0.28,-0.31,0.64
13.757805824279785,-0.64,0.2,-0.68,0.95
13.80438494682312,-0.74,0.13,-0.95,1.21
13.8055739402771,-0.88,0.34,-0.85,1.26
13.806573867797852,-1.11,0.72,-0.91,1.6
13.826779842376709,-1.14,1.1,-1.14,1.95
13.827790021896362,-1.22,1.26,-1.42,2.25
13.841149806976318,-1.6,1.34,-1.54,2.59
13.842191934585571,-2.0,1.46,-1.41,2.84
13.856916904449463,-2.29,1.43,-1.22,2.96
13.85837697982788,-2.81,1.47,-1.64,3.57
13.873262882232666,-3.47,1.82,-2.29,4.53
13.90397596359253,-4.37,2.75,-2.5,5.73
13.905313968658447,-3.8,3.69,-1.93,5.63
13.906330108642578,-3.31,3.38,-2.15,5.19
13.92497992515564,-3.51,3.53,-2.23,5.45
13.926033973693848,-3.99,4.13,-2.26,6.17
13.941318988800049,-4.4,4.98,-2.62,7.14
13.942346096038818,-4.53,5.6,-3.19,7.87
13.957052946090698,-4.61,5.92,-3.47,8.26
13.958569049835205,-4.79,5.97,-3.24,8.31
13.973167896270752,-5.4,5.92,-3.15,8.6
14.003922939300537,-6.21,5.98,-3.2,9.19
14.005195140838623,-6.09,5.1,-3.3,8.6
14.00620985031128,-5.02,3.64,-3.57,7.15
14.024960994720459,-3.99,3.04,-4.1,6.47
14.025985956192017,-3.0,3.17,-4.97,6.61
14.041656970977783,-3.48,4.43,-5.41,7.81
14.042680025100708,-4.18,6.1,-5.0,8.92
14.056949138641357,-1.47,8.09,-1.83,8.42
14.058365821838379,3.36,10.21,1.05,10.79
14.073060035705566,3.07,7.42,-0.54,8.04
14.101887941360474,-0.32,4.23,-3.87,5.74
14.104501962661743,-3.72,2.47,-5.77,7.29
14.105318069458008,-6.38,-0.01,-6.29,8.95
14.12519884109497,-7.98,-4.94,-6.16,11.22
14.126258850097656,-4.04,-5.87,-3.99,8.16
14.141386032104492,1.2,-1.48,-0.65,2.01
14.142452001571655,-1.6,-1.79,-1.02,2.6
14.157034873962402,-6.27,-2.25,-2.58,7.14
14.1580491065979,-9.68,-2.11,-2.82,10.3
14.173521041870117,-11.06,-2.4,-1.84,11.46
14.201088905334473,-10.88,-2.96,-0.44,11.28
14.202311038970947,-9.92,-3.57,0.76,10.57
14.203164100646973,-8.74,-4.29,1.35,9.82
14.205350875854492,-7.94,-4.62,1.28,9.27
14.207495927810669,-7.43,-4.49,0.84,8.72
14.20865797996521,-6.79,-4.16,0.44,7.97
14.21265196800232,-6.22,-3.84,0.34,7.31
14.22318696975708,-5.78,-3.61,0.35,6.82
14.232791900634766,-5.45,-3.33,0.45,6.4
14.242702960968018,-5.14,-2.86,0.78,5.93
14.276764869689941,-4.92,-2.18,0.96,5.46
14.277748107910156,-4.79,-1.58,0.46,5.06
14.278579950332642,-4.37,-1.08,-0.75,4.56
14.292062997817993,-3.11,-0.69,-2.1,3.81
14.292917966842651,-0.95,-0.27,-2.46,2.65
14.308103084564209,1.3,0.3,-1.63,2.1
14.312059879302979,2.7,0.41,-0.7,2.81
14.32193899154663,2.93,0.22,-0.13,2.94
14.331969022750854,2.59,0.69,0.34,2.7
14.341773986816406,2.08,1.64,0.92,2.8
14.379322052001953,1.87,2.78,1.92,3.86
14.380604982376099,2.47,3.98,3.05,5.58
14.381425857543945,3.66,4.87,3.31,6.93
14.39230489730835,5.02,5.54,2.63,7.92
14.393366813659668,6.8,6.46,2.33,9.66
14.408257961273193,9.2,6.72,1.67,11.51
14.411226987838745,11.48,6.68,0.92,13.31
14.423696994781494,12.57,6.87,0.21,14.32
14.43134093284607,9.2,13.0,0.49,15.93
14.440960884094238,13.08,7.69,-1.11,15.21
14.47905683517456,18.98,1.91,-0.13,19.07
14.480159997940063,19.15,0.57,1.32,19.2
14.480984926223755,16.99,1.95,1.61,17.17
14.491658926010132,16.49,5.37,2.31,17.49
14.492532014846802,15.09,6.03,3.2,16.56
14.508307933807373,7.1,1.61,1.17,7.37
14.510515928268433,-4.08,0.79,-1.88,4.56
14.523541927337646,-8.29,4.6,-0.6,9.49
14.53059697151184,-1.92,7.28,3.71,8.39
14.540258884429932,3.55,2.74,2.63,5.19
14.550570964813232,5.67,-0.11,1.7,5.92
14.58176302909851,8.14,0.14,1.46,8.27
14.582736015319824,7.93,-1.03,0.68,8.02
14.583805084228516,5.6,0.73,1.92,5.96
14.589745998382568,3.62,0.53,2.17,4.25
14.608508110046387,2.36,-1.11,1.43,2.97
14.60962200164795,1.82,-1.39,0.95,2.47
14.623838901519775,1.36,-0.65,0.53,1.59
14.629565000534058,0.79,0.16,0.34,0.87
14.639924049377441,0.07,0.45,0.08,0.46
14.649842977523804,-0.65,0.26,-0.3,0.76
14.68257999420166,-0.99,0.07,-0.53,1.12
14.683652877807617,-0.96,0.01,-0.6,1.13
14.684728145599365,-0.56,0.04,-0.48,0.73
14.689424991607666,-0.02,0.03,-0.28,0.28
14.699229955673218,0.57,-0.03,-0.15,0.59
14.709042072296143,0.9,-0.11,-0.28,0.94
14.718905925750732,1.1,-0.15,-0.54,1.23
14.728791952133179,1.06,-0.04,-0.82,1.34
14.73911714553833,0.77,0.1,-1.11,1.35
14.74900484085083,0.41,0.1,-1.1,1.17
14.780559062957764,0.42,0.02,-0.49,0.64
14.781722068786621,0.42,-0.08,0.06,0.43
14.782463073730469,0.09,-0.18,0.07,0.21
14.792788982391357,-0.16,-0.06,0.14,0.22
14.798632144927979,-0.27,-0.02,0.24,0.36
14.80954098701477,-0.19,0.01,0.1,0.21
14.818160057067871,0.04,0.25,-0.33,0.41
14.828278064727783,0.14,0.37,-0.45,0.59
14.838325023651123,0.11,0.46,-0.42,0.63
14.848423957824707,-0.05,0.18,-0.64,0.66
14.881121158599854,-0.45,-0.04,-0.83,0.94
14.882197856903076,-0.72,-0.12,-0.51,0.89
14.883002996444702,-0.64,0.04,0.01,0.64
14.889320850372314,-0.43,0.21,0.34,0.58
14.8977689743042,-0.54,0.31,0.63,0.88
14.908501148223877,-0.48,0.35,0.7,0.91
14.917707920074463,0.03,0.28,0.51,0.58
14.927565097808838,0.36,0.24,0.23,0.49
14.937872886657715,0.4,0.28,-0.35,0.6
14.947732925415039,0.28,0.21,-0.65,0.73
14.987660884857178,0.05,0.05,-0.95,0.95
14.989027976989746,-0.23,-0.06,-1.06,1.08
14.990056037902832,-0.62,0.1,-0.91,1.1
15.009006977081299,-1.13,0.55,-1.13,1.69
15.010079860687256,-1.37,0.91,-1.36,2.13
15.025436878204346,-1.74,1.01,-1.68,2.62
15.026932954788208,-1.99,0.95,-1.77,2.82
15.04102611541748,-2.13,0.87,-1.57,2.78
15.042490005493164,-2.37,0.85,-1.55,2.95
15.057063102722168,-2.89,0.95,-1.95,3.61
15.08789587020874,-3.05,1.4,-2.45,4.15
15.089268922805786,-2.91,2.11,-2.51,4.38
15.090303897857666,-3.39,3.89,-1.93,5.5
15.108857154846191,-3.56,4.75,-1.54,6.13
15.109905004501343,-3.45,4.61,-1.31,5.9
15.125349044799805,-3.43,5.11,-1.24,6.27
15.126405000686646,-3.79,5.12,-2.03,6.68
15.140866041183472,-4.03,5.09,-2.25,6.87
15.142351150512695,-4.15,5.12,-2.2,6.94
15.157145023345947,-4.52,5.17,-2.21,7.21
15.186686038970947,-5.24,5.05,-2.66,7.74
15.18803095817566,-5.92,4.64,-3.29,8.2
15.189064979553223,-6.06,4.22,-3.59,8.21
15.209137916564941,-5.32,3.52,-3.87,7.46
15.210148811340332,-4.18,2.7,-4.53,6.72
15.2254638671875,-3.19,2.67,-5.23,6.68
15.226509094238281,-3.29,4.06,-5.77,7.78
15.240967035293579,-4.02,6.03,-5.95,9.37
15.242414951324463,-3.51,7.24,-4.99,9.46
15.257277011871338,0.01,9.75,-2.44,10.05
15.286054134368896,2.99,11.37,-1.14,11.81
15.287287950515747,1.4,6.89,-2.32,7.4
15.288100957870483,-1.91,3.09,-4.14,5.5
15.309266090393066,-4.41,0.67,-5.44,7.03
15.31033706665039,-5.87,-3.22,-6.3,9.19
15.325276851654053,-5.27,-6.52,-5.97,10.29
15.326339960098267,1.05,-3.69,-3.11,4.93
15.341421127319336,3.32,-2.12,-0.91,4.04
15.34288501739502,-1.03,-3.04,-2.15,3.86
15.35727596282959,-5.76,-3.43,-3.56,7.59
15.358778953552246,-9.1,-3.62,-3.48,10.39
15.403503894805908,-10.27,-3.65,-2.39,11.15
15.404685020446777,-10.05,-3.94,-1.01,10.84
15.405694007873535,-9.23,-4.45,0.14,10.24
15.42580795288086,-8.14,-4.76,0.7,9.45
15.426865100860596,-7.01,-4.69,0.66,8.46
15.441864967346191,-6.1,-4.32,0.48,7.49
15.44293212890625,-5.47,-4.0,0.38,6.78
15.457632064819336,-5.27,-3.93,0.25,6.57
15.459108829498291,-5.56,-3.85,0.06,6.76
15.47402286529541,-5.98,-3.32,-0.02,6.83
15.505751132965088,-6.01,-2.73,-0.11,6.6
15.50709581375122,-5.58,-2.36,-0.03,6.05
15.508116960525513,-4.65,-1.93,-0.08,5.03
15.526118993759155,-3.22,-1.66,-0.61,3.67
15.527120113372803,-1.35,-1.53,-1.28,2.4
15.540781021118164,0.44,-1.26,-1.49,2.0
15.542142868041992,1.64,-0.92,-1.54,2.43
15.557821035385132,2.11,-0.35,-1.42,2.56
15.559309005737305,1.97,0.18,-1.06,2.24
15.573680877685547,2.06,0.9,-0.62,2.33
15.603783130645752,2.74,1.85,-0.21,3.31
15.60529613494873,3.6,2.63,0.36,4.47
15.606297969818115,4.27,3.24,1.25,5.5
15.625555992126465,4.72,3.79,2.12,6.41
15.62661600112915,5.29,4.19,2.38,7.15
15.641953945159912,6.07,4.51,2.09,7.84
15.642995834350586,6.42,4.88,1.53,8.2
15.657752990722656,6.38,5.67,0.83,8.57
15.659202098846436,6.31,9.96,0.64,11.8
15.673931121826172,7.11,14.38,-0.48,16.04
15.70366382598877,13.11,8.34,-1.28,15.59
15.704983949661255,16.91,5.54,1.14,17.83
15.706001996994019,15.06,3.94,2.29,15.73
15.725839138031006,12.39,3.41,2.95,13.18
15.726866006851196,11.09,3.59,4.05,12.34
15.741796016693115,10.53,4.65,4.91,12.51
15.742825984954834,9.58,5.25,5.41,12.19
15.757730960845947,7.77,3.77,4.6,9.78
15.759174823760986,2.25,-0.19,1.24,2.57
15.773895025253296,-5.43,-0.88,-1.62,5.73
15.80218505859375,-5.51,1.78,0.12,5.79
15.803514957427979,2.78,3.54,2.18,5.0
15.804351806640625,7.84,3.47,1.56,8.71
15.806696891784668,7.94,3.72,1.56,8.9
15.807837963104248,6.58,3.46,1.82,7.65
15.81073808670044,6.04,1.11,0.91,6.2
15.820940971374512,4.19,-0.14,0.67,4.24
15.830716133117676,2.84,0.92,2.91,4.16
15.840620040893555,2.31,-0.41,3.37,4.1
15.850435972213745,2.37,-1.04,2.45,3.56
15.88627290725708,1.82,-0.6,1.43,2.39
15.887434959411621,0.94,-0.02,0.63,1.13
15.888257026672363,0.31,0.18,-0.14,0.38
15.909788131713867,-0.25,0.02,-0.73,0.77
15.910808086395264,-0.61,0.23,-0.94,1.14
15.925562858581543,-0.89,0.44,-0.99,1.4
15.92659592628479,-1.03,0.13,-0.9,1.37
15.941039085388184,-0.72,-0.19,-0.97,1.22
15.942036151885986,-0.18,-0.23,-1.03,1.07
15.957779884338379,0.07,-0.1,-1.26,1.26
15.987246990203857,0.26,0.09,-1.6,1.62
15.988376140594482,0.48,0.09,-1.54,1.61
15.989133834838867,0.65,0.1,-1.18,1.35
16.009338855743408,0.59,0.06,-0.64,0.87
16.010426998138428,-0.07,0.05,-0.31,0.32
16.02557396888733,-0.99,0.24,-0.61,1.18
16.02659797668457,-1.2,0.38,-0.83,1.5
16.040900945663452,-0.64,0.16,-0.46,0.8
16.04193902015686,0.02,-0.1,-0.19,0.21
16.057583808898926,0.34,-0.06,0.18,0.38
16.08906602859497,0.16,0.07,0.01,0.17
16.09034490585327,-0.02,0.11,-0.11,0.15
16.091364860534668,0.06,0.06,0.42,0.42
16.10958695411682,0.15,0.08,0.52,0.54
16.11058807373047,0.1,0.07,0.3,0.32
16.125610828399658,0.12,0.05,0.15,0.19
16.12662410736084,0.23,0.0,-0.21,0.31
16.1411190032959,0.18,-0.03,-0.38,0.42
16.14212203025818,0.23,-0.12,-0.31,0.4
16.157630920410156,0.34,-0.25,-0.26,0.49
16.15902090072632,0.43,-0.25,-0.26,0.56
16.204218864440918,0.51,-0.19,-0.11,0.55
16.205420970916748,0.48,-0.05,0.07,0.48
16.206416130065918,0.36,0.13,-0.01,0.38
16.226356029510498,0.23,0.18,-0.27,0.39
16.227370977401733,-0.05,0.32,-0.6,0.68
16.24227809906006,-0.4,0.43,-0.76,0.96
16.243278980255127,-0.7,0.51,-0.82,1.19
16.25822901725769,-1.01,0.7,-0.68,1.4
16.259670972824097,-1.18,1.01,-0.41,1.6
16.27427911758423,-1.33,1.44,-0.42,2.0
16.303279876708984,-1.41,1.57,-1.08,2.37
16.304656982421875,-2.27,1.4,-1.8,3.21
16.305663108825684,-2.19,2.26,-0.77,3.23
16.3265438079834,-2.18,2.04,-0.71,3.06
16.327553033828735,-2.73,2.1,-0.72,3.51
16.342370986938477,-3.36,2.17,-0.96,4.11
16.343387126922607,-3.67,2.25,-1.23,4.47
16.358070850372314,-3.61,2.55,-1.39,4.63
16.359538078308105,-3.67,2.84,-1.79,4.97
16.37425994873047,-3.89,2.95,-2.19,5.35
16.403033018112183,-4.24,3.06,-2.7,5.88
16.40449595451355,-4.64,3.48,-3.36,6.7
16.405457019805908,-5.06,4.19,-3.95,7.66
16.426281929016113,-5.63,5.31,-4.63,9.01
16.427317142486572,-6.0,6.2,-5.0,9.97
16.442526817321777,-6.18,6.21,-4.97,10.07
16.443552017211914,-6.3,5.71,-4.99,9.85
16.458369970321655,-6.01,5.03,-4.9,9.24
16.45978593826294,-4.89,4.25,-4.61,7.95
16.474492073059082,-3.86,4.15,-4.69,7.35
16.504153966903687,-4.62,6.0,-5.15,9.15
16.505620002746582,-4.72,7.97,-5.02,10.53
16.506627082824707,-1.9,9.99,-2.94,10.58
16.525936126708984,2.14,11.04,-1.04,11.29
16.526970863342285,1.28,7.2,-1.66,7.49
16.542838096618652,-1.96,4.5,-3.4,5.97
16.544358015060425,-4.71,3.01,-4.53,7.19
16.558209896087646,-6.25,0.3,-4.82,7.89
16.559697151184082,-6.21,-4.56,-5.03,9.2
16.57455587387085,-0.39,-3.93,-2.78,4.82
16.606618881225586,3.72,-0.91,-0.26,3.83
16.607985019683838,0.09,-1.94,-0.96,2.16
16.609002113342285,-4.77,-2.64,-2.9,6.17
16.626391887664795,-7.9,-2.88,-3.41,9.07
16.62745714187622,-9.07,-3.05,-2.44,9.87
16.642909049987793,-8.91,-3.34,-1.08,9.57
16.6443829536438,-7.86,-4.06,0.03,8.84
16.65822410583496,-6.74,-5.18,0.65,8.52
16.659751892089844,-6.24,-5.82,0.79,8.56
16.674614906311035,-6.23,-5.85,0.64,8.57
16.70532989501953,-6.43,-5.56,0.28,8.5
16.706719875335693,-6.62,-5.06,0.03,8.33
16.70777201652527,-6.49,-4.7,0.14,8.01
16.72623896598816,-6.17,-4.65,0.49,7.74
16.727293968200684,-5.92,-4.76,0.93,7.65
16.742395877838135,-5.87,-4.53,1.28,7.52
16.743436813354492,-6.01,-3.98,1.64,7.39
16.7581570148468,-6.14,-3.25,1.51,7.1
16.759617805480957,-5.64,-2.44,0.33,6.15
16.775405883789062,-4.11,-1.6,-1.02,4.52
16.805985927581787,-2.3,-0.99,-1.92,3.15
16.80729389190674,-0.98,-0.45,-1.4,1.76
16.808302879333496,0.34,0.08,-0.03,0.35
16.826322078704834,2.12,0.76,0.88,2.41
16.82737684249878,3.34,1.21,1.01,3.69
16.842575073242188,3.46,1.9,0.99,4.06
16.843567848205566,3.45,3.45,1.31,5.05
16.85826802253723,4.14,5.14,1.26,6.71
16.859722137451172,5.43,6.13,0.15,8.19
16.87480902671814,6.76,6.86,-1.25,9.71
16.903319835662842,8.3,7.96,-2.09,11.68
16.904569149017334,9.2,10.31,-2.29,14.0
16.905373096466064,8.11,17.74,-2.89,19.71
16.926844120025635,14.18,12.29,-4.4,19.27
16.927853107452393,19.99,5.4,-0.39,20.71
16.942841053009033,17.46,2.5,2.08,17.76
16.943900108337402,13.88,5.13,3.62,15.23
16.958202838897705,12.74,6.24,5.22,15.11
16.959250926971436,12.25,5.89,6.8,15.19
16.974555015563965,10.97,4.44,7.45,13.98
16.976029872894287,7.91,0.38,4.87,9.29
17.021284103393555,0.69,-2.46,0.54,2.61
17.022427082061768,-4.71,0.18,-1.18,4.85
17.02338981628418,0.0,3.97,0.84,4.05
17.043596982955933,5.14,4.26,2.62,7.17
17.044682025909424,8.17,2.03,3.15,8.98
17.059515953063965,8.93,-2.7,-0.22,9.33
17.060966968536377,6.16,0.08,-0.93,6.23
17.075073957443237,4.63,2.19,1.07,5.23
17.076531887054443,3.67,0.2,2.28,4.32
17.091665983200073,2.61,-1.24,2.12,3.58
17.12260913848877,1.58,-0.97,1.68,2.5
17.123939990997314,0.64,-0.39,1.35,1.54
17.12495493888855,0.11,0.06,1.3,1.3
17.143106937408447,-0.12,0.07,0.94,0.95
17.144181966781616,-0.42,-0.11,0.0,0.43
17.159392833709717,-0.51,-0.08,-0.75,0.91
17.16043996810913,-0.15,0.08,-1.03,1.04
17.175342082977295,0.14,0.24,-1.34,1.36
17.17679214477539,0.32,0.31,-1.32,1.39
17.191399097442627,0.49,0.39,-0.93,1.12
17.219830989837646,0.58,0.2,-0.84,1.04
17.22120499610901,0.77,-0.08,-1.08,1.32
17.222002029418945,1.01,-0.11,-1.02,1.43
17.243497848510742,0.72,-0.05,-0.64,0.96
17.244555950164795,-0.01,0.1,0.04,0.1
17.259976863861084,-0.68,0.25,0.59,0.93
17.261062145233154,-0.9,0.29,0.63,1.13
17.275096893310547,-0.46,0.26,0.14,0.54
17.276126861572266,0.25,0.12,-0.22,0.35
17.291572093963623,0.55,-0.04,-0.4,0.68
17.31984281539917,0.56,0.09,-0.38,0.68
17.321102142333984,0.57,0.24,-0.42,0.74
17.32207703590393,0.51,0.21,-0.56,0.78
17.34380602836609,0.41,0.13,-0.68,0.8
17.34484100341797,0.1,0.12,-0.8,0.81
17.35955286026001,-0.11,0.15,-0.73,0.75
17.36060094833374,-0.13,0.21,-0.44,0.5
17.375060081481934,-0.19,0.15,-0.5,0.55
17.376068115234375,-0.35,-0.05,-0.57,0.67
17.391389846801758,-0.55,-0.18,-0.57,0.81
17.418581008911133,-0.62,-0.22,-0.48,0.81
17.419550895690918,-0.38,0.07,-0.28,0.47
17.42041301727295,-0.29,0.36,-0.08,0.46
17.422439098358154,-0.46,0.43,-0.05,0.63
17.423781871795654,-0.55,0.29,-0.26,0.67
17.425078868865967,-0.56,0.27,-0.34,0.7
17.42844295501709,-0.55,0.26,-0.32,0.68
17.43866491317749,-0.53,0.49,-0.57,0.91
17.44863796234131,-1.21,0.94,-0.69,1.68
17.458470821380615,-1.53,1.54,-0.05,2.17
17.49028491973877,-1.68,1.35,-0.53,2.21
17.491235971450806,-1.86,1.64,-0.62,2.55
17.491991996765137,-2.02,2.04,-0.62,2.93
17.510395050048828,-2.25,2.15,-0.84,3.22
17.511435985565186,-2.41,2.08,-0.83,3.28
17.526054859161377,-2.54,1.9,-0.8,3.27
17.52778387069702,-2.75,1.89,-0.97,3.47
17.541658878326416,-3.12,2.0,-1.38,3.95
17.54762601852417,-3.36,2.23,-1.7,4.37
17.55837392807007,-3.53,2.35,-1.74,4.58
17.594542980194092,-3.82,2.42,-1.93,4.91
17.595945835113525,-4.17,2.82,-2.45,5.59
17.59703493118286,-4.67,3.65,-3.02,6.65
17.610372066497803,-5.48,4.97,-3.96,8.39
17.61143207550049,-5.88,5.73,-4.68,9.45
17.62638282775879,-5.68,5.38,-4.4,8.97
17.627444982528687,-5.66,5.48,-4.11,8.88
17.641786098480225,-6.39,5.69,-4.72,9.77
17.647156953811646,-7.02,5.72,-5.25,10.46
17.658228874206543,-6.66,5.59,-5.44,10.25
17.693819999694824,-5.93,5.39,-5.69,9.82
17.695811986923218,-6.04,5.85,-6.31,10.51
17.696810007095337,-5.54,7.34,-6.01,10.98
17.710500955581665,-2.28,9.75,-3.73,10.68
17.711535930633545,2.98,13.22,0.23,13.55
17.726294994354248,3.36,9.36,0.86,9.98
17.727329969406128,-0.29,4.49,-2.08,4.95
17.741714000701904,-4.31,2.76,-4.66,6.92
17.74638080596924,-6.82,-0.46,-5.75,8.93
17.759151935577393,-7.13,-6.06,-5.69,10.95
17.76665210723877,-0.91,-5.29,-2.27,5.82
17.8053719997406,4.89,-2.06,1.3,5.46
17.806572914123535,1.73,-2.35,0.4,2.94
17.807544946670532,-2.97,-2.1,-2.3,4.3
17.82683300971985,-6.03,-2.11,-3.04,7.07
17.827880859375,-7.32,-2.35,-2.26,8.01
17.84300398826599,-7.45,-2.89,-1.09,8.06
17.844079971313477,-6.86,-3.76,-0.17,7.82
17.858703136444092,-6.23,-4.65,0.24,7.77
17.860206127166748,-5.99,-5.0,0.28,7.8
17.875136852264404,-5.97,-4.78,0.22,7.65
17.90502405166626,-5.89,-4.52,0.14,7.42
17.906263828277588,-5.55,-4.52,0.09,7.15
17.907227039337158,-5.15,-4.58,0.22,6.89
17.92678213119507,-4.79,-4.6,0.49,6.65
17.927853107452393,-4.61,-4.53,0.73,6.5
17.94205904006958,-4.62,-4.41,0.82,6.43
17.943056106567383,-4.63,-4.17,0.89,6.29
17.95912194252014,-4.54,-3.74,0.95,5.95
17.960601806640625,-4.44,-3.17,0.9,5.52
17.975154876708984,-4.61,-2.43,0.49,5.23
18.004859924316406,-4.94,-1.51,0.04,5.16
18.006250858306885,-4.92,-0.54,0.05,4.94
18.00706696510315,-4.01,0.19,0.59,4.05
18.02661895751953,-2.24,0.49,1.25,2.61
18.027667999267578,-0.4,0.7,1.61,1.8
18.0429630279541,1.23,1.26,1.79,2.51
18.04398012161255,2.7,2.28,1.69,3.91
18.058769941329956,3.79,3.3,1.37,5.2
18.06022596359253,4.47,4.14,1.12,6.19
18.07505989074707,4.87,4.94,1.02,7.01
18.104279041290283,5.31,5.62,0.91,7.78
18.105674982070923,6.2,6.07,0.86,8.71
18.106671810150146,7.57,6.47,1.1,10.01
18.126960039138794,6.21,9.59,1.17,11.48
18.127986907958984,5.75,14.45,-0.06,15.55
18.14301896095276,14.55,13.64,-1.15,19.97
18.144042015075684,20.29,7.05,-0.05,21.47
18.158996105194092,19.45,4.94,1.62,20.13
18.16047191619873,17.36,5.99,2.54,18.53
18.175486087799072,16.68,6.06,2.92,17.98
18.204893112182617,16.09,5.51,3.11,17.28
18.206890106201172,13.18,2.78,2.19,13.64
18.2079119682312,5.35,-2.14,-1.31,5.9
18.22706890106201,-3.36,-2.19,-3.31,5.2
18.22806692123413,-6.19,1.48,-1.42,6.52
18.243298053741455,-1.03,4.07,2.78,5.03
18.244325160980225,3.97,3.18,3.42,6.12
18.259089946746826,7.23,1.74,2.76,7.93
18.260568141937256,8.67,-1.27,0.69,8.78
18.275280952453613,6.44,0.21,0.63,6.47
18.30586004257202,4.06,0.67,2.04,4.59
18.307137966156006,2.3,-1.08,1.82,3.12
18.30814504623413,1.54,-1.57,1.99,2.96
18.32694387435913,1.06,-0.79,2.74,3.04
18.327955961227417,0.75,-0.33,3.4,3.49
18.343374013900757,0.76,-0.45,3.59,3.69
18.344409942626953,0.55,-0.25,2.5,2.57
18.35841703414917,0.06,-0.29,0.78,0.83
18.359897136688232,0.17,-0.27,-0.09,0.33
18.375231981277466,0.73,-0.11,-0.5,0.89
18.403543949127197,1.3,0.25,-1.06,1.69
18.4047908782959,1.3,0.44,-1.83,2.28
18.405538082122803,0.77,0.37,-2.48,2.62
18.427325963974,0.45,0.3,-2.57,2.62
18.428261041641235,0.56,0.22,-2.37,2.44
18.443317890167236,0.75,0.09,-1.86,2.0
18.44435691833496,0.6,0.02,-1.24,1.37
18.458881855010986,0.18,0.08,-0.39,0.43
18.45993399620056,-0.3,0.26,0.76,0.85
18.475625038146973,-0.86,0.32,1.25,1.55
18.50392484664917,-1.4,0.23,1.1,1.79
18.505259037017822,-1.24,0.13,0.74,1.44
18.506052017211914,-0.47,0.2,0.45,0.68
18.527649879455566,0.44,0.26,0.0,0.51
18.52867102622986,1.06,0.02,-0.89,1.38
18.543510913848877,1.23,-0.23,-1.2,1.73
18.544556140899658,1.01,-0.29,-1.13,1.54
18.558921813964844,0.56,-0.15,-0.71,0.91
18.559956073760986,0.05,0.05,-0.19,0.2
18.575510025024414,-0.47,0.14,-0.01,0.49
18.576973915100098,-0.56,0.08,0.02,0.56
18.621394157409668,-0.53,0.1,0.04,0.54
18.622541904449463,-0.49,0.15,-0.05,0.51
18.623553037643433,-0.22,0.24,-0.12,0.34
18.64408588409424,-0.12,0.31,-0.17,0.37
18.645116806030273,-0.23,0.25,-0.39,0.51
18.660120964050293,-0.12,0.21,-0.51,0.56
18.661595821380615,-0.02,0.2,-0.34,0.39
18.675764083862305,-0.06,0.27,-0.34,0.43
18.677116870880127,-0.25,0.39,-0.31,0.55
18.69197702407837,-0.47,0.42,-0.54,0.83
18.721960067749023,-0.47,0.45,-0.79,1.02
18.723829984664917,-0.49,0.44,-0.89,1.1
18.724835872650146,-0.75,0.52,-1.21,1.51
18.74544095993042,-1.04,0.79,-1.61,2.07
18.746501922607422,-1.26,1.06,-1.56,2.26
18.760591983795166,-1.48,1.27,-1.33,2.36
18.7620530128479,-1.52,1.57,-1.06,2.42
18.775861978530884,-1.93,1.9,-1.12,2.93
18.77728796005249,-3.24,2.45,-1.51,4.33
18.792083024978638,-3.66,2.98,-0.79,4.78
18.823071002960205,-3.48,2.79,-0.42,4.48
18.824398040771484,-3.76,2.56,-0.72,4.6
18.82541298866272,-3.93,2.53,-0.94,4.76
18.843985080718994,-3.28,2.68,-1.28,4.42
18.844990968704224,-2.33,2.97,-1.1,3.93
18.860265970230103,-2.49,3.35,-1.48,4.42
18.861289978027344,-3.07,3.86,-2.35,5.46
18.876041889190674,-3.43,3.96,-3.2,6.13
18.877511978149414,-3.88,4.04,-3.84,6.79
18.891968965530396,-4.55,4.07,-4.4,7.52
18.921733856201172,-5.31,4.12,-4.77,8.24
18.923105001449585,-5.83,4.03,-4.63,8.46
18.924137115478516,-5.93,3.72,-4.51,8.32
18.94421696662903,-5.74,3.15,-4.62,8.01
18.94526696205139,-4.69,2.13,-4.71,6.97
18.960490942001343,-3.65,2.15,-4.51,6.18
18.961952924728394,-3.53,3.8,-4.16,6.64
18.976184844970703,-3.45,5.78,-4.17,7.91
18.977699041366577,-2.78,7.88,-4.07,9.29
18.992223978042603,0.28,11.1,-2.08,11.29
19.023254871368408,2.16,11.68,-1.65,11.99
19.024561882019043,0.13,7.35,-3.14,7.99
19.025660037994385,-2.96,4.84,-5.33,7.78
19.044281005859375,-4.98,2.68,-6.26,8.43
19.04533290863037,-6.48,-1.78,-6.71,9.49
19.060101985931396,-6.39,-5.96,-6.06,10.63
19.061144828796387,-0.14,-2.4,-2.82,3.7
19.07618999481201,2.6,-0.14,-0.49,2.64
19.077685832977295,-1.47,-1.17,-1.76,2.57
19.0922908782959,-6.14,-1.62,-3.58,7.28
19.121593952178955,-9.11,-2.07,-3.8,10.08
19.122838973999023,-10.42,-2.59,-2.77,11.08
19.12381887435913,-10.63,-3.01,-1.3,11.12
19.14567995071411,-9.74,-3.16,0.15,10.24
19.146687984466553,-8.38,-3.48,1.08,9.13
19.160166025161743,-7.22,-4.02,1.2,8.35
19.161206007003784,-6.41,-4.53,0.73,7.88
19.175456047058105,-5.74,-4.75,0.33,7.45
19.17696499824524,-5.32,-4.61,0.02,7.03
19.192319869995117,-5.15,-4.38,-0.04,6.76
19.2220778465271,-5.19,-4.04,0.26,6.58
19.223500967025757,-5.17,-3.82,0.5,6.44
19.22459602355957,-5.28,-3.41,0.54,6.3
19.244205951690674,-5.46,-2.74,-0.12,6.11
19.245244026184082,-5.04,-1.93,-1.19,5.52
19.260236978530884,-3.16,-1.02,-1.69,3.72
19.26127600669861,-0.61,-0.67,-1.53,1.77
19.27623200416565,1.15,-0.46,-0.63,1.38
19.2777259349823,1.13,-0.55,0.41,1.32
19.292189121246338,-0.1,-0.44,1.41,1.48
19.32062602043152,-0.78,0.64,2.19,2.41
19.32203197479248,-0.4,1.87,2.77,3.36
19.323081970214844,0.61,3.09,3.23,4.51
19.325392961502075,1.81,3.92,3.03,5.27
19.326590061187744,3.21,4.94,2.47,6.38
19.327788829803467,4.89,6.42,1.33,8.17
19.33417510986328,7.3,7.67,0.09,10.58
19.34437394142151,10.19,8.37,-0.75,13.2
19.354104042053223,9.9,12.05,-0.97,15.62
19.364941120147705,10.11,15.83,-2.22,18.91
19.374840021133423,19.04,10.2,-2.88,21.79
19.40226411819458,23.44,5.49,0.46,24.07
19.403287887573242,20.78,3.23,2.46,21.17
19.404268980026245,17.1,3.66,3.43,17.82
19.41396713256836,15.38,4.33,4.08,16.49
19.427224159240723,14.82,4.93,4.39,16.22
19.43381094932556,13.69,3.34,3.43,14.5
19.443567037582397,6.85,-1.37,-0.48,7.0
19.453601837158203,-3.62,-2.28,-2.87,5.15
19.463577032089233,-7.27,1.53,-0.92,7.48
19.473516941070557,-0.58,5.78,2.99,6.53
19.502802848815918,4.39,4.45,2.27,6.65
19.503719806671143,7.17,2.7,1.14,7.74
19.505635023117065,8.03,-1.02,-0.58,8.11
19.513090133666992,5.61,0.94,0.14,5.68
19.52308988571167,3.54,1.05,2.41,4.4
19.533050060272217,1.86,-1.2,2.44,3.29
19.54280996322632,1.57,-1.7,2.12,3.13
19.552760124206543,1.61,-1.17,1.83,2.7
19.562736988067627,1.62,-0.38,1.58,2.29
19.573105812072754,1.53,0.09,1.47,2.12
19.603690147399902,1.2,-0.07,1.02,1.57
19.60482096672058,0.85,-0.27,0.38,0.96
19.605825901031494,0.43,-0.24,-0.31,0.58
19.612218856811523,-0.11,0.09,-0.82,0.83
19.62231683731079,-0.36,0.3,-0.8,0.92
19.632381916046143,-0.27,0.27,-0.37,0.53
19.642132997512817,-0.08,0.07,-0.2,0.22
19.65209197998047,0.2,0.0,-0.52,0.55
19.661952018737793,0.48,0.09,-1.08,1.18
19.672210931777954,0.74,0.12,-1.48,1.65
19.70214605331421,0.93,0.12,-1.46,1.73
19.703289031982422,0.85,0.06,-1.04,1.34
19.704558849334717,0.55,0.01,-0.45,0.71
19.711299896240234,0.32,0.04,0.19,0.37
19.728786945343018,0.07,0.08,0.8,0.8
19.731333017349243,-0.16,0.15,0.89,0.91
19.742334842681885,-0.34,0.16,0.29,0.47
19.75130796432495,-0.22,0.09,-0.07,0.24
19.761229038238525,0.09,0.04,-0.02,0.1
19.77117896080017,0.39,-0.03,-0.11,0.4
19.807190895080566,0.71,-0.08,-0.26,0.76
19.808398008346558,0.63,-0.04,-0.33,0.71
19.80938696861267,0.24,0.14,-0.71,0.76
19.827697038650513,-0.04,0.28,-0.87,0.91
19.8287410736084,-0.17,0.26,-0.51,0.59
19.842843055725098,-0.24,0.12,0.01,0.26
19.843824863433838,-0.16,0.01,0.11,0.19
19.85972499847412,-0.2,0.05,-0.18,0.27
19.861245155334473,-0.23,0.1,-0.46,0.52
19.875924110412598,-0.18,0.2,-0.46,0.53
19.908501148223877,-0.11,0.23,-0.43,0.49
19.90995693206787,0.04,0.21,-0.38,0.43
19.910935878753662,0.06,0.26,-0.29,0.39
19.927999019622803,-0.01,0.31,-0.44,0.53
19.929072856903076,-0.25,0.3,-0.68,0.78
19.94406509399414,-0.45,0.31,-0.96,1.1
19.945112943649292,-0.68,0.26,-1.18,1.38
19.9597110748291,-0.94,0.38,-1.43,1.75
19.961198806762695,-1.19,0.67,-1.5,2.02
19.976111888885498,-1.66,0.87,-1.34,2.3
20.007762908935547,-2.09,0.98,-1.32,2.65
20.009212017059326,-2.51,1.07,-0.98,2.89
20.01022696495056,-2.76,1.12,-0.75,3.07
20.028025150299072,-3.19,1.35,-1.09,3.63
20.029048919677734,-4.04,2.14,-1.68,4.87
20.04446506500244,-4.49,3.62,-1.27,5.9
20.045910835266113,-3.54,3.87,-1.0,5.33
20.05980396270752,-3.39,3.46,-1.42,5.04
20.06123113632202,-3.66,3.63,-1.84,5.47
20.076106071472168,-3.94,3.74,-2.39,5.93
20.107937812805176,-4.02,4.27,-2.85,6.52
20.10929584503174,-4.21,5.28,-3.46,7.58
20.11031198501587,-4.66,5.96,-4.36,8.73
20.128264904022217,-4.9,6.05,-4.61,9.04
20.12929105758667,-5.24,6.05,-4.45,9.15
20.144527912139893,-5.98,5.98,-4.42,9.54
20.145957946777344,-6.21,5.29,-4.23,9.18
20.159706115722656,-5.5,4.0,-4.05,7.91
20.161189079284668,-4.7,3.38,-4.57,7.37
20.176015853881836,-4.08,3.72,-5.61,7.87
20.178040027618408,-4.34,5.46,-6.36,9.43
20.222898960113525,-4.64,7.44,-6.32,10.8
20.22411012649536,-2.35,9.57,-3.53,10.46
20.22507905960083,2.75,12.21,0.26,12.51
20.244729042053223,3.23,8.58,-0.44,9.17
20.24576711654663,0.07,4.53,-3.14,5.51
20.261096000671387,-3.38,2.58,-5.06,6.6
20.262575149536133,-5.91,-0.98,-6.09,8.54
20.2765109539032,-5.84,-5.9,-5.72,10.08
20.277971982955933,0.93,-3.93,-2.54,4.77
20.292664051055908,3.0,-2.31,-0.67,3.84
20.323807954788208,-1.92,-3.09,-2.23,4.26
20.32511281967163,-6.54,-3.13,-3.17,7.91
20.32612180709839,-9.13,-3.22,-2.67,10.04
20.344661951065063,-9.74,-3.52,-1.37,10.44
20.345757961273193,-9.34,-4.12,0.09,10.2
20.360800981521606,-8.39,-5.38,1.05,10.02
20.361856937408447,-7.75,-6.41,1.3,10.14
20.37645196914673,-7.76,-6.28,1.02,10.03
20.37793803215027,-7.87,-5.53,0.52,9.63
20.39282512664795,-7.64,-4.83,0.06,9.03
20.422616958618164,-6.96,-4.53,-0.2,8.3
20.4239821434021,-6.06,-4.35,-0.21,7.46
20.424964904785156,-5.35,-4.13,-0.11,6.75
20.445395946502686,-4.87,-3.8,0.0,6.17
20.44642996788025,-4.64,-3.58,0.14,5.86
20.460909843444824,-4.72,-3.16,0.38,5.69
20.46193790435791,-5.11,-2.53,0.33,5.71
20.476605892181396,-5.03,-1.67,-0.34,5.31
20.478085041046143,-4.08,-0.74,-0.94,4.25
20.492655038833618,-2.49,-0.13,-1.43,2.87
20.5213360786438,-0.69,0.52,-1.33,1.58
20.522773027420044,1.11,1.58,0.06,1.93
20.5237398147583,2.76,2.26,1.36,3.81
20.544667959213257,3.43,2.41,1.92,4.61
20.54573106765747,3.04,3.29,2.34,5.05
20.56097984313965,3.09,5.34,2.84,6.79
20.56200408935547,4.41,7.31,2.75,8.96
20.576754093170166,6.65,7.98,1.87,10.55
20.57823395729065,8.99,8.04,1.03,12.1
20.59294295310974,11.02,8.08,0.44,13.67
20.623153924942017,10.82,10.03,0.49,14.76
20.62455701828003,9.22,14.85,0.41,17.48
20.625612020492554,16.87,7.66,-1.41,18.58
20.644919872283936,21.24,3.81,0.29,21.58
20.6459698677063,19.65,3.88,1.89,20.11
20.66069984436035,17.65,5.8,2.76,18.78
20.66172194480896,16.69,6.58,4.17,18.41
20.676722049713135,13.88,3.27,3.48,14.67
20.67819094657898,4.82,-1.42,-0.63,5.06
20.693115949630737,-5.89,-0.67,-3.25,6.76
20.724576950073242,-8.38,3.11,-0.65,8.96
20.725836038589478,-1.31,5.32,3.21,6.35
20.72684383392334,3.87,2.21,2.91,5.32
20.744895935058594,6.04,0.43,2.56,6.57
20.745956897735596,8.86,-2.39,0.69,9.2
20.76133680343628,8.49,-0.65,-0.23,8.51
20.762825965881348,5.73,1.94,1.38,6.2
20.776683807373047,3.17,0.55,1.77,3.67
20.778164863586426,1.71,-1.16,1.15,2.36
20.79301691055298,1.28,-1.5,1.33,2.37
20.82453489303589,1.49,-0.76,1.74,2.41
20.825886964797974,1.73,0.2,1.77,2.48
20.826905965805054,1.07,0.22,0.59,1.24
20.84499216079712,0.26,0.02,-0.21,0.33
20.846044063568115,-0.04,-0.19,-0.37,0.41
20.861196041107178,-0.08,0.01,-0.66,0.66
20.862226009368896,-0.04,0.21,-0.87,0.89
20.87703514099121,0.16,0.06,-0.56,0.58
20.878435134887695,0.54,0.0,-0.19,0.57
20.893187046051025,0.86,0.09,-0.01,0.86
20.923727989196777,0.85,0.02,-0.05,0.85
20.92507791519165,0.8,-0.02,-0.22,0.82
20.92607307434082,0.53,-0.05,-0.3,0.61
20.9449360370636,0.27,0.03,-0.02,0.27
20.94599485397339,0.0,0.19,0.14,0.23
20.961135864257812,-0.26,0.31,0.11,0.41
20.962141036987305,-0.38,0.28,-0.01,0.47
20.976830005645752,-0.06,0.19,-0.15,0.24
20.97828698158264,0.41,0.14,-0.28,0.51
20.99323606491089,0.72,0.01,-0.39,0.81
20.994709014892578,0.74,-0.1,-0.3,0.8
21.038995027542114,0.58,-0.06,-0.14,0.59
21.040184020996094,0.38,-0.02,0.02,0.38
21.04115104675293,0.2,-0.02,0.13,0.23
21.061967849731445,0.05,-0.05,0.16,0.17
21.063004970550537,-0.13,-0.03,0.09,0.16
21.077724933624268,-0.19,-0.01,-0.14,0.23
21.07876682281494,-0.06,0.07,-0.26,0.27
21.09374713897705,0.02,0.17,-0.36,0.39
21.095234870910645,0.08,0.12,-0.4,0.42
21.109879970550537,0.19,0.12,-0.27,0.35
21.14195203781128,0.12,0.14,-0.39,0.43
21.143213033676147,-0.15,0.18,-0.45,0.5
21.144222021102905,-0.49,0.33,-0.34,0.68
21.161837100982666,-0.59,0.52,-0.26,0.82
21.1628839969635,-0.5,0.57,-0.15,0.77
21.17801284790039,-0.46,0.53,-0.19,0.72
21.179101943969727,-0.55,0.46,-0.46,0.85
21.193639039993286,-0.68,0.45,-0.69,1.06
21.19511604309082,-0.66,0.4,-0.98,1.24
21.209944009780884,-0.52,0.33,-1.4,1.52
21.238866806030273,-0.68,0.26,-1.86,1.99
21.24011492729187,-1.14,0.28,-2.0,2.31
21.24109196662903,-1.42,0.37,-1.91,2.4
21.26202392578125,-1.67,0.61,-1.62,2.4
21.262961864471436,-2.0,1.0,-1.16,2.51
21.277985095977783,-2.52,1.73,-0.79,3.15
21.279042959213257,-3.09,2.81,-0.73,4.23
21.293510913848877,-3.18,3.13,-0.86,4.54
21.294984817504883,-2.75,3.19,-0.06,4.21
21.309765815734863,-2.75,2.92,-0.25,4.01
21.337960958480835,-2.92,2.66,-0.7,4.01
21.339205980300903,-2.83,2.66,-0.85,3.97
21.340152978897095,-2.65,3.0,-1.41,4.24
21.342052936553955,-3.01,3.72,-2.14,5.24
21.343603134155273,-3.46,4.45,-2.89,6.33
21.344990968704224,-3.93,4.79,-3.52,7.12
21.349063873291016,-4.78,5.12,-3.93,8.03
21.359524965286255,-5.59,5.25,-4.21,8.74
21.36923313140869,-6.13,5.04,-4.34,9.04
21.37908411026001,-6.25,4.68,-4.36,8.94
21.4113609790802,-6.01,4.08,-4.52,8.55
21.41233801841736,-5.21,3.62,-4.97,8.05
21.413124084472656,-3.8,2.67,-5.4,7.12
21.428799152374268,-3.5,2.85,-5.89,7.42
21.429665088653564,-4.15,4.94,-5.74,8.63
21.444512844085693,-3.33,6.94,-5.09,9.22
21.448447942733765,-0.8,9.11,-3.09,9.65
21.458415031433105,3.62,11.84,-0.29,12.38
21.46835494041443,3.55,8.1,-0.96,8.89
21.47804594039917,0.3,4.13,-4.0,5.75
21.51436996459961,-3.29,2.46,-6.57,7.74
21.515699863433838,-5.99,-1.43,-6.95,9.28
21.516613006591797,-7.02,-6.02,-6.03,11.04
21.526083946228027,-1.66,-3.06,-3.36,4.83
21.527717113494873,2.31,-0.07,-1.64,2.83
21.54472303390503,-1.74,-1.24,-2.42,3.22
21.547538995742798,-6.42,-1.67,-3.72,7.6
21.559123992919922,-9.13,-1.8,-3.51,9.94
21.567960023880005,-9.9,-2.08,-2.32,10.37
21.577602863311768,-9.62,-2.51,-0.71,9.96
21.61472988128662,-8.77,-3.47,0.58,9.44
21.615899085998535,-7.99,-4.56,1.08,9.26
21.616724967956543,-7.47,-4.85,1.27,8.99
21.628824949264526,-7.08,-4.61,1.31,8.54
21.629843950271606,-6.77,-4.36,1.11,8.12
21.64467191696167,-6.42,-4.23,0.89,7.73
21.646800994873047,-5.81,-4.0,1.0,7.12
21.659875869750977,-5.31,-3.94,0.84,6.66
21.66698694229126,-5.23,-3.77,0.35,6.45
21.676950931549072,-5.33,-3.12,-0.21,6.17
21.715121030807495,-4.76,-2.35,-0.7,5.35
21.71640396118164,-3.29,-1.93,-0.84,3.9
21.717322826385498,-1.43,-1.93,-0.84,2.54
21.72850799560547,0.17,-1.86,-0.59,1.95
21.72949981689453,1.24,-1.66,-0.18,2.07
21.744351863861084,1.63,-1.37,0.33,2.15
21.74620294570923,1.76,-0.62,0.74,2.0
21.760061025619507,1.98,0.5,1.14,2.33
21.766569137573242,2.54,1.71,1.65,3.47
21.776670932769775,3.36,2.66,2.03,4.74
21.786041975021362,4.56,3.68,2.09,6.22
21.822199821472168,6.2,4.59,1.43,7.84
21.823381900787354,8.08,5.46,0.74,9.77
21.824339866638184,10.14,6.38,0.59,11.99
21.845765113830566,12.09,6.73,0.2,13.83
21.84680199623108,13.27,6.54,0.07,14.79
21.861772060394287,11.51,9.17,0.24,14.71
21.863254070281982,9.02,13.35,0.08,16.11
21.877214908599854,15.21,8.09,-0.11,17.22
21.87868094444275,18.96,4.92,2.29,19.72
21.893773078918457,17.7,4.28,4.08,18.66
21.924906015396118,15.66,5.8,5.15,17.47
21.92614507675171,13.84,5.8,5.75,16.07
21.927095890045166,8.33,0.63,2.33,8.67
21.94547414779663,-2.06,-1.96,-1.86,3.39
21.946542978286743,-9.05,0.65,-2.55,9.42
21.961649894714355,-4.54,5.0,1.99,7.04
21.96268081665039,2.52,3.52,3.45,5.53
21.97749614715576,6.13,0.88,2.97,6.86
21.979002952575684,9.11,-0.68,1.93,9.33
21.993661880493164,9.04,0.11,0.43,9.05
22.024610996246338,6.12,1.5,1.43,6.46
22.02599811553955,3.29,-0.34,1.98,3.85
22.027014017105103,1.48,-1.64,1.59,2.72
22.045156955718994,0.5,-1.22,1.57,2.05
22.046209812164307,0.3,-0.08,1.5,1.53
22.061666011810303,0.34,0.37,1.25,1.34
22.062696933746338,0.14,0.33,0.92,0.98
22.07735586166382,0.04,0.04,0.22,0.22
22.078845024108887,-0.07,-0.42,-0.86,0.95
22.093475818634033,-0.07,-0.41,-1.5,1.55
22.123399019241333,0.42,-0.08,-1.25,1.32
22.124720096588135,1.06,0.15,-0.61,1.23
22.12574601173401,1.39,0.16,-0.22,1.41
22.14518094062805,1.27,0.04,-0.46,1.35
22.14625096321106,1.18,-0.04,-0.7,1.37
22.1616268157959,0.92,0.03,-0.82,1.23
22.16267681121826,0.65,0.33,-0.73,1.03
22.177422046661377,0.07,0.43,-0.7,0.82
22.178913116455078,-0.52,0.12,-0.48,0.71
22.19370412826538,-0.6,-0.02,0.28,0.66
22.223392963409424,-0.28,0.18,0.86,0.92
22.22480797767639,-0.15,0.11,0.58,0.6
22.225656986236572,-0.01,-0.02,0.09,0.09
22.24570894241333,0.31,0.08,-0.1,0.33
22.246731996536255,0.34,0.12,-0.47,0.59
22.260963916778564,0.21,0.02,-0.66,0.69
22.262020111083984,0.29,-0.05,-0.5,0.58
22.2777681350708,0.39,-0.11,-0.28,0.49
22.27925205230713,0.33,-0.09,-0.01,0.34
22.29366683959961,0.0,0.0,0.21,0.21
22.321281909942627,-0.34,0.04,0.17,0.38
22.322667121887207,-0.47,0.09,0.05,0.48
22.32365393638611,-0.3,0.1,-0.06,0.32
22.326048851013184,-0.12,0.16,-0.18,0.26
22.331786155700684,-0.05,0.27,-0.39,0.47
22.341747999191284,-0.15,0.31,-0.76,0.83
22.351759910583496,-0.26,0.22,-0.74,0.81
22.361706018447876,-0.31,0.17,-0.39,0.52
22.37148904800415,-0.48,0.19,-0.17,0.54
22.381847858428955,-0.73,0.25,-0.08,0.77
22.418559074401855,-0.95,0.34,-0.18,1.02
22.41988706588745,-1.06,0.41,-0.33,1.18
22.420958995819092,-1.0,0.43,-0.62,1.25
22.426265001296997,-0.75,0.52,-0.95,1.31
22.445122957229614,-0.31,0.51,-1.11,1.26
22.44616198539734,-0.21,0.44,-1.26,1.35
22.460397005081177,-0.39,0.47,-1.53,1.64
22.461484909057617,-0.55,0.52,-1.51,1.68
22.477177143096924,-1.01,0.72,-1.49,1.93
22.481053829193115,-1.69,0.9,-1.7,2.56
22.522382974624634,-2.2,0.91,-1.56,2.84
22.523541927337646,-2.78,1.09,-1.29,3.25
22.52453899383545,-3.25,1.39,-0.81,3.62
22.5461368560791,-3.2,1.93,-0.53,3.77
22.547199010849,-3.29,2.79,-1.32,4.51
22.562093019485474,-3.36,3.86,-1.4,5.3
22.563583850860596,-2.7,4.06,-1.05,4.98
22.57785201072693,-2.95,3.78,-1.34,4.97
22.579362869262695,-3.35,3.98,-1.76,5.49
22.593899965286255,-3.77,4.21,-2.42,6.14
22.595396995544434,-4.21,4.53,-3.09,6.91
22.64060688018799,-4.57,4.71,-3.47,7.42
22.641788005828857,-4.79,5.0,-3.38,7.7
22.642781019210815,-5.26,5.33,-3.39,8.22
22.662426948547363,-6.01,5.37,-3.99,8.99
22.663496017456055,-6.32,5.02,-4.32,9.15
22.679821014404297,-5.94,4.75,-4.39,8.78
22.681323051452637,-5.24,4.46,-5.07,8.54
22.694270133972168,-4.17,3.87,-6.15,8.37
22.695752143859863,-4.11,4.85,-7.67,9.96
22.710400104522705,-4.67,6.98,-8.49,11.94
22.740999937057495,-2.86,9.13,-5.59,11.08
22.74235701560974,2.36,12.5,-0.55,12.73
22.743331909179688,5.11,11.25,0.92,12.39
22.76278591156006,2.07,5.53,-1.88,6.19
22.763795852661133,-2.24,2.77,-4.71,5.9
22.779048919677734,-5.53,0.07,-5.98,8.14
22.780516147613525,-6.92,-5.27,-6.43,10.81
22.79447889328003,-2.35,-6.45,-3.98,7.93
22.795959949493408,3.76,-3.27,-0.29,4.99
22.810743808746338,0.64,-3.12,-0.95,3.32
22.841463088989258,-5.03,-3.03,-2.97,6.58
22.842822074890137,-8.76,-3.01,-3.14,9.78
22.843821048736572,-9.87,-3.28,-1.83,10.56
22.862361907958984,-9.61,-3.89,-0.21,10.36
22.86340594291687,-8.86,-4.79,1.03,10.12
22.8784499168396,-8.11,-5.73,1.5,10.04
22.879462003707886,-7.86,-6.12,1.03,10.01
22.89445400238037,-7.64,-6.06,0.31,9.75
22.89593195915222,-7.19,-5.65,-0.1,9.14
22.910411834716797,-6.64,-5.0,-0.02,8.31
22.94002914428711,-6.05,-4.45,0.29,7.51
22.941332817077637,-5.57,-4.18,0.47,6.97
22.942325115203857,-5.37,-3.91,0.41,6.65
22.962134838104248,-5.43,-3.44,0.01,6.42
22.963162899017334,-5.37,-2.74,-0.68,6.06
22.97853398323059,-4.8,-1.9,-0.99,5.25
22.97958993911743,-3.52,-1.28,-1.12,3.9
22.994300842285156,-1.81,-1.18,-1.31,2.52
22.995774030685425,-0.43,-0.91,-1.0,1.41
23.01051902770996,0.56,-0.3,-0.35,0.72
23.04167413711548,1.46,0.4,0.4,1.56
23.043031930923462,2.34,1.17,1.18,2.86
23.04404306411743,2.95,2.0,1.99,4.08
23.062446117401123,3.27,2.81,2.87,5.17
23.063438892364502,3.63,3.97,3.31,6.31
23.078641891479492,4.38,4.99,2.43,7.07
23.079663038253784,5.22,5.87,1.28,7.95
23.094459056854248,6.46,6.86,0.7,9.44
23.09595799446106,8.02,7.29,0.16,10.83
23.11092185974121,10.0,7.45,0.48,12.47
23.14098310470581,12.21,7.26,1.33,14.26
23.142385005950928,10.33,10.73,1.24,14.94
23.14339303970337,9.88,10.06,0.43,14.1
23.16258192062378,14.48,5.36,0.46,15.44
23.163669109344482,16.39,4.57,1.91,17.12
23.178736925125122,16.03,4.49,2.73,16.86
23.179783821105957,14.74,4.98,3.11,15.86
23.194612979888916,13.02,5.37,3.92,14.61
23.1961088180542,8.84,2.28,2.51,9.46
23.210683822631836,0.27,-1.93,-0.7,2.07
23.239051818847656,-7.59,-1.94,-2.26,8.15
23.240324020385742,-7.37,0.11,0.31,7.37
23.241095066070557,0.07,2.08,2.24,3.05
23.24329400062561,4.58,3.34,2.31,6.12
23.24458408355713,6.73,4.61,2.51,8.53
23.24574899673462,9.1,2.0,1.06,9.37
23.25489902496338,7.0,1.49,-0.12,7.15
23.265105962753296,3.7,1.3,1.54,4.21
23.274806022644043,2.02,-1.17,2.34,3.3
23.28479290008545,2.36,-1.65,2.36,3.72
23.318553924560547,2.74,-1.18,2.34,3.79
23.320187091827393,2.34,-0.22,2.21,3.22
23.321099996566772,1.77,0.29,1.92,2.62
23.32725501060486,0.78,-0.01,1.43,1.62
23.334532022476196,-0.31,-0.13,0.53,0.62
23.34537696838379,-0.91,0.08,-0.31,0.96
23.354367971420288,-0.66,0.28,-0.66,0.97
23.363994121551514,-0.03,0.3,-0.67,0.73
23.374191999435425,0.52,0.22,-0.64,0.85
23.38400411605835,0.89,0.17,-0.72,1.15
23.3941650390625,1.09,0.24,-0.97,1.47
23.42578101158142,1.13,0.24,-1.15,1.63
23.42688798904419,1.05,0.06,-1.21,1.6
23.42775011062622,1.08,-0.1,-1.22,1.63
23.446221828460693,1.09,-0.13,-0.68,1.29
23.447261810302734,0.98,-0.17,0.24,1.02
23.46212601661682,0.71,-0.19,0.84,1.11
23.463183879852295,0.28,-0.03,0.72,0.77
23.477730989456177,-0.25,0.08,0.64,0.69
23.48314380645752,-0.61,0.2,0.47,0.79
23.49394202232361,-0.54,0.29,0.01,0.61
23.52540397644043,0.15,0.19,-0.28,0.37
23.526671886444092,0.65,-0.05,-0.19,0.67
23.527469158172607,0.49,-0.1,-0.32,0.59
23.54627299308777,-0.02,-0.07,-0.46,0.46
23.54726505279541,-0.38,-0.05,-0.46,0.59
23.56239604949951,-0.49,-0.03,-0.33,0.59
23.563284873962402,-0.54,0.16,-0.18,0.59
23.57763695716858,-0.63,0.24,-0.22,0.7
23.582826137542725,-0.62,0.07,-0.31,0.69
23.59419298171997,-0.29,-0.09,-0.27,0.4
23.62423801422119,0.18,-0.12,0.01,0.21
23.625643968582153,0.23,-0.02,-0.04,0.23
23.626681804656982,0.09,0.06,-0.12,0.16
23.64629292488098,0.05,0.25,0.12,0.28
23.64732599258423,-0.07,0.34,0.13,0.37
23.663247108459473,-0.15,0.37,-0.16,0.43
23.664268016815186,-0.22,0.32,-0.39,0.55
23.67827606201172,-0.26,0.23,-0.64,0.72
23.68205499649048,-0.3,0.21,-0.99,1.05
23.694175958633423,-0.35,0.2,-1.23,1.29
23.723802089691162,-0.44,0.31,-1.28,1.38
23.725110054016113,-0.71,0.41,-1.3,1.53
23.726123809814453,-1.09,0.55,-1.22,1.72
23.746065139770508,-1.59,0.58,-1.07,2.0
23.747078895568848,-1.86,0.73,-0.72,2.12
23.762326955795288,-2.16,0.98,-0.42,2.4
23.76337194442749,-2.35,1.25,-0.38,2.68
23.77811598777771,-2.41,1.49,-0.39,2.86
23.781150817871094,-2.14,1.68,-0.49,2.76
23.79436206817627,-1.92,1.72,-0.85,2.71
23.83006000518799,-2.38,2.04,-1.56,3.5
23.831953048706055,-1.99,2.86,-1.3,3.71
23.832973957061768,-1.78,2.82,-1.48,3.64
23.84646511077881,-2.16,3.05,-1.69,4.1
23.847532987594604,-2.7,3.34,-2.08,4.77
23.864388942718506,-3.27,3.5,-2.61,5.45
23.865445137023926,-3.99,4.11,-3.39,6.65
23.875152111053467,-4.82,5.15,-3.92,8.06
23.880629062652588,-5.25,5.64,-4.08,8.71
23.894617080688477,-5.6,5.59,-4.13,8.92
23.92984914779663,-5.93,5.56,-4.01,9.06
23.931169033050537,-6.07,5.34,-3.92,8.98
23.932168006896973,-6.13,4.87,-4.23,8.89
23.946807861328125,-5.38,4.25,-4.26,8.07
23.94788098335266,-4.21,4.14,-4.2,7.24
23.962116956710815,-4.01,4.94,-5.06,8.12
23.963114023208618,-4.76,6.92,-5.71,10.15
23.97831106185913,-4.53,9.09,-5.58,11.58
23.979837894439697,-0.86,12.07,-2.52,12.36
23.994382858276367,2.75,11.91,-0.01,12.22
24.029143810272217,1.96,6.48,-1.04,6.84
24.030452013015747,-0.99,3.48,-3.98,5.37
24.031468868255615,-4.08,1.44,-5.79,7.22
24.046483039855957,-6.39,-1.53,-5.83,8.78
24.047537803649902,-4.3,-4.93,-4.6,7.99
24.06242084503174,3.65,-2.06,-1.22,4.36
24.063459873199463,2.66,-1.94,-0.58,3.34
24.07802104949951,-3.07,-3.08,-2.59,5.06
24.07905101776123,-7.58,-2.35,-3.46,8.65
24.094418048858643,-9.7,-2.31,-2.82,10.36
24.127470016479492,-9.87,-2.7,-1.27,10.31
24.12888503074646,-8.69,-3.46,0.23,9.35
24.12990713119507,-7.29,-4.91,1.19,8.86
24.146687030792236,-6.5,-6.0,1.2,8.92
24.147768020629883,-6.3,-6.06,0.72,8.77
24.160959005355835,-6.26,-5.68,0.28,8.45
24.161991119384766,-6.08,-5.39,0.09,8.12
24.178210973739624,-5.66,-5.25,0.25,7.72
24.17967987060547,-5.42,-5.1,0.47,7.45
24.19428014755249,-5.5,-5.06,0.65,7.5
24.197950839996338,-5.93,-4.84,0.85,7.7
24.241945028305054,-6.39,-4.26,0.82,7.72
24.243101119995117,-6.79,-3.21,0.65,7.53
24.244102001190186,-5.99,-1.92,-0.26,6.29
24.26196599006653,-3.19,-1.52,-1.51,3.84
24.262938022613525,-0.04,-1.11,-1.3,1.7
24.27757501602173,2.03,-0.33,-0.1,2.05
24.278593063354492,3.25,-0.07,0.96,3.38
24.2952561378479,3.46,-0.09,1.82,3.91
24.296715021133423,2.31,0.12,2.38,3.31
24.31117010116577,0.94,1.16,2.47,2.88
24.342082023620605,0.92,2.54,2.55,3.71
24.343950033187866,2.3,3.51,2.64,4.95
24.34495496749878,4.47,3.64,1.52,5.96
24.362993955612183,6.51,3.61,-0.2,7.44
24.364014148712158,8.63,4.53,-0.47,9.75
24.37966012954712,11.33,4.96,-0.09,12.36
24.381147861480713,13.61,4.66,-0.3,14.38
24.394997119903564,14.59,4.45,-0.92,15.28
24.396501064300537,14.18,4.43,-1.31,14.91
24.41116189956665,11.84,6.73,-1.14,13.66
24.441447973251343,8.8,13.04,-1.16,15.77
24.44293212890625,12.7,8.56,-1.43,15.38
24.443941116333008,14.18,4.56,2.25,15.06
24.46298885345459,12.3,4.18,5.5,14.1
24.464026927947998,10.52,7.23,8.14,15.13
24.479177951812744,7.31,4.54,6.72,10.91
24.480185985565186,-1.14,-0.36,1.36,1.81
24.495060920715332,-9.48,0.67,-1.57,9.63
24.496543884277344,-7.57,2.08,0.39,7.86
24.51124906539917,1.22,1.78,1.46,2.6
24.54281711578369,5.67,0.91,2.29,6.18
24.544137001037598,6.53,1.13,2.56,7.1
24.54511594772339,7.32,-0.94,0.73,7.41
24.563522815704346,7.16,-1.3,-1.47,7.42
24.564547061920166,5.41,0.54,-0.88,5.5
24.579069137573242,4.49,0.17,0.68,4.54
24.580103874206543,3.45,-0.85,1.35,3.8
24.594843864440918,2.01,-0.83,1.67,2.74
24.595885038375854,0.28,-0.22,1.05,1.1
24.611291885375977,-0.66,0.47,0.19,0.83
24.639802932739258,-0.1,0.53,-0.01,0.53
24.64127016067505,0.4,-0.04,0.66,0.77
24.642112970352173,-0.05,-0.15,1.03,1.04
24.66424798965454,-0.56,0.03,0.85,1.01
24.66526985168457,-0.44,0.15,0.57,0.73
24.679507970809937,0.05,0.13,-0.11,0.17
24.68053913116455,0.51,0.0,-0.68,0.85
24.694883823394775,0.74,0.05,-0.73,1.04
24.695935010910034,0.63,0.07,-0.53,0.82
24.711655139923096,0.35,0.08,-0.32,0.48
24.740381002426147,0.37,0.11,-0.08,0.39
24.741528034210205,0.5,0.11,-0.04,0.51
24.742237091064453,0.57,0.11,-0.25,0.63
24.763531923294067,0.58,0.14,-0.45,0.74
24.764570951461792,0.49,0.18,-0.47,0.7
24.779567003250122,0.48,0.14,-0.28,0.57
24.780625820159912,0.62,-0.06,-0.12,0.63
24.79517102241516,0.68,-0.19,0.17,0.72
24.79660415649414,0.66,-0.16,0.24,0.72
24.811614990234375,0.63,-0.16,0.09,0.65
24.841350078582764,0.43,-0.09,-0.05,0.44
24.84268093109131,0.14,0.1,-0.26,0.31
24.843689918518066,0.06,0.16,-0.32,0.36
24.86347198486328,0.27,-0.04,-0.13,0.3
24.864498138427734,0.4,-0.24,0.12,0.48
24.86552381515503,0.24,-0.23,0.17,0.37
24.866960048675537,0.02,-0.05,-0.03,0.06
24.872594833374023,-0.16,0.14,-0.14,0.25
24.882880926132202,-0.17,0.23,-0.2,0.34
24.89316701889038,-0.21,0.24,-0.31,0.44
24.930026054382324,-0.21,0.21,-0.18,0.34
24.930935859680176,-0.06,0.18,-0.03,0.19
24.931741952896118,-0.06,0.16,-0.16,0.23
24.94673490524292,-0.01,0.2,-0.28,0.34
24.947777032852173,0.08,0.19,-0.34,0.39
24.962548971176147,0.02,0.19,-0.61,0.63
24.96351909637451,-0.13,0.22,-0.96,0.99
24.978240966796875,-0.3,0.28,-1.09,1.16
24.98175597190857,-0.56,0.47,-1.22,1.42
24.994790077209473,-0.83,0.59,-1.47,1.78
25.00181794166565,-1.04,0.6,-1.52,1.93
25.039362907409668,-1.25,0.71,-1.26,1.91
25.040508031845093,-1.6,0.81,-1.0,2.05
25.041758060455322,-1.99,0.94,-0.88,2.37
25.043397903442383,-2.35,1.12,-1.01,2.79
25.051414012908936,-2.71,1.64,-1.05,3.33
25.061551094055176,-2.87,2.48,-0.88,3.89
25.071409940719604,-2.77,2.78,-1.08,4.07
25.08128595352173,-2.98,2.86,-1.34,4.34
25.09124994277954,-3.2,3.13,-1.61,4.75
25.101129055023193,-3.05,3.41,-1.85,4.93
25.13253688812256,-2.7,3.59,-2.03,4.92
25.133620977401733,-2.43,3.76,-2.29,5.02
25.13445496559143,-2.41,3.96,-2.42,5.22
25.147254943847656,-2.86,4.33,-2.5,5.76
25.15069007873535,-3.5,4.67,-2.64,6.4
25.16154384613037,-4.26,5.04,-2.86,7.19
25.170700073242188,-5.09,5.27,-3.36,8.06
25.180316925048828,-5.62,5.07,-3.74,8.44
25.190340995788574,-5.6,4.82,-4.0,8.4
25.200129985809326,-5.26,4.3,-4.52,8.16
25.231070041656494,-4.54,3.7,-5.12,7.77
25.23225998878479,-3.58,3.6,-5.63,7.58
25.233125925064087,-3.11,4.16,-6.38,8.22
25.247376918792725,-3.72,5.25,-6.78,9.34
25.2498459815979,-3.51,6.54,-5.3,9.12
25.263221979141235,0.55,10.12,-1.59,10.25
25.269721031188965,3.63,11.81,-0.98,12.39
25.279552936553955,1.2,7.17,-3.65,8.13
25.28963613510132,-2.21,4.1,-5.79,7.43
25.29997205734253,-4.51,0.93,-6.51,7.97
25.333091020584106,-6.04,-4.04,-6.69,9.87
25.33426809310913,-2.73,-4.53,-4.29,6.81
25.335108041763306,3.66,-0.77,-0.86,3.83
25.347322940826416,2.14,-1.47,-0.74,2.69
25.349175930023193,-2.74,-2.38,-2.83,4.6
25.363024950027466,-6.57,-2.52,-3.8,7.99
25.36903190612793,-8.46,-2.85,-3.2,9.48
25.378901958465576,-8.82,-3.34,-1.68,9.57
25.38907289505005,-8.33,-3.86,-0.16,9.18
25.399280071258545,-7.49,-4.74,0.88,8.9
25.43793487548828,-6.91,-5.39,1.36,8.86
25.43932580947876,-6.71,-5.5,1.31,8.77
25.44011902809143,-6.56,-5.3,1.07,8.5
25.442946910858154,-6.32,-4.86,0.92,8.02
25.463223934173584,-6.01,-4.62,0.68,7.61
25.46427583694458,-5.82,-4.42,0.44,7.32
25.478456020355225,-5.87,-4.12,0.25,7.17
25.47946310043335,-5.94,-3.69,0.1,6.99
25.49545383453369,-5.84,-3.17,0.05,6.64
25.498131036758423,-5.28,-2.66,-0.02,5.91
25.539755821228027,-4.53,-2.22,-0.54,5.07
25.540925979614258,-3.61,-1.78,-1.06,4.16
25.54188895225525,-2.53,-1.31,-1.42,3.18
25.54400396347046,-1.39,-0.78,-1.46,2.16
25.54764413833618,-0.42,-0.3,-1.11,1.22
25.557655811309814,0.04,-0.01,-0.68,0.68
25.567676067352295,-0.06,0.21,0.11,0.24
25.577500820159912,0.1,1.07,0.85,1.37
25.58743381500244,0.73,2.18,1.36,2.67
25.597641944885254,1.46,3.25,1.78,3.98
25.63529109954834,2.09,4.24,2.13,5.18
25.636449813842773,2.84,5.17,2.36,6.35
25.637465953826904,4.0,5.88,2.21,7.44
25.647663116455078,5.7,6.06,1.71,8.49
25.648702144622803,7.59,5.81,0.79,9.59
25.66317081451416,9.64,5.91,0.13,11.3
25.666762828826904,11.92,5.94,-0.27,13.32
25.678027153015137,13.8,5.29,-0.72,14.79
25.686820030212402,14.48,4.21,-0.9,15.1
25.69670009613037,13.85,3.39,-0.3,14.26
25.735147953033447,11.96,4.3,0.54,12.72
25.736544132232666,8.75,9.72,1.32,13.14
25.737571001052856,11.14,5.5,0.46,12.43
25.747725009918213,13.25,2.65,2.39,13.72
25.74877095222473,12.23,2.54,4.07,13.13
25.7631778717041,10.1,4.62,5.23,12.27
25.765946865081787,5.49,3.33,3.72,7.42
25.77807593345642,-3.93,0.77,0.28,4.01
25.78611707687378,-10.23,2.07,-0.93,10.47
25.79591703414917,-5.13,2.69,1.36,5.95
25.80617904663086,2.82,2.25,1.23,3.81
25.839527130126953,5.61,2.6,0.81,6.23
25.8406720161438,5.32,2.73,0.97,6.05
25.841887950897217,6.23,1.93,1.09,6.61
25.84541893005371,6.55,0.09,0.34,6.55
25.855392932891846,5.05,0.35,0.98,5.15
25.865489959716797,3.57,-0.93,1.75,4.08
25.87541389465332,2.79,-1.65,1.19,3.45
25.885252952575684,2.92,-0.88,1.2,3.27
25.895071983337402,2.89,0.16,1.21,3.13
25.90530014038086,2.31,0.49,0.94,2.54
25.936970949172974,1.52,-0.02,0.61,1.63
25.938129901885986,0.67,-0.36,0.26,0.8
25.939279079437256,0.02,-0.16,0.25,0.29
25.944469928741455,-0.39,0.09,0.57,0.69
25.95457410812378,-0.57,0.19,0.72,0.93
25.964643955230713,-0.52,0.12,0.28,0.6
25.97457194328308,-0.21,0.1,-0.25,0.34
25.9842529296875,0.17,0.09,-0.52,0.55
25.99459409713745,0.35,0.09,-0.58,0.68
26.004376888275146,0.45,0.09,-0.67,0.81
26.034903049468994,0.54,-0.02,-0.99,1.12
26.03607702255249,0.87,0.01,-1.06,1.37
26.03690481185913,1.12,0.08,-0.88,1.42
26.04762601852417,0.86,0.13,-0.59,1.05
26.054047107696533,0.37,0.14,-0.12,0.41
26.063758850097656,0.07,0.09,0.28,0.3
26.07378602027893,0.05,0.06,0.47,0.47
26.0837619304657,0.24,0.06,0.65,0.69
26.093803882598877,0.44,-0.02,0.46,0.63
26.10389494895935,0.36,0.0,-0.02,0.36
26.136146068572998,0.16,0.05,-0.58,0.6
26.137473106384277,0.17,0.07,-0.62,0.64
26.138486862182617,0.32,0.12,-0.48,0.58
26.144716024398804,0.27,0.09,-0.61,0.67
26.15332293510437,0.09,0.06,-0.6,0.6
26.163454055786133,-0.02,-0.01,-0.39,0.39
26.173142910003662,-0.19,0.01,-0.12,0.22
26.182883977890015,-0.31,0.03,0.12,0.33
26.193252086639404,-0.34,0.03,0.18,0.38
26.20307683944702,-0.26,-0.01,-0.03,0.26
26.24080181121826,-0.18,0.12,-0.17,0.27
26.242188930511475,-0.15,0.25,-0.34,0.44
26.243156909942627,-0.15,0.3,-0.38,0.5
26.26398801803589,-0.17,0.31,-0.41,0.54
26.26498293876648,-0.17,0.31,-0.48,0.59
26.278785943984985,-0.31,0.25,-0.53,0.66
26.27978515625,-0.56,0.16,-0.63,0.85
26.295825958251953,-0.85,0.15,-0.75,1.14
26.29729700088501,-1.18,0.27,-0.92,1.52
26.31221103668213,-1.37,0.47,-0.86,1.68
26.340592861175537,-1.45,0.75,-0.7,1.77
26.34190797805786,-1.5,0.92,-0.78,1.92
26.342906951904297,-1.43,1.04,-0.86,1.96
26.364097118377686,-1.49,1.08,-0.75,1.98
26.365100860595703,-1.78,1.01,-0.85,2.21
26.38039994239807,-2.08,1.12,-1.11,2.61
26.381407976150513,-2.59,1.22,-1.65,3.3
26.396080017089844,-3.34,1.91,-1.75,4.22
26.397567987442017,-2.96,2.97,-1.36,4.4
26.412230014801025,-2.57,3.06,-1.14,4.15
26.44014000892639,-2.44,3.23,-1.03,4.17
26.441524982452393,-2.45,3.29,-1.12,4.25
26.44252300262451,-2.71,3.38,-1.4,4.55
26.44474506378174,-3.02,3.69,-1.99,5.16
26.45088815689087,-3.46,4.13,-2.67,6.01
26.461021900177002,-3.8,4.63,-3.04,6.71
26.47092580795288,-4.41,5.06,-3.3,7.47
26.4807710647583,-5.34,5.43,-3.81,8.51
26.490488052368164,-5.87,5.34,-3.97,8.87
26.500885009765625,-5.97,5.03,-4.02,8.78
26.53822898864746,-5.57,4.08,-4.0,7.97
26.539577960968018,-4.64,3.17,-4.42,7.14
26.54056215286255,-3.32,2.53,-5.13,6.61
26.54357385635376,-2.88,3.11,-5.84,7.21
26.56350302696228,-3.88,5.53,-6.23,9.18
26.564553022384644,-4.35,7.41,-5.7,10.31
26.578819036483765,-1.0,10.4,-2.05,10.64
26.579866886138916,3.52,11.7,0.41,12.22
26.59532594680786,2.97,7.42,-1.14,8.07
26.599869966506958,-0.24,4.52,-4.3,6.24
26.613504886627197,-3.39,2.97,-5.85,7.38
26.643800020217896,-5.42,-0.76,-5.97,8.09
26.645211935043335,-4.33,-5.45,-5.06,8.6
26.646219968795776,3.12,-2.88,-2.57,4.96
26.664366006851196,4.82,-1.43,-1.78,5.33
26.665432929992676,-0.71,-2.95,-4.13,5.12
26.680227041244507,-6.11,-2.95,-5.91,8.99
26.681199073791504,-9.33,-2.7,-5.89,11.35
26.69593906402588,-10.39,-2.63,-4.04,11.45
26.69925880432129,-9.86,-3.09,-1.5,10.44
26.712247848510742,-8.59,-4.26,0.41,9.59
26.741973876953125,-7.7,-5.31,1.15,9.42
26.743309020996094,-7.52,-5.41,1.02,9.31
26.74432897567749,-7.39,-4.8,0.81,8.84
26.76424503326416,-7.28,-4.56,0.77,8.62
26.76529312133789,-7.03,-4.59,0.94,8.44
26.78053092956543,-6.74,-4.55,1.19,8.21
26.78200912475586,-6.59,-4.5,1.21,8.07
26.796249866485596,-6.56,-4.33,1.07,7.93
26.798359870910645,-6.59,-3.97,0.65,7.72
26.81233501434326,-6.5,-3.47,-0.01,7.36
26.842561960220337,-5.8,-2.63,-0.47,6.38
26.84398889541626,-4.56,-1.99,-0.87,5.05
26.844990015029907,-3.03,-1.48,-1.26,3.59
26.864362001419067,-1.66,-1.17,-1.25,2.38
26.865392923355103,-0.55,-0.92,-0.64,1.24
26.88059711456299,0.83,-0.57,-0.17,1.02
26.882064819335938,2.61,0.31,-0.08,2.62
26.896291971206665,4.19,1.39,-0.42,4.43
26.897730827331543,4.67,2.27,-0.64,5.23
26.912633895874023,4.53,3.61,-0.36,5.8
26.944029808044434,5.03,5.34,-0.12,7.33
26.94532299041748,6.37,6.33,-0.11,8.98
26.94638204574585,7.66,6.42,-0.12,9.99
26.964632987976074,8.95,6.7,0.22,11.18
26.96566104888916,10.1,6.69,0.12,12.11
26.98047113418579,10.89,6.7,-0.02,12.78
26.98152780532837,11.91,6.5,0.09,13.56
26.996318817138672,12.0,6.7,-0.2,13.74
26.997800827026367,10.56,9.21,-0.08,14.01
27.012475967407227,14.13,5.71,0.18,15.24
27.045307159423828,16.12,4.75,2.27,16.95
27.04672908782959,14.9,3.69,3.75,15.8
27.04773998260498,12.06,3.86,4.9,13.57
27.06452989578247,8.88,5.34,7.04,12.52
27.065611839294434,5.43,4.6,7.41,10.27
27.080436944961548,-1.09,0.45,4.23,4.39
27.081789016723633,-8.76,-1.0,0.51,8.83
27.09641695022583,-9.24,-0.31,-0.08,9.24
27.09791898727417,-1.09,0.82,0.79,1.57
27.112464904785156,5.19,1.02,0.36,5.3
27.14473009109497,6.69,3.15,1.16,7.48
27.14613389968872,6.97,5.45,1.84,9.03
27.14712905883789,8.01,2.76,0.44,8.48
27.16440486907959,6.46,0.6,-0.83,6.54
27.165467977523804,3.66,-0.09,0.8,3.74
27.1805579662323,1.79,-1.34,1.77,2.85
27.181599140167236,1.63,-1.44,1.53,2.65
27.196388959884644,1.55,-0.57,1.29,2.09
27.19785785675049,1.36,0.29,1.22,1.84
27.21277093887329,1.19,0.41,1.03,1.62
27.242642879486084,0.79,0.06,0.41,0.89
27.244019985198975,0.23,-0.16,-0.14,0.31
27.245003938674927,-0.34,-0.08,-0.15,0.38
27.264310836791992,-0.77,0.05,-0.08,0.77
27.265336990356445,-0.85,-0.05,0.05,0.85
27.280493021011353,-0.41,-0.03,0.26,0.48
27.28152894973755,0.4,0.12,0.31,0.52
27.29627799987793,0.86,0.05,-0.25,0.89
27.297744035720825,1.1,0.02,-0.89,1.41
27.31244993209839,1.17,0.02,-1.22,1.69
27.3415789604187,1.11,0.01,-1.07,1.54
27.342833042144775,1.1,-0.08,-0.59,1.25
27.343815803527832,0.96,-0.16,-0.2,0.99
27.364521980285645,0.65,-0.16,0.06,0.67
27.36552906036377,0.42,-0.11,0.21,0.48
27.380738019943237,0.29,-0.09,0.26,0.39
27.381786823272705,0.28,-0.05,0.3,0.41
27.396485805511475,0.24,0.04,0.23,0.33
27.39796209335327,0.21,-0.01,0.1,0.23
27.412641048431396,0.28,-0.01,0.3,0.41
27.413995027542114,0.31,0.02,0.27,0.41
27.45935893058777,0.27,-0.01,-0.15,0.3
27.460510969161987,0.25,-0.04,-0.58,0.63
27.461491107940674,0.37,-0.03,-0.69,0.78
27.48014783859253,0.39,-0.08,-0.43,0.58
27.481158018112183,0.21,-0.07,-0.21,0.3
27.497792959213257,-0.12,0.03,-0.04,0.13
27.49924087524414,-0.37,0.1,0.19,0.42
27.51338481903076,-0.53,0.17,0.28,0.62
27.514875888824463,-0.5,0.25,0.11,0.56
27.529436111450195,-0.36,0.21,0.01,0.41
27.560094833374023,-0.28,0.12,-0.12,0.32
27.561429977416992,-0.22,-0.05,-0.33,0.39
27.562467098236084,-0.17,-0.06,-0.56,0.58
27.581035137176514,-0.22,0.11,-0.66,0.7
27.58205509185791,-0.4,0.32,-0.76,0.91
27.59857702255249,-0.63,0.53,-0.91,1.22
27.600046157836914,-0.94,0.68,-1.08,1.58
27.613379955291748,-1.37,0.75,-1.44,2.12
27.61483907699585,-1.69,0.76,-1.48,2.37
27.629404067993164,-1.82,0.77,-1.55,2.51
27.659245014190674,-2.19,0.63,-1.79,2.89
27.660609006881714,-2.42,0.58,-1.87,3.11
27.661673069000244,-2.33,0.76,-1.64,2.94
27.681264877319336,-2.38,1.05,-1.42,2.96
27.682292938232422,-2.34,1.39,-1.3,3.01
27.69763493537903,-1.97,1.68,-1.21,2.85
27.69910502433777,-1.83,2.24,-1.38,3.2
27.713032960891724,-2.11,3.77,-1.74,4.65
27.71449303627014,-2.35,4.74,-1.36,5.46
27.729165077209473,-2.35,4.54,-1.23,5.25
27.7584171295166,-2.89,4.32,-1.56,5.42
27.759650945663452,-3.24,4.26,-2.0,5.71
27.760662078857422,-3.53,4.45,-2.34,6.14
27.781749963760376,-4.04,4.69,-2.5,6.67
27.78277015686035,-4.45,4.87,-2.67,7.11
27.797525882720947,-4.61,5.2,-3.0,7.56
27.798519134521484,-5.01,5.38,-3.76,8.25
27.81348991394043,-5.19,5.01,-4.31,8.4
27.814953804016113,-4.91,4.59,-4.94,8.34
27.829406023025513,-4.89,4.18,-6.23,8.95
27.86018180847168,-4.95,4.51,-7.15,9.79
27.861562967300415,-5.25,5.78,-8.1,11.25
27.862571954727173,-5.42,6.3,-7.74,11.35
27.88116693496704,-3.65,7.5,-4.46,9.45
27.882206916809082,1.89,10.88,-0.44,11.05
27.897584915161133,5.99,10.84,0.18,12.38
27.898607969284058,3.28,5.04,-2.48,6.5
27.913326025009155,-1.1,1.85,-4.8,5.26
27.91480302810669,-4.54,-0.62,-5.86,7.43
27.929620027542114,-6.49,-4.59,-6.28,10.13
27.95886993408203,-2.53,-5.75,-4.21,7.56
27.96021294593811,3.77,-2.92,-1.04,4.88
27.961214065551758,1.27,-3.27,-1.02,3.65
27.98115110397339,-3.73,-3.34,-2.55,5.61
27.982208013534546,-7.32,-3.25,-3.1,8.58
27.997637033462524,-8.76,-3.44,-2.37,9.7
27.99867582321167,-8.86,-3.7,-1.11,9.66
28.01332402229309,-8.22,-4.19,-0.01,9.22
28.014793872833252,-7.3,-5.0,0.64,8.87
28.02948498725891,-6.55,-5.51,0.76,8.59
28.05870008468628,-6.16,-5.22,0.65,8.1
28.060111045837402,-5.94,-4.76,0.4,7.62
28.06112003326416,-5.76,-4.46,0.11,7.28
28.0816011428833,-5.61,-4.31,-0.08,7.07
28.08260202407837,-5.56,-4.11,-0.17,6.91
28.09767484664917,-5.56,-3.8,-0.19,6.73
28.098623037338257,-5.58,-3.51,-0.09,6.59
28.113418102264404,-5.54,-3.27,0.22,6.43
28.11488699913025,-5.49,-2.81,0.56,6.19
28.130300045013428,-5.43,-2.02,0.35,5.8
28.158956050872803,-4.9,-1.12,-0.52,5.05
28.160193920135498,-3.79,-0.45,-1.16,3.98
28.161004066467285,-2.37,0.27,-0.98,2.57
28.181535959243774,-0.81,0.79,-0.31,1.17
28.182538986206055,1.0,1.31,0.49,1.71
28.19777011871338,2.43,1.82,1.15,3.24
28.198840141296387,2.74,2.34,1.46,3.88
28.21366310119629,2.26,3.32,1.54,4.3
28.21513605117798,2.13,4.74,1.55,5.42
28.229530811309814,2.96,6.15,1.75,7.04
28.230947017669678,4.78,6.96,1.99,8.67
28.275293827056885,7.1,6.72,1.96,9.97
28.276440143585205,9.15,6.07,1.48,11.07
28.27742910385132,10.63,5.97,0.91,12.22
28.298512935638428,11.87,5.86,0.32,13.24
28.29956293106079,12.88,5.06,-0.37,13.84
28.314527988433838,13.38,3.91,-0.69,13.95
28.315541982650757,13.16,3.29,-0.42,13.57
28.330052852630615,9.85,8.28,0.37,12.87
28.33152198791504,10.05,7.47,0.09,12.52
28.346462965011597,13.13,3.68,1.13,13.68
28.37612295150757,13.64,2.43,2.9,14.15
28.37753701210022,11.85,3.88,4.53,13.26
28.378545999526978,7.87,5.07,4.35,10.32
28.398087978363037,-0.47,2.41,1.62,2.94
28.399084091186523,-9.51,2.28,-0.63,9.79
28.41066002845764,-9.75,2.59,0.83,10.12
28.411792039871216,-2.08,0.39,1.52,2.6
28.427611827850342,3.17,-1.89,0.76,3.76
28.429326057434082,4.73,-0.52,0.59,4.79
28.444011926651,5.02,2.06,1.03,5.52
28.472774982452393,6.8,2.82,0.71,7.39
28.474113941192627,9.27,0.54,-0.39,9.29
28.47498083114624,7.43,1.97,0.48,7.7
28.477692127227783,4.85,1.13,1.91,5.33
28.497747898101807,2.68,-1.32,2.04,3.61
28.49879503250122,1.68,-1.62,1.6,2.82
28.513309001922607,1.48,-0.58,1.36,2.09
28.514377117156982,1.54,0.29,1.76,2.35
28.528599977493286,1.42,0.14,1.39,1.99
28.5300509929657,0.67,-0.15,0.77,1.03
28.572535037994385,0.26,0.12,0.37,0.46
28.573750019073486,0.18,0.24,0.12,0.32
28.57490301132202,0.08,0.0,-0.36,0.36
28.579370975494385,0.13,0.07,-0.83,0.84
28.59796905517578,0.52,0.34,-1.28,1.42
28.599021911621094,0.83,0.21,-1.29,1.54
28.613422870635986,1.06,-0.07,-0.94,1.41
28.61446189880371,1.03,-0.34,-0.58,1.23
28.629825115203857,0.8,-0.29,0.07,0.85
28.631287097930908,0.22,-0.03,0.54,0.58
28.674158096313477,-0.31,0.25,0.65,0.76
28.67533302307129,-0.45,0.34,0.58,0.8
28.67656707763672,-0.11,0.14,0.29,0.34
28.678083896636963,0.4,-0.11,0.03,0.41
28.67953109741211,0.69,-0.18,-0.19,0.73
28.680922031402588,0.58,-0.03,-0.24,0.62
28.68411898612976,0.33,0.11,-0.4,0.53
28.694294929504395,0.16,0.14,-0.56,0.59
28.704256057739258,0.1,0.0,-0.64,0.64
28.714102029800415,0.08,-0.13,-0.7,0.71
28.74653911590576,-0.01,-0.15,-0.8,0.81
28.74772882461548,-0.12,-0.04,-0.91,0.91
28.748718976974487,-0.13,0.1,-0.57,0.59
28.765041828155518,-0.01,0.07,-0.05,0.08
28.76609992980957,0.14,-0.05,0.21,0.25
28.780075073242188,0.21,-0.25,0.29,0.43
28.783334016799927,0.18,-0.28,0.29,0.44
28.796530961990356,0.19,-0.05,-0.08,0.21
28.803388118743896,0.17,0.14,-0.36,0.42
28.813404083251953,0.19,0.25,-0.33,0.45
28.848444938659668,0.15,0.28,-0.09,0.33
28.84978485107422,0.0,0.23,-0.07,0.24
28.850730895996094,-0.1,0.23,-0.04,0.25
28.865254878997803,-0.31,0.25,-0.16,0.42
28.866300106048584,-0.58,0.29,-0.44,0.78
28.881339073181152,-0.73,0.37,-0.56,0.99
28.88246488571167,-0.81,0.51,-0.76,1.22
28.896789073944092,-0.92,0.63,-1.13,1.58
28.903401851654053,-1.18,0.72,-1.49,2.03
28.913152933120728,-1.34,0.7,-1.38,2.04
28.94937300682068,-1.44,0.77,-1.09,1.96
28.95133399963379,-1.68,0.99,-0.92,2.15
28.952340126037598,-1.88,1.39,-0.93,2.51
28.965560913085938,-2.35,1.68,-1.51,3.25
28.966618061065674,-2.95,2.41,-1.48,4.08
28.98140001296997,-2.83,3.02,-1.19,4.3
28.982458114624023,-2.99,2.94,-1.46,4.44
28.997047901153564,-3.36,3.08,-1.75,4.88
29.001893043518066,-3.71,3.38,-1.99,5.39
29.01314401626587,-3.85,3.92,-2.36,5.97
29.021942138671875,-4.0,4.37,-2.86,6.57
29.05531406402588,-4.31,4.78,-3.25,7.21
29.056528091430664,-4.74,5.22,-3.08,7.69
29.057764053344727,-5.11,5.38,-3.09,8.03
29.062345027923584,-5.5,5.4,-3.18,8.33
29.071421146392822,-5.84,5.42,-3.31,8.62
29.081483840942383,-5.78,4.82,-3.64,8.36
29.091495037078857,-5.08,3.77,-3.66,7.3
29.10124683380127,-4.01,3.3,-3.87,6.47
29.11138391494751,-3.03,3.25,-4.66,6.43
29.121335983276367,-2.64,3.45,-5.76,7.21
29.15331792831421,-3.5,5.49,-6.2,8.99
29.154752016067505,-3.87,6.99,-5.47,9.68
29.155755043029785,-0.4,9.98,-1.57,10.11
29.16559100151062,3.35,11.09,0.6,11.6
29.170356035232544,2.03,6.7,-1.32,7.12
29.181321144104004,-1.55,4.01,-4.37,6.13
29.190621852874756,-4.35,2.45,-5.42,7.36
29.200427055358887,-6.28,-1.22,-5.85,8.66
29.210702896118164,-5.24,-5.54,-5.15,9.2
29.2204749584198,1.74,-2.9,-2.14,4.0
29.254289150238037,2.76,-1.03,-0.5,2.98
29.25563907623291,-2.5,-1.96,-2.33,3.93
29.25669503211975,-7.28,-2.2,-3.45,8.35
29.26235008239746,-9.5,-2.51,-2.67,10.18
29.269883155822754,-9.16,-3.2,-1.0,9.75
29.28127694129944,-8.06,-4.08,0.38,9.04
29.28981900215149,-7.14,-5.11,1.13,8.85
29.299667835235596,-6.67,-5.74,1.1,8.86
29.309875965118408,-6.55,-5.6,0.65,8.64
29.319488048553467,-6.42,-5.37,0.12,8.37
29.35245704650879,-6.21,-5.18,-0.19,8.08
29.35370898246765,-5.88,-4.84,-0.14,7.61
29.35472011566162,-5.58,-4.68,0.25,7.28
29.365869998931885,-5.31,-4.51,0.67,6.99
29.36898708343506,-5.04,-4.2,0.55,6.58
29.381526947021484,-4.73,-3.71,-0.18,6.01
29.389328956604004,-4.22,-3.01,-0.87,5.25
29.39893388748169,-3.16,-2.34,-1.14,4.09
29.408945083618164,-1.69,-2.09,-1.03,2.87
29.418922901153564,-0.49,-2.11,-0.84,2.32
29.457145929336548,-0.04,-2.03,-0.15,2.03
29.460660934448242,0.48,-1.33,0.82,1.63
29.46163296699524,1.09,-0.51,1.55,1.96
29.464048862457275,1.25,0.32,1.99,2.37
29.468289852142334,1.18,1.49,2.3,2.98
29.478414058685303,1.43,3.1,2.48,4.21
29.488090991973877,2.39,4.65,2.41,5.75
29.498454093933105,4.25,5.91,1.91,7.52
29.508234977722168,6.63,6.39,1.15,9.27
29.518189907073975,8.61,6.54,0.02,10.81
29.556241989135742,10.06,7.03,-0.88,12.3
29.557544946670532,12.06,7.68,-1.28,14.35
29.558534145355225,14.13,7.19,-1.17,15.89
29.562378883361816,14.01,8.1,-0.54,16.19
29.58166790008545,10.91,12.32,-0.08,16.45
29.582706928253174,14.55,6.51,-0.38,15.94
29.597326040267944,16.81,3.23,2.03,17.23
29.5987548828125,15.56,2.04,4.17,16.23
29.614112854003906,13.27,3.6,5.19,14.69
29.617125988006592,10.29,4.54,4.85,12.24
29.65646982192993,2.47,0.38,0.95,2.67
29.65769386291504,-8.18,0.05,-2.12,8.45
29.65893793106079,-11.22,2.66,-0.84,11.56
29.662126064300537,-2.74,3.2,1.9,4.62
29.681879997253418,4.76,2.06,1.64,5.43
29.68294095993042,6.61,2.08,2.11,7.24
29.69742202758789,7.07,2.02,2.13,7.65
29.698851108551025,7.53,-0.12,0.44,7.54
29.71368408203125,5.36,0.53,-0.27,5.39
29.71680212020874,3.44,0.69,1.29,3.73
29.760624885559082,2.32,-0.97,1.66,3.01
29.761815071105957,2.12,-1.48,1.51,2.99
29.762803077697754,2.04,-0.51,1.32,2.48
29.78239893913269,1.67,0.34,1.14,2.05
29.78344488143921,1.1,0.22,0.67,1.3
29.79859495162964,0.57,-0.08,0.16,0.59
29.800110816955566,0.15,-0.29,0.21,0.38
29.814239978790283,-0.33,-0.34,0.4,0.62
