time,ax,ay,az,atotal
0.0015439987182617188,0.1,0.17,-0.07,0.2
0.01099395751953125,-0.41,-0.1,-0.16,0.45
0.020880937576293945,-0.49,-0.27,-0.24,0.6
0.03149008750915527,-0.19,-0.17,-0.18,0.31
0.04094290733337402,0.26,-0.02,0.05,0.26
0.05070805549621582,0.5,0.09,0.31,0.59
0.06165599822998047,0.57,0.1,0.32,0.66
0.09667086601257324,0.54,0.1,0.09,0.55
0.09694600105285645,0.28,0.07,-0.03,0.29
0.09722018241882324,-0.1,-0.06,-0.04,0.12
0.1005408763885498,-0.37,-0.2,-0.12,0.43
0.11069798469543457,-0.56,-0.09,-0.16,0.58
0.12065911293029785,-0.51,0.09,-0.07,0.52
0.13131117820739746,-0.32,0.1,0.05,0.33
0.1406710147857666,-0.12,0.01,0.22,0.25
0.15087485313415527,-0.02,-0.12,0.36,0.38
0.1616041660308838,-0.04,-0.15,0.39,0.41
0.1973111629486084,-0.06,-0.11,0.28,0.3
0.197584867477417,0.03,-0.03,0.15,0.15
0.19785714149475098,0.23,0.01,0.09,0.24
0.20060300827026367,0.39,-0.02,0.05,0.39
0.21053695678710938,0.41,-0.05,0.01,0.41
0.2205488681793213,0.19,-0.04,-0.03,0.19
0.23115205764770508,0.04,-0.06,-0.03,0.07
0.24063992500305176,-0.02,-0.07,0.03,0.07
0.2507760524749756,-0.14,-0.06,0.18,0.23
0.26140499114990234,-0.2,-0.04,0.23,0.3
0.2974870204925537,-0.24,0.02,0.18,0.3
0.2977759838104248,-0.28,0.03,0.08,0.29
0.29806017875671387,-0.3,-0.07,0.13,0.33
0.3007161617279053,-0.51,-0.14,0.2,0.56
0.3104369640350342,-0.76,-0.18,0.35,0.85
0.32046008110046387,-0.7,-0.2,0.49,0.87
0.3311121463775635,-0.51,-0.13,0.41,0.66
0.34041810035705566,-0.31,-0.13,0.5,0.6
0.3507730960845947,-0.16,-0.16,0.6,0.64
0.36128997802734375,-0.07,-0.1,0.45,0.46
0.39687085151672363,0.01,-0.07,0.29,0.29
0.3971388339996338,-0.05,-0.14,0.26,0.29
0.39739012718200684,-0.12,-0.14,0.2,0.27
0.40067410469055176,-0.14,-0.17,0.31,0.38
0.4102790355682373,-0.2,-0.24,0.41,0.51
0.42021918296813965,-0.05,-0.31,0.41,0.51
0.43088603019714355,0.33,-0.13,0.5,0.61
0.44028496742248535,0.57,-0.03,0.84,1.01
0.4506051540374756,0.62,-0.06,1.07,1.23
0.46109509468078613,0.57,-0.11,1.11,1.25
0.497326135635376,0.49,-0.24,1.15,1.27
0.4976019859313965,0.47,-0.26,1.12,1.24
0.49787402153015137,0.61,-0.2,0.98,1.17
0.5000579357147217,0.91,-0.13,0.9,1.28
0.5101339817047119,1.18,-0.06,0.92,1.49
0.5201189517974854,1.43,-0.07,0.96,1.72
0.5306508541107178,1.63,-0.12,1.02,1.92
0.5400769710540771,1.63,-0.2,1.12,1.98
0.5504870414733887,1.6,-0.25,1.06,1.93
0.5610060691833496,1.54,-0.18,0.93,1.8
0.5970690250396729,1.33,-0.11,0.74,1.52
0.5973410606384277,0.81,-0.16,0.6,1.02
0.5976090431213379,-0.38,-0.25,0.9,1.0
0.5999748706817627,-1.16,-0.41,1.09,1.64
0.6099369525909424,-1.64,-0.51,1.28,2.14
0.6199371814727783,-2.16,-0.42,0.34,2.22
0.6305749416351318,-2.05,-0.06,-0.3,2.07
0.6399900913238525,-1.01,0.32,0.64,1.23
0.6501460075378418,0.23,0.55,0.93,1.1
0.6608610153198242,1.39,0.45,0.11,1.46
0.6972391605377197,1.83,-0.28,-0.35,1.88
0.6975109577178955,1.22,-0.69,-0.55,1.5
0.6977880001068115,0.1,-0.42,-1.04,1.12
0.6998100280761719,-0.37,-0.23,-0.53,0.68
0.7098209857940674,0.26,0.02,-0.03,0.26
0.7198209762573242,0.91,0.14,-0.27,0.95
0.7304830551147461,1.08,0.05,-0.37,1.14
0.7398200035095215,0.98,0.0,-0.27,1.01
0.7498691082000732,0.97,-0.05,0.06,0.97
0.7606580257415771,0.93,0.03,0.09,0.93
0.7973878383636475,0.84,0.14,-0.17,0.86
0.7976610660552979,0.32,-0.14,-0.7,0.78
0.7979319095611572,-0.02,-0.41,-1.08,1.15
0.7997660636901855,0.07,-0.04,-1.3,1.3
0.8096940517425537,0.25,0.12,-1.34,1.36
0.8197219371795654,0.86,-0.09,-0.51,1.0
0.8303310871124268,1.64,0.02,0.43,1.69
0.8397519588470459,2.0,0.36,0.33,2.05
0.8497321605682373,1.3,0.4,-0.21,1.37
0.8605120182037354,0.2,0.09,-0.38,0.43
0.8976860046386719,-0.31,-0.13,-0.77,0.84
0.8979580402374268,-0.18,-0.05,-0.81,0.83
0.8982288837432861,-0.17,-0.08,-0.74,0.76
0.8994839191436768,-0.32,-0.07,-0.8,0.86
0.9095909595489502,-0.19,0.15,-0.54,0.59
0.9196531772613525,0.42,0.32,-0.34,0.62
0.9301178455352783,0.73,0.27,-0.28,0.82
0.939702033996582,0.46,0.06,0.0,0.46
0.9495441913604736,0.09,-0.08,0.11,0.16
0.9603641033172607,-0.01,0.04,-0.08,0.09
0.9974939823150635,0.09,0.27,-0.37,0.46
0.9977710247039795,0.21,0.25,-0.55,0.63
0.9980390071868896,0.17,0.0,-0.62,0.64
0.9993908405303955,0.16,-0.1,-0.65,0.67
1.009443998336792,0.04,-0.01,-0.6,0.6
1.0194261074066162,-0.19,0.01,-0.62,0.64
1.0300610065460205,-0.28,-0.02,-0.82,0.86
1.0394299030303955,-0.17,0.05,-0.67,0.69
1.0494019985198975,-0.16,0.06,-0.64,0.66
1.0602781772613525,-0.08,0.19,-0.48,0.52
1.0978081226348877,-0.06,0.4,-0.18,0.44
1.098078966140747,-0.08,0.39,-0.26,0.47
1.098351001739502,-0.23,0.57,-0.13,0.62
1.0992870330810547,-0.41,0.72,0.22,0.85
1.1092920303344727,-0.27,0.68,0.31,0.79
1.1192939281463623,0.17,0.79,0.36,0.88
1.129930019378662,0.71,0.98,0.35,1.25
1.1392500400543213,1.06,0.95,0.34,1.46
1.1493070125579834,1.38,1.05,0.5,1.8
1.1601300239562988,1.7,1.14,0.77,2.18
1.198425054550171,2.11,1.19,0.89,2.58
1.1988739967346191,2.69,1.23,1.31,3.23
1.1991431713104248,3.1,1.19,1.65,3.7
1.199409008026123,3.7,1.76,1.73,4.44
1.2099339962005615,4.41,2.86,1.88,5.58
1.2190849781036377,5.16,3.65,2.29,6.72
1.2297351360321045,5.57,4.04,3.25,7.6
1.2391290664672852,5.48,4.23,4.06,8.02
1.2492280006408691,5.36,4.75,4.55,8.48
1.2600419521331787,5.65,5.45,5.32,9.48
1.2898938655853271,6.26,6.14,5.51,10.35
1.2901818752288818,6.79,6.55,5.98,11.16
1.2904651165008545,6.37,6.35,6.05,10.83
1.2990100383758545,5.1,6.08,4.99,9.37
1.3090498447418213,3.34,6.26,3.38,7.85
1.3189849853515625,2.0,6.57,1.61,7.05
1.3297131061553955,1.02,6.62,0.52,6.71
1.3389689922332764,-0.41,6.7,0.0,6.71
1.3490798473358154,-1.89,6.89,0.17,7.14
1.3599488735198975,-1.73,6.02,0.82,6.31
1.3931291103363037,-0.7,4.54,1.22,4.75
1.3934581279754639,0.1,3.04,1.11,3.23
1.393779993057251,0.32,1.38,1.07,1.77
1.3988769054412842,-0.06,0.4,0.11,0.41
1.4090521335601807,1.15,1.09,0.72,1.74
1.4189980030059814,2.95,2.04,2.12,4.16
1.4296810626983643,3.97,1.5,1.47,4.49
1.4390299320220947,3.99,0.17,1.32,4.2
1.4491221904754639,3.86,-0.72,1.47,4.19
1.459967851638794,3.52,-1.03,1.46,3.94
1.4952819347381592,3.0,-1.23,1.64,3.63
1.4956159591674805,2.43,-1.41,1.86,3.36
1.495939016342163,1.95,-1.52,1.98,3.16
1.4987740516662598,1.49,-1.54,1.9,2.86
1.5088188648223877,1.26,-1.49,1.76,2.62
1.518733024597168,1.14,-1.26,1.55,2.29
1.52960205078125,0.96,-0.98,1.06,1.73
1.5388250350952148,0.95,-0.77,0.3,1.25
1.5490410327911377,1.22,-0.74,0.2,1.44
1.5597419738769531,1.22,-0.51,0.2,1.33
1.5962860584259033,0.78,0.0,-0.25,0.81
1.5966198444366455,-0.18,0.32,-1.18,1.23
1.5969479084014893,-1.36,0.4,-2.17,2.59
1.5986111164093018,-2.21,0.44,-2.6,3.44
1.6087050437927246,-2.68,0.37,-2.42,3.62
1.6184971332550049,-2.88,0.27,-2.18,3.62
1.6296031475067139,-2.85,0.38,-2.34,3.7
1.6387109756469727,-2.91,0.6,-2.82,4.09
1.6487610340118408,-3.42,0.78,-3.46,4.92
1.659703016281128,-4.19,0.76,-4.14,5.93
1.696152925491333,-4.83,0.52,-4.44,6.58
1.69651198387146,-5.15,0.36,-4.55,6.88
1.6968610286712646,-5.29,0.31,-4.63,7.03
1.6985399723052979,-5.43,0.01,-4.83,7.26
1.708569049835205,-5.46,-0.34,-5.05,7.44
1.7186250686645508,-5.16,-0.75,-4.88,7.14
1.7293829917907715,-4.72,-1.66,-4.24,6.55
1.7385141849517822,-4.31,-2.86,-3.59,6.29
1.7485921382904053,-4.19,-3.38,-3.44,6.38
1.759770154953003,-4.38,-2.95,-4.03,6.64
1.7955639362335205,-4.54,-2.33,-4.81,7.01
1.7959210872650146,-4.35,-2.12,-5.17,7.08
1.796269178390503,-3.85,-1.85,-4.87,6.47
1.7983381748199463,-2.87,0.04,-4.03,4.94
1.8083679676055908,-1.79,-0.45,-2.4,3.02
1.8185670375823975,-2.11,-2.15,-2.06,3.64
1.829207181930542,-1.16,0.51,-1.73,2.14
1.838503122329712,2.44,7.33,4.67,9.02
1.8484361171722412,5.06,6.78,8.68,12.12
1.8596289157867432,2.26,1.83,5.42,6.15
1.8947839736938477,-0.28,0.69,2.6,2.7
1.8951799869537354,-3.15,2.45,0.55,4.02
1.8955981731414795,-6.48,3.9,-1.85,7.78
1.8982529640197754,-8.09,2.22,-3.37,9.04
1.908262014389038,-6.76,-0.77,-3.16,7.5
1.9187028408050537,-4.6,-2.17,-2.92,5.86
1.9291069507598877,-2.04,-1.35,-4.97,5.53
1.9383771419525146,0.11,0.64,-7.34,7.36
1.9482810497283936,-0.55,2.08,-8.17,8.44
1.9594810009002686,-1.89,0.88,-5.63,6.0
1.9948651790618896,-3.07,-0.9,-4.28,5.34
1.9952528476715088,-4.08,-0.82,-3.72,5.58
1.995638132095337,-3.14,0.25,-2.04,3.75
1.998047113418579,-0.99,1.25,-0.21,1.6
2.0081021785736084,0.61,1.27,1.1,1.78
2.018535852432251,1.52,0.56,1.93,2.51
2.029109001159668,2.01,-0.02,1.35,2.42
2.0381669998168945,2.05,-0.21,0.55,2.13
2.0482590198516846,1.42,-0.02,-0.15,1.42
2.0593578815460205,0.45,0.15,-1.29,1.37
2.095355987548828,-0.61,-0.07,-2.53,2.6
2.0961480140686035,-1.3,-0.26,-2.82,3.11
2.096529960632324,-1.36,-0.08,-2.08,2.48
2.098116159439087,-0.91,0.11,-1.03,1.37
2.108049154281616,-0.38,0.23,-0.06,0.44
2.1180551052093506,-0.19,0.27,0.49,0.59
2.1289889812469482,-0.09,0.18,0.82,0.84
2.1380460262298584,0.07,0.13,0.67,0.68
2.148066997528076,0.26,0.07,0.15,0.3
2.159536123275757,0.67,0.04,0.01,0.67
2.1682021617889404,1.47,0.08,0.11,1.47
2.1965811252593994,1.67,-0.01,0.16,1.67
2.1970021724700928,2.0,-0.13,1.22,2.34
2.197798013687134,2.31,-0.16,1.63,2.83
2.2078001499176025,2.1,-0.15,1.67,2.68
2.217839002609253,1.6,-0.11,1.33,2.08
2.228827953338623,1.13,-0.03,0.86,1.42
2.2378430366516113,0.89,0.12,0.45,1.0
2.247990846633911,0.47,0.28,0.03,0.54
2.2591869831085205,-0.21,0.37,-0.21,0.47
2.268054962158203,-0.34,0.3,-0.15,0.47
2.2975499629974365,0.11,0.22,-0.01,0.24
2.2979419231414795,0.76,0.18,0.24,0.81
2.2983250617980957,1.41,0.21,0.6,1.54
2.3077008724212646,1.98,0.26,0.9,2.19
2.3177268505096436,2.52,0.35,1.34,2.87
2.3286750316619873,2.99,0.52,1.64,3.44
2.337759017944336,3.05,0.79,1.68,3.57
2.347851037979126,2.8,1.05,1.73,3.45
2.3589470386505127,2.42,1.31,1.63,3.19
2.36794114112854,2.26,1.86,1.64,3.35
2.3973238468170166,2.42,2.6,1.92,4.03
2.397686004638672,2.78,2.85,1.92,4.42
2.398063898086548,3.34,3.03,1.66,4.8
2.407482862472534,3.69,3.23,1.72,5.19
2.417557954788208,4.17,3.6,1.57,5.72
2.428577184677124,4.85,4.51,1.45,6.77
2.4376699924468994,5.53,5.33,2.13,7.97
2.4477269649505615,5.8,5.54,2.67,8.45
2.4588160514831543,5.96,6.04,2.73,8.91
2.467825174331665,6.1,7.2,3.01,9.9
2.4962329864501953,5.64,8.35,3.43,10.64
2.496636152267456,5.11,8.81,3.42,10.74
2.497420072555542,5.71,8.79,2.68,10.81
2.507371187210083,5.22,8.27,0.47,9.79
2.517518997192383,4.24,7.95,-0.46,9.02
2.528228998184204,3.3,7.77,-1.04,8.5
2.537580966949463,2.73,7.6,-2.16,8.35
2.5476009845733643,2.07,7.61,-1.86,8.1
2.558727979660034,1.14,7.02,-0.14,7.11
2.567538022994995,0.7,4.79,0.27,4.84
2.596623182296753,0.35,1.53,-0.1,1.57
2.5972390174865723,-0.75,-1.12,-0.58,1.46
2.597620964050293,-1.37,-2.28,-2.09,3.38
2.6073591709136963,-0.46,-1.13,-0.8,1.45
2.617285966873169,2.32,0.63,1.11,2.64
2.6280930042266846,5.3,0.51,2.31,5.8
2.637331962585449,6.26,-1.11,3.55,7.28
2.647260904312134,5.68,-2.25,3.47,7.02
2.65854811668396,4.66,-2.28,2.67,5.83
2.667523145675659,3.49,-1.98,2.29,4.62
2.6970431804656982,2.35,-1.86,2.13,3.67
2.6973941326141357,1.54,-1.94,2.1,3.24
2.6977410316467285,1.0,-2.16,2.14,3.2
2.707097053527832,0.61,-2.47,2.26,3.4
2.7171008586883545,0.17,-2.83,2.09,3.52
2.7280349731445312,-0.17,-3.09,1.75,3.55
2.737248182296753,-0.38,-3.12,1.52,3.49
2.7471139430999756,-0.39,-3.05,1.45,3.39
2.7583701610565186,-0.63,-2.89,1.44,3.28
2.767202138900757,-1.1,-2.53,0.83,2.88
2.7970468997955322,-1.56,-1.98,0.45,2.56
2.797401189804077,-1.85,-1.26,0.47,2.28
2.797755002975464,-1.91,-0.54,0.45,2.03
2.806941032409668,-2.25,0.12,-0.04,2.25
2.816861867904663,-3.12,0.73,-1.3,3.45
2.827793836593628,-4.49,1.56,-3.4,5.84
2.836984872817993,-5.66,2.6,-5.13,8.06
2.846967935562134,-5.95,3.17,-3.9,7.78
2.8582708835601807,-6.05,2.77,-1.6,6.84
2.867033004760742,-6.31,1.63,-1.35,6.65
2.897160053253174,-6.38,0.72,-2.56,6.91
2.8975179195404053,-5.71,0.74,-3.54,6.75
2.897876024246216,-4.94,1.83,-4.14,6.7
2.9067909717559814,-4.18,2.72,-3.95,6.36
2.9167799949645996,-4.17,1.48,-2.73,5.19
2.9275929927825928,-4.86,-1.72,-1.33,5.32
2.9367270469665527,-5.34,-4.23,-1.35,6.94
2.946820020675659,-5.24,-4.26,-2.91,7.35
2.958009958267212,-4.52,-2.76,-3.71,6.46
2.9668028354644775,-3.62,-1.91,-4.29,5.92
2.9969120025634766,-3.09,-1.42,-4.22,5.41
2.997267007827759,-2.92,1.02,-3.78,4.88
2.997615098953247,-2.78,0.2,-3.27,4.29
3.0066850185394287,-2.68,-0.53,-4.12,4.94
3.016875982284546,0.93,6.08,1.01,6.23
3.0274951457977295,2.74,8.0,6.41,10.61
3.0366108417510986,1.45,3.37,3.78,5.26
3.046689987182617,1.67,1.71,0.63,2.47
3.057904005050659,-0.55,3.64,-1.15,3.85
3.0667641162872314,-5.09,5.1,-2.72,7.7
3.0980799198150635,-8.94,2.9,-3.48,10.02
3.098435163497925,-8.28,-0.6,-3.04,8.84
3.0988008975982666,-5.78,-1.3,-3.58,6.92
3.1065139770507812,-3.97,-0.41,-5.3,6.63
3.1164791584014893,-3.47,0.46,-7.13,7.94
3.1273250579833984,-3.7,0.74,-6.03,7.11
3.136502981185913,-4.12,-0.1,-4.83,6.34
3.1466920375823975,-4.78,-0.53,-4.85,6.83
3.1578218936920166,-4.63,0.01,-3.84,6.01
3.166632890701294,-3.42,0.89,-2.41,4.27
3.1976170539855957,-1.75,1.27,-0.54,2.22
3.1979739665985107,-0.14,0.91,0.71,1.16
3.198323965072632,0.81,0.34,1.33,1.59
3.206357955932617,0.46,0.02,1.34,1.41
3.2163710594177246,0.14,-0.11,0.82,0.83
3.2270469665527344,0.4,0.02,0.12,0.41
3.236629009246826,0.61,0.34,-0.59,0.91
3.2464139461517334,0.72,0.18,-1.07,1.3
3.2574479579925537,0.72,-0.49,-1.18,1.46
3.2664899826049805,0.29,-0.79,-1.17,1.44
3.2982208728790283,-0.33,-0.45,-1.13,1.26
3.2985761165618896,-0.45,-0.09,-0.28,0.53
3.29892897605896,0.11,0.05,0.82,0.82
3.306324005126953,1.05,0.18,1.13,1.55
3.316240072250366,1.6,0.18,0.98,1.88
3.327082872390747,1.93,0.14,0.77,2.08
3.3365859985351562,2.06,0.04,0.58,2.14
3.3462331295013428,2.06,-0.02,0.5,2.11
3.3572609424591064,1.93,-0.03,0.71,2.05
3.3663828372955322,1.68,0.0,1.07,1.99
3.3989319801330566,1.6,-0.03,1.19,1.99
3.3992931842803955,1.45,-0.22,1.02,1.78
3.3996431827545166,0.99,-0.35,0.94,1.4
3.406061887741089,0.57,-0.18,0.63,0.86
3.416066884994507,0.22,0.01,0.24,0.32
3.4268648624420166,0.04,0.15,-0.17,0.23
3.4363820552825928,0.03,0.18,-0.35,0.39
3.446115016937256,0.2,0.22,-0.21,0.36
3.4572360515594482,0.49,0.36,0.19,0.63
3.466271162033081,0.76,0.53,0.81,1.23
3.498378038406372,1.12,0.6,1.51,1.97
3.4987380504608154,1.53,0.59,1.86,2.47
3.4991049766540527,1.9,0.69,1.88,2.76
3.5059821605682373,2.35,0.96,1.92,3.18
3.5159409046173096,2.74,1.36,1.78,3.53
3.5265848636627197,2.91,1.78,1.52,3.73
3.536404848098755,2.86,2.2,1.6,3.94
3.5460870265960693,2.79,2.5,1.78,4.14
3.557016134262085,2.62,2.45,1.94,4.07
3.566009044647217,2.79,2.31,2.13,4.2
3.5990231037139893,3.26,2.21,2.32,4.57
3.5993499755859375,3.78,2.38,2.48,5.1
3.5996768474578857,4.46,3.01,2.65,5.99
3.605823040008545,5.39,4.07,2.92,7.35
3.6158511638641357,6.41,5.19,3.6,8.99
3.626523017883301,6.73,5.87,4.55,10.02
3.63578200340271,6.32,6.48,4.85,10.26
3.645949125289917,5.5,7.61,4.92,10.6
3.656764030456543,5.13,9.4,5.52,12.04
3.665802001953125,5.41,11.02,5.24,13.34
3.698498010635376,5.19,10.73,3.46,12.41
3.6988320350646973,4.68,9.45,2.39,10.81
3.699162006378174,4.05,8.47,0.36,9.39
3.705576181411743,3.57,8.43,-1.22,9.23
3.715614080429077,2.69,9.86,-1.38,10.31
3.72632098197937,1.76,10.75,-1.08,10.94
3.7356669902801514,1.61,9.25,-0.82,9.42
3.745648145675659,1.87,6.21,-0.8,6.53
3.756704092025757,1.27,2.77,0.36,3.06
3.7656729221343994,-1.18,-0.77,0.67,1.56
3.798846960067749,-3.76,-3.15,-2.3,5.41
3.799190044403076,-3.88,-3.0,-3.98,6.31
3.799514055252075,-0.7,-1.08,-2.01,2.38
3.8055050373077393,3.01,-0.52,-0.47,3.09
3.8156299591064453,4.5,-1.88,0.95,4.96
3.8262641429901123,4.89,-3.75,2.61,6.69
3.835496187210083,5.03,-5.1,3.85,8.13
3.8455021381378174,5.52,-5.23,4.29,8.73
3.856649160385132,5.16,-4.16,3.55,7.51
3.8655190467834473,3.74,-3.32,1.58,5.24
3.89963698387146,2.07,-3.2,-0.15,3.81
3.899970054626465,0.67,-3.23,-0.75,3.38
3.900294065475464,-0.14,-3.06,-0.66,3.13
3.9054229259490967,-0.42,-3.05,-0.3,3.09
3.915318012237549,-0.37,-3.44,0.05,3.46
3.926039934158325,-0.06,-3.87,0.16,3.87
3.9353039264678955,0.37,-4.1,0.2,4.12
3.945345163345337,0.32,-4.04,0.31,4.06
3.956299066543579,-0.09,-3.64,-0.09,3.64
3.9653971195220947,-0.7,-3.34,-0.47,3.44
3.9996349811553955,-1.86,-2.84,0.16,3.39
3.9999711513519287,-2.93,-1.95,-0.08,3.52
4.000308036804199,-3.35,-1.06,-0.49,3.54
4.005201101303101,-3.83,-0.2,-0.83,3.92
4.015181064605713,-4.87,0.99,-2.14,5.41
4.025943040847778,-5.94,2.57,-3.24,7.23
4.035258054733276,-6.57,4.27,-3.2,8.46
4.0451929569244385,-6.64,5.51,-2.81,9.07
4.056421995162964,-6.45,5.71,-3.41,9.26
4.065346002578735,-5.86,5.01,-4.52,8.93
4.09874701499939,-4.46,5.31,-4.66,8.35
4.099068880081177,-2.69,5.34,-3.15,6.75
4.099377870559692,-3.33,0.42,-1.39,3.63
4.104963064193726,-5.6,-4.79,-0.87,7.42
4.114951848983765,-6.13,-6.09,-2.38,8.96
4.125693082809448,-5.09,-3.75,-2.6,6.83
4.134987115859985,-3.17,-2.04,-2.61,4.58
4.145019054412842,-1.56,-0.86,-4.65,4.97
4.155961036682129,-1.05,0.38,-4.93,5.05
4.165194988250732,-2.63,-1.19,-4.0,4.93
4.19869589805603,-5.2,-2.68,-5.28,7.88
4.199027061462402,-4.69,-0.87,-6.26,7.87
4.19933009147644,-1.51,6.79,-0.21,6.95
4.20473313331604,-0.11,8.05,4.97,9.46
4.2147839069366455,-0.02,3.66,3.59,5.12
4.225529909133911,1.3,1.63,0.9,2.27
4.234807968139648,1.0,2.32,-1.05,2.73
4.24497389793396,-2.08,4.74,-1.83,5.49
4.255805015563965,-6.24,3.69,-2.09,7.54
4.264912843704224,-6.53,0.63,-1.83,6.81
4.298979043960571,-3.47,0.45,-4.42,5.63
4.299296140670776,-1.91,1.64,-6.14,6.63
4.299605131149292,-4.23,1.53,-6.27,7.71
4.304680109024048,-5.14,-0.26,-3.6,6.28
4.314653158187866,-4.33,-1.6,-3.08,5.54
4.325438022613525,-4.96,-1.8,-4.42,6.88
4.33469295501709,-4.07,-0.61,-3.7,5.53
4.344825029373169,-2.5,0.62,-2.45,3.55
4.35552716255188,-1.31,1.11,-1.49,2.27
4.3648130893707275,-0.41,0.88,-0.48,1.08
4.398946046829224,0.16,0.32,0.26,0.44
4.3992531299591064,0.45,0.09,0.37,0.58
4.399566888809204,0.11,-0.07,-0.05,0.13
4.404545068740845,-0.3,-0.26,-0.24,0.46
4.414564847946167,-0.21,-0.12,-0.29,0.37
4.425191164016724,-0.11,0.18,-0.58,0.61
4.434607028961182,-0.19,0.15,-0.89,0.92
4.444565057754517,-0.31,-0.27,-1.17,1.24
4.45544695854187,-0.33,-0.59,-0.93,1.14
4.464639902114868,-0.3,-0.42,-0.47,0.69
4.4991371631622314,-0.11,0.0,-0.02,0.11
4.499444007873535,0.15,0.21,0.31,0.4
4.499778985977173,0.48,0.11,0.5,0.7
4.504286050796509,0.76,0.01,0.53,0.92
4.514523983001709,0.86,0.11,0.4,0.95
4.525254964828491,1.16,0.27,0.33,1.23
4.534436941146851,1.32,0.26,0.37,1.39
4.544435024261475,1.31,0.15,0.46,1.39
4.555312871932983,1.23,-0.08,0.74,1.43
4.564499139785767,1.29,-0.22,0.81,1.53
4.5991740226745605,1.34,-0.24,0.6,1.48
4.59948205947876,1.21,-0.26,0.77,1.45
4.599786996841431,1.02,-0.25,0.79,1.31
4.6041648387908936,0.81,-0.25,0.7,1.09
4.614209890365601,0.51,-0.19,0.54,0.76
4.624978065490723,0.24,-0.01,0.34,0.41
4.634277105331421,0.0,0.14,0.32,0.34
4.644317865371704,0.31,0.24,0.69,0.79
4.655233144760132,1.13,0.34,1.17,1.66
4.6644110679626465,2.01,0.34,1.45,2.5
4.699506998062134,2.65,0.23,1.72,3.16
4.6998231410980225,3.24,0.14,2.19,3.91
4.700124979019165,3.53,0.38,2.0,4.07
4.704053163528442,3.27,0.9,1.59,3.74
4.714185953140259,2.48,1.38,1.51,3.21
4.724817991256714,1.88,1.8,1.08,2.81
4.734137058258057,1.69,2.16,0.92,2.89
4.744159936904907,1.62,2.42,1.08,3.1
4.755272150039673,2.06,2.73,1.14,3.6
4.764391183853149,2.99,3.04,1.35,4.47
4.799997091293335,3.5,3.26,1.91,5.15
4.800302028656006,4.26,3.75,2.25,6.1
4.800601959228516,5.7,4.78,2.97,8.0
4.80411696434021,6.6,5.58,4.09,9.56
4.813971996307373,6.77,6.4,4.58,10.38
4.8249900341033936,6.4,7.82,4.86,11.21
4.834035158157349,5.34,9.42,5.88,12.32
4.844050168991089,4.94,10.51,6.85,13.48
4.855255842208862,5.62,10.48,5.59,13.14
4.8640501499176025,6.61,9.15,3.82,11.91
4.898505926132202,7.09,7.95,2.97,11.05
4.8988120555877686,6.27,7.02,1.18,9.48
4.899116039276123,4.69,6.67,-0.87,8.2
4.904116868972778,2.01,7.52,-1.58,7.94
4.913862943649292,-0.64,8.91,-1.2,9.01
4.924523115158081,-1.3,8.66,-1.47,8.87
4.933825969696045,-0.06,6.39,-2.52,6.86
4.943920850753784,0.84,3.07,-0.97,3.32
4.981372117996216,-0.38,-0.48,0.25,0.66
4.981665849685669,-1.88,-3.04,-1.54,3.89
4.981950998306274,-1.6,-3.19,-3.06,4.7
4.983644008636475,0.82,-1.12,-2.29,2.67
4.993767976760864,3.9,0.52,-1.19,4.11
5.0040318965911865,5.54,0.15,-0.35,5.55
5.013720989227295,5.65,-1.17,1.2,5.89
5.024401903152466,5.27,-2.4,2.38,6.26
5.0337300300598145,4.93,-3.14,2.43,6.33
5.043763875961304,4.49,-3.04,1.97,5.76
5.082911968231201,3.43,-2.79,1.14,4.56
5.08341908454895,1.99,-3.06,0.34,3.66
5.0837061405181885,0.9,-3.5,0.28,3.62
5.083989858627319,0.24,-3.67,0.56,3.72
5.093601942062378,-0.03,-3.64,0.41,3.66
5.103528022766113,0.25,-3.68,0.36,3.7
5.113587141036987,0.48,-3.73,0.4,3.78
5.124243974685669,0.49,-3.79,0.34,3.83
5.133610963821411,0.34,-3.69,0.44,3.73
5.143848180770874,0.1,-3.35,-0.11,3.35
5.183275938034058,-0.33,-3.08,-0.31,3.11
5.183574914932251,-1.29,-2.56,0.02,2.86
5.18385910987854,-2.33,-1.66,-0.54,2.91
5.184140920639038,-3.15,-0.74,-1.59,3.6
5.193405866622925,-3.76,0.13,-2.86,4.72
5.203423023223877,-4.69,0.94,-3.92,6.18
5.213428020477295,-6.44,1.62,-4.88,8.24
5.224015951156616,-7.86,2.14,-4.42,9.26
5.233431100845337,-8.4,2.82,-3.27,9.44
5.243476152420044,-7.91,3.53,-3.47,9.33
5.283570051193237,-7.2,4.1,-4.52,9.43
5.283859014511108,-5.82,3.89,-5.39,8.83
5.284144163131714,-3.96,3.21,-4.67,6.91
5.284427881240845,-3.34,1.45,-3.47,5.02
5.293284177780151,-4.02,-1.69,-2.24,4.9
5.303251028060913,-4.72,-4.16,-2.25,6.68
5.313288927078247,-4.16,-4.03,-3.8,6.92
5.323974847793579,-2.98,-2.61,-4.2,5.77
5.333304166793823,-2.44,-1.79,-4.03,5.03
5.343333005905151,-2.46,-2.0,-3.92,5.04
5.383656978607178,-2.97,-0.92,-4.03,5.09
5.383951902389526,-1.84,2.7,-3.78,4.99
5.3842408657073975,-0.38,4.27,-1.57,4.56
5.384526014328003,1.81,5.59,2.76,6.49
5.393151044845581,3.15,3.65,6.09,7.76
5.403122186660767,1.37,1.2,5.2,5.5
5.413149118423462,-0.2,1.1,3.25,3.43
5.423856973648071,-1.86,2.61,0.94,3.33
5.433205842971802,-4.43,5.2,-2.64,7.32
5.443199872970581,-8.28,5.94,-4.05,10.96
5.482486009597778,-8.94,2.15,-2.65,9.56
5.483196020126343,-6.29,-0.42,-2.83,6.91
5.4834840297698975,-3.68,-0.07,-5.36,6.5
5.483767032623291,-2.82,-0.04,-8.54,8.99
5.492949962615967,-3.0,0.08,-7.66,8.22
5.502923011779785,-3.5,-0.5,-5.74,6.74
5.5130040645599365,-4.38,-0.89,-5.66,7.21
5.523722887039185,-4.79,-0.37,-4.34,6.47
5.533071041107178,-3.76,0.81,-2.73,4.71
5.543133020401001,-2.35,1.5,-1.15,3.01
5.5539000034332275,-1.28,1.26,0.35,1.82
5.5831139087677,-0.63,0.63,1.46,1.71
5.583409070968628,-0.43,0.03,1.71,1.76
5.583693981170654,-0.47,-0.24,1.1,1.22
5.592851877212524,0.07,-0.11,0.31,0.33
5.60279107093811,0.93,0.13,-0.52,1.07
5.612898111343384,1.44,0.23,-1.41,2.02
5.623522996902466,1.22,-0.14,-2.02,2.36
5.632799863815308,0.34,-0.55,-2.14,2.23
5.642899036407471,-0.48,-0.49,-1.85,1.97
5.653733015060425,-0.99,-0.06,-1.32,1.65
5.6825010776519775,-1.15,0.18,-0.52,1.27
5.682783842086792,-0.89,0.25,0.26,0.96
5.683037042617798,-0.3,0.25,0.75,0.84
5.692721128463745,0.56,0.23,0.97,1.14
5.702620029449463,1.55,0.18,1.05,1.88
5.712658166885376,2.3,0.05,1.24,2.61
5.723369836807251,2.88,0.05,1.44,3.22
5.732674837112427,3.2,0.02,1.38,3.48
5.74268102645874,3.38,-0.22,0.9,3.5
5.753648042678833,3.23,-0.54,0.69,3.34
5.783745050430298,3.17,-0.57,1.56,3.57
5.7840189933776855,3.25,-0.33,2.2,3.93
5.784286975860596,3.22,-0.09,1.99,3.78
5.7924768924713135,2.91,-0.07,1.14,3.12
5.802527189254761,2.3,-0.11,0.88,2.46
5.812505006790161,1.72,0.13,0.25,1.74
5.8230931758880615,1.23,0.33,-0.46,1.35
5.832525968551636,1.08,0.35,-0.32,1.17
5.842566013336182,1.42,0.44,0.26,1.5
5.853509187698364,1.95,0.52,0.94,2.22
5.883738994598389,2.5,0.54,1.89,3.18
5.884022951126099,3.03,0.66,2.64,4.07
5.884289026260376,3.31,1.08,2.32,4.18
5.892377138137817,3.26,1.79,1.75,4.11
5.902369976043701,3.21,2.58,1.72,4.46
5.9124181270599365,3.34,3.36,2.37,5.29
5.922849893569946,3.88,3.71,3.66,6.49
5.932561159133911,4.79,3.27,4.04,7.06
5.94248104095459,5.37,3.45,4.16,7.61
5.953397989273071,5.52,4.31,4.35,8.24
5.984199047088623,5.93,6.27,3.69,9.38
5.9844701290130615,6.92,9.35,3.62,12.18
5.9847400188446045,7.08,11.38,5.32,14.41
5.9930100440979,5.9,11.92,5.13,14.25
6.0027501583099365,6.07,13.08,5.12,15.3
6.012402057647705,7.99,14.48,3.1,16.82
6.022846937179565,7.84,13.2,1.57,15.43
6.032307863235474,6.03,10.77,1.06,12.38
6.042242050170898,4.92,8.82,-1.97,10.28
6.053167104721069,3.9,8.91,-3.79,10.43
6.0838048458099365,1.72,10.87,-4.45,11.87
6.084074020385742,-0.33,10.9,-4.17,11.67
6.08434796333313,-1.35,7.22,-1.63,7.52
6.092159986495972,-3.47,2.76,-1.16,4.58
6.102086067199707,-4.72,-0.71,-3.13,5.7
6.112079858779907,-4.06,-0.8,-0.77,4.2
6.1225879192352295,-1.28,1.2,0.6,1.85
6.13227105140686,2.16,2.05,1.52,3.34
6.142742872238159,3.83,0.77,2.82,4.81
6.152958154678345,3.66,-1.11,2.99,4.85
6.184800863265991,2.68,-1.96,1.92,3.83
6.185074090957642,1.5,-1.95,1.06,2.67
6.185337066650391,0.18,-1.83,0.49,1.9
6.191970109939575,-0.94,-2.12,0.52,2.37
6.202040910720825,-1.48,-2.98,1.26,3.55
6.211927175521851,-1.57,-4.27,2.11,5.01
6.22263503074646,-1.45,-5.38,2.39,6.06
6.232050180435181,-1.0,-6.06,2.34,6.57
6.243613004684448,-0.46,-6.43,2.18,6.8
6.252742052078247,-0.1,-6.65,1.96,6.93
6.284837007522583,0.2,-6.94,1.86,7.18
6.285106897354126,0.41,-7.3,1.94,7.56
6.285372018814087,0.3,-7.87,2.14,8.16
6.2918860912323,-0.13,-8.6,2.26,8.89
6.301823854446411,-1.02,-9.2,1.9,9.44
6.311858892440796,-1.86,-9.52,1.32,9.78
6.322705984115601,-2.19,-9.57,1.22,9.89
6.331802129745483,-2.42,-9.06,1.12,9.44
6.341830015182495,-2.72,-7.93,0.82,8.42
6.352612018585205,-3.61,-6.86,-0.15,7.75
6.38507604598999,-5.01,-6.35,-2.04,8.34
6.3853418827056885,-6.52,-5.94,-3.86,9.62
6.385606050491333,-7.64,-4.55,-4.64,10.03
6.391742944717407,-8.24,-2.37,-4.53,9.69
6.401634931564331,-8.96,-0.01,-4.28,9.92
6.411602020263672,-9.45,1.94,-4.49,10.64
6.422494173049927,-9.0,3.42,-4.8,10.75
6.431655168533325,-8.19,4.56,-5.03,10.63
6.441699981689453,-7.81,4.73,-4.42,10.14
6.452401876449585,-7.72,3.47,-3.87,9.3
6.485483884811401,-5.99,0.94,-3.18,6.84
6.485756158828735,-4.05,-0.82,-1.92,4.55
6.4860169887542725,-3.92,-1.04,-2.16,4.59
6.491517066955566,-5.09,-0.71,-2.79,5.84
6.501464128494263,-6.25,-0.79,-2.36,6.72
6.511579990386963,-6.58,-0.99,-2.37,7.06
6.522493124008179,-3.74,3.01,-4.07,6.29
6.531524896621704,6.48,10.16,-0.39,12.05
6.541518926620483,18.04,12.04,7.14,22.83
6.55234694480896,15.76,9.26,12.35,22.06
6.582903146743774,10.7,5.96,4.3,12.98
6.583176851272583,4.41,6.35,-1.43,7.86
6.583441972732544,-3.83,5.64,-1.53,6.98
6.5913920402526855,-8.34,1.22,-1.32,8.53
6.6013829708099365,-9.38,-1.99,0.85,9.62
6.611364126205444,-8.06,-2.36,-0.48,8.41
6.622431039810181,-5.4,-0.97,-3.44,6.47
6.6314308643341064,-3.78,1.04,-6.34,7.45
6.641327142715454,-4.08,1.99,-7.76,8.99
6.652127027511597,-4.37,0.84,-6.51,7.88
6.6832311153411865,-5.24,-0.86,-5.84,7.89
6.68349814414978,-5.56,-1.06,-5.04,7.57
6.68376088142395,-3.79,0.36,-2.94,4.81
6.691304922103882,-1.87,1.55,-0.89,2.58
6.701416015625,-0.54,1.59,0.35,1.71
6.711220026016235,-0.18,0.78,1.37,1.58
6.722218036651611,-0.47,0.17,1.79,1.85
6.731273889541626,-0.11,-0.06,1.3,1.3
6.741161108016968,0.99,-0.03,0.49,1.1
6.752032041549683,1.91,0.06,-0.45,1.96
6.78466010093689,1.96,-0.13,-1.02,2.21
6.784940958023071,1.4,-0.37,-1.24,1.9
6.785192966461182,0.86,-0.37,-1.34,1.63
6.79115891456604,0.13,-0.26,-1.21,1.24
6.801084995269775,-0.61,-0.22,-0.56,0.85
6.811131954193115,-0.87,-0.04,0.09,0.87
6.821668863296509,-0.65,0.27,0.59,0.91
6.831120014190674,-0.01,0.48,0.95,1.06
6.841112852096558,0.88,0.56,1.14,1.54
6.851824998855591,1.66,0.56,1.14,2.09
6.884812116622925,2.16,0.28,1.14,2.45
6.885090112686157,2.58,-0.27,1.17,2.84
6.8853600025177,2.83,-0.74,1.3,3.2
6.891094923019409,3.1,-1.06,1.64,3.66
6.900907039642334,3.16,-1.04,1.6,3.69
6.910851001739502,2.58,-0.63,1.6,3.1
6.921521902084351,1.69,-0.21,1.24,2.1
6.930938959121704,0.93,0.13,0.71,1.17
6.941042184829712,0.55,0.38,0.29,0.72
6.951694011688232,0.59,0.31,0.13,0.67
6.984833002090454,1.03,0.01,0.44,1.12
6.985115051269531,1.66,-0.25,0.92,1.91
6.985383033752441,2.12,-0.23,1.08,2.39
6.990895986557007,2.41,-0.1,1.8,3.0
7.000931024551392,2.54,0.18,1.93,3.19
7.010764837265015,2.36,0.46,1.54,2.85
7.021430969238281,1.88,0.75,1.03,2.27
7.030834913253784,1.36,1.04,0.68,1.84
7.040863037109375,1.16,1.38,0.54,1.88
7.051664113998413,1.31,1.76,0.57,2.26
7.0850889682769775,1.67,2.17,0.86,2.87
7.085363149642944,2.21,2.74,1.4,3.78
7.0856311321258545,2.55,3.33,2.28,4.77
7.090703964233398,2.62,3.22,2.88,5.05
7.100957155227661,2.95,3.27,3.04,5.35
7.110673189163208,3.46,3.79,3.29,6.09
7.121307134628296,4.29,4.93,3.01,7.19
7.130699872970581,5.52,6.44,3.55,9.19
7.140649080276489,5.77,7.31,4.61,10.39
7.1514670848846436,5.95,8.3,5.44,11.57
7.18559193611145,6.96,10.35,5.72,13.72
7.185858964920044,7.51,11.57,5.57,14.87
7.1861231327056885,7.37,11.03,5.84,14.49
7.190529108047485,6.8,9.37,4.86,12.55
7.200474977493286,5.9,7.54,3.12,10.06
7.2105090618133545,5.41,6.73,-0.17,8.63
7.221137046813965,4.39,7.65,-2.46,9.15
7.230571031570435,2.43,10.2,-2.87,10.87
7.240523099899292,0.51,11.58,-2.93,11.95
7.251330137252808,0.0,9.85,-3.43,10.43
7.286702871322632,0.46,5.69,-1.97,6.03
7.28697395324707,-0.61,1.81,-0.41,1.95
7.287240028381348,-2.4,-1.37,-2.07,3.45
7.290428876876831,-2.34,-2.16,-3.13,4.46
7.300307989120483,-0.2,-0.4,-1.81,1.86
7.310322046279907,2.86,1.31,-0.84,3.25
7.320981025695801,4.29,0.94,-0.06,4.39
7.330351114273071,4.21,-1.3,1.43,4.63
7.340368986129761,3.92,-3.13,2.12,5.44
7.3512561321258545,3.98,-3.48,1.75,5.56
7.386353969573975,3.55,-3.16,0.96,4.84
7.386622190475464,2.49,-3.23,0.12,4.08
7.386871099472046,1.44,-3.72,0.12,3.99
7.390159845352173,0.94,-4.02,0.93,4.23
7.400241136550903,0.78,-4.23,1.38,4.51
7.411192178726196,0.88,-4.62,1.35,4.89
7.420789957046509,1.13,-5.15,1.46,5.47
7.430323839187622,1.3,-5.49,1.27,5.78
7.440039873123169,1.28,-5.73,0.89,5.93
7.450967073440552,0.95,-5.89,0.37,5.97
7.486021041870117,0.44,-5.87,-0.2,5.88
7.486284971237183,-0.07,-5.68,-0.67,5.71
7.486544847488403,-0.57,-5.38,-0.96,5.49
7.489989995956421,-1.62,-4.8,-0.71,5.11
7.499981164932251,-2.62,-3.96,-1.37,4.94
7.510021924972534,-3.58,-3.64,-1.88,5.44
7.520571947097778,-4.81,-3.67,-3.13,6.81
7.530048131942749,-5.61,-3.13,-4.76,7.99
7.539988994598389,-6.17,-1.71,-4.66,7.91
7.550903081893921,-5.9,0.63,-3.54,6.9
7.586400985717773,-5.41,3.48,-3.4,7.27
7.586664915084839,-5.32,5.23,-4.48,8.7
7.586923837661743,-5.61,5.18,-5.96,9.68
7.589814901351929,-6.9,4.5,-6.92,10.75
7.599927186965942,-8.33,2.77,-7.41,11.48
7.609827041625977,-7.38,0.22,-5.61,9.27
7.620518922805786,-5.65,-2.36,-3.87,7.24
7.630069017410278,-4.64,-4.02,-3.95,7.3
7.639849901199341,-4.43,-4.09,-4.22,7.35
7.650673151016235,-4.4,-2.59,-4.21,6.61
7.686439037322998,-4.28,-1.23,-4.05,6.01
7.68670392036438,-3.57,0.16,-4.03,5.38
7.686962842941284,-1.01,2.76,-2.73,4.01
7.689620018005371,0.6,3.78,-0.27,3.83
7.699738025665283,3.04,6.42,3.21,7.79
7.7096850872039795,6.99,5.59,8.76,12.52
7.720366954803467,4.8,0.04,7.95,9.28
7.729781866073608,2.0,-1.24,4.15,4.77
7.740005016326904,1.57,3.18,1.79,3.97
7.7504661083221436,-3.03,8.76,-3.51,9.91
7.787090063095093,-7.94,7.62,-7.24,13.17
7.78735089302063,-6.18,3.02,-6.58,9.51
7.787608861923218,-5.83,0.18,-5.04,7.7
7.7896668910980225,-7.28,-2.31,-5.52,9.42
7.799630880355835,-6.35,-3.52,-5.7,9.23
7.809589147567749,-5.81,-2.96,-6.13,8.94
7.820154905319214,-5.92,-0.64,-6.13,8.54
7.82962703704834,-5.15,1.44,-4.94,7.28
7.839859962463379,-3.39,2.05,-3.3,5.15
7.850275039672852,-1.56,1.69,-1.43,2.7
7.887542009353638,0.27,0.98,0.7,1.23
7.887807130813599,1.41,0.38,2.48,2.87
7.888061046600342,1.73,0.22,2.28,2.87
7.889725923538208,1.98,0.13,1.23,2.33
7.899441957473755,2.44,-0.14,0.48,2.49
7.909451007843018,2.7,0.09,-0.83,2.82
7.920017957687378,2.07,0.17,-2.35,3.13
7.929602861404419,0.39,-0.39,-2.81,2.86
7.939799070358276,-0.84,-0.88,-1.35,1.81
7.950224161148071,-0.65,-0.55,0.29,0.89
7.987562894821167,0.12,0.07,1.13,1.13
7.987828969955444,0.47,0.35,1.2,1.33
7.9880900382995605,0.42,0.45,0.78,0.99
7.989681005477905,0.27,0.37,0.52,0.69
7.999295949935913,0.43,0.23,0.25,0.54
8.009278059005737,0.87,0.21,0.1,0.9
8.019876956939697,1.32,0.33,0.39,1.41
8.02932596206665,1.88,0.46,0.85,2.11
8.039652109146118,2.51,0.39,1.16,2.79
8.050016164779663,2.78,0.02,1.25,3.04
8.088466882705688,2.43,-0.31,1.15,2.7
8.088917016983032,1.67,-0.28,1.0,1.96
8.089182138442993,0.89,0.01,0.63,1.09
8.08978009223938,0.42,0.29,0.19,0.54
8.09940791130066,0.29,0.51,-0.06,0.58
8.109251022338867,0.61,0.63,-0.23,0.9
8.119763135910034,1.15,0.7,0.02,1.34
8.129211187362671,1.49,0.68,0.67,1.76
8.139672040939331,1.91,0.84,1.32,2.46
8.149960994720459,2.34,1.31,2.72,3.81
8.188138961791992,3.0,1.2,3.48,4.74
8.188415050506592,3.7,1.62,3.23,5.17
8.18884801864624,3.73,1.97,3.11,5.24
8.1891028881073,3.95,2.23,2.68,5.26
8.199043989181519,4.13,2.59,2.27,5.37
8.210180044174194,4.28,2.86,2.48,5.71
8.21965503692627,4.78,2.96,2.95,6.34
8.229059934616089,5.42,3.22,3.53,7.22
8.23910117149353,5.89,3.89,4.04,8.13
8.249776124954224,6.24,5.1,4.5,9.23
8.289214849472046,6.45,7.15,4.27,10.53
8.28983187675476,6.73,9.77,5.16,12.93
8.290096044540405,7.43,11.94,5.64,15.15
8.290356874465942,7.98,13.07,3.97,15.81
8.299029111862183,6.37,13.02,4.23,15.09
8.308869123458862,3.55,12.31,3.55,13.29
8.319499015808105,2.86,10.72,-0.29,11.09
8.328882932662964,3.83,9.54,-3.05,10.72
8.33893084526062,4.12,10.7,-3.16,11.89
8.34967303276062,3.71,12.44,-2.62,13.24
8.38934588432312,2.91,11.59,-3.37,12.41
8.389932870864868,2.56,7.27,-3.08,8.3
8.39019513130188,0.39,2.72,-0.27,2.76
8.390496969223022,-3.45,-0.55,-1.86,3.95
8.398780107498169,-4.98,-1.63,-3.13,6.1
8.408807039260864,-3.39,-0.13,-1.25,3.61
8.419384002685547,0.15,1.12,-0.08,1.13
8.42879605293274,2.65,0.35,0.65,2.75
8.438752889633179,3.76,-1.85,2.03,4.65
8.4495210647583,4.13,-3.53,2.61,6.02
8.489490032196045,3.89,-3.91,2.03,5.87
8.490072965621948,3.08,-3.71,1.38,5.01
8.49033498764038,1.96,-3.62,0.9,4.21
8.49059510231018,0.84,-3.83,0.99,4.04
8.498852014541626,0.01,-4.26,1.52,4.52
8.508615970611572,-0.38,-4.85,2.02,5.26
8.519214868545532,-0.44,-5.38,2.04,5.77
8.528682947158813,-0.2,-5.65,1.74,5.91
8.538563013076782,0.35,-5.72,1.63,5.95
8.54922103881836,0.63,-5.7,1.63,5.96
8.590044021606445,0.52,-5.73,1.33,5.9
8.590306997299194,0.23,-5.89,0.94,5.96
8.590593099594116,-0.12,-6.02,0.78,6.07
8.590851068496704,-0.45,-6.03,0.39,6.05
8.598453998565674,-1.09,-6.0,-0.08,6.09
8.60842490196228,-2.02,-5.6,-0.27,5.95
8.61919093132019,-2.67,-4.72,-0.98,5.51
8.628453969955444,-3.56,-4.04,-1.63,5.62
8.638473987579346,-5.39,-3.76,-2.68,7.09
8.649190187454224,-7.18,-2.9,-4.93,9.17
8.690820932388306,-8.2,-1.01,-5.29,9.81
8.691084146499634,-8.63,1.6,-4.51,9.86
8.691349983215332,-8.61,3.83,-4.45,10.42
8.69161605834961,-8.22,4.27,-4.85,10.45
8.698302030563354,-7.47,3.7,-4.83,9.63
8.708335161209106,-7.7,3.53,-4.61,9.64
8.718909978866577,-7.22,2.64,-4.63,8.97
8.728332042694092,-4.72,1.37,-3.96,6.31
8.738258123397827,-3.57,0.02,-3.16,4.76
8.749011993408203,-4.48,-1.63,-2.55,5.4
8.790664911270142,-5.43,-3.02,-1.92,6.5
8.790939092636108,-5.53,-2.97,-1.82,6.53
8.791202068328857,-3.98,0.53,-2.75,4.86
8.791460037231445,-0.79,2.56,-2.21,3.47
8.79823613166809,1.05,3.54,-0.26,3.7
8.808203935623169,4.28,7.54,3.93,9.51
8.818774938583374,7.11,6.57,7.87,12.47
8.8282630443573,5.36,2.24,6.06,8.39
8.838162183761597,3.68,1.04,2.45,4.54
8.8489830493927,1.3,2.69,-0.87,3.11
8.891174077987671,-2.96,4.16,-3.6,6.24
8.89143705368042,-7.11,2.09,-4.39,8.61
8.891699075698853,-8.4,-1.24,-3.63,9.23
8.891956090927124,-7.13,-1.87,-4.17,8.46
8.898114919662476,-5.97,-0.42,-5.93,8.42
8.907994031906128,-6.07,1.54,-8.3,10.39
8.918629884719849,-6.16,1.95,-6.91,9.46
8.928035974502563,-5.14,0.29,-5.01,7.18
8.938045024871826,-4.45,-0.72,-4.5,6.36
8.948768854141235,-3.87,-0.18,-3.62,5.3
8.992061853408813,-2.67,0.77,-2.54,3.76
8.992336988449097,-1.27,1.2,-1.42,2.25
8.992601156234741,-0.23,0.93,-0.58,1.11
8.992862939834595,0.02,0.43,0.09,0.43
8.997875928878784,-0.52,0.22,0.39,0.68
9.007827997207642,-0.51,0.16,0.43,0.68
9.018449068069458,0.16,0.09,0.08,0.2
9.027827978134155,0.82,0.07,-0.41,0.91
9.037937879562378,0.99,-0.17,-0.83,1.3
9.048614025115967,0.68,-0.53,-0.99,1.31
9.092150926589966,0.3,-0.59,-0.75,1.0
9.092414140701294,-0.03,-0.35,-0.44,0.56
9.092674016952515,-0.17,0.04,-0.03,0.17
9.092934846878052,-0.03,0.28,0.55,0.61
9.097851037979126,0.28,0.33,0.52,0.67
9.107692003250122,0.73,0.38,0.67,1.06
9.118298053741455,1.4,0.44,1.01,1.78
9.127701997756958,1.63,0.42,0.86,1.89
9.137850999832153,1.93,0.22,1.31,2.34
9.148494005203247,2.25,-0.02,1.42,2.66
9.193093061447144,2.5,-0.28,1.65,3.0
9.193340063095093,2.61,-0.43,1.65,3.11
9.19359803199768,2.66,-0.44,1.7,3.18
9.193857908248901,2.47,-0.23,1.37,2.83
9.197508096694946,1.88,-0.18,1.11,2.19
9.207417011260986,1.02,-0.19,0.7,1.25
9.218086004257202,0.32,0.0,0.42,0.52
9.227643966674805,0.1,0.2,0.47,0.52
9.237746000289917,0.51,0.33,0.7,0.92
9.248346090316772,1.48,0.42,0.91,1.78
9.292855978012085,2.17,0.48,1.19,2.52
9.29310393333435,2.51,0.48,1.65,3.04
9.293362855911255,2.68,0.68,1.75,3.27
9.293617963790894,2.56,1.14,1.52,3.18
9.297481060028076,2.19,1.73,1.32,3.08
9.307522058486938,2.08,2.25,1.25,3.3
9.317979097366333,2.52,2.67,1.17,3.85
9.327409029006958,2.83,2.9,1.4,4.28
9.337430953979492,3.11,2.85,1.41,4.44
9.348237037658691,3.39,2.9,1.7,4.77
9.393066167831421,3.48,3.02,2.04,5.03
9.39333701133728,3.8,3.84,2.03,5.77
9.393595933914185,4.44,4.95,2.59,7.13
9.393850088119507,4.9,5.77,3.54,8.35
9.397465944290161,5.05,6.58,4.05,9.23
9.407575845718384,5.05,7.84,4.78,10.47
9.417908906936646,5.22,9.0,5.72,11.87
9.427278995513916,5.82,9.37,5.35,12.25
9.437299013137817,4.89,7.86,3.7,9.96
9.448024034500122,3.31,6.39,2.99,7.79
9.493651151657104,2.75,5.9,0.64,6.54
9.493916988372803,2.9,5.69,-1.36,6.52
9.494179010391235,1.71,6.55,-2.46,7.2
9.494436025619507,-0.27,8.62,-3.52,9.31
9.497215986251831,-0.57,9.1,-3.36,9.71
9.507456064224243,0.39,6.52,-2.15,6.87
9.517734050750732,0.31,2.76,-0.38,2.8
9.527138948440552,-1.7,-0.02,-0.99,1.96
9.537194013595581,-1.86,-1.31,-1.43,2.68
9.54793095588684,-0.4,-0.59,0.41,0.82
9.594205141067505,2.3,0.47,1.26,2.66
9.594472169876099,4.51,0.3,1.91,4.9
9.594731092453003,5.02,-0.93,2.18,5.55
9.594994068145752,4.57,-1.95,1.8,5.28
9.59700608253479,3.92,-2.45,1.46,4.84
9.607342958450317,3.05,-2.73,1.54,4.37
9.617575883865356,2.13,-2.99,1.7,4.04
9.62697696685791,1.4,-3.16,1.83,3.91
9.637015104293823,0.96,-3.43,1.94,4.05
9.647701025009155,0.78,-3.83,2.19,4.48
9.656995058059692,0.55,-4.15,2.36,4.8
9.694082021713257,0.29,-4.29,2.12,4.79
9.694355010986328,0.09,-4.42,1.96,4.83
9.694614171981812,-0.02,-4.6,1.86,4.96
9.696855068206787,-0.04,-4.69,1.69,4.98
9.706850051879883,-0.18,-4.73,1.51,4.96
9.717450857162476,-0.33,-4.85,1.5,5.08
9.727532148361206,-0.45,-5.03,1.49,5.26
9.736770868301392,-0.73,-5.27,1.36,5.49
9.74755597114563,-1.44,-5.42,1.32,5.76
9.756898164749146,-2.2,-5.22,1.29,5.8
9.794360876083374,-2.53,-4.79,1.0,5.5
9.794625043869019,-2.73,-4.21,0.57,5.04
9.794883966445923,-3.66,-3.75,-0.3,5.24
9.796695947647095,-4.85,-2.85,-1.9,5.93
9.806659936904907,-5.58,-1.28,-2.72,6.33
9.817283868789673,-5.74,0.72,-2.46,6.28
9.826688051223755,-5.72,2.82,-2.18,6.73
9.836705923080444,-5.39,4.35,-2.57,7.38
9.847501993179321,-4.72,5.2,-3.33,7.77
9.856741189956665,-4.69,5.86,-3.98,8.49
9.895869016647339,-5.76,5.13,-4.55,8.95
9.896319150924683,-5.64,2.6,-4.23,7.51
9.89657998085022,-4.27,0.08,-2.24,4.82
9.896837949752808,-3.9,-2.08,-0.53,4.45
9.906568050384521,-4.68,-4.23,0.74,6.35
9.917181968688965,-5.52,-4.16,0.86,6.96
9.926574945449829,-3.38,-1.5,-0.4,3.71
9.936596155166626,-2.46,-1.2,-0.24,2.74
9.947313070297241,-1.99,0.58,-1.21,2.4
9.956597089767456,3.43,8.92,2.77,9.95
9.998225927352905,7.61,11.66,10.71,17.56
9.998491048812866,5.12,6.38,8.12,11.52
9.998795986175537,2.04,3.5,2.3,4.65
9.999078035354614,-3.31,3.02,-0.38,4.49
10.006323099136353,-6.68,1.44,-1.9,7.09
10.016915082931519,-7.04,-0.53,-2.84,7.6
10.026387929916382,-4.75,-1.1,-4.61,6.71
10.036376953125,-2.79,-0.4,-4.31,5.14
10.047073125839233,-4.08,0.12,-4.95,6.41
10.05639910697937,-4.71,-0.48,-4.4,6.46
10.095772981643677,-4.51,-1.15,-3.79,6.0
10.096224069595337,-5.36,-1.25,-3.74,6.65
10.096484899520874,-5.38,-0.28,-2.85,6.09
10.09674596786499,-4.13,0.89,-2.06,4.7
10.106296062469482,-2.14,1.58,-1.23,2.93
10.116850137710571,-0.12,1.5,-0.46,1.57
10.126319169998169,0.86,0.86,0.0,1.21
10.13630199432373,1.25,0.5,-0.26,1.37
10.146924018859863,1.34,0.14,-1.6,2.09
10.156283140182495,0.67,-0.47,-1.84,2.01
10.196685075759888,-0.31,-0.54,-1.81,1.91
10.196954011917114,-1.09,-0.14,-1.95,2.23
10.197216987609863,-1.5,0.3,-1.8,2.36
10.197479963302612,-1.45,0.35,-1.35,2.01
10.206093072891235,-1.11,0.14,-0.88,1.42
10.216681957244873,-0.73,0.03,-0.44,0.85
10.22614312171936,-0.41,0.08,0.03,0.41
10.236175060272217,-0.09,0.23,0.33,0.41
10.246886014938354,0.2,0.3,0.55,0.65
10.256134033203125,0.55,0.34,0.59,0.87
10.297077894210815,0.73,0.41,0.49,0.97
10.297338962554932,1.08,0.4,0.8,1.4
10.297599077224731,1.76,0.22,1.07,2.07
10.297858953475952,2.58,-0.04,1.64,3.05
10.305926084518433,3.45,-0.32,2.22,4.11
10.316496133804321,3.96,-0.45,2.35,4.62
10.32603406906128,3.62,-0.41,2.48,4.4
10.336127042770386,2.93,-0.33,2.63,3.95
10.34664797782898,2.38,-0.19,2.16,3.21
10.356013059616089,2.04,-0.01,1.49,2.52
10.397414922714233,1.79,0.19,0.98,2.04
10.397686004638672,1.45,0.36,0.8,1.69
10.397946119308472,1.21,0.52,0.72,1.5
10.398202180862427,1.29,0.56,0.92,1.68
10.405864000320435,1.54,0.58,1.34,2.12
10.416408061981201,1.75,0.6,1.59,2.43
10.425796031951904,1.59,0.81,1.43,2.28
10.435955047607422,1.3,1.25,1.15,2.13
10.446516036987305,1.18,2.01,1.06,2.56
10.455878019332886,0.89,2.69,1.56,3.23
10.498367071151733,1.22,2.81,1.67,3.48
10.498637914657593,1.87,2.72,1.85,3.78
10.498904943466187,2.52,2.61,2.17,4.22
10.499162912368774,3.3,2.69,2.41,4.89
10.50569200515747,3.97,2.82,2.58,5.51
10.516319036483765,4.43,3.0,2.87,6.07
10.525666952133179,4.82,3.3,3.09,6.6
10.535717010498047,4.97,3.83,3.47,7.17
10.546458959579468,5.05,4.88,4.18,8.17
10.55579400062561,6.02,6.6,5.34,10.4
10.59843397140503,7.05,7.97,5.75,12.09
10.598694086074829,7.3,8.77,5.1,12.49
10.598950147628784,7.33,9.68,5.51,13.33
10.599207162857056,6.73,10.59,5.15,13.56
10.6055748462677,5.64,10.79,3.77,12.74
10.616122007369995,3.93,9.88,0.75,10.65
10.62551999092102,1.82,8.97,-1.58,9.28
10.635594129562378,0.01,9.79,-2.19,10.03
10.646229028701782,-0.11,11.28,-2.1,11.47
10.655510187149048,0.75,10.06,-1.12,10.14
10.698966026306152,1.39,6.59,-1.6,6.92
10.699240922927856,0.37,3.02,-0.89,3.17
10.699506998062134,-3.07,0.49,-1.89,3.63
10.699764966964722,-4.39,-0.47,-4.6,6.37
10.705434083938599,-2.98,0.6,-2.66,4.03
10.715935945510864,-0.05,2.36,-0.73,2.47
10.725327968597412,2.16,2.93,0.13,3.64
10.735424041748047,2.68,1.17,1.54,3.3
10.746042013168335,2.95,-1.35,2.93,4.37
10.755513906478882,3.39,-2.82,3.31,5.51
10.799536943435669,3.43,-3.09,3.15,5.58
10.799798011779785,2.83,-2.98,2.65,4.88
10.800060987472534,1.83,-3.02,1.97,4.04
10.800319910049438,0.96,-3.3,2.05,4.0
10.805405855178833,0.26,-3.63,2.36,4.33
10.81590485572815,-0.03,-4.16,2.18,4.69
10.825345993041992,0.14,-4.89,2.41,5.45
10.83542799949646,0.18,-5.53,2.41,6.03
10.845978021621704,0.02,-6.01,1.93,6.31
10.855298042297363,-0.43,-6.49,1.25,6.62
10.899922132492065,-0.9,-6.81,0.7,6.9
10.900183916091919,-1.12,-6.77,0.01,6.86
10.900444030761719,-1.36,-6.52,-0.13,6.66
10.90070104598999,-2.28,-5.65,-0.16,6.09
10.905140161514282,-3.05,-4.64,-1.52,5.75
10.915577173233032,-3.97,-4.14,-2.46,6.24
10.925423860549927,-4.95,-3.86,-4.26,7.58
10.93514895439148,-5.61,-3.11,-5.37,8.36
10.945708990097046,-6.5,-1.81,-4.64,8.18
10.95533800125122,-6.48,-0.08,-3.7,7.46
11.000547170639038,-6.03,1.62,-4.18,7.51
11.000810861587524,-6.11,2.41,-6.05,8.92
11.001070976257324,-6.49,2.66,-8.56,11.06
11.001331090927124,-6.72,2.81,-9.93,12.31
11.004916906356812,-6.23,1.86,-8.9,11.02
11.015515089035034,-4.78,-0.33,-6.13,7.78
11.025243043899536,-2.61,-2.66,-4.17,5.59
11.034979104995728,-1.49,-2.83,-3.74,4.92
11.045678853988647,-1.17,-0.53,-2.39,2.71
11.055170059204102,-0.89,-1.66,-1.83,2.62
11.100682973861694,-0.63,-1.12,-2.29,2.62
11.100951910018921,2.69,4.33,0.98,5.19
11.101217031478882,5.92,12.43,10.09,17.06
11.10147500038147,4.79,8.62,8.92,13.29
11.104868173599243,0.57,2.6,3.08,4.07
11.115354061126709,-5.24,0.91,-2.59,5.91
11.12484097480774,-8.96,-0.22,-5.84,10.69
11.134862184524536,-10.22,-1.52,-7.43,12.72
11.14550518989563,-9.35,-1.05,-8.03,12.36
11.154880046844482,-6.75,0.71,-8.51,10.88
11.200175046920776,-3.97,2.08,-10.83,11.72
11.200441122055054,-2.66,1.99,-8.92,9.51
11.200702905654907,-1.35,-0.13,-5.29,5.46
11.200963973999023,-1.54,-1.43,-4.12,4.62
11.204656839370728,-2.66,-0.56,-3.4,4.35
11.215206861495972,-2.79,1.03,-2.08,3.62
11.22466492652893,-1.82,1.97,-1.36,3.0
11.234697103500366,-0.25,1.45,-1.0,1.77
11.245429992675781,1.0,0.18,-0.2,1.03
11.254738092422485,1.52,-0.31,0.27,1.57
11.301410913467407,1.31,0.0,0.11,1.31
11.301671981811523,0.33,0.2,-0.18,0.42
11.301934003829956,-0.49,0.07,-0.45,0.66
11.302195072174072,-0.69,-0.12,-0.63,0.94
11.304579019546509,-0.59,-0.26,-0.67,0.92
11.315075159072876,-0.38,-0.37,-0.6,0.8
11.32463812828064,-0.18,-0.32,-0.33,0.49
11.334516048431396,-0.08,-0.11,0.21,0.25
11.345234155654907,0.04,0.08,0.69,0.69
11.354689836502075,0.28,0.2,0.79,0.86
11.401658058166504,0.51,0.23,0.88,1.04
11.401920080184937,0.73,0.19,0.98,1.23
11.402170896530151,1.0,0.19,0.93,1.37
11.40242886543274,1.3,0.13,0.72,1.49
11.404417037963867,1.47,0.1,0.48,1.54
11.415011167526245,1.7,0.08,0.43,1.75
11.42437195777893,1.92,0.03,0.59,2.0
11.434355974197388,2.03,0.05,0.71,2.15
11.445111989974976,2.06,0.03,0.86,2.23
11.454519033432007,2.09,-0.09,1.16,2.39
11.501698017120361,2.05,-0.21,1.08,2.32
11.50196099281311,1.73,-0.16,1.02,2.01
11.50222396850586,1.62,0.06,0.9,1.85
11.502483129501343,1.48,0.14,0.5,1.56
11.50418496131897,1.09,0.2,0.48,1.2
11.51477599143982,1.08,0.43,0.54,1.28
11.524250030517578,1.63,0.61,0.71,1.87
11.53427505493164,2.13,0.79,0.88,2.43
11.544939041137695,2.42,0.98,1.1,2.83
11.554286003112793,2.48,1.41,1.03,3.03
11.601938009262085,2.31,2.14,0.95,3.28
11.602205991744995,1.93,3.03,1.36,3.84
11.602472066879272,1.71,3.36,1.75,4.15
11.602731943130493,2.47,3.58,1.88,4.73
11.60421109199524,3.15,3.63,2.34,5.34
11.614606142044067,3.89,3.59,2.67,5.92
11.624212980270386,4.85,4.04,2.77,6.89
11.634133100509644,5.55,5.17,2.81,8.08
11.644867181777954,6.47,7.01,2.98,9.99
11.654273986816406,7.27,8.53,4.53,12.08
11.702622175216675,6.88,9.43,5.38,12.85
11.702897071838379,7.48,11.32,5.6,14.67
11.703159093856812,8.48,12.88,4.31,16.01
11.70344614982605,8.05,12.3,4.41,15.34
11.703972101211548,6.98,10.58,4.5,13.45
11.714509010314941,6.97,8.39,2.26,11.13
11.723978042602539,7.44,7.2,-0.7,10.37
11.73402190208435,6.76,8.45,-2.94,11.21
11.744640111923218,4.63,11.05,-4.01,12.63
11.754065036773682,2.23,11.72,-3.14,12.33
11.803164958953857,0.93,8.71,-1.92,8.96
11.803433179855347,-0.05,4.52,-0.41,4.53
11.803858041763306,-2.61,1.44,-1.42,3.3
11.804115056991577,-3.93,-0.42,-4.0,5.62
11.804372072219849,-2.67,0.4,-2.7,3.81
11.814369916915894,0.78,1.9,-1.49,2.53
11.823760032653809,3.7,1.64,-0.68,4.1
11.83387303352356,4.93,-0.75,0.67,5.03
11.84456992149353,5.31,-3.21,1.61,6.41
11.853822946548462,5.11,-4.41,1.67,6.95
11.90353798866272,4.14,-4.42,1.22,6.17
11.903804063796997,3.16,-4.05,0.55,5.16
11.904064893722534,2.27,-3.99,0.1,4.59
11.904330015182495,1.58,-4.33,0.13,4.61
11.9045889377594,1.07,-4.89,0.49,5.02
11.914169073104858,0.61,-5.49,0.62,5.55
11.923699140548706,0.53,-6.0,0.79,6.07
11.933693170547485,0.51,-6.32,1.09,6.43
11.944386959075928,0.46,-6.49,0.87,6.56
11.953725099563599,0.23,-6.72,0.57,6.74
12.003842115402222,-0.04,-6.93,0.31,6.93
12.00411605834961,-0.22,-6.81,-0.17,6.81
12.004379987716675,-0.56,-6.33,-0.7,6.39
12.004637002944946,-1.47,-5.46,-0.62,5.68
12.004893064498901,-2.49,-4.41,-1.1,5.18
12.01413893699646,-3.32,-3.78,-1.87,5.36
12.023526906967163,-4.31,-3.33,-2.58,6.02
12.033544063568115,-5.37,-2.56,-4.25,7.31
12.044109106063843,-6.26,-1.23,-4.71,7.92
12.053521871566772,-6.78,1.06,-3.58,7.74
12.104390859603882,-6.89,4.31,-2.83,8.6
12.104653120040894,-7.17,6.95,-3.95,10.73
12.104911088943481,-7.47,7.31,-5.75,11.92
12.105179071426392,-7.81,6.62,-7.15,12.48
12.105443000793457,-8.42,5.44,-7.57,12.56
12.113867998123169,-7.89,2.59,-6.06,10.28
12.12336802482605,-5.2,-1.56,-3.12,6.26
12.133392095565796,-3.07,-4.92,-1.22,5.92
12.143860101699829,-2.73,-5.67,-1.42,6.45
12.153393030166626,-3.29,-3.64,-1.77,5.21
12.2044198513031,-3.41,-0.43,-2.32,4.14
12.204683065414429,-0.73,2.67,-2.59,3.79
12.20494294166565,0.87,2.72,-1.07,3.04
12.205200910568237,1.49,3.88,0.64,4.2
12.205456018447876,3.86,7.2,5.7,9.96
12.213835000991821,3.01,5.15,7.69,9.73
12.223258018493652,-0.61,1.12,4.88,5.04
12.233273029327393,-1.78,0.52,1.03,2.12
12.243864059448242,-3.6,2.86,-2.69,5.32
12.253210067749023,-6.75,4.54,-5.23,9.67
12.305261850357056,-7.8,2.22,-5.05,9.55
12.3055260181427,-5.41,-0.75,-3.18,6.32
12.305788040161133,-2.52,-0.66,-4.44,5.14
12.306046962738037,-3.62,-0.11,-6.34,7.3
12.306308031082153,-5.63,0.1,-6.33,8.47
12.313591003417969,-6.16,-0.5,-4.57,7.68
12.323076963424683,-6.98,-0.87,-4.22,8.2
12.33309006690979,-6.63,-0.18,-3.91,7.69
12.343677997589111,-4.33,0.83,-2.49,5.06
12.353139162063599,-1.12,1.31,-0.76,1.88
12.405761003494263,1.53,1.13,0.13,1.9
12.406020879745483,2.31,0.47,0.32,2.37
12.406278848648071,0.97,-0.08,0.25,1.0
12.406541109085083,-0.41,-0.16,-0.1,0.45
12.406798124313354,-1.22,-0.03,-0.47,1.3
12.413581132888794,-1.34,0.18,-1.06,1.71
12.42294716835022,-0.73,0.2,-1.95,2.09
12.432957887649536,-0.24,-0.29,-2.12,2.15
12.443803071975708,-0.08,-0.79,-1.53,1.72
12.452913999557495,-0.35,-0.41,-0.76,0.93
12.506850004196167,-0.25,0.37,0.25,0.51
12.50711989402771,0.09,0.7,0.82,1.08
12.507377862930298,0.26,0.52,1.16,1.29
12.507632970809937,0.56,0.22,1.37,1.49
12.50789189338684,0.9,0.07,0.95,1.31
12.513231992721558,0.9,0.09,0.59,1.07
12.522802114486694,1.14,0.2,0.39,1.22
12.532875061035156,1.81,0.25,0.77,1.98
12.588834047317505,2.33,0.23,0.93,2.51
12.589102029800415,2.5,0.0,1.19,2.76
12.589359045028687,2.45,-0.4,1.5,2.9
12.589616060256958,2.18,-0.7,1.46,2.71
12.589882135391235,1.67,-0.79,0.95,2.07
12.593072175979614,1.01,-0.54,0.55,1.27
12.602851152420044,0.49,-0.07,0.05,0.49
12.61325192451477,0.23,0.39,-0.27,0.52
12.622649908065796,0.18,0.46,-0.08,0.5
12.632735967636108,0.49,0.25,0.41,0.68
12.690593004226685,1.0,0.03,0.76,1.25
12.690857172012329,1.76,-0.07,1.45,2.28
12.691118001937866,2.46,0.24,1.88,3.1
12.691375017166138,2.63,0.95,1.45,3.14
12.691630125045776,2.24,1.75,0.96,3.0
12.69287896156311,1.79,2.55,0.84,3.22
12.702484846115112,1.56,3.26,1.11,3.78
12.713011026382446,1.74,3.5,1.94,4.36
12.722507953643799,2.64,3.44,2.27,4.89
12.732579946517944,3.51,3.42,2.53,5.51
12.790915966033936,4.32,3.53,2.74,6.21
12.791180849075317,4.76,3.73,2.92,6.71
12.791437864303589,5.11,4.39,2.69,7.25
12.79171109199524,5.8,5.58,2.95,8.57
12.792144060134888,6.22,6.73,3.68,9.87
12.792534112930298,5.97,7.87,4.19,10.73
12.80237102508545,5.91,9.28,5.29,12.2
12.812963008880615,6.47,10.63,6.57,14.07
12.822397947311401,6.22,11.12,5.73,13.97
12.832431077957153,5.38,10.39,4.65,12.59
12.890848875045776,5.95,9.06,2.41,11.1
12.89110803604126,6.9,7.6,0.63,10.28
12.891366958618164,5.93,7.36,-0.48,9.46
12.891648054122925,3.03,9.04,-0.72,9.56
12.892084836959839,0.2,10.4,-0.94,10.44
12.892348051071167,-0.56,9.44,-1.42,9.56
12.902292013168335,0.56,6.0,-0.55,6.05
12.912832975387573,-0.23,2.2,1.41,2.62
12.922327041625977,-2.49,-1.1,-0.52,2.77
12.932263135910034,-2.67,-2.41,-2.19,4.21
12.991935014724731,-1.15,-0.9,-1.41,2.02
12.993069887161255,2.35,1.25,-0.48,2.7
12.993344068527222,5.1,1.54,0.68,5.37
12.99360203742981,5.75,-0.8,2.36,6.26
12.993864059448242,5.14,-3.47,3.39,7.06
12.994136095046997,4.28,-4.49,2.87,6.83
13.002147912979126,3.74,-4.18,2.27,6.05
13.012695074081421,3.43,-3.43,1.84,5.18
13.022140979766846,2.74,-3.17,1.32,4.39
13.032184839248657,1.89,-3.59,1.02,4.18
13.042803049087524,1.22,-4.11,0.97,4.39
13.092242956161499,0.52,-4.53,0.78,4.62
13.092507123947144,0.32,-4.81,0.44,4.84
13.092774152755737,0.28,-5.07,0.41,5.09
13.093363046646118,0.17,-5.23,0.04,5.23
13.09362506866455,0.06,-5.35,-0.29,5.35
13.101989984512329,-0.03,-5.19,-0.77,5.24
13.112551927566528,-0.43,-4.79,-1.3,4.98
13.122103929519653,-1.68,-4.01,-1.64,4.64
13.132098913192749,-2.87,-2.89,-2.93,5.01
13.19312310218811,-4.02,-2.37,-3.92,6.09
13.193394899368286,-5.67,-2.28,-4.58,7.63
13.19365406036377,-7.15,-1.59,-5.8,9.34
13.193926095962524,-7.37,-0.14,-5.61,9.26
13.194183111190796,-6.51,1.94,-4.03,7.89
13.194439172744751,-5.65,4.31,-3.5,7.92
13.20190691947937,-5.75,5.81,-4.81,9.48
13.212321043014526,-7.38,5.54,-6.37,11.21
13.221771955490112,-7.95,4.15,-7.09,11.43
13.231959104537964,-5.29,3.27,-5.24,8.13
13.242486953735352,-3.16,0.84,-1.34,3.53
13.293453931808472,-3.22,-4.43,-0.19,5.47
13.293719053268433,-4.28,-6.42,-0.89,7.76
13.29400897026062,-4.71,-3.14,-1.77,5.93
13.294266939163208,-3.6,-0.2,-2.86,4.6
13.29452395439148,-1.78,0.46,-2.74,3.29
13.301660060882568,-1.1,1.03,-1.19,1.92
13.312147855758667,-0.08,4.88,2.45,5.46
13.321705102920532,2.1,7.1,6.78,10.03
13.331655979156494,1.1,2.78,6.43,7.09
13.342375993728638,-1.29,-0.48,3.7,3.94
13.394155979156494,-2.17,-0.89,1.28,2.67
13.394422054290771,-2.5,1.51,-1.72,3.38
13.394688844680786,-4.01,4.53,-5.0,7.84
13.394950151443481,-5.16,4.35,-6.54,9.39
13.395207166671753,-4.19,1.06,-4.84,6.48
13.401510000228882,-2.33,-0.98,-4.49,5.15
13.412126064300537,-1.4,-0.6,-5.93,6.12
13.421725034713745,-4.23,0.55,-6.75,7.98
13.431543111801147,-5.94,1.0,-5.2,7.95
13.442195177078247,-5.61,0.01,-3.84,6.79
13.494785070419312,-5.4,-0.82,-3.7,6.59
13.495048999786377,-4.55,-0.41,-3.11,5.52
13.495309114456177,-3.03,0.51,-2.11,3.72
13.495569944381714,-1.39,0.99,-1.04,1.99
13.495828866958618,-0.53,0.79,-0.06,0.95
13.501384973526001,-0.64,0.32,0.41,0.82
13.511905908584595,-1.21,0.14,0.43,1.29
13.52138900756836,-1.01,0.13,0.21,1.03
13.531331062316895,-0.22,0.13,-0.27,0.37
13.541998147964478,0.37,0.02,-0.79,0.87
13.595810174942017,0.44,-0.23,-1.12,1.22
13.59608006477356,0.09,-0.41,-1.02,1.1
13.596350908279419,-0.4,-0.42,-0.67,0.88
13.596615076065063,-0.74,-0.3,-0.43,0.9
13.596874952316284,-0.92,-0.16,-0.25,0.96
13.601229906082153,-0.82,0.01,0.05,0.82
13.61168885231018,-0.49,0.19,0.41,0.66
13.62123990058899,0.05,0.3,0.54,0.61
13.631350994110107,0.7,0.37,0.59,0.98
13.641829013824463,1.22,0.38,0.59,1.4
13.69555401802063,1.45,0.3,0.42,1.53
13.695818185806274,1.43,0.18,0.35,1.48
13.696077108383179,1.25,-0.04,0.45,1.32
13.696362972259521,1.31,-0.26,0.66,1.48
13.696619033813477,1.7,-0.41,0.9,1.96
13.70116400718689,2.05,-0.5,1.08,2.37
13.711441040039062,2.43,-0.51,1.07,2.7
13.72111701965332,2.5,-0.32,0.87,2.66
13.731198072433472,2.16,-0.23,0.6,2.25
13.741718053817749,1.81,-0.22,0.78,1.98
13.796088933944702,1.64,-0.22,0.88,1.87
13.79635214805603,1.61,-0.15,0.96,1.88
13.796612977981567,1.77,0.03,0.8,1.94
13.796870946884155,1.88,0.16,0.93,2.1
13.7971351146698,2.04,0.25,1.39,2.48
13.800927877426147,2.28,0.3,1.54,2.76
13.811577081680298,2.48,0.52,1.38,2.88
13.820922136306763,2.71,0.91,0.94,3.0
13.830934047698975,2.61,1.28,0.47,2.94
13.841621160507202,2.38,1.75,0.42,2.98
13.896404027938843,2.05,2.2,0.49,3.04
13.896669149398804,2.1,2.68,0.68,3.47
13.89693284034729,2.18,3.67,1.64,4.57
13.897192001342773,2.4,4.31,2.92,5.73
13.897451162338257,3.42,4.73,2.57,6.37
13.900774002075195,4.67,5.9,3.04,8.11
13.911484003067017,5.38,6.44,4.02,9.3
13.920779943466187,5.69,6.92,3.54,9.63
13.930853128433228,5.72,8.09,3.78,10.6
13.941466093063354,5.79,9.45,5.25,12.26
13.998095035552979,6.03,10.36,5.62,13.23
13.998363018035889,5.89,10.18,5.1,12.81
13.998623132705688,5.81,9.67,4.01,11.97
13.998878955841064,4.89,9.43,2.6,10.93
13.999139070510864,3.77,9.09,1.14,9.9
14.000633955001831,3.61,7.98,-0.72,8.78
14.011389017105103,2.66,7.27,-1.64,7.91
14.020629167556763,1.03,8.04,-1.54,8.25
14.030670881271362,0.13,8.98,-1.98,9.19
14.041248083114624,0.15,7.57,-2.95,8.12
14.09787106513977,0.81,3.9,-0.53,4.01
14.09813404083252,-0.51,0.42,1.68,1.8
14.098399877548218,-2.0,-1.82,-0.14,2.7
14.098661184310913,-1.63,-1.25,-0.35,2.08
14.098923921585083,0.85,0.87,0.77,1.43
14.10062289237976,3.95,1.79,1.78,4.68
14.11133098602295,5.19,0.32,3.02,6.01
14.120434045791626,4.96,-1.9,3.71,6.47
14.130575895309448,4.14,-3.07,3.21,6.07
14.141217947006226,3.07,-3.22,2.4,5.05
14.198662996292114,2.11,-3.15,1.92,4.24
14.19894814491272,1.11,-3.22,1.64,3.78
14.199213981628418,0.29,-3.39,1.72,3.81
14.199480056762695,-0.29,-3.6,2.14,4.19
14.199761152267456,-0.75,-3.95,2.39,4.67
14.200387954711914,-1.04,-4.35,2.28,5.02
14.211173057556152,-0.81,-4.78,2.13,5.29
14.220360040664673,-0.43,-5.16,2.04,5.56
14.230364084243774,-0.44,-5.46,1.9,5.79
14.24099612236023,-0.76,-5.68,1.63,5.95
14.29892611503601,-1.16,-5.77,1.09,5.98
14.299192190170288,-1.69,-5.82,0.8,6.11
14.299454927444458,-2.37,-5.66,0.81,6.18
14.299741983413696,-2.87,-5.05,0.74,5.85
14.300179958343506,-3.13,-4.19,0.27,5.23
14.300436973571777,-3.51,-3.25,-0.49,4.8
14.31107497215271,-4.09,-2.34,-1.92,5.08
14.320185899734497,-5.02,-0.99,-3.03,5.94
14.330304861068726,-5.87,0.95,-3.25,6.77
14.340927839279175,-6.17,3.37,-3.11,7.68
14.399754047393799,-6.63,5.2,-3.95,9.3
14.400022983551025,-7.23,5.21,-5.25,10.34
14.40028691291809,-7.65,4.33,-6.45,10.9
14.400544881820679,-7.95,3.37,-6.86,11.02
14.400804042816162,-7.55,2.2,-5.47,9.57
14.401059865951538,-6.69,0.21,-3.07,7.36
14.410948038101196,-5.46,-2.76,-1.86,6.39
14.42008090019226,-4.38,-4.91,-1.07,6.66
14.430098056793213,-3.63,-2.91,-1.38,4.85
14.440737962722778,-1.95,-0.31,-2.21,2.96
14.50020718574524,-1.28,-0.05,-2.75,3.03
14.500481843948364,-1.08,0.24,-3.25,3.43
14.500745058059692,1.55,4.75,-0.21,5.0
14.501002073287964,4.78,9.42,5.84,12.07
14.501263856887817,4.7,5.24,5.93,9.2
14.501526117324829,3.25,2.53,2.47,4.8
14.510408163070679,-0.08,3.18,-1.08,3.35
14.519943952560425,-4.73,2.42,-3.34,6.27
14.529891967773438,-7.34,-0.2,-4.39,8.55
14.540661096572876,-7.21,-1.65,-4.47,8.64
14.600944995880127,-4.64,-0.15,-5.4,7.12
14.601225137710571,-4.08,1.79,-6.46,7.84
14.601485967636108,-4.84,2.27,-6.6,8.49
14.60174298286438,-4.75,0.25,-4.12,6.29
14.6020028591156,-4.73,-1.43,-3.72,6.18
14.602267980575562,-4.81,-0.99,-3.77,6.19
14.610270023345947,-3.72,0.44,-2.57,4.54
14.619829893112183,-2.01,1.25,-1.35,2.72
14.629854917526245,-0.55,1.03,-0.39,1.23
14.64051604270935,0.38,0.22,0.56,0.71
14.701331853866577,0.26,-0.18,0.93,0.98
14.701597929000854,-0.26,-0.05,0.49,0.55
14.701856851577759,-0.48,0.0,-0.3,0.56
14.702112913131714,-0.4,0.15,-1.02,1.1
14.70237398147583,-0.07,0.32,-1.51,1.54
14.702630043029785,0.16,0.26,-1.64,1.66
14.710192918777466,0.33,-0.06,-1.45,1.48
14.719696044921875,0.38,-0.45,-0.67,0.89
14.72956109046936,0.48,-0.57,0.24,0.78
14.740164995193481,0.71,-0.29,0.97,1.23
14.801347017288208,1.15,0.12,1.38,1.8
14.801607847213745,1.35,0.27,1.35,1.92
14.80187201499939,1.14,0.2,1.03,1.54
14.802150964736938,1.01,0.11,0.79,1.28
14.802408933639526,1.07,0.1,0.62,1.24
14.80266785621643,1.13,0.14,0.46,1.22
14.809984922409058,1.34,0.18,0.56,1.46
14.819489002227783,1.75,0.22,1.01,2.03
14.829475164413452,2.02,0.14,1.46,2.49
14.840131998062134,2.08,-0.05,1.44,2.53
14.902425050735474,1.87,-0.33,1.15,2.21
14.902688980102539,1.21,-0.41,0.79,1.5
14.902952909469604,0.52,-0.15,0.43,0.69
14.903213024139404,0.06,0.18,0.1,0.21
14.903466939926147,0.12,0.32,0.27,0.43
14.903723955154419,0.8,0.21,0.75,1.11
14.909832000732422,1.8,-0.04,1.2,2.16
14.919347047805786,2.74,-0.22,2.15,3.48
14.92933702468872,3.48,0.05,2.21,4.12
14.93992304801941,3.22,0.7,1.53,3.63
15.002285957336426,2.02,1.29,1.18,2.67
15.00256085395813,1.37,2.01,0.72,2.53
15.002817869186401,1.19,2.8,1.04,3.21
15.003077030181885,1.24,3.13,1.8,3.81
15.003314971923828,2.22,3.2,1.8,4.29
15.003571033477783,3.04,3.42,2.02,5.0
15.00970196723938,3.43,3.46,2.39,5.42
15.019234895706177,3.93,3.52,2.68,5.91
15.0292489528656,4.24,3.51,2.87,6.2
15.039767980575562,4.43,3.81,2.97,6.55
15.102522134780884,4.93,4.61,3.7,7.69
15.102782011032104,5.73,6.0,4.45,9.41
15.103039026260376,6.67,7.78,4.58,11.22
15.103296041488647,7.25,9.14,5.29,12.8
15.103554010391235,7.32,10.15,5.24,13.56
15.103811025619507,6.72,10.89,5.72,14.01
15.109631061553955,5.1,11.42,5.75,13.76
15.11916184425354,4.09,10.74,3.08,11.89
15.129082918167114,4.73,8.75,-0.67,9.96
15.139669179916382,4.57,7.87,-2.02,9.32
15.203413009643555,2.87,9.74,-1.78,10.3
15.20368218421936,1.75,11.81,-1.61,12.04
15.203942060470581,2.09,10.89,-1.99,11.26
15.204200029373169,2.84,6.67,-1.85,7.48
15.204456090927124,1.26,2.32,0.01,2.64
15.204713106155396,-2.51,-0.58,-1.58,3.02
15.209378004074097,-4.2,-1.4,-4.0,5.96
15.218903064727783,-2.59,0.01,-2.66,3.71
15.228906869888306,0.9,1.53,-1.12,2.09
15.239504098892212,3.2,1.35,-0.21,3.47
15.304213047027588,3.67,-1.0,1.07,3.95
15.304478883743286,3.56,-3.66,2.11,5.52
15.304738998413086,3.59,-4.81,2.2,6.39
15.304996013641357,3.62,-4.31,1.85,5.92
15.305253028869629,3.13,-3.31,1.14,4.69
15.305510997772217,2.16,-3.01,0.54,3.74
15.309370040893555,0.97,-3.59,0.79,3.8
15.31874394416809,0.35,-4.25,1.27,4.44
15.328678846359253,0.21,-4.63,1.25,4.8
15.33938193321228,0.25,-4.84,0.86,4.92
15.404217958450317,0.38,-4.94,0.72,5.0
15.404473066329956,0.39,-4.97,0.47,5.0
15.40473484992981,0.31,-5.22,0.36,5.24
15.404993057250977,0.23,-5.49,0.22,5.49
15.405251026153564,0.2,-5.56,0.02,5.56
15.405508041381836,-0.25,-5.25,0.32,5.26
15.409111022949219,-1.16,-4.41,0.09,4.56
15.418584108352661,-2.12,-3.86,-0.82,4.47
15.42855715751648,-3.28,-3.84,-1.43,5.24
15.439275026321411,-5.12,-3.75,-3.17,7.09
15.504112005233765,-7.02,-3.05,-5.09,9.19
15.504384994506836,-7.98,-1.92,-3.97,9.11
15.504652976989746,-8.13,-0.35,-2.69,8.57
15.504920959472656,-7.91,1.14,-3.42,8.69
15.505204916000366,-7.49,2.21,-4.64,9.08
15.505470991134644,-6.83,3.17,-5.49,9.31
15.50896406173706,-6.68,4.29,-5.6,9.71
15.51851487159729,-6.89,4.82,-5.05,9.8
15.528629064559937,-6.82,3.64,-4.78,9.08
15.539085149765015,-6.59,0.52,-3.84,7.64
15.605034112930298,-5.73,-3.0,-1.61,6.66
15.605294942855835,-4.87,-4.64,-0.18,6.72
15.605552911758423,-4.65,-3.63,-0.77,5.94
15.605813980102539,-3.94,0.1,-2.67,4.76
15.606070041656494,-1.99,1.16,-3.0,3.78
15.606327056884766,-2.19,0.44,-3.31,3.99
15.60877013206482,0.64,4.85,0.09,4.89
15.618344068527222,4.59,8.93,6.43,11.92
15.628666162490845,3.88,5.8,6.2,9.33
15.638947010040283,2.09,2.78,2.52,4.29
15.704977035522461,-0.06,2.57,-1.01,2.76
15.705238103866577,-2.85,3.26,-2.79,5.15
15.705497980117798,-5.13,1.87,-3.14,6.29
15.705755949020386,-5.92,-0.37,-1.93,6.23
15.706012964248657,-5.0,-1.17,-2.58,5.74
15.706269025802612,-3.07,-0.09,-4.56,5.49
15.708647012710571,-3.55,1.07,-6.21,7.23
15.718228101730347,-4.71,1.06,-5.5,7.31
15.728096008300781,-4.68,-0.24,-3.89,6.09
15.739443063735962,-5.2,-1.34,-3.9,6.63
15.805786848068237,-4.97,-0.94,-3.74,6.29
15.806050062179565,-2.75,0.43,-1.92,3.38
15.80630898475647,-0.39,1.14,-0.43,1.27
15.806566953659058,0.46,0.83,0.07,0.95
15.806823968887329,-0.05,0.28,0.37,0.46
15.807080030441284,-1.28,-0.13,0.1,1.29
15.808450937271118,-2.52,-0.26,-0.25,2.54
15.818122148513794,-2.43,0.14,-0.78,2.55
15.82802414894104,-1.54,0.56,-1.56,2.26
15.838652849197388,-0.41,0.66,-2.13,2.26
15.906450986862183,0.51,0.14,-2.19,2.25
15.906716108322144,0.81,-0.7,-1.57,1.9
15.906974077224731,0.83,-0.96,-0.42,1.33
15.907262086868286,0.69,-0.31,0.4,0.85
15.907559156417847,0.51,0.42,0.94,1.14
15.907955884933472,0.07,0.42,1.06,1.14
15.908728837966919,-0.26,0.16,0.75,0.8
15.917914152145386,-0.04,0.0,0.64,0.64
15.927947044372559,0.57,0.03,0.49,0.75
15.93853497505188,1.23,0.17,0.53,1.35
16.006772994995117,1.83,0.23,0.95,2.07
16.00705099105835,2.34,0.19,1.26,2.66
16.007344961166382,2.52,0.02,1.48,2.92
16.00777006149292,2.27,-0.19,1.51,2.73
16.008025884628296,1.79,-0.32,1.22,2.18
16.008285999298096,1.19,-0.37,0.89,1.53
16.00907301902771,0.7,-0.41,0.42,0.91
16.01776099205017,0.34,-0.24,-0.02,0.41
16.027740955352783,0.07,-0.05,-0.21,0.22
16.038411855697632,0.11,0.19,-0.16,0.27
16.106372117996216,0.58,0.41,0.08,0.71
16.106631994247437,0.98,0.52,0.36,1.16
16.106908082962036,1.37,0.58,1.02,1.8
16.107189893722534,1.89,0.73,1.43,2.47
16.107607126235962,2.23,0.82,2.29,3.29
16.107863187789917,2.53,0.91,2.38,3.59
16.108664989471436,2.8,1.33,1.65,3.51
16.11758303642273,2.52,1.94,1.28,3.42
16.127729177474976,2.19,2.59,1.54,3.72
16.138247966766357,2.38,2.94,2.03,4.29
16.2070529460907,2.88,2.86,2.01,4.52
16.207471132278442,3.17,2.86,2.22,4.81
16.20772910118103,3.43,2.85,2.55,5.13
16.207988023757935,3.87,3.06,2.46,5.51
16.208257913589478,4.32,3.52,2.39,6.06
16.20849585533142,4.73,4.38,2.39,6.87
16.209256887435913,5.16,5.27,3.01,7.96
16.2175350189209,5.07,5.84,4.3,8.84
16.227493047714233,5.5,7.06,5.02,10.26
16.23815417289734,6.78,9.22,5.18,12.56
16.307635068893433,7.43,10.52,5.18,13.88
16.307932138442993,6.76,10.51,5.46,13.63
16.308193922042847,5.27,10.11,4.43,12.23
16.30845284461975,4.98,9.21,1.98,10.65
16.308712005615234,5.39,7.72,-0.39,9.42
16.30896806716919,4.44,7.29,-1.89,8.74
16.309765100479126,2.31,8.88,-2.25,9.44
16.317417860031128,0.7,10.44,-2.13,10.67
16.32754683494568,0.17,9.77,-2.8,10.16
16.33794903755188,0.62,6.03,-2.45,6.53
16.408488988876343,-0.36,1.81,0.32,1.87
16.408754110336304,-2.87,-1.27,-0.21,3.14
16.409013986587524,-3.31,-2.13,-2.07,4.44
16.409271001815796,-1.76,-0.43,-0.76,1.96
16.409530878067017,1.28,1.51,0.4,2.01
16.409785985946655,3.56,1.49,1.38,4.09
16.41054606437683,4.11,-0.59,2.53,4.86
16.41720700263977,3.97,-2.72,2.97,5.65
16.427175045013428,3.6,-3.63,2.64,5.75
16.437777996063232,3.18,-3.45,2.09,5.13
16.50926399230957,2.69,-3.0,1.47,4.28
16.509534120559692,1.84,-2.96,1.14,3.66
16.50979208946228,0.65,-3.27,1.3,3.57
16.5100519657135,-0.15,-3.54,1.45,3.82
16.51031517982483,-0.28,-3.69,1.5,3.99
16.51057004928589,0.13,-3.74,1.42,4.0
16.511377096176147,0.6,-3.95,1.56,4.28
16.51699185371399,0.75,-4.19,1.36,4.46
16.527014017105103,0.7,-4.41,0.97,4.56
16.537569999694824,0.49,-4.51,0.43,4.55
16.6095609664917,0.07,-4.51,0.13,4.51
16.60982394218445,-0.64,-4.31,0.11,4.35
16.6100971698761,-1.42,-4.13,-0.37,4.38
16.610355138778687,-1.94,-3.99,-1.15,4.58
16.610612154006958,-3.02,-3.84,-1.9,5.24
16.610867977142334,-4.33,-3.58,-2.74,6.25
16.611613988876343,-5.53,-2.68,-3.26,6.95
16.616851091384888,-6.12,-1.03,-3.33,7.04
16.626873016357422,-5.93,1.12,-3.44,6.94
16.63735795021057,-5.59,3.53,-4.41,7.94
16.710170030593872,-5.69,5.29,-5.64,9.6
16.710432052612305,-6.64,5.14,-6.26,10.47
16.710690021514893,-8.0,3.27,-6.51,10.82
16.71094799041748,-8.64,1.13,-6.29,10.74
16.711204051971436,-8.43,-0.27,-5.74,10.2
16.71145987510681,-7.26,-1.76,-5.19,9.09
16.71243906021118,-5.19,-3.26,-3.74,7.17
16.71664595603943,-3.53,-2.31,-2.85,5.09
16.726929903030396,-2.05,-0.62,-2.74,3.47
16.73710799217224,-2.17,-1.23,-2.37,3.44
16.810718059539795,-2.64,-0.83,-1.85,3.32
16.81098484992981,-1.6,1.1,-0.69,2.06
16.81126618385315,0.7,6.87,3.72,7.84
16.811525106430054,3.71,10.03,8.34,13.56
16.81178116798401,3.75,4.94,5.52,8.3
16.812036991119385,-0.49,1.42,1.19,1.91
16.81297516822815,-4.94,0.9,-1.78,5.32
16.816529035568237,-6.66,-0.26,-3.03,7.32
16.82638907432556,-5.81,-0.42,-5.51,8.01
16.837085962295532,-3.93,0.59,-7.94,8.87
16.911169052124023,-4.67,1.66,-9.36,10.59
16.91143012046814,-5.17,1.36,-6.88,8.71
16.911688089370728,-4.23,-0.49,-4.05,5.87
16.911945104599,-4.41,-1.54,-4.12,6.22
16.912206888198853,-4.59,-0.6,-3.76,5.96
16.912657976150513,-3.75,0.79,-2.52,4.58
16.913438081741333,-2.51,1.42,-1.36,3.18
16.916324853897095,-1.31,1.16,-0.19,1.76
16.926288843154907,-0.49,0.43,1.23,1.39
16.93684697151184,-0.35,0.11,1.48,1.52
17.012140035629272,-0.23,0.09,0.8,0.83
17.012403964996338,0.32,0.11,0.19,0.38
17.013013124465942,0.64,0.22,-0.57,0.88
17.013273000717163,1.04,0.58,-1.87,2.21
17.01354193687439,1.36,0.26,-2.74,3.06
17.01382303237915,1.07,-0.99,-2.32,2.73
17.014580011367798,0.26,-1.45,-1.37,2.01
17.01631188392639,-0.81,-0.53,-0.54,1.1
17.026302099227905,-1.47,0.44,0.33,1.56
17.0368869304657,-1.63,0.65,1.04,2.03
17.111828088760376,-1.21,0.46,0.98,1.62
17.11210298538208,-0.45,0.31,0.64,0.84
17.11236596107483,0.41,0.3,0.33,0.6
17.112973928451538,1.23,0.32,0.21,1.28
17.11323094367981,1.8,0.34,0.38,1.87
17.11348795890808,2.31,0.29,0.64,2.41
17.114259958267212,2.77,0.11,1.44,3.12
17.116132974624634,3.17,-0.06,2.04,3.77
17.126204013824463,3.33,-0.3,2.07,3.93
17.13678288459778,3.27,-0.58,2.01,3.88
17.21242904663086,2.88,-0.57,1.7,3.39
17.213030099868774,2.24,-0.26,1.09,2.5
17.213291883468628,1.57,0.1,0.61,1.68
17.213551998138428,1.13,0.33,0.46,1.26
17.21383500099182,1.21,0.36,0.49,1.35
17.21409010887146,1.61,0.19,0.86,1.83
17.214876890182495,2.02,0.0,1.14,2.31
17.216021060943604,2.41,-0.06,1.53,2.85
17.225988149642944,2.65,-0.03,2.06,3.35
17.236557960510254,2.83,0.28,1.89,3.41
17.24603295326233,2.69,0.87,1.44,3.17
17.312429189682007,2.26,1.61,1.09,2.98
17.31301712989807,2.04,2.44,0.84,3.28
17.313288927078247,1.73,3.05,1.43,3.78
17.31354784965515,1.52,3.23,2.03,4.1
17.313831090927124,2.03,3.21,2.11,4.34
17.314579963684082,2.57,3.17,2.36,4.71
17.315863847732544,3.2,3.18,2.54,5.17
17.32599902153015,3.97,3.52,2.35,5.8
17.336447954177856,4.83,4.54,2.17,6.97
17.345968008041382,5.44,5.69,2.98,8.41
17.412884950637817,5.09,6.4,4.09,9.14
17.413142919540405,5.36,7.74,4.9,10.61
17.41340398788452,6.11,9.72,5.17,12.59
17.41369104385376,6.43,10.67,5.34,13.55
17.413946866989136,5.76,10.52,5.94,13.38
17.41470503807068,4.44,9.89,4.7,11.81
17.415758848190308,4.6,8.86,2.05,10.19
17.425740957260132,5.5,7.58,0.06,9.36
17.43630290031433,4.41,7.32,-1.35,8.65
17.445801973342896,1.74,8.52,-2.02,8.92
17.513209104537964,-0.22,9.7,-2.14,9.93
17.51347517967224,-0.39,8.7,-1.99,8.93
17.513761043548584,0.53,4.91,-0.87,5.01
17.5140221118927,-0.27,1.06,1.24,1.65
17.514280080795288,-2.31,-1.85,-0.71,3.04
17.515097856521606,-2.21,-2.53,-2.43,4.14
17.515536069869995,-0.33,-0.48,-1.38,1.49
17.5256769657135,3.09,1.64,-0.66,3.55
17.53610396385193,5.38,1.52,0.38,5.6
17.54559588432312,5.51,-0.79,2.02,5.92
17.61429500579834,4.82,-2.83,2.64,6.18
17.614557027816772,4.24,-3.32,2.08,5.77
17.614845991134644,3.61,-2.82,1.75,4.9
17.615305185317993,2.65,-2.29,1.26,3.72
17.615565061569214,1.37,-2.31,0.66,2.76
17.616338968276978,0.37,-2.71,0.77,2.84
17.616596937179565,-0.17,-3.08,1.17,3.29
17.62538504600525,-0.38,-3.33,1.11,3.53
17.635978937149048,-0.35,-3.53,0.77,3.62
17.64535403251648,-0.11,-3.71,0.45,3.73
17.71421217918396,0.17,-4.03,0.38,4.05
17.71448016166687,0.05,-4.55,0.41,4.56
17.71475911140442,-0.34,-5.0,0.16,5.01
17.715203046798706,-0.88,-5.27,-0.17,5.34
17.715463876724243,-1.8,-5.37,-0.26,5.66
17.716227054595947,-2.67,-5.23,-0.48,5.89
17.716488122940063,-3.27,-5.15,-0.69,6.13
17.725362062454224,-4.27,-4.95,-1.09,6.62
17.7357919216156,-5.47,-4.83,-2.1,7.59
17.745248079299927,-6.52,-4.66,-2.56,8.41
17.815021991729736,-7.87,-4.03,-2.57,9.2
17.815288066864014,-8.27,-2.49,-2.69,9.04
17.815553903579712,-7.16,-0.18,-2.79,7.68
17.815814971923828,-5.88,2.63,-3.23,7.2
17.816071033477783,-5.31,4.74,-4.04,8.18
17.816849946975708,-5.57,5.03,-5.26,9.16
17.817111015319824,-6.5,4.07,-5.77,9.59
17.825222969055176,-7.5,2.7,-5.51,9.69
17.835684061050415,-7.51,1.35,-4.5,8.85
17.845080137252808,-6.94,-0.43,-3.0,7.57
17.915592908859253,-5.56,-2.71,-1.34,6.32
17.91585898399353,-4.17,-2.23,-1.31,4.9
17.916121006011963,-2.55,-0.79,-2.17,3.44
17.916388988494873,-3.69,-1.2,-2.64,4.69
17.91665005683899,-3.3,-0.27,-3.01,4.47
17.91740584373474,0.73,6.98,2.25,7.36
17.917665004730225,4.71,11.59,8.12,14.91
17.924988985061646,3.79,6.02,6.42,9.58
17.935538053512573,1.93,1.44,2.06,3.16
17.94494318962097,-0.48,0.47,-0.64,0.92
18.016927003860474,-3.08,0.03,-1.76,3.54
18.017194986343384,-4.68,-0.64,-2.12,5.17
18.01745915412903,-5.24,-1.18,-1.84,5.67
18.017714977264404,-4.18,-0.57,-3.48,5.46
18.017975091934204,-2.17,0.82,-4.66,5.2
18.01874613761902,-2.67,1.53,-6.07,6.8
18.01900601387024,-3.73,0.79,-5.03,6.31
18.02487802505493,-3.8,-0.42,-3.43,5.13
18.0354220867157,-4.13,-0.9,-2.92,5.13
18.04486584663391,-3.72,-0.13,-1.86,4.16
18.117364168167114,-2.47,1.0,-0.64,2.74
18.117630004882812,-1.31,1.2,0.06,1.77
18.117893934249878,-0.55,0.55,0.33,0.84
18.118152856826782,-0.57,-0.14,-0.1,0.59
18.118409872055054,-1.09,-0.29,-0.77,1.36
18.119184017181396,-1.11,-0.07,-1.34,1.74
18.119445085525513,-1.02,0.31,-1.87,2.15
18.12466311454773,-0.8,0.57,-2.04,2.26
18.135259866714478,-0.52,0.33,-2.08,2.16
18.144706964492798,-0.75,-0.26,-1.86,2.02
18.21778893470764,-1.32,-0.54,-1.06,1.77
18.218054056167603,-1.71,-0.23,-0.26,1.74
18.218315839767456,-1.62,0.28,0.47,1.7
18.21857714653015,-1.12,0.5,0.95,1.55
18.218837022781372,-0.34,0.43,1.1,1.22
18.21959090232849,0.6,0.29,0.86,1.08
18.219847917556763,1.55,0.22,0.45,1.62
18.22451400756836,2.14,0.18,0.35,2.17
18.235116004943848,2.2,0.08,0.68,2.3
18.24458909034729,2.05,-0.17,1.12,2.34
18.318287134170532,2.05,-0.42,1.58,2.62
18.31855297088623,2.21,-0.46,1.84,2.91
18.318814039230347,2.28,-0.42,1.76,2.91
18.319072008132935,2.16,-0.43,1.44,2.63
18.31932806968689,2.02,-0.42,1.02,2.3
18.320093870162964,2.1,-0.28,0.6,2.2
18.320356130599976,2.21,0.1,0.35,2.23
18.32439398765564,1.67,0.5,0.13,1.74
18.334969997406006,0.91,0.76,0.5,1.28
18.344473123550415,0.69,0.56,1.23,1.51
18.418309926986694,1.28,0.23,1.82,2.23
18.418585062026978,2.26,0.18,1.69,2.82
18.418845891952515,2.82,0.48,1.26,3.12
18.419103860855103,2.67,0.93,1.01,3.0
18.41936206817627,2.05,1.23,0.98,2.58
18.420120000839233,1.77,1.45,1.01,2.5
18.420378923416138,2.07,1.95,1.28,3.11
18.42424511909485,2.68,2.74,1.69,4.18
18.436267137527466,2.88,3.2,2.17,4.82
18.4441921710968,3.27,3.5,2.07,5.21
18.51866102218628,3.45,3.66,2.35,5.55
18.518929958343506,3.51,3.44,2.86,5.68
18.51919198036194,3.72,3.58,2.75,5.84
18.519448041915894,4.24,4.55,2.76,6.8
18.519706964492798,4.65,5.64,3.76,8.22
18.52050518989563,4.85,6.58,4.91,9.53
18.520763158798218,5.77,8.11,5.76,11.49
18.52410387992859,6.96,9.6,6.09,13.33
18.534720182418823,7.83,10.34,6.43,14.47
18.544111013412476,7.36,10.31,6.56,14.26
18.61940598487854,6.15,10.31,5.74,13.3
18.619668006896973,5.36,9.63,3.02,11.42
18.619927167892456,4.58,7.67,-0.35,8.94
18.620184183120728,2.6,6.26,-2.34,7.17
18.620439052581787,0.08,7.18,-1.9,7.42
18.62119197845459,-1.79,9.1,-0.94,9.32
18.621450185775757,-1.51,9.41,-2.22,9.78
18.624083042144775,0.27,6.0,-1.92,6.3
18.63441014289856,-0.1,1.41,0.93,1.69
18.643863916397095,-2.29,-1.66,-0.05,2.82
18.720246076583862,-2.84,-2.33,-2.45,4.41
18.720515966415405,-1.34,-0.46,-1.6,2.13
18.720783948898315,1.98,1.45,-0.16,2.45
18.721044063568115,4.34,1.44,0.7,4.62
18.721304178237915,4.46,-0.51,1.96,4.89
18.722060918807983,4.07,-2.42,2.86,5.53
18.72231698036194,3.67,-3.3,3.19,5.87
18.7238450050354,3.0,-3.29,2.93,5.33
18.73439383506775,2.27,-3.12,2.37,4.52
18.743816137313843,1.34,-3.18,1.99,3.98
18.821238040924072,0.53,-3.35,1.98,3.92
18.82148504257202,-0.06,-3.43,1.98,3.96
18.82174301147461,-0.33,-3.57,1.84,4.02
18.82200312614441,-0.31,-3.75,1.61,4.09
18.82226300239563,-0.1,-4.02,1.44,4.27
18.823029041290283,0.04,-4.36,1.49,4.6
18.82330298423767,-0.14,-4.72,1.37,4.91
18.82372784614563,-0.31,-4.99,0.97,5.09
18.83422589302063,-0.59,-5.05,0.95,5.17
18.84367799758911,-1.03,-4.66,1.27,4.93
18.921462059020996,-1.43,-3.83,0.7,4.14
18.921733140945435,-2.05,-3.06,0.07,3.68
18.921994924545288,-2.94,-2.7,-1.0,4.11
18.922253847122192,-4.05,-2.21,-3.14,5.58
18.922518014907837,-5.64,-1.14,-4.5,7.3
18.923482179641724,-7.18,0.54,-3.89,8.18
18.92374587059021,-7.37,2.67,-3.1,8.42
18.92400598526001,-6.89,4.29,-3.62,8.88
18.934033155441284,-6.42,4.73,-5.01,9.41
18.943567037582397,-5.96,4.78,-6.58,10.08
19.023205041885376,-6.6,4.61,-7.39,10.92
19.02347683906555,-7.26,3.44,-7.16,10.76
19.023738145828247,-7.42,0.71,-5.51,9.26
19.023993968963623,-7.35,-2.53,-4.26,8.86
19.024250984191895,-6.71,-5.2,-3.78,9.29
19.025007009506226,-5.96,-6.36,-3.31,9.32
19.025264978408813,-5.69,-4.63,-3.6,8.17
19.025523900985718,-3.74,-0.05,-4.41,5.78
19.033908128738403,-1.07,1.93,-3.54,4.17
19.043487071990967,0.45,3.32,-1.88,3.84
19.12311601638794,2.19,6.26,2.15,6.97
19.123383045196533,4.63,4.58,6.17,8.97
19.123640060424805,4.6,1.45,6.43,8.03
19.123902082443237,4.7,3.18,2.95,6.39
19.12416100502014,1.24,6.27,-1.93,6.67
19.1249520778656,-4.38,5.35,-4.65,8.33
19.125212907791138,-6.88,0.39,-4.57,8.26
19.125468015670776,-6.5,-1.53,-4.34,7.96
19.13378405570984,-5.89,-1.4,-5.43,8.13
19.143265962600708,-5.96,-0.51,-6.58,8.89
19.223165035247803,-4.74,-0.2,-5.49,7.25
19.22343397140503,-3.79,-0.5,-4.88,6.19
19.22369885444641,-4.01,-0.41,-4.76,6.23
19.223955869674683,-3.78,0.14,-3.79,5.35
19.224215030670166,-2.62,0.68,-2.38,3.6
19.224987030029297,-1.3,0.88,-0.97,1.84
19.225248098373413,-0.11,0.79,0.22,0.82
19.225507020950317,0.51,0.56,0.74,1.05
19.233556985855103,0.52,0.26,0.55,0.8
19.243080854415894,0.03,0.1,-0.04,0.11
19.323928117752075,-0.65,0.05,-0.61,0.89
19.32418990135193,-1.11,-0.01,-0.79,1.36
19.32445216178894,-1.37,0.03,-0.94,1.66
19.32471489906311,-1.41,0.04,-1.1,1.78
19.32498002052307,-1.35,-0.1,-1.03,1.7
19.325755834579468,-1.07,-0.22,-0.82,1.36
19.32599902153015,-0.62,-0.22,-0.37,0.75
19.32625699043274,-0.03,-0.21,0.32,0.38
19.333411931991577,0.67,-0.1,0.73,0.99
19.34297013282776,1.32,0.05,0.83,1.56
19.423909902572632,1.69,0.18,0.59,1.79
19.424163103103638,1.69,0.33,0.18,1.73
19.42442011833191,1.31,0.39,-0.1,1.37
19.424676179885864,0.84,0.36,-0.07,0.91
19.42493200302124,0.69,0.29,0.33,0.81
19.425729990005493,1.0,0.19,0.9,1.35
19.425988912582397,1.61,0.05,1.47,2.18
19.4262478351593,2.26,-0.17,1.69,2.82
19.43345284461975,2.59,-0.5,1.59,3.07
19.442858934402466,2.87,-0.69,1.7,3.4
19.523998975753784,2.97,-0.6,1.36,3.32
19.524270057678223,2.46,-0.27,0.98,2.66
19.52453112602234,1.89,0.16,0.69,2.01
19.524790048599243,1.82,0.42,0.74,2.0
19.525045156478882,2.11,0.27,1.09,2.39
19.525846004486084,2.43,0.02,1.46,2.83
19.52609395980835,2.8,0.02,0.98,2.96
19.5263569355011,2.55,0.26,0.71,2.65
19.53314709663391,1.76,0.79,0.56,2.0
19.542675018310547,1.14,1.22,0.48,1.73
19.62408185005188,1.0,1.46,0.4,1.81
19.624343156814575,1.32,1.94,0.43,2.38
19.62459897994995,1.96,2.77,0.61,3.44
19.624861001968384,2.19,3.3,1.51,4.23
19.625115156173706,2.49,3.53,1.86,4.7
19.625885009765625,2.88,3.72,2.0,5.11
19.626147031784058,2.83,3.84,2.26,5.27
19.62640404701233,3.28,4.58,2.14,6.02
19.63309597969055,4.35,5.59,3.05,7.71
19.642543077468872,5.31,6.22,3.72,8.98
19.724558115005493,6.14,6.85,4.11,10.07
19.724817037582397,6.54,7.46,4.8,11.02
19.7250759601593,6.84,8.14,5.55,11.99
19.725334882736206,7.24,8.7,5.53,12.59
19.725594997406006,7.06,9.12,4.57,12.4
19.72634506225586,5.89,9.68,3.93,11.99
19.726603984832764,4.45,9.67,2.38,10.9
19.726881980895996,3.4,8.25,-0.52,8.93
19.73281502723694,1.87,6.63,-2.38,7.28
19.742438077926636,-0.01,6.53,-2.2,6.89
19.825265169143677,-0.56,7.99,-0.73,8.04
19.82553005218506,0.25,8.86,-1.69,9.02
19.82578706741333,1.52,6.34,-2.87,7.12
19.826042890548706,1.35,1.72,-0.48,2.23
19.826299905776978,-1.32,-1.53,0.1,2.02
19.827075004577637,-3.04,-2.6,-2.63,4.78
19.827336072921753,-2.28,-1.23,-1.82,3.16
19.827599048614502,0.58,0.81,-0.21,1.01
19.83258605003357,3.3,1.29,1.08,3.7
19.842203855514526,4.27,-0.52,2.53,4.99
19.92561411857605,4.35,-2.86,3.31,6.16
19.925874948501587,3.95,-3.93,3.09,6.37
19.926132917404175,3.12,-3.88,2.59,5.61
19.926389932632446,2.26,-3.59,2.06,4.71
19.9266459941864,1.46,-3.48,1.81,4.18
19.92742896080017,0.64,-3.59,1.92,4.12
19.927690029144287,-0.11,-3.76,1.93,4.22
19.927945852279663,-0.53,-4.12,1.91,4.57
19.932442903518677,-0.52,-4.54,1.85,4.92
19.942075967788696,-0.34,-4.8,1.67,5.09
20.02587914466858,-0.09,-4.98,1.67,5.25
20.026140928268433,0.1,-5.04,1.31,5.2
20.02639889717102,0.25,-4.94,1.1,5.06
20.026654958724976,-0.09,-4.39,1.26,4.56
20.02691102027893,-0.81,-3.55,0.47,3.67
20.027695894241333,-1.81,-3.05,-0.3,3.55
20.027952909469604,-3.06,-3.02,-1.87,4.68
20.028208017349243,-4.08,-2.81,-3.99,6.36
20.03238296508789,-5.32,-2.17,-4.33,7.19
20.041851043701172,-6.41,-1.14,-2.89,7.12
20.12662696838379,-6.41,0.22,-1.76,6.65
20.12689185142517,-5.74,1.42,-1.13,6.02
20.12715196609497,-5.43,2.29,-1.06,5.98
20.127408981323242,-5.42,3.03,-1.9,6.49
20.127665996551514,-5.21,4.01,-3.05,7.24
20.128443956375122,-4.8,4.93,-3.8,7.86
20.128702878952026,-4.79,4.52,-3.96,7.68
20.128960847854614,-5.07,2.17,-3.21,6.38
20.132318019866943,-5.07,-0.69,-1.73,5.4
20.141802072525024,-5.0,-2.54,-0.43,5.62
20.227463006973267,-5.0,-2.96,0.01,5.81
20.22773289680481,-4.91,-2.44,-0.43,5.49
20.22800087928772,-4.51,-1.62,-1.64,5.06
20.22826099395752,-4.15,-1.32,-2.43,4.98
20.228517055511475,-3.98,-1.03,-2.86,5.0
20.2292959690094,-3.54,1.06,-3.89,5.36
20.229554891586304,-1.25,3.11,-2.77,4.34
20.229809999465942,-0.08,3.2,-0.62,3.26
20.232521057128906,1.93,2.84,1.43,3.71
20.24170994758606,1.74,1.81,3.23,4.09
20.328248977661133,1.14,2.23,3.87,4.6
20.328516006469727,1.55,4.02,3.79,5.73
20.328773021697998,1.52,5.9,1.91,6.38
20.329047918319702,-1.58,6.47,-1.23,6.77
20.32930588722229,-3.95,2.54,-1.82,5.03
20.330098867416382,-3.5,-1.54,0.39,3.84
20.330361127853394,-3.93,-3.1,0.61,5.04
20.33062195777893,-3.64,-1.46,-2.02,4.41
20.41270899772644,-3.64,0.55,-4.16,5.55
20.412984132766724,-4.37,1.31,-5.73,7.32
20.413254976272583,-4.46,0.29,-4.42,6.28
20.413511037826538,-4.74,-1.03,-3.79,6.15
20.41378903388977,-4.91,-0.92,-3.65,6.18
20.414067029953003,-3.92,0.01,-2.38,4.58
20.414335012435913,-2.34,0.71,-0.89,2.6
20.415455102920532,-1.01,0.82,-0.1,1.3
20.415714979171753,-0.39,0.47,0.26,0.66
20.421385049819946,-0.64,0.06,0.34,0.72
20.512696981430054,-1.1,-0.08,0.05,1.1
20.512962102890015,-1.14,0.0,-0.68,1.32
20.513242959976196,-1.05,0.07,-1.3,1.67
20.513488054275513,-1.06,0.07,-1.5,1.83
20.513749837875366,-1.11,0.11,-1.43,1.81
20.514023065567017,-1.16,0.1,-1.16,1.64
20.51428198814392,-1.34,-0.04,-0.96,1.64
20.515382051467896,-1.46,-0.12,-0.6,1.58
20.5156409740448,-1.25,-0.06,0.0,1.25
20.52123498916626,-0.71,0.04,0.32,0.77
20.612054109573364,0.02,0.18,0.44,0.47
20.61233401298523,0.82,0.27,0.35,0.93
20.612629175186157,1.39,0.26,0.2,1.42
20.612932920455933,1.62,0.22,-0.05,1.63
20.613189935684204,1.66,0.26,-0.24,1.69
20.613445043563843,1.64,0.21,0.02,1.65
20.613720178604126,1.55,0.08,0.38,1.59
20.614511966705322,1.5,-0.02,0.83,1.71
20.61477303504944,1.48,-0.08,1.28,1.95
20.62114691734314,1.49,-0.04,1.22,1.92
20.712517976760864,1.55,-0.1,1.24,1.98
20.71278214454651,1.64,-0.24,1.12,2.0
20.71304488182068,1.8,-0.22,0.95,2.04
20.713304042816162,1.75,-0.1,0.83,1.93
20.71356201171875,1.64,0.13,0.7,1.78
20.71381688117981,1.49,0.24,0.65,1.64
20.71407389640808,1.18,0.18,0.84,1.45
20.714842081069946,0.93,0.0,1.1,1.44
20.715428113937378,0.74,-0.17,1.23,1.44
20.72101092338562,0.82,-0.22,1.29,1.54
20.731494188308716,1.29,-0.11,1.4,1.9
20.812214136123657,1.54,0.1,1.01,1.84
20.81248116493225,1.32,0.27,1.05,1.7
20.812738180160522,1.22,0.38,1.17,1.73
20.812997102737427,1.44,0.64,0.93,1.82
20.81327509880066,1.54,1.03,0.81,2.02
20.813533067703247,1.71,1.45,0.76,2.36
20.814311027526855,2.08,1.99,0.54,2.92
20.814568042755127,1.94,2.57,0.92,3.34
20.82083010673523,1.76,2.76,1.2,3.48
20.831426858901978,1.85,2.83,1.34,3.63
20.911972045898438,1.93,2.79,1.73,3.8
20.912233114242554,2.45,3.33,1.62,4.44
20.91248917579651,3.5,4.6,2.1,6.14
20.912770986557007,4.47,5.37,3.1,7.64
20.91302800178528,4.88,5.52,3.75,8.26
20.913289070129395,5.16,6.15,4.97,9.44
20.914078950881958,5.96,7.47,6.48,11.54
20.914337873458862,6.63,8.55,6.61,12.67
20.92066788673401,6.85,9.12,5.78,12.78
20.931262016296387,6.14,9.57,5.22,12.51
21.013460874557495,4.1,9.74,4.98,11.68
21.013803958892822,2.61,9.58,3.06,10.39
21.014121055603027,2.57,8.14,0.28,8.54
21.014392137527466,2.0,6.45,-0.9,6.81
21.014708995819092,0.17,6.77,-0.38,6.78
21.014990091323853,-1.18,8.42,-0.88,8.54
21.0161190032959,-1.42,8.65,-2.75,9.18
21.016380071640015,-0.54,5.62,-2.04,6.0
21.020562887191772,-1.01,0.99,0.97,1.71
21.031069040298462,-3.72,-2.75,1.22,4.78
21.113595008850098,-4.91,-4.16,-1.08,6.52
21.113860845565796,-3.72,-2.5,0.12,4.48
21.11412501335144,-1.13,-0.1,2.02,2.31
21.114383935928345,1.0,0.54,3.4,3.58
21.114647150039673,2.07,-1.03,4.86,5.38
21.114906072616577,2.55,-2.96,5.62,6.84
21.116034030914307,2.45,-3.78,5.27,6.93
21.1163010597229,1.6,-3.79,4.73,6.26
21.120393991470337,0.51,-3.73,4.01,5.5
21.130966901779175,-0.34,-3.69,3.84,5.33
21.213531970977783,-0.78,-3.57,4.28,5.62
21.21379590034485,-1.04,-3.45,4.26,5.57
21.214056968688965,-1.22,-3.72,3.77,5.43
21.214317083358765,-1.28,-4.25,3.22,5.48
21.214575052261353,-1.16,-4.79,2.79,5.66
21.214851140975952,-0.94,-5.13,2.6,5.82
21.215991973876953,-0.69,-5.23,2.35,5.77
21.21625804901123,-0.75,-5.27,2.04,5.7
21.22023606300354,-0.75,-5.34,1.86,5.7
21.230854034423828,-0.62,-5.38,2.31,5.88
21.313174962997437,-0.66,-5.18,2.31,5.71
21.313440084457397,-1.48,-5.01,1.76,5.51
21.313699960708618,-2.85,-4.85,0.37,5.63
21.313982009887695,-4.12,-4.16,-1.12,5.96
21.31424307823181,-5.32,-3.16,-1.31,6.32
21.314502000808716,-6.14,-2.13,-0.99,6.57
21.31528902053833,-6.33,-1.07,-1.32,6.55
21.315919160842896,-6.25,0.14,-2.29,6.65
21.32011103630066,-5.95,1.39,-3.19,6.89
21.330601930618286,-5.76,2.21,-3.88,7.28
21.41347908973694,-5.84,2.1,-3.75,7.25
21.41374397277832,-5.98,1.62,-3.13,6.94
21.41400694847107,-5.81,1.41,-2.75,6.58
21.414265871047974,-5.19,1.25,-2.36,5.83
21.4145290851593,-4.17,0.49,-1.0,4.31
21.41479206085205,-3.58,-0.48,0.31,3.62
21.41594696044922,-1.16,0.18,-0.35,1.22
21.41620898246765,0.12,-1.67,-0.15,1.68
21.4200279712677,-1.79,-3.42,-2.8,4.76
21.430623054504395,0.37,-0.67,-4.89,4.94
21.51334309577942,8.2,10.92,4.09,14.25
21.51362109184265,10.41,19.73,9.96,24.43
21.51390814781189,1.7,11.4,1.84,11.67
21.51417088508606,-2.69,-0.48,0.0,2.73
21.514428853988647,-5.71,-5.53,0.65,7.97
21.51468586921692,-8.9,-5.24,0.02,10.32
21.515453100204468,-10.19,-2.44,-4.14,11.26
21.516059160232544,-8.7,0.53,-5.89,10.51
21.519795179367065,-7.08,2.82,-6.78,10.2
21.530380964279175,-5.07,1.82,-4.82,7.22
21.61340594291687,-3.59,-0.38,-3.56,5.07
21.613704919815063,-2.94,-0.83,-3.38,4.55
21.613986015319824,-1.9,-0.11,-2.31,2.99
21.61424994468689,-0.94,0.93,-1.2,1.78
21.614511013031006,-0.46,1.28,-0.69,1.52
21.614768981933594,-0.09,0.8,-0.3,0.85
21.615962028503418,-0.07,0.16,0.09,0.19
21.616225004196167,-0.32,-0.05,-0.03,0.32
21.61960005760193,-0.74,-0.11,-0.63,0.97
21.630264043807983,-0.85,-0.05,-1.04,1.34
21.714226007461548,-0.8,0.07,-1.26,1.49
21.714502096176147,-0.61,0.16,-1.43,1.56
21.714749097824097,-0.38,0.1,-1.43,1.48
21.715007066726685,-0.28,-0.13,-1.21,1.24
21.71526598930359,-0.32,-0.19,-0.81,0.89
21.715521097183228,-0.13,0.0,-0.36,0.38
21.716735124588013,0.11,0.22,0.03,0.24
21.717007875442505,0.42,0.34,0.32,0.62
21.719498872756958,0.76,0.32,0.39,0.91
21.729973077774048,1.18,0.21,0.48,1.29
21.812944173812866,1.72,0.12,0.46,1.78
21.81321406364441,2.17,0.13,0.62,2.26
21.813469171524048,2.26,0.18,0.75,2.38
21.813749074935913,2.14,0.19,0.92,2.33
21.8140070438385,1.77,0.06,1.08,2.07
21.814285039901733,1.41,-0.1,1.33,1.94
21.815075159072876,1.17,-0.28,1.49,1.91
21.815356016159058,1.08,-0.39,1.37,1.78
21.819361925125122,1.16,-0.44,1.15,1.69
21.82996702194214,1.4,-0.54,1.24,1.94
21.91248106956482,1.78,-0.5,1.22,2.21
21.912741899490356,2.06,-0.28,0.87,2.25
21.912999868392944,1.84,-0.01,0.62,1.94
21.913254976272583,1.48,0.1,0.82,1.69
21.91351008415222,1.13,0.11,0.8,1.38
21.913763999938965,0.86,0.15,0.94,1.28
21.91453504562378,0.79,0.25,0.83,1.17
21.914790868759155,1.01,0.34,0.87,1.37
21.919140100479126,1.44,0.44,0.95,1.78
21.92967391014099,1.94,0.56,0.84,2.18
22.011936902999878,2.06,0.7,0.47,2.22
22.012197017669678,1.66,0.96,0.52,1.98
22.01245617866516,1.21,1.32,0.59,1.88
22.012705087661743,0.97,1.53,0.53,1.88
22.0129611492157,1.04,1.79,0.6,2.15
22.013216018676758,1.46,2.08,0.95,2.71
22.013992071151733,1.65,2.62,1.88,3.62
22.014249086380005,2.18,2.81,2.38,4.27
22.01896905899048,2.92,3.09,2.34,4.85
22.02956986427307,3.51,3.73,2.23,5.58
22.112455129623413,4.41,4.51,2.63,6.83
22.112723112106323,4.86,5.07,3.14,7.69
22.11298394203186,5.34,5.83,3.12,8.49
22.11324405670166,5.68,6.92,4.08,9.83
22.113499879837036,5.52,7.92,5.88,11.3
22.113754987716675,5.89,9.0,7.02,12.84
22.114529848098755,6.27,10.11,5.49,13.1
22.1147940158844,5.9,10.28,4.64,12.72
22.118957042694092,4.43,9.87,4.19,11.6
22.129552125930786,3.95,8.98,1.84,9.98
22.21330189704895,4.48,7.35,0.08,8.6
22.21356511116028,3.49,6.75,-0.32,7.6
22.2138249874115,1.05,8.17,-0.81,8.27
22.214082956314087,-0.61,9.5,-1.73,9.67
22.214343070983887,-0.66,8.73,-2.4,9.07
22.214603185653687,0.24,5.65,-0.77,5.7
22.215383052825928,-0.55,2.75,1.95,3.41
22.2156400680542,-2.82,0.38,0.6,2.9
22.21875786781311,-2.73,0.23,-0.01,2.73
22.229366064071655,-0.73,1.85,1.03,2.23
22.313780069351196,1.85,2.65,1.83,3.71
22.3140389919281,2.78,0.83,2.96,4.14
22.31429886817932,2.45,-2.04,3.88,5.02
22.314555883407593,2.04,-3.81,3.92,5.83
22.314811944961548,1.58,-4.46,3.88,6.11
22.315068006515503,0.85,-4.44,3.61,5.78
22.315871953964233,-0.17,-4.18,3.08,5.19
22.316503047943115,-0.89,-3.89,2.9,4.93
22.318799018859863,-1.0,-3.81,3.21,5.08
22.329200983047485,-0.84,-4.02,3.27,5.24
22.413779973983765,-0.54,-4.4,2.93,5.31
22.414055109024048,-0.1,-4.87,2.53,5.48
22.414326906204224,0.21,-5.43,2.36,5.92
22.41459584236145,0.22,-5.97,2.03,6.3
22.414885997772217,0.13,-6.44,1.81,6.69
22.415142059326172,-0.01,-6.74,1.68,6.94
22.415925979614258,-0.31,-6.93,1.35,7.06
22.41654896736145,-0.68,-7.1,1.26,7.24
22.41848587989807,-1.28,-7.0,1.72,7.32
22.429038047790527,-1.72,-6.32,1.23,6.66
22.514199018478394,-2.39,-5.66,0.13,6.14
22.514461040496826,-3.87,-5.12,-1.34,6.55
22.514719009399414,-5.16,-4.08,-3.66,7.52
22.514986991882324,-6.05,-2.23,-4.89,8.09
22.515244960784912,-5.93,0.7,-4.7,7.59
22.51551103591919,-5.31,4.38,-4.65,8.3
22.516669988632202,-5.39,7.34,-5.52,10.64
22.516932010650635,-6.42,7.05,-6.7,11.65
22.518249034881592,-7.81,4.51,-6.96,11.39
22.52884793281555,-9.39,2.01,-6.08,11.36
22.61380100250244,-9.17,0.34,-4.73,10.32
22.614068031311035,-6.49,-1.42,-3.09,7.32
22.614332914352417,-3.92,-2.57,-1.42,4.89
22.614617109298706,-3.05,-2.84,-1.32,4.37
22.614892959594727,-3.16,-1.23,-1.77,3.82
22.615154027938843,-1.03,0.2,-1.39,1.74
22.615934133529663,-0.42,-0.22,-0.55,0.72
22.61657404899597,2.66,5.11,2.84,6.42
22.618211030960083,8.25,11.11,9.32,16.68
22.628729104995728,7.26,6.78,9.83,13.97
22.714207887649536,3.98,1.57,4.71,6.36
22.71447205543518,1.56,0.81,0.93,1.98
22.714733839035034,-2.47,2.52,-1.55,3.85
22.7149920463562,-5.22,2.4,-4.0,7.0
22.71525001525879,-5.69,0.36,-3.91,6.91
22.715509176254272,-4.61,-0.99,-4.01,6.18
22.716636896133423,-2.63,-0.57,-5.27,5.91
22.716901063919067,-4.14,0.27,-6.66,7.84
22.718076944351196,-5.64,0.39,-5.86,8.14
22.728551149368286,-5.53,-0.33,-4.26,6.98
22.81432318687439,-5.87,-0.61,-3.81,7.02
22.81458592414856,-5.35,0.15,-2.43,5.87
22.814844846725464,-3.34,1.1,-0.83,3.61
22.81510305404663,-0.72,1.34,0.33,1.55
22.815360069274902,1.3,0.78,0.71,1.67
22.815638065338135,1.61,0.05,0.3,1.63
22.81674599647522,0.47,-0.48,-0.4,0.78
22.817007064819336,-0.7,-0.43,-0.92,1.23
22.817947149276733,-1.58,-0.01,-1.36,2.08
22.828398942947388,-1.95,0.35,-1.87,2.72
22.91418194770813,-1.72,0.3,-2.25,2.84
22.914445161819458,-1.24,-0.26,-1.74,2.15
22.91470503807068,-0.94,-0.57,-1.03,1.5
22.914968013763428,-0.66,-0.26,-0.37,0.8
22.915255069732666,-0.21,0.11,0.48,0.53
22.915518045425415,0.16,0.23,0.95,0.99
22.916290998458862,0.32,0.26,0.68,0.79
22.916924953460693,0.35,0.29,0.28,0.53
22.917706966400146,0.47,0.28,0.17,0.57
22.928287982940674,0.86,0.3,0.14,0.92
23.013985872268677,1.1,0.29,0.19,1.15
23.01425290107727,1.4,0.18,0.57,1.52
23.01451301574707,1.82,0.07,1.03,2.09
23.01477313041687,2.09,-0.07,1.35,2.48
23.015031099319458,2.14,-0.24,1.53,2.64
23.015289068222046,2.09,-0.51,1.69,2.73
23.01604700088501,1.89,-0.64,1.45,2.46
23.016327142715454,1.69,-0.46,0.83,1.93
23.017618894577026,1.58,-0.13,0.29,1.61
23.028143167495728,1.23,0.21,0.07,1.24
23.113391160964966,0.62,0.41,0.18,0.76
23.11365008354187,0.02,0.5,0.53,0.72
23.113908052444458,-0.03,0.56,0.95,1.1
23.11416506767273,0.52,0.49,1.49,1.65
23.114420175552368,1.27,0.34,1.89,2.3
23.114673852920532,1.71,0.28,1.6,2.35
23.115462064743042,1.87,0.11,1.63,2.48
23.11574101448059,2.08,0.26,1.78,2.74
23.117439031600952,2.13,0.6,1.57,2.71
23.12799906730652,2.04,0.96,1.13,2.52
23.212985038757324,1.98,1.79,1.02,2.85
23.213253021240234,1.71,2.3,1.16,3.09
23.2135169506073,1.76,2.33,1.51,3.28
23.21377205848694,2.04,2.07,2.01,3.53
23.21402597427368,2.51,2.01,2.5,4.07
23.21429705619812,3.0,2.39,2.76,4.72
23.21506404876709,3.37,3.22,3.04,5.56
23.215338945388794,3.58,4.53,3.01,6.51
23.217368841171265,4.45,6.52,3.38,8.58
23.227849006652832,5.22,8.3,5.15,11.07
23.31347918510437,6.04,9.64,6.84,13.27
23.313745975494385,7.0,11.15,7.52,15.16
23.31400418281555,6.81,11.93,7.61,15.7
23.31426215171814,4.63,11.67,7.56,14.65
23.31451916694641,2.21,10.73,5.84,12.41
23.314774990081787,1.38,8.63,2.39,9.06
23.315548181533813,1.77,6.38,-0.45,6.63
23.3158061504364,0.41,6.86,-1.01,6.94
23.317435026168823,-1.85,9.78,-2.14,10.18
23.32779598236084,-1.7,11.8,-4.05,12.59
23.414079904556274,-0.09,9.93,-3.59,10.55
23.414357900619507,1.1,5.04,-0.91,5.23
23.414632081985474,0.33,0.76,0.44,0.93
23.414901971817017,-1.56,-1.9,-1.98,3.15
23.415161848068237,-1.56,-2.08,-3.5,4.36
23.415430068969727,0.31,0.49,-1.73,1.82
23.416248083114624,2.91,3.02,-0.42,4.21
23.416538953781128,4.25,3.15,1.04,5.39
23.41735291481018,4.57,0.96,2.62,5.35
23.42762804031372,4.61,-1.5,3.38,5.9
23.514678955078125,4.09,-3.2,2.53,5.77
23.514973878860474,3.0,-3.84,1.42,5.07
23.515238046646118,1.48,-3.66,0.76,4.02
23.51549506187439,-0.06,-3.48,1.02,3.62
23.515751123428345,-0.73,-3.5,1.1,3.74
23.516009092330933,-1.19,-4.1,1.58,4.55
23.517378091812134,-0.97,-4.96,1.35,5.23
23.51763892173767,-0.55,-5.74,1.23,5.89
23.51790499687195,-0.2,-6.27,1.33,6.41
23.52748417854309,0.01,-6.74,1.37,6.87
23.61510705947876,-0.07,-7.25,1.33,7.37
23.615375995635986,-0.42,-7.65,1.21,7.75
23.61565089225769,-0.91,-7.99,1.14,8.12
23.615910053253174,-1.38,-8.41,0.98,8.57
23.616188049316406,-1.85,-8.7,0.63,8.91
23.616624116897583,-2.36,-8.55,0.6,8.89
23.617809057235718,-2.66,-7.68,0.42,8.13
23.618072032928467,-2.68,-6.32,-0.19,6.86
23.618345975875854,-3.3,-4.91,-1.02,6.0
23.627381086349487,-4.06,-3.45,-2.71,5.97
23.715252161026,-4.77,-1.73,-4.46,6.75
23.715522050857544,-5.46,0.29,-5.54,7.78
23.715785026550293,-6.11,2.91,-5.87,8.95
23.716058015823364,-6.95,5.85,-6.38,11.1
23.716472864151,-8.08,7.22,-7.55,13.2
23.716729879379272,-8.91,5.42,-8.15,13.23
23.71789002418518,-9.23,1.94,-7.63,12.13
23.718152046203613,-7.93,-0.66,-6.28,10.13
23.71845316886902,-5.59,-1.83,-4.7,7.52
23.727494955062866,-3.53,-2.4,-3.45,5.48
23.814332008361816,-2.5,-2.81,-2.36,4.44
23.814597845077515,-2.49,-2.99,-1.97,4.36
23.814860105514526,-2.3,-0.49,-2.39,3.35
23.81512188911438,0.12,3.66,-2.08,4.21
23.815385103225708,4.16,6.12,0.8,7.44
23.815644025802612,8.44,9.28,7.63,14.68
23.816617012023926,9.38,6.2,10.57,15.43
23.8168728351593,5.78,2.01,5.53,8.24
23.817504167556763,4.09,2.09,1.08,4.71
23.827017068862915,0.3,3.54,-1.61,3.9
23.914586067199707,-3.45,3.64,-3.9,6.35
23.914851903915405,-5.25,1.24,-4.14,6.79
23.915117979049683,-5.49,-1.24,-3.29,6.51
23.91540217399597,-5.43,-1.65,-3.5,6.66
23.915684938430786,-4.64,-1.27,-5.21,7.09
23.91594696044922,-3.75,-0.04,-7.03,7.96
23.916858911514282,-3.92,0.88,-6.08,7.28
23.917479038238525,-3.79,0.56,-4.54,5.94
23.917741060256958,-3.63,0.21,-3.56,5.08
23.92691397666931,-3.27,0.59,-2.66,4.25
24.014361143112183,-2.35,1.13,-1.72,3.12
24.01462197303772,-1.27,1.18,-0.59,1.83
24.014883041381836,-0.38,0.61,0.38,0.81
24.015141010284424,0.02,0.02,0.98,0.98
24.015398025512695,-0.01,-0.08,0.72,0.72
24.01569104194641,0.16,-0.02,-0.02,0.16
24.01662302017212,0.69,-0.02,-0.68,0.96
24.01688003540039,0.88,-0.03,-1.27,1.54
24.01751399040222,0.44,-0.02,-1.84,1.89
24.026766061782837,-0.23,0.01,-2.05,2.06
24.114198923110962,-0.85,-0.01,-1.82,2.0
24.114470958709717,-1.11,-0.15,-1.0,1.5
24.114731073379517,-0.99,-0.16,-0.01,1.0
24.114988088607788,-0.63,-0.01,0.63,0.89
24.115244150161743,0.0,0.13,0.82,0.83
24.115540027618408,0.99,0.19,0.86,1.32
24.116490125656128,1.98,0.18,1.07,2.25
24.116744995117188,2.57,0.19,1.28,2.87
24.117001056671143,2.62,0.23,1.26,2.91
24.126615047454834,2.31,0.15,0.73,2.42
24.21416401863098,1.78,-0.08,0.35,1.81
24.21443009376526,1.41,-0.25,0.56,1.53
24.21469497680664,1.63,-0.32,0.95,1.91
24.214951992034912,2.11,-0.39,1.24,2.47
24.215237855911255,2.46,-0.45,1.16,2.75
24.215523958206177,2.67,-0.52,0.92,2.87
24.21644902229309,2.5,-0.52,0.57,2.61
24.21671414375305,1.89,-0.46,0.21,1.95
24.216971158981323,1.0,-0.24,-0.15,1.03
24.226541996002197,0.22,0.03,-0.3,0.37
24.314462900161743,-0.17,0.18,-0.36,0.43
24.31472611427307,-0.26,0.22,-0.06,0.34
24.314985036849976,-0.02,0.14,0.45,0.47
24.31529998779297,0.44,0.02,0.79,0.9
24.315723180770874,0.95,0.28,0.76,1.24
24.31600594520569,1.21,0.71,1.03,1.74
24.31676411628723,1.42,0.96,1.13,2.05
24.31701898574829,1.88,1.07,1.5,2.63
24.31727385520935,2.48,1.34,1.31,3.1
24.326279878616333,2.9,1.86,0.9,3.56
24.41453719139099,2.5,2.67,1.05,3.8
24.41479992866516,2.2,3.22,1.88,4.32
24.415071964263916,2.45,3.33,2.41,4.78
24.41550302505493,2.95,3.49,2.47,5.19
24.41576099395752,3.43,3.94,2.86,5.95
24.41602110862732,4.37,4.75,2.85,7.05
24.41680598258972,5.66,6.47,2.56,8.96
24.417062997817993,6.48,8.43,3.56,11.21
24.41731905937195,6.77,9.97,4.85,12.99
24.426142930984497,8.0,11.51,5.86,15.19
24.5152370929718,8.69,12.68,5.93,16.47
24.515515089035034,7.97,13.2,6.05,16.56
24.5157790184021,6.27,12.83,5.32,15.23
24.516050100326538,3.86,10.92,5.06,12.63
24.51630711555481,4.14,7.42,2.13,8.75
24.516563177108765,6.4,4.99,-1.43,8.24
24.51732301712036,5.01,6.58,-3.56,9.0
24.517961025238037,1.93,10.94,-6.83,13.04
24.51822590827942,0.27,12.53,-5.21,13.57
24.52593493461609,-1.69,8.76,-1.08,8.98
24.618290185928345,-4.9,3.69,-1.42,6.29
24.618562936782837,-6.76,0.1,-4.38,8.05
24.618860006332397,-6.09,-0.75,-2.16,6.5
24.619126081466675,-3.67,1.1,-1.31,4.04
24.61938214302063,-0.52,2.05,-1.42,2.54
24.619653940200806,1.55,0.16,-0.28,1.58
24.620546102523804,3.2,-2.53,0.75,4.14
24.62080693244934,4.26,-4.38,0.92,6.17
24.621068000793457,4.2,-5.35,0.81,6.84
24.625850915908813,3.47,-5.31,0.66,6.37
24.71672511100769,2.06,-4.51,0.89,5.03
24.71699595451355,0.97,-4.09,1.35,4.41
24.71726107597351,0.76,-4.83,2.08,5.31
24.7175190448761,1.22,-6.13,2.77,6.83
24.71801495552063,1.92,-6.95,2.83,7.74
24.718273878097534,2.37,-7.07,2.53,7.87
24.719062089920044,2.41,-6.95,2.5,7.76
24.71932101249695,2.18,-6.88,2.51,7.64
24.719577074050903,1.78,-7.17,2.52,7.8
24.725653886795044,1.18,-7.92,2.43,8.36
24.816592931747437,0.55,-8.78,2.34,9.1
24.81687903404236,-0.03,-9.36,2.18,9.61
24.817146062850952,-0.35,-9.53,1.83,9.71
24.817389011383057,-0.56,-9.59,1.83,9.77
24.817644834518433,-0.94,-9.36,2.41,9.71
24.818273067474365,-1.61,-8.69,2.24,9.11
24.819077014923096,-2.71,-8.05,1.11,8.56
24.819334030151367,-3.46,-7.79,-0.43,8.53
24.819591999053955,-4.09,-7.59,-1.1,8.69
24.82554793357849,-4.77,-6.65,-1.21,8.27
24.916306972503662,-5.4,-4.65,-1.44,7.27
24.91659188270569,-5.81,-1.81,-2.42,6.54
24.916849851608276,-6.58,1.22,-3.85,7.72
24.91711115837097,-7.59,3.78,-5.18,9.93
24.91736912727356,-7.83,5.82,-5.75,11.32
24.917625188827515,-7.15,6.86,-5.65,11.4
24.918761014938354,-5.97,6.2,-5.36,10.13
24.919025182724,-5.13,4.1,-4.85,8.16
24.919301986694336,-4.38,2.01,-4.38,6.51
24.92540192604065,-3.05,1.09,-3.88,5.05
25.016373872756958,-2.01,0.83,-3.03,3.72
25.01666808128357,-2.02,0.33,-1.97,2.84
25.016969919204712,-3.11,-0.8,-1.9,3.73
25.0172278881073,-4.02,-0.19,-3.25,5.17
25.017488956451416,-1.35,2.72,-2.63,4.01
25.01774501800537,1.84,3.28,0.26,3.76
25.01889705657959,4.92,6.03,4.28,8.88
25.01916003227234,6.31,8.0,9.91,14.21
25.019428968429565,5.53,6.22,6.51,10.56
25.025334119796753,4.46,6.44,0.39,7.84
25.116892099380493,-0.17,4.74,-1.48,4.96
25.117153882980347,-3.2,0.82,-0.2,3.3
25.117415189743042,-4.8,-1.42,0.03,5.0
25.117671966552734,-5.31,-0.95,-1.92,5.72
25.118278980255127,-4.83,-0.02,-3.31,5.85
25.11854100227356,-3.26,0.49,-4.91,5.91
25.119322061538696,-2.08,0.04,-4.89,5.31
25.11957812309265,-1.89,-0.31,-4.37,4.77
25.119834184646606,-2.26,-0.17,-4.12,4.7
25.1251540184021,-2.29,0.25,-3.36,4.07
25.216140031814575,-2.0,0.73,-2.42,3.22
25.217254877090454,-1.74,0.97,-1.46,2.46
25.21752095222473,-1.5,0.85,-0.54,1.8
25.21778106689453,-1.37,0.56,0.26,1.5
25.218404054641724,-1.27,0.39,0.83,1.56
25.218673944473267,-0.64,0.34,0.89,1.14
25.219475030899048,0.33,0.24,0.58,0.7
25.21974015235901,1.12,0.08,0.22,1.14
25.22000288963318,1.52,-0.08,0.02,1.52
25.224945068359375,1.48,-0.23,-0.1,1.5
25.234451055526733,1.15,-0.27,-0.27,1.21
25.316006898880005,0.53,-0.33,-0.44,0.76
25.31629490852356,-0.05,-0.41,-0.27,0.49
25.31656002998352,-0.26,-0.31,-0.09,0.41
25.31682801246643,-0.02,-0.08,0.22,0.23
25.317085027694702,0.51,0.12,0.46,0.69
25.317851066589355,1.12,0.17,0.66,1.31
25.318472146987915,1.6,0.15,0.56,1.7
25.318732976913452,1.63,0.16,0.32,1.66
25.32479214668274,1.3,0.16,0.29,1.34
25.334245920181274,0.77,0.2,0.24,0.83
25.41551184654236,0.48,0.12,0.44,0.66
25.41577410697937,0.54,-0.07,0.52,0.75
25.41603398323059,0.63,-0.27,0.44,0.81
25.416320085525513,0.71,-0.45,0.53,0.99
25.41658306121826,0.86,-0.52,0.42,1.08
25.417353868484497,1.02,-0.45,0.44,1.19
25.41761302947998,1.34,-0.21,0.56,1.46
25.41787099838257,1.4,0.0,0.51,1.48
25.42466711997986,1.23,0.07,0.38,1.28
25.4341561794281,1.14,0.04,0.44,1.22
25.51565909385681,1.03,0.01,0.57,1.17
25.515923023223877,1.1,0.03,0.65,1.27
25.51620101928711,1.19,0.05,0.75,1.4
25.516458988189697,1.23,0.05,0.76,1.44
25.516716957092285,1.33,0.04,0.65,1.48
25.51752209663391,1.17,0.15,0.35,1.23
25.517781019210815,0.91,0.23,0.42,1.02
25.518036127090454,1.11,0.11,0.83,1.39
25.524572134017944,1.69,-0.01,1.06,1.99
25.53409504890442,2.11,0.05,1.16,2.4
25.614917993545532,2.41,0.38,0.98,2.62
25.61517596244812,2.43,0.84,0.54,2.62
25.61543583869934,2.21,1.35,0.32,2.6
25.61569595336914,2.05,2.01,0.72,2.95
25.61595892906189,2.13,2.11,1.19,3.22
25.616711854934692,2.12,2.19,1.65,3.46
25.616971015930176,2.52,3.01,1.95,4.38
25.61724591255188,3.09,4.52,1.83,5.77
25.624386072158813,4.14,6.31,2.35,7.9
25.63401699066162,4.84,7.33,3.68,9.52
25.715644121170044,5.14,7.7,4.56,10.32
25.715935945510864,5.13,8.06,5.7,11.12
25.71620011329651,4.11,8.87,7.31,12.2
25.716474056243896,4.31,10.66,7.74,13.86
25.716747045516968,5.29,11.03,5.41,13.37
25.717560052871704,5.59,7.89,4.6,10.7
25.717819929122925,4.99,6.35,4.27,9.13
25.718075037002563,4.35,6.09,0.56,7.5
25.724304914474487,3.02,6.33,-2.87,7.57
25.733722925186157,-0.76,7.71,-4.79,9.1
25.815301179885864,-3.11,9.03,-4.89,10.72
25.81556487083435,-3.63,7.52,-2.13,8.61
25.815824031829834,-5.57,4.25,-1.55,7.17
25.81608295440674,-6.23,1.87,-3.41,7.34
25.81633996963501,-4.77,0.94,-0.36,4.87
25.817108869552612,-2.97,1.27,-0.07,3.23
25.817368030548096,-0.85,0.2,-0.44,0.97
25.817628145217896,0.57,-2.19,0.24,2.27
25.824115991592407,2.07,-4.05,1.02,4.66
25.833532094955444,3.3,-4.82,1.73,6.09
25.915027856826782,3.37,-5.19,2.15,6.55
25.915292978286743,2.7,-5.63,2.55,6.74
25.915551900863647,1.92,-5.98,2.93,6.93
25.915807962417603,1.28,-6.0,2.85,6.76
25.916066884994507,1.1,-5.89,2.67,6.55
25.91687798500061,1.38,-5.91,2.86,6.7
25.91714096069336,1.85,-6.11,3.22,7.15
25.91739797592163,2.07,-6.29,3.35,7.42
25.92399287223816,2.05,-6.42,3.13,7.43
25.93339204788208,1.88,-6.59,2.96,7.46
26.01545000076294,1.64,-6.8,2.8,7.53
26.01571297645569,1.41,-6.99,2.71,7.62
26.015974044799805,1.12,-7.37,2.47,7.85
26.016266107559204,0.64,-7.92,2.4,8.3
26.016546964645386,0.3,-8.35,2.19,8.63
26.017318964004517,-0.1,-8.64,1.95,8.85
26.017576932907104,-0.44,-8.77,2.01,9.0
26.017837047576904,-0.95,-8.43,2.35,8.8
26.02377486228943,-1.66,-7.37,1.99,7.81
26.033302068710327,-2.41,-6.48,0.81,6.96
26.11635994911194,-3.66,-6.35,-0.21,7.33
26.11664891242981,-4.87,-6.37,-1.21,8.1
26.116971969604492,-5.45,-5.31,-1.37,7.73
26.11723303794861,-5.27,-3.24,-1.41,6.34
26.117514848709106,-4.68,-0.91,-1.93,5.14
26.118306875228882,-4.5,1.24,-2.64,5.36
26.11896586418152,-4.76,3.01,-3.84,6.81
26.11922812461853,-5.0,3.99,-4.6,7.87
26.123628854751587,-5.17,3.95,-4.9,8.14
26.13312792778015,-4.48,3.0,-4.61,7.09
26.215401887893677,-3.7,2.47,-3.99,5.97
26.215665102005005,-2.31,3.41,-4.07,5.79
26.215924978256226,-0.15,4.38,-2.72,5.15
26.216184854507446,1.15,3.7,0.35,3.89
26.216466188430786,2.29,2.97,2.51,4.51
26.21725106239319,5.85,3.49,4.06,7.93
26.217512845993042,5.93,1.77,6.3,8.83
26.21777105331421,-0.97,-1.28,1.69,2.33
26.22351098060608,0.06,-0.11,-3.9,3.9
26.23298192024231,10.95,10.51,0.45,15.18
26.317160844802856,11.56,17.38,7.42,22.15
26.31743597984314,-0.16,8.07,3.93,8.97
26.317700147628784,-5.65,-3.77,1.79,7.02
26.317960023880005,-8.36,-7.28,0.49,11.09
26.318225145339966,-10.01,-4.45,-1.38,11.04
26.319406032562256,-7.81,-0.47,-1.66,7.99
26.319650888442993,-3.46,1.49,-1.66,4.11
26.3199360370636,-1.49,1.19,-1.5,2.42
26.323318004608154,-1.39,0.35,-1.48,2.06
26.332863092422485,-1.76,0.16,-0.96,2.01
26.41566491127014,-1.92,0.21,-0.12,1.93
26.415925979614258,-1.25,0.57,0.3,1.4
26.41618800163269,-0.19,1.05,0.37,1.12
26.41644597053528,0.26,0.95,-0.55,1.12
26.416703939437866,0.17,0.26,-1.46,1.49
26.417521953582764,-0.35,-0.21,-2.08,2.11
26.41778302192688,-1.07,0.13,-2.32,2.55
26.418040990829468,-1.81,0.46,-1.81,2.6
26.423217058181763,-2.22,0.43,-1.47,2.69
26.4327449798584,-1.99,0.07,-1.0,2.22
26.516239881515503,-1.64,-0.25,-0.72,1.8
26.51653790473938,-1.27,-0.22,-0.7,1.46
26.516804933547974,-0.88,-0.06,-0.51,1.01
26.517107009887695,-0.47,0.02,-0.46,0.65
26.51736617088318,-0.1,0.1,-0.48,0.5
26.51814913749695,0.19,0.14,-0.46,0.51
26.51840901374817,0.27,0.07,-0.35,0.44
26.518667936325073,0.37,0.01,-0.26,0.45
26.523082971572876,0.57,-0.07,-0.25,0.62
26.532597064971924,0.9,-0.13,-0.2,0.93
26.614655017852783,1.45,-0.06,0.0,1.45
26.614919900894165,1.95,0.1,0.36,1.98
26.615180015563965,2.24,0.12,0.71,2.35
26.61544108390808,2.14,0.03,0.73,2.26
26.615697145462036,1.55,-0.1,0.71,1.7
26.616461038589478,0.55,-0.24,0.55,0.81
26.616748094558716,-0.41,-0.22,0.25,0.52
26.617024183273315,-0.76,-0.14,0.13,0.78
26.622883081436157,-0.59,-0.12,0.07,0.6
26.632466077804565,-0.12,-0.04,0.04,0.13
26.72155785560608,0.23,0.01,-0.04,0.23
26.722007036209106,0.29,0.04,-0.16,0.33
26.722267866134644,0.14,0.02,-0.15,0.2
26.72251296043396,-0.02,0.03,-0.15,0.15
26.722776174545288,-0.14,0.08,-0.09,0.18
26.7236111164093,-0.42,-0.05,-0.13,0.44
26.72386908531189,-0.75,-0.13,-0.4,0.85
26.724108934402466,-1.22,-0.13,-0.76,1.44
26.72493815422058,-1.53,-0.06,-1.01,1.83
26.732240915298462,-1.27,0.03,-0.97,1.59
26.820533990859985,-0.7,0.06,-0.84,1.09
26.82079815864563,-0.1,0.01,-0.53,0.53
26.821059942245483,0.49,-0.01,-0.06,0.49
26.821320056915283,0.94,-0.05,0.41,1.02
26.82162117958069,1.04,-0.04,0.62,1.21
26.82256817817688,0.97,0.18,0.68,1.19
26.822824001312256,1.0,0.37,0.63,1.23
26.823081016540527,1.23,0.34,0.69,1.45
26.823856115341187,1.64,0.19,0.98,1.91
26.83207106590271,2.3,0.25,1.34,2.67
26.92267107963562,3.35,0.42,1.74,3.79
26.922940015792847,4.12,0.38,2.16,4.66
26.923200845718384,4.32,0.36,2.43,4.96
26.923439025878906,4.1,0.46,2.43,4.78
26.923696994781494,3.13,0.61,2.21,3.87
26.92448592185974,1.41,0.93,1.72,2.41
26.92474102973938,-0.3,1.7,0.94,1.96
26.924997091293335,-1.79,2.58,0.33,3.15
26.925812005996704,-2.88,2.95,-0.46,4.14
26.931992053985596,-4.1,1.57,-1.52,4.64
27.02093195915222,-4.98,-1.36,-3.27,6.11
27.02122712135315,-4.99,-2.88,-4.12,7.08
27.021695852279663,-5.17,-1.23,-3.77,6.51
27.02195405960083,-6.65,0.77,-4.47,8.04
27.02221417427063,-8.22,1.41,-5.56,10.02
27.02297616004944,-8.09,1.56,-6.33,10.38
27.02323603630066,-5.14,2.83,-5.84,8.27
27.023499011993408,-1.06,4.8,-3.46,6.01
27.024277925491333,2.55,4.64,-0.45,5.31
27.031795024871826,4.21,2.27,1.95,5.16
27.12305188179016,4.01,1.44,3.22,5.34
27.12331795692444,3.01,2.22,4.36,5.74
27.123579025268555,1.56,2.2,4.93,5.61
27.123836994171143,-0.11,1.2,4.54,4.69
27.124096155166626,-1.63,0.57,3.38,3.79
27.12489604949951,-2.68,0.47,2.57,3.74
27.12517285346985,-3.22,0.42,2.31,3.98
27.12543296813965,-3.01,0.32,1.97,3.61
27.126251935958862,-2.39,-0.01,1.79,2.98
27.131792068481445,-1.6,-0.44,1.91,2.53
27.22086000442505,-0.88,-0.84,2.23,2.54
27.221306085586548,-0.31,-1.12,2.59,2.83
27.2215678691864,0.13,-1.4,2.81,3.14
27.22183108329773,0.52,-1.68,2.92,3.4
27.222089052200317,0.96,-1.82,3.03,3.66
27.22284698486328,1.44,-1.8,2.99,3.77
27.223104000091553,1.87,-1.88,2.97,3.98
27.223360061645508,2.04,-2.12,2.84,4.08
27.224135160446167,2.11,-2.36,2.7,4.16
27.231549978256226,2.15,-2.55,2.68,4.27
27.322314023971558,2.22,-2.78,2.43,4.3
27.32257914543152,2.31,-2.97,2.27,4.39
27.32284903526306,2.4,-3.08,2.12,4.44
27.32309889793396,2.45,-3.13,1.98,4.44
27.32335591316223,2.4,-3.2,1.69,4.34
27.324146032333374,2.41,-3.28,1.41,4.3
27.324405908584595,2.53,-3.38,1.28,4.41
27.32466197013855,2.37,-3.55,0.99,4.38
27.32545495033264,2.03,-3.7,0.54,4.25
27.331398963928223,1.53,-3.75,0.14,4.05
27.420398950576782,1.07,-3.62,-0.33,3.78
27.420703172683716,0.87,-3.36,-0.64,3.52
27.421146154403687,0.63,-3.16,-1.08,3.39
27.421403169631958,0.16,-2.97,-1.73,3.44
27.42166018486023,-0.34,-2.55,-2.24,3.41
27.422450065612793,-0.5,-1.85,-2.5,3.15
27.422714948654175,-0.24,-1.17,-2.43,2.7
27.422970056533813,0.16,-0.55,-2.19,2.26
27.423755884170532,0.44,0.01,-2.26,2.3
27.431226015090942,0.67,0.48,-2.44,2.57
27.520068883895874,0.85,0.84,-2.2,2.5
27.520364999771118,1.12,0.99,-1.76,2.3
27.520632028579712,1.43,0.96,-1.47,2.26
27.521055936813354,1.44,0.88,-1.54,2.28
27.521316051483154,1.22,0.72,-1.9,2.36
27.522117853164673,0.51,0.57,-2.09,2.22
27.522363901138306,-0.44,0.57,-2.13,2.24
27.522620916366577,-1.25,0.47,-1.69,2.15
27.52341604232788,-1.87,0.12,-1.16,2.2
27.531105041503906,-1.98,-0.62,-0.89,2.25
27.62215805053711,-0.99,0.71,-0.85,1.48
27.62242603302002,3.95,3.59,0.74,5.38
27.62268304824829,9.54,8.88,3.36,13.45
27.62294316291809,10.27,18.87,2.5,21.62
27.62319803237915,2.24,8.63,-0.31,8.92
27.62397313117981,-2.53,-5.79,3.76,7.35
27.624233961105347,-4.66,-7.79,2.3,9.36
27.6244900226593,-6.21,-5.44,-2.9,8.75
27.625324964523315,-5.66,-1.67,-2.37,6.35
27.63098406791687,-3.88,1.9,-1.47,4.56
27.720134019851685,-2.14,2.55,-1.49,3.64
27.720541954040527,-1.63,2.12,-2.06,3.37
27.72080683708191,-0.59,0.75,-2.78,2.93
27.721093893051147,0.72,-0.35,-1.84,2.0
27.721349954605103,1.24,-0.04,-1.37,1.84
27.722136974334717,1.26,0.59,-1.3,1.9
27.72239398956299,0.85,0.78,-1.45,1.85
27.722668886184692,0.52,0.53,-1.6,1.76
27.723459005355835,0.27,0.1,-1.6,1.62
27.730841875076294,-0.12,-0.03,-1.5,1.5
27.822180032730103,-0.41,0.14,-1.3,1.37
27.822449922561646,-0.58,0.19,-1.16,1.31
27.822713136672974,-0.57,0.26,-0.96,1.14
27.822975873947144,-0.67,0.3,-0.79,1.07
27.82324504852295,-1.02,0.29,-0.59,1.21
27.824036836624146,-1.28,0.31,-0.3,1.35
27.824301958084106,-1.36,0.26,0.05,1.38
27.824565172195435,-1.21,0.23,0.42,1.3
27.825413942337036,-0.72,0.29,0.53,0.93
27.830631971359253,-0.26,0.31,0.1,0.41
27.920315980911255,0.16,0.27,-0.09,0.32
27.920591115951538,0.52,0.15,-0.18,0.57
27.92085909843445,0.77,-0.05,-0.08,0.77
27.921126127243042,1.08,-0.13,0.14,1.09
27.921393156051636,1.35,-0.07,0.47,1.43
27.922168970108032,1.43,0.06,0.75,1.61
27.922435998916626,0.98,0.22,0.84,1.3
27.922701120376587,0.02,0.18,1.15,1.16
27.92348885536194,-0.74,0.09,1.12,1.34
27.930512189865112,-0.77,0.09,0.91,1.19
28.019575834274292,-0.39,0.04,0.76,0.85
28.020068883895874,0.13,-0.09,0.75,0.76
28.02049708366394,0.66,-0.18,0.79,1.04
28.020756006240845,1.18,-0.22,0.89,1.49
28.021011114120483,1.57,-0.2,0.87,1.8
28.02178406715393,1.87,-0.21,0.77,2.03
28.022044897079468,2.04,-0.17,0.64,2.14
28.022314071655273,2.0,0.07,0.5,2.06
28.023117065429688,1.42,0.23,0.43,1.5
28.03036618232727,0.64,0.23,0.58,0.89
28.12072491645813,0.12,0.08,0.74,0.75
28.121006965637207,-0.02,0.01,0.86,0.86
28.121276140213013,0.26,0.12,0.92,0.96
28.121546030044556,0.7,0.23,0.98,1.22
28.121806859970093,0.92,0.28,0.79,1.24
28.122628927230835,0.98,0.4,0.54,1.18
28.122889041900635,1.19,0.73,0.6,1.51
28.123146057128906,1.46,0.95,0.65,1.85
28.123911142349243,1.8,1.03,0.58,2.15
28.130226850509644,2.12,1.1,1.01,2.59
28.220067024230957,2.53,1.2,1.25,3.06
28.220324993133545,2.91,1.47,1.42,3.55
28.2205810546875,2.96,1.67,1.41,3.67
28.22083592414856,2.83,2.02,1.34,3.72
28.22109293937683,2.92,2.78,1.37,4.25
28.221861124038696,3.25,3.94,1.49,5.32
28.222118139266968,4.23,5.51,1.95,7.21
28.222388982772827,5.2,6.72,3.31,9.11
28.223188161849976,5.67,6.91,4.31,9.92
28.23018503189087,5.92,7.35,5.22,10.78
28.321380853652954,5.69,8.42,6.2,11.9
28.321648836135864,4.72,9.54,6.62,12.53
28.321907997131348,4.26,10.67,5.93,12.92
28.32217502593994,4.61,11.13,5.21,13.12
28.322430849075317,3.31,9.93,3.52,11.04
28.323248147964478,2.5,7.81,2.42,8.54
28.32351303100586,3.6,6.12,0.5,7.11
28.32377791404724,4.02,5.8,-0.18,7.05
28.324612855911255,1.13,7.36,-1.66,7.62
28.329916954040527,-1.17,9.56,-4.09,10.46
28.419681072235107,-1.0,9.49,-2.82,9.95
28.41994309425354,-0.89,6.38,0.37,6.45
28.4205801486969,-2.9,2.94,0.33,4.14
28.42084002494812,-3.9,0.83,-1.95,4.43
28.421102046966553,-3.04,1.02,-0.8,3.3
28.42188286781311,-1.39,2.88,-0.27,3.2
28.4221408367157,0.47,3.19,-0.02,3.22
28.422396898269653,1.22,0.92,0.89,1.76
28.4231960773468,1.8,-1.72,1.65,2.98
28.429821968078613,2.76,-3.4,2.24,4.91
28.520779848098755,3.28,-4.06,2.65,5.85
28.52105212211609,2.96,-4.0,2.5,5.56
28.521320104599,2.22,-3.59,2.16,4.74
28.521580934524536,1.51,-3.28,1.92,4.08
28.521847009658813,1.27,-3.29,1.91,4.01
28.52265501022339,1.46,-3.66,2.26,4.54
28.5229229927063,1.99,-4.09,2.67,5.27
28.52318787574768,2.47,-4.41,2.68,5.72
28.524034023284912,2.82,-4.59,2.49,5.93
28.529638051986694,2.69,-4.88,2.19,5.98
28.621894121170044,2.05,-5.28,1.63,5.89
28.622181177139282,1.31,-5.77,1.36,6.07
28.622449159622192,0.64,-6.31,1.21,6.45
28.622719049453735,0.33,-6.9,0.99,6.97
28.623005151748657,0.22,-7.38,0.9,7.43
28.623771905899048,-0.01,-7.38,1.12,7.46
28.62403106689453,-0.28,-6.89,1.09,6.98
28.62428593635559,-0.89,-6.6,0.37,6.67
28.625097036361694,-1.6,-6.86,-0.99,7.11
28.6294949054718,-2.4,-7.26,-1.63,7.81
28.720234155654907,-3.12,-7.06,-1.57,7.87
28.72088599205017,-3.36,-5.94,-1.11,6.91
28.721148014068604,-3.19,-4.07,-1.3,5.33
28.72140598297119,-2.93,-1.81,-2.17,4.07
28.721670866012573,-3.13,0.4,-3.16,4.46
28.722445011138916,-3.81,2.38,-4.23,6.17
28.722702980041504,-4.4,3.98,-5.22,7.9
28.722959995269775,-5.3,5.21,-5.08,9.0
28.723780870437622,-6.81,5.58,-5.0,10.12
28.729368925094604,-7.82,4.55,-5.62,10.65
28.821498155593872,-8.21,2.88,-5.51,10.29
28.821773052215576,-7.33,1.53,-4.95,8.97
28.82203507423401,-5.31,-0.06,-3.75,6.5
28.822293043136597,-2.99,-1.66,-1.45,3.71
28.82254910469055,-1.04,-0.87,-0.32,1.39
28.82334017753601,1.59,0.86,0.69,1.93
28.823596000671387,1.08,0.62,1.69,2.09
28.82387900352478,2.77,4.14,3.31,5.98
28.82470393180847,8.1,11.2,9.62,16.84
28.829195022583008,9.82,10.08,11.92,18.44
28.920363187789917,3.91,3.45,5.66,7.69
28.92099404335022,-1.62,0.09,-0.09,1.62
28.92126202583313,-4.68,-1.03,-2.7,5.5
28.921524047851562,-5.78,-1.75,-4.06,7.27
28.921807050704956,-5.57,-1.45,-4.89,7.55
28.922582864761353,-4.26,-0.27,-6.03,7.38
28.922847032546997,-4.35,0.3,-6.51,7.83
28.923105001449585,-3.97,-0.04,-5.24,6.57
28.923906087875366,-3.32,-0.86,-3.31,4.76
28.9290931224823,-3.64,-1.02,-3.17,4.93
29.021965980529785,-3.86,-0.01,-2.42,4.55
29.022233963012695,-3.26,1.15,-0.89,3.56
29.02250099182129,-1.89,1.57,0.57,2.52
29.02276301383972,-0.44,1.06,1.63,1.99
29.02302384376526,0.39,0.18,1.61,1.66
29.023825883865356,0.42,-0.43,0.85,1.04
29.024091005325317,-0.02,-0.5,-0.19,0.53
29.02435302734375,-0.61,-0.3,-1.74,1.86
29.025191068649292,-1.27,-0.1,-2.52,2.82
29.029006004333496,-1.76,0.16,-2.66,3.19
29.12154984474182,-1.87,0.41,-2.46,3.11
29.121814012527466,-1.7,0.39,-1.86,2.54
29.122079133987427,-1.44,0.12,-1.25,1.91
29.12236499786377,-1.05,-0.18,-0.28,1.1
29.122621059417725,-0.77,-0.19,0.74,1.08
29.12339496612549,-0.47,-0.02,1.33,1.41
29.12365698814392,-0.16,-0.04,1.58,1.58
29.123914003372192,0.24,-0.17,1.53,1.55
29.1246919631958,0.85,-0.08,1.18,1.45
29.12877917289734,1.35,0.09,0.61,1.48
29.222657918930054,1.52,0.15,-0.38,1.57
29.22293210029602,1.19,0.17,-0.81,1.44
29.22319483757019,0.89,0.16,-0.08,0.9
29.223459005355835,1.14,0.21,0.84,1.43
29.223718881607056,1.75,0.29,1.48,2.31
29.22452998161316,2.18,0.21,1.62,2.72
29.22480797767639,2.28,0.07,1.33,2.64
29.2250759601593,2.24,-0.07,1.0,2.45
29.22589898109436,2.03,-0.13,0.53,2.1
29.228636026382446,1.77,-0.07,0.25,1.78
29.32069706916809,1.45,0.06,0.0,1.45
29.320958852767944,0.92,0.13,-0.11,0.93
29.321215867996216,0.94,0.23,0.03,0.96
29.32147192955017,1.14,0.38,0.22,1.22
29.3217351436615,0.95,0.57,0.38,1.17
29.32248306274414,1.09,0.89,0.79,1.61
29.322756052017212,1.78,1.33,1.38,2.61
29.323014974594116,2.64,1.66,1.73,3.56
29.323814153671265,3.16,2.3,1.98,4.38
29.328479051589966,3.14,2.69,2.57,4.86
29.42069697380066,3.36,2.76,2.51,5.02
29.421187162399292,3.96,3.18,2.8,5.79
29.42144513130188,4.76,3.38,3.12,6.61
29.42170214653015,5.72,3.62,3.49,7.61
29.421957969665527,6.62,4.11,3.68,8.61
29.42271113395691,6.99,5.38,3.36,9.43
29.422991037368774,7.57,7.37,3.55,11.14
29.423249006271362,7.72,9.25,4.55,12.87
29.42404294013977,6.93,10.47,4.66,13.39
29.428395986557007,5.67,11.38,5.69,13.92
29.521563053131104,5.32,12.41,5.79,14.69
29.521865129470825,7.14,13.37,4.0,15.67
29.522176027297974,5.53,12.35,1.61,13.62
29.522467851638794,3.65,10.22,0.88,10.88
29.522763967514038,3.34,8.67,-1.26,9.37
29.52365803718567,3.89,8.29,-4.07,10.02
29.523943185806274,4.28,9.57,-4.46,11.39
29.524193048477173,2.47,10.42,-3.9,11.39
29.525020837783813,0.74,8.01,-1.31,8.15
29.528305053710938,-2.02,4.23,0.51,4.71
29.620396852493286,-4.86,1.19,-3.11,5.89
29.620659112930298,-4.8,0.15,-2.45,5.39
29.621140956878662,-3.2,1.22,-0.14,3.42
29.621402978897095,-0.92,2.03,-0.21,2.23
29.621661901474,0.11,0.77,-0.59,0.97
29.622411966323853,0.69,-1.19,-0.6,1.5
29.622670888900757,1.51,-2.41,-0.42,2.87
29.622928857803345,1.98,-2.97,0.17,3.57
29.623725175857544,1.78,-3.38,0.55,3.85
29.628062963485718,1.23,-3.7,0.89,3.99
29.721251964569092,0.79,-3.94,1.4,4.25
29.72154688835144,0.62,-4.28,1.86,4.7
29.721848964691162,0.75,-4.83,2.29,5.39
29.722105026245117,1.14,-5.38,2.56,6.06
29.722360849380493,1.74,-5.75,2.64,6.56
29.723222017288208,2.34,-5.99,2.75,6.99
29.723515033721924,2.57,-6.25,2.71,7.28
29.723769903182983,2.33,-6.57,2.61,7.44
29.72458505630493,1.78,-6.96,2.32,7.54
29.727951049804688,1.18,-7.54,2.07,7.9
29.82061195373535,0.69,-8.19,1.81,8.41
29.82088017463684,0.44,-8.72,1.58,8.87
29.821386098861694,0.33,-9.07,1.45,9.19
29.821650981903076,0.07,-9.31,1.47,9.42
29.821912050247192,-0.89,-9.04,1.51,9.2
29.822695016860962,-2.1,-8.0,1.01,8.33
29.822957038879395,-3.26,-7.1,-0.12,7.81
29.823215007781982,-3.55,-6.97,-1.61,7.98
29.824034929275513,-3.84,-7.11,-2.54,8.47
29.827805042266846,-4.73,-6.21,-3.11,8.4
29.922088861465454,-5.03,-4.18,-3.43,7.38
29.922364950180054,-4.9,-1.37,-3.9,6.41
29.922642946243286,-5.55,1.68,-4.76,7.5
29.922911882400513,-6.39,3.97,-5.14,9.11
29.923182010650635,-6.52,4.92,-5.22,9.69
29.924007177352905,-6.73,4.62,-4.6,9.37
29.92427897453308,-7.09,4.12,-4.04,9.14
29.924544095993042,-6.88,3.44,-4.53,8.92
29.925389051437378,-5.69,1.62,-5.16,7.85
29.927618980407715,-3.92,-0.74,-4.69,6.15
29.937628984451294,-3.3,-2.32,-4.58,6.1
30.02153992652893,-4.09,-1.39,-4.74,6.41
30.021808862686157,-3.4,2.24,-3.71,5.5
30.02206802368164,-2.27,1.77,-2.84,4.04
30.02235698699951,3.97,6.56,2.15,7.96
30.02311897277832,13.26,16.56,14.45,25.66
30.02337908744812,10.24,15.36,7.64,19.97
30.023635149002075,-0.87,5.16,0.02,5.23
30.024430990219116,-4.6,-2.86,0.78,5.47
30.0275239944458,-6.55,-5.39,-0.79,8.51
30.037463903427124,-7.11,-3.86,-4.31,9.16
30.12308406829834,-6.88,-0.98,-7.49,10.21
30.123358964920044,-6.25,1.11,-6.77,9.28
30.123630046844482,-4.03,2.05,-4.95,6.7
30.123894929885864,-2.78,0.84,-5.12,5.88
30.124711990356445,-3.09,-0.7,-5.26,6.14
30.124976873397827,-2.98,-0.52,-4.3,5.25
30.125251054763794,-2.53,0.5,-3.12,4.04
30.126113176345825,-2.05,1.28,-1.24,2.71
30.12728714942932,-1.12,1.35,0.98,2.0
30.137290954589844,-0.23,0.77,1.76,1.93
30.2237069606781,0.33,0.3,1.35,1.42
30.223975896835327,0.81,0.04,0.86,1.18
30.224246978759766,1.24,-0.07,0.27,1.27
30.22451090812683,1.7,0.1,-0.67,1.82
30.22530484199524,1.45,-0.08,-1.74,2.26
30.22557306289673,0.57,-0.59,-1.88,2.05
30.22583794593811,-0.28,-0.71,-1.34,1.54
30.226703882217407,-0.99,-0.46,-0.44,1.17
30.227277994155884,-1.06,-0.1,0.48,1.16
30.23720908164978,-0.66,0.18,1.24,1.41
30.324354887008667,0.03,0.43,1.46,1.52
30.32464098930359,0.98,0.56,1.36,1.76
30.324925184249878,1.85,0.53,1.19,2.26
30.325209856033325,2.16,0.32,0.78,2.31
30.325963973999023,1.83,0.16,0.54,1.91
