time,ax,ay,az,atotal
0.0069141387939453125,-0.57,-2.68,-0.97,2.9
0.02910614013671875,0.02,-0.71,0.34,0.78
0.030353069305419922,0.21,-0.44,0.43,0.65
0.03154897689819336,-0.38,1.23,-0.43,1.35
0.047872066497802734,-1.17,1.35,-1.16,2.13
0.04933881759643555,-0.83,0.71,-1.35,1.73
0.06399393081665039,0.26,-0.73,-0.28,0.82
0.06754803657531738,0.28,-0.7,0.2,0.77
0.08137989044189453,-0.2,0.08,0.25,0.33
0.08742189407348633,0.29,0.61,0.58,0.89
0.09741592407226562,0.74,0.11,0.46,0.87
0.1239008903503418,0.23,-0.17,0.47,0.55
0.125762939453125,-0.32,-0.14,0.52,0.62
0.12720298767089844,-0.42,-0.18,0.32,0.55
0.1372509002685547,-0.32,-0.15,0.24,0.42
0.14722490310668945,-0.25,-0.31,0.22,0.45
0.15701794624328613,-0.05,-0.3,0.15,0.33
0.16705894470214844,0.22,-0.07,-0.05,0.23
0.17707109451293945,0.24,0.12,-0.25,0.36
0.18672895431518555,0.09,0.23,-0.26,0.35
0.1994180679321289,0.08,0.1,-0.17,0.21
0.22686195373535156,0.15,-0.1,-0.04,0.18
0.22849607467651367,0.19,-0.03,0.28,0.33
0.2298431396484375,0.19,-0.06,0.48,0.51
0.24698901176452637,0.09,-0.31,0.38,0.49
0.2484760284423828,0.0,-0.35,0.2,0.4
0.2641720771789551,0.12,-0.33,-0.01,0.35
0.26592111587524414,0.15,-0.25,0.13,0.31
0.2796900272369385,0.21,0.11,0.41,0.47
0.28601694107055664,0.29,0.04,0.35,0.45
0.29584693908691406,0.25,-0.17,0.34,0.45
0.3238959312438965,0.15,-0.15,0.61,0.64
0.3256189823150635,0.15,-0.06,0.92,0.93
0.32669687271118164,0.12,-0.2,0.64,0.68
0.33594608306884766,0.11,-0.22,0.39,0.46
0.34571409225463867,0.1,-0.26,0.31,0.41
0.3556938171386719,0.03,-0.22,0.26,0.34
0.3655059337615967,-0.14,-0.21,0.19,0.31
0.37546491622924805,-0.21,-0.15,0.13,0.28
0.3853311538696289,-0.16,-0.02,0.08,0.18
0.39595794677734375,-0.12,0.12,0.02,0.17
0.4318809509277344,-0.18,0.14,0.08,0.24
0.43352603912353516,-0.25,0.1,0.21,0.34
0.4349861145019531,-0.38,-0.03,0.18,0.42
0.4481320381164551,-0.41,-0.11,0.28,0.5
0.44959402084350586,-0.27,-0.1,0.29,0.4
0.46410298347473145,-0.24,-0.11,0.2,0.33
0.4655880928039551,-0.27,-0.05,0.22,0.35
0.47976207733154297,-0.24,-0.03,0.17,0.29
0.4844541549682617,-0.3,-0.04,0.06,0.3
0.49548816680908203,-0.35,-0.06,0.04,0.35
0.5267300605773926,-0.28,-0.08,0.19,0.34
0.5285449028015137,-0.08,-0.05,0.41,0.42
0.5300021171569824,0.01,-0.13,0.43,0.44
0.5484240055084229,-0.08,-0.19,0.5,0.54
0.549901008605957,-0.26,-0.23,0.54,0.64
0.5639791488647461,-0.38,-0.18,0.59,0.72
0.5654940605163574,-0.36,-0.19,0.62,0.74
0.5799210071563721,-0.25,-0.24,0.47,0.58
0.584104061126709,-0.16,-0.2,0.36,0.44
0.5999269485473633,-0.17,-0.12,0.29,0.35
0.6254370212554932,-0.27,-0.04,0.13,0.3
0.6273908615112305,-0.43,-0.05,-0.12,0.44
0.6287150382995605,-0.57,-0.05,-0.12,0.58
0.6482181549072266,-0.49,0.04,-0.14,0.51
0.6495950222015381,-0.35,0.04,-0.23,0.42
0.6653909683227539,-0.22,0.11,-0.12,0.27
0.6668539047241211,-0.16,0.15,-0.11,0.24
0.6801009178161621,-0.28,0.08,-0.06,0.29
0.6830389499664307,-0.41,0.16,0.2,0.48
0.6996140480041504,-0.48,0.23,0.4,0.66
0.7227301597595215,-0.6,0.06,0.3,0.67
0.7241358757019043,-0.56,-0.07,0.15,0.58
0.7251758575439453,-0.46,-0.09,-0.04,0.47
0.7327151298522949,-0.41,-0.05,-0.13,0.43
0.7427420616149902,-0.27,0.16,-0.1,0.32
0.7526431083679199,-0.1,0.27,-0.01,0.28
0.7624788284301758,-0.07,0.12,-0.04,0.14
0.7724740505218506,-0.03,-0.02,-0.17,0.17
0.7822051048278809,-0.02,-0.06,-0.03,0.06
0.7927818298339844,-0.1,-0.06,0.08,0.14
0.8046159744262695,-0.11,0.03,0.08,0.13
0.8313808441162109,-0.11,0.07,0.01,0.13
0.8330240249633789,-0.22,-0.04,-0.1,0.24
0.8345398902893066,-0.33,-0.08,-0.19,0.38
0.8486361503601074,-0.25,0.02,-0.03,0.25
0.8516988754272461,-0.08,-0.01,0.05,0.09
0.8639869689941406,0.14,0.02,0.06,0.15
0.87186598777771,0.34,0.22,0.15,0.43
0.881342887878418,0.21,0.19,0.05,0.28
0.8913719654083252,-0.12,0.07,-0.17,0.21
0.9013490676879883,-0.22,0.12,-0.21,0.32
0.9272570610046387,-0.24,0.14,-0.15,0.31
0.9291470050811768,-0.22,0.25,0.02,0.33
0.9309689998626709,-0.22,0.23,-0.05,0.32
0.9484028816223145,-0.21,0.12,0.06,0.24
0.9510610103607178,-0.3,0.07,0.07,0.31
0.9617249965667725,-0.46,0.0,-0.22,0.5
0.970973014831543,-0.84,-0.15,-0.6,1.04
0.9806990623474121,-1.17,-0.19,-1.31,1.76
0.9907169342041016,-0.82,-0.01,-2.02,2.18
1.0011601448059082,0.0,0.11,-1.85,1.85
1.0310959815979004,0.99,0.14,-0.84,1.3
1.0329010486602783,1.18,-0.06,-0.03,1.18
1.034174919128418,0.69,-0.28,0.58,0.94
1.048570156097412,0.21,-0.09,0.87,0.89
1.0500199794769287,0.13,0.23,0.97,1.0
1.0644710063934326,0.19,0.21,0.91,0.95
1.0700769424438477,0.14,0.08,0.8,0.81
1.0799570083618164,-0.14,-0.19,0.3,0.38
1.0900778770446777,-0.45,-0.18,0.04,0.48
1.102550983428955,-0.24,0.09,-0.01,0.25
1.1270639896392822,0.0,-0.01,-0.17,0.17
1.1285700798034668,0.09,-0.08,-0.28,0.3
1.1296019554138184,0.17,0.02,-0.35,0.38
1.14841890335083,0.33,0.12,-0.34,0.48
1.1498939990997314,0.37,0.15,-0.7,0.8
1.1645519733428955,0.25,0.12,-0.91,0.95
1.16939115524292,0.12,0.25,-0.74,0.79
1.1798300743103027,0.09,0.28,-0.6,0.66
1.1892218589782715,0.0,0.28,-0.32,0.42
1.2015190124511719,-0.15,0.29,-0.09,0.33
1.2316288948059082,-0.27,0.2,-0.14,0.36
1.233469009399414,-0.29,0.09,-0.2,0.36
1.2347619533538818,-0.2,-0.03,-0.21,0.29
1.2488598823547363,-0.09,-0.05,0.08,0.13
1.250382900238037,0.04,-0.11,0.21,0.24
1.2646079063415527,0.3,-0.24,0.13,0.4
1.2686281204223633,0.53,-0.37,0.11,0.65
1.2799968719482422,0.58,-0.6,-0.21,0.86
1.2886710166931152,0.8,-0.42,0.11,0.91
1.3006129264831543,0.72,-0.1,0.12,0.73
1.3310010433197021,0.34,-0.03,0.08,0.35
1.332766056060791,0.21,-0.06,0.17,0.27
1.3342151641845703,0.29,-0.14,0.48,0.57
1.3488459587097168,0.33,-0.23,0.65,0.76
1.350235939025879,0.24,-0.23,0.47,0.57
1.364609956741333,0.27,-0.13,0.34,0.45
1.3678960800170898,0.33,-0.05,0.26,0.42
1.3784940242767334,0.33,-0.05,0.25,0.41
1.388390064239502,0.13,0.02,0.24,0.27
1.399986982345581,-0.14,0.07,0.04,0.16
1.4307808876037598,-0.23,0.16,-0.11,0.3
1.4325449466705322,-0.14,0.19,-0.17,0.29
1.4340291023254395,-0.1,0.14,-0.05,0.17
1.448693037033081,-0.23,0.08,-0.04,0.24
1.4501969814300537,-0.22,0.07,-0.08,0.24
1.464418888092041,-0.12,0.07,0.06,0.15
1.4671320915222168,0.01,0.04,0.23,0.23
1.4797348976135254,0.07,-0.02,0.29,0.29
1.486886978149414,0.04,-0.03,0.24,0.24
1.4990859031677246,0.03,-0.02,0.18,0.18
1.5298938751220703,0.18,0.04,0.25,0.31
1.5317058563232422,0.08,-0.06,0.06,0.11
1.533174991607666,-0.07,-0.08,-0.06,0.12
1.548753023147583,-0.12,0.05,0.04,0.13
1.5502159595489502,-0.19,0.01,0.01,0.19
1.5648419857025146,-0.24,0.0,-0.03,0.24
1.5663471221923828,-0.14,0.06,0.03,0.15
1.5802078247070312,-0.01,0.02,0.07,0.07
1.5863089561462402,-0.09,-0.06,0.03,0.11
1.596695899963379,-0.01,-0.04,0.08,0.09
1.6092510223388672,0.08,0.02,0.16,0.18
1.633734941482544,0.06,0.03,0.09,0.11
1.635335922241211,-0.04,0.1,0.07,0.12
1.6366679668426514,-0.13,0.08,-0.03,0.15
1.6511411666870117,-0.19,0.05,-0.13,0.23
1.655555009841919,-0.13,0.02,-0.04,0.13
1.665565013885498,0.06,-0.03,0.08,0.1
1.6753458976745605,0.04,-0.04,0.13,0.14
1.6854791641235352,-0.18,0.0,0.12,0.21
1.6953480243682861,-0.27,0.06,0.1,0.29
1.7053861618041992,-0.14,0.03,0.05,0.15
1.7327330112457275,-0.04,-0.03,-0.02,0.05
1.734591007232666,-0.08,-0.01,-0.03,0.08
1.735978126525879,-0.03,0.05,-0.07,0.09
1.7489371299743652,0.09,0.05,-0.07,0.12
1.754927158355713,-0.01,0.02,0.02,0.03
1.764854907989502,-0.11,0.04,0.1,0.15
1.7746920585632324,-0.13,0.05,0.08,0.16
1.784891128540039,-0.18,0.03,-0.02,0.18
1.7947731018066406,-0.33,0.03,-0.04,0.33
1.8050198554992676,-0.27,0.06,0.04,0.27
1.834563970565796,0.1,0.02,0.12,0.15
1.8361899852752686,0.15,-0.06,0.17,0.23
1.8371479511260986,-0.03,-0.06,0.14,0.15
1.8492789268493652,-0.05,-0.01,0.08,0.09
1.8543109893798828,-0.05,0.03,0.02,0.06
1.8645119667053223,-0.14,0.05,0.05,0.15
1.874032974243164,-0.08,0.04,0.11,0.14
1.8840551376342773,-0.07,0.0,0.05,0.08
1.8939738273620605,-0.17,0.0,0.01,0.17
1.9065728187561035,-0.26,0.02,-0.06,0.26
1.929399013519287,-0.24,0.09,-0.04,0.25
1.9305610656738281,0.18,0.07,0.05,0.19
1.9332060813903809,0.4,-0.13,0.12,0.43
1.9498200416564941,0.18,-0.1,0.17,0.26
1.953329086303711,-0.06,0.03,0.1,0.12
1.963238000869751,-0.17,0.05,-0.01,0.17
1.9733879566192627,-0.12,0.04,0.06,0.13
1.983302116394043,0.05,-0.03,0.12,0.13
1.9931650161743164,0.04,-0.04,0.13,0.14
2.003507137298584,-0.15,0.03,0.09,0.17
2.0467400550842285,-0.25,0.07,0.03,0.26
2.0484819412231445,-0.23,0.1,0.02,0.25
2.049914836883545,-0.19,0.07,0.01,0.2
2.0654690265655518,-0.03,0.02,0.08,0.08
2.0669078826904297,0.13,-0.07,0.01,0.14
2.081653118133545,0.14,-0.07,0.0,0.15
2.082976818084717,0.09,-0.03,-0.01,0.09
2.096688985824585,0.06,0.0,-0.02,0.06
2.0980758666992188,0.0,0.06,-0.01,0.06
2.1169469356536865,0.01,0.04,0.0,0.04
2.141813039779663,0.02,-0.02,0.02,0.03
2.1434431076049805,0.02,-0.04,0.07,0.08
2.144289970397949,0.02,-0.02,0.13,0.13
2.146449089050293,-0.06,0.02,0.15,0.16
2.151587963104248,-0.12,0.01,0.17,0.2
2.1620190143585205,-0.1,-0.02,0.13,0.16
2.1719870567321777,-0.04,-0.01,0.02,0.04
2.1817069053649902,0.01,0.04,-0.02,0.04
2.1914620399475098,-0.06,0.02,0.0,0.06
2.2016069889068604,-0.09,0.04,0.0,0.09
2.2325258255004883,0.0,0.02,0.0,0.02
2.234308958053589,0.04,-0.06,0.07,0.1
2.235759973526001,0.01,-0.05,0.19,0.19
2.2490739822387695,-0.07,-0.01,0.21,0.22
2.2510619163513184,-0.13,0.02,0.11,0.17
2.264981985092163,-0.09,0.04,0.04,0.1
2.270975112915039,-0.06,0.06,0.06,0.1
2.280751943588257,-0.12,0.06,0.02,0.13
2.290830135345459,-0.16,0.05,-0.04,0.17
2.300783157348633,-0.07,0.05,-0.09,0.12
2.333750009536743,-0.01,0.01,-0.08,0.08
2.335566997528076,-0.12,0.0,-0.07,0.13
2.3366689682006836,-0.07,0.01,-0.04,0.08
2.349280834197998,0.04,-0.04,0.03,0.06
2.350698947906494,0.05,-0.06,0.07,0.1
2.364871025085449,0.0,0.02,0.07,0.07
2.37014102935791,-0.15,0.08,-0.02,0.17
2.379992961883545,-0.13,0.09,-0.01,0.15
2.390058994293213,0.05,0.04,0.05,0.08
2.400118827819824,0.12,-0.05,0.0,0.13
2.4127578735351562,0.08,-0.06,-0.05,0.11
2.4368770122528076,0.15,-0.04,-0.02,0.15
2.438541889190674,0.18,-0.08,0.03,0.19
2.440214157104492,0.07,-0.1,0.09,0.15
2.44925594329834,-0.02,-0.01,0.19,0.19
2.4595730304718018,-0.02,0.02,0.17,0.17
2.469417095184326,-0.03,0.01,0.11,0.11
2.4796738624572754,-0.05,0.05,0.08,0.1
2.489467144012451,-0.1,0.08,0.02,0.12
2.49937105178833,-0.1,0.07,-0.03,0.12
2.509096145629883,-0.08,0.03,-0.08,0.11
2.5366058349609375,0.01,0.01,-0.09,0.09
2.5382728576660156,0.03,0.03,-0.13,0.13
2.539863109588623,-0.09,0.05,-0.09,0.13
2.5488228797912598,-0.06,0.01,-0.01,0.06
2.5588340759277344,0.09,-0.01,0.06,0.1
2.56843900680542,0.1,-0.01,0.1,0.14
2.5788300037384033,-0.03,0.0,0.07,0.07
2.588564872741699,-0.06,0.02,0.0,0.06
2.5985360145568848,0.01,0.01,-0.05,0.05
2.6088790893554688,-0.03,-0.02,-0.03,0.04
2.6353509426116943,-0.03,-0.02,0.02,0.04
2.636651039123535,0.07,-0.05,0.1,0.13
2.638370990753174,0.17,-0.07,0.2,0.27
2.6501269340515137,0.12,-0.1,0.19,0.24
2.6583449840545654,-0.02,-0.07,0.06,0.09
2.667901039123535,0.0,0.0,0.0,0.0
2.6781411170959473,0.1,-0.02,0.07,0.12
2.6878061294555664,0.07,-0.04,0.14,0.16
2.700201988220215,-0.06,0.01,0.14,0.15
2.710942029953003,-0.19,0.07,0.07,0.21
2.7359180450439453,-0.2,0.07,0.04,0.21
2.73734712600708,-0.08,0.03,-0.02,0.08
2.7388291358947754,-0.11,-0.02,-0.1,0.15
2.748785972595215,-0.12,-0.01,-0.12,0.17
2.757567882537842,0.06,0.0,-0.13,0.14
2.7671260833740234,0.03,0.03,-0.01,0.04
2.7774059772491455,-0.05,0.06,0.12,0.14
2.7868549823760986,-0.06,0.04,0.07,0.1
2.797049045562744,-0.07,0.03,0.01,0.07
2.8069190979003906,0.0,0.02,0.0,0.02
2.840484142303467,0.05,0.01,0.0,0.05
2.8419029712677,-0.02,0.01,0.01,0.02
2.8438191413879395,-0.11,0.01,0.0,0.11
2.84649395942688,-0.09,-0.01,-0.04,0.09
2.85664701461792,0.02,-0.02,0.03,0.04
2.8664798736572266,0.02,0.0,0.1,0.1
2.8763208389282227,-0.01,0.01,0.07,0.07
2.8863720893859863,-0.09,0.07,0.0,0.11
2.8964929580688477,-0.21,0.12,-0.05,0.24
2.9061520099639893,-0.14,0.09,-0.08,0.18
2.940896987915039,-0.01,0.02,-0.1,0.1
2.942431926727295,0.0,-0.01,-0.06,0.06
2.9433908462524414,-0.02,0.02,-0.02,0.03
2.9456920623779297,-0.09,0.02,0.0,0.09
2.9559340476989746,-0.15,0.04,-0.01,0.15
2.9657740592956543,-0.04,0.04,-0.02,0.06
2.9755699634552,0.04,0.0,-0.03,0.05
2.9856269359588623,-0.04,-0.01,-0.02,0.04
2.9956588745117188,-0.11,0.02,0.03,0.11
3.0053181648254395,-0.06,0.06,0.08,0.11
3.0402488708496094,-0.08,0.05,0.09,0.13
3.0419809818267822,-0.13,0.03,0.06,0.14
3.0433430671691895,-0.14,0.05,0.01,0.14
3.046074867248535,-0.14,0.04,-0.03,0.14
3.05519700050354,-0.09,-0.01,-0.01,0.09
3.065068006515503,0.1,-0.01,-0.01,0.1
3.0749900341033936,0.15,-0.01,-0.01,0.15
3.0849008560180664,-0.01,0.01,0.03,0.03
3.0949368476867676,-0.1,0.0,0.02,0.1
3.105194091796875,-0.13,0.04,0.01,0.13
3.1407299041748047,-0.11,0.06,0.04,0.13
3.1423821449279785,0.01,0.0,0.0,0.01
3.143784999847412,0.03,-0.02,-0.03,0.04
3.145503044128418,-0.02,0.03,-0.04,0.05
3.1541709899902344,-0.08,0.05,-0.05,0.1
3.164184093475342,-0.08,0.05,-0.02,0.09
3.1741280555725098,-0.09,0.04,0.04,0.1
3.184201955795288,-0.01,-0.01,0.04,0.04
3.194072961807251,0.04,-0.02,0.04,0.06
3.2038979530334473,-0.05,0.01,0.0,0.05
3.213923931121826,-0.07,0.03,0.01,0.07
3.2407121658325195,-0.05,0.05,-0.02,0.07
3.2421278953552246,0.0,0.04,-0.07,0.08
3.2446718215942383,0.01,0.02,-0.03,0.03
3.253653049468994,0.02,-0.01,0.01,0.02
3.2635788917541504,-0.04,-0.01,0.0,0.04
3.273627996444702,-0.12,0.05,0.08,0.15
3.283370018005371,-0.04,0.02,0.12,0.12
3.293360948562622,-0.01,-0.04,0.05,0.06
3.303842067718506,0.01,-0.03,0.01,0.03
3.3160040378570557,0.03,0.0,-0.05,0.05
3.3408408164978027,0.04,0.05,-0.01,0.06
3.342423915863037,-0.07,0.01,0.06,0.09
3.3437349796295166,-0.06,0.02,0.03,0.06
3.3528339862823486,0.04,0.01,-0.07,0.08
3.3628289699554443,0.01,-0.03,-0.03,0.04
3.3728270530700684,0.06,-0.05,0.07,0.1
3.3826560974121094,0.01,-0.03,0.08,0.08
3.3924078941345215,-0.12,0.05,0.06,0.14
3.4024691581726074,-0.1,0.06,0.02,0.11
3.412825107574463,-0.01,0.01,0.04,0.04
3.438182830810547,-0.01,-0.03,0.06,0.06
3.439682960510254,-0.11,0.0,0.06,0.12
3.4417929649353027,-0.06,0.02,0.01,0.06
3.452195167541504,-0.02,0.01,-0.02,0.03
3.4618778228759766,-0.09,0.03,-0.05,0.1
3.4719910621643066,-0.12,0.06,-0.07,0.15
3.481765031814575,-0.1,0.07,-0.09,0.15
3.4918220043182373,-0.12,0.09,-0.11,0.18
3.501619815826416,-0.08,0.06,-0.12,0.15
3.5121819972991943,0.08,0.0,-0.08,0.11
3.538444995880127,0.19,-0.06,-0.01,0.19
3.5401179790496826,0.16,-0.1,0.02,0.18
3.54180908203125,0.12,-0.06,0.06,0.14
3.551246166229248,0.03,-0.02,0.09,0.09
3.5612869262695312,0.01,-0.02,0.11,0.11
3.5712430477142334,0.03,0.01,0.15,0.15
3.5809121131896973,-0.03,0.03,0.14,0.14
3.5911130905151367,-0.07,0.02,0.04,0.08
3.6033358573913574,-0.04,0.04,-0.03,0.06
3.6136670112609863,-0.05,0.04,-0.07,0.09
3.6466469764709473,-0.09,0.05,-0.08,0.13
3.648263931274414,-0.07,0.02,-0.1,0.12
3.649756908416748,-0.05,0.01,-0.07,0.08
3.66611385345459,-0.01,0.04,-0.02,0.04
3.667602062225342,0.0,0.01,-0.03,0.03
3.682119846343994,0.02,0.01,-0.02,0.03
3.683316946029663,0.0,0.03,0.0,0.03
3.69748592376709,-0.03,0.02,-0.02,0.04
3.7000460624694824,0.05,-0.01,0.05,0.07
3.715737819671631,0.04,-0.04,0.05,0.07
3.7412350177764893,-0.01,0.0,0.03,0.03
3.743104934692383,0.02,0.02,0.0,0.02
3.7445499897003174,0.01,0.03,0.02,0.03
3.7495040893554688,0.0,0.01,0.03,0.03
3.759582042694092,-0.01,0.01,0.0,0.01
3.7698440551757812,-0.1,0.0,-0.03,0.1
3.7797279357910156,-0.01,0.01,0.0,0.01
3.7896199226379395,0.1,-0.04,0.04,0.11
3.7994909286499023,0.02,0.0,0.09,0.09
3.809256076812744,-0.04,0.05,0.04,0.07
3.840235948562622,-0.03,0.04,-0.03,0.05
3.8418149948120117,0.03,0.04,-0.04,0.06
3.8434391021728516,-0.03,0.02,-0.01,0.03
3.848935127258301,-0.01,0.0,0.03,0.03
3.8653910160064697,0.04,0.0,-0.01,0.04
3.868844985961914,0.01,0.0,-0.03,0.03
3.8809471130371094,-0.05,0.05,-0.05,0.08
3.888631820678711,-0.11,0.09,-0.05,0.15
3.898533821105957,-0.08,0.05,-0.06,0.11
3.9091758728027344,0.01,0.0,-0.05,0.05
3.943035125732422,0.08,-0.01,0.0,0.08
3.944658041000366,0.12,-0.03,0.05,0.13
3.946099042892456,0.05,-0.05,0.06,0.09
3.9662699699401855,-0.04,-0.01,0.04,0.05
3.967780113220215,-0.02,0.02,0.08,0.08
3.9821701049804688,0.02,0.0,0.08,0.08
3.9834089279174805,-0.05,0.02,0.01,0.05
3.9976038932800293,0.03,0.03,-0.05,0.06
3.999040126800537,0.05,0.01,-0.05,0.07
4.018054008483887,0.02,0.01,-0.01,0.02
4.022333145141602,0.01,0.0,0.01,0.01
4.052073001861572,-0.03,0.0,0.0,0.03
4.053571939468384,0.0,0.02,0.0,0.02
4.055016040802002,-0.06,0.02,0.02,0.06
4.066216945648193,-0.13,0.04,0.02,0.13
4.067564964294434,-0.06,0.05,0.0,0.07
4.082212924957275,-0.01,0.02,0.0,0.02
4.087019920349121,0.06,0.0,-0.01,0.06
4.096890926361084,0.06,-0.02,0.01,0.06
4.107172012329102,0.03,-0.03,0.0,0.04
4.117707967758179,0.05,-0.01,0.01,0.05
4.146215915679932,-0.01,0.01,0.07,0.07
4.147964954376221,-0.08,0.03,0.07,0.11
4.149281978607178,-0.03,0.03,0.0,0.04
4.16641092300415,-0.01,0.03,0.01,0.03
4.167703151702881,-0.03,0.01,0.01,0.03
4.182193994522095,-0.02,0.01,-0.03,0.03
4.186511993408203,0.05,0.02,-0.03,0.06
4.197423934936523,-0.03,0.01,-0.03,0.04
4.206368923187256,-0.05,-0.01,-0.05,0.07
4.218719959259033,0.1,0.0,0.03,0.1
4.242303848266602,0.0,0.01,0.11,0.11
4.244009971618652,-0.1,-0.01,0.09,0.13
4.245692014694214,-0.02,0.04,0.05,0.06
4.256036996841431,-0.08,0.03,-0.01,0.08
4.265928030014038,-0.08,0.03,-0.02,0.08
4.275768995285034,0.04,0.01,0.0,0.04
4.285815954208374,0.04,-0.03,0.01,0.05
4.295742034912109,-0.05,0.01,-0.01,0.05
4.30561900138855,-0.07,0.05,-0.05,0.09
4.318055152893066,-0.05,0.01,-0.03,0.05
4.341024875640869,-0.03,-0.02,-0.02,0.04
4.342602968215942,0.0,0.02,0.0,0.02
4.3452959060668945,-0.04,0.05,-0.01,0.06
4.355279922485352,-0.07,0.02,-0.03,0.07
4.365330934524536,-0.03,0.03,-0.03,0.05
4.375082015991211,0.0,0.03,-0.01,0.03
4.384873867034912,-0.01,-0.01,-0.04,0.04
4.395076036453247,0.03,0.01,-0.06,0.06
4.405444145202637,0.06,0.0,-0.04,0.07
4.417413949966431,0.08,-0.03,-0.02,0.08
4.4490580558776855,0.11,-0.04,0.04,0.12
4.4506800174713135,0.03,-0.01,0.11,0.11
4.452098846435547,0.02,-0.03,0.13,0.13
4.466511011123657,0.07,-0.02,0.11,0.13
4.467782020568848,0.01,-0.02,0.05,0.05
4.482646942138672,0.0,0.01,0.02,0.02
4.483960151672363,0.1,0.01,0.04,0.1
4.496591091156006,0.01,0.02,0.01,0.02
4.504239082336426,-0.12,0.04,-0.06,0.13
4.518016815185547,-0.15,0.09,-0.07,0.18
4.548211097717285,-0.11,0.09,-0.04,0.14
4.5498738288879395,-0.05,0.0,-0.1,0.11
4.551241874694824,-0.02,0.0,-0.07,0.07
4.566251993179321,0.05,-0.01,0.0,0.05
4.567705154418945,0.07,-0.02,0.05,0.08
4.582350969314575,0.01,0.0,0.05,0.05
4.583632946014404,0.0,0.01,0.05,0.05
4.598668098449707,-0.02,-0.01,0.06,0.06
4.60343599319458,-0.07,0.0,0.06,0.09
4.617856025695801,-0.02,0.02,0.05,0.05
4.643073081970215,-0.01,0.02,0.0,0.02
4.644681930541992,0.0,0.0,-0.04,0.04
4.646000862121582,0.03,0.0,-0.04,0.05
4.666623115539551,0.06,0.0,-0.05,0.07
4.667910099029541,0.1,0.0,-0.02,0.1
4.682624816894531,0.01,0.0,0.0,0.01
4.684002876281738,-0.05,0.02,0.03,0.06
4.6983561515808105,-0.05,0.06,0.03,0.08
4.703085899353027,-0.04,0.04,0.07,0.09
4.718001842498779,-0.1,0.03,0.15,0.18
4.7430100440979,-0.16,0.11,0.14,0.23
4.744699001312256,-0.16,0.11,-0.07,0.2
4.746022939682007,-0.24,0.17,-0.16,0.33
4.75247597694397,-0.15,0.17,-0.03,0.22
4.7623419761657715,-0.43,0.09,0.27,0.51
4.7722368240356445,-0.77,0.16,0.07,0.78
4.78198504447937,0.12,0.21,-0.3,0.38
4.792080879211426,0.48,0.05,-0.16,0.5
4.802361011505127,-0.19,-0.04,0.17,0.25
4.814310073852539,-0.29,-0.12,0.3,0.43
4.822103023529053,0.19,-0.05,0.15,0.24
4.850221157073975,0.34,0.0,-0.13,0.36
4.8519368171691895,0.06,0.0,-0.04,0.07
4.853294849395752,-0.1,0.13,0.47,0.49
4.86702299118042,0.07,0.04,0.34,0.34
4.8711559772491455,0.41,-0.08,-0.05,0.42
4.882748126983643,0.4,-0.09,-0.15,0.43
4.891116142272949,0.1,-0.04,-0.24,0.26
4.901040077209473,0.09,-0.04,-0.35,0.36
4.9115309715271,0.31,-0.14,-0.49,0.59
4.923336029052734,0.31,-0.13,-0.47,0.57
4.946108818054199,-0.06,0.02,-0.36,0.36
4.947685956954956,-0.28,0.19,-0.1,0.35
4.950623035430908,-0.2,0.12,0.22,0.32
4.967589855194092,-0.09,-0.13,0.27,0.31
4.970504999160767,0.07,-0.27,0.22,0.35
4.983241081237793,0.29,-0.29,-0.06,0.41
4.990546941757202,0.29,-0.17,-0.09,0.34
5.0002241134643555,0.15,-0.05,-0.03,0.16
5.010457992553711,0.03,-0.05,-0.02,0.06
5.022955894470215,-0.08,0.01,-0.03,0.08
5.045120000839233,0.02,-0.03,-0.11,0.11
5.046993017196655,0.21,-0.06,-0.22,0.31
5.049828052520752,0.33,-0.1,-0.3,0.45
5.066770076751709,0.48,-0.1,-0.35,0.6
5.069683074951172,0.46,-0.02,-0.29,0.54
5.082628011703491,0.05,0.14,-0.2,0.24
5.08966588973999,-0.29,0.28,-0.03,0.4
5.099638938903809,-0.25,0.2,0.12,0.34
5.112692832946777,-0.07,0.06,0.2,0.22
5.121477127075195,0.0,-0.03,0.22,0.22
5.145966053009033,-0.01,0.02,0.12,0.12
5.147730827331543,0.06,0.02,0.06,0.08
5.149127006530762,0.11,-0.03,0.03,0.11
5.16656494140625,0.29,-0.05,0.0,0.29
5.1688690185546875,0.35,-0.06,-0.04,0.35
5.182646036148071,0.12,0.01,-0.2,0.23
5.188812971115112,-0.22,0.24,-0.52,0.61
5.198793888092041,-0.43,0.5,-0.55,0.85
5.212357997894287,-0.47,0.55,-0.59,0.93
5.220921993255615,-0.4,0.36,-0.77,0.93
5.252226829528809,-0.32,0.3,-0.73,0.85
5.253933906555176,-0.33,0.39,-0.61,0.79
5.255324840545654,-0.4,0.39,-0.93,1.08
5.266777992248535,-0.31,0.32,-1.22,1.29
5.268209934234619,-0.34,0.39,-0.98,1.1
5.282732009887695,-0.74,0.54,-0.74,1.17
5.288059949874878,-1.12,0.77,-0.75,1.55
5.29819393157959,-1.19,1.01,-0.84,1.77
5.308161973953247,-1.25,1.16,-1.23,2.1
5.320655822753906,-1.21,1.31,-1.66,2.43
5.351577997207642,-0.94,1.35,-1.69,2.35
5.353474140167236,-0.96,1.16,-1.61,2.2
5.354866981506348,-1.2,1.23,-1.18,2.08
5.367283821105957,-1.37,1.59,-1.02,2.33
5.368715047836304,-1.74,2.09,-1.76,3.23
5.383196830749512,-2.32,3.17,-1.77,4.3
5.387253999710083,-2.49,4.04,-1.42,4.95
5.39824914932251,-1.95,3.4,-2.06,4.42
5.4072418212890625,-1.3,2.32,-2.54,3.67
5.419904947280884,-1.04,2.57,-2.89,4.0
5.44835901260376,-1.22,3.1,-3.64,4.93
5.450001955032349,-1.44,3.56,-4.48,5.9
5.451444149017334,-1.41,4.0,-4.7,6.33
5.467347145080566,-0.93,3.73,-4.46,5.88
5.468792915344238,-0.14,2.78,-4.06,4.92
5.48307991027832,-0.09,1.82,-3.6,4.03
5.486649990081787,-0.36,1.53,-3.1,3.47
5.498335838317871,0.03,1.75,-2.33,2.91
5.506525993347168,0.91,0.88,-2.17,2.51
5.518620014190674,0.75,-0.57,-2.88,3.03
5.545527935028076,-0.22,-1.0,-2.71,2.89
5.547404050827026,-2.04,-1.67,-2.32,3.51
5.5488669872283936,-2.18,0.23,1.06,2.43
5.566802978515625,-2.31,-2.34,0.49,3.32
5.568285942077637,-4.34,-4.5,-1.25,6.37
5.58424186706543,-6.32,-3.23,-0.86,7.14
5.585761070251465,-7.4,-2.31,-1.07,7.82
5.602939128875732,-7.08,-2.43,-1.48,7.63
5.60658597946167,-6.07,-3.09,-1.29,6.93
5.616064071655273,-5.4,-3.85,-1.12,6.72
5.628885984420776,-5.15,-4.01,-0.96,6.59
5.653201103210449,-4.81,-3.4,-0.84,5.94
5.654775142669678,-4.34,-2.54,-0.77,5.08
5.656540870666504,-3.94,-1.75,-0.71,4.36
5.6680378913879395,-3.73,-1.0,-0.76,3.93
5.67547082901001,-3.74,-0.41,-0.89,3.86
5.685044050216675,-3.84,0.11,-0.86,3.93
5.695155143737793,-3.78,0.37,-0.77,3.87
5.70480489730835,-3.42,0.57,-0.59,3.51
5.715466022491455,-2.74,0.71,-0.35,2.85
5.728433132171631,-2.16,0.71,-0.23,2.28
5.75092887878418,-2.05,0.7,0.04,2.16
5.75248384475708,-2.05,0.86,0.32,2.24
5.754503011703491,-1.82,0.9,0.54,2.1
5.767307996749878,-1.47,0.72,0.77,1.8
5.774724960327148,-1.29,0.47,1.12,1.77
5.784358024597168,-1.27,0.16,1.45,1.93
5.794384956359863,-1.27,-0.21,1.69,2.12
5.804058074951172,-1.18,-0.56,1.87,2.28
5.814464092254639,-0.84,-0.77,2.01,2.31
5.824676036834717,-0.26,-0.97,2.13,2.35
5.850322961807251,0.31,-1.11,2.08,2.37
5.851963043212891,0.68,-1.3,1.92,2.41
5.853848934173584,0.9,-1.44,1.9,2.54
5.868471145629883,1.3,-1.48,2.05,2.84
5.8737101554870605,1.98,-1.67,2.27,3.44
5.883466005325317,2.69,-2.0,2.72,4.31
5.893371105194092,3.24,-2.38,3.16,5.11
5.903380870819092,3.58,-2.56,3.49,5.61
5.91653299331665,3.82,-2.44,3.63,5.8
5.925485134124756,4.25,-1.86,3.68,5.92
5.951161861419678,5.24,-1.1,3.54,6.41
5.952796936035156,6.46,-0.74,3.34,7.3
5.954457998275757,7.34,-0.4,3.5,8.14
5.967831134796143,7.73,-0.17,3.8,8.61
5.9729650020599365,8.02,-0.31,4.17,9.04
5.9828009605407715,8.56,-0.82,4.53,9.71
5.992950916290283,9.45,-1.59,4.57,10.61
6.002599000930786,10.18,-2.31,4.49,11.36
6.012816905975342,10.4,-3.1,3.87,11.52
6.022675037384033,9.85,-4.35,2.93,11.15
6.056924819946289,9.12,-6.01,2.15,11.13
6.058665990829468,4.66,-5.87,1.09,7.57
6.060122013092041,-7.07,-3.9,-6.43,10.32
6.063538074493408,-21.6,5.46,-27.11,35.09
6.083554029464722,-25.43,50.97,-11.89,58.18
6.084999084472656,-10.72,60.64,17.34,63.97
6.0987420082092285,-2.56,10.64,-13.86,17.65
6.101860046386719,3.18,-10.24,-4.83,11.76
6.114899158477783,5.39,-18.31,6.73,20.23
6.122288942337036,8.61,-16.62,7.4,20.12
6.154388904571533,11.0,-13.44,4.68,17.98
6.156023025512695,9.45,-9.6,2.3,13.66
6.157732009887695,4.49,-3.14,2.46,6.0
6.164506912231445,0.68,2.05,1.49,2.62
6.1714301109313965,-1.33,5.33,-2.73,6.13
6.183290958404541,-1.46,6.95,-4.37,8.33
6.19148588180542,-0.89,5.12,-2.76,5.88
6.201557159423828,0.29,0.75,0.09,0.8
6.21125602722168,1.45,-1.96,2.25,3.31
6.221467018127441,1.44,-3.18,2.05,4.04
6.254266977310181,0.64,-2.53,1.13,2.84
6.256005048751831,-0.07,-0.36,0.03,0.36
6.2573981285095215,-0.18,0.99,-1.37,1.69
6.266757965087891,0.13,0.96,-1.99,2.21
6.270751953125,0.49,0.45,-1.27,1.43
6.283540964126587,0.47,0.04,-0.24,0.52
6.290459156036377,0.08,-0.02,0.27,0.28
6.300395965576172,-0.02,0.2,0.32,0.37
6.310357093811035,-0.09,0.32,0.19,0.38
6.320081949234009,-0.15,0.34,0.06,0.37
6.351433992385864,-0.06,0.22,0.01,0.22
6.353162050247192,0.09,0.02,0.01,0.09
6.3544769287109375,0.14,-0.21,0.02,0.25
6.367983818054199,0.04,-0.44,-0.08,0.44
6.369646072387695,-0.09,-0.44,-0.12,0.46
6.38351583480835,-0.2,-0.24,-0.08,0.32
6.389843940734863,-0.24,0.1,-0.1,0.27
6.399564027786255,-0.11,0.3,0.0,0.31
6.409637928009033,0.06,0.24,0.13,0.27
6.422131061553955,0.0,0.17,0.18,0.24
6.432426929473877,-0.34,0.27,0.22,0.48
6.453459978103638,-0.68,0.38,0.1,0.78
6.455082893371582,-0.86,0.45,-0.21,0.99
6.459011077880859,-1.02,0.49,-0.48,1.22
6.469244003295898,-1.19,0.43,-0.63,1.41
6.479190826416016,-1.25,0.43,-0.63,1.46
6.4893598556518555,-1.19,0.37,-0.53,1.35
6.498885154724121,-1.03,0.39,-0.36,1.15
6.508991003036499,-0.74,0.5,-0.07,0.89
6.521297931671143,-0.56,0.54,-0.1,0.78
6.531391143798828,-0.73,0.62,-0.34,1.01
6.552574157714844,-1.33,0.68,-0.56,1.59
6.554196834564209,-2.05,0.72,-0.84,2.32
6.558491945266724,-2.41,0.74,-1.22,2.8
6.569087982177734,-2.3,0.84,-1.26,2.75
6.578402996063232,-1.83,0.95,-0.9,2.24
6.588555812835693,-1.61,0.88,-0.81,2.0
6.598420143127441,-1.51,0.84,-0.89,1.94
6.611583948135376,-1.29,0.86,-1.05,1.87
6.617908000946045,-1.06,1.01,-1.14,1.85
6.630672931671143,-1.16,1.29,-1.11,2.05
6.651170969009399,-1.59,1.9,-0.61,2.55
6.652768135070801,-1.7,2.52,-0.65,3.1
6.657627105712891,-1.47,2.93,-1.13,3.46
6.667704105377197,-1.52,3.32,-0.74,3.72
6.677455902099609,-2.0,3.46,-0.68,4.05
6.687554836273193,-2.91,3.76,-0.65,4.79
6.697658061981201,-3.23,4.63,0.05,5.64
6.707484006881714,-3.97,5.4,-0.1,6.7
6.717997074127197,-5.31,6.69,0.17,8.54
6.730198860168457,-7.29,8.6,0.16,11.27
6.751514911651611,-9.01,9.38,-1.65,13.11
6.753116130828857,-10.59,9.65,-3.12,14.66
6.7568840980529785,-11.89,9.71,-4.56,16.01
6.767215013504028,-12.09,9.69,-5.86,16.56
6.77686882019043,-11.78,9.59,-6.21,16.41
6.786806106567383,-10.96,11.08,-3.79,16.03
6.796785831451416,-8.07,13.47,-2.18,15.85
6.807359933853149,-2.96,13.32,-4.2,14.27
6.817131042480469,2.43,12.0,-3.8,12.81
6.829797983169556,4.0,8.35,-1.25,9.34
6.860453128814697,1.06,1.89,-3.55,4.15
6.862052917480469,-4.31,-2.37,-5.29,7.22
6.863430976867676,-5.82,-3.01,-5.81,8.75
6.86582088470459,-0.14,1.98,-0.89,2.17
6.876163005828857,2.35,0.29,-1.11,2.61
6.886270046234131,-0.78,-1.52,-5.2,5.47
6.896075963973999,-3.5,-1.53,-4.93,6.23
6.905643939971924,-5.96,-1.31,-3.97,7.28
6.9157960414886475,-8.92,-1.56,-4.12,9.94
6.925748825073242,-10.52,-2.2,-3.37,11.26
6.95812201499939,-10.39,-3.3,-1.97,11.07
6.959821939468384,-9.31,-4.7,0.23,10.43
6.961525917053223,-8.2,-6.24,1.68,10.44
6.965296983718872,-7.42,-7.06,2.36,10.51
6.984013080596924,-6.94,-6.72,2.63,10.01
6.9854960441589355,-6.7,-5.68,2.05,9.01
6.9992640018463135,-6.75,-4.65,0.69,8.22
7.005776882171631,-6.88,-3.91,-0.52,7.93
7.019957065582275,-6.71,-3.56,-1.28,7.7
7.025571823120117,-6.15,-3.61,-1.8,7.35
7.0577919483184814,-5.37,-3.96,-2.13,7.0
7.059528827667236,-4.64,-4.4,-2.18,6.75
7.061218023300171,-4.05,-4.94,-2.13,6.73
7.064571857452393,-3.57,-5.56,-2.19,6.96
7.084036827087402,-3.15,-6.09,-2.34,7.24
7.085516929626465,-2.82,-6.53,-2.46,7.52
7.099262952804565,-2.7,-6.68,-2.15,7.51
7.104313850402832,-2.73,-6.2,-1.08,6.85
7.115504026412964,-2.62,-5.35,0.15,5.95
7.124752998352051,-1.29,-4.25,0.6,4.48
7.157691955566406,1.15,-3.25,0.19,3.45
7.159392833709717,3.76,-1.72,0.61,4.17
7.1609930992126465,5.93,0.56,1.68,6.18
7.164057016372681,7.23,3.12,2.77,8.34
7.184413909912109,8.12,5.98,2.85,10.47
7.185930013656616,10.2,9.44,3.24,14.27
7.1988489627838135,13.11,12.87,3.52,18.7
7.203675031661987,15.78,15.72,3.0,22.47
7.213878154754639,18.36,16.95,3.27,25.2
7.2240729331970215,21.16,14.44,4.54,26.01
7.235728025436401,23.29,10.44,6.3,26.28
7.260406970977783,23.73,7.17,8.18,26.1
7.2622950077056885,20.57,6.47,8.61,23.21
7.263833999633789,13.7,6.86,5.76,16.36
7.273241996765137,3.13,-4.18,-1.94,5.57
7.283051013946533,-9.48,-7.15,-16.3,20.16
7.293061017990112,-23.24,17.89,-21.68,36.47
7.303630828857422,-20.6,47.0,8.9,52.08
7.313572883605957,-9.34,24.66,7.99,27.55
7.322742938995361,2.77,1.8,1.83,3.77
7.335477828979492,9.18,-9.41,5.21,14.14
7.358799934387207,12.08,-12.81,6.0,18.6
7.360013008117676,12.06,-11.08,2.65,16.59
7.362039089202881,10.27,-6.51,1.28,12.22
7.3722758293151855,5.9,-2.96,0.77,6.64
7.382475852966309,1.81,-0.61,-0.12,1.91
7.392277002334595,-0.7,2.08,-0.58,2.26
7.402240991592407,-1.26,3.16,-0.85,3.5
7.412221908569336,0.19,1.65,0.21,1.67
7.422061920166016,1.75,-0.28,0.5,1.84
7.4318108558654785,2.27,-1.03,0.71,2.59
7.459666013717651,1.9,-1.18,0.85,2.39
7.461261034011841,1.26,-0.83,0.7,1.66
7.463006019592285,0.89,-0.46,0.96,1.38
7.471781969070435,0.68,-0.48,1.06,1.34
7.481596946716309,0.52,-0.46,0.74,1.01
7.4915690422058105,0.25,-0.17,0.54,0.61
7.501495838165283,-0.05,0.16,0.18,0.24
7.511250972747803,-0.03,0.23,-0.7,0.73
7.521221160888672,0.16,0.23,-1.16,1.19
7.533452987670898,0.05,0.29,-0.91,0.95
7.555974006652832,-0.28,0.26,-0.72,0.81
7.557584047317505,-0.48,0.15,-0.96,1.08
7.561131000518799,-0.6,0.28,-0.81,1.04
7.570780992507935,-0.71,0.48,-0.66,1.08
7.580996036529541,-0.9,0.59,-0.64,1.25
7.5907979011535645,-1.05,0.65,-0.59,1.36
7.600721836090088,-1.0,0.55,-0.77,1.37
7.6104888916015625,-0.8,0.45,-0.75,1.18
7.621081829071045,-0.86,0.46,-0.58,1.13
7.632585048675537,-1.19,0.62,-0.29,1.37
7.663096904754639,-1.27,0.7,0.11,1.45
7.664714813232422,-1.11,0.58,0.13,1.25
7.666155815124512,-0.81,0.42,-0.11,0.91
7.68459415435791,-0.61,0.29,-0.4,0.78
7.686105966567993,-0.62,0.25,-0.55,0.86
7.700731039047241,-0.75,0.27,-0.58,0.98
7.702136039733887,-0.89,0.38,-0.75,1.22
7.7162840366363525,-1.05,0.62,-0.93,1.53
7.72012186050415,-1.35,0.96,-1.15,2.01
7.735597133636475,-1.66,1.34,-1.22,2.45
7.76220703125,-1.89,1.66,-1.27,2.81
7.764101982116699,-2.07,1.93,-1.28,3.1
7.7655439376831055,-1.95,2.47,-0.68,3.21
7.784738063812256,-2.03,2.86,-0.95,3.63
7.786244869232178,-2.12,3.45,-0.93,4.15
7.8005759716033936,-2.47,3.65,-0.95,4.5
7.802052974700928,-2.86,3.77,-0.77,4.79
7.816257953643799,-3.26,3.63,-1.2,5.02
7.818869113922119,-3.43,3.69,-1.37,5.22
7.832738876342773,-3.76,4.23,-1.46,5.84
7.865779876708984,-4.35,4.98,-1.9,6.87
7.867120027542114,-5.29,6.19,-2.02,8.38
7.868198871612549,-6.72,8.03,-2.32,10.72
7.885059833526611,-8.24,9.39,-4.79,13.37
7.886512994766235,-9.23,10.14,-6.33,15.1
7.900274991989136,-9.6,10.53,-6.89,15.82
7.901767015457153,-9.67,9.7,-8.0,15.86
7.91627311706543,-9.67,8.39,-8.95,15.62
7.918006896972656,-9.35,9.87,-7.25,15.4
7.933015823364258,-6.99,13.83,-3.8,15.95
7.964246034622192,-2.38,15.13,-4.27,15.9
7.966071128845215,1.25,12.69,-6.53,14.32
7.967535018920898,1.52,6.74,-7.35,10.08
7.984944820404053,-1.8,1.11,-6.81,7.13
7.986441135406494,-4.7,-3.18,-5.84,8.14
8.000792026519775,-1.84,-2.17,-4.34,5.18
8.00225305557251,4.11,1.61,3.43,5.59
8.01651906967163,2.83,-1.5,2.96,4.36
8.017974853515625,-2.57,-3.32,-1.5,4.45
8.036186933517456,-6.12,-3.06,-0.9,6.9
8.037919044494629,-8.1,-1.51,-0.31,8.24
8.074625015258789,-9.79,-0.89,-0.82,9.86
8.075788021087646,-10.15,-0.67,-0.23,10.17
8.077093124389648,-8.26,-1.84,0.6,8.48
8.082684993743896,-5.71,-3.77,1.51,7.0
8.086877822875977,-4.42,-5.31,2.06,7.2
8.100890159606934,-4.35,-6.21,2.18,7.88
8.106646060943604,-4.49,-6.34,1.81,7.97
8.116636991500854,-4.15,-5.99,0.82,7.33
8.126744985580444,-3.72,-5.26,-0.31,6.44
8.136567115783691,-3.53,-4.7,-1.35,6.03
8.164928913116455,-4.03,-4.06,-1.85,6.01
8.166769027709961,-4.59,-4.24,-2.43,6.7
8.168035984039307,-4.74,-4.47,-2.64,7.02
8.185099124908447,-4.7,-4.65,-2.32,7.0
8.186596870422363,-4.35,-5.25,-1.8,7.05
8.200999021530151,-4.02,-6.05,-1.34,7.38
8.206156015396118,-3.92,-6.85,-1.02,7.95
8.216459035873413,-4.03,-7.35,-0.87,8.42
8.22596788406372,-4.21,-7.63,-0.81,8.75
8.236467838287354,-4.36,-7.7,-0.79,8.88
8.26858401298523,-4.19,-7.44,-0.33,8.54
8.270045042037964,-3.82,-6.81,0.43,7.82
8.271067142486572,-3.14,-6.1,0.94,6.92
8.28532600402832,-1.98,-5.08,1.3,5.6
8.286813974380493,-0.29,-3.76,0.72,3.83
8.301028966903687,1.85,-2.16,-0.07,2.84
8.305481910705566,4.44,-0.09,0.43,4.46
8.316612005233765,7.23,2.08,1.3,7.63
8.32515001296997,9.54,4.31,1.87,10.63
8.335455894470215,10.81,6.83,2.01,12.94
8.365258932113647,11.97,9.66,2.33,15.55
8.367089033126831,13.73,11.84,2.45,18.29
8.368298053741455,16.02,13.09,2.78,20.87
8.383368968963623,19.01,12.4,4.04,23.05
8.384886980056763,21.31,10.5,5.1,24.29
8.400950908660889,22.38,9.51,6.94,25.28
8.404518127441406,19.46,11.9,6.18,23.63
8.414523124694824,13.9,10.91,2.79,17.88
8.424262046813965,4.97,-1.02,-6.05,7.89
8.43420696258545,-8.66,2.16,-16.41,18.68
8.47280216217041,-17.21,33.78,-8.37,38.82
8.474591970443726,-18.57,35.85,4.31,40.6
8.475723028182983,-6.85,7.0,0.14,9.79
8.482929944992065,3.95,-6.46,3.51,8.34
8.483978033065796,8.3,-12.51,7.23,16.66
8.501121997833252,11.15,-12.82,4.56,17.59
8.503623962402344,11.37,-8.61,3.73,14.74
8.51640796661377,5.91,-3.21,3.2,7.44
8.523645877838135,0.86,-0.2,2.82,2.95
8.533602952957153,-1.25,2.38,-0.76,2.79
8.56895399093628,-0.47,3.26,-2.21,3.96
8.570287942886353,1.02,1.68,-0.47,2.02
8.571293830871582,1.78,-0.12,0.56,1.86
8.58522081375122,1.61,-1.01,1.1,2.19
8.586691856384277,1.44,-1.09,0.63,1.91
8.60109806060791,1.51,-0.68,0.1,1.65
8.602790832519531,1.31,-0.49,0.07,1.4
8.616448879241943,0.99,-0.43,0.19,1.09
8.622965812683105,0.89,-0.32,0.18,0.96
8.632797002792358,0.76,-0.17,0.06,0.78
8.665875911712646,0.7,0.03,-0.02,0.7
8.666921138763428,0.6,0.06,-0.03,0.6
8.667711973190308,0.31,0.03,0.4,0.5
8.681187152862549,-0.08,-0.01,0.86,0.86
8.682389974594116,-0.26,-0.02,0.87,0.9
8.701105117797852,-0.1,-0.08,0.12,0.17
8.702713012695312,0.31,-0.04,-0.56,0.64
8.71529483795166,0.54,0.04,-0.63,0.83
8.721997022628784,0.56,-0.1,-0.48,0.74
8.73325800895691,0.57,-0.31,-0.19,0.67
8.775190830230713,0.49,-0.36,-0.07,0.61
8.776762962341309,0.22,-0.13,0.03,0.25
8.777731895446777,-0.15,0.1,0.1,0.2
8.780838966369629,-0.39,0.27,0.24,0.53
8.801011085510254,-0.42,0.25,0.25,0.54
8.802438974380493,-0.31,0.12,0.08,0.34
8.816286087036133,-0.3,0.12,0.31,0.44
8.8176589012146,-0.59,0.21,0.61,0.87
8.832319021224976,-0.81,0.32,0.58,1.04
8.833775043487549,-0.72,0.38,0.19,0.83
8.853482007980347,-0.44,0.4,-0.5,0.77
8.880827903747559,-0.27,0.6,-0.87,1.09
8.882138013839722,-0.41,0.78,-0.87,1.23
8.88310194015503,-0.89,0.83,-0.83,1.47
8.901732921600342,-1.46,0.92,-0.73,1.87
8.903173923492432,-1.74,1.07,-0.89,2.22
8.916496992111206,-1.86,1.17,-0.93,2.38
8.917960166931152,-2.07,1.38,-0.99,2.67
8.933116912841797,-1.9,1.44,-1.29,2.71
8.934606075286865,-1.32,1.41,-1.62,2.52
8.949617862701416,-0.8,1.41,-2.05,2.61
8.975861072540283,-0.8,1.6,-2.53,3.09
8.977308988571167,-0.84,2.33,-1.97,3.16
8.978350162506104,-1.07,2.71,-1.27,3.17
8.980729103088379,-1.41,2.76,-0.63,3.16
9.001113891601562,-1.8,2.57,-0.44,3.16
9.002445936203003,-1.87,2.35,-0.63,3.06
9.01692008972168,-1.78,2.15,-0.57,2.84
9.019973039627075,-1.96,2.23,0.09,2.97
9.033048152923584,-2.45,2.22,-0.31,3.32
9.039586067199707,-2.71,2.27,-1.06,3.69
9.078988075256348,-2.86,2.49,-1.4,4.04
9.080476999282837,-3.12,2.67,-1.56,4.39
9.081462860107422,-3.73,3.18,-1.54,5.13
9.102208137512207,-4.78,4.47,-1.44,6.7
9.103662014007568,-6.08,6.54,-1.92,9.13
9.118153095245361,-6.96,7.97,-4.73,11.59
9.11962890625,-7.44,8.5,-6.62,13.09
9.133595943450928,-7.87,9.2,-7.54,14.26
9.135020017623901,-8.1,8.9,-8.67,14.83
9.153449058532715,-8.13,9.23,-8.32,14.84
9.183181047439575,-7.06,11.86,-5.81,14.97
9.18448781967163,-4.54,13.12,-5.08,14.78
9.185469150543213,-0.93,11.84,-5.44,13.06
9.202011108398438,1.77,9.84,-4.84,11.1
9.20351505279541,0.17,5.25,-5.75,7.78
9.218213081359863,-4.09,0.71,-6.05,7.33
9.219692945480347,-6.27,-2.18,-5.22,8.44
9.23348593711853,-1.88,1.36,-1.95,3.03
9.234950065612793,2.2,0.47,1.28,2.58
9.249680042266846,-1.21,-3.61,-2.41,4.5
9.2760009765625,-5.08,-3.74,-3.22,7.08
9.277328968048096,-7.61,-2.09,-2.14,8.17
9.278378009796143,-9.64,-1.11,-2.65,10.05
9.281092166900635,-10.3,-0.59,-2.64,10.64
9.301331996917725,-9.13,-0.96,-1.96,9.38
9.302812099456787,-7.38,-2.02,-0.43,7.66
9.316872119903564,-6.31,-3.18,0.95,7.12
9.318359851837158,-5.98,-4.48,1.53,7.62
9.333063125610352,-5.83,-5.4,1.51,8.08
9.337360858917236,-5.54,-5.62,1.08,7.96
9.377303123474121,-5.15,-5.47,0.28,7.51
9.378453016281128,-4.75,-5.22,-0.58,7.08
9.37975001335144,-4.44,-4.65,-1.35,6.56
9.381253957748413,-4.09,-4.16,-1.79,6.1
9.386803150177002,-3.74,-3.83,-2.12,5.75
9.396799087524414,-3.47,-3.73,-2.35,5.61
9.407305002212524,-3.34,-3.8,-2.39,5.59
9.416830062866211,-3.09,-3.98,-2.22,5.5
9.4268479347229,-2.7,-4.33,-2.08,5.51
9.436520099639893,-2.31,-4.71,-2.04,5.62
9.472507953643799,-2.04,-4.94,-1.92,5.67
9.473855972290039,-2.01,-5.05,-1.58,5.66
9.474886894226074,-2.13,-4.82,-1.06,5.37
9.485172033309937,-1.97,-4.36,-0.97,4.88
9.48623514175415,-0.86,-3.87,-1.19,4.13
9.501364946365356,0.73,-3.39,-1.2,3.66
9.506147861480713,1.89,-2.71,-0.57,3.35
9.517765998840332,2.74,-1.7,0.44,3.25
9.526301860809326,3.66,-0.42,1.28,3.9
9.53583812713623,4.73,1.15,2.03,5.27
9.572585105895996,6.24,3.12,2.94,7.57
9.57385802268982,8.01,4.99,3.55,10.08
9.574906826019287,9.45,6.24,3.88,11.97
9.585399150848389,10.81,7.3,4.69,13.86
9.586451053619385,12.61,8.02,5.18,15.81
9.601011037826538,14.2,8.14,5.08,17.13
9.605484962463379,15.68,8.93,4.99,18.72
9.617105960845947,16.28,9.15,4.34,19.17
9.62537693977356,16.52,8.87,4.49,19.28
9.63510513305664,16.18,7.97,5.23,18.77
9.645164966583252,13.91,7.6,5.99,16.94
9.676646947860718,9.76,8.52,5.29,13.99
9.677825927734375,2.01,-1.91,-2.05,3.44
9.67913007736206,-10.43,-5.85,-13.41,17.96
9.684604167938232,-21.89,15.72,-13.82,30.28
9.701637029647827,-18.53,42.94,8.48,47.53
9.704585075378418,-8.65,20.34,6.32,22.98
9.717103004455566,2.16,0.7,0.49,2.32
9.724460124969482,10.82,-3.87,3.96,12.15
9.734231948852539,12.62,-9.19,5.51,16.55
9.744490146636963,11.79,-9.4,0.83,15.1
9.77525806427002,9.29,-5.58,0.07,10.83
9.776525974273682,5.59,-2.48,1.14,6.22
9.777920007705688,2.22,-0.44,0.44,2.3
9.783761978149414,0.37,1.8,0.05,1.83
9.793755054473877,-0.43,1.4,-0.46,1.53
9.803938865661621,0.09,0.47,-0.3,0.56
9.814059019088745,0.8,0.18,0.5,0.96
9.823838949203491,1.17,-0.32,1.54,1.96
9.833662986755371,0.89,-0.94,2.05,2.42
9.843698024749756,0.36,-1.0,1.1,1.52
9.875224113464355,0.47,-0.33,0.31,0.65
9.876461029052734,0.81,0.06,0.02,0.81
9.877799034118652,0.88,-0.02,-0.12,0.88
9.882993936538696,0.77,-0.26,0.26,0.85
9.893004894256592,0.69,-0.36,0.67,1.02
9.90292501449585,0.69,-0.37,0.64,1.01
9.913186073303223,0.66,-0.3,0.39,0.82
9.922799110412598,0.43,-0.16,-0.28,0.53
9.933052062988281,0.27,0.07,-0.68,0.73
9.942888021469116,0.18,0.23,-0.35,0.45
9.97349214553833,-0.01,0.25,0.31,0.39
9.974828004837036,-0.24,0.2,0.59,0.66
9.975808143615723,-0.2,0.07,-0.31,0.37
9.98593282699585,0.13,0.1,-1.17,1.18
9.992291927337646,0.09,0.28,-1.3,1.33
10.002277851104736,-0.36,0.5,-0.73,0.95
10.012393951416016,-0.78,0.49,-0.17,0.93
10.022450923919678,-0.84,0.31,0.0,0.89
10.032344818115234,-0.8,0.32,0.22,0.88
10.042264938354492,-0.83,0.43,0.17,0.95
10.080312013626099,-0.74,0.51,-0.29,0.94
10.081684112548828,-0.65,0.52,-0.69,1.08
10.082698822021484,-0.59,0.51,-0.86,1.16
10.102086067199707,-0.49,0.47,-0.81,1.05
10.103518009185791,-0.61,0.49,-0.7,1.04
10.11854887008667,-0.84,0.69,-0.51,1.2
10.120041847229004,-1.02,0.9,-0.43,1.42
10.13395881652832,-1.23,1.02,-0.52,1.68
10.135419845581055,-1.44,1.12,-0.78,1.98
10.15019416809082,-1.72,1.3,-0.72,2.27
10.178871154785156,-1.79,1.42,-0.56,2.35
10.18022108078003,-1.72,1.43,-0.65,2.32
10.181209087371826,-1.63,1.36,-1.19,2.43
10.20193600654602,-1.78,1.7,-1.68,2.98
10.202963829040527,-1.81,2.25,-1.63,3.31
10.218812942504883,-2.01,2.57,-1.39,3.54
10.220351934432983,-2.28,2.61,-1.14,3.64
10.23383903503418,-2.53,2.59,-0.95,3.74
10.23530912399292,-2.68,2.67,-0.77,3.86
10.250373840332031,-2.83,2.78,-0.88,4.06
10.282124042510986,-3.12,2.95,-1.08,4.42
10.283416032791138,-3.45,3.17,-1.26,4.85
10.284394025802612,-3.82,3.55,-1.14,5.33
10.302129030227661,-4.51,4.17,-1.1,6.24
10.303563117980957,-5.53,4.93,-1.28,7.51
10.318830966949463,-6.71,6.17,-1.27,9.2
10.320287942886353,-8.04,8.01,-1.66,11.46
10.333839893341064,-9.34,9.31,-4.02,13.78
10.335314989089966,-10.02,9.42,-5.81,14.92
10.35028886795044,-10.6,9.36,-5.99,15.35
10.379869937896729,-11.45,9.56,-6.61,16.31
10.381234169006348,-11.05,12.52,-5.02,17.43
10.382243156433105,-7.73,15.37,-4.01,17.66
10.402183055877686,-2.06,13.47,-6.87,15.26
10.403256893157959,2.25,11.42,-6.02,13.1
10.41877293586731,2.24,7.36,-4.53,8.92
10.420253038406372,-1.61,2.14,-4.82,5.51
10.433961868286133,-5.07,-1.53,-3.69,6.45
10.435431957244873,-3.15,-3.04,-5.06,6.69
10.45038104057312,4.42,1.93,-1.3,4.99
10.451817035675049,6.87,-0.3,1.83,7.11
10.498124122619629,1.61,-3.5,-3.51,5.21
10.49925184249878,-3.99,-3.89,-3.73,6.7
10.500227928161621,-7.03,-3.12,-1.96,7.93
10.520355939865112,-9.06,-2.47,-1.95,9.59
10.52183485031128,-10.34,-2.32,-1.77,10.74
10.535146951675415,-9.52,-2.79,-0.78,9.95
10.536607027053833,-7.45,-3.76,0.53,8.36
10.550960063934326,-6.07,-4.9,1.64,7.97
10.552474021911621,-5.66,-5.83,2.13,8.4
10.566924095153809,-5.69,-6.26,2.31,8.76
10.59717082977295,-5.44,-6.18,1.83,8.43
10.598659992218018,-5.01,-5.65,0.83,7.59
10.599637031555176,-4.79,-5.09,-0.1,6.99
10.618230819702148,-4.92,-4.66,-1.02,6.85
10.61925196647644,-4.93,-4.21,-1.71,6.7
10.635210037231445,-4.6,-3.88,-2.12,6.38
10.636714935302734,-3.95,-4.03,-2.14,6.03
10.650691032409668,-3.2,-4.43,-1.99,5.81
10.652199029922485,-2.51,-5.03,-1.65,5.85
10.66693115234375,-1.93,-5.67,-1.49,6.17
10.695756912231445,-1.57,-6.25,-1.56,6.63
10.697311878204346,-1.37,-6.69,-1.66,7.02
10.69836711883545,-1.3,-6.52,-1.12,6.74
10.718953132629395,-1.43,-5.95,-0.44,6.13
10.720033168792725,-1.26,-5.3,-0.3,5.45
10.735540866851807,-0.36,-4.37,-0.28,4.39
10.737051963806152,0.88,-3.5,0.1,3.61
10.751078128814697,2.08,-2.12,1.52,3.33
10.752561092376709,3.5,-0.21,3.12,4.69
10.767075061798096,4.86,1.6,3.85,6.4
10.796955108642578,5.86,3.46,4.12,7.95
10.798277854919434,7.11,6.08,4.84,10.53
10.799309015274048,8.93,8.36,5.2,13.29
10.819041013717651,11.36,9.05,4.76,15.28
10.820050954818726,13.72,8.62,4.13,16.72
10.835114002227783,15.92,7.74,4.24,18.2
10.836164951324463,17.23,7.34,3.42,19.03
10.851186990737915,17.67,7.4,2.72,19.34
10.852673053741455,17.48,6.81,1.94,18.85
10.867069959640503,15.04,8.5,2.42,17.44
10.895601034164429,10.83,12.22,2.89,16.58
10.89702296257019,3.95,0.88,-4.95,6.39
10.898024082183838,-8.81,-1.94,-13.79,16.47
10.919165134429932,-17.7,24.04,-8.7,31.09
10.920217037200928,-13.61,41.63,5.64,44.15
10.935271978378296,-6.13,10.06,-1.57,11.88
10.936287879943848,4.73,-1.75,-1.03,5.14
10.951213836669922,11.3,-5.2,7.24,14.39
10.952697992324829,11.35,-10.73,6.39,16.87
10.967238903045654,10.35,-10.06,1.96,14.56
10.995435953140259,7.9,-4.63,3.92,9.96
10.99681806564331,3.61,-0.93,3.31,4.98
10.99778413772583,0.42,1.44,1.6,2.19
11.000143051147461,-1.19,2.16,-0.28,2.48
11.001579999923706,-0.88,0.98,-0.19,1.33
11.004501819610596,1.02,0.01,0.43,1.1
11.014670848846436,2.05,-0.1,0.19,2.06
11.024571895599365,1.39,-0.33,-0.54,1.52
11.034360885620117,0.63,-0.45,-0.36,0.85
11.044200897216797,0.54,-0.33,-0.32,0.7
11.081063985824585,0.83,-0.38,-0.42,1.0
11.082190036773682,0.92,-0.55,-0.46,1.16
11.082982063293457,0.76,-0.48,-0.41,0.98
11.102340936660767,0.67,-0.21,-0.46,0.83
11.103423118591309,0.72,-0.07,-0.34,0.79
11.118527889251709,0.53,0.01,0.35,0.63
11.119576930999756,0.01,0.05,0.81,0.81
11.134253978729248,-0.22,0.02,0.53,0.57
11.135735034942627,-0.09,0.06,0.24,0.26
11.15060806274414,-0.07,0.2,0.15,0.25
11.180333137512207,-0.09,0.22,-0.2,0.31
11.181686878204346,0.05,0.1,-0.6,0.61
11.182624816894531,0.19,0.1,-0.54,0.58
11.202156066894531,0.19,0.18,-0.52,0.58
11.20303201675415,-0.02,0.15,-0.87,0.88
11.217306137084961,-0.34,0.28,-0.63,0.76
11.218343019485474,-0.61,0.46,0.0,0.76
11.234187126159668,-0.75,0.41,0.06,0.85
11.23564100265503,-0.66,0.36,-0.12,0.76
11.250546932220459,-0.54,0.43,-0.16,0.7
11.252877950668335,-0.55,0.47,-0.23,0.75
11.295747995376587,-0.74,0.45,-0.31,0.91
11.296936988830566,-0.82,0.42,-0.36,0.98
11.297944068908691,-0.64,0.43,-0.48,0.9
11.319686889648438,-0.48,0.48,-0.5,0.84
11.320745944976807,-0.49,0.54,-0.56,0.91
11.335484981536865,-0.56,0.66,-0.51,1.0
11.336944103240967,-0.7,0.74,-0.47,1.12
11.351114988327026,-1.0,0.74,-0.46,1.32
11.352470874786377,-1.36,0.8,-0.62,1.69
11.367100954055786,-1.58,0.91,-0.76,1.97
11.396636009216309,-1.69,1.06,-0.6,2.08
11.398030042648315,-1.71,1.14,-0.42,2.09
11.398957967758179,-1.66,1.14,-0.59,2.09
11.419453144073486,-1.44,1.26,-1.17,2.24
11.42049503326416,-1.41,1.79,-1.75,2.87
11.435045003890991,-1.45,2.66,-1.74,3.49
11.436087131500244,-1.63,3.22,-1.52,3.91
11.451400995254517,-1.87,3.35,-1.08,3.98
11.452864170074463,-2.35,3.24,-0.67,4.05
11.467207908630371,-2.92,3.14,-0.55,4.32
11.494395017623901,-3.24,3.24,-0.6,4.62
11.495716094970703,-3.45,3.67,-0.79,5.09
11.496746063232422,-3.94,4.14,-1.31,5.86
11.499263048171997,-4.8,4.99,-1.35,7.05
11.500743865966797,-5.94,6.55,-1.5,8.96
11.510862827301025,-6.97,7.97,-3.45,11.13
11.520834922790527,-7.84,8.8,-6.1,13.27
11.530736923217773,-8.32,9.27,-6.98,14.27
11.540518999099731,-8.7,9.32,-6.75,14.42
11.550837993621826,-9.58,8.96,-6.82,14.78
11.580626010894775,-10.32,9.05,-6.79,15.31
11.581833839416504,-9.74,11.51,-5.37,16.0
11.582653999328613,-6.52,13.22,-4.6,15.44
11.602519035339355,-1.09,11.9,-5.93,13.34
11.603572845458984,2.96,10.1,-4.74,11.54
11.618934154510498,2.32,5.11,-4.8,7.38
11.619978904724121,-2.04,0.39,-4.87,5.29
11.63405990600586,-5.34,-3.08,-3.45,7.06
11.640100955963135,-2.77,-2.04,-2.7,4.37
11.6508150100708,3.89,1.9,2.88,5.19
11.68735408782959,3.55,-1.93,0.95,4.15
11.688695907592773,-1.69,-3.72,-3.45,5.34
11.689693927764893,-5.43,-3.04,-2.21,6.6
11.703110933303833,-8.0,-2.04,-1.7,8.42
11.704187870025635,-9.85,-1.53,-1.79,10.12
11.719067096710205,-10.19,-1.54,-1.34,10.39
11.720119953155518,-8.26,-2.42,-0.07,8.6
11.734576940536499,-5.99,-3.84,1.43,7.25
11.739370822906494,-5.03,-5.03,2.35,7.49
11.75104284286499,-5.13,-5.81,2.67,8.19
11.787116050720215,-5.32,-5.94,2.28,8.29
11.788503170013428,-5.12,-5.48,1.22,7.59
11.789520025253296,-4.79,-4.83,0.15,6.8
11.802992820739746,-4.68,-4.02,-0.73,6.21
11.804058074951172,-4.55,-3.49,-1.39,5.9
11.818973064422607,-4.45,-3.5,-1.84,5.95
11.820022106170654,-4.44,-4.03,-2.07,6.34
11.834693908691406,-4.45,-4.65,-1.98,6.73
11.838438034057617,-4.22,-5.27,-1.79,6.98
11.850936889648438,-3.79,-5.85,-1.51,7.13
11.885809898376465,-3.37,-6.37,-1.18,7.3
11.887197017669678,-3.19,-7.03,-1.02,7.78
11.888204097747803,-3.37,-7.64,-0.89,8.39
11.902634143829346,-3.68,-7.71,-0.49,8.55
11.903713941574097,-3.82,-7.07,0.49,8.05
11.919126987457275,-3.59,-6.19,1.13,7.24
11.920169830322266,-2.51,-5.32,0.97,5.96
11.934659957885742,-0.73,-4.35,0.81,4.48
11.937695980072021,1.05,-3.15,1.51,3.64
11.95119595527649,2.85,-1.53,2.34,3.99
11.985546112060547,4.87,0.41,2.96,5.71
11.986910820007324,6.86,2.45,3.24,7.97
11.987924098968506,8.67,4.81,3.45,10.49
12.002867937088013,10.23,7.15,3.8,13.04
12.00392198562622,12.14,8.89,4.7,15.76
12.018996953964233,14.37,9.55,5.79,18.19
12.020060062408447,16.05,8.77,6.61,19.44
12.034285068511963,16.43,7.82,6.65,19.37
12.036618947982788,14.71,8.18,5.64,17.75
12.051290035247803,11.05,13.52,3.39,17.78
12.0570650100708,10.77,15.67,-1.19,19.05
12.096643924713135,8.08,12.6,-11.68,18.98
12.097841024398804,-3.06,22.26,-12.7,25.81
12.098850011825562,-7.96,33.64,-3.72,34.76
12.120078086853027,0.55,18.88,-1.0,18.91
12.12113094329834,6.7,-2.58,0.12,7.18
12.13537883758545,5.26,-9.94,7.3,13.4
12.136409044265747,2.37,-10.31,7.68,13.07
12.151615142822266,3.47,-8.7,6.29,11.28
12.15310001373291,4.92,-5.45,3.86,8.29
12.16774296760559,3.99,-1.09,1.64,4.44
12.195602893829346,1.63,1.85,0.79,2.58
12.196980953216553,-1.11,1.83,-0.91,2.32
12.197847843170166,-1.0,0.53,-0.76,1.36
12.199934005737305,1.13,-0.47,0.62,1.37
12.204996109008789,2.38,-0.42,0.53,2.47
12.215611934661865,2.29,0.16,0.14,2.29
12.225493907928467,1.38,0.31,0.08,1.41
12.235249996185303,0.84,-0.13,0.1,0.85
12.245078086853027,0.85,-0.65,0.42,1.14
12.255111932754517,0.84,-0.76,0.43,1.21
12.286622047424316,0.62,-0.48,0.38,0.87
12.287980079650879,0.36,-0.1,0.43,0.56
12.28888988494873,0.28,0.04,0.25,0.37
12.303066968917847,0.38,0.07,0.04,0.38
12.304494857788086,0.48,0.04,-0.04,0.48
12.319128036499023,0.45,-0.01,-0.03,0.45
12.32471513748169,0.26,0.04,-0.02,0.26
12.334434986114502,0.13,0.12,-0.26,0.31
12.344485998153687,0.14,0.15,-0.59,0.62
12.354647159576416,0.21,0.13,-0.62,0.66
12.385613918304443,0.15,0.03,-0.39,0.41
12.386904001235962,-0.16,-0.04,-0.19,0.25
12.387727975845337,-0.45,0.09,-0.23,0.51
12.40300703048706,-0.48,0.26,-0.43,0.69
12.404075145721436,-0.39,0.38,-0.6,0.81
12.41899585723877,-0.43,0.46,-0.55,0.83
12.42372989654541,-0.6,0.48,-0.39,0.86
12.43438196182251,-0.68,0.49,-0.06,0.84
12.443893909454346,-0.57,0.42,-0.06,0.71
12.453711032867432,-0.5,0.36,-0.02,0.61
12.491840839385986,-0.62,0.42,0.16,0.76
12.4933180809021,-0.78,0.44,0.14,0.9
12.494377136230469,-0.82,0.47,-0.15,0.95
12.50329303741455,-0.55,0.46,-0.41,0.82
12.504437923431396,-0.19,0.44,-0.33,0.58
12.519383907318115,-0.14,0.41,-0.29,0.52
12.523030996322632,-0.46,0.54,-0.22,0.74
12.532871007919312,-1.04,0.86,-0.09,1.35
12.543249130249023,-1.61,1.14,-0.12,1.97
12.553050994873047,-1.92,1.2,-0.27,2.28
12.591294050216675,-2.12,1.34,-0.57,2.57
12.59249496459961,-2.14,1.68,-1.05,2.91
12.593514919281006,-2.21,2.26,-1.38,3.44
12.603101968765259,-2.33,2.65,-1.73,3.92
12.604153156280518,-2.37,3.09,-1.88,4.32
12.61937403678894,-2.23,3.37,-2.01,4.51
12.622246026992798,-2.02,3.59,-2.07,4.61
12.634790897369385,-2.18,3.71,-2.07,4.77
12.642229080200195,-2.73,3.8,-1.8,5.01
12.652168035507202,-3.49,3.9,-1.48,5.43
12.690531969070435,-4.13,4.24,-1.15,6.02
12.691813945770264,-4.83,4.8,-1.28,6.92
12.692834854125977,-5.64,5.29,-2.05,7.99
12.703421115875244,-6.46,5.76,-2.68,9.06
12.704494953155518,-7.12,6.49,-3.16,10.13
12.718801975250244,-7.96,7.47,-4.38,11.76
12.721521854400635,-8.83,8.59,-5.59,13.52
12.735291004180908,-9.5,9.23,-6.8,14.88
12.7417311668396,-10.24,9.35,-7.92,15.96
12.7515230178833,-10.95,10.49,-8.07,17.17
12.789709091186523,-9.8,14.51,-6.47,18.66
12.791006088256836,-5.96,16.84,-5.92,18.81
12.792014122009277,-0.63,15.31,-6.81,16.76
12.803472995758057,1.75,10.58,-6.38,12.47
12.804517030715942,-0.88,4.94,-7.14,8.72
12.819480895996094,-5.17,1.51,-5.77,7.89
12.820559978485107,-6.26,-2.32,-4.31,7.94
12.835055828094482,0.06,1.76,-0.51,1.83
12.840790033340454,6.67,2.4,4.4,8.34
12.851465940475464,3.74,-3.72,-0.19,5.27
12.860978126525879,-2.8,-5.14,-3.37,6.75
12.896986961364746,-7.06,-4.39,-1.23,8.4
12.898137092590332,-9.75,-3.8,-0.99,10.51
12.899160861968994,-11.8,-3.4,-1.32,12.35
12.920692920684814,-12.19,-3.41,-1.0,12.69
12.921708106994629,-9.95,-4.14,-0.03,10.77
12.936444997787476,-7.04,-5.17,1.0,8.79
12.937901020050049,-5.67,-6.25,1.4,8.55
12.951925039291382,-5.67,-6.82,1.58,9.0
12.953297138214111,-6.05,-6.7,1.59,9.16
12.967941045761108,-6.14,-6.48,1.04,8.98
12.999840021133423,-5.89,-6.34,0.21,8.65
13.001223087310791,-5.63,-6.2,-0.58,8.39
13.00222897529602,-5.62,-5.94,-1.15,8.25
13.020056962966919,-5.72,-5.61,-1.45,8.14
13.021061897277832,-5.51,-5.38,-1.7,7.88
13.036089897155762,-4.77,-5.35,-1.85,7.4
13.037116050720215,-3.82,-5.54,-1.76,6.95
13.052027940750122,-3.09,-5.83,-1.57,6.78
13.053511142730713,-2.9,-5.96,-1.37,6.76
13.068029880523682,-3.21,-5.65,-1.18,6.6
13.09752893447876,-3.76,-4.75,-0.77,6.1
13.098918914794922,-4.13,-3.34,0.06,5.31
13.099924087524414,-3.62,-1.64,0.73,4.04
13.120077133178711,-1.87,0.04,1.09,2.16
13.12113904953003,0.62,1.65,1.51,2.32
13.135015964508057,3.28,3.53,2.45,5.4
13.136023044586182,5.9,6.05,3.77,9.25
13.151968002319336,8.48,8.81,4.19,12.92
13.153445959091187,11.16,11.43,4.11,16.49
13.168212890625,13.89,13.76,3.86,19.92
13.197684049606323,16.62,15.45,3.69,22.99
13.199043035507202,19.04,14.83,3.38,24.36
13.199846982955933,20.47,12.65,3.22,24.27
13.216653823852539,20.62,12.01,4.17,24.22
13.217705011367798,19.6,14.65,4.62,24.9
13.236177921295166,18.85,10.76,3.1,21.92
13.237229824066162,14.49,4.79,-2.19,15.41
13.251802921295166,1.28,-4.71,-7.08,8.59
13.252823829650879,-11.95,10.08,-8.63,17.85
13.26814889907837,-14.82,35.56,-1.04,38.53
13.297422885894775,-9.71,18.9,2.14,21.35
13.298877000808716,-0.72,-2.11,1.47,2.67
13.29987907409668,7.44,-5.19,5.23,10.47
13.320537090301514,10.68,-9.92,7.37,16.33
13.32158088684082,12.09,-9.11,3.25,15.48
13.336014032363892,11.07,-3.51,2.35,11.84
13.337021827697754,6.19,1.07,1.3,6.41
13.351927995681763,1.41,1.65,-0.92,2.35
13.353385925292969,-0.97,0.64,-0.83,1.42
13.368184089660645,-0.75,-0.15,0.35,0.84
13.396419048309326,0.69,-0.48,1.73,1.92
13.397809028625488,1.49,-0.52,1.93,2.49
13.398789882659912,1.27,-0.52,0.92,1.65
13.400896072387695,0.86,-0.31,-0.29,0.95
13.406207084655762,0.74,-0.12,-0.4,0.84
13.416497945785522,0.74,-0.25,0.16,0.79
13.42654299736023,0.65,-0.64,0.36,0.98
13.436218976974487,0.48,-0.63,0.26,0.83
13.445981979370117,0.45,-0.18,0.01,0.48
13.45669412612915,0.46,0.17,-0.58,0.75
13.49292516708374,0.43,0.32,-0.9,1.04
13.494237899780273,0.19,0.37,-0.32,0.52
13.495321035385132,-0.13,0.23,0.18,0.31
13.501477003097534,-0.24,0.03,0.21,0.32
13.519627094268799,-0.37,0.12,-0.06,0.39
13.520691871643066,-0.53,0.41,-0.13,0.68
13.534822940826416,-0.7,0.53,-0.03,0.87
13.53584599494934,-0.51,0.34,-0.3,0.68
13.551599025726318,0.01,0.17,-0.8,0.81
13.555468082427979,0.39,0.05,-1.09,1.15
13.595686912536621,0.21,0.06,-0.83,0.85
13.596873044967651,-0.44,0.19,-0.57,0.74
13.598091125488281,-0.96,0.4,-0.26,1.07
13.599539995193481,-0.83,0.58,-0.03,1.01
13.604815006256104,-0.43,0.56,0.19,0.73
13.614893913269043,-0.15,0.44,0.14,0.48
13.624753952026367,-0.16,0.34,-0.03,0.37
13.634769916534424,-0.29,0.44,-0.1,0.53
13.644536018371582,-0.39,0.51,-0.17,0.66
13.654896020889282,-0.45,0.47,-0.19,0.67
13.6647310256958,-0.47,0.43,-0.14,0.65
13.696292877197266,-0.49,0.41,-0.18,0.66
13.69743299484253,-0.57,0.57,-0.2,0.83
13.698410987854004,-0.64,0.84,-0.27,1.09
13.704069137573242,-0.75,0.92,-0.51,1.29
13.714046955108643,-1.23,1.12,-0.81,1.85
13.724135875701904,-1.81,1.67,-0.8,2.58
13.73411512374878,-2.58,1.91,-0.64,3.27
13.744033813476562,-3.09,2.05,-0.26,3.71
13.754148960113525,-2.95,2.16,-0.76,3.73
13.763873100280762,-2.15,2.19,-1.89,3.6
13.796091079711914,-1.43,2.44,-2.58,3.82
13.7972731590271,-1.36,2.85,-2.2,3.84
13.798566818237305,-2.1,3.23,-1.55,4.15
13.803276062011719,-3.12,3.63,-1.44,4.99
13.813390970230103,-3.92,4.1,-1.69,5.91
13.823305130004883,-4.35,4.55,-2.03,6.61
13.833297967910767,-4.73,4.97,-2.05,7.16
13.843047142028809,-5.43,5.67,-2.03,8.1
13.85315990447998,-6.46,6.83,-2.46,9.71
13.863242149353027,-7.76,8.33,-3.93,12.04
13.89479684829712,-8.88,9.62,-5.52,14.2
13.895992040634155,-9.59,10.43,-6.67,15.66
13.897261142730713,-9.87,9.53,-8.38,16.07
13.902521133422852,-10.22,8.03,-9.23,15.94
13.92025089263916,-10.12,9.68,-7.35,15.81
13.922397136688232,-7.8,14.12,-4.01,16.62
13.935166835784912,-2.68,14.65,-4.5,15.55
13.942446947097778,1.58,10.99,-5.99,12.61
13.952420949935913,1.63,5.68,-6.97,9.13
13.962400913238525,-2.08,2.23,-6.61,7.27
13.993083953857422,-5.6,-1.25,-4.34,7.19
13.994265079498291,-4.66,-5.11,-5.86,9.06
13.995502948760986,2.13,-1.06,-2.26,3.28
14.001754999160767,5.95,-2.31,1.68,6.6
14.011811971664429,1.15,-5.99,-3.48,7.02
14.021643161773682,-4.58,-6.62,-4.35,9.15
14.031832933425903,-8.23,-6.21,-2.8,10.68
14.041347026824951,-11.11,-5.15,-2.64,12.52
14.051845073699951,-13.25,-3.98,-2.3,14.02
14.06173300743103,-13.7,-3.09,-1.51,14.12
14.098664999008179,-11.7,-3.04,0.05,12.08
14.100050926208496,-8.89,-4.04,1.49,9.87
14.101052045822144,-7.22,-5.24,1.92,9.12
14.12044906616211,-7.05,-5.83,1.67,9.29
14.121509075164795,-7.33,-5.23,1.0,9.05
14.136444091796875,-6.82,-4.35,-0.38,8.09
14.137480020523071,-5.67,-3.81,-1.74,7.04
14.1525239944458,-4.6,-3.49,-2.86,6.44
14.154009819030762,-3.97,-3.24,-3.88,6.42
14.168570041656494,-3.61,-2.92,-4.68,6.59
14.197516918182373,-3.23,-2.39,-4.93,6.36
14.19894003868103,-2.7,-1.89,-4.76,5.78
14.200031042098999,-1.8,-1.8,-4.58,5.23
14.220746040344238,-0.78,-1.9,-4.47,4.91
14.22180986404419,-0.07,-1.76,-4.1,4.46
14.237067937850952,0.52,-1.26,-3.42,3.68
14.23853588104248,1.48,-0.52,-2.09,2.61
14.252707958221436,2.58,0.25,-0.09,2.59
14.254186153411865,3.21,0.87,1.86,3.81
14.268571853637695,3.23,1.88,3.52,5.13
14.297650814056396,3.31,3.86,5.19,7.26
14.299026012420654,4.32,6.47,5.97,9.8
14.300017833709717,6.15,9.1,5.53,12.29
14.319914817810059,8.58,11.44,4.41,14.96
14.320959091186523,11.64,13.51,3.2,18.11
14.33390998840332,14.79,14.23,2.16,20.63
14.335005044937134,17.19,12.55,2.39,21.41
14.352828025817871,18.75,9.35,3.93,21.31
14.354264974594116,19.27,6.51,5.22,20.99
14.368610858917236,19.08,5.14,5.95,20.63
14.39900016784668,17.8,4.49,5.58,19.18
14.400400161743164,13.86,8.87,5.16,17.24
14.401396036148071,11.37,7.74,4.12,14.35
14.420433044433594,6.92,1.59,-0.33,7.1
14.421483993530273,-1.43,-3.85,-5.22,6.64
14.437822818756104,-11.14,-1.27,-9.99,15.01
14.439282894134521,-15.23,21.0,-2.84,26.09
14.45284104347229,-10.35,27.43,2.42,29.41
14.454336166381836,-1.44,8.14,0.04,8.26
14.468493938446045,8.12,0.62,-0.2,8.14
14.469945907592773,11.54,-5.65,3.25,13.25
14.521302938461304,10.7,-7.73,3.09,13.55
14.522469997406006,7.16,-4.5,2.15,8.72
14.523478031158447,3.59,-1.89,2.75,4.9
14.537540912628174,1.34,-1.0,1.25,2.08
14.53863000869751,0.43,-0.03,0.56,0.7
14.553986072540283,-0.12,-0.17,1.47,1.48
14.555454015731812,-0.5,-0.84,1.73,1.98
14.568975925445557,0.29,-0.96,0.93,1.36
14.570405960083008,1.45,-0.36,0.44,1.55
14.58542013168335,1.87,0.38,0.09,1.91
14.615900039672852,1.47,0.47,0.11,1.54
14.617265939712524,1.02,-0.06,-0.2,1.04
14.618239879608154,1.01,-0.54,-0.38,1.2
14.637164115905762,1.22,-0.67,-0.1,1.39
14.638203144073486,1.29,-0.58,0.09,1.41
14.653956890106201,1.06,-0.38,0.14,1.13
14.655380964279175,0.73,-0.17,0.04,0.75
14.669034957885742,0.56,-0.03,0.1,0.56
14.670537948608398,0.44,-0.02,0.23,0.49
14.685472011566162,0.23,-0.07,0.41,0.47
14.716548919677734,0.06,-0.09,0.44,0.45
14.717878818511963,-0.12,0.06,0.36,0.38
14.718873977661133,-0.15,0.21,0.02,0.25
14.736990928649902,0.12,0.12,-0.44,0.47
14.738021850585938,0.42,-0.04,-0.6,0.73
14.753477096557617,0.38,-0.11,-0.4,0.56
14.75495195388794,0.07,-0.1,-0.18,0.21
14.769061088562012,-0.18,-0.09,-0.33,0.38
14.770561933517456,-0.34,0.04,-0.26,0.42
14.785645961761475,-0.41,0.19,-0.2,0.49
14.817525863647461,-0.42,0.35,-0.23,0.59
14.81883716583252,-0.34,0.44,-0.09,0.56
14.819792032241821,-0.34,0.37,0.04,0.5
14.837546825408936,-0.46,0.29,0.06,0.54
14.83903193473816,-0.57,0.33,0.11,0.66
14.853775024414062,-0.53,0.36,0.02,0.64
14.855247974395752,-0.32,0.35,-0.29,0.55
14.869303941726685,-0.08,0.37,-0.37,0.52
14.87068510055542,0.05,0.37,-0.24,0.44
14.885794162750244,-0.03,0.34,-0.24,0.41
14.916101932525635,-0.31,0.47,-0.26,0.62
14.917466163635254,-0.71,0.8,-0.36,1.12
14.918456077575684,-1.09,1.06,-0.55,1.61
14.937361001968384,-1.63,1.18,-0.47,2.06
14.938423156738281,-2.17,1.3,-0.16,2.53
14.953917980194092,-2.41,1.18,-0.39,2.71
14.95536994934082,-2.2,1.1,-0.99,2.65
14.969139099121094,-1.84,1.41,-1.81,2.94
14.97057294845581,-1.37,1.92,-2.31,3.3
14.985445022583008,-1.29,2.4,-1.95,3.35
15.015074968338013,-1.61,2.62,-1.33,3.35
15.016451835632324,-2.12,2.69,-0.97,3.55
15.017468929290771,-2.51,2.73,-0.82,3.79
15.037067890167236,-2.6,2.78,-0.93,3.91
15.038107872009277,-2.56,2.91,-0.89,3.97
15.054205894470215,-2.67,3.03,-1.13,4.19
15.055706977844238,-3.08,3.22,-1.49,4.69
15.069439888000488,-3.84,3.65,-1.55,5.52
15.07091999053955,-4.72,4.33,-1.76,6.64
15.085662841796875,-5.43,5.13,-2.14,7.77
15.11429214477539,-6.19,6.07,-2.49,9.02
15.115755081176758,-7.32,7.63,-2.54,10.87
15.116764068603516,-8.42,9.37,-3.87,13.17
15.137521028518677,-9.21,10.12,-6.32,15.07
15.138585090637207,-9.67,9.67,-8.44,16.07
15.152222156524658,-10.09,9.11,-8.99,16.29
15.153285026550293,-9.43,12.18,-6.53,16.73
15.16732406616211,-6.96,15.3,-4.74,17.46
15.168837070465088,-2.26,14.4,-6.35,15.89
15.185779094696045,1.66,12.26,-6.09,13.78
15.215100049972534,1.4,7.64,-5.11,9.29
15.216425895690918,-2.47,2.34,-5.24,6.24
15.217392921447754,-5.9,-1.59,-4.19,7.4
15.237846851348877,-4.16,-4.45,-6.19,8.68
15.238898992538452,3.38,0.2,-3.21,4.66
15.254441022872925,6.51,-1.22,1.98,6.91
15.255861043930054,0.51,-4.72,-2.22,5.24
15.269765853881836,-5.36,-5.42,-2.52,8.02
15.271252155303955,-8.88,-5.37,-1.23,10.45
15.28593397140503,-11.67,-4.69,-1.44,12.65
15.287369966506958,-13.4,-3.84,-1.31,14.0
15.331737995147705,-12.71,-3.17,-0.62,13.11
15.332870960235596,-9.79,-3.81,0.39,10.51
15.333842039108276,-7.12,-5.14,1.24,8.86
15.355538845062256,-6.08,-6.45,1.44,8.98
15.356974124908447,-6.24,-7.08,1.29,9.52
15.370744943618774,-6.43,-6.71,0.94,9.34
15.372195959091187,-6.08,-6.26,0.23,8.72
15.38645601272583,-5.54,-6.06,-0.62,8.23
15.38791298866272,-5.21,-5.89,-1.27,7.96
15.40231704711914,-4.97,-5.58,-1.73,7.67
15.433361053466797,-4.62,-5.06,-2.05,7.15
15.434701919555664,-4.18,-4.54,-2.33,6.59
15.435663938522339,-3.71,-4.12,-2.42,6.04
15.451010942459106,-3.15,-4.04,-2.64,5.76
15.45199704170227,-2.49,-4.07,-3.13,5.7
15.471013069152832,-1.86,-3.79,-3.46,5.45
15.472492933273315,-1.42,-2.96,-3.08,4.5
15.486451148986816,-1.27,-1.96,-2.83,3.66
15.4879150390625,-0.6,-0.69,-3.04,3.17
15.502187967300415,1.18,0.85,-3.06,3.38
15.532444953918457,3.28,2.29,-2.73,4.84
15.53377389907837,4.79,3.8,-1.84,6.38
15.534872055053711,5.96,5.92,-0.79,8.43
15.55220103263855,7.2,8.13,-0.26,10.86
15.553277969360352,8.92,10.16,-0.04,13.52
15.570818901062012,11.58,12.42,0.68,16.99
15.572293996810913,14.4,12.87,0.81,19.33
15.586773872375488,16.23,10.84,0.98,19.54
15.588272094726562,16.35,9.59,1.9,19.04
15.6025869846344,14.99,8.7,2.65,17.53
15.631648063659668,14.17,8.04,3.07,16.57
15.633155822753906,14.57,7.1,3.15,16.51
15.634186029434204,14.4,5.65,3.95,15.96
15.654729843139648,13.2,4.4,5.21,14.85
15.655733108520508,10.99,3.91,6.54,13.37
15.670480012893677,3.58,6.62,9.03,11.75
15.671802043914795,-1.94,5.52,7.7,9.67
15.686727046966553,-4.14,0.81,2.85,5.09
15.688271045684814,-10.17,-6.13,-3.05,12.26
15.700575828552246,-15.8,-2.06,-8.75,18.17
15.72900915145874,-10.41,21.51,1.68,23.95
15.730399131774902,-1.33,27.16,2.9,27.34
15.731432914733887,5.28,10.48,-2.64,12.02
15.734146118164062,12.04,-1.95,-2.77,12.5
15.754281044006348,13.0,-6.96,1.84,14.86
15.755362033843994,8.0,-6.23,4.65,11.15
15.769171953201294,3.68,-5.09,3.55,7.21
15.770226001739502,2.52,-3.96,2.65,5.39
15.785980939865112,2.65,-1.19,1.01,3.07
15.787474155426025,2.06,1.22,0.31,2.41
15.828886985778809,0.8,0.65,1.07,1.48
15.830106019973755,-0.19,-0.45,1.36,1.44
15.831218957901001,-0.17,0.01,0.6,0.62
15.834621906280518,0.64,0.82,-0.09,1.04
15.8543381690979,1.08,0.39,-0.87,1.44
15.855397939682007,0.9,-0.15,-1.18,1.49
15.869218826293945,0.57,-0.14,-0.96,1.12
15.870223045349121,0.57,-0.1,-0.52,0.77
15.88604211807251,0.94,-0.18,-0.21,0.97
15.88752293586731,1.13,-0.3,-0.01,1.16
15.931249141693115,0.64,-0.16,0.4,0.77
15.932405948638916,0.08,-0.02,0.79,0.79
15.933408975601196,-0.07,-0.11,0.82,0.83
15.9353609085083,0.09,-0.3,0.6,0.67
15.936802864074707,0.36,-0.45,0.24,0.62
15.938218116760254,0.49,-0.25,0.03,0.55
15.939595937728882,0.33,0.11,0.04,0.35
15.947125911712646,0.1,0.33,-0.31,0.46
15.957286834716797,0.05,0.33,-0.74,0.81
15.967083930969238,-0.04,0.23,-0.58,0.62
15.999475955963135,-0.38,0.16,-0.12,0.42
16.000432014465332,-0.7,0.25,0.14,0.75
16.001214027404785,-0.67,0.35,-0.11,0.76
16.021677017211914,-0.5,0.45,-0.37,0.76
16.02256488800049,-0.44,0.48,-0.37,0.74
16.03695583343506,-0.45,0.36,-0.09,0.58
16.038002014160156,-0.46,0.27,0.15,0.55
16.052634954452515,-0.57,0.33,0.0,0.65
16.056151866912842,-0.72,0.46,-0.4,0.94
16.06887912750244,-0.9,0.67,-0.4,1.19
16.076617002487183,-1.11,0.75,-0.32,1.37
16.113638877868652,-1.27,0.82,-0.58,1.61
16.114781856536865,-1.31,1.02,-0.87,1.87
16.11595582962036,-1.52,1.33,-0.97,2.24
16.117346048355103,-1.66,1.54,-1.09,2.51
16.12565302848816,-1.8,1.53,-1.38,2.73
16.135902881622314,-1.78,1.75,-1.1,2.72
16.14577293395996,-1.9,1.9,-1.01,2.87
16.155579090118408,-2.08,1.91,-1.1,3.03
16.165524005889893,-2.14,2.24,-0.95,3.24
16.175665855407715,-2.14,2.56,-1.18,3.53
16.205330848693848,-2.17,2.9,-1.43,3.89
16.20667314529419,-2.42,3.17,-1.54,4.27
16.207683086395264,-2.87,3.49,-1.43,4.73
16.22172212600708,-3.37,3.84,-1.44,5.3
16.224931955337524,-3.74,4.03,-1.91,5.82
16.23749589920044,-4.07,4.29,-2.3,6.34
16.245008945465088,-4.63,5.09,-2.32,7.26
16.254719972610474,-5.41,6.2,-2.64,8.64
16.265358924865723,-6.63,7.43,-3.69,10.61
16.274863958358765,-8.12,8.51,-5.55,13.0
16.306215047836304,-8.94,9.22,-6.51,14.39
16.307475090026855,-9.25,9.36,-6.92,14.86
16.308466911315918,-9.5,8.45,-8.35,15.21
16.321912050247192,-9.58,8.13,-8.72,15.29
16.32409381866455,-8.88,11.56,-5.68,15.64
16.335723876953125,-5.67,16.02,-2.23,17.13
16.344997882843018,-0.45,14.77,-4.15,15.34
16.353867053985596,2.35,8.82,-7.43,11.76
16.36423397064209,1.03,3.6,-8.28,9.08
16.374146938323975,-3.39,0.02,-5.77,6.69
16.403963088989258,-5.6,-3.98,-4.83,8.39
16.40535306930542,-0.93,-1.66,-2.34,3.01
16.406373977661133,4.66,-0.53,3.31,5.74
16.42224884033203,1.39,-4.8,-0.9,5.07
16.423344135284424,-4.16,-5.85,-3.61,8.03
16.437631130218506,-7.66,-5.01,-1.78,9.32
16.443267822265625,-10.15,-3.84,-1.36,10.93
16.453195095062256,-11.92,-3.23,-1.53,12.44
16.46349596977234,-11.56,-2.86,-0.9,11.94
16.4732928276062,-8.68,-3.44,0.26,9.34
16.509839057922363,-5.87,-4.67,1.21,7.59
16.51123285293579,-4.78,-5.76,1.35,7.6
16.512243032455444,-4.96,-6.3,1.01,8.08
16.521792888641357,-5.3,-6.1,0.64,8.1
16.522815942764282,-5.07,-5.6,-0.04,7.55
16.537709951400757,-4.48,-5.07,-0.71,6.8
16.542556047439575,-4.02,-4.65,-1.26,6.27
16.55375909805298,-3.83,-4.39,-1.72,6.07
16.562670946121216,-3.87,-4.33,-2.15,6.19
16.572747945785522,-3.98,-4.38,-2.38,6.37
16.609565019607544,-4.15,-4.38,-2.33,6.46
16.610926151275635,-4.16,-4.26,-2.06,6.3
16.61194610595703,-3.77,-4.09,-1.79,5.84
16.622398853302002,-3.05,-4.21,-1.48,5.4
16.623416900634766,-2.3,-4.21,-1.15,4.93
16.63780403137207,-1.8,-3.96,-0.77,4.41
16.641836166381836,-1.6,-3.65,-0.54,4.02
16.651949882507324,-1.44,-2.76,-0.1,3.11
16.661927938461304,-1.07,-1.3,0.54,1.76
16.671894073486328,-0.02,0.36,1.36,1.4
16.711037158966064,1.75,1.9,2.05,3.29
16.712352991104126,3.71,3.49,2.43,5.64
16.713438034057617,5.56,5.25,2.42,8.02
16.71802806854248,7.51,7.2,2.39,10.67
16.737825870513916,9.9,9.59,2.3,13.97
16.738852977752686,12.52,12.15,2.32,17.59
16.751487016677856,14.67,14.02,2.33,20.42
16.75300884246826,16.23,13.79,2.3,21.42
16.7674720287323,17.15,11.66,3.15,20.97
16.771525859832764,16.96,9.96,4.82,20.25
16.81309413909912,14.77,12.58,5.4,20.13
16.81428599357605,13.85,10.71,5.8,18.44
16.815505981445312,12.67,9.5,4.98,16.6
16.81777000427246,7.38,0.75,0.28,7.42
16.83805799484253,-4.46,-3.58,-6.42,8.59
16.83914613723755,-13.22,16.47,-4.93,21.68
16.85337495803833,-11.54,29.14,2.18,31.41
16.854751110076904,-4.33,9.81,3.05,11.14
16.869709014892578,3.23,-3.07,1.73,4.78
16.871192932128906,10.15,-2.86,3.35,11.06
16.886518955230713,12.23,-5.64,3.59,13.93
16.917261123657227,9.66,-4.78,0.25,10.78
16.918610095977783,6.13,-1.51,1.29,6.44
16.91966199874878,3.22,-0.39,1.87,3.74
16.93816089630127,1.5,-0.65,0.96,1.89
16.939231872558594,1.07,-0.78,1.29,1.84
16.954691886901855,0.87,-0.65,1.43,1.79
16.955738067626953,0.48,-0.12,1.27,1.36
16.97017002105713,-0.04,0.57,1.16,1.29
16.971668004989624,-0.29,0.52,0.75,0.95
16.986539840698242,-0.1,-0.17,-0.03,0.19
17.015203952789307,0.46,-0.53,-0.54,0.88
17.016674995422363,0.93,-0.52,-0.73,1.29
17.017673015594482,1.08,-0.39,-0.84,1.42
17.038485050201416,1.09,-0.23,-0.67,1.29
17.03953790664673,0.96,-0.12,-0.42,1.05
17.05478286743164,0.61,0.03,-0.32,0.68
17.055810928344727,0.28,0.18,-0.38,0.5
17.070410013198853,0.2,0.22,-0.16,0.33
17.071908950805664,0.19,0.16,0.35,0.42
17.086719036102295,0.02,0.05,0.74,0.74
17.115267038345337,-0.32,-0.01,0.77,0.83
17.116568088531494,-0.45,0.08,0.39,0.6
17.117609977722168,-0.12,0.18,-0.36,0.42
17.138712882995605,0.3,0.15,-0.99,1.04
17.139760971069336,0.42,0.13,-0.81,0.92
17.15484595298767,0.12,0.01,-0.41,0.42
17.155887126922607,-0.23,-0.04,-0.18,0.29
17.169934034347534,-0.44,0.15,0.06,0.46
17.171308040618896,-0.45,0.32,-0.01,0.55
17.186829090118408,-0.2,0.28,-0.31,0.46
17.213261127471924,-0.02,0.2,-0.29,0.35
17.214634895324707,-0.14,0.16,-0.23,0.31
17.21566915512085,-0.34,0.21,-0.14,0.42
17.218837022781372,-0.48,0.36,0.11,0.61
17.237998008728027,-0.52,0.35,0.03,0.62
17.23907494544983,-0.49,0.28,-0.3,0.63
17.253686904907227,-0.49,0.3,-0.46,0.73
17.257009029388428,-0.62,0.43,-0.52,0.91
17.269850969314575,-0.83,0.59,-0.62,1.19
17.27736186981201,-0.8,0.74,-0.6,1.24
17.314368963241577,-0.67,0.83,-0.46,1.16
17.315515995025635,-0.85,0.87,-0.45,1.29
17.31667709350586,-1.36,1.02,-0.47,1.76
17.318372011184692,-1.72,1.27,-0.34,2.16
17.32675004005432,-1.9,1.18,-0.7,2.34
17.33665895462036,-1.97,1.18,-0.81,2.43
17.34661602973938,-1.99,1.57,-0.85,2.67
17.35640811920166,-2.18,1.83,-1.24,3.1
17.366509914398193,-2.22,2.41,-1.38,3.55
17.376611948013306,-2.07,2.82,-1.35,3.74
17.411090850830078,-1.94,3.0,-1.22,3.77
17.41236114501953,-1.99,3.03,-1.23,3.82
17.413334846496582,-2.36,3.04,-1.39,4.09
17.41804003715515,-2.88,3.18,-1.24,4.46
17.42616105079651,-3.38,3.54,-0.98,4.99
17.438110828399658,-3.92,4.16,-1.16,5.83
17.445605039596558,-4.65,5.13,-1.73,7.13
17.45554804801941,-5.63,6.33,-2.76,8.9
17.465881824493408,-6.61,7.84,-3.89,10.96
17.475762844085693,-7.88,8.94,-5.27,13.03
17.50359296798706,-9.44,9.89,-5.91,14.89
17.504613876342773,-10.85,10.3,-6.93,16.48
17.50542402267456,-11.58,10.24,-7.43,17.15
17.51999282836914,-11.87,11.15,-6.97,17.71
17.5254168510437,-8.83,13.27,-5.68,16.92
17.53846001625061,-3.5,12.58,-6.33,14.51
17.545305967330933,1.72,11.08,-6.01,12.72
17.555245876312256,3.94,9.6,-3.28,10.88
17.565109968185425,0.67,4.31,-4.89,6.55
17.57487392425537,-4.64,0.41,-5.15,6.94
17.615299940109253,-5.78,-2.63,-5.86,8.64
17.61668300628662,0.05,1.62,-4.73,4.99
17.617701053619385,5.65,3.84,0.75,6.87
17.62013006210327,2.5,-1.68,-0.95,3.15
17.624678134918213,-3.55,-3.72,-2.74,5.82
17.634479999542236,-7.93,-4.21,-1.29,9.07
17.644545078277588,-11.13,-4.25,-1.36,11.99
17.654510021209717,-13.21,-4.46,-1.46,14.01
17.6644070148468,-13.12,-4.9,-0.53,14.01
17.67417287826538,-10.62,-5.34,1.7,12.0
17.684561014175415,-7.99,-6.5,2.92,10.7
17.718067169189453,-6.6,-7.75,2.75,10.54
17.719284057617188,-6.43,-7.63,2.15,10.2
17.72029995918274,-6.79,-5.82,1.26,9.03
17.738593101501465,-6.55,-4.91,-0.14,8.18
17.73965311050415,-5.88,-4.52,-1.25,7.52
17.75519299507141,-5.17,-4.57,-1.81,7.13
17.756664037704468,-4.72,-4.92,-2.29,7.19
17.77057981491089,-4.38,-5.2,-2.75,7.33
17.773377895355225,-3.91,-5.5,-3.03,7.39
17.786924839019775,-3.36,-5.76,-3.08,7.34
17.817296028137207,-2.9,-6.08,-2.91,7.33
17.81868600845337,-2.52,-6.59,-2.86,7.61
17.81972599029541,-2.25,-6.9,-2.66,7.72
17.838575839996338,-2.28,-6.72,-2.3,7.45
17.83965802192688,-2.7,-6.27,-1.67,7.02
17.855288982391357,-3.19,-5.5,-1.07,6.44
17.856761932373047,-3.22,-4.13,-0.43,5.25
17.87075710296631,-2.23,-2.52,0.0,3.36
17.872648000717163,-0.58,-0.78,0.46,1.07
17.887147903442383,1.09,1.54,1.24,2.25
17.919126987457275,2.5,5.06,2.44,6.14
17.920441150665283,3.87,9.45,2.99,10.64
17.92160415649414,5.74,14.31,2.31,15.59
17.937190055847168,8.89,19.07,0.89,21.05
17.938246965408325,13.31,19.98,-0.06,24.0
17.952512979507446,17.14,16.52,-0.42,23.8
17.953536987304688,19.11,14.23,0.22,23.82
17.968240976333618,20.15,12.24,1.16,23.6
17.971817016601562,20.8,10.25,1.79,23.25
17.987249851226807,21.13,9.4,3.44,23.38
18.016592025756836,19.09,11.94,5.07,23.08
18.017913818359375,13.38,6.56,6.15,16.12
18.018928050994873,3.19,0.19,3.32,4.6
18.039013862609863,-7.19,-4.14,-3.6,9.04
18.04004192352295,-17.35,-0.47,-7.95,19.09
18.05536985397339,-21.07,20.56,-2.21,29.52
18.056903839111328,-10.49,23.82,3.11,26.21
18.07080101966858,0.04,6.51,1.44,6.66
18.072266101837158,6.25,-5.26,2.06,8.42
18.08715796470642,9.68,-5.28,3.63,11.6
18.119146823883057,12.1,-2.21,2.59,12.56
18.120605945587158,9.87,-1.36,-0.69,9.98
18.121625900268555,5.28,-0.17,-2.05,5.66
18.138906002044678,2.65,0.14,-0.98,2.82
18.139951944351196,2.13,-0.61,-1.06,2.45
18.155166149139404,2.67,-0.61,0.39,2.76
18.15611982345581,2.33,-0.62,1.88,3.05
18.170501947402954,1.34,-0.79,2.44,2.89
18.172003984451294,0.4,-0.52,2.74,2.81
18.18716287612915,-0.2,-0.2,2.53,2.54
18.219774961471558,-0.1,-0.34,1.5,1.54
18.221120834350586,0.46,-0.66,0.49,0.94
18.222137928009033,0.98,-0.64,0.06,1.17
18.239060878753662,1.13,-0.37,-0.16,1.19
18.240099906921387,0.79,-0.05,-0.15,0.8
18.25519609451294,0.29,0.28,-0.45,0.6
18.256235122680664,0.32,0.44,-0.83,0.99
18.2705979347229,0.64,0.32,-0.93,1.17
18.27207612991333,0.77,-0.01,-0.8,1.11
18.287047863006592,0.57,-0.37,-0.35,0.76
18.316862106323242,0.09,-0.6,0.08,0.61
18.318174839019775,-0.46,-0.57,0.39,0.82
18.319236040115356,-0.4,-0.13,0.55,0.69
18.3386869430542,-0.07,0.31,0.7,0.76
18.339741945266724,-0.08,0.41,0.43,0.59
18.355466842651367,-0.04,0.23,-0.07,0.24
18.356868028640747,0.2,0.05,-0.61,0.64
18.371577978134155,0.26,-0.01,-1.19,1.21
18.372982025146484,-0.11,0.22,-1.14,1.16
18.388044834136963,-0.61,0.56,-0.6,1.02
18.41719388961792,-0.83,0.64,-0.32,1.09
18.41856098175049,-0.64,0.47,-0.29,0.84
18.419622898101807,-0.5,0.44,0.02,0.66
18.4388108253479,-0.67,0.37,0.06,0.76
18.43987512588501,-0.99,0.41,-0.23,1.09
18.455713033676147,-1.14,0.66,-0.25,1.34
18.457180976867676,-1.08,0.72,-0.63,1.44
18.47081184387207,-0.96,0.65,-1.3,1.74
18.472289085388184,-0.84,0.67,-1.39,1.75
18.48707914352417,-0.72,0.67,-1.0,1.4
18.488462924957275,-0.78,0.56,-0.5,1.08
18.53293514251709,-1.08,0.56,-0.17,1.22
18.53405499458313,-1.41,0.62,-0.31,1.57
18.53504705429077,-1.76,0.66,-0.58,1.96
18.55621910095215,-1.95,0.77,-0.77,2.23
18.55732297897339,-1.89,1.03,-0.78,2.28
18.572208881378174,-1.86,1.48,-0.84,2.52
18.573694944381714,-1.62,1.83,-1.03,2.65
18.587937831878662,-1.88,2.19,-1.11,3.09
18.589372158050537,-2.1,2.88,-0.91,3.67
18.603724002838135,-2.08,3.25,-1.05,3.99
18.632389068603516,-2.0,3.35,-1.37,4.13
18.633822917938232,-2.14,3.21,-1.73,4.22
18.63486385345459,-2.49,3.29,-1.74,4.47
18.637001037597656,-3.03,3.92,-1.76,5.25
18.638347148895264,-3.84,4.68,-2.53,6.56
18.64668083190918,-4.67,5.7,-3.07,7.98
18.65676999092102,-5.66,6.87,-3.58,9.59
18.66671085357666,-6.98,8.34,-4.32,11.7
18.676865100860596,-8.23,9.83,-5.53,13.96
18.686933994293213,-8.94,10.84,-6.28,15.39
18.717499017715454,-9.03,10.46,-7.84,15.88
18.718695163726807,-8.66,8.82,-8.76,15.15
18.71966314315796,-8.66,7.15,-9.35,14.61
18.73895788192749,-8.2,8.83,-6.99,13.93
18.740006923675537,-5.73,13.1,-3.62,14.74
18.755186080932617,-1.89,14.34,-3.34,14.84
18.7562198638916,1.41,11.08,-5.28,12.35
18.771009922027588,1.39,4.59,-6.62,8.17
18.77610683441162,-2.03,-0.41,-5.72,6.08
18.787379026412964,-4.1,-4.17,-5.18,7.81
18.81643795967102,0.05,-2.17,-3.08,3.76
18.817721843719482,4.64,-0.76,3.76,6.02
18.818729877471924,0.66,-4.13,0.41,4.2
18.839171886444092,-5.36,-5.16,-2.39,7.81
18.840231895446777,-8.98,-4.12,-0.75,9.9
18.85557794570923,-11.45,-2.66,-0.57,11.76
18.856648921966553,-13.04,-1.9,-0.65,13.19
18.871171951293945,-11.58,-1.85,0.51,11.73
18.87502694129944,-7.78,-3.46,1.1,8.58
18.887488842010498,-4.98,-5.12,1.12,7.22
18.92365789413452,-4.21,-6.11,0.84,7.46
18.924954891204834,-4.42,-6.03,0.38,7.48
18.925935983657837,-4.4,-5.26,-0.39,6.86
18.93927812576294,-3.98,-4.94,-1.6,6.54
18.940340042114258,-3.57,-4.83,-2.48,6.49
18.955503940582275,-3.3,-4.88,-2.93,6.57
18.95654582977295,-3.15,-5.11,-3.3,6.85
18.971364974975586,-3.04,-5.26,-3.45,6.98
18.97431707382202,-3.03,-5.36,-3.28,6.97
18.987460136413574,-3.19,-5.44,-2.89,6.93
19.022552967071533,-3.31,-5.6,-2.5,6.96
19.023751974105835,-3.31,-5.88,-2.15,7.08
19.024721145629883,-3.2,-6.27,-1.92,7.29
19.039381980895996,-3.13,-6.75,-2.01,7.7
19.040439128875732,-3.1,-6.92,-2.16,7.88
19.055510997772217,-3.2,-6.42,-1.91,7.42
19.056539058685303,-3.4,-5.63,-1.04,6.65
19.071436882019043,-3.41,-4.58,-0.06,5.71
19.07362699508667,-2.57,-3.51,0.38,4.36
19.087636947631836,-0.83,-2.45,0.72,2.68
19.122663974761963,1.25,-0.75,1.6,2.16
19.12398099899292,3.25,1.48,2.57,4.39
19.124990940093994,5.05,3.85,2.94,6.99
19.139284133911133,7.12,6.97,2.99,10.4
19.140345096588135,9.86,11.07,3.21,15.16
19.15562105178833,12.73,15.08,2.46,19.88
19.156670093536377,14.75,17.54,1.29,22.95
19.170991897583008,16.07,18.99,1.41,24.91
19.17296314239502,17.34,19.73,3.51,26.5
19.185397148132324,17.55,18.99,5.88,26.51
19.221290111541748,16.76,16.77,6.61,24.61
19.22266912460327,17.03,10.74,5.7,20.92
19.22368288040161,15.55,3.79,3.02,16.28
19.238175868988037,3.66,-5.86,-0.23,6.91
19.239192962646484,-13.23,-5.56,-7.43,16.16
19.253140926361084,-24.08,17.75,-3.71,30.14
19.25413203239441,-17.36,30.45,7.23,35.78
19.271388053894043,-4.06,12.89,5.18,14.47
19.272850036621094,3.19,-3.36,1.36,4.82
19.287452936172485,8.95,-5.98,2.06,10.95
19.29198694229126,12.06,-7.42,0.23,14.16
19.333189010620117,12.68,-5.04,-1.39,13.71
19.334330081939697,11.05,-1.78,-1.94,11.35
19.335308074951172,6.66,-0.7,-1.66,6.89
19.357851028442383,2.54,0.17,-1.38,2.89
19.35887908935547,0.28,0.62,0.09,0.68
19.372782945632935,-0.33,0.34,2.1,2.15
19.37425184249878,-0.19,-0.14,3.45,3.45
19.38842487335205,0.01,-0.64,3.52,3.57
19.389895915985107,-0.02,-0.75,2.55,2.65
19.404229164123535,-0.11,-0.51,1.48,1.56
19.43554401397705,0.16,-0.41,0.49,0.65
19.436880111694336,0.86,-0.37,-0.31,0.98
19.437891006469727,1.33,-0.22,-0.52,1.44
19.456504821777344,1.15,-0.17,-0.4,1.22
19.45752501487732,0.74,-0.11,-0.34,0.82
19.472100973129272,0.75,-0.06,-0.57,0.94
19.473119020462036,0.86,-0.11,-0.71,1.12
19.488250017166138,0.62,-0.03,-0.39,0.73
19.489742040634155,0.21,-0.09,0.05,0.23
19.504151821136475,-0.09,-0.21,0.42,0.47
19.533464908599854,-0.33,-0.13,0.56,0.66
19.534793853759766,-0.42,0.08,0.43,0.6
19.535773038864136,-0.32,0.22,-0.12,0.4
19.553570985794067,-0.07,0.29,-0.6,0.67
19.55457901954651,0.04,0.24,-0.88,0.91
19.572362899780273,0.04,0.2,-1.04,1.05
19.573266983032227,-0.15,0.25,-0.95,0.99
19.588145971298218,-0.53,0.47,-0.75,1.03
19.58958911895752,-0.8,0.6,-0.57,1.15
19.60419988632202,-0.94,0.59,-0.21,1.12
19.63377094268799,-1.0,0.5,0.25,1.14
19.635077953338623,-0.91,0.35,0.28,1.01
19.636085033416748,-0.73,0.29,-0.01,0.78
19.6561541557312,-0.61,0.43,-0.38,0.83
19.65721297264099,-0.52,0.54,-0.71,1.03
19.671061992645264,-0.48,0.52,-1.01,1.23
19.672070026397705,-0.59,0.5,-0.94,1.21
19.68799591064453,-0.83,0.5,-0.84,1.28
19.689361095428467,-1.14,0.58,-0.78,1.49
19.704136848449707,-1.35,0.79,-0.74,1.73
19.731258869171143,-1.48,0.89,-0.78,1.89
19.732547998428345,-1.5,0.89,-0.7,1.87
19.733481884002686,-1.49,0.84,-0.61,1.81
19.735568046569824,-1.54,0.9,-0.71,1.91
19.738243103027344,-1.67,1.21,-0.81,2.21
19.748631954193115,-1.45,1.59,-1.14,2.43
19.75836992263794,-1.27,1.82,-1.61,2.74
19.76853895187378,-1.32,2.65,-1.44,3.29
19.77803611755371,-1.41,3.21,-1.15,3.68
19.788197994232178,-1.91,3.27,-0.89,3.89
19.82288694381714,-2.33,3.1,-0.58,3.92
19.82405400276184,-2.7,2.86,-0.65,3.98
19.82491898536682,-2.84,2.89,-0.95,4.16
19.839799880981445,-2.92,3.14,-1.95,4.71
19.84086298942566,-3.1,3.71,-2.85,5.61
19.85579490661621,-3.45,4.58,-3.33,6.63
19.85730504989624,-4.17,5.27,-3.79,7.71
19.871021032333374,-5.39,6.41,-3.54,9.09
19.877470016479492,-6.86,7.87,-3.98,11.17
19.887882947921753,-7.93,8.74,-5.28,12.92
19.924062967300415,-8.32,8.82,-6.02,13.53
19.925270080566406,-8.34,8.26,-6.07,13.21
19.92612600326538,-8.6,7.44,-6.95,13.32
19.93974995613098,-8.91,7.83,-6.83,13.68
19.940802097320557,-7.54,11.45,-3.78,14.22
19.955872058868408,-4.0,13.2,-2.82,14.07
19.956911087036133,0.66,11.59,-5.12,12.68
19.97147798538208,2.23,6.87,-6.5,9.71
19.976670026779175,-0.58,2.2,-6.84,7.2
19.987905979156494,-5.09,-0.69,-5.02,7.18
20.022541999816895,-6.28,-3.79,-4.45,8.57
20.023910999298096,-0.7,-0.07,-1.75,1.88
20.024919033050537,4.72,0.55,2.32,5.28
20.039764881134033,1.59,-3.52,-1.58,4.17
20.040817975997925,-3.44,-4.01,-3.25,6.2
20.055974006652832,-6.98,-3.26,-2.07,7.97
20.057029008865356,-9.52,-2.58,-2.37,10.14
20.071630001068115,-10.99,-2.26,-2.88,11.58
20.075953006744385,-10.45,-2.29,-2.23,10.92
20.08801507949829,-7.87,-2.84,-0.83,8.4
20.095958948135376,-5.6,-3.96,0.15,6.86
20.130701065063477,-4.74,-5.11,0.77,7.01
20.131895065307617,-4.77,-5.65,0.85,7.44
20.133047103881836,-4.8,-5.43,0.27,7.25
20.13569402694702,-4.44,-4.86,-0.74,6.62
20.156272888183594,-3.99,-4.13,-1.56,5.95
20.157310962677002,-3.68,-3.38,-2.08,5.41
20.171865940093994,-3.51,-2.9,-2.48,5.18
20.175151824951172,-3.35,-2.78,-2.75,5.14
20.18804097175598,-3.23,-2.92,-2.82,5.18
20.194950103759766,-3.17,-3.28,-2.58,5.24
20.233654975891113,-3.15,-3.77,-2.24,5.39
20.234800815582275,-3.02,-4.39,-1.79,5.62
20.235774040222168,-2.63,-4.99,-1.47,5.82
20.256803035736084,-2.19,-5.6,-1.31,6.15
20.25786781311035,-2.0,-5.87,-1.04,6.28
20.272862911224365,-1.95,-5.61,-0.36,5.95
20.27430009841919,-1.83,-4.88,0.16,5.21
20.288527965545654,-0.99,-3.68,0.49,3.84
20.290019035339355,0.86,-2.67,0.71,2.89
20.30471181869507,2.82,-1.49,0.75,3.27
20.33431386947632,4.22,0.4,1.28,4.42
20.33568000793457,5.48,2.96,2.23,6.61
20.336652040481567,7.06,5.46,2.63,9.3
20.357391834259033,9.0,7.65,3.09,12.2
20.358438968658447,11.36,9.48,3.89,15.29
20.37188196182251,13.36,10.09,4.22,17.26
20.372965812683105,14.16,10.05,4.13,17.84
20.38905096054077,14.64,10.44,4.84,18.62
20.390514850616455,15.46,10.11,5.31,19.22
20.40483593940735,16.14,9.42,5.77,19.55
20.43359613418579,15.89,8.63,6.44,19.19
20.435019969940186,14.03,7.63,6.51,17.24
20.43597102165222,11.36,9.9,5.99,16.21
20.456789016723633,8.69,4.12,2.62,9.96
20.457841873168945,0.04,-4.61,-4.86,6.69
20.472710132598877,-11.74,-3.83,-12.68,17.69
20.473767042160034,-18.61,21.99,-6.96,29.63
20.488791942596436,-12.43,34.64,7.61,37.58
20.49027395248413,-2.96,9.99,5.37,11.72
20.504676818847656,3.93,-5.56,1.46,6.96
20.533466815948486,10.75,-4.68,3.57,12.25
20.53483295440674,12.51,-5.48,4.07,14.25
20.535830974578857,9.52,-4.43,0.28,10.5
20.556599140167236,5.18,-1.03,0.52,5.3
20.55765390396118,2.17,0.0,0.59,2.24
20.57260513305664,0.99,-0.19,-0.07,1.01
20.573628902435303,1.38,-0.41,0.42,1.49
20.588791847229004,1.73,-0.18,0.28,1.76
20.59022092819214,1.42,0.5,-0.06,1.5
20.60493516921997,0.44,0.76,0.0,0.87
20.6364688873291,-0.34,0.17,0.52,0.64
20.637858867645264,0.13,-0.6,1.16,1.31
20.638876914978027,1.11,-1.01,1.4,2.05
20.657329082489014,1.15,-0.89,1.01,1.77
20.65837812423706,0.83,-0.51,0.19,0.99
20.672580003738403,0.82,0.04,-0.42,0.92
20.673603057861328,0.62,0.32,-0.56,0.89
20.688826084136963,0.31,0.27,-0.33,0.52
20.690340995788574,0.35,0.1,0.05,0.36
20.70487904548645,0.55,-0.22,0.07,0.59
20.733551025390625,0.57,-0.43,-0.22,0.74
20.735023975372314,0.36,-0.31,-0.37,0.6
20.736037969589233,-0.08,0.03,-0.24,0.25
20.756916999816895,-0.43,0.26,0.07,0.5
20.757936000823975,-0.36,0.31,0.43,0.64
20.77272605895996,-0.17,0.14,0.37,0.43
20.773736000061035,-0.09,-0.02,-0.29,0.3
20.788844108581543,-0.17,0.13,-0.86,0.88
20.790334939956665,-0.42,0.41,-1.04,1.19
20.805045127868652,-0.6,0.56,-0.72,1.09
20.834995985031128,-0.62,0.41,-0.44,0.86
20.836426973342896,-0.59,0.25,-0.3,0.7
20.837435960769653,-0.65,0.24,0.1,0.7
20.856646060943604,-0.72,0.27,0.41,0.87
20.85767889022827,-0.74,0.18,0.17,0.78
20.87256693840027,-0.74,0.16,-0.48,0.89
20.87356400489807,-0.69,0.33,-0.79,1.09
20.8887300491333,-0.49,0.43,-0.68,0.94
20.89019203186035,-0.34,0.36,-0.53,0.72
20.904844999313354,-0.4,0.37,-0.37,0.65
20.90630006790161,-0.6,0.53,-0.38,0.88
20.95379114151001,-0.85,0.66,-0.5,1.18
20.954934120178223,-1.2,0.75,-0.59,1.53
20.95593786239624,-1.4,0.77,-0.67,1.73
20.973729133605957,-1.35,0.76,-0.74,1.71
20.974760055541992,-1.19,0.82,-0.69,1.6
20.9899320602417,-1.04,0.87,-0.97,1.66
20.99138903617859,-1.01,1.02,-1.26,1.91
21.005329132080078,-1.19,1.51,-1.24,2.28
21.006802082061768,-1.39,2.18,-0.95,2.75
21.02169394493103,-1.55,2.28,-1.14,2.98
21.05268907546997,-1.85,2.56,-1.29,3.41
21.054018020629883,-1.93,3.11,-1.18,3.84
21.05501890182495,-1.9,3.24,-1.12,3.91
21.073338985443115,-2.04,3.14,-1.01,3.87
21.074368953704834,-2.41,3.19,-0.89,4.09
21.090018033981323,-2.9,3.54,-1.06,4.69
21.091495990753174,-3.48,4.26,-1.35,5.66
21.105565071105957,-4.36,5.38,-1.47,7.07
21.107054948806763,-5.55,6.56,-2.0,8.82
21.12175703048706,-6.83,7.72,-2.6,10.63
21.152565956115723,-7.81,9.01,-2.98,12.29
21.153963088989258,-8.67,9.93,-4.05,13.79
21.154979944229126,-9.29,9.89,-5.3,14.56
21.173509120941162,-9.84,9.03,-6.4,14.8
21.17453908920288,-10.72,8.06,-6.88,15.07
21.190120935440063,-10.5,10.31,-4.78,15.47
21.19162082672119,-7.11,12.9,-3.48,15.13
21.205409049987793,-1.56,11.13,-6.32,12.89
21.206965923309326,2.76,10.0,-4.91,11.47
21.221935987472534,2.39,5.67,-3.94,7.3
21.25300693511963,-2.27,0.49,-4.98,5.49
21.25432300567627,-5.8,-2.88,-4.77,8.04
21.255295038223267,-3.56,-3.12,-5.7,7.4
21.273540019989014,3.53,1.79,-1.97,4.42
21.274605989456177,4.48,-0.88,-0.59,4.6
21.290000915527344,-0.89,-3.67,-4.17,5.62
21.291048049926758,-5.33,-3.96,-3.21,7.37
21.30568504333496,-8.6,-3.65,-2.57,9.68
21.307186126708984,-11.12,-3.49,-3.24,12.09
21.323512077331543,-12.19,-3.77,-3.16,13.14
21.354384899139404,-10.85,-4.24,-1.74,11.77
21.355731964111328,-8.44,-5.1,-0.05,9.86
21.356751918792725,-6.79,-6.47,1.0,9.43
21.373739004135132,-6.16,-7.42,1.29,9.72
21.374804973602295,-6.04,-7.51,1.15,9.7
21.38984203338623,-5.89,-6.72,0.43,8.94
21.390923976898193,-5.58,-5.88,-0.62,8.12
21.405663013458252,-5.14,-5.42,-1.57,7.63
21.407093048095703,-4.53,-4.98,-2.29,7.11
21.42194104194641,-4.0,-4.47,-2.81,6.62
21.451274871826172,-3.68,-4.16,-3.32,6.47
21.452588081359863,-3.54,-3.78,-3.64,6.33
21.453552961349487,-3.43,-3.29,-3.62,5.97
21.47393298149109,-3.11,-2.72,-3.17,5.2
21.47497296333313,-2.42,-2.22,-2.87,4.36
21.48989200592041,-1.11,-2.19,-2.7,3.64
21.490905046463013,0.41,-2.42,-1.91,3.11
21.50564694404602,1.25,-2.26,-0.63,2.65
21.507110118865967,1.39,-1.94,0.35,2.41
21.521980047225952,1.61,-1.24,1.2,2.36
21.551365852355957,2.01,-0.28,2.09,2.91
21.552690029144287,2.54,0.79,2.68,3.77
21.55374503135681,3.4,2.28,3.28,5.24
21.573559999465942,4.39,3.96,3.79,7.02
21.574578046798706,5.57,5.7,4.06,8.94
21.590073108673096,7.19,7.48,4.6,11.34
21.591058015823364,9.32,9.01,5.32,14.01
21.605594158172607,11.83,9.59,5.69,16.25
21.607057094573975,13.58,8.81,5.92,17.23
21.621888160705566,13.21,8.12,5.53,16.46
21.651365995407104,11.92,8.66,5.87,15.85
21.652719974517822,12.71,9.15,6.24,16.85
21.65375304222107,14.41,8.61,5.65,17.71
21.67379903793335,14.41,10.61,5.25,18.64
21.67478084564209,14.9,9.86,4.52,18.42
21.689985036849976,12.35,2.57,-0.93,12.64
21.691001892089844,0.93,-5.94,-9.68,11.39
21.705839157104492,-9.86,3.74,-14.7,18.09
21.707368850708008,-12.34,32.08,-0.8,34.38
21.722100973129272,-11.24,22.04,4.93,25.22
21.723583936691284,-1.08,2.51,3.21,4.21
21.769526958465576,7.51,-4.87,1.23,9.03
21.770705938339233,10.27,-9.21,3.22,14.16
21.771710872650146,9.85,-7.58,1.72,12.54
21.791043043136597,6.41,-3.23,2.82,7.71
21.79209804534912,2.8,-0.78,3.03,4.19
21.806432008743286,0.45,-0.04,1.68,1.73
21.807476043701172,-0.21,-0.06,1.57,1.58
21.822682857513428,0.38,-0.4,1.28,1.39
21.824131965637207,1.17,-0.29,0.24,1.22
21.838518142700195,1.35,0.32,0.15,1.39
21.867228984832764,1.04,0.37,-0.11,1.1
21.868605136871338,0.88,0.07,-0.21,0.9
21.869626998901367,0.98,-0.3,-0.06,1.02
21.87189483642578,1.29,-0.6,-0.1,1.42
21.87328004837036,1.31,-0.66,-0.23,1.48
21.874587059020996,0.96,-0.33,-0.06,1.01
21.875746965408325,0.42,0.01,0.56,0.7
21.88186001777649,-0.02,0.23,0.9,0.92
21.892398834228516,0.07,0.15,0.53,0.55
21.902082920074463,0.35,-0.19,0.03,0.39
21.92963409423828,0.34,-0.33,-0.3,0.56
21.930609941482544,0.33,-0.4,-0.56,0.76
21.931702136993408,0.52,-0.21,-0.59,0.81
21.94149684906006,0.41,0.21,-0.29,0.54
21.951624870300293,0.18,0.42,-0.05,0.45
21.961288928985596,0.21,0.21,-0.13,0.32
21.971866130828857,0.24,-0.01,-0.25,0.34
21.981380939483643,-0.06,0.02,0.01,0.06
21.991431951522827,-0.51,0.24,0.24,0.61
22.00123691558838,-0.73,0.41,-0.09,0.84
22.029989004135132,-0.48,0.51,-0.5,0.86
22.030926942825317,-0.13,0.42,-0.58,0.72
22.031983852386475,-0.21,0.25,-0.18,0.37
22.040730953216553,-0.46,0.09,0.26,0.53
22.050771951675415,-0.69,-0.05,0.15,0.7
22.06068992614746,-0.66,0.02,-0.24,0.7
22.07096004486084,-0.47,0.2,-0.51,0.72
22.080755949020386,-0.37,0.44,-0.5,0.76
22.090638160705566,-0.37,0.49,-0.51,0.79
22.100749969482422,-0.61,0.56,-0.83,1.17
22.138319969177246,-1.03,0.82,-1.0,1.65
22.139648914337158,-1.41,1.13,-1.05,2.08
22.140661001205444,-1.67,1.34,-1.03,2.37
22.157514095306396,-1.83,1.55,-0.72,2.5
22.15855097770691,-1.8,1.56,-0.91,2.54
22.173362016677856,-1.68,1.44,-1.15,2.49
22.174416065216064,-1.64,1.64,-1.22,2.62
22.189372062683105,-1.8,2.3,-1.75,3.4
22.19086003303528,-1.72,3.13,-1.85,4.02
22.205366134643555,-1.86,3.48,-1.43,4.19
22.237818956375122,-2.28,3.49,-1.01,4.28
22.23967409133911,-2.8,3.31,-1.01,4.45
22.24059295654297,-2.94,3.27,-1.06,4.52
22.25743794441223,-2.89,3.35,-1.34,4.62
22.258518934249878,-2.99,3.58,-1.69,4.96
22.27330207824707,-3.39,4.1,-1.91,5.65
22.274284839630127,-4.27,4.86,-1.91,6.74
22.289265155792236,-5.66,5.71,-2.02,8.28
22.29070496559143,-7.42,6.78,-2.45,10.34
22.30634093284607,-8.87,7.95,-2.85,12.24
22.336957931518555,-9.71,8.86,-3.43,13.58
22.33848285675049,-10.08,8.84,-4.6,14.17
22.339508056640625,-10.51,8.41,-5.9,14.69
22.35784912109375,-11.47,8.59,-7.39,16.12
22.35887908935547,-11.15,12.61,-5.34,17.65
22.37375497817993,-7.46,16.38,-4.44,18.53
22.3748140335083,-1.46,14.61,-7.33,16.41
22.389760971069336,2.46,11.06,-6.92,13.27
22.391250133514404,1.3,5.34,-6.67,8.64
22.405631065368652,-3.59,1.31,-5.99,7.1
22.436983108520508,-7.12,-1.62,-3.85,8.25
22.438347816467285,-3.79,-1.42,-3.68,5.47
22.439366817474365,5.01,4.47,0.71,6.75
22.457891941070557,6.9,0.25,1.78,7.13
22.458931922912598,0.85,-3.59,-3.57,5.13
22.47404193878174,-5.05,-3.98,-3.17,7.16
22.47551202774048,-8.85,-3.35,-1.91,9.65
22.489477157592773,-11.58,-2.63,-2.16,12.06
22.49094796180725,-12.62,-1.86,-1.98,12.9
22.505699157714844,-10.49,-2.32,-0.83,10.77
22.507471084594727,-6.73,-3.92,0.42,7.79
22.555506944656372,-4.66,-5.5,1.25,7.31
22.556689977645874,-4.78,-6.87,1.4,8.48
22.557708024978638,-5.64,-7.38,1.38,9.39
22.574462890625,-5.82,-7.0,0.76,9.13
22.57549500465393,-5.32,-6.4,-0.34,8.32
22.59060287475586,-4.83,-5.93,-1.24,7.74
22.592069149017334,-4.49,-5.81,-1.85,7.57
22.606135845184326,-4.41,-5.95,-2.13,7.7
22.607571125030518,-4.55,-6.22,-2.19,8.01
22.62251901626587,-4.75,-6.55,-2.15,8.37
22.6523859500885,-4.65,-6.83,-2.04,8.51
22.65383291244507,-4.25,-6.89,-1.84,8.3
22.654837131500244,-3.74,-6.78,-1.66,7.91
22.674144983291626,-3.45,-6.56,-1.37,7.53
22.675204038619995,-3.32,-6.04,-0.91,6.95
22.690871000289917,-3.2,-5.39,-0.27,6.27
22.6923508644104,-2.91,-4.51,0.24,5.37
22.706146955490112,-2.13,-3.33,0.12,3.95
22.707621097564697,-0.93,-1.77,0.11,2.0
22.722510814666748,0.83,0.47,0.75,1.21
22.753517150878906,3.37,3.43,2.16,5.27
22.75550103187561,6.25,6.34,3.26,9.48
22.756497859954834,8.71,8.64,3.7,12.81
22.771183967590332,10.95,11.25,4.28,16.27
22.772243976593018,13.25,13.29,4.6,19.32
22.79035496711731,15.03,12.94,3.59,20.15
22.791422843933105,16.32,13.0,3.52,21.15
22.80409002304077,16.62,14.5,3.21,22.28
22.805622100830078,16.06,19.03,1.64,24.95
22.820276021957397,17.1,14.89,-1.63,22.73
22.849305152893066,18.02,11.53,-5.63,22.12
22.850708961486816,11.0,2.02,-8.36,13.96
22.85175395011902,-1.79,9.82,-7.91,12.73
22.854233026504517,-6.3,27.19,0.54,27.91
22.855612993240356,-5.67,14.08,0.94,15.2
22.864779949188232,-0.77,-1.48,3.42,3.8
22.874730110168457,5.99,-0.11,6.7,8.98
22.884515047073364,9.3,-3.62,5.75,11.51
22.89454197883606,8.64,-7.22,1.87,11.41
22.904601097106934,7.68,-3.61,0.06,8.48
22.942034006118774,6.05,0.37,1.71,6.29
22.943027019500732,3.6,-0.24,1.5,3.9
22.94381093978882,1.5,-0.8,1.37,2.18
22.957952976226807,0.33,-0.24,1.53,1.58
22.95896005630493,0.08,0.4,1.02,1.09
22.97359800338745,0.33,0.54,0.15,0.65
22.974609851837158,0.9,0.23,-0.42,1.01
22.9894859790802,1.55,-0.3,-0.71,1.73
22.993538856506348,1.55,-0.7,-0.52,1.77
23.005548000335693,0.84,-0.59,0.15,1.03
23.040989875793457,0.3,-0.35,0.42,0.62
23.042412996292114,0.17,-0.17,0.39,0.45
23.04344081878662,0.33,-0.07,-0.06,0.34
23.058408975601196,0.49,0.05,-0.48,0.68
23.059438943862915,0.25,0.18,-0.5,0.58
23.07369089126587,-0.14,0.29,-0.08,0.33
23.074697971343994,-0.3,0.3,0.29,0.51
23.08937692642212,-0.28,0.06,-0.09,0.3
23.092798948287964,-0.23,-0.11,-0.75,0.79
23.105700969696045,-0.31,0.09,-0.78,0.84
23.14039182662964,-0.52,0.18,-0.79,0.96
23.141677856445312,-0.45,0.1,-1.16,1.24
23.142495155334473,-0.18,0.19,-1.32,1.34
23.158223152160645,-0.19,0.27,-1.01,1.06
23.159260988235474,-0.65,0.28,-0.58,0.91
23.173635005950928,-1.12,0.29,-0.24,1.18
23.17468500137329,-1.15,0.46,0.05,1.23
23.189587116241455,-1.02,0.58,0.02,1.17
23.19209599494934,-1.07,0.66,-0.4,1.31
23.205925941467285,-1.04,0.73,-0.44,1.34
23.239508152008057,-0.86,0.62,-0.23,1.08
23.240725994110107,-0.56,0.36,0.09,0.67
23.24178695678711,-0.34,0.02,-0.02,0.34
23.2582049369812,-0.19,-0.14,-0.31,0.38
23.25927209854126,-0.08,-0.03,-0.41,0.41
23.273634910583496,0.01,0.18,-0.54,0.56
23.274662971496582,0.03,0.41,-0.56,0.69
23.281718015670776,-0.25,0.62,-0.25,0.71
23.29177498817444,-0.92,0.86,0.27,1.28
23.301735877990723,-1.73,1.0,0.48,2.05
23.311678886413574,-2.52,1.31,0.73,2.93
23.344507932662964,-2.58,1.7,0.3,3.1
23.34588384628296,-2.2,1.91,-0.62,2.97
23.346894025802612,-1.74,2.46,-1.49,3.36
23.358484983444214,-1.43,2.67,-2.83,4.14
23.360922813415527,-1.68,3.19,-2.68,4.49
23.373214960098267,-2.01,3.69,-2.01,4.65
23.381030082702637,-2.52,3.86,-1.41,4.82
23.390699863433838,-3.2,4.03,-1.2,5.28
23.401113986968994,-3.95,4.29,-1.38,5.99
23.411004066467285,-4.67,5.17,-1.37,7.1
23.443283081054688,-5.35,6.46,-2.09,8.64
23.444597005844116,-6.36,7.72,-3.83,10.71
23.445619106292725,-7.98,9.0,-5.47,13.21
23.458717823028564,-9.75,10.21,-5.82,15.27
23.45996594429016,-11.26,10.88,-6.01,16.77
23.474076986312866,-12.57,10.32,-6.96,17.69
23.480013847351074,-13.52,10.47,-6.52,18.3
23.490120887756348,-12.79,12.88,-4.49,18.69
23.50056505203247,-8.13,14.69,-4.02,17.26
23.509948015213013,-1.31,12.5,-7.2,14.48
23.542622089385986,4.08,11.67,-5.47,13.51
23.543928146362305,4.01,7.91,-3.82,9.65
23.5449538230896,-1.22,1.97,-4.89,5.41
23.55829095840454,-5.62,-2.33,-5.62,8.28
23.559393882751465,-3.4,-2.55,-7.21,8.36
23.574036121368408,4.12,3.37,-2.03,5.69
23.57927894592285,3.9,-0.05,-1.15,4.06
23.5899600982666,-2.42,-2.48,-4.45,5.63
23.59950304031372,-7.02,-3.2,-3.08,8.3
23.60915493965149,-10.59,-2.83,-2.63,11.27
23.641579151153564,-13.71,-2.56,-3.28,14.32
23.642894983291626,-15.37,-2.99,-2.79,15.9
23.643913984298706,-13.84,-3.63,-0.51,14.31
23.65837597846985,-10.29,-5.03,1.89,11.6
23.65941596031189,-7.52,-7.02,2.62,10.61
23.674208164215088,-6.39,-8.33,2.22,10.73
23.67886996269226,-6.57,-7.52,1.67,10.12
23.690063953399658,-7.14,-5.96,0.77,9.33
23.698780059814453,-6.79,-5.36,-0.93,8.7
23.70841407775879,-5.8,-5.19,-2.09,8.05
23.747376918792725,-5.01,-5.28,-2.67,7.75
23.74870800971985,-4.5,-5.42,-3.0,7.65
23.749832153320312,-3.98,-5.49,-3.28,7.53
23.755116939544678,-3.35,-5.54,-3.48,7.35
23.75794792175293,-2.58,-5.77,-3.41,7.18
23.774317979812622,-1.78,-6.26,-3.38,7.33
23.77765703201294,-1.23,-6.65,-3.16,7.46
23.788771152496338,-1.11,-6.56,-2.42,7.07
23.798026084899902,-1.15,-5.93,-1.2,6.15
23.807690143585205,-0.94,-5.04,0.0,5.12
23.84609603881836,-0.21,-3.81,0.35,3.83
23.847504138946533,1.16,-2.0,0.47,2.35
23.84855604171753,3.22,0.84,1.91,3.83
23.858669996261597,5.5,4.32,3.98,8.04
23.859717845916748,7.59,7.6,5.86,12.23
23.87429904937744,9.39,10.91,6.98,15.99
23.876911163330078,10.96,13.92,7.19,19.12
23.890315055847168,12.47,15.34,6.04,20.67
23.897061824798584,14.3,15.86,4.59,21.84
23.907186031341553,16.08,15.65,2.9,22.62
23.945490837097168,15.95,18.37,0.85,24.34
23.946805000305176,17.78,17.15,-0.47,24.7
23.94781994819641,19.46,12.32,-5.37,23.64
23.957113027572632,16.82,4.72,-8.74,19.53
23.958145141601562,3.33,-0.31,-8.2,8.85
23.973939895629883,-8.58,19.59,-1.51,21.43
23.976271152496338,-10.02,27.05,4.86,29.25
23.99038600921631,-4.59,10.25,4.86,12.23
23.996140956878662,1.95,-1.14,3.04,3.78
24.006407976150513,6.13,-2.63,3.88,7.71
24.043150901794434,8.48,-2.29,4.73,9.97
24.044433116912842,6.88,-5.84,0.97,9.07
24.045485973358154,6.64,-4.68,-1.8,8.32
24.05846405029297,7.31,-0.24,-1.26,7.42
24.059523105621338,6.07,0.56,-0.24,6.1
24.074349880218506,3.61,-0.62,-0.21,3.66
24.075419902801514,0.9,-0.86,-0.18,1.25
24.09028387069702,-1.06,0.0,0.4,1.13
24.095808029174805,-1.36,0.95,1.85,2.48
24.10607385635376,-0.18,0.63,2.48,2.56
24.11556601524353,0.97,-0.61,1.39,1.8
24.148714065551758,1.45,-1.04,0.27,1.8
24.149763107299805,1.36,-0.83,0.04,1.59
24.151183128356934,0.99,-0.63,0.37,1.23
24.154715061187744,0.64,-0.49,0.59,0.99
24.174437046051025,0.53,-0.28,0.29,0.66
24.17545986175537,0.63,0.03,-0.47,0.78
24.189963817596436,0.81,0.37,-1.14,1.44
24.194564819335938,0.88,0.46,-1.29,1.62
24.206302165985107,0.65,0.2,-0.64,0.93
24.214860916137695,0.37,-0.1,0.01,0.38
24.247790813446045,0.23,-0.28,0.3,0.47
24.248960971832275,0.14,-0.41,0.29,0.52
24.24999713897705,-0.13,-0.36,0.29,0.48
24.25496816635132,-0.44,-0.1,0.11,0.46
24.264183044433594,-0.38,0.16,-0.02,0.41
24.275202989578247,-0.1,0.21,-0.1,0.25
24.28412914276123,-0.09,0.16,-0.39,0.43
24.293869018554688,-0.37,0.17,-0.8,0.89
24.303956985473633,-0.75,0.4,-0.5,0.98
24.31406307220459,-0.97,0.59,-0.14,1.14
24.34576988220215,-0.87,0.57,-0.41,1.11
24.34697389602661,-0.62,0.58,-0.56,1.01
24.347815990447998,-0.64,0.59,-0.46,0.98
24.35860586166382,-0.77,0.53,-0.26,0.97
24.36321997642517,-0.86,0.51,-0.15,1.01
24.374237060546875,-0.76,0.47,-0.25,0.92
24.383005142211914,-0.58,0.4,-0.52,0.87
24.39314889907837,-0.36,0.39,-0.73,0.9
24.403398036956787,-0.24,0.36,-0.78,0.89
24.413114070892334,-0.28,0.39,-0.81,0.94
24.44522500038147,-0.56,0.52,-0.85,1.14
24.44654893875122,-1.03,0.87,-0.6,1.47
24.447566032409668,-1.67,1.15,-0.46,2.07
24.45876407623291,-2.21,1.42,-0.05,2.62
24.462482929229736,-2.53,1.72,-0.07,3.06
24.474334955215454,-2.71,2.24,-0.71,3.58
24.48258399963379,-2.51,2.82,-1.35,4.0
24.492423057556152,-2.4,3.35,-1.44,4.36
24.50253391265869,-2.48,3.68,-1.35,4.63
24.512610912322998,-2.8,3.81,-1.52,4.96
24.54969310760498,-3.25,3.88,-1.92,5.41
24.55093812942505,-3.7,4.17,-2.13,5.96
24.551923990249634,-4.05,4.59,-1.97,6.43
24.555201053619385,-4.64,5.13,-2.22,7.26
24.574663162231445,-5.25,5.7,-3.0,8.3
24.575704097747803,-5.79,6.51,-3.83,9.51
24.58989381790161,-7.13,7.54,-4.84,11.45
24.59138798713684,-8.75,9.19,-4.87,13.59
24.60661506652832,-9.7,10.23,-5.65,15.18
24.611613035202026,-10.29,10.0,-7.13,16.02
24.65018892288208,-11.18,9.11,-9.05,17.02
24.651369094848633,-11.32,11.53,-7.81,17.94
24.653202056884766,-8.8,16.24,-4.66,19.04
24.655472993850708,-3.25,16.33,-6.1,17.73
24.66094398498535,2.01,13.47,-7.09,15.35
24.67123293876648,2.55,7.75,-6.32,10.32
24.68106698989868,-1.93,1.76,-6.39,6.9
24.69089984893799,-5.56,-1.99,-5.49,8.06
24.700675010681152,-2.75,-2.54,-6.04,7.1
24.71104598045349,4.93,2.79,-0.91,5.73
24.74683904647827,6.08,-0.5,1.99,6.41
24.74814510345459,-0.15,-3.4,-2.0,3.94
24.74915313720703,-5.31,-4.18,-1.26,6.87
24.75590705871582,-9.16,-4.01,-0.38,10.0
24.76034688949585,-12.19,-3.28,-0.84,12.65
24.774327039718628,-13.9,-3.23,-1.48,14.34
24.780318021774292,-12.27,-3.65,-0.4,12.8
24.790653944015503,-8.08,-4.85,0.82,9.45
24.800086975097656,-5.1,-6.54,1.06,8.36
24.810102939605713,-4.49,-7.6,0.75,8.85
24.846962928771973,-5.42,-6.93,0.24,8.8
24.848374843597412,-5.84,-5.97,-0.57,8.37
24.84934711456299,-5.42,-5.68,-1.51,7.99
24.858814001083374,-4.92,-5.94,-2.08,7.98
24.859795093536377,-4.71,-6.22,-2.32,8.13
24.873842000961304,-4.64,-6.43,-2.41,8.28
24.879300117492676,-4.49,-6.6,-2.45,8.35
24.890143871307373,-4.18,-6.76,-2.38,8.29
24.899609088897705,-3.82,-6.97,-2.24,8.25
24.909238815307617,-3.47,-7.21,-2.04,8.25
24.919495105743408,-3.19,-7.46,-1.8,8.31
24.952234029769897,-2.97,-7.61,-1.49,8.3
24.953414916992188,-2.82,-7.34,-1.01,7.92
24.954413890838623,-2.81,-6.77,-0.54,7.34
24.975546836853027,-2.78,-6.02,0.19,6.63
24.97658681869507,-2.35,-4.45,0.85,5.1
24.99151086807251,-0.96,-2.43,0.77,2.72
24.992552042007446,1.15,0.16,1.11,1.6
25.00717306137085,3.62,3.79,2.42,5.77
25.00865411758423,6.19,8.56,4.04,11.3
25.024063110351562,8.82,13.17,4.51,16.47
25.054556846618652,11.18,16.73,3.28,20.38
25.05586814880371,13.48,18.8,1.62,23.18
25.056874990463257,16.86,18.8,1.86,25.32
25.072927951812744,20.29,16.67,1.96,26.33
25.073930025100708,22.74,13.4,2.5,26.51
25.089962005615234,23.76,10.44,3.61,26.2
25.091020107269287,23.61,8.41,5.66,25.69
25.104680061340332,21.53,10.81,5.07,24.61
25.107544898986816,13.58,2.5,0.75,13.82
25.123718976974487,1.11,-5.48,-6.18,8.33
25.15312695503235,-11.51,-7.25,-17.03,21.79
25.154507160186768,-25.3,15.71,-17.31,34.44
25.155559062957764,-21.43,37.93,7.65,44.23
25.175703048706055,-8.65,16.95,8.43,20.81
25.176748037338257,0.7,-4.57,1.93,5.0
25.19178009033203,7.86,-6.88,5.57,11.83
25.192864894866943,12.89,-6.71,5.02,15.37
25.207365036010742,13.38,-6.62,1.06,14.96
25.20885181427002,12.02,-2.47,-0.61,12.28
25.22372794151306,6.52,0.52,-1.96,6.82
25.252686023712158,1.86,0.72,-2.19,2.96
25.254081964492798,-0.23,0.62,-1.75,1.87
25.25502586364746,-0.23,0.7,0.21,0.76
25.276386976242065,0.58,0.26,1.59,1.71
25.277440071105957,0.74,-0.25,1.94,2.09
25.291949033737183,0.33,-0.66,1.82,1.96
25.2929949760437,0.0,-0.61,1.07,1.23
25.30740213394165,0.05,-0.15,0.15,0.21
25.308874130249023,0.16,0.16,-0.25,0.33
25.323801040649414,0.37,0.2,-0.32,0.52
25.3561749458313,0.71,-0.04,-0.52,0.88
25.357501983642578,0.87,-0.24,-0.61,1.08
25.358534812927246,0.84,-0.25,-0.8,1.18
25.375522136688232,0.77,-0.14,-0.95,1.23
25.37659001350403,0.63,-0.03,-0.74,0.97
25.39184594154358,0.2,0.12,-0.27,0.35
25.392887115478516,-0.3,0.21,0.12,0.38
25.407331943511963,-0.57,0.21,0.33,0.69
25.408719062805176,-0.67,0.13,0.3,0.74
25.423598051071167,-0.7,0.17,0.28,0.77
25.45364284515381,-0.59,0.11,-0.27,0.65
25.455130100250244,-0.27,0.05,-0.91,0.95
25.456100940704346,-0.03,0.12,-0.97,0.97
25.475409984588623,-0.15,0.17,-0.76,0.79
25.476459980010986,-0.58,0.21,-0.66,0.9
25.49183201789856,-0.99,0.4,-0.41,1.14
25.49286413192749,-1.14,0.52,-0.18,1.26
25.507503032684326,-1.07,0.45,-0.26,1.18
25.509009838104248,-0.91,0.32,-0.33,1.01
25.523862838745117,-0.79,0.24,-0.31,0.88
25.55337905883789,-0.72,0.2,-0.18,0.76
25.554617881774902,-0.66,0.11,-0.16,0.68
25.555416107177734,-0.4,0.09,-0.08,0.41
25.575552940368652,-0.16,0.12,-0.14,0.24
25.576634883880615,-0.11,0.36,-0.29,0.47
25.59172487258911,-0.31,0.51,-0.61,0.85
25.59279489517212,-0.76,0.69,-0.41,1.1
25.606536865234375,-1.26,0.94,-0.15,1.57
25.60771608352661,-1.65,1.18,-0.11,2.03
25.623772144317627,-1.77,1.4,-0.06,2.25
25.65212106704712,-1.87,1.55,0.06,2.42
25.653496980667114,-1.94,1.91,-0.2,2.72
25.654470920562744,-1.74,2.1,-1.36,3.04
25.656766891479492,-1.52,2.46,-2.42,3.77
25.663707971572876,-1.51,3.04,-3.13,4.61
25.673550128936768,-1.71,3.68,-2.41,4.71
25.683431148529053,-2.23,4.08,-1.66,4.93
25.693269968032837,-3.2,4.11,-1.2,5.34
25.703299045562744,-4.41,4.45,-0.78,6.31
25.713181972503662,-5.49,5.2,-1.09,7.63
25.72354793548584,-5.9,6.0,-1.87,8.62
25.75627613067627,-6.08,6.59,-2.74,9.37
25.757272958755493,-6.61,7.31,-3.34,10.4
25.758071899414062,-8.04,8.55,-4.12,12.43
25.775474071502686,-10.0,9.98,-4.81,14.92
25.77654504776001,-11.47,10.68,-6.17,16.84
25.7919020652771,-12.68,10.89,-7.65,18.38
25.79294204711914,-13.67,12.59,-7.54,20.05
25.805063009262085,-11.21,15.58,-5.84,20.06
25.81249189376831,-4.8,14.96,-7.5,17.4
25.82240915298462,1.86,12.06,-7.81,14.48
25.854546070098877,4.55,9.04,-4.45,11.05
25.855613946914673,0.83,2.15,-5.16,5.65
25.85644793510437,-4.71,-1.94,-4.92,7.08
25.87550115585327,-5.76,-4.91,-5.8,9.53
25.876539945602417,0.33,-1.4,-4.4,4.62
25.891573905944824,6.33,0.09,1.52,6.51
25.892613887786865,2.74,-4.59,-1.69,5.6
25.907308101654053,-3.84,-6.19,-4.09,8.35
25.91187596321106,-7.74,-6.75,-2.47,10.56
25.924299001693726,-11.11,-6.68,-2.7,13.24
25.955041885375977,-13.76,-6.09,-2.87,15.31
25.95633316040039,-14.88,-5.48,-2.44,16.04
25.95735502243042,-13.05,-5.46,-0.82,14.16
25.975546836853027,-9.72,-6.43,0.84,11.68
25.976591110229492,-7.63,-7.47,1.37,10.76
25.991902828216553,-7.31,-7.71,1.41,10.71
25.992933988571167,-8.06,-6.57,1.26,10.47
26.00761890411377,-8.38,-5.64,0.17,10.1
26.011204957962036,-7.83,-5.37,-0.99,9.54
26.023905992507935,-7.11,-5.29,-1.72,9.02
26.05160093307495,-6.54,-5.24,-2.04,8.62
26.05289602279663,-5.9,-5.15,-2.28,8.15
26.053733825683594,-5.02,-5.05,-2.44,7.52
26.060349941253662,-4.12,-4.97,-2.63,6.97
26.070562839508057,-3.39,-4.8,-2.79,6.5
26.080538988113403,-2.83,-4.48,-3.13,6.15
26.090406894683838,-2.42,-4.1,-3.72,6.04
26.10026502609253,-2.16,-3.17,-3.97,5.52
26.11055302619934,-1.75,-1.36,-3.17,3.86
26.12037992477417,-1.14,0.88,-2.68,3.04
26.15717601776123,0.01,3.05,-3.28,4.47
26.158496856689453,1.78,5.98,-3.76,7.28
26.15948796272278,4.25,11.58,-2.48,12.58
26.174515962600708,6.94,18.55,-0.92,19.82
26.175559043884277,9.59,21.76,-0.5,23.78
26.189152002334595,11.53,18.94,0.39,22.17
26.190206050872803,12.78,18.14,1.79,22.26
26.205080032348633,13.95,18.3,0.88,23.02
26.20926594734192,15.8,15.71,-2.74,22.44
26.221554040908813,19.38,13.54,-2.19,23.74
26.25629711151123,23.39,12.49,3.91,26.8
26.257463932037354,26.34,10.35,11.6,30.58
26.258291006088257,25.32,6.63,15.32,30.32
26.276190042495728,16.54,4.79,12.31,21.16
26.27720308303833,6.05,9.0,6.97,12.89
26.29228687286377,1.24,3.94,-2.77,4.97
26.29332685470581,-4.72,-7.08,-12.24,14.9
26.307601928710938,-15.12,-10.28,-21.24,28.02
26.308658123016357,-29.09,7.82,-19.22,35.73
26.322026014328003,-18.07,24.93,14.84,34.17
26.355345010757446,-4.46,14.28,16.87,22.54
26.356595039367676,3.69,1.87,6.76,7.92
26.357390880584717,10.61,-3.37,1.87,11.28
26.37651014328003,13.37,-5.33,-0.41,14.39
26.377532958984375,14.38,-3.34,-0.25,14.76
26.392394065856934,11.62,-1.97,1.64,11.89
26.393433094024658,5.55,-2.79,0.38,6.22
26.407616138458252,0.89,-2.03,-1.39,2.61
26.408653020858765,-0.64,0.9,-0.51,1.21
26.42428493499756,0.14,1.49,0.98,1.78
26.453729152679443,1.25,-0.57,1.15,1.79
26.455102920532227,1.26,-1.32,0.75,1.97
26.45610284805298,0.59,-0.56,0.38,0.89
26.475996017456055,-0.04,0.07,0.34,0.34
26.47701096534729,-0.26,0.17,0.6,0.67
26.49248504638672,-0.18,0.05,0.79,0.81
26.493536949157715,0.07,-0.02,0.41,0.41
26.50789213180542,0.41,-0.09,-0.3,0.51
26.50929093360901,0.64,-0.09,-0.82,1.04
26.524211883544922,0.58,0.06,-0.69,0.9
26.52701187133789,0.39,0.06,-0.48,0.62
26.569525957107544,0.15,-0.2,-0.64,0.68
26.570683002471924,-0.07,-0.25,-0.57,0.62
26.571672916412354,-0.23,-0.1,-0.24,0.34
26.593195915222168,-0.46,0.08,0.14,0.48
26.594233989715576,-0.52,0.25,0.01,0.57
26.609036922454834,-0.32,0.36,-0.47,0.67
26.61049199104309,-0.16,0.43,-0.81,0.93
26.624778032302856,-0.22,0.44,-0.92,1.04
26.62623691558838,-0.57,0.35,-0.88,1.1
26.640695095062256,-1.06,0.39,-0.76,1.36
26.670634984970093,-1.43,0.57,-0.59,1.64
26.67198610305786,-1.45,0.73,-0.4,1.67
26.67302393913269,-1.07,0.7,-0.34,1.32
26.69288206100464,-0.7,0.54,-0.41,0.97
26.693971157073975,-0.48,0.43,-0.63,0.9
26.708745002746582,-0.41,0.33,-0.75,0.91
26.7097909450531,-0.4,0.28,-0.41,0.63
26.72473907470703,-0.29,0.16,0.02,0.33
26.72618293762207,-0.2,0.0,-0.04,0.2
26.740684986114502,-0.1,0.07,-0.27,0.29
26.769109964370728,-0.07,0.3,-0.45,0.54
26.77049493789673,-0.28,0.57,-0.46,0.78
26.77153491973877,-0.66,0.85,-0.26,1.1
26.77408003807068,-1.16,1.13,0.02,1.61
26.775424003601074,-1.48,1.42,0.15,2.05
26.784780979156494,-1.87,1.75,-0.06,2.56
26.79522705078125,-2.58,2.26,-0.3,3.44
26.804998874664307,-2.82,2.86,-0.03,4.01
26.815011024475098,-2.88,3.11,-0.47,4.26
26.82485294342041,-2.66,2.97,-2.04,4.47
26.855059146881104,-2.24,3.06,-3.38,5.07
26.856240034103394,-2.1,3.41,-3.76,5.49
26.857213973999023,-2.53,3.79,-3.23,5.58
26.875311851501465,-3.64,4.08,-2.55,6.03
26.876308917999268,-4.88,4.52,-1.78,6.88
26.89271593093872,-6.2,5.14,-1.47,8.18
26.893940925598145,-7.25,6.07,-1.69,9.6
26.907907962799072,-7.84,6.73,-3.04,10.77
26.9143009185791,-8.14,6.94,-4.36,11.55
26.924348831176758,-8.47,7.38,-5.08,12.32
26.961215019226074,-9.71,7.96,-6.13,13.97
26.96260404586792,-11.19,8.49,-7.18,15.77
26.96361804008484,-12.52,10.02,-8.12,17.97
26.976565837860107,-11.62,14.83,-7.37,20.23
26.97764015197754,-7.17,18.42,-7.22,21.04
26.991690158843994,-1.16,17.6,-9.08,19.83
26.993205070495605,2.14,13.28,-8.67,16.0
27.008162021636963,0.36,5.89,-9.01,10.77
27.01365900039673,-4.47,1.19,-8.09,9.31
27.02435803413391,-7.12,-2.36,-6.43,9.87
27.060123920440674,-3.78,-2.54,-6.56,7.98
27.06146001815796,4.94,3.55,-0.26,6.08
27.06255006790161,7.69,-0.8,2.35,8.08
27.076159954071045,2.09,-5.4,-3.47,6.75
27.07720708847046,-4.22,-6.2,-3.36,8.21
27.092455863952637,-7.88,-6.44,-1.76,10.32
27.093506813049316,-11.02,-6.55,-2.24,13.01
27.108087062835693,-13.4,-5.79,-1.76,14.7
27.11273193359375,-14.18,-5.11,-1.08,15.11
27.124188899993896,-12.28,-5.28,0.39,13.37
27.160719871520996,-9.23,-5.88,1.27,11.01
27.162117958068848,-7.03,-6.24,1.24,9.48
27.163133144378662,-6.19,-5.89,1.52,8.67
27.17635488510132,-6.29,-4.81,1.49,8.05
27.177433967590332,-6.27,-4.33,0.06,7.62
27.192418098449707,-5.91,-4.34,-1.46,7.47
27.193444967269897,-5.62,-4.19,-2.48,7.43
27.208291053771973,-5.28,-3.8,-3.01,7.16
27.211879014968872,-4.5,-3.41,-3.57,6.68
27.22547483444214,-3.31,-3.29,-4.19,6.27
27.25958800315857,-2.16,-3.7,-4.7,6.35
27.260895013809204,-1.3,-4.39,-5.03,6.8
27.261889934539795,-0.75,-4.29,-4.3,6.12
27.276769161224365,-0.45,-3.18,-3.39,4.66
27.277837991714478,0.63,-1.89,-3.0,3.6
27.292418003082275,2.93,-0.99,-2.97,4.28
27.293462991714478,5.14,-0.53,-2.59,5.78
27.308241844177246,6.82,0.55,-1.42,6.98
27.311249017715454,6.87,2.42,-0.35,7.29
27.32462787628174,6.32,4.62,1.07,7.9
27.33115005493164,6.86,7.0,2.11,10.02
27.37019109725952,8.87,9.48,3.15,13.35
27.371318817138672,11.35,11.7,3.76,16.72
27.372304916381836,13.71,12.54,4.05,19.01
27.39348793029785,15.33,11.4,4.42,19.6
27.39453887939453,16.32,9.96,5.76,19.96
27.409569025039673,17.03,8.98,7.28,20.58
27.411051988601685,17.08,7.71,7.43,20.15
27.42523193359375,16.39,6.38,6.86,18.87
27.4266300201416,15.29,5.27,6.52,17.43
27.441077947616577,14.57,4.24,6.82,16.63
27.47092294692993,14.35,3.24,7.22,16.38
27.47232699394226,13.64,2.0,7.14,15.52
27.473341941833496,8.27,0.98,4.85,9.63
27.49293303489685,-0.23,0.43,-0.55,0.73
27.493984937667847,-10.0,-9.31,-12.05,18.21
27.50915288925171,-27.61,-4.77,-35.24,45.02
27.510273933410645,-28.77,36.17,-6.83,46.71
27.52524185180664,-10.34,45.13,21.78,51.16
27.526780128479004,1.12,12.31,1.26,12.42
27.54125690460205,8.81,-1.74,-1.1,9.04
27.56930685043335,13.34,-8.03,5.62,16.55
27.570773124694824,12.91,-11.93,6.07,18.59
27.57175302505493,10.43,-10.19,2.59,14.8
27.57399606704712,7.39,-5.83,0.28,9.41
27.578922986984253,4.78,-2.28,-0.59,5.32
27.58909296989441,1.95,3.64,-0.89,4.22
27.598963975906372,-0.63,3.82,-1.21,4.05
27.608848094940186,-0.77,0.02,-0.29,0.82
27.618771076202393,0.93,-0.63,-0.55,1.25
27.629034996032715,2.52,-0.3,-1.42,2.9
27.658720016479492,2.51,-0.44,-1.03,2.74
27.659989833831787,0.94,-0.54,0.59,1.23
27.660808086395264,-0.62,-0.02,2.35,2.43
27.67652416229248,-1.05,0.16,2.37,2.59
27.6780948638916,-0.5,-0.2,1.12,1.24
27.692759037017822,0.05,-0.26,0.25,0.36
27.698266983032227,0.19,-0.17,-0.23,0.34
27.708116054534912,0.17,-0.23,-0.5,0.57
27.71797204017639,0.26,-0.24,-0.75,0.82
27.72822093963623,0.3,-0.09,-0.85,0.9
27.76502799987793,0.08,0.18,-0.92,0.94
27.76632595062256,-0.27,0.42,-0.95,1.07
27.767372131347656,-0.58,0.44,-0.97,1.21
27.77592897415161,-0.66,0.38,-0.98,1.24
27.777246952056885,-0.6,0.33,-0.68,0.96
27.79289484024048,-0.75,0.34,-0.29,0.87
27.797278881072998,-1.09,0.42,-0.26,1.19
27.80711603164673,-1.28,0.58,-0.54,1.5
27.81714701652527,-1.13,0.73,-0.83,1.58
27.827409982681274,-0.76,0.77,-0.83,1.36
27.863656044006348,-0.62,0.57,-0.32,0.9
27.865000009536743,-0.74,0.3,0.16,0.81
27.866064071655273,-0.79,0.12,-0.03,0.79
27.867624044418335,-0.66,0.2,-0.49,0.84
27.876988887786865,-0.42,0.44,-0.94,1.11
27.88668394088745,-0.3,0.56,-1.16,1.32
27.896749019622803,-0.6,0.59,-1.26,1.51
27.906689167022705,-1.08,0.68,-1.25,1.78
27.916497945785522,-1.55,0.92,-1.05,2.08
27.92668104171753,-1.68,1.22,-1.04,2.32
27.961537837982178,-1.47,1.38,-1.45,2.48
27.962675094604492,-1.47,1.71,-1.5,2.7
27.963621139526367,-1.69,2.35,-1.29,3.16
27.977247953414917,-2.23,2.99,-1.29,3.94
27.97825288772583,-2.63,3.86,-0.82,4.74
27.992692947387695,-3.1,4.07,-0.79,5.17
27.995654106140137,-3.6,4.29,-0.82,5.66
28.00705909729004,-3.92,4.47,-1.33,6.09
28.016029834747314,-3.88,4.62,-1.76,6.28
28.025784969329834,-4.07,4.78,-2.29,6.68
28.063704013824463,-4.61,5.24,-2.75,7.5
28.06514310836792,-5.51,6.21,-3.02,8.83
28.066165924072266,-7.0,7.62,-3.57,10.94
28.07678985595703,-8.72,9.33,-4.36,13.49
28.07785201072693,-10.12,11.22,-5.79,16.18
28.093059062957764,-10.89,11.97,-9.1,18.56
28.09495496749878,-10.89,11.35,-12.17,19.88
28.105978965759277,-10.71,10.63,-14.09,20.64
28.1152400970459,-10.02,13.79,-10.26,19.89
28.124963998794556,-6.58,18.7,-4.61,20.35
28.1350519657135,-0.99,17.7,-4.93,18.4
28.1665358543396,1.49,9.07,-7.76,12.02
28.167701959609985,-0.3,1.8,-8.71,8.89
28.16895294189453,-4.61,-1.56,-6.77,8.33
28.175822973251343,-5.08,-4.08,-5.89,8.78
28.1845920085907,1.71,0.49,-1.28,2.19
28.194127082824707,6.42,-0.08,4.77,7.99
28.204585075378418,2.18,-5.32,-0.93,5.82
28.214324951171875,-4.02,-6.97,-4.07,9.01
28.22452998161316,-8.38,-7.23,-2.53,11.35
28.234331130981445,-12.1,-6.79,-1.99,14.01
28.266101837158203,-14.63,-5.65,-1.11,15.72
28.267425060272217,-14.54,-4.67,-0.23,15.27
28.268528938293457,-11.53,-5.04,0.44,12.59
28.27373194694519,-8.21,-6.42,0.77,10.45
28.283735990524292,-6.62,-7.46,0.64,9.99
28.293532848358154,-6.81,-7.67,0.79,10.28
28.30356216430664,-7.57,-7.12,0.78,10.42
28.313626050949097,-7.4,-6.83,0.01,10.07
28.32378602027893,-6.71,-6.53,-1.0,9.41
28.333356857299805,-6.13,-6.18,-1.83,8.89
28.36483097076416,-5.65,-5.67,-2.37,8.34
28.36606502532959,-5.04,-5.24,-2.99,7.86
28.367090940475464,-4.11,-4.92,-3.6,7.35
28.374161958694458,-3.11,-4.68,-3.9,6.83
28.38313102722168,-2.39,-4.79,-3.82,6.57
28.39334487915039,-2.09,-5.21,-4.22,7.02
28.402885913848877,-2.19,-4.96,-4.21,6.86
28.412982940673828,-2.38,-3.7,-3.48,5.6
28.423040866851807,-2.04,-1.99,-2.77,3.97
28.43280601501465,-0.43,-0.09,-2.36,2.4
28.464574813842773,2.21,1.4,-2.05,3.32
28.465991973876953,4.9,3.11,-1.05,5.89
28.466997146606445,6.93,5.8,0.32,9.04
28.477118968963623,8.08,9.93,1.16,12.85
28.482221126556396,9.62,14.39,0.87,17.33
28.49329400062561,11.99,16.6,0.59,20.48
28.50264883041382,14.6,16.23,0.63,21.83
28.51293396949768,17.51,14.97,2.21,23.14
28.522958993911743,20.24,14.16,3.92,25.01
28.531908988952637,21.93,12.27,5.16,25.65
28.57159185409546,21.84,9.53,6.4,24.67
28.572969913482666,19.03,7.28,6.91,21.51
28.573982000350952,15.13,6.25,8.05,18.24
28.593600034713745,11.21,6.61,8.68,15.64
28.59461784362793,5.1,8.83,9.37,13.84
28.610119819641113,0.29,3.31,3.27,4.66
28.61157989501953,-5.8,-4.7,-4.82,8.88
28.625643014907837,-16.01,-3.48,-11.48,20.0
28.627117156982422,-22.02,17.59,-9.21,29.64
28.6406090259552,-11.29,26.67,7.16,29.83
28.670916080474854,1.16,11.57,7.54,13.85
28.67225694656372,6.62,-3.09,2.29,7.65
28.673259019851685,11.46,-2.83,1.37,11.88
28.69386100769043,12.97,-2.73,1.12,13.3
28.69486904144287,8.62,-3.36,-1.59,9.38
28.71012783050537,3.6,-2.39,-0.67,4.37
28.711605072021484,1.9,-1.37,0.19,2.35
28.72592782974243,2.61,-0.53,-0.62,2.73
28.72740888595581,2.96,0.27,0.14,2.97
28.741822957992554,2.12,-0.05,1.13,2.4
28.772222995758057,0.93,-0.78,1.05,1.6
28.77367115020752,0.01,-0.31,1.0,1.04
28.774667978286743,-0.49,0.25,1.16,1.28
28.79365587234497,-0.3,-0.03,1.19,1.22
28.794697999954224,0.32,-0.41,1.26,1.36
28.809869050979614,0.83,-0.59,0.62,1.19
28.81093406677246,1.1,-0.39,-0.39,1.23
28.825870037078857,1.03,0.01,-0.88,1.35
28.827291011810303,0.75,0.11,-0.81,1.1
28.841826915740967,0.5,-0.05,-0.47,0.68
28.870620012283325,0.48,-0.22,-0.3,0.6
28.872064113616943,0.55,-0.35,-0.58,0.87
28.87305212020874,0.44,-0.27,-0.58,0.77
28.894096851348877,0.06,-0.06,-0.18,0.19
28.895136833190918,-0.42,0.12,0.44,0.62
28.909602165222168,-0.73,0.37,0.89,1.2
28.910654067993164,-0.44,0.33,0.16,0.57
28.92604112625122,0.11,0.1,-0.79,0.8
28.927502155303955,0.2,0.15,-0.83,0.86
28.941756010055542,-0.17,0.32,-0.64,0.73
28.94328999519348,-0.73,0.46,-0.68,1.09
28.988950967788696,-1.04,0.77,-0.47,1.37
28.990120887756348,-1.07,0.84,-0.33,1.39
28.99111795425415,-0.9,0.73,-0.34,1.2
29.010555028915405,-0.69,0.57,-0.43,0.99
29.01160717010498,-0.53,0.4,-0.65,0.92
29.027173042297363,-0.51,0.32,-0.89,1.07
29.02865505218506,-0.57,0.3,-1.18,1.34
29.0421359539032,-0.62,0.45,-1.2,1.42
29.04361581802368,-0.73,0.64,-1.1,1.46
29.058518886566162,-0.83,0.83,-0.96,1.51
29.08984398841858,-0.76,0.96,-0.76,1.44
29.091206073760986,-0.83,0.91,-0.83,1.48
29.092177867889404,-1.15,1.04,-0.67,1.68
29.110594034194946,-1.53,1.35,-0.51,2.1
29.11162304878235,-2.12,1.96,-0.5,2.93
29.127259016036987,-2.34,2.34,-0.41,3.33
29.128643035888672,-2.61,2.57,-0.49,3.69
29.142734050750732,-2.71,2.79,-0.77,3.96
29.144145965576172,-2.67,3.02,-1.03,4.16
29.158584117889404,-2.83,3.27,-1.18,4.48
29.189126014709473,-3.22,3.55,-1.21,4.94
29.190556049346924,-3.72,3.81,-1.32,5.48
29.191561937332153,-4.24,3.98,-1.41,5.98
29.211402893066406,-4.71,4.09,-1.58,6.43
29.212885856628418,-5.23,4.31,-1.74,6.99
29.227179050445557,-5.72,4.69,-2.06,7.67
29.228654861450195,-6.29,5.18,-2.61,8.55
29.242342948913574,-7.05,5.98,-3.46,9.87
29.243826866149902,-8.04,7.07,-4.71,11.69
29.258700847625732,-9.07,8.11,-6.37,13.73
29.289083003997803,-10.01,8.81,-7.84,15.46
29.290500164031982,-10.86,9.98,-9.06,17.3
29.291669845581055,-10.49,14.33,-7.62,19.32
29.310440063476562,-7.65,18.43,-5.14,20.6
29.311480045318604,-2.05,17.31,-7.33,18.9
29.32716989517212,1.4,11.84,-8.56,14.67
29.32865810394287,0.5,5.3,-8.32,9.87
29.34248685836792,-3.43,1.24,-7.6,8.42
29.343961000442505,-6.47,-2.0,-6.07,9.09
29.358852863311768,-4.34,-3.48,-6.89,8.85
29.38903498649597,3.87,3.02,-2.41,5.46
29.390453815460205,7.02,0.53,1.7,7.24
29.391469955444336,1.5,-4.34,-2.93,5.44
29.410568952560425,-4.64,-5.24,-3.26,7.72
29.411608934402466,-8.2,-5.22,-1.9,9.9
29.426915168762207,-11.21,-5.2,-2.42,12.59
29.427958965301514,-13.58,-4.46,-2.58,14.52
29.44261598587036,-13.97,-3.29,-1.68,14.45
29.444085121154785,-11.71,-2.99,0.13,12.08
29.458963871002197,-8.69,-4.08,1.13,9.66
29.488297939300537,-6.49,-5.5,1.67,8.66
29.48955488204956,-5.75,-6.28,1.91,8.72
29.490581035614014,-6.19,-5.96,1.66,8.75
29.510488033294678,-6.38,-5.08,0.82,8.19
29.511553049087524,-5.83,-4.47,-0.47,7.36
29.527274131774902,-5.02,-4.06,-1.57,6.64
29.528753995895386,-4.36,-3.71,-2.16,6.11
29.542474031448364,-3.83,-3.57,-2.54,5.81
29.54396915435791,-3.4,-3.75,-2.88,5.82
29.558769941329956,-3.01,-4.07,-3.0,5.88
29.58902883529663,-2.5,-4.47,-3.01,5.94
29.590402126312256,-1.81,-4.82,-2.85,5.88
29.591365814208984,-1.02,-4.8,-2.12,5.34
29.610487937927246,-0.09,-4.47,-1.44,4.69
29.611538887023926,1.02,-3.77,-1.36,4.13
29.62720799446106,2.5,-2.79,-1.54,4.05
