time,ax,ay,az,atotal
0.0027599334716796875,-0.67,-0.71,0.18,0.99
0.004372119903564453,0.17,0.41,-0.79,0.9
0.020083904266357422,0.65,-0.14,-0.35,0.75
0.023045063018798828,-0.38,0.11,0.45,0.59
0.03302192687988281,-0.23,0.1,-0.02,0.25
0.0670170783996582,0.0,0.09,-0.4,0.41
0.06908988952636719,-0.03,0.25,-0.36,0.43
0.0705881118774414,-0.06,0.18,-0.15,0.24
0.08308792114257812,-0.17,0.07,-0.12,0.21
0.08452892303466797,-0.04,-0.03,-0.12,0.13
0.10063600540161133,0.14,0.04,-0.13,0.19
0.1023709774017334,0.08,0.01,0.01,0.08
0.11716413497924805,0.07,0.0,0.21,0.22
0.12288713455200195,0.06,-0.1,0.29,0.31
0.13551902770996094,0.0,-0.1,0.24,0.26
0.16512393951416016,0.04,-0.1,0.11,0.15
0.16687297821044922,0.06,-0.01,0.04,0.07
0.16832995414733887,0.02,-0.02,-0.04,0.04
0.18389296531677246,-0.05,0.03,-0.01,0.05
0.18536615371704102,-0.01,0.05,-0.04,0.06
0.2007899284362793,0.04,-0.01,-0.12,0.12
0.20232295989990234,0.01,0.01,-0.11,0.11
0.21727800369262695,0.04,0.03,0.01,0.05
0.22183513641357422,0.07,0.02,0.08,0.1
0.23827505111694336,0.07,0.07,0.03,0.1
0.2445530891418457,0.04,0.01,-0.01,0.04
0.26597094535827637,-0.03,-0.03,-0.04,0.05
0.26759910583496094,-0.08,0.0,0.08,0.11
0.27104806900024414,-0.09,0.02,0.21,0.22
0.2845730781555176,0.04,-0.01,0.13,0.13
0.29132699966430664,0.03,-0.04,0.0,0.05
0.30092811584472656,-0.04,0.02,0.0,0.04
0.31085681915283203,0.13,-0.03,-0.04,0.13
0.3210909366607666,0.23,0.03,-0.02,0.23
0.3310360908508301,0.21,0.05,0.06,0.22
0.3438410758972168,0.13,0.0,0.07,0.14
0.3648369312286377,0.0,-0.02,0.0,0.02
0.3664419651031494,-0.11,-0.08,-0.06,0.14
0.37073802947998047,-0.03,-0.17,0.19,0.25
0.3854939937591553,0.46,-0.27,0.29,0.6
0.39041709899902344,0.49,-0.23,0.15,0.56
0.40037012100219727,0.28,-0.15,0.09,0.33
0.4101839065551758,0.19,-0.11,0.27,0.34
0.42000389099121094,0.24,-0.1,0.28,0.38
0.4333019256591797,0.11,-0.06,0.27,0.29
0.4430830478668213,0.0,-0.07,0.24,0.25
0.4641859531402588,0.05,-0.03,0.19,0.19
0.46574997901916504,0.05,0.01,0.12,0.13
0.46965885162353516,0.09,0.03,0.04,0.1
0.4851808547973633,0.01,-0.06,-0.01,0.06
0.4896368980407715,-0.18,-0.08,0.04,0.2
0.5005090236663818,0.05,-0.1,-0.2,0.22
0.5096709728240967,0.26,-0.16,0.04,0.3
0.5196738243103027,0.45,-0.18,0.61,0.77
0.5300588607788086,0.65,-0.37,1.08,1.31
0.5423099994659424,0.68,-0.42,0.95,1.24
0.5640969276428223,0.54,-0.23,0.57,0.81
0.5656540393829346,0.15,0.0,0.17,0.22
0.5690369606018066,-0.17,0.19,-0.01,0.25
0.5856170654296875,-0.22,0.19,-0.28,0.4
0.5888729095458984,-0.14,0.17,-0.45,0.5
0.6006100177764893,-0.09,0.22,-0.4,0.46
0.6086111068725586,-0.17,0.12,-0.4,0.45
0.6188559532165527,-0.36,-0.02,-0.51,0.62
0.6317110061645508,-0.59,0.14,-0.37,0.71
0.6388440132141113,-0.67,0.14,-0.3,0.74
0.6709418296813965,-0.58,0.05,-0.16,0.6
0.6726951599121094,-0.31,0.1,0.18,0.37
0.6741490364074707,-0.05,-0.05,0.39,0.39
0.6849608421325684,0.0,-0.08,0.52,0.52
0.688046932220459,-0.19,-0.11,0.4,0.45
0.7008328437805176,-0.41,0.02,0.3,0.5
0.7081489562988281,-0.36,0.07,0.12,0.38
0.7177610397338867,-0.14,0.05,0.05,0.15
0.7281250953674316,-0.05,0.04,0.2,0.21
0.7401449680328369,-0.15,-0.08,0.29,0.33
0.7717330455780029,-0.24,-0.14,0.17,0.32
0.7733631134033203,-0.2,-0.08,-0.02,0.21
0.7751209735870361,-0.19,-0.05,-0.01,0.19
0.7842950820922852,-0.09,-0.06,0.13,0.16
0.787567138671875,0.19,-0.03,0.52,0.55
0.800806999206543,0.44,-0.04,0.87,0.97
0.8074479103088379,0.43,-0.13,0.63,0.77
0.8176870346069336,0.06,0.0,0.08,0.1
0.8273539543151855,-0.35,0.29,-0.24,0.51
0.8397049903869629,-0.42,0.28,-0.57,0.76
0.8690769672393799,-0.36,0.16,-0.81,0.9
0.8709940910339355,-0.29,0.08,-0.83,0.88
0.8723950386047363,-0.2,0.05,-0.7,0.72
0.8843679428100586,-0.17,-0.05,-0.35,0.39
0.886476993560791,-0.12,-0.07,-0.08,0.16
0.8983149528503418,-0.09,-0.18,-0.27,0.33
0.9066958427429199,-0.21,-0.11,-0.25,0.34
0.9162001609802246,-0.17,0.12,0.15,0.25
0.9263839721679688,0.1,-0.05,0.19,0.22
0.9386858940124512,0.19,-0.12,0.21,0.3
0.965479850769043,0.06,0.03,0.33,0.33
0.9673929214477539,-0.06,0.09,0.21,0.23
0.9688510894775391,-0.05,0.0,-0.16,0.16
0.9853458404541016,-0.01,0.0,-0.19,0.19
0.9866459369659424,0.1,-0.1,-0.07,0.15
1.0007970333099365,0.16,-0.08,0.17,0.24
1.0057401657104492,0.01,0.12,0.36,0.37
1.0173521041870117,-0.1,0.23,0.27,0.36
1.0262770652770996,-0.19,0.12,-0.05,0.23
1.0382020473480225,-0.35,0.08,-0.08,0.36
1.0482189655303955,-0.39,0.06,0.04,0.39
1.070842981338501,-0.23,-0.02,0.17,0.28
1.0724940299987793,0.07,-0.04,0.23,0.24
1.074997901916504,0.24,-0.08,0.22,0.33
1.0859079360961914,0.15,0.06,0.32,0.35
1.0950331687927246,-0.09,0.12,0.31,0.34
1.104984998703003,-0.26,0.07,0.0,0.26
1.1151559352874756,-0.25,0.12,-0.41,0.49
1.1250050067901611,-0.21,0.14,-0.71,0.75
1.1378288269042969,-0.49,0.07,-0.47,0.68
1.144531011581421,-0.68,0.15,-0.18,0.71
1.168792963027954,-0.33,0.14,-0.62,0.71
1.1702449321746826,0.17,0.16,-0.82,0.85
1.1745109558105469,0.43,0.17,-0.44,0.63
1.1860418319702148,0.59,0.1,-0.05,0.6
1.19439697265625,0.68,0.0,-0.04,0.68
1.2042269706726074,0.58,-0.01,-0.17,0.6
1.2142748832702637,0.39,0.06,-0.22,0.45
1.2272930145263672,0.23,0.1,-0.21,0.32
1.2341718673706055,0.11,0.11,-0.17,0.23
1.24692702293396,-0.02,0.07,-0.18,0.19
1.2706708908081055,-0.06,0.03,-0.27,0.27
1.2723441123962402,0.07,0.05,-0.33,0.34
1.2740788459777832,0.21,0.1,-0.27,0.35
1.2857298851013184,0.15,0.08,-0.14,0.22
1.2934479713439941,-0.05,-0.06,-0.03,0.08
1.3037371635437012,-0.06,-0.09,0.08,0.13
1.3135550022125244,0.22,0.02,0.06,0.22
1.3234648704528809,0.22,0.08,-0.05,0.23
1.3331999778747559,-0.09,0.07,-0.03,0.11
1.346595048904419,-0.27,0.06,-0.03,0.27
1.366912841796875,-0.19,0.08,-0.06,0.21
1.3685359954833984,-0.1,0.05,-0.03,0.11
1.3730299472808838,-0.08,0.0,0.04,0.08
1.3853609561920166,-0.04,0.04,-0.06,0.08
1.392561912536621,-0.04,0.17,-0.25,0.3
1.402966022491455,-0.24,0.21,-0.26,0.41
1.4127049446105957,-0.48,0.13,-0.14,0.51
1.422572135925293,-0.42,0.13,-0.2,0.48
1.4352378845214844,-0.25,0.1,-0.25,0.36
1.4456439018249512,-0.15,0.05,-0.13,0.2
1.4716968536376953,-0.08,-0.07,-0.03,0.11
1.473315954208374,-0.06,-0.06,0.08,0.11
1.4747860431671143,0.03,0.04,0.07,0.08
1.484346866607666,0.17,0.14,-0.16,0.27
1.4922518730163574,0.18,0.22,-0.19,0.34
1.5018959045410156,0.01,0.15,-0.01,0.15
1.5118770599365234,-0.24,0.02,0.11,0.26
1.5218780040740967,-0.55,-0.01,0.13,0.56
1.5324220657348633,-0.7,0.09,-0.03,0.7
1.5451829433441162,-0.35,0.19,-0.26,0.47
1.5707409381866455,0.1,0.15,-0.1,0.2
1.5723729133605957,0.11,0.0,0.21,0.23
1.574146032333374,-0.15,-0.07,0.25,0.29
1.5857000350952148,-0.17,0.01,0.06,0.18
1.591454029083252,-0.06,0.08,-0.26,0.27
1.6012248992919922,-0.25,0.26,-0.29,0.46
1.6110939979553223,-0.66,0.41,-0.25,0.81
1.6210479736328125,-1.08,0.5,-0.22,1.21
1.6316959857940674,-1.54,0.72,0.32,1.72
1.6439459323883057,-1.71,0.77,-0.04,1.87
1.6704578399658203,-1.64,0.79,-0.75,1.96
1.6720759868621826,-1.95,1.37,-0.73,2.49
1.673792839050293,-2.43,1.99,-1.04,3.3
1.6857948303222656,-2.91,2.65,-1.75,4.3
1.6904730796813965,-3.2,3.6,-2.71,5.52
1.7006709575653076,-3.1,4.33,-4.02,6.67
1.7106060981750488,-2.67,4.83,-5.11,7.52
1.720348834991455,-2.78,5.66,-5.34,8.26
1.7308578491210938,-3.26,5.84,-5.29,8.52
1.7432560920715332,-3.91,6.46,-4.99,9.05
1.7745318412780762,-4.02,7.03,-4.68,9.35
1.776144027709961,-3.55,7.39,-3.76,9.01
1.7778069972991943,-3.22,7.18,-3.13,8.46
1.7805449962615967,-3.62,6.16,-2.95,7.72
1.8014631271362305,-5.46,3.04,-2.92,6.89
1.8029789924621582,-8.09,1.23,-0.41,8.19
1.8181591033935547,-8.94,1.1,3.19,9.55
1.819666862487793,-9.69,-4.46,3.81,11.32
1.8335728645324707,-10.32,-7.56,2.9,13.11
1.8401141166687012,-10.76,-7.37,1.65,13.14
1.8533079624176025,-10.14,-6.64,0.89,12.15
1.876999855041504,-8.69,-6.06,0.41,10.6
1.8788690567016602,-7.28,-5.58,0.03,9.17
1.880281925201416,-6.43,-5.13,0.19,8.22
1.889214038848877,-5.46,-4.2,0.92,6.94
1.8992319107055664,-4.18,-3.38,1.41,5.55
1.9089760780334473,-3.35,-2.68,1.73,4.62
1.9189929962158203,-3.19,-1.7,2.04,4.15
1.928745985031128,-2.98,-0.7,2.16,3.74
1.9387519359588623,-2.31,0.13,1.88,2.98
1.9517569541931152,-1.47,0.78,1.4,2.17
1.9765329360961914,-0.81,1.22,0.95,1.74
1.9781420230865479,0.01,1.53,0.82,1.73
1.9797720909118652,1.15,1.85,0.68,2.28
1.9885249137878418,2.69,2.34,0.61,3.61
1.9985020160675049,4.08,2.72,0.72,4.95
2.008301019668579,4.62,2.92,0.85,5.53
2.0181679725646973,4.01,2.88,0.86,5.01
2.0279829502105713,3.29,2.96,1.1,4.56
2.038081169128418,3.62,3.07,0.81,4.81
2.048520088195801,4.14,2.96,0.33,5.1
2.075605869293213,4.6,2.78,0.22,5.37
2.0772619247436523,5.37,2.2,0.32,5.81
2.0790090560913086,6.16,1.51,0.73,6.38
2.087614059448242,6.53,0.78,1.1,6.66
2.101562023162842,6.39,0.36,1.3,6.53
2.1073408126831055,6.04,0.13,1.33,6.18
2.117341995239258,5.54,-0.18,1.23,5.67
2.1270029544830322,5.06,-0.39,1.1,5.19
2.1371688842773438,5.11,-0.9,0.97,5.27
2.1496059894561768,5.54,-1.58,0.84,5.82
2.174708843231201,5.69,-2.28,0.67,6.16
2.1760058403015137,5.59,-2.84,0.66,6.3
2.177311897277832,5.44,-3.3,0.67,6.39
2.186763048171997,5.33,-3.78,0.56,6.55
2.1969528198242188,5.27,-4.17,0.36,6.72
2.2068159580230713,5.18,-4.55,0.15,6.89
2.2167458534240723,4.89,-4.92,0.15,6.93
2.2266311645507812,4.55,-5.24,0.42,6.95
2.2366890907287598,4.38,-5.72,0.72,7.24
2.2470059394836426,4.58,-6.34,1.2,7.91
2.281280994415283,4.9,-6.4,1.59,8.21
2.2829251289367676,-0.03,-3.53,0.45,3.55
2.2844009399414062,-9.18,-0.21,-1.72,9.34
2.3023760318756104,-14.28,17.22,-5.37,23.0
2.3038699626922607,-15.15,45.21,8.92,48.5
2.316648006439209,-9.24,35.5,2.17,36.74
2.3181700706481934,-1.65,4.84,-18.06,18.76
2.3351588249206543,2.72,-6.89,-9.91,12.37
2.336650848388672,7.19,-8.95,0.87,11.51
2.3509349822998047,10.68,-11.75,6.08,17.0
2.380478858947754,11.77,-11.59,7.99,18.34
2.3822410106658936,8.75,-5.38,4.26,11.12
2.383718967437744,3.74,0.03,1.19,3.92
2.402484893798828,-0.24,2.8,-0.74,2.9
2.403923988342285,-2.09,2.99,-2.79,4.59
2.41617488861084,-2.11,1.97,-1.86,3.43
2.4175620079040527,-0.17,0.61,0.91,1.1
2.43544602394104,1.9,-0.43,1.66,2.55
2.436922073364258,2.04,-1.02,0.47,2.32
2.4543728828430176,0.95,-0.67,-0.75,1.38
2.476375102996826,0.19,0.26,-1.1,1.14
2.4777488708496094,0.01,0.49,-1.3,1.38
2.4787709712982178,0.18,0.22,-1.28,1.31
2.4844961166381836,0.29,0.07,-0.65,0.71
2.50179386138916,0.3,-0.01,0.12,0.32
2.504333019256592,0.11,-0.02,0.73,0.73
2.518425941467285,-0.22,0.08,0.88,0.91
2.5242490768432617,-0.58,0.12,0.62,0.85
2.5340981483459473,-0.62,0.22,0.36,0.74
2.5475049018859863,-0.35,0.25,0.11,0.44
2.577702045440674,-0.2,0.17,-0.02,0.26
2.579115867614746,-0.15,-0.01,-0.16,0.21
2.5801219940185547,-0.17,-0.05,-0.19,0.25
2.5837368965148926,-0.34,0.05,-0.33,0.47
2.593903064727783,-0.56,0.27,-0.61,0.87
2.6038661003112793,-0.65,0.44,-0.66,1.02
2.613770008087158,-0.65,0.46,-0.27,0.84
2.623845100402832,-0.71,0.3,0.11,0.77
2.6336541175842285,-0.85,0.23,0.33,0.94
2.643742084503174,-0.94,0.33,0.13,1.0
2.656010150909424,-0.92,0.48,0.03,1.03
2.6821770668029785,-1.04,0.56,-0.07,1.18
2.6840081214904785,-1.41,0.55,-0.48,1.58
2.6854500770568848,-1.58,0.59,-0.61,1.79
2.702101945877075,-1.26,0.58,-0.49,1.47
2.703558921813965,-0.98,0.51,-0.32,1.15
2.7182130813598633,-0.88,0.5,-0.21,1.03
2.722723960876465,-0.73,0.59,-0.04,0.93
2.734874963760376,-0.64,0.75,0.07,0.98
2.743278980255127,-0.58,0.84,0.07,1.02
2.755002975463867,-0.73,0.91,0.09,1.17
2.7801949977874756,-1.01,1.09,0.08,1.48
2.782066822052002,-1.31,1.46,0.27,1.98
2.7835140228271484,-1.51,1.85,0.74,2.5
2.802051067352295,-1.73,1.94,0.48,2.64
2.803546905517578,-1.9,2.36,0.45,3.06
2.8183469772338867,-2.2,2.57,0.57,3.43
2.8219170570373535,-2.46,2.78,0.57,3.75
2.834951877593994,-2.7,2.94,0.25,3.99
2.8424949645996094,-2.83,3.26,-0.07,4.31
2.8541460037231445,-3.08,3.63,-0.28,4.76
2.8788838386535645,-3.63,4.11,-0.25,5.48
2.880847930908203,-4.26,4.59,-0.1,6.26
2.881916046142578,-4.9,5.17,0.33,7.13
2.902390956878662,-6.01,6.11,0.72,8.6
2.903860092163086,-7.5,7.65,1.17,10.77
2.918473958969116,-8.62,9.93,1.62,13.24
2.921154022216797,-9.56,12.35,0.81,15.63
2.9363651275634766,-10.58,14.04,-1.12,17.61
2.9410500526428223,-11.59,14.61,-2.67,18.83
2.951169013977051,-12.86,15.27,-3.59,20.28
2.977971076965332,-13.33,16.05,-2.78,21.04
2.979820966720581,-9.67,15.08,-4.08,18.37
2.9811079502105713,-2.16,14.04,-7.24,15.94
2.9910688400268555,2.98,11.81,-4.85,13.11
3.000831127166748,4.31,7.96,-2.39,9.36
3.010684013366699,0.78,1.43,-3.15,3.54
3.0207180976867676,1.3,1.73,-2.2,3.08
3.030648946762085,7.2,0.48,1.3,7.33
3.040168046951294,8.34,-4.22,1.1,9.41
3.0509719848632812,2.47,-2.1,-2.97,4.39
3.088397979736328,-3.87,-0.67,-0.45,3.95
3.0900940895080566,-7.44,-1.25,0.59,7.56
3.0915451049804688,-9.54,-2.45,0.37,9.85
3.1026759147644043,-10.67,-3.84,0.81,11.36
3.104154109954834,-10.22,-5.08,1.91,11.57
3.1184990406036377,-7.8,-5.76,3.24,10.22
3.119990825653076,-5.03,-5.67,2.89,8.11
3.135448932647705,-3.93,-5.32,1.74,6.83
3.1396288871765137,-3.98,-5.29,0.96,6.68
3.1510658264160156,-4.61,-5.46,0.59,7.17
3.1856231689453125,-4.98,-6.05,0.09,7.83
3.1875510215759277,-5.05,-6.19,-0.37,7.99
3.188995838165283,-4.91,-6.42,-0.7,8.11
3.2026519775390625,-4.78,-6.55,-0.77,8.14
3.204375982284546,-4.65,-6.71,-0.63,8.18
3.218319892883301,-4.41,-6.97,-0.27,8.25
3.219788074493408,-4.13,-7.2,0.01,8.3
3.2289791107177734,-3.81,-7.44,0.28,8.36
3.2390570640563965,-3.48,-7.53,0.53,8.31
3.2490949630737305,-2.95,-7.67,0.85,8.26
3.280333995819092,-2.29,-7.91,0.65,8.26
3.2818100452423096,-1.53,-7.83,0.28,7.98
3.2832579612731934,-0.83,-7.42,0.37,7.47
3.3022799491882324,-0.1,-6.77,0.79,6.81
3.3038039207458496,1.2,-5.96,0.5,6.1
3.3187079429626465,3.2,-5.35,-0.62,6.26
3.320204019546509,5.26,-4.44,-1.56,7.05
3.335689067840576,7.61,-2.9,-1.43,8.26
3.3380630016326904,10.49,-1.25,-0.67,10.58
3.3543169498443604,13.43,0.21,0.49,13.44
3.381969928741455,15.31,1.26,1.37,15.42
3.3837361335754395,15.45,2.06,1.02,15.62
3.384737014770508,14.45,2.88,0.34,14.73
3.4017300605773926,13.47,3.63,-0.59,13.96
3.4032788276672363,14.2,4.8,-1.42,15.05
3.4189038276672363,16.1,5.86,-2.44,17.3
3.4204421043395996,18.55,6.2,-2.02,19.66
3.4394049644470215,20.09,5.84,-0.53,20.92
3.4409170150756836,17.81,4.17,0.79,18.3
3.4501991271972656,8.72,6.36,2.93,11.18
3.460157871246338,-1.68,3.45,1.78,4.23
3.4913339614868164,-13.45,2.88,-3.0,14.07
3.4930429458618164,-23.76,24.63,-7.37,35.0
3.494511127471924,-26.4,38.61,7.76,47.41
3.4984610080718994,-21.04,19.31,-7.19,29.44
3.507025957107544,-7.75,1.93,-6.73,10.44
3.518731117248535,2.09,-5.62,0.81,6.05
3.5270180702209473,7.57,-11.56,3.77,14.32
3.536518096923828,10.61,-14.62,2.22,18.2
3.5468578338623047,12.38,-12.6,0.57,17.67
3.5566158294677734,13.67,-4.4,2.78,14.62
3.5841708183288574,11.72,1.82,1.83,12.0
3.5855798721313477,5.24,2.24,-2.82,6.35
3.5866150856018066,0.11,3.09,-2.84,4.19
3.6027050018310547,-2.06,3.47,-2.25,4.62
3.606156826019287,-2.75,1.99,-0.91,3.51
3.61881685256958,-1.02,-0.24,0.85,1.34
3.6259641647338867,1.25,-1.26,1.3,2.2
3.635817050933838,1.9,-1.29,1.08,2.53
3.6458358764648438,0.93,-0.68,0.46,1.24
3.65846586227417,-0.16,0.21,-0.33,0.42
3.687081813812256,-0.35,0.57,-1.03,1.22
3.688249111175537,0.16,0.36,-1.29,1.34
3.689424991607666,0.81,-0.11,-1.1,1.37
3.703601837158203,0.99,-0.3,-0.29,1.07
3.705265998840332,0.72,-0.24,0.71,1.03
3.7184669971466064,0.4,-0.19,1.37,1.43
3.7253150939941406,0.15,-0.23,1.43,1.45
3.7350900173187256,0.03,-0.26,0.85,0.88
3.7450718879699707,-0.11,-0.06,0.24,0.27
3.7548539638519287,-0.48,0.27,-0.09,0.55
3.7825450897216797,-1.0,0.5,-0.43,1.19
3.7838730812072754,-1.39,0.61,-0.47,1.58
3.7849068641662598,-1.22,0.62,-0.39,1.42
3.802867889404297,-0.4,0.33,-0.84,0.98
3.804478168487549,0.25,0.18,-0.81,0.86
3.818743944168091,0.12,0.19,-0.04,0.22
3.8244760036468506,-0.6,0.06,0.42,0.73
3.834336996078491,-1.42,0.02,0.42,1.48
3.8444700241088867,-2.08,0.3,0.01,2.1
3.854167938232422,-2.37,0.7,-0.7,2.56
3.8913588523864746,-2.28,0.91,-1.24,2.75
3.8931589126586914,-1.99,0.97,-0.94,2.4
3.8943660259246826,-1.66,0.78,-0.42,1.88
3.898792028427124,-1.5,0.55,-0.19,1.6
3.903553009033203,-1.45,0.67,-0.08,1.59
3.919538974761963,-1.21,0.89,-0.08,1.5
3.923788070678711,-0.97,0.87,0.01,1.3
3.933474063873291,-0.87,0.7,0.06,1.11
3.943838119506836,-0.88,0.6,0.26,1.09
3.9535470008850098,-1.05,0.71,0.3,1.3
3.987399101257324,-1.24,1.01,0.06,1.6
3.9890828132629395,-1.48,1.68,0.15,2.24
3.9905481338500977,-1.69,2.24,0.22,2.81
4.0029520988464355,-1.99,2.78,0.43,3.44
4.004418849945068,-2.18,3.18,0.55,3.89
4.018788814544678,-2.49,3.48,0.8,4.35
4.023087024688721,-2.82,3.75,0.51,4.71
4.035578966140747,-3.21,3.94,0.17,5.08
4.042769908905029,-3.65,4.35,0.13,5.67
4.05259895324707,-4.26,5.35,0.66,6.87
4.089617013931274,-5.31,7.35,1.17,9.14
4.091341972351074,-6.79,9.82,1.03,11.98
4.092373847961426,-8.68,12.38,0.03,15.11
4.102755069732666,-10.32,13.57,-1.52,17.11
4.104197978973389,-11.32,13.57,-2.66,17.87
4.116521835327148,-11.64,12.75,-3.49,17.61
4.122931957244873,-12.11,11.85,-4.07,17.42
4.13285493850708,-12.76,12.62,-3.67,18.31
4.142112970352173,-11.08,13.98,-3.85,18.24
4.151948928833008,-5.02,14.16,-6.85,16.51
4.186228036880493,0.9,12.14,-7.06,14.07
4.187995910644531,3.94,9.13,-2.79,10.32
4.189158916473389,2.89,4.27,-1.76,5.44
4.203439950942993,0.37,0.06,-1.98,2.01
4.204894065856934,4.3,1.83,0.54,4.7
4.219113826751709,8.33,-2.29,2.89,9.1
4.2213709354400635,4.72,-2.11,-1.36,5.34
4.23567008972168,-1.8,1.09,-1.65,2.67
4.241346836090088,-5.75,1.62,0.2,5.97
4.251101970672607,-7.69,0.84,-0.1,7.73
4.261818885803223,-8.65,-0.46,-0.11,8.66
4.291898012161255,-8.02,-1.87,0.87,8.28
4.293030023574829,-5.89,-3.09,1.81,6.89
4.294382095336914,-3.91,-4.47,2.14,6.31
4.300604820251465,-3.24,-5.14,2.27,6.48
4.310638904571533,-3.49,-5.57,2.05,6.88
4.3207879066467285,-3.74,-5.91,1.63,7.18
4.330728054046631,-3.76,-6.07,0.78,7.18
4.340598106384277,-3.98,-6.21,0.0,7.37
4.350553035736084,-4.74,-6.11,-0.25,7.73
4.360405921936035,-5.29,-6.9,-0.62,8.71
4.389681816101074,-5.86,-7.14,-0.41,9.24
4.391032934188843,-6.44,-7.15,0.08,9.62
4.392047882080078,-6.83,-7.44,0.63,10.11
4.4018940925598145,-6.79,-7.84,1.18,10.43
4.410163879394531,-6.36,-8.33,1.46,10.58
4.420068979263306,-6.01,-8.82,1.4,10.76
4.429902076721191,-5.87,-9.16,1.37,10.96
4.439698934555054,-5.78,-9.32,1.63,11.08
4.449856996536255,-5.58,-9.41,1.79,11.08
4.459661960601807,-5.04,-9.46,1.88,10.88
4.489315986633301,-4.02,-9.5,1.85,10.48
4.490593910217285,-2.62,-9.32,1.52,9.79
4.491598129272461,-1.17,-8.57,1.57,8.79
4.502894878387451,0.27,-7.17,1.45,7.32
4.509553909301758,2.28,-5.72,0.33,6.16
4.519278049468994,4.76,-4.28,-0.65,6.43
4.529193878173828,7.15,-2.27,-0.93,7.55
4.5391340255737305,9.19,0.56,-0.58,9.22
4.549175024032593,11.02,3.86,0.15,11.67
4.559046983718872,12.33,6.9,0.31,14.13
4.592885971069336,13.44,9.42,0.19,16.41
4.59432315826416,14.67,11.61,-0.16,18.7
4.595335960388184,15.71,13.63,-0.22,20.79
4.6001410484313965,16.48,14.28,-0.72,21.81
4.616220951080322,15.83,14.9,-2.82,21.92
4.618451118469238,14.01,17.55,-5.18,23.04
4.6360390186309814,8.29,4.88,-13.2,16.33
4.63831090927124,-5.12,9.48,-5.84,12.25
4.651173114776611,-11.83,32.47,3.02,34.68
4.658929824829102,-12.01,29.65,2.45,32.08
4.694092035293579,-7.75,4.65,-4.01,9.88
4.6952738761901855,-1.06,-5.82,-0.19,5.91
4.696475982666016,5.79,-9.05,6.3,12.45
4.698567867279053,11.44,-11.07,6.98,17.38
4.719253063201904,11.83,-10.75,0.85,16.0
4.7207560539245605,11.28,-2.29,0.87,11.54
4.7362589836120605,7.22,4.14,0.43,8.33
4.737751007080078,2.79,1.97,-2.16,4.04
4.751302003860474,0.44,0.35,-3.27,3.31
4.757636070251465,-1.23,1.27,-3.17,3.62
4.797701835632324,-1.96,2.27,-2.07,3.64
4.798918008804321,-0.12,1.3,-1.12,1.72
4.799920082092285,1.76,-0.51,-0.4,1.87
4.819931983947754,1.99,-1.4,1.54,2.87
4.8214240074157715,0.99,-1.41,2.67,3.17
4.835780143737793,0.06,-1.04,1.35,1.7
4.837219953536987,-0.05,0.02,0.02,0.05
4.8522539138793945,0.12,0.75,-0.56,0.94
4.853655815124512,0.27,0.42,-0.36,0.61
4.867818832397461,0.28,-0.16,0.23,0.39
4.894675970077515,0.21,-0.4,0.15,0.47
4.896006107330322,-0.12,-0.07,-0.4,0.42
4.897043943405151,-0.39,0.46,-0.94,1.11
4.899488925933838,-0.54,0.78,-0.76,1.21
4.905926942825317,-0.84,0.86,0.03,1.2
4.91620397567749,-1.12,0.4,0.14,1.19
4.926231861114502,-1.07,0.08,0.09,1.07
4.936202049255371,-0.72,0.15,-0.31,0.79
4.94610595703125,-0.49,0.23,-0.64,0.83
4.956068992614746,-0.58,0.31,-0.47,0.8
4.990786075592041,-0.77,0.35,-0.1,0.85
4.992114067077637,-0.74,0.35,0.3,0.87
4.9930689334869385,-0.59,0.33,0.49,0.83
5.00313401222229,-0.62,0.38,0.41,0.83
5.005198955535889,-0.93,0.51,0.25,1.08
5.019157886505127,-1.37,0.63,0.02,1.5
5.0255560874938965,-1.6,0.57,-0.21,1.71
5.035946846008301,-1.59,0.64,-0.17,1.72
5.045470952987671,-1.44,0.71,-0.21,1.61
5.055356979370117,-1.33,0.72,-0.33,1.54
5.065761089324951,-1.38,0.77,-0.48,1.65
5.098092079162598,-1.31,1.09,-0.62,1.81
5.099270820617676,-1.29,1.62,-0.49,2.12
5.100275993347168,-1.41,2.19,-0.25,2.61
5.1198248863220215,-1.56,2.7,0.25,3.12
5.1213059425354,-1.81,3.18,0.73,3.73
5.135871887207031,-2.23,3.35,1.05,4.15
5.137287139892578,-2.77,3.55,1.17,4.65
5.15262508392334,-3.18,3.75,0.95,5.0
5.154340982437134,-3.49,4.03,0.51,5.35
5.172314167022705,-3.91,4.33,-0.17,5.83
5.203094005584717,-4.44,4.7,-0.58,6.49
5.204512119293213,-5.12,5.86,-0.43,7.79
5.2055230140686035,-6.18,7.96,-0.14,10.07
5.220193862915039,-7.77,10.43,-0.42,13.01
5.221696853637695,-9.59,11.67,-2.04,15.24
5.23461389541626,-10.92,12.11,-3.37,16.65
5.236143112182617,-11.29,11.9,-4.32,16.96
5.249972820281982,-11.31,11.33,-4.86,16.73
5.2537760734558105,-11.75,11.59,-4.76,17.17
5.268529891967773,-11.5,13.51,-3.26,18.03
5.2962329387664795,-7.72,15.77,-3.54,17.91
5.2976298332214355,-1.42,14.32,-7.73,16.33
5.298645973205566,3.11,10.01,-7.75,13.03
5.320215940475464,2.59,6.56,-3.89,8.05
5.321732044219971,-2.34,1.27,-1.91,3.27
5.336148023605347,-2.31,0.84,0.94,2.63
5.337625980377197,3.18,-1.12,4.05,5.26
5.352950096130371,2.89,-4.93,1.25,5.84
5.354423999786377,-2.97,-1.64,-0.6,3.44
5.368415832519531,-7.24,0.86,1.31,7.4
5.396448135375977,-9.73,0.64,0.63,9.77
5.39783501625061,-11.52,-0.28,0.34,11.52
5.398838043212891,-12.25,-1.21,1.11,12.35
5.42019510269165,-10.5,-1.86,3.04,11.08
5.421653985977173,-7.12,-2.95,3.78,8.58
5.4364848136901855,-4.86,-4.04,3.75,7.34
5.437963008880615,-4.08,-4.35,3.49,6.91
5.452901840209961,-3.87,-4.21,3.0,6.45
5.454344034194946,-3.83,-4.06,2.2,5.99
5.469336986541748,-3.68,-4.01,1.28,5.59
5.501082897186279,-3.29,-3.91,0.17,5.11
5.502408981323242,-2.9,-3.75,-0.9,4.82
5.5034120082855225,-2.61,-3.72,-1.55,4.8
5.520204067230225,-2.46,-4.11,-1.84,5.13
5.521705150604248,-2.5,-4.6,-1.65,5.48
5.53640604019165,-2.36,-5.28,-1.27,5.92
5.537889003753662,-1.93,-6.33,-0.98,6.68
5.5527729988098145,-1.49,-7.45,-0.68,7.62
5.554276943206787,-1.17,-8.17,-0.1,8.25
5.568487167358398,-0.64,-8.18,0.65,8.23
5.598424911499023,0.19,-7.61,0.97,7.67
5.599776983261108,1.33,-6.89,0.8,7.06
5.600779056549072,2.98,-6.04,0.8,6.78
5.6199729442596436,5.03,-5.24,1.03,7.33
5.621446132659912,6.8,-4.36,1.51,8.21
5.636425971984863,8.38,-3.06,2.23,9.19
5.637902021408081,10.05,-1.7,2.17,10.42
5.652851104736328,11.98,-0.49,1.54,12.08
5.654320001602173,14.2,0.9,1.21,14.27
5.668623924255371,16.15,2.05,0.88,16.3
5.696678161621094,17.72,2.86,0.64,17.96
5.698035955429077,19.11,3.83,0.53,19.49
5.699134826660156,20.22,4.79,-0.4,20.78
5.718242168426514,21.17,5.52,-0.78,21.89
5.71929407119751,21.27,5.36,-1.13,21.96
5.736480951309204,18.84,7.87,-4.13,20.83
5.73797082901001,6.91,-0.34,-6.87,9.74
5.752904891967773,-10.88,1.67,-6.74,12.9
5.754364013671875,-22.07,28.39,-4.09,36.19
5.767688989639282,-22.24,42.87,9.72,49.26
5.794486045837402,-18.81,20.11,-8.36,28.77
5.795894145965576,-7.6,1.35,-4.28,8.82
5.796919822692871,1.07,-5.62,2.12,6.1
5.799272060394287,8.12,-8.81,2.46,12.23
5.809366941452026,11.84,-13.85,1.73,18.3
5.819189071655273,15.34,-14.05,0.76,20.81
5.829416036605835,17.5,-4.72,4.78,18.74
5.839406967163086,14.24,1.79,3.25,14.71
5.8494439125061035,6.06,1.38,-1.1,6.31
5.859120845794678,0.58,2.18,-2.13,3.1
5.869043827056885,-1.58,2.67,-3.5,4.67
5.8992509841918945,-2.53,2.54,-3.83,5.24
5.900418996810913,-2.76,1.6,-2.39,3.98
5.901415824890137,-1.04,0.31,0.07,1.08
5.920106887817383,1.07,-1.08,0.95,1.79
5.921574115753174,1.97,-1.85,1.2,2.95
5.936427116394043,1.25,-1.25,0.94,2.0
5.938400030136108,0.4,-0.03,0.36,0.53
5.953226089477539,0.25,0.53,0.03,0.58
5.958369016647339,0.52,0.37,0.16,0.65
5.968761920928955,0.54,0.14,0.44,0.71
6.000153064727783,0.34,0.01,0.49,0.59
6.001405954360962,0.02,0.01,0.17,0.17
6.002354145050049,-0.28,0.04,-0.3,0.41
6.020524024963379,-0.43,0.07,-0.57,0.71
6.021957874298096,-0.55,0.12,-0.69,0.89
6.036746978759766,-0.69,0.19,-0.66,0.97
6.038227081298828,-0.72,0.35,-0.43,0.9
6.053079128265381,-0.76,0.42,0.0,0.86
6.057602882385254,-0.87,0.42,0.43,1.05
6.06864595413208,-0.82,0.33,0.39,0.96
6.1016809940338135,-0.71,0.29,0.36,0.84
6.102921009063721,-0.73,0.39,0.57,1.0
6.103960037231445,-1.11,0.41,0.64,1.34
6.119959831237793,-1.73,0.39,0.42,1.82
6.121037006378174,-2.39,0.38,-0.17,2.42
6.1367411613464355,-2.93,0.6,-0.52,3.03
6.138185024261475,-2.99,0.9,-0.57,3.17
6.153079032897949,-2.63,0.95,-0.54,2.84
6.156868934631348,-2.08,0.82,-0.44,2.27
6.167594909667969,-1.3,0.71,-0.37,1.52
6.197643995285034,-0.69,0.67,-0.1,0.96
6.199084043502808,-0.57,0.85,0.37,1.08
6.20009708404541,-0.74,1.11,0.89,1.6
6.220305919647217,-0.87,1.24,1.16,1.9
6.221674919128418,-1.12,1.52,1.16,2.21
6.236711025238037,-1.52,2.09,0.95,2.75
6.2381911277771,-1.69,2.39,0.65,2.99
6.253144025802612,-2.08,2.61,0.17,3.34
6.2560601234436035,-2.38,2.97,0.21,3.81
6.268862009048462,-2.28,2.89,-0.03,3.68
6.304680824279785,-2.35,2.93,0.26,3.76
6.306020975112915,-2.84,3.28,0.57,4.37
6.307041168212891,-3.66,4.4,1.3,5.86
6.320404052734375,-5.0,6.73,2.57,8.76
6.321455001831055,-6.82,9.89,3.17,12.42
6.336782932281494,-8.69,11.82,1.53,14.75
6.338255882263184,-10.4,12.21,0.53,16.04
6.35256290435791,-12.36,12.82,1.51,17.87
6.3554301261901855,-14.07,13.94,2.96,20.02
6.3664000034332275,-14.38,14.29,1.14,20.3
6.4013450145721436,-11.58,13.45,-4.96,18.42
6.4027791023254395,-2.68,14.14,-10.16,17.61
6.40390682220459,5.04,11.85,-8.01,15.16
6.420114040374756,7.5,8.84,-3.27,12.04
6.421172142028809,3.79,6.39,-1.2,7.52
6.436712980270386,-3.07,2.21,-1.53,4.08
6.438207149505615,-1.99,2.35,-3.85,4.93
6.453290939331055,3.55,2.76,-0.54,4.52
6.454751014709473,2.84,1.33,-1.67,3.55
6.46900200843811,-2.95,2.79,-3.63,5.44
6.501217842102051,-6.97,3.49,-1.17,7.88
6.502568006515503,-9.37,2.58,-0.93,9.76
6.503583908081055,-11.61,0.98,-1.67,11.77
6.520264148712158,-13.28,-0.43,-1.07,13.32
6.521513938903809,-13.6,-1.63,0.69,13.71
6.536870002746582,-11.57,-2.98,3.19,12.36
6.538351058959961,-7.66,-4.96,5.08,10.44
6.553256034851074,-4.29,-6.27,4.38,8.76
6.55476188659668,-3.28,-5.04,3.89,7.16
6.5688300132751465,-3.98,-3.91,1.74,5.84
6.601149082183838,-4.32,-3.81,-0.62,5.79
6.6025450229644775,-4.27,-3.25,-1.96,5.71
6.603560924530029,-4.24,-3.1,-2.54,5.83
6.620995044708252,-3.73,-3.55,-2.62,5.77
6.622501850128174,-2.88,-4.24,-2.25,5.59
6.63678503036499,-2.13,-5.32,-1.87,6.02
6.638262033462524,-1.69,-6.46,-1.54,6.85
6.653576850891113,-1.58,-7.47,-1.33,7.75
6.655012130737305,-1.52,-8.35,-1.02,8.54
6.669177055358887,-1.48,-8.95,-0.38,9.07
6.672903060913086,-1.47,-9.41,0.31,9.52
6.719563007354736,-1.37,-9.65,0.83,9.78
6.720765113830566,-1.05,-9.34,1.33,9.49
6.721735000610352,-0.35,-8.4,1.75,8.58
6.737336158752441,0.88,-7.07,1.7,7.32
6.738387107849121,2.4,-5.84,1.2,6.42
6.753108024597168,3.99,-4.64,0.47,6.13
6.754554033279419,5.82,-3.12,0.0,6.6
6.7702789306640625,8.33,-1.14,0.17,8.4
6.771749019622803,11.35,0.89,0.55,11.39
6.785521984100342,14.13,2.26,0.71,14.32
6.814631938934326,16.32,3.19,0.64,16.64
6.816018104553223,17.84,4.01,0.4,18.28
6.81701397895813,18.5,5.17,-0.2,19.2
6.83715295791626,18.88,6.59,-1.12,20.02
6.838653087615967,19.52,7.03,-2.0,20.84
6.853165149688721,20.18,6.1,-2.09,21.18
6.854568958282471,18.37,8.65,-2.51,20.45
6.871334075927734,9.03,3.25,-5.91,11.27
6.8727850914001465,-7.03,-0.49,-5.03,8.65
6.885603904724121,-19.39,24.03,-7.54,31.78
6.9152960777282715,-21.07,46.42,7.74,51.56
6.91670298576355,-18.41,25.02,-3.5,31.25
6.917713165283203,-9.03,1.26,-6.48,11.18
6.937118053436279,1.06,-4.92,0.81,5.09
6.9381489753723145,8.65,-8.32,4.33,12.75
6.953268051147461,11.96,-13.89,2.84,18.54
6.954738140106201,14.77,-13.31,-0.39,19.88
6.970375061035156,16.97,-5.0,2.82,17.91
6.971848011016846,14.5,1.0,2.77,14.79
6.985854148864746,6.46,0.74,-0.85,6.55
7.015766143798828,0.64,1.54,-1.25,2.08
7.0171051025390625,-1.99,2.41,-2.38,3.92
7.018082141876221,-3.31,2.55,-3.42,5.39
7.037006855010986,-3.01,1.5,-2.38,4.12
7.038052082061768,0.03,-0.15,0.25,0.29
7.053399085998535,2.44,-1.27,1.22,3.0
7.054861068725586,2.71,-1.8,1.16,3.45
7.070528030395508,1.17,-1.22,0.39,1.73
7.071989059448242,0.3,0.18,-0.21,0.4
7.085760116577148,0.36,0.48,-0.1,0.6
7.115411043167114,0.51,0.0,0.52,0.72
7.116757869720459,0.5,-0.2,1.14,1.26
7.1177449226379395,0.31,-0.3,0.77,0.88
7.137094974517822,0.14,-0.1,0.01,0.17
7.138116836547852,0.02,0.33,-0.35,0.48
7.153625011444092,-0.04,0.43,-0.58,0.72
7.155119895935059,-0.15,0.19,-0.71,0.75
7.170371055603027,-0.33,0.11,-0.66,0.74
7.171842098236084,-0.52,0.04,-0.49,0.71
7.1858439445495605,-0.71,0.09,-0.06,0.71
7.2157721519470215,-0.8,0.17,0.36,0.89
7.217084884643555,-0.8,0.2,0.59,1.01
7.218042850494385,-0.73,0.31,0.62,1.0
7.2370710372924805,-0.71,0.41,0.38,0.9
7.238095998764038,-0.86,0.49,0.12,0.99
7.25372314453125,-1.08,0.59,-0.07,1.23
7.2551751136779785,-1.23,0.54,-0.19,1.35
7.270395040512085,-1.39,0.43,-0.26,1.47
7.271860122680664,-1.52,0.42,-0.41,1.62
7.2859320640563965,-1.6,0.54,-0.46,1.75
7.314345836639404,-1.46,0.79,-0.47,1.72
7.315582990646362,-1.25,0.95,-0.47,1.63
7.31653904914856,-1.16,0.96,-0.4,1.55
7.337635040283203,-1.18,0.88,-0.25,1.49
7.33867883682251,-1.4,0.97,0.06,1.7
7.3535850048065186,-1.66,1.25,0.37,2.11
7.355050086975098,-1.76,1.57,0.48,2.4
7.370316028594971,-1.8,1.78,0.05,2.53
7.371783018112183,-2.02,2.43,0.04,3.16
7.385786056518555,-2.42,3.4,0.04,4.17
7.415014028549194,-2.56,3.62,-0.18,4.43
7.416400909423828,-2.67,3.64,0.11,4.51
7.417355060577393,-2.82,3.51,0.27,4.51
7.437489986419678,-3.17,3.42,0.37,4.67
7.438518047332764,-3.51,3.47,0.58,4.96
7.45351505279541,-3.93,3.84,0.75,5.54
7.454995155334473,-4.62,5.19,1.35,7.07
7.470200061798096,-5.58,7.26,1.54,9.28
7.471685886383057,-6.98,9.0,0.98,11.43
7.4859559535980225,-8.57,9.95,0.17,13.13
7.487502098083496,-10.0,10.38,-0.13,14.41
7.532476902008057,-11.19,11.04,-0.16,15.72
7.533669948577881,-12.28,11.64,-0.89,16.94
7.534695148468018,-13.11,12.57,-1.5,18.22
7.552987098693848,-12.19,14.25,-3.07,19.0
7.554517984390259,-7.16,14.62,-6.65,17.58
7.5704240798950195,-0.31,14.27,-8.36,16.54
7.571915149688721,3.91,12.31,-3.86,13.48
7.587050914764404,3.39,7.81,0.06,8.51
7.588555812835693,-0.55,2.94,1.09,3.18
7.602677822113037,-1.57,-0.66,-1.02,1.98
7.632127046585083,4.77,1.09,-0.88,4.97
7.63352108001709,8.62,-0.98,1.28,8.76
7.63456392288208,3.24,0.59,-2.75,4.29
7.653679847717285,-4.17,3.52,-2.14,5.86
7.654700040817261,-7.93,3.37,-0.61,8.63
7.670628070831299,-9.65,1.72,-1.07,9.86
7.6720781326293945,-11.37,0.19,-1.5,11.47
7.687182903289795,-12.06,-0.92,-0.81,12.12
7.688616037368774,-10.42,-1.72,0.85,10.59
7.702654838562012,-7.06,-3.04,2.11,7.97
7.730774879455566,-4.39,-4.61,2.15,6.71
7.732105016708374,-3.75,-4.93,2.58,6.7
7.733065128326416,-4.08,-4.81,2.12,6.65
7.755230903625488,-4.2,-5.11,0.43,6.62
7.756245136260986,-4.54,-4.7,-0.2,6.53
7.7697999477386475,-4.87,-4.6,-0.8,6.74
7.770828008651733,-4.33,-5.19,-1.66,6.95
7.786945819854736,-3.94,-5.43,-1.77,6.93
7.788393974304199,-3.66,-6.05,-1.37,7.2
7.8026838302612305,-3.32,-7.03,-0.95,7.83
7.830950975418091,-2.94,-8.06,-0.79,8.61
7.832255840301514,-2.66,-8.88,-0.66,9.29
7.833269119262695,-2.61,-9.5,-0.37,9.85
7.856061935424805,-2.59,-9.87,0.02,10.2
7.857084035873413,-2.34,-9.92,0.41,10.2
7.870853900909424,-1.93,-9.6,0.9,9.83
7.872308015823364,-1.17,-8.92,1.45,9.11
7.887151002883911,0.25,-7.83,1.42,7.96
7.888636112213135,2.35,-6.51,0.96,6.98
7.9027099609375,4.59,-4.87,0.91,6.75
7.930564880371094,6.75,-2.54,1.33,7.33
7.931977987289429,9.44,0.02,1.51,9.56
7.933032989501953,12.46,2.57,1.03,12.76
7.935230016708374,15.21,5.13,0.37,16.05
7.936638832092285,17.29,7.8,-0.04,18.96
7.9380199909210205,19.11,10.0,0.4,21.57
7.942940950393677,20.44,10.95,0.36,23.19
7.953889846801758,20.94,10.36,0.58,23.36
7.963005065917969,19.64,7.58,1.07,21.07
7.973189830780029,17.37,5.02,1.77,18.16
8.006839036941528,16.54,5.61,-0.87,17.48
8.00863790512085,8.3,-1.41,-4.48,9.53
8.009635925292969,-4.92,-2.23,-5.29,7.56
8.019536018371582,-16.87,19.91,-9.78,27.86
8.022444009780884,-19.43,46.03,6.49,50.38
8.035033941268921,-17.75,29.33,-1.33,34.3
8.042219161987305,-8.49,5.0,-8.47,12.99
8.052315950393677,1.1,-6.28,-2.93,7.01
8.062639951705933,6.93,-13.2,2.97,15.2
8.072607040405273,12.04,-15.45,7.09,20.83
8.108935832977295,14.86,-13.65,7.98,21.69
8.110244989395142,13.88,-5.89,3.94,15.58
8.111268043518066,10.57,-0.19,-0.44,10.58
8.120779991149902,4.49,1.81,-4.61,6.68
8.12182903289795,0.04,3.64,-4.3,5.63
8.137203931808472,-2.01,4.02,-1.74,4.81
8.14159893989563,-2.55,1.65,0.44,3.06
8.151677131652832,-0.28,-1.09,1.79,2.11
8.16182804107666,2.45,-2.02,0.95,3.31
8.171844005584717,3.1,-1.19,0.21,3.32
8.208993911743164,1.53,-0.14,-0.54,1.62
8.210492134094238,0.28,0.29,-0.68,0.79
8.211483001708984,0.42,0.23,-0.64,0.79
8.220829963684082,1.0,-0.16,-0.65,1.2
8.221888065338135,1.01,-0.25,-0.38,1.1
8.237143993377686,0.67,-0.05,0.02,0.67
8.240878105163574,0.35,0.13,0.21,0.42
8.251688957214355,0.06,0.23,0.15,0.28
8.261131048202515,-0.24,0.25,-0.03,0.34
8.270761966705322,-0.46,0.29,-0.03,0.54
8.280802011489868,-0.61,0.27,-0.01,0.66
8.3141930103302,-0.73,0.11,-0.05,0.73
8.315362930297852,-0.74,0.0,-0.17,0.75
8.316309928894043,-0.73,0.09,-0.24,0.77
8.338101863861084,-0.8,0.22,-0.18,0.84
8.33916711807251,-0.94,0.38,-0.12,1.02
8.354058027267456,-1.18,0.51,0.18,1.29
8.355530977249146,-1.3,0.63,0.61,1.56
8.37113094329834,-1.3,0.62,0.7,1.6
8.372511863708496,-1.21,0.53,0.59,1.44
8.386445999145508,-1.08,0.36,0.36,1.19
8.415899991989136,-1.17,0.22,-0.11,1.19
8.41716194152832,-1.39,0.12,-0.63,1.53
8.418207168579102,-1.63,0.21,-0.88,1.86
8.437937021255493,-1.7,0.61,-1.08,2.1
8.439007043838501,-1.46,0.95,-1.14,2.08
8.453895092010498,-1.24,1.12,-0.78,1.84
8.455351829528809,-1.28,1.07,-0.28,1.69
8.470858097076416,-1.63,0.96,0.19,1.9
8.472293853759766,-2.03,1.12,0.45,2.36
8.48639702796936,-2.28,1.59,0.55,2.83
8.514641046524048,-2.06,2.1,0.3,2.95
8.516548156738281,-1.69,2.44,-0.24,2.97
8.517541885375977,-1.73,3.42,-0.09,3.83
8.537780046463013,-1.94,3.97,-0.07,4.41
8.538803100585938,-2.41,4.01,0.38,4.69
8.554229021072388,-3.15,4.06,0.82,5.2
8.555695056915283,-3.81,4.01,0.88,5.6
8.571071147918701,-4.18,4.13,0.88,5.94
8.572459936141968,-4.54,4.5,0.86,6.44
8.586444854736328,-5.33,5.72,1.37,7.93
8.61614990234375,-6.59,7.86,1.68,10.39
8.61752986907959,-8.21,10.03,0.97,12.99
8.618534088134766,-9.91,11.68,-0.08,15.31
8.634265899658203,-11.34,12.81,-0.88,17.13
8.635342121124268,-12.21,13.03,-1.67,17.93
8.654485940933228,-12.9,12.75,-2.51,18.31
8.655899047851562,-13.11,13.38,-2.76,18.93
8.66826581954956,-10.72,13.32,-4.33,17.63
8.669733047485352,-4.06,12.25,-8.11,15.24
8.686843872070312,1.82,11.19,-6.46,13.04
8.716457843780518,4.41,9.01,-0.94,10.07
8.717880010604858,2.88,4.84,0.86,5.69
8.718902111053467,0.18,-0.61,-0.83,1.04
8.737748146057129,3.58,0.61,-1.17,3.81
8.738798141479492,9.41,-0.85,0.35,9.45
8.754266023635864,7.85,-1.05,-1.51,8.06
8.755681037902832,0.07,2.47,-3.79,4.52
8.771168947219849,-5.84,2.65,-1.31,6.54
8.772615909576416,-8.44,1.35,-0.99,8.6
8.786559104919434,-10.25,-0.22,-1.42,10.35
8.816762924194336,-11.37,-1.97,-0.89,11.57
8.818042039871216,-10.91,-3.35,0.8,11.44
8.819039821624756,-8.57,-4.53,3.02,10.15
8.839622020721436,-5.77,-5.58,3.61,8.8
8.840650081634521,-4.34,-5.44,2.2,7.29
8.852543830871582,-4.09,-4.76,0.84,6.33
8.854000091552734,-4.87,-4.63,0.47,6.73
8.871245861053467,-5.39,-5.02,-0.3,7.37
8.87270212173462,-5.15,-5.46,-1.29,7.61
8.88672399520874,-5.18,-5.41,-1.24,7.59
8.917492866516113,-5.0,-5.89,-1.69,7.9
8.918774127960205,-4.66,-6.13,-1.78,7.9
8.91965913772583,-4.32,-6.44,-1.53,7.9
8.938390970230103,-3.91,-7.02,-1.25,8.13
8.939857006072998,-3.5,-7.69,-0.96,8.5
8.953997135162354,-3.33,-8.43,-0.68,9.08
8.955477952957153,-3.37,-9.14,-0.45,9.75
8.971205949783325,-3.42,-9.7,-0.07,10.28
8.972677946090698,-3.46,-9.73,0.37,10.33
8.9864821434021,-3.21,-9.37,0.95,9.95
9.01747989654541,-2.34,-8.6,1.43,9.02
9.018757820129395,-0.68,-7.54,1.1,7.65
9.019782066345215,1.32,-6.47,0.31,6.61
9.037952899932861,3.14,-5.08,0.2,5.97
9.03899097442627,5.15,-3.09,0.34,6.01
9.05439281463623,8.1,-1.0,0.06,8.16
9.055853843688965,11.39,1.15,-0.19,11.44
9.071298122406006,13.76,3.67,-0.52,14.25
9.072757005691528,15.02,6.06,-1.32,16.25
9.086642026901245,15.89,8.1,-1.54,17.9
9.088153839111328,16.89,9.97,-2.27,19.74
9.134879112243652,18.33,11.07,-3.15,21.64
9.136059999465942,19.99,10.61,-3.62,22.91
9.137086868286133,20.76,8.9,-3.34,22.83
9.154736042022705,17.51,12.2,-0.19,21.34
9.155771017074585,7.21,6.09,-0.67,9.46
9.170896053314209,-8.14,4.03,2.56,9.43
9.172380924224854,-15.35,19.16,4.07,24.88
9.188138961791992,-14.82,29.62,9.32,34.4
9.189652919769287,-12.6,14.32,0.03,19.07
9.203436851501465,-6.12,0.36,-7.42,9.62
9.232555866241455,2.69,-0.98,-4.02,4.93
9.233943939208984,8.28,-4.46,0.12,9.4
9.23495101928711,11.34,-7.2,-0.07,13.43
9.254135131835938,12.89,-6.7,-0.54,14.53
9.255168914794922,12.57,-2.67,1.11,12.89
9.271306037902832,8.18,0.25,0.05,8.18
9.272758960723877,2.66,0.33,-1.79,3.22
9.288148880004883,-0.59,1.18,-2.26,2.61
9.289608001708984,-2.22,1.88,-1.15,3.12
9.303575038909912,-1.66,1.24,1.28,2.43
9.332901954650879,0.85,-0.43,2.13,2.33
9.33421802520752,2.35,-1.44,1.36,3.07
9.33523416519165,1.86,-1.16,0.44,2.23
9.354519844055176,0.77,-0.19,-0.21,0.82
9.355568885803223,0.32,0.27,-0.4,0.57
9.370912075042725,0.52,0.14,-0.29,0.61
9.371978998184204,0.99,-0.22,-0.79,1.28
9.387980937957764,1.13,-0.22,-1.16,1.63
9.389309883117676,0.54,0.13,-0.69,0.88
9.403242111206055,-0.25,0.21,0.13,0.35
9.43290901184082,-0.6,0.12,1.02,1.18
9.434273958206177,-0.58,0.01,1.24,1.36
9.43526315689087,-0.35,-0.04,0.6,0.69
9.454537868499756,-0.19,0.12,-0.09,0.24
9.45559310913086,-0.1,0.31,-0.65,0.72
9.471582889556885,-0.19,0.32,-0.96,1.02
9.473058938980103,-0.56,0.4,-0.77,1.03
9.48811388015747,-0.96,0.44,-0.13,1.06
9.489570140838623,-1.15,0.46,0.57,1.36
9.503573894500732,-1.05,0.37,0.8,1.37
9.531975030899048,-0.86,0.36,0.64,1.13
9.53339695930481,-0.83,0.33,0.19,0.91
9.534407138824463,-1.04,0.28,-0.34,1.12
9.554717063903809,-1.31,0.3,-0.61,1.47
9.55574893951416,-1.6,0.48,-0.6,1.77
9.571493148803711,-1.65,0.83,-0.66,1.96
9.572983026504517,-1.62,1.09,-0.78,2.1
9.588255882263184,-1.7,1.12,-0.74,2.16
9.589734077453613,-1.73,0.96,-0.53,2.04
9.603599071502686,-1.67,0.89,-0.34,1.92
9.632115840911865,-1.38,0.93,-0.52,1.74
9.633486032485962,-1.17,1.21,-0.4,1.73
9.63444185256958,-1.45,1.97,-0.25,2.45
9.655040979385376,-1.82,2.75,0.17,3.3
9.656075954437256,-2.09,3.1,0.51,3.77
9.671048164367676,-2.43,3.09,0.93,4.03
9.67206597328186,-2.7,3.31,0.83,4.35
9.68852186203003,-3.03,3.54,0.43,4.67
9.690016031265259,-3.3,3.92,0.31,5.13
9.703793048858643,-3.61,4.71,0.29,5.94
9.732583999633789,-4.16,6.13,0.36,7.41
9.734015941619873,-5.01,8.21,0.27,9.62
9.73502492904663,-6.49,9.82,-0.76,11.79
9.754929065704346,-8.0,10.54,-1.69,13.33
9.755970001220703,-8.93,11.07,-1.83,14.34
9.77144193649292,-9.0,11.09,-2.2,14.45
9.77282190322876,-8.69,10.61,-3.77,14.22
9.78827714920044,-8.86,10.14,-5.29,14.46
9.789770126342773,-10.11,11.43,-4.04,15.78
9.801241874694824,-9.46,13.87,-3.43,17.13
9.829739093780518,-4.65,15.17,-6.09,16.99
9.831098079681396,0.93,12.26,-8.84,15.14
9.83214282989502,2.93,7.84,-4.83,9.66
9.834344863891602,-0.08,3.72,-1.84,4.15
9.854627132415771,-2.85,0.46,-0.26,2.89
9.855667114257812,1.95,2.38,2.1,3.72
9.871408939361572,6.54,-1.02,3.53,7.5
9.872465133666992,3.33,-1.19,-1.07,3.69
9.887056827545166,-2.89,1.65,-0.96,3.46
9.888484954833984,-7.13,1.95,0.66,7.42
9.903099060058594,-9.77,0.88,-0.17,9.81
9.931311130523682,-11.29,-0.43,-0.34,11.3
9.932703018188477,-10.93,-2.09,0.53,11.14
9.933754920959473,-8.58,-3.55,1.81,9.46
9.935830116271973,-5.77,-5.19,2.91,8.28
9.938171863555908,-4.46,-5.96,3.44,8.2
9.947795867919922,-4.23,-6.11,2.81,7.94
9.958444118499756,-4.3,-5.55,2.0,7.3
9.968017101287842,-4.39,-5.33,1.23,7.01
9.978253841400146,-4.66,-5.12,0.9,6.98
9.988034963607788,-5.18,-5.09,0.8,7.3
10.017848014831543,-4.9,-5.9,-0.06,7.66
10.0190269947052,-4.61,-6.22,-0.45,7.75
10.020021915435791,-4.75,-6.19,-0.08,7.8
10.038475036621094,-4.93,-6.41,0.33,8.09
10.039541959762573,-5.11,-6.72,0.71,8.47
10.054527044296265,-5.16,-7.11,1.1,8.85
10.057188034057617,-5.06,-7.61,1.51,9.26
10.071774005889893,-4.9,-8.09,1.73,9.61
10.077316045761108,-4.42,-8.39,2.04,9.7
10.087153911590576,-3.66,-8.37,2.23,9.4
10.118108034133911,-2.7,-7.83,2.19,8.56
10.119470119476318,-1.57,-6.68,2.1,7.17
10.12046504020691,0.21,-5.58,1.06,5.68
10.138699054718018,2.83,-4.7,-0.37,5.49
10.139771938323975,5.72,-3.58,-1.77,6.97
10.15208101272583,8.51,-2.11,-2.76,9.19
10.156455039978027,11.05,-0.15,-3.06,11.46
10.169302940368652,12.98,2.31,-2.94,13.5
10.176656007766724,14.7,4.55,-2.27,15.55
10.186259031295776,16.05,5.98,-1.82,17.22
10.217111110687256,17.04,7.23,-1.26,18.55
10.218546867370605,17.94,8.29,-1.24,19.8
10.21956491470337,18.88,7.86,-1.21,20.48
10.238396167755127,19.27,5.79,-1.05,20.14
10.239430904388428,18.47,3.63,-0.48,18.82
10.254490852355957,15.18,5.16,0.7,16.04
10.255537986755371,5.66,7.51,2.96,9.85
10.27180290222168,-6.79,6.05,1.71,9.25
10.275633811950684,-13.69,19.56,-5.71,24.54
10.287235975265503,-13.37,39.69,6.15,42.33
10.323750019073486,-13.11,24.55,1.51,27.87
10.325287818908691,-5.18,1.67,-10.94,12.21
10.326294898986816,1.05,-8.81,-3.04,9.37
10.338779926300049,6.06,-10.34,4.92,12.95
10.339854001998901,10.13,-11.36,7.26,16.86
10.355000019073486,11.3,-10.04,5.04,15.93
10.356491088867188,9.48,-3.69,0.32,10.17
10.37194013595581,6.25,1.09,-2.75,6.91
10.375082969665527,2.88,2.84,-5.96,7.2
10.387188911437988,0.24,3.65,-3.9,5.34
10.42349100112915,-1.76,2.56,0.02,3.1
10.424736022949219,-1.57,0.17,2.56,3.0
10.425747871398926,0.7,-1.17,2.43,2.78
10.43942403793335,2.35,-1.08,0.08,2.58
10.440480947494507,2.16,-0.35,-1.36,2.57
10.454560995101929,1.27,0.09,-1.31,1.82
10.455588817596436,1.08,-0.2,-0.58,1.24
10.472129821777344,1.47,-0.49,-0.02,1.54
10.474256038665771,1.28,-0.31,0.07,1.31
10.487200021743774,0.59,0.02,-0.16,0.61
10.521573066711426,0.06,0.18,-0.3,0.35
10.522987842559814,-0.11,0.17,-0.04,0.2
10.523998975753784,-0.16,0.02,0.35,0.38
10.538897037506104,-0.19,0.03,0.64,0.66
10.539906024932861,-0.3,0.0,0.36,0.46
10.55466890335083,-0.33,0.06,0.05,0.33
10.5556960105896,-0.22,0.15,-0.12,0.29
10.572046995162964,-0.17,0.13,-0.23,0.31
10.57353687286377,-0.36,0.17,-0.2,0.44
10.587410926818848,-0.56,0.23,-0.28,0.66
10.622246980667114,-0.58,0.4,-0.23,0.74
10.623571872711182,-0.63,0.55,-0.11,0.84
10.62457799911499,-0.68,0.57,-0.02,0.88
10.638969898223877,-0.77,0.59,0.14,0.98
10.639959812164307,-0.94,0.73,0.24,1.21
10.655141830444336,-1.0,0.82,0.16,1.3
10.656617164611816,-1.04,0.76,0.1,1.29
10.671506881713867,-1.07,0.7,0.07,1.28
10.67295789718628,-1.12,0.54,-0.15,1.25
10.687360048294067,-1.28,0.56,-0.39,1.45
10.69268798828125,-1.53,0.8,-0.57,1.81
10.733180046081543,-1.68,1.11,-0.88,2.19
10.734367847442627,-1.84,1.62,-0.7,2.54
10.735395908355713,-1.74,1.89,-0.24,2.58
10.755149841308594,-1.61,1.87,0.58,2.53
10.756125926971436,-1.62,1.87,1.23,2.76
10.771635055541992,-1.76,2.1,1.4,3.07
10.773092985153198,-1.85,2.28,1.07,3.12
10.788476943969727,-1.93,2.43,0.57,3.15
10.789891958236694,-2.19,2.42,0.01,3.26
10.805019855499268,-2.45,2.51,-0.46,3.53
10.835294008255005,-2.72,2.81,-0.84,4.0
10.83657693862915,-3.05,3.21,-1.24,4.59
10.837603092193604,-3.44,3.72,-1.41,5.25
10.855406999588013,-4.08,4.65,-1.04,6.27
10.856451034545898,-4.94,6.24,-0.24,7.96
10.871912002563477,-6.08,8.51,-0.02,10.45
10.873363018035889,-7.72,9.67,-2.13,12.55
10.88873815536499,-9.11,9.86,-3.23,13.8
10.890267848968506,-9.61,10.08,-3.21,14.29
10.90327000617981,-9.74,9.88,-3.16,14.22
10.931906938552856,-9.81,9.86,-3.72,14.39
10.933298110961914,-10.14,10.67,-4.02,15.25
10.93432903289795,-8.55,13.18,-3.32,16.05
10.93656587600708,-4.19,14.87,-5.38,16.35
10.940389156341553,0.99,12.75,-9.01,15.64
10.950713157653809,4.01,10.87,-6.45,13.26
10.960592031478882,2.33,6.96,-4.36,8.53
10.970550060272217,-1.63,1.0,-3.04,3.59
10.980401039123535,0.1,1.58,-0.31,1.61
10.990519046783447,5.12,0.28,2.7,5.79
11.02147388458252,4.13,-1.99,0.33,4.59
11.02265214920044,-1.53,0.56,-1.81,2.43
11.023635864257812,-6.49,2.24,-0.1,6.86
11.03914999961853,-9.85,1.88,-0.69,10.05
11.040241956710815,-12.53,1.2,-1.08,12.63
11.055005073547363,-13.71,0.23,0.29,13.71
11.05956506729126,-12.6,-1.42,2.71,12.96
11.071951866149902,-9.04,-3.59,4.72,10.81
11.079807043075562,-5.88,-5.3,5.48,9.62
11.089538097381592,-4.87,-5.41,4.96,8.8
11.126390933990479,-5.19,-4.43,3.99,7.9
11.12771987915039,-5.93,-3.82,3.32,7.79
11.128700017929077,-6.17,-3.8,2.56,7.68
11.129715919494629,-5.69,-3.92,1.61,7.09
11.13904595375061,-4.86,-3.85,0.7,6.23
11.148856163024902,-3.79,-3.75,0.0,5.33
11.158967971801758,-2.97,-4.02,-0.49,5.02
11.169036865234375,-2.66,-4.65,-0.59,5.38
11.179173946380615,-2.77,-5.28,-0.27,5.96
11.189104080200195,-2.84,-5.87,0.07,6.52
11.225831031799316,-2.61,-6.53,0.37,7.04
11.227006912231445,-2.41,-7.33,0.61,7.74
11.22804594039917,-2.47,-8.01,1.17,8.46
11.239269971847534,-2.64,-8.14,1.85,8.75
11.24031114578247,-2.46,-7.57,2.53,8.35
11.254787921905518,-1.46,-6.69,2.53,7.29
11.25807809829712,0.63,-6.01,1.76,6.29
11.271427154541016,3.09,-5.43,1.03,6.33
11.27845287322998,5.0,-4.28,0.59,6.6
11.288084030151367,6.6,-2.53,0.57,7.09
11.323349952697754,8.85,-0.16,0.6,8.87
11.324710845947266,11.79,2.22,0.05,11.99
11.325727939605713,14.44,4.14,-0.98,15.05
11.339757919311523,16.72,6.01,-1.07,17.79
11.340795993804932,18.63,7.19,-0.08,19.96
11.35499382019043,19.64,6.26,0.65,20.62
11.357288837432861,19.81,3.66,1.55,20.2
11.372398853302002,18.5,1.5,1.93,18.66
11.37740707397461,15.61,2.42,0.82,15.81
11.387676000595093,12.78,8.85,-1.65,15.63
11.425314903259277,4.4,1.08,-7.74,8.96
11.426789045333862,-8.45,13.53,-6.89,17.37
11.427814960479736,-11.94,47.07,4.84,48.8
11.439292907714844,-11.83,37.18,3.08,39.13
11.440319061279297,-4.08,8.17,-12.35,15.35
11.455031871795654,2.38,-5.82,-8.74,10.76
11.456562042236328,6.49,-10.77,0.71,12.59
11.47238802909851,11.71,-12.29,7.47,18.54
11.47672986984253,13.67,-12.27,8.52,20.24
11.487489938735962,10.84,-6.68,5.07,13.7
11.496591091156006,4.88,-1.42,1.19,5.21
11.528445959091187,0.27,0.55,-0.9,1.08
11.529628038406372,-1.66,2.42,-3.22,4.35
11.530881881713867,-1.84,3.24,-3.89,5.38
11.536110877990723,-1.25,2.46,-1.71,3.24
11.546101093292236,1.13,0.6,0.29,1.31
11.555842876434326,3.03,-0.97,0.91,3.3
11.565816879272461,2.76,-1.48,0.45,3.16
11.575777053833008,1.26,-0.76,0.01,1.47
11.586159944534302,0.13,0.08,-0.17,0.22
11.595879077911377,-0.1,0.24,-0.59,0.64
11.627738952636719,0.21,0.21,-0.77,0.82
11.629047870635986,0.29,0.19,-0.5,0.6
11.630085945129395,0.02,0.23,-0.05,0.23
11.638335943222046,-0.15,0.23,-0.02,0.27
11.645301818847656,-0.04,0.14,-0.34,0.36
11.655033111572266,0.16,0.15,-0.46,0.5
11.665174961090088,0.13,0.13,-0.36,0.4
11.674929141998291,-0.16,0.09,0.03,0.18
11.685382843017578,-0.31,0.09,0.4,0.51
11.695231914520264,-0.18,0.12,0.4,0.45
11.727977991104126,0.07,0.04,-0.08,0.11
11.729322910308838,0.16,0.01,-0.26,0.3
11.730340003967285,-0.06,0.08,0.01,0.1
11.738471984863281,-0.53,0.17,0.44,0.7
11.744401931762695,-0.97,0.32,0.76,1.27
11.75432801246643,-0.91,0.44,0.56,1.15
11.764503955841064,-0.47,0.58,0.35,0.82
11.774080038070679,-0.14,0.67,0.25,0.72
11.785205841064453,-0.11,0.56,0.21,0.6
11.794358015060425,-0.42,0.48,0.46,0.78
11.826831817626953,-0.79,0.57,0.6,1.14
11.828143119812012,-1.2,0.56,0.34,1.36
11.829159021377563,-1.55,0.7,-0.19,1.71
11.839164972305298,-1.84,1.06,-0.65,2.22
11.84375286102295,-1.94,1.36,-0.75,2.48
11.85451602935791,-1.91,1.4,-0.82,2.5
11.863855838775635,-1.71,1.71,-0.32,2.43
11.873770952224731,-1.45,1.95,-0.03,2.43
11.883868932723999,-1.48,2.05,0.5,2.57
11.89362382888794,-1.83,2.18,1.0,3.01
11.932836055755615,-2.31,2.28,1.29,3.49
11.9340980052948,-2.61,2.47,0.93,3.71
11.935096979141235,-2.56,2.68,0.09,3.7
11.956060886383057,-2.44,2.94,-0.52,3.85
11.957138061523438,-2.61,3.15,-0.84,4.17
11.972825050354004,-3.08,3.42,-0.88,4.68
11.974308967590332,-3.92,4.01,-0.59,5.63
11.989344120025635,-5.02,5.08,-0.03,7.14
11.990806102752686,-6.24,6.73,0.56,9.19
12.004712104797363,-7.5,9.12,0.66,11.82
12.033556938171387,-8.65,10.45,-1.04,13.6
12.034977912902832,-9.7,10.95,-1.88,14.74
12.035996913909912,-10.78,11.68,-1.72,15.98
12.056012153625488,-12.17,11.44,-1.86,16.8
12.057081937789917,-13.37,12.04,-2.07,18.11
12.069241046905518,-12.96,14.01,-2.69,19.27
12.07030701637268,-8.51,14.62,-6.17,18.0
12.08957290649414,-1.61,13.12,-10.15,16.66
12.091020107269287,2.83,11.16,-6.91,13.42
12.104892015457153,2.85,7.98,-2.58,8.85
12.132220983505249,-1.41,3.41,-0.47,3.71
12.133635997772217,-3.68,-1.22,-0.16,3.88
12.134573936462402,1.31,0.51,-0.16,1.41
12.13598108291626,6.98,-0.79,2.42,7.42
12.14147400856018,4.52,-1.21,-0.72,4.73
12.151588916778564,-2.49,1.84,-1.84,3.6
12.161642074584961,-7.06,2.65,0.26,7.54
12.171406984329224,-9.24,1.5,-0.45,9.37
12.181591033935547,-10.98,0.6,-0.71,11.01
12.191481113433838,-11.2,-0.09,0.55,11.21
12.227596998214722,-9.0,-1.01,2.14,9.3
12.229025840759277,-5.92,-2.29,3.08,7.05
12.230077028274536,-3.87,-3.61,4.01,6.63
12.239634990692139,-3.14,-4.43,4.27,6.9
12.240667819976807,-3.09,-4.36,3.71,6.5
12.255642890930176,-3.01,-4.08,2.3,5.56
12.260828018188477,-3.05,-3.61,1.12,4.85
12.272395133972168,-2.84,-3.36,0.08,4.4
12.280763149261475,-2.44,-3.47,-0.96,4.34
12.29081392288208,-2.3,-4.0,-1.44,4.83
12.300737857818604,-2.44,-4.91,-1.39,5.65
12.331654071807861,-2.7,-5.76,-0.87,6.42
12.332809925079346,-3.1,-6.49,-0.17,7.19
12.33396601676941,-3.44,-7.25,0.49,8.03
12.339996814727783,-3.7,-7.97,0.9,8.83
12.34993314743042,-3.99,-8.77,1.28,9.71
12.36014986038208,-4.34,-9.3,1.86,10.43
12.369990825653076,-4.53,-9.61,2.43,10.89
12.379894971847534,-4.44,-9.59,3.03,10.99
12.389938831329346,-3.73,-9.17,3.49,10.49
12.39979887008667,-2.1,-8.32,3.48,9.25
12.43085503578186,0.18,-7.07,2.84,7.62
12.432044982910156,2.54,-5.79,2.07,6.65
12.43329381942749,4.94,-4.11,1.77,6.66
12.439467906951904,7.51,-1.69,1.27,7.8
12.455533027648926,10.46,0.75,0.43,10.49
12.459143161773682,13.44,3.39,-0.42,13.86
12.472321033477783,16.19,6.0,-1.09,17.3
12.479217052459717,18.76,7.37,-1.67,20.22
12.489053964614868,20.68,7.47,-1.99,22.07
12.499412059783936,21.48,6.91,-2.06,22.65
12.530188083648682,21.57,6.53,-2.11,22.63
12.531394958496094,20.13,10.97,-2.44,23.05
12.532585144042969,15.76,9.71,-7.43,19.94
12.538465023040771,1.77,3.89,-8.28,9.31
12.55574083328247,-11.32,25.62,0.17,28.0
12.558797836303711,-14.58,40.96,4.07,43.66
12.57054615020752,-12.11,17.33,-8.59,22.82
12.57845687866211,-3.06,1.77,-12.91,13.38
12.588279008865356,2.97,-5.46,-3.21,6.99
12.598407983779907,8.07,-9.99,2.71,13.12
12.629833936691284,13.39,-12.66,6.7,19.6
12.63106894493103,15.77,-11.1,11.0,22.2
12.63207483291626,10.34,-4.78,6.97,13.35
12.637723922729492,2.78,-1.06,0.19,2.98
12.655843019485474,0.1,0.86,-3.42,3.52
12.657557964324951,-1.23,3.72,-4.56,6.01
12.672565937042236,-2.28,4.74,-3.61,6.37
12.677374839782715,-1.02,1.56,-1.37,2.31
12.688236951828003,2.13,-1.18,-0.3,2.45
12.6977219581604,3.75,-1.71,-0.02,4.12
12.734715938568115,2.72,-1.12,-0.02,2.94
12.735855102539062,0.69,-0.36,-0.35,0.85
12.736854076385498,-0.16,0.11,-0.6,0.63
12.756147861480713,0.1,0.25,-0.63,0.68
12.75720500946045,0.55,0.02,-0.44,0.7
12.773623943328857,0.78,-0.17,-0.09,0.8
12.774657011032104,0.79,-0.28,0.39,0.92
12.7896089553833,0.66,-0.24,0.67,0.97
12.791082859039307,0.5,-0.1,0.35,0.61
12.804551124572754,0.43,0.12,-0.04,0.44
12.834933996200562,0.39,0.17,-0.23,0.48
12.836220026016235,0.41,0.01,-0.28,0.49
12.837242126464844,0.35,-0.1,-0.12,0.38
12.856127977371216,0.17,-0.09,-0.15,0.24
12.857119083404541,-0.1,0.02,-0.35,0.36
12.871732950210571,-0.3,0.22,-0.3,0.47
12.872777938842773,-0.29,0.27,-0.01,0.39
12.889587879180908,-0.12,0.08,0.24,0.27
12.89106798171997,-0.01,0.05,0.6,0.6
12.904991149902344,-0.15,0.24,0.72,0.77
12.933277130126953,-0.64,0.48,0.65,1.03
12.93464994430542,-1.24,0.86,0.64,1.63
12.935619831085205,-1.62,1.07,0.45,1.99
12.956459999084473,-1.77,0.96,0.06,2.01
12.957509994506836,-1.68,0.82,-0.22,1.88
12.972776889801025,-1.55,0.75,-0.31,1.74
12.9738130569458,-1.66,0.77,-0.44,1.88
12.989797115325928,-1.94,0.91,-0.6,2.22
12.991256952285767,-2.25,1.23,-0.38,2.59
13.005187034606934,-2.23,1.62,-0.15,2.76
13.033857822418213,-1.65,1.81,-0.31,2.46
13.035306930541992,-1.08,2.21,-0.04,2.46
13.036201000213623,-1.18,2.41,0.13,2.68
13.056358814239502,-1.79,2.5,0.39,3.09
13.057415962219238,-2.33,2.62,0.51,3.54
13.072649002075195,-2.48,2.87,0.63,3.84
13.073978900909424,-2.4,3.22,0.47,4.04
13.089552879333496,-2.57,3.41,0.18,4.27
13.091000080108643,-3.01,3.51,0.13,4.62
13.105098962783813,-3.57,3.88,0.48,5.29
13.106518983840942,-4.29,4.81,0.86,6.5
13.15310287475586,-5.32,6.5,1.14,8.47
13.15428900718689,-6.5,8.32,0.35,10.56
13.155282974243164,-7.73,9.09,-1.5,12.02
13.174130916595459,-8.72,9.71,-2.6,13.3
13.17561388015747,-9.35,10.37,-2.68,14.21
13.189841032028198,-9.98,10.69,-2.19,14.78
13.19132399559021,-10.92,11.04,-2.3,15.69
13.204214096069336,-11.38,11.86,-2.37,16.6
13.205748081207275,-9.0,12.85,-4.01,16.19
13.222082138061523,-2.93,12.83,-7.59,15.19
13.252722024917603,2.62,11.91,-6.72,13.92
13.254065036773682,4.34,9.54,-2.71,10.82
13.25504207611084,1.16,5.13,-0.6,5.29
13.273674964904785,-2.96,0.39,0.32,3.0
13.274694919586182,0.01,2.1,0.83,2.25
13.289546012878418,5.93,1.15,1.89,6.32
13.290574073791504,3.94,1.21,-1.14,4.27
13.306596994400024,-1.99,4.43,-1.89,5.21
13.308048009872437,-6.19,4.24,-1.04,7.57
13.321200847625732,-9.02,2.63,-1.68,9.54
13.349066972732544,-10.89,1.27,-1.64,11.08
13.35047197341919,-10.69,-0.32,-0.35,10.7
13.35145616531372,-8.39,-2.01,1.12,8.69
13.353696823120117,-5.93,-3.56,2.21,7.26
13.355106830596924,-4.64,-4.62,3.08,7.23
13.362021923065186,-4.42,-5.07,3.25,7.47
13.372654914855957,-4.34,-4.76,2.21,6.81
13.382223129272461,-4.62,-3.65,1.35,6.04
13.392333984375,-4.82,-3.35,-0.04,5.86
13.402358055114746,-4.99,-2.94,-0.79,5.84
13.432374000549316,-5.1,-3.06,-1.39,6.1
13.433506965637207,-4.95,-3.47,-1.81,6.31
13.43447208404541,-4.9,-3.96,-1.67,6.51
13.44167709350586,-4.82,-4.72,-1.25,6.86
13.451789855957031,-4.73,-5.45,-0.8,7.26
13.46182894706726,-4.58,-6.03,-0.46,7.58
13.471678972244263,-4.27,-6.57,-0.33,7.84
13.48152494430542,-3.93,-7.18,-0.22,8.18
13.491668939590454,-3.87,-7.8,0.0,8.7
13.501693964004517,-3.99,-8.3,0.33,9.21
13.539131164550781,-4.01,-8.42,0.73,9.35
13.540533065795898,-3.66,-8.09,1.08,8.94
13.541546821594238,-2.6,-7.57,1.36,8.11
13.556700944900513,-0.86,-6.96,1.35,7.14
13.557762145996094,0.69,-6.05,0.73,6.13
13.572609901428223,2.12,-4.86,-0.31,5.31
13.573605060577393,4.29,-3.23,-1.12,5.48
13.589833974838257,7.45,-1.14,-1.61,7.7
13.59129810333252,10.92,1.0,-1.49,11.06
13.605031967163086,13.97,3.06,-1.16,14.34
13.638495922088623,16.44,4.65,-0.63,17.09
13.63987112045288,18.44,5.58,-0.44,19.27
13.640897989273071,19.88,6.9,-0.24,21.04
13.656821966171265,20.9,8.59,-0.6,22.6
13.657938003540039,22.12,8.84,-0.85,23.83
13.670850038528442,22.23,9.71,-1.81,24.32
13.67187213897705,18.68,13.18,-1.31,22.89
13.689877033233643,7.01,4.54,-5.38,9.93
13.691324949264526,-9.13,14.21,-1.19,16.93
13.705446004867554,-13.91,39.63,7.03,42.58
13.737852096557617,-14.37,32.26,5.42,35.72
13.73926591873169,-9.76,4.07,-9.17,13.99
13.740257024765015,-0.71,-4.98,-8.21,9.62
13.759145975112915,4.89,-9.02,2.34,10.52
13.76019287109375,10.12,-11.34,5.66,16.21
13.772925853729248,13.4,-11.05,4.41,17.91
13.773959159851074,13.29,-4.96,3.46,14.6
13.78994607925415,8.54,0.25,0.02,8.54
13.79141092300415,3.17,0.77,-3.21,4.57
13.805509090423584,0.26,1.8,-4.05,4.43
13.838839054107666,-1.69,2.6,-2.16,3.77
13.840109825134277,-2.03,1.8,1.22,2.97
13.841109991073608,0.48,-0.15,2.57,2.61
13.856743812561035,2.48,-1.31,1.38,3.12
13.857810974121094,2.27,-1.28,0.32,2.62
13.873111009597778,0.97,-0.53,0.07,1.1
13.87414002418518,0.57,-0.01,-0.1,0.57
13.88983702659607,0.96,0.05,-0.4,1.04
13.891283988952637,0.98,0.0,-0.41,1.06
13.905534982681274,0.51,-0.05,-0.51,0.72
13.908369064331055,0.23,0.03,-0.54,0.58
13.951067924499512,0.26,0.1,-0.38,0.47
13.952232837677002,0.27,-0.05,-0.01,0.27
13.953235149383545,0.15,-0.18,0.65,0.69
13.973609924316406,-0.12,-0.15,1.0,1.01
13.974653005599976,-0.44,0.09,0.68,0.81
13.989749908447266,-0.6,0.42,-0.16,0.74
13.9912109375,-0.25,0.51,-0.86,1.03
14.006578922271729,0.29,0.28,-0.8,0.89
14.008025169372559,0.66,0.06,0.09,0.66
14.022040843963623,0.74,-0.13,0.55,0.93
14.052053928375244,0.6,-0.18,0.4,0.74
14.053392887115479,0.34,0.2,0.27,0.47
14.054404973983765,-0.01,0.6,0.11,0.61
14.073668956756592,-0.53,0.78,-0.04,0.94
14.074740886688232,-1.38,0.85,0.07,1.62
14.089899063110352,-2.4,0.74,0.22,2.52
14.09096908569336,-3.23,0.42,-0.05,3.25
14.106712818145752,-3.35,0.61,-0.28,3.41
14.108196020126343,-2.56,1.2,-0.63,2.89
14.122156143188477,-1.71,1.4,-1.2,2.51
14.151019096374512,-1.37,1.56,-1.36,2.48
14.152379035949707,-1.68,1.89,-0.92,2.69
14.153366088867188,-2.12,2.01,-0.77,3.02
14.173596858978271,-2.24,2.27,-0.49,3.22
14.174612045288086,-2.02,2.61,-0.1,3.3
14.189893960952759,-1.59,2.85,0.53,3.3
14.190822124481201,-1.57,2.76,0.75,3.26
14.206831932067871,-2.03,2.58,0.76,3.36
14.208256959915161,-2.53,2.67,0.83,3.77
14.222601890563965,-2.94,3.04,0.73,4.29
14.250931978225708,-3.21,3.36,0.31,4.65
14.252345085144043,-3.42,3.52,-0.18,4.91
14.253368854522705,-3.69,3.68,-0.22,5.21
14.2741379737854,-4.13,4.06,0.25,5.79
14.275203943252563,-5.1,5.14,0.91,7.29
14.289932012557983,-6.35,7.02,1.41,9.57
14.290957927703857,-7.66,9.36,1.01,12.13
14.30282211303711,-8.87,10.73,-1.18,13.97
14.30391788482666,-9.79,10.93,-3.19,15.01
14.318886995315552,-10.7,10.86,-3.85,15.72
14.343785047531128,-11.77,12.12,-3.72,17.29
14.34521484375,-11.9,14.8,-2.94,19.21
14.346282005310059,-7.97,15.7,-5.45,18.43
14.356371879577637,-0.81,14.05,-9.22,16.82
14.357435941696167,3.42,11.38,-6.37,13.48
14.373482942581177,2.19,8.81,-2.31,9.36
14.374541997909546,-2.62,3.98,-0.52,4.79
14.390010833740234,-3.64,-0.09,-0.16,3.64
14.394461154937744,3.37,1.76,-0.02,3.8
14.40579891204834,8.43,-1.31,1.37,8.64
14.441882133483887,4.12,-1.02,-2.18,4.77
14.44316291809082,-3.16,1.4,-1.37,3.71
14.444244861602783,-7.26,1.02,0.3,7.33
14.456969976425171,-9.56,0.16,-0.3,9.56
14.458024978637695,-11.07,-0.91,0.0,11.1
14.473251819610596,-10.8,-2.11,0.81,11.03
14.474328994750977,-8.34,-2.71,1.86,8.96
14.490041971206665,-5.83,-3.23,2.49,7.11
14.49375581741333,-4.42,-3.88,2.86,6.53
14.505604028701782,-4.0,-4.25,2.89,6.51
14.540446996688843,-4.47,-4.51,3.05,7.04
14.541878938674927,-4.61,-4.88,2.06,7.02
14.542906045913696,-4.48,-4.77,1.18,6.64
14.557425022125244,-4.35,-4.56,0.37,6.31
14.558473110198975,-4.05,-4.29,-0.4,5.91
14.57284688949585,-3.63,-4.21,-0.9,5.63
14.573912143707275,-3.41,-4.37,-0.91,5.61
14.589949131011963,-3.26,-4.65,-0.64,5.71
14.593415975570679,-3.11,-5.04,-0.34,5.93
14.606112003326416,-2.83,-5.37,-0.08,6.07
14.640169143676758,-2.38,-5.74,0.19,6.21
14.641560077667236,-1.96,-6.37,0.28,6.67
14.642642974853516,-1.84,-7.08,0.29,7.32
14.657377004623413,-2.0,-7.52,0.49,7.79
14.65844202041626,-2.1,-7.54,0.88,7.87
14.673179149627686,-1.98,-7.19,1.48,7.6
14.67422604560852,-1.44,-6.54,1.66,6.89
14.689949035644531,-0.03,-5.74,1.12,5.84
14.692384958267212,1.98,-5.0,0.51,5.4
14.705817937850952,3.67,-3.54,0.48,5.12
14.712216854095459,5.59,-1.53,0.94,5.87
14.74826192855835,8.16,0.29,0.74,8.19
14.749483108520508,10.66,1.73,-0.01,10.79
14.75075912475586,12.52,3.37,-0.85,12.99
14.753244876861572,14.0,4.83,-1.49,14.88
14.773506164550781,15.55,5.6,-2.16,16.66
14.774502038955688,17.07,5.77,-3.09,18.28
14.789973974227905,18.52,6.06,-3.85,19.86
14.791401863098145,20.09,5.97,-4.22,21.37
14.805930137634277,21.44,4.33,-4.02,22.23
14.811736106872559,21.42,3.12,-1.94,21.73
14.84998893737793,14.64,7.89,2.81,16.86
14.85115385055542,0.89,4.77,4.19,6.41
14.852123975753784,-13.25,5.28,3.05,14.58
14.854382038116455,-17.41,23.06,1.66,28.94
14.860951900482178,-15.54,32.9,9.17,37.52
14.870790958404541,-13.35,13.75,-2.77,19.36
14.880989074707031,-5.08,-0.41,-8.51,9.91
14.89094591140747,5.01,-0.35,-2.76,5.73
14.900966167449951,10.57,-3.95,4.16,12.02
14.911023139953613,12.61,-8.61,2.46,15.46
14.94325590133667,13.16,-8.89,0.4,15.88
14.944511890411377,10.91,-4.26,-0.13,11.71
14.945528030395508,6.12,-0.66,-1.75,6.39
14.957398891448975,1.81,0.82,-3.06,3.64
14.960219860076904,-0.52,1.93,-2.96,3.57
14.973309993743896,-1.75,2.39,-0.8,3.06
14.980363845825195,-1.33,1.35,1.67,2.52
14.990386962890625,0.67,-0.16,1.98,2.09
15.000461101531982,2.18,-1.01,0.72,2.5
15.010329008102417,1.94,-0.99,0.21,2.18
15.044352054595947,0.92,-0.52,0.15,1.06
15.045666933059692,0.69,-0.15,-0.23,0.74
15.046709060668945,1.08,0.01,-0.74,1.3
15.055419921875,1.09,0.14,-1.06,1.52
15.059447050094604,0.6,0.15,-1.23,1.37
15.073430061340332,0.05,0.28,-0.79,0.83
15.079313039779663,-0.22,0.27,0.15,0.37
15.09000301361084,-0.27,0.04,1.25,1.27
15.099542140960693,-0.14,-0.06,1.59,1.59
15.10948896408081,-0.02,-0.22,0.72,0.75
15.147930145263672,-0.08,0.04,-0.08,0.12
15.149297952651978,-0.3,0.42,-0.57,0.76
15.15028715133667,-0.68,0.52,-0.84,1.19
15.153314113616943,-0.87,0.44,-0.71,1.2
15.173635005950928,-0.93,0.44,-0.28,1.06
15.174602031707764,-0.97,0.51,0.11,1.1
15.189883947372437,-0.9,0.59,0.28,1.11
15.190937995910645,-0.79,0.6,0.46,1.09
15.206056118011475,-0.68,0.55,0.6,1.06
15.208654880523682,-0.59,0.45,0.61,0.96
15.251446962356567,-0.44,0.31,0.4,0.67
15.252632141113281,-0.22,0.1,0.11,0.26
15.253644943237305,-0.07,-0.03,-0.15,0.16
15.274785041809082,-0.12,0.21,-0.14,0.27
15.275810956954956,-0.28,0.63,-0.2,0.71
15.29029393196106,-0.67,0.88,-0.29,1.14
15.291336059570312,-1.36,1.44,0.1,1.98
15.307651042938232,-2.09,1.68,0.34,2.7
15.30913782119751,-2.54,1.89,0.6,3.22
15.323081016540527,-2.45,1.93,0.49,3.15
15.352491855621338,-1.93,1.97,0.33,2.77
15.3538179397583,-1.58,2.14,0.05,2.66
15.354846954345703,-1.66,2.36,-0.17,2.89
15.374288082122803,-2.03,2.6,-0.23,3.3
15.375347137451172,-2.47,2.84,-0.08,3.76
15.390285015106201,-2.75,2.98,0.01,4.05
15.39130687713623,-3.0,3.1,0.07,4.31
15.407429933547974,-3.27,3.37,0.16,4.69
15.40891408920288,-3.58,3.7,0.13,5.15
15.422767162322998,-4.2,4.43,0.13,6.1
15.452294826507568,-5.26,5.69,0.39,7.75
15.453603982925415,-6.54,7.5,0.74,9.97
15.454664945602417,-7.79,9.44,0.28,12.24
15.474338054656982,-8.9,10.36,-1.13,13.7
15.475391864776611,-9.9,10.62,-1.99,14.65
15.489913940429688,-11.16,11.18,-2.02,15.92
15.490972995758057,-12.45,12.86,-1.34,17.94
15.50425100326538,-11.91,14.69,-2.26,19.04
15.505738019943237,-7.02,14.1,-6.54,17.05
15.522946834564209,-0.18,12.4,-9.54,15.64
15.52444314956665,3.74,10.98,-4.95,12.61
15.571116924285889,2.72,7.6,-1.42,8.19
15.572299003601074,-1.55,3.19,0.78,3.63
15.573310852050781,-2.77,-1.74,-1.4,3.55
15.591219902038574,3.15,-0.06,-3.24,4.51
15.592257976531982,9.27,0.99,0.8,9.35
15.607233047485352,6.64,0.15,0.16,6.64
15.60869312286377,-2.05,2.06,-2.7,3.96
15.624207973480225,-8.55,2.57,0.52,8.94
15.625680923461914,-11.78,1.92,0.92,11.97
15.639748096466064,-14.12,1.16,0.38,14.17
15.671649932861328,-15.46,0.11,0.89,15.48
15.672932147979736,-14.75,-1.17,1.54,14.87
15.674016952514648,-10.64,-2.17,3.44,11.39
15.691074848175049,-5.82,-3.73,4.07,8.02
15.692141056060791,-3.3,-4.86,3.74,6.96
15.707535982131958,-2.71,-4.85,3.24,6.43
15.709003925323486,-3.46,-4.22,2.24,5.89
15.724895000457764,-4.27,-4.04,1.15,5.98
15.726396083831787,-4.44,-3.9,-0.06,5.9
15.739451885223389,-4.07,-3.57,-1.29,5.56
15.77069616317749,-3.71,-3.29,-1.87,5.29
15.771898984909058,-3.5,-3.5,-1.89,5.29
15.772796154022217,-3.34,-4.15,-1.56,5.55
15.791335105895996,-3.0,-4.95,-1.12,5.89
15.792369842529297,-2.42,-5.82,-0.79,6.35
15.807366847991943,-1.77,-6.67,-0.6,6.92
15.808794975280762,-1.2,-7.59,-0.45,7.69
15.82436990737915,-0.75,-8.2,-0.11,8.23
15.825788974761963,-0.04,-8.2,0.52,8.21
15.839891910552979,1.25,-7.85,0.65,7.97
15.870003938674927,2.88,-7.37,-0.01,7.91
15.871299028396606,4.76,-6.48,-0.51,8.05
15.87230396270752,6.89,-5.29,-0.45,8.69
15.891077995300293,8.69,-3.59,0.03,9.4
15.892116069793701,10.16,-1.23,0.57,10.25
15.9076509475708,11.78,1.02,0.51,11.83
15.909130096435547,13.78,2.83,0.0,14.06
15.924299001693726,16.18,4.72,-0.18,16.85
15.925826072692871,18.7,6.41,0.08,19.76
15.937803030014038,20.74,6.94,0.42,21.87
15.96598482131958,21.65,6.14,0.24,22.5
15.967303037643433,21.38,4.93,0.05,21.94
15.968348026275635,19.39,4.12,0.02,19.82
15.97087812423706,15.68,8.4,-0.74,17.8
15.972370147705078,7.36,2.79,-3.48,8.6
15.973764896392822,-6.65,-0.49,-3.93,7.73
15.982651948928833,-17.23,23.32,-5.75,29.55
15.99254298210144,-18.22,45.86,10.94,50.54
16.003326892852783,-17.3,24.0,0.1,29.58
16.012320041656494,-6.98,2.5,-7.91,10.84
16.04685688018799,3.49,-2.96,-0.45,4.59
16.047974109649658,8.46,-9.62,5.83,14.07
16.048800945281982,11.35,-13.25,4.29,17.96
16.054041862487793,12.53,-12.7,2.58,18.02
16.062018871307373,12.24,-6.49,2.81,14.13
16.073894023895264,8.71,-0.65,0.49,8.74
16.08181095123291,3.32,0.87,-3.47,4.88
16.09172487258911,0.25,2.36,-4.93,5.47
16.10163402557373,-1.37,4.22,-3.54,5.67
16.111452102661133,-2.65,3.44,-1.45,4.57
16.14841604232788,-1.37,0.67,1.55,2.17
16.149784088134766,1.51,-1.5,1.52,2.61
16.150765895843506,2.99,-2.05,0.78,3.7
16.153555870056152,2.08,-1.13,0.4,2.4
16.173810958862305,0.43,-0.13,0.16,0.47
16.174872875213623,0.0,0.34,-0.35,0.48
16.190958976745605,0.41,0.31,-0.75,0.9
16.19198703765869,0.66,0.11,-0.8,1.04
16.206315994262695,0.5,0.05,-0.66,0.82
16.211046934127808,0.36,0.0,-0.61,0.7
16.25009298324585,0.13,0.08,-0.34,0.37
16.25126314163208,-0.16,0.26,0.14,0.33
16.252230167388916,-0.33,0.32,0.59,0.74
16.254307985305786,-0.44,0.23,0.59,0.77
16.26042604446411,-0.39,0.16,0.24,0.48
16.27062201499939,-0.19,0.13,-0.2,0.3
16.28049898147583,-0.12,-0.01,-0.54,0.55
16.290352821350098,-0.34,0.04,-0.4,0.52
16.30025601387024,-0.78,0.27,-0.17,0.84
16.310473918914795,-1.23,0.51,0.12,1.33
16.320449829101562,-1.24,0.71,0.37,1.47
16.351169109344482,-0.84,0.64,0.47,1.15
16.352352142333984,-0.43,0.37,0.73,0.92
16.35339093208313,-0.26,0.13,0.91,0.95
16.37507915496826,-0.46,-0.01,0.74,0.87
16.37610697746277,-0.76,0.05,0.37,0.84
16.390419006347656,-0.88,0.37,-0.06,0.95
16.391407012939453,-0.95,0.75,-0.49,1.3
16.407817840576172,-0.99,1.13,-0.6,1.61
16.409480094909668,-1.14,1.56,-0.25,1.94
16.42338514328003,-1.5,1.79,0.12,2.33
16.45162582397461,-2.06,1.99,0.43,2.89
16.45288896560669,-2.06,2.21,0.67,3.09
16.45383095741272,-1.76,2.23,0.83,2.95
16.475039958953857,-1.45,2.06,0.73,2.62
16.476080894470215,-1.48,1.98,0.54,2.53
16.4907009601593,-1.92,2.13,0.25,2.87
16.491745948791504,-2.51,2.34,-0.16,3.43
16.508216857910156,-2.94,2.68,-0.33,3.99
16.509644031524658,-3.13,3.04,-0.19,4.36
16.523641109466553,-3.31,3.34,0.02,4.7
16.553154945373535,-3.63,3.68,0.11,5.17
16.55460214614868,-4.38,4.4,0.35,6.21
16.555609941482544,-5.64,5.93,0.87,8.22
16.574939966201782,-7.04,8.15,1.35,10.85
16.57598900794983,-8.49,10.78,1.26,13.77
16.590808868408203,-10.1,12.71,0.11,16.23
16.591879844665527,-11.69,13.27,-1.4,17.74
16.606719970703125,-13.14,13.68,-1.49,19.02
16.60820484161377,-13.96,15.03,-0.87,20.53
16.623767852783203,-11.34,16.11,-3.6,20.02
16.65275502204895,-4.21,13.98,-10.39,17.91
16.654112815856934,2.28,13.3,-8.4,15.89
16.655128002166748,4.19,11.05,-2.22,12.02
16.674593925476074,1.13,6.18,-0.25,6.28
16.675647974014282,-2.8,1.16,-0.31,3.04
16.690829038619995,-1.05,-0.07,-2.52,2.73
16.691856861114502,6.33,2.48,-1.19,6.9
16.709136962890625,9.06,0.26,1.11,9.13
16.71058416366577,3.2,1.73,-3.39,4.97
16.724061012268066,-4.26,2.88,-2.24,5.6
16.75490093231201,-8.13,1.93,-0.62,8.37
16.756623029708862,-10.3,0.49,-1.55,10.42
16.75761604309082,-12.06,-0.62,-1.73,12.19
16.775662899017334,-12.24,-1.73,-0.49,12.37
16.776715993881226,-10.18,-2.78,1.14,10.61
16.790657997131348,-6.84,-4.02,2.53,8.32
16.792091846466064,-4.26,-5.57,2.89,7.58
16.807801961898804,-3.76,-6.1,2.59,7.61
16.809278964996338,-4.41,-5.76,1.81,7.47
16.823573112487793,-5.09,-5.56,0.6,7.56
16.854612827301025,-5.7,-5.19,-0.21,7.71
16.855897903442383,-5.67,-5.21,-1.25,7.8
16.8569278717041,-5.19,-5.28,-2.11,7.69
16.875001907348633,-4.68,-5.27,-2.36,7.43
16.876004934310913,-4.09,-5.44,-2.11,7.12
16.891305923461914,-3.55,-5.99,-1.79,7.18
16.892341136932373,-3.16,-6.81,-1.6,7.67
16.90815782546997,-2.98,-7.5,-1.43,8.19
16.90966510772705,-2.99,-8.07,-1.38,8.71
16.923551082611084,-3.04,-8.6,-1.31,9.21
16.95232582092285,-3.17,-8.87,-0.84,9.45
16.9537091255188,-3.03,-8.99,-0.49,9.49
16.954758167266846,-2.53,-8.73,0.04,9.08
16.97490882873535,-1.76,-8.09,0.68,8.3
16.975953102111816,-0.55,-7.06,0.76,7.12
16.991015911102295,1.02,-5.83,0.05,5.91
16.992058038711548,2.92,-3.98,-0.04,4.93
17.008002996444702,5.51,-1.08,0.19,5.61
17.009464979171753,8.75,2.02,-0.03,8.98
17.023892879486084,11.83,4.93,-0.39,12.82
17.053156852722168,14.35,8.25,-1.03,16.58
17.054623126983643,16.9,10.97,-1.65,20.21
17.05564594268799,19.22,12.36,-2.17,22.95
17.071442127227783,20.62,12.97,-3.18,24.56
17.072531938552856,21.12,12.59,-2.94,24.76
17.09126615524292,21.32,9.9,-2.68,23.65
17.09230399131775,19.94,10.19,-1.45,22.43
17.108103036880493,16.05,10.2,0.02,19.01
17.109591007232666,6.3,0.71,-1.17,6.44
17.123504161834717,-8.16,0.59,2.75,8.63
17.1249840259552,-15.78,11.08,3.84,19.66
17.169754028320312,-15.57,21.74,8.5,28.05
17.170981884002686,-12.04,16.78,4.72,21.18
17.17199182510376,-4.56,4.32,-2.38,6.71
17.191564083099365,2.47,-2.66,-1.26,3.84
17.192649841308594,8.56,-3.24,0.82,9.18
17.208109855651855,11.73,-5.23,1.13,12.89
17.209574937820435,12.49,-5.56,-1.09,13.71
17.22462511062622,11.55,-2.36,-1.69,11.9
17.226078033447266,7.45,0.24,-2.64,7.9
17.240474939346313,3.42,0.79,-3.78,5.15
17.27167296409607,0.68,1.47,-3.61,3.95
17.273501873016357,-1.03,2.09,-1.72,2.89
17.2745099067688,-1.11,1.37,1.07,2.06
17.291606903076172,0.21,-0.47,3.12,3.16
17.292659044265747,1.14,-1.93,3.34,4.02
17.30781102180481,1.12,-2.0,1.84,2.93
17.30881094932556,0.67,-0.7,0.16,0.98
17.324862003326416,0.57,0.46,-1.1,1.32
17.32637095451355,0.73,0.72,-1.49,1.8
17.340474128723145,0.72,0.33,-0.64,1.01
17.371062994003296,0.61,-0.19,-0.05,0.64
17.372375011444092,0.74,-0.32,-0.45,0.92
17.373382091522217,0.79,0.02,-0.85,1.16
17.391857147216797,0.36,0.24,-0.69,0.81
17.392859935760498,-0.19,0.21,-0.06,0.28
17.40813684463501,-0.51,0.1,0.53,0.74
17.409181118011475,-0.54,0.0,0.62,0.82
17.424870014190674,-0.31,0.0,0.53,0.61
17.42623805999756,-0.12,0.0,0.08,0.14
17.440313816070557,-0.03,0.03,-0.42,0.42
17.471045970916748,0.03,0.07,-0.85,0.85
17.472392082214355,-0.15,0.15,-0.76,0.78
17.473413944244385,-0.66,0.36,-0.11,0.75
17.491605043411255,-1.08,0.52,0.49,1.29
17.492666959762573,-1.14,0.54,0.57,1.38
17.50805902481079,-0.83,0.43,0.27,0.97
17.50910186767578,-0.6,0.35,0.08,0.69
17.524853944778442,-0.78,0.29,-0.02,0.83
17.526337146759033,-1.2,0.32,-0.24,1.26
17.540573120117188,-1.55,0.49,-0.38,1.66
17.570655822753906,-1.58,0.65,-0.47,1.77
17.571983814239502,-1.25,0.68,-0.65,1.56
17.572986125946045,-0.84,0.82,-0.63,1.33
17.591673851013184,-0.65,1.02,-0.48,1.3
17.592710971832275,-0.74,1.11,-0.24,1.35
17.606789112091064,-1.04,1.11,0.04,1.52
17.6077561378479,-1.4,1.17,0.24,1.84
17.624642848968506,-1.56,1.54,0.5,2.24
17.626032829284668,-1.55,2.0,0.5,2.57
17.6403169631958,-1.31,2.31,0.49,2.7
17.668403148651123,-1.44,2.28,0.51,2.74
17.669755935668945,-1.88,2.56,0.64,3.24
17.67073392868042,-2.38,2.92,0.27,3.77
17.693193912506104,-2.74,3.41,-0.16,4.37
17.694221019744873,-3.0,3.8,-0.4,4.85
17.70836305618286,-3.27,4.06,-0.38,5.22
17.70938801765442,-3.63,4.19,-0.17,5.54
17.725901126861572,-4.15,4.74,0.51,6.32
17.72734308242798,-5.23,6.52,1.45,8.48
17.740656852722168,-7.01,9.19,1.55,11.66
17.7687931060791,-8.87,11.25,0.05,14.32
17.77022099494934,-10.19,12.28,-1.89,16.06
17.77123785018921,-10.74,12.82,-3.14,17.01
17.792055130004883,-10.97,12.32,-3.83,16.93
17.793127059936523,-11.88,12.17,-3.88,17.44
17.80828285217285,-12.59,13.69,-2.72,18.79
17.809361934661865,-9.69,14.76,-3.94,18.09
17.825334072113037,-2.52,14.6,-8.47,17.06
17.826792001724243,2.68,11.34,-8.03,14.15
17.84073495864868,3.02,7.87,-3.66,9.18
17.868932962417603,-1.38,3.17,-1.68,3.84
17.870360851287842,-2.18,0.44,-0.37,2.25
17.871345043182373,4.72,1.33,1.27,5.06
17.89215612411499,8.37,-2.57,2.61,9.13
17.89320993423462,4.04,-1.32,-1.55,4.52
17.90847110748291,-3.07,1.13,-1.02,3.42
17.90951108932495,-7.54,1.18,0.35,7.63
17.925321102142334,-9.97,0.55,-0.52,9.99
17.9268479347229,-11.61,-0.71,-0.72,11.65
17.940998077392578,-11.83,-2.35,-0.42,12.06
17.942462921142578,-9.84,-3.28,0.87,10.4
17.98886489868164,-6.64,-4.03,1.76,7.96
17.99003314971924,-4.34,-5.1,2.28,7.07
17.991019010543823,-3.71,-5.57,2.3,7.07
18.008946895599365,-3.73,-5.97,1.7,7.24
18.009992122650146,-4.16,-5.85,1.1,7.26
18.024821996688843,-4.69,-5.82,0.4,7.48
18.026298999786377,-4.93,-5.82,-0.41,7.63
18.04172992706299,-4.71,-5.7,-1.04,7.46
18.043154001235962,-4.36,-5.58,-1.27,7.19
18.057101011276245,-4.08,-5.72,-1.17,7.12
18.09059715270996,-3.96,-6.06,-0.91,7.29
18.091896057128906,-3.92,-6.59,-0.67,7.69
18.092906951904297,-3.92,-6.98,-0.33,8.01
18.108837127685547,-3.78,-7.33,0.05,8.24
18.10989499092102,-3.41,-7.93,0.38,8.64
18.125175952911377,-3.0,-8.34,0.7,8.89
18.126617908477783,-2.55,-8.07,1.37,8.57
18.141878128051758,-1.76,-7.21,1.72,7.61
18.143309116363525,0.08,-6.34,1.05,6.42
18.157276153564453,2.58,-5.59,0.0,6.15
18.190535068511963,4.95,-4.37,-0.6,6.63
18.19198989868164,7.55,-2.29,-0.45,7.9
18.192991018295288,10.7,0.04,-0.24,10.7
18.208928108215332,13.45,2.24,-0.2,13.63
18.21001386642456,15.62,4.55,0.38,16.27
18.22529411315918,17.45,6.5,1.26,18.66
18.226768016815186,18.79,7.44,1.75,20.28
18.242095947265625,19.46,7.63,1.8,20.97
18.24355697631836,19.5,7.16,1.36,20.81
18.257317066192627,19.24,6.78,1.02,20.42
18.29038381576538,18.27,6.25,0.97,19.33
18.291706085205078,17.08,6.99,0.06,18.45
18.292759895324707,13.03,6.59,-1.81,14.71
18.308247089385986,0.93,-2.4,-3.86,4.63
18.30934500694275,-13.53,3.43,-4.92,14.79
18.32538104057312,-20.22,28.61,-0.23,35.03
18.326870918273926,-20.51,38.79,10.71,45.16
18.34225082397461,-16.28,16.03,-3.25,23.07
18.343780040740967,-4.93,-0.58,-2.82,5.7
18.357390880584717,2.82,-5.78,1.2,6.54
18.388771057128906,8.47,-8.06,3.43,12.18
18.390058040618896,10.78,-11.32,2.01,15.76
18.391048908233643,12.36,-10.29,-0.71,16.09
18.409209966659546,13.12,-3.93,0.99,13.73
18.410263061523438,9.98,1.11,-0.3,10.04
18.42457914352417,4.15,1.55,-4.0,5.96
18.42561101913452,0.37,1.94,-4.5,4.91
18.44216012954712,-1.87,2.65,-2.53,4.11
18.44365882873535,-2.74,1.94,1.34,3.61
18.457252979278564,-0.65,-0.41,3.37,3.45
18.485708951950073,1.6,-1.93,2.39,3.46
18.487177848815918,2.15,-1.45,0.45,2.63
18.488152980804443,1.52,-0.25,-0.61,1.65
18.509202003479004,1.07,0.34,-0.57,1.25
18.51024103164673,0.96,0.09,-0.31,1.01
18.52511692047119,1.23,-0.22,-0.18,1.26
18.526160955429077,1.36,-0.16,-0.47,1.44
18.542402029037476,0.96,0.02,-0.68,1.17
18.54387903213501,0.48,0.14,-0.64,0.81
18.557671070098877,0.24,0.17,-0.22,0.36
18.58541703224182,0.0,0.11,0.51,0.52
18.586755990982056,-0.25,0.02,0.97,1.0
18.587743043899536,-0.4,0.04,0.88,0.96
18.609085083007812,-0.3,0.15,0.38,0.5
18.610107898712158,-0.13,0.14,-0.35,0.39
18.62490701675415,-0.16,0.17,-0.66,0.7
18.625936031341553,-0.42,0.3,-0.39,0.64
18.642239093780518,-0.81,0.36,-0.1,0.89
18.643646955490112,-1.08,0.38,0.02,1.14
18.65758204460144,-1.06,0.48,0.2,1.18
18.68460988998413,-0.66,0.51,0.28,0.87
18.68595004081726,-0.33,0.41,0.4,0.66
18.686892986297607,-0.28,0.24,0.4,0.54
18.688820838928223,-0.42,0.11,0.14,0.45
18.69002103805542,-0.64,0.18,-0.23,0.7
18.691254138946533,-0.78,0.47,-0.51,1.04
18.692469120025635,-0.92,0.7,-0.6,1.3
18.701941967010498,-1.01,1.0,-0.45,1.49
18.712175846099854,-1.07,1.3,-0.23,1.69
18.722075939178467,-1.15,1.39,-0.07,1.8
18.732043981552124,-1.33,1.53,0.28,2.04
18.759557008743286,-1.48,1.84,0.49,2.41
18.7608060836792,-1.78,2.03,0.47,2.74
18.76161503791809,-1.94,2.24,0.38,2.98
18.774188995361328,-1.98,2.32,0.05,3.05
18.781244039535522,-2.07,2.43,-0.26,3.2
18.791281938552856,-2.28,2.64,-0.48,3.52
18.801419019699097,-2.57,2.96,-0.49,3.95
18.811355113983154,-3.05,3.42,-0.4,4.59
18.821332931518555,-3.57,3.82,-0.35,5.24
18.831236839294434,-4.03,4.17,-0.18,5.8
18.860527992248535,-4.53,4.74,0.3,6.56
18.861634969711304,-5.53,5.9,0.85,8.13
18.862465858459473,-6.92,7.68,1.38,10.42
18.87574005126953,-8.33,9.8,1.06,12.9
18.880676984786987,-9.52,11.21,-0.53,14.71
18.891724109649658,-10.16,11.66,-1.88,15.57
18.90117311477661,-10.67,11.81,-2.42,16.09
18.911148071289062,-11.93,12.51,-2.91,17.52
18.921545028686523,-12.93,14.51,-2.75,19.62
18.930678844451904,-10.85,15.48,-4.29,19.38
18.961400985717773,-4.16,14.43,-8.54,17.27
18.96252703666687,1.71,11.71,-8.74,14.71
18.96332097053528,3.47,9.22,-3.31,10.39
18.976166009902954,0.17,5.68,-0.48,5.7
18.979966163635254,-2.84,0.3,0.44,2.88
18.98993682861328,2.06,1.13,0.23,2.36
18.99985098838806,9.3,0.12,2.08,9.53
19.009801864624023,8.39,-1.35,0.5,8.51
19.019915103912354,0.48,1.63,-2.54,3.05
19.02995800971985,-6.27,2.44,0.2,6.73
19.0602388381958,-9.44,1.51,0.28,9.56
19.06155300140381,-11.35,0.28,-0.05,11.35
19.062582969665527,-12.3,-1.33,0.03,12.37
19.076323986053467,-11.29,-2.87,0.92,11.68
19.07916784286499,-8.13,-3.69,2.2,9.19
19.09215784072876,-4.86,-4.21,2.76,6.99
19.099112033843994,-3.71,-4.58,2.86,6.55
19.109129905700684,-3.75,-5.07,2.37,6.73
19.119091033935547,-4.07,-5.22,1.68,6.82
19.12921714782715,-4.42,-5.31,1.03,6.98
19.16652798652649,-4.53,-5.43,0.29,7.07
19.167943000793457,-4.28,-5.36,-0.25,6.86
19.168926000595093,-3.9,-5.3,-0.57,6.6
19.1725070476532,-3.68,-5.44,-0.72,6.6
19.191832065582275,-3.62,-5.77,-0.72,6.84
19.1928391456604,-3.69,-6.27,-0.7,7.3
19.20908498764038,-3.8,-6.72,-0.43,7.73
19.210546016693115,-3.73,-7.26,0.0,8.16
19.22447395324707,-3.4,-7.99,0.36,8.69
19.228209018707275,-3.1,-8.54,0.94,9.13
19.267466068267822,-2.72,-8.5,1.59,9.06
19.26866602897644,-2.12,-7.73,1.99,8.25
19.269894123077393,-0.93,-6.62,1.49,6.84
19.27201509475708,1.09,-5.63,0.85,5.79
19.277694940567017,3.25,-4.47,0.52,5.55
19.28781294822693,5.74,-2.56,0.56,6.3
19.297791957855225,8.71,-0.61,0.34,8.73
19.307694911956787,11.74,1.26,0.21,11.8
19.3179030418396,14.16,3.69,-0.09,14.63
19.327778816223145,16.18,5.63,-0.01,17.13
19.367216110229492,18.07,6.76,0.29,19.29
19.368536949157715,19.71,7.3,-0.01,21.01
19.369503021240234,20.61,6.95,-0.61,21.75
19.371899127960205,20.6,6.64,-0.78,21.65
19.392205953598022,19.96,5.94,-1.03,20.85
19.393285989761353,18.55,4.69,-1.39,19.18
19.40881586074829,15.78,6.25,-1.89,17.07
19.4098539352417,8.68,6.24,-0.94,10.73
19.4247088432312,-3.8,-0.74,-1.11,4.02
19.426764011383057,-16.65,6.91,-3.39,18.34
19.468981981277466,-22.06,28.25,3.51,36.01
19.470134973526,-21.35,32.43,8.91,39.83
19.471130847930908,-14.61,12.78,-4.6,19.94
19.473267078399658,-2.88,1.46,-4.26,5.34
19.476096153259277,5.39,-2.98,-1.1,6.25
19.486089944839478,10.14,-8.5,2.18,13.4
19.4959979057312,12.56,-10.98,1.67,16.76
19.50626516342163,13.73,-9.82,1.11,16.91
19.515849113464355,13.64,-5.16,2.68,14.82
19.525825023651123,9.67,-0.18,1.22,9.74
19.53591799736023,3.34,1.28,-2.42,4.31
19.56857204437256,-0.42,2.04,-3.63,4.18
19.569471836090088,-2.02,2.88,-3.95,5.28
19.570505142211914,-2.46,2.52,-1.64,3.88
19.575296878814697,-0.6,0.56,1.52,1.72
19.58524990081787,1.75,-1.49,1.86,2.95
19.595451831817627,2.7,-2.08,1.21,3.61
19.60557198524475,1.87,-1.08,0.11,2.16
19.61522912979126,0.96,0.1,-0.43,1.05
19.625062942504883,0.64,0.48,-0.59,0.99
19.635056018829346,0.75,0.22,-0.52,0.93
19.66546893119812,1.02,-0.06,-0.48,1.12
19.66641902923584,1.01,-0.09,-0.38,1.08
19.66751194000244,0.57,0.03,0.01,0.57
19.674601078033447,0.15,0.0,-0.07,0.16
19.684753894805908,-0.05,-0.01,-0.24,0.24
19.69472098350525,-0.02,0.11,0.07,0.13
19.704626083374023,-0.02,0.11,0.38,0.39
19.714318990707397,-0.19,-0.07,0.28,0.34
19.72481393814087,-0.42,-0.09,-0.16,0.45
19.73458504676819,-0.52,0.14,-0.54,0.76
19.76771116256714,-0.83,0.43,-0.44,1.03
19.76887083053589,-0.99,0.57,-0.2,1.15
19.770023822784424,-0.87,0.5,0.16,1.01
19.773798942565918,-0.62,0.48,0.56,0.96
19.784114837646484,-0.58,0.49,0.64,0.99
19.79392385482788,-0.74,0.49,0.34,0.95
19.80392599105835,-1.01,0.47,-0.01,1.11
19.813585996627808,-1.23,0.5,-0.2,1.34
19.823755025863647,-1.11,0.5,-0.15,1.22
19.83363389968872,-0.77,0.53,-0.1,0.94
19.86431097984314,-0.47,0.5,-0.26,0.73
19.86537790298462,-0.51,0.55,-0.18,0.77
19.866189002990723,-0.8,0.61,-0.14,1.01
19.87306499481201,-1.22,0.78,-0.2,1.46
19.883239030838013,-1.54,1.29,0.06,2.0
19.89304494857788,-1.74,1.77,-0.09,2.48
19.902924060821533,-1.59,2.17,-0.15,2.69
19.912802934646606,-1.5,2.29,-0.17,2.74
19.922929048538208,-1.55,2.44,0.21,2.89
19.93309497833252,-1.85,2.63,0.17,3.21
19.971601963043213,-2.23,2.75,-0.12,3.54
19.97303795814514,-2.54,3.03,-0.49,3.98
19.974030017852783,-2.82,3.4,-0.71,4.47
19.992743015289307,-3.11,3.72,-0.71,4.9
19.993730068206787,-3.45,3.97,-0.57,5.29
20.008960962295532,-3.97,4.28,-0.35,5.84
20.010018825531006,-4.87,4.93,0.11,6.93
20.025115966796875,-5.95,6.22,0.99,8.66
20.026546955108643,-7.01,8.22,1.61,10.92
20.041659832000732,-8.07,10.41,0.89,13.2
20.069910049438477,-9.0,11.35,-1.65,14.57
20.071144104003906,-9.52,11.27,-3.45,15.15
20.071927070617676,-10.06,11.08,-3.85,15.45
20.093371868133545,-11.14,11.83,-4.11,16.76
20.094411849975586,-11.79,14.2,-3.32,18.75
20.106184005737305,-8.76,15.87,-4.48,18.67
20.107249975204468,-2.86,14.24,-8.55,16.85
20.12593698501587,1.64,10.31,-8.41,13.4
20.126953125,2.42,7.59,-3.28,8.61
20.141993045806885,-1.45,3.5,-0.08,3.78
20.170804023742676,-3.14,-1.02,-0.42,3.32
20.172101974487305,2.5,0.34,0.38,2.55
20.172945976257324,7.49,-1.89,2.58,8.14
20.192749977111816,4.31,-1.52,-0.69,4.62
20.193789958953857,-2.84,1.16,-1.17,3.28
20.209246158599854,-7.56,1.33,0.67,7.7
20.210286140441895,-9.67,0.58,0.06,9.68
20.226097106933594,-11.05,-0.57,-0.3,11.06
20.227120876312256,-10.84,-2.04,0.14,11.03
20.2417049407959,-7.92,-3.01,1.24,8.56
20.270076990127563,-4.16,-3.72,1.76,5.85
20.271203994750977,-2.24,-3.98,1.82,4.91
20.27200412750244,-2.36,-4.16,1.79,5.1
20.29291009902954,-2.98,-4.35,1.39,5.45
20.293975830078125,-3.5,-4.16,0.94,5.51
20.309285163879395,-3.57,-4.09,0.46,5.44
20.31031084060669,-3.35,-4.04,-0.23,5.25
20.3261079788208,-2.98,-3.95,-0.83,5.01
20.327136993408203,-2.71,-3.97,-1.28,4.97
20.341761112213135,-2.59,-4.03,-1.36,4.97
20.343069076538086,-2.5,-4.28,-1.16,5.09
20.386837005615234,-2.39,-4.79,-0.72,5.4
20.38798999786377,-2.25,-5.5,-0.14,5.94
20.388975143432617,-2.31,-6.41,0.4,6.82
20.409888982772827,-2.49,-7.37,0.62,7.8
20.410944938659668,-2.61,-8.05,0.91,8.51
20.425943851470947,-2.76,-8.11,1.38,8.67
20.426939010620117,-2.66,-7.3,2.23,8.08
20.44297194480896,-1.74,-6.18,2.4,6.85
20.444463968276978,0.92,-5.72,1.53,5.99
20.45836901664734,3.92,-5.19,0.63,6.53
20.4895601272583,6.42,-4.24,0.19,7.69
20.490855932235718,8.43,-2.91,0.25,8.92
20.49186897277832,10.26,-1.37,0.64,10.37
20.50994896888733,11.94,-0.07,1.04,11.98
20.510991096496582,13.75,0.72,1.29,13.82
20.524377822875977,15.32,1.33,1.15,15.42
20.525740146636963,16.03,2.11,0.56,16.17
20.543094158172607,16.15,3.06,0.06,16.43
20.5445499420166,16.78,3.93,-0.13,17.23
20.558466911315918,18.03,4.45,-0.9,18.59
20.589478969573975,19.84,4.99,-1.04,20.48
20.590803146362305,21.39,4.7,-0.91,21.91
20.591805934906006,21.29,2.95,-0.07,21.49
20.609757900238037,15.05,3.85,0.07,15.53
20.610810041427612,2.95,1.89,-0.21,3.5
20.62548589706421,-11.7,0.15,-3.03,12.08
20.626532077789307,-25.2,25.28,-10.88,37.31
20.640596866607666,-28.47,47.54,9.13,56.16
20.641719818115234,-24.92,26.04,-6.32,36.59
20.658392906188965,-9.71,6.58,-8.05,14.22
20.690064907073975,-0.08,-5.49,0.1,5.49
20.691365003585815,4.87,-13.99,1.11,14.85
20.692363023757935,9.43,-17.2,1.68,19.68
20.71003007888794,13.59,-17.04,3.53,22.07
20.71109390258789,15.66,-9.22,5.01,18.85
20.725916862487793,14.74,0.04,4.64,15.45
20.726923942565918,8.24,2.41,-1.58,8.72
20.743340969085693,1.75,2.48,-4.21,5.19
20.7448091506958,-1.64,3.45,-4.06,5.57
20.758352994918823,-2.74,3.82,-1.04,4.81
20.78804588317871,-2.38,1.39,0.49,2.79
20.789247035980225,0.15,-1.48,0.95,1.76
20.790080070495605,2.53,-2.01,0.47,3.26
20.80955195426941,2.8,-1.17,-0.25,3.04
20.810594081878662,1.24,-0.15,-0.73,1.44
20.82586693763733,0.26,0.41,-0.84,0.97
20.8269100189209,0.38,0.35,-0.57,0.76
20.842878818511963,0.77,0.05,-0.16,0.78
20.843844890594482,0.77,-0.1,0.12,0.78
20.85838294029236,0.39,-0.08,0.23,0.45
20.887988090515137,0.1,0.07,0.12,0.17
20.889144897460938,0.05,0.19,0.01,0.19
20.88994789123535,0.01,0.25,0.14,0.28
20.909775972366333,-0.19,0.18,0.31,0.4
20.910812854766846,-0.4,0.01,0.1,0.41
20.925922870635986,-0.47,-0.02,-0.21,0.51
20.926988124847412,-0.37,0.05,-0.58,0.68
20.942895889282227,-0.34,0.27,-0.68,0.8
20.943979024887085,-0.52,0.51,-0.25,0.77
20.95840311050415,-0.83,0.56,0.3,1.04
20.98674201965332,-0.95,0.45,0.53,1.17
20.987893104553223,-0.82,0.3,0.54,1.02
20.988686084747314,-0.58,0.32,0.53,0.84
21.010262966156006,-0.51,0.37,0.43,0.76
21.01133704185486,-0.65,0.36,0.2,0.76
21.026020050048828,-0.84,0.34,-0.06,0.9
21.027031898498535,-1.01,0.37,-0.3,1.11
21.04279613494873,-1.19,0.6,-0.46,1.4
21.043827056884766,-1.27,0.9,-0.57,1.65
21.058600902557373,-1.28,1.09,-0.47,1.74
21.089023113250732,-1.5,1.28,-0.2,1.98
21.09040904045105,-1.66,1.29,0.09,2.1
21.091423988342285,-1.98,1.36,0.28,2.41
21.110047817230225,-2.38,1.76,0.35,2.98
21.111145973205566,-2.14,2.03,-0.04,2.94
21.125942945480347,-1.77,2.37,-0.04,2.95
21.126882076263428,-1.54,2.63,0.04,3.04
21.143371105194092,-1.77,2.72,0.22,3.25
21.14482307434082,-2.47,2.94,0.42,3.86
21.158367156982422,-3.26,3.27,0.54,4.64
21.15986704826355,-3.79,3.59,0.38,5.23
21.204735040664673,-3.88,3.85,0.05,5.46
21.20593786239624,-4.01,4.02,-0.12,5.67
21.206934928894043,-4.73,4.96,0.36,6.86
21.226876974105835,-5.75,6.8,1.12,8.97
21.227933883666992,-7.07,9.17,1.53,11.67
21.241785049438477,-8.73,11.3,0.67,14.29
21.24288511276245,-10.26,12.28,-0.93,16.02
21.256896018981934,-11.62,12.52,-2.07,17.2
21.258397102355957,-12.7,12.99,-2.18,18.29
21.273169994354248,-12.61,14.2,-3.09,19.24
21.3032808303833,-9.68,15.04,-6.07,18.88
21.30454683303833,-3.16,13.77,-9.92,17.26
21.30535888671875,2.39,12.66,-7.49,14.9
21.326900959014893,3.37,9.31,-2.45,10.19
21.327931880950928,0.39,5.05,0.54,5.09
21.34310483932495,-2.36,-0.03,-0.64,2.44
21.344136953353882,0.84,-0.62,-2.96,3.13
21.36002206802368,7.48,-0.56,-0.51,7.51
21.36140012741089,6.71,-2.42,-0.51,7.15
21.37578296661377,-1.13,0.06,-3.2,3.39
21.40525484085083,-7.33,1.75,-0.09,7.53
21.406510829925537,-10.19,1.75,1.85,10.5
21.40748405456543,-11.84,0.71,2.07,12.04
21.4269859790802,-13.09,-0.56,1.98,13.25
21.42804193496704,-12.63,-2.06,2.03,12.95
21.442989826202393,-9.14,-3.01,3.0,10.07
21.443974018096924,-4.17,-3.52,2.9,6.17
21.460386991500854,-1.48,-3.26,2.14,4.17
21.46181583404541,-0.63,-3.4,0.87,3.56
21.47571897506714,-0.97,-3.81,0.41,3.95
21.50519609451294,-1.69,-4.17,0.13,4.5
21.50653314590454,-1.95,-4.63,-0.65,5.06
21.50758409500122,-2.0,-5.07,-1.52,5.65
21.527009963989258,-2.06,-5.43,-1.89,6.1
21.528040885925293,-2.1,-5.89,-1.78,6.5
21.54310703277588,-2.16,-6.6,-1.34,7.07
21.544128894805908,-2.29,-7.34,-0.67,7.71
21.55996799468994,-2.4,-7.96,0.18,8.31
21.561400890350342,-2.39,-8.53,0.81,8.89
21.575594902038574,-2.29,-9.12,1.03,9.45
21.605196952819824,-2.29,-9.58,1.18,9.92
21.606576919555664,-2.4,-9.87,1.36,10.24
21.607573986053467,-2.75,-9.86,1.62,10.36
21.628711938858032,-2.84,-9.31,2.09,9.95
21.629771947860718,-2.24,-8.28,2.39,8.9
21.643290042877197,-0.74,-7.09,2.13,7.43
21.644340991973877,1.67,-6.04,1.55,6.45
21.660071849822998,3.94,-4.62,0.7,6.11
21.661521911621094,6.25,-2.5,-0.05,6.73
21.67567014694214,9.37,0.22,-0.4,9.38
21.706337928771973,12.75,2.73,-0.87,13.06
21.70765995979309,14.93,4.86,-1.38,15.76
21.708721160888672,16.31,6.78,-1.79,17.75
21.727107048034668,17.76,7.75,-1.89,19.46
21.728132009506226,19.3,7.91,-2.24,20.97
21.743263006210327,20.7,7.8,-1.97,22.2
21.744292974472046,21.49,6.22,-1.53,22.42
21.76014494895935,20.13,6.48,-1.69,21.21
21.76161813735962,13.84,9.46,-0.5,16.77
21.77570104598999,0.8,2.73,-0.56,2.89
21.805454969406128,-11.01,10.65,-3.39,15.68
21.80674982070923,-16.25,33.79,-0.86,37.5
21.80775499343872,-17.93,34.0,6.29,38.94
21.82668113708496,-14.88,9.28,-8.93,19.67
21.827796936035156,-4.81,-0.54,-7.67,9.06
21.84335708618164,2.95,-5.55,1.49,6.45
21.84434700012207,7.99,-10.08,6.19,14.27
21.859755039215088,11.67,-11.96,6.29,17.85
21.860785961151123,12.68,-9.8,4.32,16.59
21.87580895423889,11.5,-3.9,0.79,12.16
21.90500783920288,7.44,0.07,-3.1,8.06
21.906190872192383,2.61,1.54,-5.12,5.94
21.90701389312744,-0.49,3.36,-2.5,4.21
21.926930904388428,-2.4,3.28,0.59,4.1
21.927960872650146,-1.76,1.08,2.43,3.18
21.943521976470947,1.33,-1.04,1.33,2.14
21.944522857666016,3.31,-1.3,-0.35,3.57
21.959917068481445,2.84,-0.76,-0.88,3.06
21.960963010787964,1.48,-0.39,-0.3,1.55
21.975881099700928,1.08,-0.32,-0.06,1.12
21.977357864379883,1.42,-0.35,-0.47,1.53
22.02326798439026,1.29,-0.1,-0.71,1.47
22.02440881729126,0.59,0.1,-0.49,0.77
22.025442123413086,0.08,0.17,0.09,0.2
22.04413414001465,-0.07,0.16,0.56,0.58
22.045179843902588,-0.13,0.19,0.42,0.47
22.059678077697754,-0.24,0.31,-0.14,0.41
22.06070613861084,-0.3,0.5,-0.53,0.78
22.07705783843994,-0.28,0.48,-0.64,0.84
22.078495979309082,-0.24,0.24,-0.49,0.59
22.092358112335205,-0.23,0.03,-0.29,0.37
22.12264108657837,-0.35,-0.04,-0.09,0.36
22.12395715713501,-0.51,0.05,-0.07,0.51
22.124939918518066,-0.57,0.16,-0.15,0.61
22.143929958343506,-0.44,0.25,-0.21,0.54
22.14496088027954,-0.16,0.2,-0.1,0.27
22.159724950790405,0.12,0.11,0.13,0.2
22.160747051239014,0.22,0.0,0.3,0.37
22.176753997802734,0.18,0.07,0.44,0.48
22.177764892578125,0.06,0.25,0.37,0.45
22.192343950271606,-0.1,0.39,0.21,0.45
22.220016956329346,-0.25,0.43,0.06,0.5
22.221204042434692,-0.49,0.48,0.06,0.68
22.22194504737854,-0.93,0.68,0.18,1.16
22.2238609790802,-1.51,0.89,0.04,1.75
22.225192070007324,-2.29,1.2,-0.14,2.58
22.226320028305054,-2.95,1.82,-0.13,3.46
22.227497100830078,-3.03,2.16,-0.26,3.73
22.228672981262207,-2.53,2.17,-0.56,3.37
22.235419034957886,-1.91,2.14,-0.58,2.92
22.245484828948975,-1.86,2.24,-0.53,2.95
22.27035403251648,-2.53,2.55,-0.5,3.62
22.27140712738037,-3.04,3.05,-0.49,4.33
22.27498197555542,-3.23,3.5,-0.26,4.76
22.292078971862793,-3.33,3.75,-0.13,5.01
22.294826984405518,-3.6,3.84,0.06,5.26
22.309836864471436,-4.13,3.98,0.3,5.74
22.314779043197632,-4.8,4.53,0.73,6.64
22.326765060424805,-5.69,5.67,1.04,8.09
22.334764003753662,-6.77,7.66,1.07,10.27
22.344449996948242,-8.12,9.98,0.25,12.86
22.378861904144287,-9.66,11.23,-1.51,14.88
22.37998390197754,-10.84,11.62,-2.67,16.11
22.380847930908203,-11.55,11.24,-3.56,16.5
22.394881010055542,-12.25,10.96,-3.71,16.85
22.395923137664795,-11.99,12.57,-4.12,17.85
22.404415130615234,-8.71,14.4,-5.81,17.8
22.414103984832764,-2.88,13.77,-9.18,16.79
22.42410397529602,1.86,11.9,-7.92,14.41
22.434349060058594,3.29,9.09,-3.79,10.38
22.444039821624756,0.07,4.7,-1.66,4.98
22.480907917022705,-2.73,-0.49,-1.53,3.16
22.481943130493164,1.09,0.24,-1.09,1.56
22.482758045196533,6.18,-1.3,1.88,6.58
22.4945809841156,3.78,-2.05,-0.43,4.32
22.495616912841797,-3.06,0.83,-1.69,3.59
22.510076999664307,-7.64,1.89,0.45,7.88
22.513190984725952,-9.73,1.2,-0.44,9.81
22.526803970336914,-11.14,0.22,-1.27,11.21
22.533303022384644,-11.05,-1.06,-0.55,11.11
22.543230056762695,-8.39,-2.43,0.83,8.77
22.579928874969482,-4.77,-4.04,1.9,6.53
22.58098602294922,-2.79,-5.02,2.29,6.18
22.581835985183716,-2.66,-4.87,2.57,6.11
22.593729972839355,-2.83,-4.71,1.45,5.68
22.594804048538208,-2.99,-4.43,0.57,5.37
22.61121892929077,-3.19,-4.09,-0.07,5.18
22.61243486404419,-3.15,-4.15,-0.69,5.25
22.62698984146118,-2.91,-4.34,-0.98,5.31
22.63234806060791,-2.66,-4.67,-0.85,5.44
22.64254593849182,-2.65,-5.15,-0.56,5.81
22.679155826568604,-2.88,-5.79,-0.03,6.46
22.680434942245483,-3.3,-6.52,0.61,7.33
22.681354999542236,-3.53,-7.2,1.19,8.1
22.69422483444214,-3.46,-7.88,1.54,8.74
22.695309162139893,-3.28,-8.46,1.67,9.22
22.710449934005737,-3.22,-8.51,1.83,9.28
22.711656093597412,-3.19,-7.8,2.33,8.74
22.7276029586792,-3.04,-7.04,2.53,8.07
22.73160982131958,-2.04,-6.41,2.08,7.04
22.74204993247986,0.51,-5.73,1.54,5.95
22.751853942871094,3.42,-5.04,0.95,6.16
22.783457040786743,5.8,-3.95,0.6,7.04
22.78463888168335,7.93,-2.54,0.08,8.32
22.785879135131836,10.13,-0.91,-0.62,10.18
22.791046142578125,11.98,1.34,-1.02,12.09
22.801259994506836,13.41,3.67,-1.24,13.95
22.811105966567993,14.87,5.21,-1.71,15.84
22.821079969406128,16.85,6.03,-1.52,17.96
22.830831050872803,18.62,6.21,-1.03,19.65
22.84113597869873,19.21,6.14,-0.65,20.17
22.851027011871338,18.51,5.92,-0.74,19.44
22.884647846221924,17.22,5.11,-1.14,17.99
22.885918140411377,15.95,4.39,-1.08,16.57
22.886759042739868,13.03,8.23,0.01,15.41
22.890625953674316,3.64,5.45,0.86,6.6
22.910333156585693,-8.45,2.22,-0.61,8.75
22.91142511367798,-15.81,16.76,-5.17,23.61
22.92696714401245,-17.42,33.81,4.37,38.28
22.930187940597534,-16.63,23.2,0.65,28.55
22.942831993103027,-7.64,6.5,-8.87,13.39
22.95014190673828,3.09,0.99,-4.4,5.46
22.986008167266846,7.99,-5.71,2.7,10.18
22.98716902732849,10.76,-10.03,4.6,15.41
22.98832893371582,11.73,-11.29,2.73,16.5
22.990004062652588,11.45,-7.77,1.84,13.95
22.999706029891968,9.18,-1.82,1.63,9.49
23.00956916809082,4.16,0.91,-2.51,4.94
23.019556999206543,0.66,1.81,-4.12,4.54
23.029603958129883,-0.86,2.85,-3.43,4.54
23.039544105529785,-1.7,2.48,-0.98,3.16
23.04911708831787,-0.68,0.52,2.09,2.25
23.082196950912476,1.31,-1.32,2.59,3.18
23.083457946777344,2.29,-1.81,1.07,3.1
23.084261894226074,1.87,-0.93,-0.33,2.11
23.093721866607666,1.07,0.1,-0.38,1.13
23.098850965499878,0.66,0.32,-0.01,0.73
23.1094651222229,0.66,0.07,0.04,0.66
23.118979930877686,0.57,0.01,-0.34,0.66
23.128615856170654,0.2,0.15,-0.94,0.97
23.1387939453125,-0.04,0.42,-1.11,1.18
23.148530960083008,-0.2,0.44,-0.97,1.08
23.18731689453125,-0.25,0.23,-0.46,0.57
23.18850302696228,-0.31,0.04,0.18,0.36
23.189281940460205,-0.39,-0.04,0.45,0.59
23.191787004470825,-0.31,0.1,0.47,0.57
23.198251008987427,-0.31,0.25,0.08,0.4
23.208313941955566,-0.37,0.36,-0.39,0.64
23.21822214126587,-0.44,0.42,-0.55,0.82
23.22810196876526,-0.5,0.45,-0.32,0.74
23.23786211013794,-0.57,0.46,-0.06,0.73
23.247891902923584,-0.65,0.5,0.14,0.83
23.2870090007782,-0.72,0.62,0.3,0.99
23.28840208053589,-0.68,0.76,0.25,1.05
23.289350032806396,-0.52,0.76,0.08,0.92
23.291458129882812,-0.31,0.63,-0.02,0.7
23.29742193222046,-0.45,0.54,0.22,0.73
23.307499885559082,-1.07,0.67,0.64,1.41
23.317512035369873,-2.02,0.96,0.75,2.35
23.327417850494385,-2.65,1.29,0.55,2.99
23.337221145629883,-2.69,1.69,0.14,3.17
23.347321033477783,-2.22,1.86,-0.48,2.93
23.385254859924316,-1.65,1.98,-0.87,2.72
23.386548042297363,-1.37,2.2,-1.01,2.78
23.387325048446655,-1.62,2.51,-0.99,3.14
23.390475034713745,-2.21,2.9,-0.87,3.74
23.41057586669922,-2.83,3.38,-0.57,4.44
23.411570072174072,-3.41,3.82,-0.26,5.12
23.41644597053528,-3.91,4.09,-0.06,5.65
23.426493167877197,-4.25,4.44,0.07,6.14
23.43649911880493,-4.64,4.98,0.28,6.81
23.446651935577393,-5.51,5.62,0.31,7.87
23.483766078948975,-6.8,6.35,0.5,9.31
23.48511791229248,-8.0,7.59,0.61,11.04
23.486011028289795,-8.74,9.64,0.36,13.01
23.492732048034668,-9.38,11.7,-1.58,15.07
23.49571990966797,-10.35,12.01,-5.09,16.65
23.50902795791626,-11.2,12.08,-6.66,17.76
23.515799045562744,-12.3,13.82,-7.09,19.81
23.52574896812439,-11.53,17.57,-6.59,22.02
23.53558897972107,-6.94,18.64,-7.6,21.29
23.545538902282715,-1.54,14.97,-10.24,18.2
23.555749893188477,2.3,11.93,-7.76,14.41
23.58646297454834,2.13,7.63,-4.04,8.89
23.58759593963623,-0.44,0.21,-2.23,2.28
23.588567972183228,1.57,-0.19,-0.31,1.61
23.59495997428894,7.49,-1.2,3.75,8.46
23.605087995529175,7.58,-3.76,2.79,8.9
23.615367889404297,0.81,-0.42,-1.73,1.95
23.625266075134277,-7.03,1.72,0.42,7.24
23.635043144226074,-11.2,1.69,1.92,11.48
23.644914150238037,-13.49,0.77,1.66,13.61
23.65502405166626,-14.78,-0.78,1.59,14.88
23.68755602836609,-13.86,-2.82,1.92,14.27
23.68883204460144,-9.41,-4.5,3.36,10.95
23.689626932144165,-4.46,-5.34,2.79,7.49
23.711449146270752,-3.0,-4.56,1.9,5.77
23.712466955184937,-3.96,-3.96,1.99,5.94
23.72607183456421,-4.56,-4.98,1.22,6.86
23.727093935012817,-4.11,-5.72,0.23,7.04
23.745009899139404,-3.98,-5.87,-0.62,7.11
23.74648094177246,-4.18,-5.89,-1.1,7.3
23.759818077087402,-4.38,-5.78,-1.12,7.33
23.788586139678955,-4.39,-5.92,-1.03,7.44
23.790004014968872,-4.24,-6.38,-0.86,7.7
23.79087781906128,-4.06,-6.79,-0.64,7.93
23.81164002418518,-3.68,-7.36,-0.37,8.23
23.812737941741943,-3.28,-7.97,0.14,8.61
23.827157974243164,-2.8,-8.73,0.57,9.18
23.828161001205444,-2.02,-9.61,0.79,9.85
23.844578981399536,-0.81,-10.04,0.84,10.1
23.846086025238037,0.59,-9.56,1.25,9.65
23.859812021255493,2.19,-8.5,1.44,8.89
23.889206886291504,3.96,-7.09,0.7,8.15
23.890514850616455,6.12,-5.65,0.26,8.33
23.891517162322998,8.38,-3.61,0.24,9.12
23.911255836486816,10.66,-0.53,0.47,10.68
23.912358045578003,13.19,3.13,0.69,13.57
23.927504062652588,15.75,6.28,0.42,16.96
23.928550958633423,18.4,8.83,0.02,20.4
23.94413185119629,20.89,10.91,0.15,23.56
23.945188999176025,22.55,11.61,0.39,25.36
23.959474086761475,23.06,10.15,0.14,25.19
23.987462997436523,20.78,12.14,-1.08,24.09
23.988723039627075,15.13,15.13,-3.05,21.61
23.98951482772827,4.78,4.21,-7.26,9.65
23.992074966430664,-9.76,13.89,-0.67,16.98
24.002119064331055,-16.14,36.42,6.2,40.31
24.012804985046387,-16.0,28.58,4.34,33.04
24.021957874298096,-9.65,4.65,-7.24,12.92
24.03218412399292,0.53,-1.38,-3.72,4.0
24.041921138763428,5.87,-7.12,5.37,10.67
24.051849842071533,9.56,-12.01,6.58,16.7
24.088464975357056,11.57,-12.17,2.44,16.96
24.08971881866455,11.61,-7.74,1.13,13.99
24.090569019317627,9.44,-0.57,0.54,9.47
24.11155891418457,4.41,2.1,-2.97,5.71
24.112591981887817,0.81,1.81,-4.37,4.79
24.127630949020386,-0.92,2.61,-3.83,4.72
24.128690004348755,-2.15,2.82,-1.24,3.75
24.14469003677368,-1.03,1.14,1.73,2.31
24.146180152893066,1.59,-1.06,1.63,2.51
24.160122871398926,2.85,-1.69,0.2,3.31
24.18913698196411,2.11,-1.0,-0.15,2.33
24.190531015396118,0.67,-0.29,0.2,0.75
24.191341876983643,0.16,-0.06,0.25,0.3
24.21121096611023,0.59,-0.01,-0.1,0.59
24.212265968322754,0.98,0.08,-0.39,1.05
24.228014945983887,0.82,0.13,-0.38,0.91
24.229038953781128,0.54,0.08,-0.24,0.59
24.24446702003479,0.35,-0.07,-0.37,0.51
24.245523929595947,0.3,-0.09,-0.4,0.5
24.260077953338623,0.29,-0.04,-0.24,0.37
24.288454055786133,0.32,-0.02,0.07,0.32
24.289621829986572,0.23,-0.01,0.31,0.38
24.290403842926025,-0.01,0.07,0.24,0.25
24.311537981033325,-0.19,0.14,-0.03,0.23
24.31254482269287,-0.25,0.17,-0.1,0.31
24.32638692855835,-0.23,0.16,-0.19,0.33
24.32742404937744,-0.17,0.12,-0.28,0.34
24.344613075256348,-0.18,0.19,-0.26,0.36
24.34562110900879,-0.31,0.28,-0.08,0.42
24.36019515991211,-0.51,0.38,0.16,0.65
24.36166000366211,-0.73,0.49,0.29,0.92
24.405942916870117,-1.02,0.55,0.32,1.2
24.407119035720825,-1.21,0.57,0.28,1.36
24.408143043518066,-1.32,0.46,0.05,1.39
24.42833709716797,-1.42,0.53,-0.24,1.53
24.42936611175537,-1.41,0.74,-0.36,1.63
24.44395399093628,-1.3,0.97,-0.43,1.67
24.444972038269043,-1.21,1.05,-0.43,1.65
24.46104097366333,-1.32,1.12,-0.18,1.74
24.462527990341187,-1.6,1.2,-0.04,2.0
24.476886987686157,-1.85,1.49,-0.04,2.37
24.50496816635132,-1.9,1.95,0.09,2.72
24.506260871887207,-1.73,2.73,0.45,3.26
24.507352828979492,-1.5,2.69,0.53,3.12
24.52863597869873,-1.82,2.55,1.0,3.28
24.529644012451172,-2.31,2.62,0.84,3.59
24.544590950012207,-2.54,2.79,0.31,3.78
24.545587062835693,-2.42,3.1,-0.43,3.95
24.56084704399109,-2.33,3.21,-0.91,4.06
24.56218695640564,-2.49,3.33,-0.72,4.21
24.577975034713745,-2.92,3.51,-0.29,4.57
24.606069087982178,-3.55,4.15,0.37,5.47
24.607290029525757,-4.67,5.55,1.1,7.33
24.608301162719727,-6.28,7.68,1.62,10.05
24.627979040145874,-7.94,9.72,0.96,12.58
24.629009008407593,-9.26,10.43,-0.5,13.95
24.644596099853516,-10.08,10.23,-1.11,14.4
24.645645141601562,-11.03,9.95,-1.45,14.92
24.66095995903015,-12.65,10.44,-1.29,16.45
24.662019968032837,-13.34,12.14,-1.58,18.1
24.674601078033447,-10.97,13.46,-5.09,18.09
24.70139503479004,-4.14,13.49,-10.72,17.72
24.70253610610962,1.98,13.11,-10.18,16.71
24.703397035598755,3.61,10.62,-4.83,12.21
24.707315921783447,-0.17,6.25,-1.35,6.39
24.72775101661682,-3.67,0.75,-0.38,3.76
24.72881293296814,-0.85,-1.08,-2.43,2.79
24.7445330619812,6.87,1.52,-0.47,7.05
24.74561309814453,9.23,-0.24,1.87,9.42
24.760252952575684,3.51,1.26,-2.57,4.52
24.761263847351074,-3.98,2.73,-1.61,5.08
24.805174827575684,-8.23,2.32,-0.05,8.55
24.806300163269043,-10.47,1.14,-0.73,10.55
24.80732798576355,-12.31,-0.33,-1.36,12.38
24.82863187789917,-12.8,-2.07,-1.38,13.03
24.829689025878906,-10.64,-3.23,-0.04,11.11
24.84417486190796,-6.31,-4.4,1.89,7.92
24.845212936401367,-3.17,-5.68,2.96,7.14
24.861618995666504,-2.09,-6.37,2.74,7.24
24.863100051879883,-2.49,-5.84,1.88,6.62
24.8771071434021,-3.81,-5.14,1.04,6.48
24.9059579372406,-4.79,-5.08,0.03,6.98
24.90732502937317,-5.04,-4.96,-0.95,7.13
24.90829086303711,-4.85,-4.98,-1.75,7.16
24.924437046051025,-4.53,-5.01,-2.06,7.06
24.925435066223145,-4.08,-5.22,-2.04,6.93
24.943071842193604,-3.85,-5.83,-1.71,7.19
24.94430685043335,-3.65,-6.53,-1.14,7.56
24.96175193786621,-3.4,-7.38,-0.63,8.14
24.963228940963745,-3.19,-8.29,-0.25,8.88
24.977170944213867,-3.13,-9.01,-0.02,9.53
25.00760793685913,-3.08,-9.37,0.38,9.87
25.008875846862793,-2.71,-9.07,0.86,9.5
25.00990915298462,-1.62,-8.27,1.27,8.52
25.028622150421143,0.31,-7.39,1.08,7.47
25.029693126678467,2.42,-6.33,0.29,6.78
25.04474401473999,4.52,-5.02,-0.09,6.75
25.04576802253723,6.86,-3.21,-0.01,7.57
25.06167697906494,9.96,-0.91,0.34,10.0
25.06318497657776,13.21,1.71,0.98,13.35
25.077147006988525,15.84,4.14,1.51,16.44
25.10626196861267,17.57,6.21,1.48,18.69
25.107717990875244,18.43,8.38,1.36,20.29
25.108799934387207,18.62,10.95,1.14,21.63
25.125962018966675,18.76,13.37,0.57,23.04
25.127047061920166,19.02,14.06,-1.7,23.71
25.14474105834961,18.52,15.79,-3.47,24.58
25.1457839012146,13.73,7.02,-9.68,18.2
25.16156816482544,-1.88,3.27,-5.38,6.57
25.16305685043335,-13.35,22.28,3.74,26.24
25.177504062652588,-14.46,33.99,10.69,38.45
25.179034948349,-11.82,14.71,2.26,19.0
25.225881099700928,-3.44,-1.82,-3.06,4.95
25.227059841156006,5.14,-4.41,1.32,6.9
25.228080987930298,9.76,-8.35,4.66,13.66
25.24564504623413,11.44,-10.18,2.4,15.5
25.246718883514404,11.48,-7.14,-0.3,13.52
25.261535167694092,9.38,-1.32,-0.31,9.47
25.262997150421143,5.19,1.83,-1.56,5.72
25.278372049331665,1.87,1.5,-3.42,4.17
25.279808044433594,-0.09,1.77,-4.57,4.9
25.293828010559082,-1.47,2.61,-3.56,4.65
25.325809955596924,-1.49,1.91,-0.05,2.42
25.32708501815796,0.38,-0.29,2.53,2.57
25.32811403274536,1.76,-2.16,2.94,4.05
25.34602689743042,1.49,-2.32,1.77,3.27
25.347076892852783,0.67,-0.72,-0.02,0.98
25.361366033554077,0.5,0.84,-0.86,1.3
25.36237382888794,0.78,1.02,-0.42,1.35
25.37914514541626,0.9,0.04,0.14,0.91
25.38055396080017,0.78,-0.77,-0.17,1.1
25.394073009490967,0.73,-0.57,-0.99,1.35
25.42421793937683,0.75,-0.02,-1.09,1.32
25.425493955612183,0.64,0.23,-0.47,0.82
25.426419019699097,0.32,0.14,0.27,0.44
25.445528030395508,-0.08,0.17,1.1,1.11
25.446581840515137,-0.39,0.15,1.12,1.19
25.461354970932007,-0.53,0.12,0.29,0.61
25.4623761177063,-0.54,0.25,-0.51,0.78
25.478384971618652,-0.51,0.44,-0.84,1.07
25.479423999786377,-0.78,0.6,-0.85,1.3
25.492609977722168,-1.15,0.62,-0.71,1.48
25.521031856536865,-1.24,0.58,-0.33,1.4
25.52218008041382,-0.91,0.38,0.05,0.98
25.522982120513916,-0.6,0.2,0.52,0.81
25.525301933288574,-0.64,0.12,0.74,0.98
25.52645993232727,-1.05,0.12,0.55,1.19
25.52748394012451,-1.33,0.2,0.12,1.35
25.53036904335022,-1.17,0.34,-0.3,1.25
25.54077911376953,-0.75,0.56,-0.66,1.14
25.550637006759644,-0.34,0.67,-0.85,1.13
25.560728073120117,-0.22,0.6,-0.58,0.86
25.592968940734863,-0.36,0.53,-0.23,0.68
25.59393000602722,-0.82,0.63,0.02,1.03
25.5947208404541,-1.33,0.93,0.14,1.62
25.60890007019043,-1.89,1.42,-0.01,2.36
25.60979700088501,-2.11,1.91,-0.12,2.84
25.626688957214355,-2.27,2.53,-0.25,3.4
25.62964701652527,-2.12,3.3,-0.17,3.92
25.64332604408264,-1.97,3.74,0.04,4.22
25.6496160030365,-2.13,4.05,0.62,4.61
25.66004991531372,-2.68,4.21,0.63,5.03
25.695317029953003,-3.29,4.34,0.48,5.46
25.69642400741577,-3.76,4.54,0.46,5.91
25.69724988937378,-4.05,4.74,0.33,6.24
25.712219953536987,-4.42,5.44,0.51,7.02
25.713158130645752,-5.26,7.03,1.02,8.83
25.728289127349854,-6.87,8.9,1.1,11.29
25.72931694984436,-8.97,10.43,0.47,13.76
25.744990825653076,-10.77,11.38,-0.4,15.67
25.748841047286987,-11.79,11.82,-1.13,16.73
25.758881092071533,-12.3,12.0,-1.36,17.23
25.795240879058838,-13.24,12.82,-1.98,18.53
25.79637598991394,-13.61,14.18,-1.56,19.71
25.79719591140747,-9.82,14.26,-3.72,17.7
25.81223201751709,-2.18,13.45,-8.46,16.03
25.81330704689026,3.6,11.02,-6.95,13.51
25.828227996826172,4.16,7.68,-2.54,9.09
25.82928204536438,-1.21,2.67,-0.91,3.06
25.84503984451294,-2.88,-0.13,0.19,2.88
25.848099946975708,4.11,0.79,1.37,4.4
25.860599994659424,8.97,-3.23,2.04,9.74
25.89700984954834,5.36,-1.93,-2.32,6.15
25.898097038269043,-1.4,1.47,-1.9,2.78
25.898940086364746,-5.61,1.21,-0.82,5.79
25.91246509552002,-7.79,-0.02,-1.52,7.93
25.913525104522705,-9.37,-1.21,-1.4,9.55
25.927963972091675,-10.07,-2.41,-0.97,10.39
25.928956031799316,-9.15,-3.1,0.29,9.66
25.94539999961853,-7.44,-3.51,1.39,8.34
25.9472918510437,-5.74,-4.37,2.14,7.52
25.960670948028564,-4.6,-5.31,2.69,7.52
25.967725038528442,-4.21,-5.6,2.73,7.51
26.00653886795044,-4.33,-5.42,2.05,7.23
26.007750988006592,-4.38,-5.43,0.76,7.01
26.008790016174316,-4.53,-4.92,0.08,6.68
26.028854846954346,-4.47,-4.95,-0.63,6.69
26.029875993728638,-4.23,-5.09,-1.07,6.7
26.04494285583496,-4.1,-5.13,-1.04,6.64
26.04602289199829,-4.04,-5.45,-0.81,6.83
26.062055110931396,-4.08,-5.97,-0.51,7.24
26.063530921936035,-4.09,-6.57,-0.25,7.74
26.07753086090088,-3.98,-6.99,0.1,8.04
26.10618495941162,-3.74,-7.41,0.56,8.31
26.107537031173706,-3.51,-7.88,0.82,8.66
26.108346939086914,-3.33,-8.33,1.08,9.03
26.129199028015137,-3.1,-8.28,1.49,8.96
26.130223035812378,-2.52,-7.7,1.86,8.31
26.145328044891357,-1.21,-6.7,2.02,7.1
26.14636993408203,0.8,-5.44,1.45,5.68
26.161813020706177,3.07,-3.87,0.3,4.94
26.16327404975891,5.78,-1.95,-0.94,6.17
26.176766872406006,9.09,0.23,-2.37,9.39
26.20553493499756,12.69,2.64,-3.43,13.4
26.206856966018677,15.79,4.91,-4.4,17.11
26.20767307281494,18.43,6.43,-4.65,20.06
26.22929286956787,20.71,7.2,-4.0,22.28
26.230361938476562,22.97,7.43,-3.3,24.36
26.242187023162842,24.76,6.75,-3.12,25.85
26.24325203895569,25.16,5.65,-3.54,26.02
26.26192283630371,22.21,5.7,-2.88,23.1
26.262933015823364,14.14,12.65,1.0,18.99
26.2774658203125,4.14,6.74,1.72,8.09
26.306529998779297,-8.97,6.22,2.19,11.13
26.307719945907593,-15.53,20.6,-1.0,25.81
26.30851984024048,-17.26,28.6,7.39,34.21
26.328974962234497,-14.34,15.66,-0.75,21.24
26.330016136169434,-3.87,3.02,-10.89,11.94
26.345191955566406,2.43,-5.63,-2.87,6.77
26.346232891082764,8.31,-8.2,3.67,12.23
26.362035989761353,12.26,-9.69,4.38,16.22
26.36349105834961,13.82,-8.54,5.37,17.11
26.377887964248657,11.51,-4.06,3.74,12.76
26.408648014068604,5.21,-1.21,-0.71,5.39
26.41003394126892,1.24,0.75,-3.85,4.11
26.411054134368896,-0.28,2.82,-4.27,5.12
26.429161071777344,-1.76,3.7,-2.34,4.71
26.43016004562378,-1.52,1.92,0.61,2.52
26.44513201713562,0.33,-0.67,1.78,1.93
26.446184158325195,1.68,-1.71,1.07,2.62
26.461918830871582,1.65,-1.21,0.14,2.05
26.463153839111328,0.71,-0.09,-0.57,0.91
26.477993965148926,0.29,0.46,-0.96,1.1
26.508249044418335,0.55,0.38,-0.91,1.12
26.509647846221924,0.74,0.05,-0.5,0.89
26.510637044906616,0.59,-0.09,-0.21,0.63
26.529210090637207,0.21,-0.14,-0.07,0.26
26.530179977416992,-0.22,-0.06,0.05,0.23
26.546656131744385,-0.51,0.03,-0.03,0.51
26.547659873962402,-0.63,0.31,0.31,0.76
26.56249499320984,-0.47,0.39,0.46,0.76
26.563796043395996,-0.11,0.3,0.13,0.34
26.578081130981445,0.13,0.17,-0.25,0.32
26.60914707183838,0.05,0.09,-0.32,0.33
26.610403060913086,-0.28,0.11,-0.06,0.3
26.611212015151978,-0.65,0.2,-0.05,0.68
26.62933111190796,-0.86,0.38,-0.13,0.94
26.630373001098633,-0.77,0.59,0.06,0.97
26.64538598060608,-0.52,0.59,0.19,0.8
26.646338939666748,-0.29,0.48,0.42,0.7
26.661785125732422,-0.28,0.4,0.72,0.86
26.663177013397217,-0.5,0.21,0.58,0.79
26.678009033203125,-0.7,-0.01,0.1,0.7
26.707655906677246,-0.79,0.02,-0.35,0.86
26.709022998809814,-0.83,0.46,-0.58,1.11
26.710008144378662,-0.97,0.93,-0.74,1.53
26.729280948638916,-1.34,1.5,-0.57,2.09
26.730303049087524,-1.5,1.69,-0.23,2.27
26.74539804458618,-1.72,1.7,0.27,2.43
26.74641990661621,-2.05,1.95,0.57,2.88
26.76173210144043,-2.01,2.01,0.43,2.87
26.76277494430542,-1.78,1.96,0.23,2.65
26.777817010879517,-1.48,1.89,-0.04,2.4
26.779296875,-1.42,1.97,-0.16,2.43
26.82309103012085,-1.68,2.21,-0.06,2.77
26.824235916137695,-2.17,2.54,0.29,3.35
26.825237035751343,-2.75,2.91,0.69,4.06
26.846380949020386,-3.35,3.43,0.93,4.88
26.84744095802307,-3.9,4.2,1.05,5.82
26.861888885498047,-4.35,4.85,1.01,6.59
26.86293888092041,-4.77,5.82,1.37,7.64
26.879317045211792,-5.58,7.53,1.72,9.52
26.88080883026123,-6.87,9.15,1.24,11.5
26.894614934921265,-8.37,10.5,0.32,13.43
26.925373077392578,-9.84,11.75,0.29,15.32
26.926674842834473,-11.27,12.55,0.63,16.87
26.927644968032837,-12.93,13.14,0.59,18.44
26.94354486465454,-13.76,15.16,0.02,20.47
26.944674015045166,-10.4,15.8,-4.18,19.37
26.96181297302246,-1.92,13.89,-11.13,17.9
26.962830066680908,4.45,14.24,-7.26,16.59
26.97902202606201,4.81,11.18,-1.09,12.21
26.980238914489746,0.52,5.55,-0.45,5.59
26.994532108306885,-2.37,1.08,-0.13,2.6
27.024544954299927,2.7,3.24,-0.49,4.24
27.025784969329834,9.09,2.1,1.83,9.5
27.02676796913147,7.62,1.83,-1.05,7.9
27.046144008636475,-0.04,4.72,-3.78,6.04
27.047204971313477,-5.87,4.71,-1.69,7.71
27.061882972717285,-8.9,2.52,-2.1,9.48
27.062932014465332,-11.44,0.59,-2.52,11.72
27.079426050186157,-12.62,-1.42,-1.24,12.76
27.080907821655273,-11.85,-3.69,0.34,12.41
27.094808101654053,-9.35,-5.4,2.39,11.05
27.124478816986084,-6.93,-6.93,3.83,10.52
27.125859022140503,-5.93,-7.05,4.01,10.04
27.12688112258911,-6.21,-5.86,3.63,9.27
27.146120071411133,-6.65,-5.48,1.76,8.79
27.14714813232422,-7.21,-5.64,0.65,9.17
27.162057876586914,-7.5,-5.73,0.21,9.44
27.163107872009277,-7.67,-5.68,0.25,9.54
27.179388999938965,-7.41,-5.97,-0.18,9.51
27.18080997467041,-6.45,-6.36,-0.61,9.07
27.19508194923401,-5.67,-6.6,-0.55,8.71
27.22475504875183,-5.16,-7.12,-0.38,8.8
27.226067066192627,-4.69,-7.68,-0.31,9.0
27.227113962173462,-4.07,-8.15,-0.27,9.11
27.2460298538208,-3.37,-8.62,-0.23,9.25
27.247078895568848,-2.79,-9.08,-0.18,9.5
27.261927127838135,-2.38,-9.43,0.14,9.72
27.262989044189453,-2.1,-9.29,0.53,9.53
27.278791904449463,-1.6,-8.55,0.87,8.74
27.280223846435547,-0.57,-7.17,1.2,7.29
27.294886112213135,1.24,-5.4,0.59,5.57
27.32615900039673,3.42,-3.34,-0.09,4.78
27.32744789123535,5.94,-0.18,-0.34,5.95
27.328460931777954,9.59,3.89,-0.76,10.37
27.346529960632324,13.84,8.02,-1.14,16.03
27.3475661277771,17.26,11.75,-1.52,20.93
27.359473943710327,20.27,14.6,-0.71,24.99
27.360558032989502,22.49,14.4,-0.4,26.7
27.37927794456482,23.1,11.39,-0.93,25.77
27.380351066589355,20.43,15.31,-0.65,25.53
27.394933938980103,17.4,15.25,-4.14,23.5
27.426661014556885,14.7,2.54,-13.82,20.33
27.427998065948486,1.17,3.06,-7.66,8.33
27.42900800704956,-9.95,24.02,3.54,26.23
27.446584939956665,-9.3,32.13,6.12,34.0
27.447603940963745,-3.88,8.95,-0.91,9.79
27.46212911605835,4.63,-0.78,-3.02,5.58
27.463147163391113,8.56,-7.82,1.46,11.68
27.479257106781006,10.87,-10.75,1.96,15.41
27.480710983276367,11.01,-6.96,1.3,13.09
27.49494981765747,7.24,-0.99,0.89,7.36
27.526286125183105,3.51,1.45,-0.49,3.82
27.527751922607422,1.09,1.03,-2.6,3.0
27.52876091003418,-0.62,0.76,-2.93,3.08
27.547013998031616,-1.61,0.99,-1.37,2.33
27.547991037368774,-1.02,0.84,0.36,1.36
27.561110973358154,0.91,0.08,0.4,0.99
27.562116146087646,2.05,-0.39,-0.28,2.1
27.577064990997314,1.65,-0.42,-0.43,1.75
27.578480005264282,1.09,-0.23,0.17,1.12
27.59509515762329,0.94,-0.34,0.43,1.08
27.59657907485962,0.87,-0.52,0.1,1.01
27.643038988113403,0.67,-0.29,-0.27,0.77
27.64427399635315,0.36,0.15,-0.49,0.62
27.64530611038208,0.18,0.27,-0.63,0.7
27.663086891174316,0.17,0.19,-0.69,0.73
27.66413402557373,0.2,0.13,-0.56,0.6
27.679232120513916,0.11,0.12,-0.21,0.26
27.680263996124268,-0.1,0.03,-0.01,0.1
27.696260929107666,-0.48,-0.02,0.06,0.48
27.697760105133057,-0.82,0.11,-0.12,0.83
27.711691856384277,-0.76,0.27,-0.31,0.86
27.743122100830078,-0.5,0.32,-0.48,0.76
27.744490146636963,-0.39,0.3,-0.31,0.58
27.745500087738037,-0.61,0.32,0.06,0.69
27.763142108917236,-1.0,0.4,0.38,1.14
27.764182090759277,-1.2,0.39,0.43,1.33
27.779165029525757,-1.09,0.41,0.24,1.18
27.780189037322998,-0.73,0.47,0.08,0.87
27.79636001586914,-0.33,0.36,-0.01,0.48
27.797827005386353,-0.03,0.12,0.02,0.12
27.81180191040039,0.02,0.02,0.21,0.21
27.84233593940735,-0.21,0.26,0.22,0.4
27.843498945236206,-0.55,0.68,-0.03,0.87
27.84437608718872,-0.93,1.09,-0.11,1.43
27.86311912536621,-1.32,1.38,-0.05,1.91
27.864154815673828,-1.79,1.39,0.3,2.28
27.87934684753418,-2.25,1.57,0.77,2.84
27.880329132080078,-2.5,1.57,0.41,2.98
27.89551591873169,-2.45,1.89,0.17,3.09
27.89651894569397,-2.24,2.46,-0.32,3.34
27.91186285018921,-1.82,2.9,-0.36,3.44
27.941161155700684,-1.73,3.26,-0.29,3.7
27.94246196746826,-2.27,3.5,-0.16,4.17
27.943385124206543,-3.09,3.7,0.08,4.82
27.96290898323059,-3.64,4.03,0.3,5.43
27.963956832885742,-4.0,4.25,0.33,5.84
27.979392051696777,-4.39,4.63,0.58,6.4
27.980431079864502,-4.94,5.8,0.98,7.68
27.992845058441162,-6.04,7.9,1.12,10.0
27.993893146514893,-7.6,10.2,0.72,12.74
28.00939416885376,-9.21,12.09,-0.4,15.2
28.036219120025635,-10.46,12.77,-1.71,16.59
28.037353038787842,-11.46,12.34,-2.75,17.06
28.038236141204834,-12.86,12.46,-2.83,18.12
28.042086124420166,-13.7,14.06,-2.85,19.83
28.062746047973633,-10.83,14.9,-5.5,19.22
28.063805103302002,-3.32,13.89,-10.05,17.46
28.07961893081665,2.58,12.01,-7.65,14.47
28.08067297935486,3.53,9.06,-1.38,9.82
28.09476399421692,-0.28,4.03,-0.08,4.04
28.095780849456787,-2.8,-1.03,-1.06,3.16
28.137585163116455,1.83,0.66,-1.11,2.23
28.138561964035034,7.33,-1.24,0.74,7.47
28.13960599899292,4.43,-1.64,-2.62,5.4
28.142355918884277,-2.87,1.07,-3.54,4.68
28.162392139434814,-7.55,1.12,-1.23,7.73
28.16343593597412,-9.94,-0.27,-1.47,10.05
28.179078102111816,-11.92,-1.49,-1.78,12.14
28.180115938186646,-12.74,-2.57,-1.06,13.03
28.194840908050537,-11.57,-3.49,0.15,12.08
28.195868015289307,-8.76,-4.12,1.45,9.78
28.23921012878418,-5.97,-4.82,1.96,7.91
28.240274906158447,-4.75,-5.01,1.62,7.09
28.241037845611572,-4.86,-4.59,1.09,6.77
28.243348121643066,-5.31,-4.35,0.44,6.87
28.244586944580078,-5.67,-4.26,-0.2,7.09
28.24576497077942,-5.52,-4.17,-0.84,6.96
28.246978998184204,-5.0,-3.98,-1.48,6.55
28.249918937683105,-4.36,-3.89,-1.89,6.14
28.26019811630249,-3.78,-4.08,-1.83,5.85
28.27005696296692,-3.32,-4.64,-1.5,5.89
28.30478596687317,-2.92,-5.36,-1.21,6.22
28.305963039398193,-2.58,-6.12,-1.06,6.72
28.306747913360596,-2.3,-6.8,-1.03,7.25
28.309403896331787,-2.11,-7.32,-0.79,7.65
28.329543113708496,-1.8,-7.64,-0.33,7.85
28.33058786392212,-0.82,-7.59,0.43,7.64
28.346105098724365,1.01,-7.49,0.72,7.59
28.349262952804565,3.01,-7.13,-0.15,7.74
28.36142897605896,5.01,-5.89,-0.59,7.75
28.369161128997803,7.25,-3.97,-0.49,8.28
28.37932300567627,10.06,-1.81,-0.1,10.22
28.411355018615723,13.11,0.48,0.44,13.12
28.41263198852539,15.67,2.79,0.04,15.91
28.413443088531494,18.03,5.33,-0.32,18.8
28.430073976516724,20.87,8.06,0.42,22.37
28.43117904663086,23.28,9.67,1.2,25.23
28.443197011947632,24.25,9.04,0.3,25.88
28.4484920501709,23.72,7.24,-0.63,24.8
28.459907054901123,21.94,5.41,-0.6,22.6
28.468510150909424,19.55,8.36,-2.34,21.39
28.478857040405273,10.06,4.16,-2.02,11.07
28.511363983154297,-6.31,-2.4,-2.85,7.32
28.512750148773193,-19.86,13.74,-8.44,25.58
28.51359796524048,-22.79,38.18,7.98,45.17
28.5298490524292,-22.06,30.77,5.4,38.24
28.53092098236084,-12.5,7.23,-3.99,14.98
28.54635190963745,-0.94,-3.47,1.39,3.85
28.547690868377686,6.7,-6.46,3.65,9.99
28.562726974487305,9.87,-10.82,4.07,15.2
28.56811809539795,11.24,-12.93,-0.41,17.13
28.578850984573364,13.15,-9.49,-2.13,16.35
28.61087703704834,13.74,-1.46,0.12,13.81
28.612183094024658,9.93,3.0,-3.8,11.04
28.61315393447876,4.0,2.8,-6.37,8.02
28.630046844482422,-0.31,2.9,-4.63,5.47
28.63112211227417,-2.81,2.89,0.24,4.03
28.646307945251465,-3.37,0.81,3.26,4.75
28.647356033325195,-1.34,-2.02,3.04,3.88
28.6627140045166,1.5,-2.34,1.84,3.33
28.666922092437744,2.42,-0.5,0.02,2.47
28.678918838500977,1.56,0.41,-0.77,1.78
28.709123134613037,0.65,0.41,-0.37,0.85
28.710229873657227,0.36,-0.03,0.29,0.46
28.711039066314697,0.47,-0.2,0.01,0.51
28.73021101951599,0.51,0.03,-0.72,0.88
28.731238842010498,0.41,0.2,-1.3,1.37
28.746639013290405,0.31,0.25,-1.2,1.26
28.747699975967407,0.11,0.19,-0.22,0.31
28.763103008270264,-0.18,-0.01,0.64,0.66
28.766093969345093,-0.49,-0.08,0.9,1.02
28.77896785736084,-0.45,0.1,0.38,0.59
28.814059019088745,-0.2,0.3,-0.32,0.48
28.815315008163452,-0.14,0.36,-0.63,0.73
28.81616997718811,-0.38,0.39,-0.54,0.76
28.830754041671753,-0.66,0.44,-0.28,0.84
28.831794023513794,-0.7,0.47,-0.12,0.85
28.84621810913086,-0.6,0.51,0.16,0.8
28.847240924835205,-0.42,0.43,0.35,0.69
28.863013982772827,-0.32,0.28,0.4,0.58
28.86539316177368,-0.39,0.15,0.28,0.5
28.878847122192383,-0.64,0.12,0.05,0.65
28.914057970046997,-0.76,0.16,-0.21,0.8
28.91534399986267,-0.67,0.29,-0.28,0.78
28.916358947753906,-0.5,0.5,-0.52,0.87
28.93058204650879,-0.61,0.76,-0.68,1.18
28.93162488937378,-0.95,1.25,-0.56,1.66
28.946227073669434,-1.34,1.56,-0.48,2.11
28.947237014770508,-1.6,1.94,0.13,2.51
28.963088035583496,-1.68,1.94,0.62,2.64
28.964542865753174,-1.8,1.64,0.93,2.6
28.97888994216919,-1.97,1.62,0.91,2.7
29.013226985931396,-2.01,1.78,0.38,2.71
29.01468300819397,-1.86,2.13,-0.19,2.83
29.0156888961792,-1.86,2.55,-0.31,3.17
29.030828952789307,-2.21,2.91,-0.13,3.65
29.0318341255188,-2.79,3.17,-0.01,4.22
29.046231031417847,-3.44,3.52,0.1,4.92
29.047275066375732,-4.03,4.09,0.33,5.75
29.0631160736084,-4.65,5.08,0.67,6.91
29.064548015594482,-5.61,6.58,0.88,8.69
29.079136848449707,-6.98,9.24,0.91,11.61
29.11319589614868,-8.5,11.91,-0.8,14.65
29.114545822143555,-9.69,13.13,-2.8,16.55
29.11555504798889,-10.15,13.72,-3.51,17.42
29.130609035491943,-10.44,13.44,-4.48,17.59
29.131638050079346,-11.45,13.66,-4.75,18.44
29.146727085113525,-11.75,14.78,-3.68,19.23
29.14780902862549,-7.77,15.02,-6.94,18.27
29.15998888015747,-0.55,14.65,-10.1,17.8
29.163048028945923,2.92,10.87,-6.33,12.91
29.179029941558838,1.1,6.8,-1.86,7.13
29.18331003189087,-2.95,1.29,-0.82,3.32
29.223227977752686,-1.34,-0.01,-0.82,1.57
29.224326133728027,5.4,-0.08,1.89,5.72
29.225142002105713,6.4,-3.69,1.34,7.5
29.226513862609863,-0.49,-1.69,-2.4,2.97
29.23251700401306,-6.62,-0.09,0.11,6.62
29.242718935012817,-9.43,-0.74,0.19,9.46
29.25285816192627,-11.08,-2.16,-0.61,11.3
29.26264190673828,-12.11,-3.7,-0.4,12.66
29.27242398262024,-11.9,-5.0,0.93,12.94
29.282432079315186,-9.85,-5.84,2.75,11.77
29.31520104408264,-7.29,-6.29,3.93,10.39
29.316390991210938,-6.32,-5.59,3.8,9.25
29.317198991775513,-5.82,-4.61,3.06,8.03
29.330950021743774,-5.44,-3.31,2.63,6.88
29.331979036331177,-5.11,-2.72,2.21,6.19
29.344871997833252,-4.69,-2.63,1.62,5.61
29.352013111114502,-4.03,-2.58,0.85,4.86
29.363093852996826,-3.15,-2.55,-0.04,4.05
29.37186598777771,-2.16,-2.67,-0.78,3.52
29.381860971450806,-1.36,-3.19,-1.23,3.67
29.414448022842407,-0.95,-3.81,-1.37,4.15
29.41560983657837,-0.84,-4.29,-1.16,4.52
29.416418075561523,-0.94,-4.81,-0.84,4.97
29.4306321144104,-1.19,-5.51,-0.35,5.64
29.43169093132019,-1.29,-6.28,0.37,6.42
29.446563005447388,-1.07,-6.95,1.16,7.12
29.450973987579346,-0.46,-7.26,1.96,7.53
29.46277403831482,0.9,-7.49,2.38,7.91
29.470993041992188,2.42,-7.39,2.3,8.1
29.48089599609375,3.79,-6.46,2.62,7.93
29.512964963912964,5.57,-5.39,2.75,8.22
29.514073848724365,7.65,-4.45,2.57,9.21
29.51490306854248,9.95,-3.28,2.49,10.76
29.531062126159668,12.22,-2.05,2.16,12.57
29.53205895423889,14.43,-0.74,2.27,14.62
29.546722888946533,16.21,0.86,1.91,16.34
29.55020499229431,17.44,2.94,1.31,17.73
29.563267946243286,18.6,5.65,1.39,19.48
29.570441007614136,19.97,8.81,1.03,21.85
29.580100059509277,21.65,10.98,-0.24,24.27
