time,ax,ay,az,atotal
0.002445220947265625,-0.13,-0.39,-2.24,2.27
0.00956106185913086,0.8,-0.73,-1.19,1.6
0.03524303436279297,0.5,-1.47,0.65,1.68
0.037368059158325195,0.17,-0.13,0.91,0.93
0.03900289535522461,-0.12,0.03,-0.05,0.13
0.048972129821777344,-0.22,0.36,-0.5,0.65
0.0591740608215332,-0.06,0.12,-0.14,0.19
0.06891822814941406,0.05,-0.17,0.3,0.34
0.07905912399291992,0.03,-0.17,0.33,0.37
0.08906221389770508,-0.05,0.01,0.09,0.1
0.09870195388793945,0.01,0.04,-0.1,0.1
0.1093740463256836,0.1,-0.02,-0.04,0.1
0.13643908500671387,0.09,-0.07,0.09,0.14
0.1379561424255371,0.01,-0.05,0.15,0.15
0.13892102241516113,-0.1,-0.02,0.12,0.15
0.1588749885559082,-0.1,0.02,0.09,0.13
0.16021490097045898,-0.03,0.02,0.05,0.06
0.1753239631652832,0.0,-0.01,0.01,0.01
0.17814302444458008,0.04,-0.02,0.0,0.04
0.19183802604675293,0.06,-0.02,0.04,0.07
0.19810009002685547,0.07,-0.05,0.05,0.09
0.21279621124267578,0.02,-0.05,0.1,0.11
0.2396249771118164,-0.02,-0.05,0.1,0.11
0.24158000946044922,-0.04,-0.04,0.06,0.08
0.24299192428588867,-0.04,0.0,0.05,0.06
0.24768805503845215,-0.03,0.02,0.12,0.12
0.2576789855957031,-0.03,0.01,0.2,0.2
0.2677879333496094,0.0,-0.04,0.16,0.16
0.27749204635620117,0.02,-0.04,0.01,0.04
0.28749895095825195,-0.08,0.01,-0.04,0.09
0.29717493057250977,-0.06,0.01,0.12,0.13
0.3078022003173828,0.08,-0.09,0.28,0.3
0.3457779884338379,0.1,-0.15,0.21,0.27
0.3474140167236328,0.02,-0.07,0.08,0.1
0.34873199462890625,0.05,0.01,0.09,0.1
0.3584890365600586,0.17,-0.07,0.16,0.24
0.359957218170166,0.28,-0.17,0.18,0.37
0.375582218170166,0.25,-0.15,0.02,0.29
0.3770720958709717,0.07,0.0,-0.18,0.19
0.39238595962524414,-0.05,0.14,-0.3,0.33
0.39652204513549805,0.0,0.1,-0.25,0.26
0.40637922286987305,0.19,-0.04,-0.16,0.25
0.439500093460083,0.28,-0.11,-0.15,0.33
0.4413020610809326,0.07,-0.02,-0.11,0.13
0.4426100254058838,-0.16,0.09,-0.04,0.18
0.4594590663909912,-0.27,0.17,0.09,0.33
0.4609498977661133,-0.43,0.14,0.18,0.48
0.4757251739501953,-0.52,0.11,0.14,0.54
0.47722816467285156,-0.67,0.05,0.04,0.67
0.4921588897705078,-0.79,0.22,0.1,0.82
0.49596595764160156,-0.34,0.16,-0.07,0.38
0.5082080364227295,-0.14,0.12,-0.13,0.22
0.5395159721374512,-0.26,0.04,-0.17,0.31
0.5411760807037354,-0.04,-0.06,-0.14,0.15
0.5421450138092041,0.29,-0.1,-0.09,0.31
0.5597419738769531,0.3,-0.1,0.07,0.32
0.5610480308532715,0.11,-0.07,0.3,0.32
0.5757789611816406,0.1,-0.15,0.24,0.3
0.5772829055786133,0.29,-0.23,0.11,0.38
0.5923500061035156,0.48,-0.21,0.18,0.55
0.5950369834899902,0.42,-0.22,0.3,0.56
0.6118559837341309,0.2,-0.12,0.46,0.51
0.614901065826416,0.01,-0.04,0.33,0.33
0.6452150344848633,-0.47,0.08,0.21,0.52
0.6468491554260254,-0.88,0.34,0.12,0.95
0.6481320858001709,-0.82,0.3,-0.27,0.91
0.6603422164916992,-0.57,0.24,-0.71,0.94
0.6644711494445801,-0.14,0.13,-0.93,0.94
0.6757230758666992,0.02,0.09,-0.58,0.58
0.684722900390625,-0.01,-0.01,-0.11,0.11
0.6941430568695068,-0.01,-0.21,0.23,0.31
0.7046511173248291,0.09,-0.2,0.42,0.47
0.7142810821533203,0.2,-0.16,0.31,0.4
0.7426960468292236,0.15,-0.09,0.16,0.23
0.744441032409668,0.12,0.02,0.36,0.38
0.7454562187194824,0.01,-0.05,0.54,0.54
0.7597951889038086,-0.04,-0.16,0.59,0.61
0.7639331817626953,0.07,-0.12,0.68,0.69
0.7737741470336914,0.13,-0.05,0.69,0.7
0.7837491035461426,0.1,-0.09,0.55,0.56
0.7936701774597168,-0.06,-0.07,0.38,0.39
0.8037490844726562,-0.47,0.02,0.31,0.56
0.8138260841369629,-0.67,0.07,0.14,0.68
0.8421511650085449,-0.65,0.12,0.02,0.66
0.8436441421508789,-0.79,0.18,0.16,0.82
0.8446569442749023,-0.88,0.14,0.42,0.98
0.8599429130554199,-0.71,0.19,0.45,0.86
0.8630790710449219,-0.44,0.11,0.16,0.48
0.8732960224151611,-0.34,0.08,-0.1,0.36
0.8830571174621582,-0.29,0.13,-0.09,0.33
0.8928132057189941,-0.12,0.1,-0.08,0.17
0.9027099609375,0.11,0.07,-0.13,0.18
0.9130702018737793,0.13,0.06,-0.28,0.31
0.9434430599212646,0.13,0.0,-0.32,0.34
0.9452500343322754,0.21,-0.01,-0.34,0.39
0.9465799331665039,0.26,0.05,-0.34,0.43
0.9598331451416016,0.13,0.16,-0.33,0.38
0.9623479843139648,-0.53,0.21,-0.13,0.58
0.973423957824707,-0.98,0.43,-0.19,1.08
0.9823861122131348,-0.87,0.49,-0.51,1.12
0.9925661087036133,-0.6,0.58,-0.65,1.05
1.0021629333496094,-0.32,0.67,-0.66,0.99
1.0119199752807617,-0.33,0.67,-0.66,0.99
1.0457820892333984,-0.77,0.94,-0.41,1.28
1.0471649169921875,-1.3,1.34,-0.47,1.92
1.048171043395996,-1.82,1.75,-0.75,2.63
1.0596580505371094,-2.41,2.15,-1.04,3.39
1.0615901947021484,-3.0,2.64,-1.07,4.13
1.075268030166626,-4.02,3.83,-0.86,5.61
1.081636905670166,-5.25,6.0,-0.65,7.99
1.0924150943756104,-6.29,7.55,-0.65,9.84
1.1015400886535645,-6.62,7.37,-1.33,9.99
1.1110739707946777,-6.55,5.87,-1.05,8.85
1.1482172012329102,-5.71,4.63,-0.25,7.35
1.1500160694122314,-4.79,3.5,-0.49,5.95
1.1512789726257324,-3.84,2.7,-1.23,4.85
1.1553590297698975,-3.23,2.05,-1.95,4.29
1.1608219146728516,-1.72,2.28,-2.32,3.67
1.1763381958007812,-0.35,1.67,-2.93,3.39
1.1806721687316895,0.88,-0.04,-2.99,3.11
1.192467212677002,1.73,-1.83,-2.94,3.87
1.2008509635925293,0.39,-2.8,-2.28,3.63
1.2106130123138428,-0.4,-1.45,-0.49,1.58
1.244983196258545,-0.91,-3.59,-0.61,3.75
1.24676513671875,-3.17,-4.49,-1.23,5.63
1.248047113418579,-5.5,-3.43,-0.68,6.51
1.259498119354248,-7.64,-3.65,-1.32,8.56
1.261019229888916,-8.93,-4.19,-1.34,9.95
1.2757291793823242,-8.51,-4.21,0.18,9.49
1.2800331115722656,-7.42,-4.57,1.39,8.82
1.2927579879760742,-6.44,-4.84,2.3,8.37
1.299942970275879,-5.83,-4.71,2.69,7.96
1.3095810413360596,-5.41,-4.44,2.55,7.44
1.3458242416381836,-5.06,-4.03,2.16,6.81
1.3476150035858154,-4.69,-3.49,1.5,6.03
1.3486289978027344,-4.22,-2.87,0.72,5.15
1.3600149154663086,-3.51,-1.97,0.23,4.03
1.3615400791168213,-2.31,-1.11,-0.12,2.56
1.3764100074768066,-0.74,-0.6,0.02,0.95
1.3793261051177979,0.68,-0.26,0.07,0.73
1.3927102088928223,1.75,-0.16,-0.24,1.77
1.3993239402770996,2.37,0.02,-0.62,2.44
1.4088680744171143,2.66,0.36,-0.79,2.79
1.4222331047058105,2.97,0.38,-0.59,3.05
1.4493341445922852,3.16,-0.18,0.02,3.16
1.4505350589752197,3.1,-0.7,0.68,3.24
1.4519062042236328,2.89,-0.73,0.69,3.05
1.4584121704101562,2.97,-0.21,0.49,3.01
1.468822956085205,3.84,0.3,0.28,3.86
1.4785470962524414,5.27,0.07,0.29,5.27
1.4885880947113037,6.33,-0.16,0.4,6.34
1.498441219329834,7.02,-0.36,0.31,7.03
1.508389949798584,7.47,-0.56,0.2,7.49
1.5182371139526367,8.02,-0.89,0.13,8.07
1.5472900867462158,8.91,-1.63,0.05,9.05
1.5484771728515625,9.71,-2.55,0.23,10.04
1.5497291088104248,9.77,-4.21,0.77,10.66
1.560978889465332,9.49,-6.05,1.97,11.42
1.5679879188537598,7.99,-6.9,3.23,11.04
1.57778000831604,1.07,-0.92,3.44,3.71
1.58774995803833,-7.04,-0.18,-0.81,7.08
1.5976450443267822,-11.04,17.17,-6.39,21.38
1.6075611114501953,-8.32,50.66,-0.13,51.33
1.6184730529785156,-6.22,26.16,-8.53,28.2
1.6474928855895996,-1.92,-2.62,-12.39,12.8
1.648794174194336,4.05,-6.24,-1.01,7.5
1.6500282287597656,9.51,-7.56,8.35,14.74
1.660323143005371,10.7,-9.7,9.63,17.35
1.6673181056976318,9.16,-7.79,5.86,13.37
1.676936149597168,5.48,-2.39,5.35,8.02
1.6871871948242188,1.8,0.33,1.06,2.11
1.6969261169433594,-0.74,1.43,-3.63,3.97
1.7069940567016602,-1.97,3.49,-4.58,6.08
1.7173519134521484,-1.89,4.27,-2.6,5.34
1.7455310821533203,-0.44,1.4,0.02,1.46
1.747230052947998,1.18,-1.19,1.15,2.03
1.7482481002807617,1.86,-2.01,1.09,2.94
1.760216236114502,1.19,-1.31,0.2,1.78
1.7664809226989746,0.29,-0.01,-0.67,0.73
1.7763850688934326,0.06,0.54,-1.12,1.24
1.786255121231079,0.14,0.28,-0.76,0.82
1.7964160442352295,-0.02,-0.17,0.32,0.36
1.8060450553894043,-0.01,-0.31,1.08,1.12
1.8166389465332031,0.43,-0.35,0.95,1.09
1.8535962104797363,0.55,-0.21,0.57,0.81
1.855362892150879,0.3,0.05,0.28,0.41
1.8563342094421387,0.23,-0.04,0.15,0.27
1.8768949508666992,0.43,-0.16,0.2,0.5
1.8783769607543945,0.36,-0.25,0.15,0.46
1.8930931091308594,0.15,-0.18,0.01,0.23
1.8945279121398926,-0.02,0.0,-0.15,0.15
1.9097051620483398,-0.36,0.24,-0.12,0.44
1.9111299514770508,-0.75,0.32,-0.12,0.82
1.929042100906372,-0.78,0.32,-0.19,0.86
1.9575629234313965,-0.71,0.35,-0.18,0.81
1.9593050479888916,-0.6,0.34,-0.23,0.72
1.9607062339782715,-0.63,0.34,-0.41,0.82
1.9769811630249023,-0.64,0.42,-0.63,0.99
1.978459119796753,-0.71,0.46,-0.48,0.97
1.9927949905395508,-0.84,0.35,-0.24,0.94
1.9942960739135742,-1.06,0.2,-0.28,1.11
2.0099501609802246,-1.1,0.35,-0.26,1.18
2.011411190032959,-1.09,0.51,-0.3,1.24
2.025020122528076,-0.98,0.52,-0.62,1.27
2.0492050647735596,-1.01,0.58,-0.87,1.45
2.0511720180511475,-1.05,0.81,-0.85,1.57
2.0527050495147705,-0.98,0.91,-0.8,1.55
2.0574049949645996,-1.02,0.87,-0.48,1.42
2.0643150806427,-1.32,0.89,-0.03,1.59
2.0765490531921387,-1.63,1.15,0.19,2.0
2.084078073501587,-1.57,1.43,-0.07,2.12
2.0938591957092285,-1.62,1.78,-0.38,2.43
2.1043310165405273,-1.95,2.59,-0.16,3.24
2.116487979888916,-2.1,2.68,-0.86,3.51
2.1527700424194336,-2.26,2.9,-1.08,3.83
2.1543750762939453,-2.41,3.79,-1.04,4.61
2.1558380126953125,-2.91,4.04,-1.05,5.08
2.157331943511963,-3.59,4.34,-0.68,5.67
2.1631011962890625,-4.34,4.76,-0.47,6.45
2.1734862327575684,-4.94,5.03,-0.75,7.08
2.183439016342163,-5.72,5.92,-0.86,8.27
2.193308115005493,-6.93,7.28,-1.68,10.19
2.203188896179199,-8.4,8.76,-3.03,12.5
2.2131590843200684,-10.04,10.54,-4.07,15.11
2.223090171813965,-11.27,12.01,-4.75,17.14
2.2517330646514893,-11.98,12.64,-4.91,18.09
2.253380060195923,-12.64,12.31,-5.7,18.54
2.2547550201416016,-12.92,11.18,-6.78,18.38
2.262558937072754,-12.49,10.99,-6.73,17.94
2.2728209495544434,-9.22,13.68,-5.27,17.31
2.2828640937805176,-3.29,15.91,-6.19,17.38
2.293023109436035,1.09,13.8,-7.86,15.91
2.3024790287017822,1.74,7.93,-8.09,11.46
2.3124499320983887,-1.92,0.92,-7.26,7.56
2.322374105453491,-3.22,-0.54,-4.03,5.18
2.3510000705718994,1.84,2.84,2.6,4.26
2.352674961090088,2.42,-2.89,2.76,4.67
2.3544440269470215,-2.11,-5.06,-2.36,5.96
2.361603021621704,-6.0,-3.39,-0.34,6.89
2.376890182495117,-8.62,-2.51,0.57,8.99
2.3817150592803955,-10.67,-3.22,-1.49,11.24
2.3917551040649414,-11.52,-4.12,-2.13,12.41
2.4014620780944824,-10.83,-5.02,-0.56,11.95
2.4114561080932617,-8.85,-6.06,1.82,10.87
2.421584129333496,-7.39,-7.28,2.61,10.69
2.450766086578369,-7.03,-8.08,2.66,11.03
2.452299118041992,-7.18,-7.98,2.46,11.01
2.453598976135254,-7.22,-7.14,1.89,10.32
2.4608211517333984,-6.88,-6.47,1.1,9.5
2.4769539833068848,-6.33,-6.01,0.39,8.73
2.4808781147003174,-5.75,-5.54,0.02,7.98
2.493028163909912,-5.21,-5.2,-0.09,7.36
2.500936985015869,-4.79,-5.11,-0.32,7.01
2.512493133544922,-4.39,-5.1,-0.33,6.73
2.52081298828125,-3.88,-5.0,-0.19,6.33
2.5506181716918945,-3.33,-4.77,0.19,5.82
2.55232310295105,-2.77,-4.38,0.87,5.25
2.553603172302246,-2.11,-3.28,2.13,4.44
2.56013822555542,-0.91,-1.87,2.26,3.07
2.5770649909973145,1.0,-0.76,1.94,2.31
2.5802130699157715,2.83,0.51,1.48,3.23
2.5932021141052246,4.38,2.22,1.42,5.11
2.6002302169799805,5.77,4.81,2.08,7.79
2.609924077987671,7.62,6.96,2.12,10.53
2.6205801963806152,10.07,7.52,1.58,12.66
2.6576430797576904,12.51,7.68,1.13,14.72
2.659308910369873,14.94,8.19,1.0,17.06
2.660736083984375,17.34,7.96,1.06,19.1
2.6793179512023926,18.64,6.48,0.62,19.74
2.6808528900146484,18.46,4.49,0.23,18.99
2.691357135772705,17.37,2.94,0.35,17.62
2.6928582191467285,16.07,1.81,0.08,16.17
2.709975004196167,15.21,0.97,-0.62,15.25
2.7114620208740234,14.58,0.15,-1.03,14.61
2.725403070449829,13.21,-0.12,-1.04,13.25
2.754178047180176,10.06,5.27,-0.71,11.37
2.7556591033935547,4.17,-1.18,-3.46,5.54
2.756649971008301,-6.41,-2.02,-6.33,9.23
2.777493953704834,-11.88,17.54,-6.03,22.02
2.7790510654449463,-7.45,39.54,3.55,40.39
2.7933990955352783,-5.76,20.36,-4.32,21.59
2.7948760986328125,-1.33,0.24,-7.26,7.38
2.8102669715881348,4.8,-2.47,0.65,5.43
2.811769962310791,7.99,-7.55,4.81,11.99
2.8263540267944336,9.24,-10.32,4.92,14.69
2.853795051574707,9.89,-7.89,4.22,13.33
2.8551390171051025,6.92,-2.76,3.67,8.3
2.8561320304870605,3.14,0.43,1.35,3.44
2.877474069595337,0.13,1.84,-1.45,2.34
2.8789560794830322,-2.01,2.94,-2.17,4.17
2.8935389518737793,-1.89,2.63,-1.13,3.43
2.8950440883636475,0.55,0.66,0.72,1.12
2.910370111465454,2.75,-0.9,1.21,3.13
2.9117941856384277,2.8,-1.6,1.13,3.41
2.9297420978546143,1.14,-1.04,0.41,1.59
2.9566540718078613,0.04,-0.09,-0.2,0.22
2.958008050918579,0.05,0.3,-0.66,0.72
2.9590229988098145,0.49,0.18,-0.89,1.03
2.9777450561523438,0.76,-0.04,-0.61,0.97
2.979207992553711,0.53,-0.13,-0.05,0.54
2.993074893951416,0.27,-0.03,0.26,0.37
2.99448823928833,0.04,0.1,0.35,0.36
3.0103390216827393,-0.16,0.16,0.05,0.23
3.0117950439453125,-0.39,0.28,-0.07,0.48
3.0257019996643066,-0.53,0.36,-0.04,0.64
3.027172088623047,-0.47,0.21,-0.09,0.52
3.070801019668579,-0.29,0.09,-0.13,0.33
3.071960926055908,-0.12,0.03,-0.39,0.4
3.072968006134033,-0.14,0.16,-0.45,0.49
3.0940001010894775,-0.2,0.28,-0.51,0.61
3.09552001953125,-0.31,0.35,-0.36,0.59
3.110326051712036,-0.52,0.49,-0.06,0.71
3.1118149757385254,-0.78,0.64,-0.12,1.01
3.126873016357422,-1.02,0.82,-0.48,1.39
3.1283390522003174,-1.19,0.97,-0.81,1.73
3.1464591026306152,-1.35,1.07,-0.78,1.89
3.175004005432129,-1.63,0.87,-0.72,1.98
3.176314115524292,-1.95,0.63,-0.6,2.13
3.177333116531372,-1.99,0.65,-0.59,2.17
3.194087028503418,-1.8,0.8,-0.91,2.16
3.1955599784851074,-1.45,1.28,-1.02,2.18
3.210308074951172,-1.17,1.22,-1.59,2.32
3.2120261192321777,-1.58,1.62,-1.06,2.49
3.2248921394348145,-2.24,2.18,-0.48,3.16
3.2263522148132324,-2.68,2.61,0.15,3.74
3.2283170223236084,-2.69,2.87,0.53,3.96
3.2515060901641846,-2.48,2.95,0.52,3.88
3.2529492378234863,-2.5,2.74,-0.19,3.71
3.255021095275879,-2.95,2.8,-0.8,4.14
3.2651350498199463,-3.59,3.2,-1.32,4.98
3.2764670848846436,-4.26,3.76,-1.77,5.95
3.2849621772766113,-4.94,4.69,-2.12,7.13
3.294969081878662,-5.67,5.64,-2.54,8.39
3.3050270080566406,-6.8,7.15,-2.2,10.1
3.314758062362671,-8.3,9.53,-2.14,12.81
3.325003147125244,-9.54,10.9,-4.37,15.13
3.354722023010254,-10.18,11.22,-6.78,16.59
3.355879068374634,-10.62,11.18,-7.79,17.27
3.3568739891052246,-10.77,10.71,-7.91,17.12
3.3771519660949707,-11.19,11.33,-7.93,17.78
3.3786420822143555,-10.41,14.5,-5.95,18.81
3.3929409980773926,-6.2,19.56,-4.62,21.03
3.394473075866699,-0.64,19.74,-8.15,21.36
3.407663106918335,1.59,11.22,-10.62,15.53
3.414060115814209,-1.61,3.31,-9.01,9.73
3.4362850189208984,-6.43,-1.25,-5.45,8.52
3.463926076889038,-4.14,1.08,-1.27,4.46
3.4651031494140625,1.11,0.35,4.95,5.08
3.466339111328125,-0.26,-5.14,0.62,5.18
3.477418899536133,-4.25,-6.0,-2.48,7.75
3.47849702835083,-7.22,-4.71,0.58,8.63
3.4934849739074707,-9.5,-3.97,0.15,10.29
3.4949569702148438,-11.27,-3.93,-1.29,12.0
3.510435104370117,-11.9,-4.04,-1.4,12.64
3.513392925262451,-10.93,-4.55,-0.2,11.84
3.525675058364868,-8.83,-5.41,1.51,10.46
3.558051109313965,-7.26,-6.65,2.22,10.09
3.559317111968994,-6.54,-7.31,2.57,10.13
3.560331106185913,-6.31,-7.06,2.74,9.85
3.577730178833008,-6.08,-6.27,2.24,9.01
3.579195976257324,-5.6,-5.71,1.16,8.08
3.5932559967041016,-5.06,-5.13,-0.02,7.2
3.594705104827881,-4.5,-4.27,-0.74,6.24
3.610443115234375,-4.06,-3.55,-1.04,5.49
3.6124792098999023,-3.73,-3.35,-1.5,5.23
3.6255950927734375,-3.43,-3.54,-2.01,5.32
3.6591010093688965,-3.06,-3.67,-2.38,5.33
3.660680055618286,-2.43,-3.63,-2.29,4.93
3.661699056625366,-1.14,-3.51,-1.61,4.02
3.6784019470214844,0.56,-3.39,-0.89,3.54
3.679901123046875,2.04,-3.16,-1.13,3.92
3.693519115447998,3.1,-2.75,-1.83,4.53
3.6949939727783203,3.84,-1.89,-1.96,4.7
3.7108850479125977,4.85,-0.68,-1.39,5.09
3.7124218940734863,6.5,0.79,-0.3,6.55
3.7258849143981934,8.53,2.11,0.89,8.83
3.7606871128082275,9.97,3.11,1.49,10.54
3.7620081901550293,10.32,4.22,1.87,11.3
3.7630300521850586,10.12,5.33,1.78,11.57
3.778116226196289,10.88,6.11,1.49,12.56
3.7796239852905273,12.39,6.62,1.11,14.09
3.793560028076172,14.43,6.92,1.61,16.08
3.7950291633605957,16.4,7.25,1.5,17.99
3.810655117034912,17.99,6.91,2.19,19.39
3.8121540546417236,18.65,5.59,2.91,19.68
3.8265061378479004,17.64,3.68,3.9,18.43
3.8315930366516113,14.71,5.05,4.36,16.15
3.871026039123535,11.66,7.04,3.45,14.05
3.8721652030944824,6.47,-1.79,-3.27,7.46
3.8731489181518555,-5.76,-3.18,-8.03,10.38
3.894787073135376,-12.46,18.75,-4.26,22.91
3.896307945251465,-8.89,40.48,5.87,41.85
3.910426139831543,-7.42,22.42,-3.0,23.8
3.911881923675537,-2.33,0.75,-4.65,5.25
3.927253007888794,2.21,-6.39,1.57,6.94
3.9287118911743164,7.67,-6.65,4.57,11.13
3.94240403175354,10.71,-8.21,3.92,14.05
3.9706859588623047,11.54,-7.97,2.05,14.17
3.9721431732177734,9.9,-3.06,1.58,10.48
3.973176956176758,5.59,0.37,1.1,5.7
3.99419903755188,1.73,0.75,-0.82,2.05
3.99570894241333,-0.7,1.7,-1.62,2.45
4.010531902313232,-1.85,3.01,-0.66,3.59
4.011957168579102,-1.22,2.46,0.67,2.82
4.027307033538818,0.51,0.09,0.98,1.1
4.0287699699401855,1.27,-1.43,1.01,2.16
4.043385028839111,0.99,-1.63,0.54,1.98
4.072763919830322,0.34,-0.77,-0.14,0.85
4.074060916900635,-0.27,0.37,-0.53,0.7
4.07505989074707,-0.35,0.68,-0.79,1.09
4.094113111495972,0.28,0.22,-0.35,0.49
4.0955891609191895,0.77,-0.54,0.45,1.04
4.11047101020813,0.77,-0.92,0.82,1.45
4.111814022064209,0.5,-0.73,0.39,0.96
4.127077102661133,0.29,-0.1,-0.1,0.32
4.12851095199585,0.2,0.36,0.12,0.42
4.142806053161621,0.01,0.3,0.78,0.83
4.169760227203369,-0.16,0.11,0.97,0.98
4.171180009841919,-0.31,-0.26,0.7,0.8
4.172142028808594,-0.4,0.19,-0.14,0.46
4.174349069595337,-0.42,0.49,-1.46,1.59
4.178170204162598,-0.61,0.38,-1.59,1.74
4.188417911529541,-0.74,0.69,-1.05,1.45
4.198477029800415,-0.9,0.58,0.24,1.09
4.208444118499756,-0.71,0.26,0.54,0.92
4.2183051109313965,-0.41,0.07,0.01,0.41
4.228092193603516,-0.55,0.17,-0.36,0.67
4.26344108581543,-1.15,0.41,-0.7,1.4
4.264575958251953,-1.76,0.52,-1.14,2.16
4.265577077865601,-2.01,0.63,-1.25,2.44
4.276821136474609,-2.02,0.75,-1.23,2.48
4.277851104736328,-1.77,0.85,-1.01,2.2
4.293920040130615,-1.31,0.98,-0.71,1.78
4.297552108764648,-0.91,0.9,-0.6,1.41
4.310811996459961,-0.78,0.87,-0.42,1.24
4.317379951477051,-0.82,0.93,-0.19,1.25
4.327272891998291,-1.14,0.95,0.01,1.48
4.363047122955322,-1.5,1.1,-0.03,1.86
4.364371061325073,-1.87,1.43,-0.06,2.35
4.365379095077515,-2.2,2.25,0.01,3.14
4.374685049057007,-1.99,2.45,-0.67,3.22
4.376420974731445,-2.08,3.02,-1.03,3.8
4.390813112258911,-2.15,3.57,-1.27,4.35
4.396850109100342,-2.59,3.73,-1.22,4.7
4.407094955444336,-3.3,4.04,-0.9,5.29
4.416569232940674,-4.22,4.47,-0.94,6.21
4.426481008529663,-5.08,5.52,-0.81,7.54
4.463265895843506,-6.11,6.68,-1.0,9.1
4.464601993560791,-7.6,8.42,-0.57,11.35
4.465590000152588,-9.37,10.84,-0.86,14.35
4.4666221141815186,-11.03,12.19,-2.91,16.69
4.476351022720337,-12.69,12.38,-4.84,18.37
4.486030101776123,-13.8,12.24,-5.36,19.2
4.495930194854736,-14.5,11.28,-5.8,19.26
4.506124973297119,-14.63,11.08,-6.36,19.42
4.516174077987671,-11.93,13.65,-4.78,18.74
4.526576042175293,-5.49,15.85,-6.13,17.85
4.560998916625977,0.23,14.78,-8.38,16.99
4.562170028686523,2.1,9.34,-6.58,11.61
4.56316614151001,-0.61,2.28,-6.14,6.57
4.57767391204834,-4.56,-1.98,-4.15,6.47
4.578696012496948,-2.35,-1.54,-3.41,4.41
4.593476057052612,4.38,0.29,2.23,4.92
4.595339059829712,4.55,-4.52,1.94,6.7
4.611090183258057,-1.42,-6.12,-3.69,7.28
4.615076065063477,-6.74,-5.07,-1.12,8.5
4.626121997833252,-9.55,-3.91,0.45,10.32
4.635257005691528,-11.77,-3.84,-1.0,12.42
4.668873071670532,-13.17,-4.27,-1.68,13.94
4.670077085494995,-12.99,-4.83,-1.17,13.9
4.671329975128174,-10.59,-5.1,1.05,11.8
4.674558162689209,-8.0,-6.02,2.41,10.29
4.694123029708862,-6.84,-6.92,2.65,10.08
4.695591926574707,-6.81,-6.94,2.87,10.13
4.711306095123291,-6.93,-6.38,2.26,9.68
4.71443510055542,-6.71,-5.83,1.28,8.98
4.7261950969696045,-6.37,-5.15,0.64,8.21
4.734357118606567,-5.94,-4.65,-0.1,7.54
4.768512010574341,-5.3,-4.19,-0.92,6.81
4.769712924957275,-4.44,-3.74,-1.55,6.0
4.770936965942383,-3.38,-3.55,-2.11,5.33
4.7735772132873535,-2.19,-3.58,-2.28,4.77
4.794187068939209,-1.18,-3.91,-2.18,4.62
4.795660972595215,-0.32,-3.97,-1.55,4.27
4.811357021331787,0.58,-3.41,-0.32,3.47
4.813567161560059,1.65,-2.53,0.13,3.02
4.826301097869873,3.07,-1.78,-0.5,3.58
4.833698034286499,4.69,-0.76,-1.06,4.86
4.870306015014648,6.23,0.95,-0.49,6.32
4.871448040008545,7.73,3.23,0.93,8.42
4.872375965118408,9.19,4.82,2.07,10.58
4.874751091003418,10.5,5.27,2.56,12.02
4.882808208465576,11.49,5.86,2.52,13.14
4.893013954162598,12.63,6.83,2.18,14.52
4.903268098831177,14.46,7.82,1.41,16.49
4.913050174713135,16.94,8.52,1.29,19.0
4.922798156738281,19.45,8.35,1.4,21.21
4.932758092880249,20.91,7.31,1.55,22.2
4.963257074356079,20.87,5.07,1.39,21.52
4.964620113372803,19.45,2.31,1.96,19.68
4.965604066848755,17.26,0.03,2.8,17.48
4.972292900085449,11.96,1.86,2.59,12.37
4.982291221618652,2.8,-0.93,0.45,2.98
4.992002964019775,-8.71,-5.49,-6.59,12.22
5.002212047576904,-18.15,7.01,-12.45,23.09
5.0122621059417725,-16.03,33.36,2.83,37.11
5.02226710319519,-10.43,36.87,3.97,38.52
5.031975030899048,-4.3,10.21,-5.71,12.46
5.070367097854614,1.22,-3.08,-1.58,3.67
5.071777105331421,5.64,-6.82,3.03,9.35
5.072760105133057,9.89,-6.64,2.62,12.19
5.074984073638916,11.0,-8.75,1.31,14.11
5.081364154815674,11.41,-6.77,0.33,13.27
5.091584205627441,9.01,-1.56,1.32,9.23
5.101372003555298,4.57,0.98,0.06,4.67
5.111485958099365,1.04,2.16,-1.1,2.63
5.121303081512451,-1.15,3.36,-0.94,3.67
5.131455898284912,-2.18,2.71,-0.14,3.48
5.168516159057617,-1.11,0.32,1.45,1.85
5.169925212860107,0.92,-1.75,1.82,2.68
5.170913219451904,2.23,-2.13,1.42,3.39
5.173917055130005,1.76,-1.28,0.82,2.32
5.193929195404053,0.76,-0.01,-0.09,0.76
5.194939136505127,0.47,0.48,-0.95,1.16
5.20723819732666,0.61,0.19,-0.48,0.79
5.210378170013428,0.83,-0.31,0.41,0.97
5.224181175231934,0.74,-0.66,0.35,1.05
5.230504035949707,0.51,-0.36,-0.07,0.62
5.266165018081665,0.04,0.2,-0.33,0.38
5.26731014251709,-0.47,0.47,-0.18,0.68
5.268517971038818,-0.71,0.43,0.18,0.84
5.274537086486816,-0.72,0.28,0.17,0.79
5.279925107955933,-0.68,0.17,-0.28,0.75
5.290710926055908,-0.5,0.2,-0.81,0.97
5.299870014190674,-0.38,0.28,-0.89,1.0
5.3099610805511475,-0.51,0.39,-0.54,0.83
5.3199639320373535,-0.86,0.49,-0.17,1.0
5.329786062240601,-1.01,0.57,-0.02,1.15
5.367916107177734,-1.02,0.62,-0.1,1.19
5.369429111480713,-0.92,0.55,-0.33,1.12
5.370427131652832,-0.85,0.42,-0.36,1.01
5.3749918937683105,-1.0,0.4,-0.09,1.08
5.394093036651611,-1.2,0.3,-0.25,1.26
5.395134925842285,-1.35,0.21,-0.53,1.46
5.410968065261841,-1.28,0.36,-0.66,1.48
5.412369012832642,-0.96,0.65,-0.74,1.37
5.426459074020386,-0.63,0.91,-0.71,1.31
5.428957939147949,-0.5,1.0,-0.69,1.31
5.442698001861572,-0.75,0.96,-0.73,1.42
5.471510887145996,-1.11,1.08,-0.55,1.64
5.472836971282959,-1.56,1.19,-0.57,2.04
5.473861217498779,-2.05,1.82,-0.03,2.74
5.495077133178711,-2.18,2.26,-0.33,3.15
5.496119022369385,-2.34,2.84,-0.53,3.71
5.508388996124268,-2.66,3.38,-0.61,4.34
5.5094380378723145,-2.95,3.78,-0.68,4.84
5.52813720703125,-3.39,3.95,-1.13,5.32
5.5296220779418945,-3.75,4.25,-1.44,5.84
5.542393207550049,-4.1,4.64,-1.68,6.41
5.5694169998168945,-4.75,5.16,-1.76,7.23
5.570717096328735,-5.84,6.2,-1.41,8.63
5.57177209854126,-7.38,7.69,-1.23,10.72
5.577593088150024,-9.16,9.23,-1.79,13.12
5.587767124176025,-10.66,10.74,-2.75,15.38
5.597574234008789,-12.01,11.91,-4.69,17.55
5.608428001403809,-12.89,11.99,-6.53,18.77
5.6172120571136475,-13.33,11.23,-7.33,18.9
5.62789511680603,-13.68,11.0,-7.75,19.18
5.637907028198242,-12.28,14.07,-5.52,19.47
5.66842794418335,-7.19,18.49,-4.28,20.29
5.669679164886475,-1.35,17.56,-7.98,19.33
5.670979022979736,1.27,11.17,-9.35,14.62
5.676930904388428,-0.49,4.33,-8.49,9.54
5.694411039352417,-4.51,-0.28,-5.69,7.26
5.696706056594849,-1.88,1.1,-3.32,3.97
5.710721015930176,5.07,3.04,3.42,6.82
5.716567039489746,4.77,-3.22,3.2,6.58
5.72687292098999,-0.72,-6.2,-3.32,7.06
5.736788034439087,-5.78,-5.52,-0.87,8.03
5.769395112991333,-8.67,-4.11,1.1,9.65
5.770546913146973,-10.71,-3.85,-0.35,11.38
5.771775007247925,-11.97,-3.8,-1.37,12.63
5.776226043701172,-11.48,-3.77,-1.21,12.14
5.794121026992798,-8.88,-4.04,0.17,9.75
5.795995235443115,-6.52,-5.42,1.41,8.59
5.811028957366943,-5.43,-6.73,2.22,8.92
5.816030025482178,-5.04,-7.33,2.81,9.32
5.826992988586426,-5.11,-7.55,2.51,9.45
5.836268901824951,-5.47,-7.32,1.69,9.29
5.873589038848877,-5.77,-6.49,0.7,8.71
5.874756097793579,-5.86,-5.4,-0.44,7.98
5.875736236572266,-5.72,-4.56,-1.38,7.44
5.894726037979126,-5.56,-4.22,-1.58,7.15
5.895765066146851,-5.33,-4.49,-1.06,7.04
5.911252021789551,-4.78,-5.34,-0.26,7.17
5.912710189819336,-3.9,-6.1,0.48,7.25
5.927967071533203,-3.14,-6.55,0.64,7.29
5.929521083831787,-2.55,-6.79,0.41,7.26
5.942992210388184,-1.97,-6.6,0.12,6.88
5.972084045410156,-1.36,-5.84,0.23,6.0
5.974049091339111,-0.43,-4.66,0.41,4.69
5.975052118301392,1.24,-3.51,-0.05,3.72
5.994936943054199,3.64,-2.11,-0.02,4.2
5.995965003967285,6.7,-0.55,0.36,6.73
6.011603116989136,9.66,0.92,0.85,9.74
6.013099193572998,11.55,3.04,1.66,12.05
6.028268098831177,11.94,5.66,2.0,13.36
6.029778957366943,12.01,7.71,1.93,14.4
6.043797016143799,12.94,9.42,1.6,16.08
6.075977087020874,14.77,11.07,0.87,18.47
6.077402114868164,16.53,11.81,-0.18,20.31
6.078463077545166,18.15,11.91,0.09,21.7
6.095221042633057,19.57,10.85,0.54,22.38
6.096289157867432,20.54,8.8,1.5,22.39
6.1116862297058105,19.45,10.08,2.69,22.07
6.113101959228516,13.27,6.65,0.42,14.84
6.127432107925415,-0.63,-4.36,-4.11,6.02
6.128874063491821,-13.91,2.72,-9.06,16.82
6.143677234649658,-15.51,24.97,0.01,29.39
6.174519062042236,-12.51,33.82,5.86,36.53
6.175835132598877,-7.51,15.29,-2.23,17.18
6.176852226257324,-0.85,-0.65,-0.92,1.41
6.195054054260254,2.94,-7.01,2.24,7.92
6.196136951446533,7.83,-5.77,2.71,10.09
6.211137056350708,10.73,-6.22,0.22,12.4
6.212213039398193,11.9,-6.1,-1.16,13.42
6.228233098983765,11.21,-1.68,-1.0,11.37
6.229706048965454,7.75,1.73,-1.56,8.09
6.243642091751099,3.42,1.59,-2.68,4.62
6.245118141174316,0.05,1.3,-1.61,2.06
6.291922092437744,-1.87,1.71,1.63,3.01
6.293075084686279,-1.91,0.71,4.06,4.54
6.294095039367676,-0.36,-1.35,3.3,3.58
6.312345027923584,1.08,-1.9,1.2,2.49
6.313390016555786,1.28,-0.82,-0.02,1.52
6.328160047531128,0.66,0.17,-0.44,0.81
6.329628944396973,0.21,0.25,-0.68,0.75
6.344825029373169,0.35,0.04,-0.43,0.55
6.346281051635742,0.77,-0.1,0.17,0.79
6.3602190017700195,1.05,-0.38,0.04,1.11
6.392402172088623,1.02,-0.45,-0.44,1.19
6.393747091293335,0.69,-0.04,-0.57,0.89
6.394773006439209,0.15,0.26,-0.45,0.54
6.411955118179321,-0.39,0.24,0.05,0.46
6.413000106811523,-0.76,0.2,0.56,0.96
6.42801308631897,-0.88,0.15,0.6,1.07
6.4290361404418945,-0.89,0.09,0.05,0.89
6.444894075393677,-0.68,0.23,-0.66,0.97
6.446397066116333,-0.33,0.37,-0.97,1.08
6.460399150848389,-0.24,0.41,-0.65,0.8
6.491735935211182,-0.38,0.38,-0.04,0.53
6.493539094924927,-0.55,0.3,0.23,0.66
6.494538068771362,-0.86,0.32,0.04,0.91
6.5117878913879395,-1.23,0.5,-0.39,1.38
6.512830018997192,-1.4,0.68,-0.6,1.66
6.5278120040893555,-1.4,0.69,-0.57,1.66
6.528683185577393,-1.38,0.42,-0.59,1.55
6.54461407661438,-1.36,0.39,-0.54,1.51
6.546093940734863,-1.3,0.64,-0.64,1.58
6.560235977172852,-1.23,0.88,-0.89,1.75
6.590193033218384,-1.29,0.98,-0.92,1.86
6.591581106185913,-1.48,1.0,-0.74,1.93
6.5925610065460205,-1.63,0.99,-0.53,1.97
6.6130640506744385,-1.61,1.09,-0.23,1.95
6.614099979400635,-1.5,1.27,-0.32,1.99
6.628291130065918,-1.59,1.53,-0.5,2.26
6.629338026046753,-1.96,2.48,-0.24,3.17
6.645004034042358,-2.17,3.25,-0.68,3.96
6.646544933319092,-2.5,3.56,-1.17,4.5
6.660521984100342,-2.89,3.85,-1.14,4.94
6.692341089248657,-3.25,4.17,-1.29,5.44
6.693599224090576,-3.55,4.36,-1.29,5.76
6.694561004638672,-4.08,4.55,-1.36,6.26
6.71248197555542,-4.93,5.21,-1.27,7.28
6.713520050048828,-6.09,6.61,-1.13,9.05
6.728048086166382,-7.61,8.41,-1.37,11.42
6.729112148284912,-9.31,10.49,-2.21,14.19
6.742046117782593,-10.94,12.32,-3.99,16.95
6.743611097335815,-12.51,13.1,-6.26,19.16
6.758137226104736,-13.45,12.53,-7.44,19.83
6.7875871658325195,-14.12,11.33,-8.13,19.84
6.7887091636657715,-14.41,12.2,-7.48,20.3
6.7895588874816895,-10.88,17.07,-5.1,20.87
6.791831016540527,-3.7,19.69,-7.7,21.46
6.793025016784668,1.03,14.35,-10.3,17.69
6.79862117767334,1.29,6.18,-8.83,10.85
6.808572053909302,-2.82,-0.17,-6.21,6.82
6.818721055984497,-4.25,-2.33,-4.18,6.4
6.8285980224609375,2.03,1.68,0.49,2.68
6.838240146636963,4.95,-2.17,4.2,6.84
6.875909090042114,0.76,-6.25,-3.13,7.03
6.87700891494751,-4.66,-6.18,-3.44,8.47
6.877795219421387,-8.07,-4.66,-0.35,9.32
6.895295143127441,-10.44,-4.23,-1.2,11.32
6.896356105804443,-12.02,-4.28,-2.07,12.92
6.911235094070435,-12.04,-4.5,-1.98,13.0
6.912238121032715,-9.77,-4.82,-0.64,10.91
6.928561210632324,-7.12,-5.8,0.7,9.21
6.930030107498169,-5.75,-7.19,1.22,9.28
6.943933010101318,-5.47,-7.81,1.75,9.69
6.9747772216796875,-5.81,-7.68,2.19,9.87
6.976092100143433,-6.1,-7.11,1.85,9.54
6.976899147033691,-5.91,-6.5,0.84,8.82
6.9954540729522705,-5.48,-5.64,-0.27,7.86
6.996527194976807,-5.06,-4.64,-1.05,6.94
7.011778116226196,-4.71,-3.95,-1.41,6.3
7.012782096862793,-4.54,-3.91,-1.69,6.22
7.027898073196411,-4.19,-4.24,-1.75,6.21
7.028923034667969,-3.38,-4.49,-1.36,5.78
7.044008016586304,-2.05,-4.9,-1.06,5.41
7.047037124633789,-0.67,-5.1,-0.99,5.23
7.08870792388916,0.42,-4.99,-0.97,5.1
7.089862108230591,1.21,-4.57,-1.08,4.84
7.090869903564453,2.04,-3.94,-1.47,4.67
7.1125030517578125,3.26,-3.05,-1.49,4.7
7.113548040390015,4.6,-2.14,-1.28,5.23
7.12782621383667,5.92,-0.78,-0.33,5.98
7.128870964050293,7.29,1.37,1.34,7.53
7.145230054855347,8.59,3.14,2.42,9.46
7.146701097488403,9.64,4.29,2.82,10.92
7.160741090774536,10.51,5.22,2.48,11.99
7.190908908843994,11.64,6.08,1.76,13.24
7.192138195037842,13.02,7.24,1.2,14.94
7.192953109741211,14.92,8.35,0.31,17.1
7.21216607093811,17.02,8.55,-0.29,19.04
7.21324610710144,18.52,8.6,-0.61,20.42
7.227960109710693,19.23,8.31,0.21,20.94
7.229017019271851,18.91,6.59,2.22,20.14
7.244920015335083,15.32,5.67,3.83,16.77
7.246165037155151,8.28,9.94,5.77,14.16
7.260791063308716,1.28,0.92,1.59,2.23
7.289900064468384,-9.42,-3.85,-4.95,11.31
7.291264057159424,-16.88,11.87,-6.89,21.75
7.292273998260498,-12.57,32.95,5.02,35.62
7.312082052230835,-7.07,27.1,3.21,28.19
7.313138008117676,-1.66,4.91,-3.67,6.35
7.327663898468018,2.9,-4.58,-0.19,5.42
7.328716039657593,7.62,-5.97,3.68,10.35
7.345411062240601,11.04,-5.83,1.79,12.61
7.346897125244141,11.86,-7.43,-1.68,14.09
7.3608222007751465,12.1,-3.66,-1.04,12.68
7.390738010406494,9.13,1.47,0.73,9.27
7.391972064971924,3.83,1.13,-1.33,4.2
7.392790079116821,0.18,0.42,-1.93,1.98
7.412108898162842,-1.98,1.76,-0.69,2.73
7.4131920337677,-2.47,2.45,1.3,3.71
7.42838716506958,-1.07,0.87,1.52,2.05
7.429427146911621,0.69,-1.01,0.55,1.34
7.445224046707153,1.76,-1.58,0.01,2.36
7.446728229522705,1.68,-1.12,0.02,2.01
7.460875034332275,0.81,-0.34,0.51,1.01
7.490801095962524,0.13,0.07,0.92,0.93
7.492153167724609,0.03,-0.09,1.13,1.13
7.493114948272705,0.45,-0.47,0.67,0.93
7.512253046035767,0.84,-0.55,-0.08,1.0
7.513289928436279,0.58,-0.18,0.0,0.6
7.528357982635498,-0.07,0.16,0.62,0.64
7.529387950897217,-0.39,0.21,0.92,1.02
7.5449042320251465,-0.5,0.12,0.32,0.6
7.5459160804748535,-0.61,0.32,-0.27,0.73
7.560659885406494,-0.8,0.68,-0.55,1.18
7.58950400352478,-0.87,0.76,-0.57,1.28
7.59060001373291,-0.71,0.4,-1.13,1.39
7.591376066207886,-0.62,0.22,-1.67,1.79
7.613199234008789,-0.87,0.44,-1.56,1.83
7.614269018173218,-1.42,0.68,-1.14,1.94
7.628632068634033,-1.84,0.71,-0.73,2.1
7.629612922668457,-1.88,0.54,-0.44,2.0
7.645656108856201,-1.65,0.25,-0.46,1.73
7.647102117538452,-1.34,0.06,-0.52,1.43
7.661343097686768,-1.03,0.17,-0.35,1.1
7.691508054733276,-0.78,0.5,-0.15,0.93
7.692878007888794,-0.58,0.9,-0.21,1.09
7.693910121917725,-0.49,1.13,-0.24,1.25
7.712368011474609,-0.75,1.16,-0.16,1.39
7.713421106338501,-1.13,0.99,-0.04,1.5
7.728550910949707,-1.54,1.03,0.2,1.86
7.729595184326172,-1.68,1.42,0.17,2.2
7.745336055755615,-1.81,1.92,-0.3,2.65
7.746828079223633,-1.7,2.67,-0.59,3.21
7.760914087295532,-1.72,3.47,-0.99,3.99
7.791999101638794,-2.12,3.6,-1.12,4.32
7.793258190155029,-2.77,3.83,-0.6,4.76
7.794274091720581,-3.46,3.89,-0.51,5.23
7.812971115112305,-3.97,3.76,-0.76,5.52
7.814023971557617,-4.33,3.88,-1.15,5.92
7.8283281326293945,-4.79,4.55,-1.49,6.77
7.8293750286102295,-5.6,5.86,-1.79,8.3
7.845498085021973,-6.92,7.49,-2.07,10.4
7.846980094909668,-8.62,9.48,-2.49,13.05
7.860958099365234,-10.39,11.6,-3.73,16.01
7.862476110458374,-12.13,12.69,-6.21,18.62
7.905138969421387,-13.33,12.53,-7.95,19.94
7.906306028366089,-14.06,11.99,-8.99,20.54
7.90730619430542,-14.27,12.97,-8.9,21.23
7.909523963928223,-11.7,17.46,-6.38,21.96
7.910996913909912,-5.4,20.07,-7.18,21.98
7.912398099899292,-0.47,15.24,-9.77,18.1
7.920309066772461,1.0,7.94,-8.81,11.9
7.930403232574463,-1.48,2.02,-6.26,6.74
7.9402899742126465,-3.76,-1.92,-3.96,5.78
7.9501872062683105,1.72,1.79,-1.07,2.7
7.982407093048096,6.2,0.2,4.97,7.94
7.983541011810303,2.01,-5.05,-0.5,5.45
7.984340190887451,-4.97,-5.28,-2.84,7.78
7.994026184082031,-9.13,-3.68,0.8,9.87
7.999632120132446,-11.71,-3.37,0.51,12.19
8.01181697845459,-13.59,-3.92,-0.58,14.15
8.019532203674316,-14.26,-4.84,-0.59,15.07
8.029490947723389,-12.73,-5.5,1.21,13.92
8.039310932159424,-9.93,-6.22,3.21,12.14
8.049458026885986,-8.14,-7.42,3.69,11.61
8.080276012420654,-7.66,-8.12,3.71,11.76
8.081463098526001,-7.82,-7.7,3.43,11.49
8.082281112670898,-7.96,-6.64,2.8,10.73
8.096293926239014,-7.76,-5.83,1.89,9.88
8.098834991455078,-7.29,-5.13,0.78,8.94
8.112035036087036,-6.6,-4.5,0.05,7.98
8.119015216827393,-5.74,-4.27,-0.56,7.17
8.128732204437256,-4.73,-4.34,-0.94,6.48
8.138708114624023,-3.73,-4.56,-1.06,5.98
8.148898124694824,-2.83,-4.75,-0.81,5.58
8.18212604522705,-1.78,-4.71,-0.15,5.03
8.18326997756958,-0.43,-4.24,0.88,4.35
8.184040069580078,1.06,-3.67,0.88,3.92
8.196146965026855,2.6,-3.05,0.01,4.0
8.198153018951416,4.1,-1.91,-0.36,4.53
8.212180137634277,5.79,-0.09,0.54,5.81
8.21796989440918,8.25,2.47,2.61,8.99
8.227941036224365,11.09,4.37,3.76,12.49
8.23807406425476,13.08,5.11,3.99,14.59
8.248157024383545,13.98,6.45,4.16,15.94
8.28644323348999,14.91,7.77,3.74,17.22
8.287796974182129,16.04,7.55,2.47,17.89
8.288792133331299,17.72,7.63,2.21,19.41
8.291359901428223,18.98,8.07,1.23,20.66
8.312271118164062,20.19,7.35,1.48,21.53
8.313318014144897,21.01,5.91,1.92,21.9
8.328186988830566,19.7,6.59,1.01,20.79
8.329192161560059,15.41,8.08,-2.4,17.56
8.344579219818115,3.65,-5.28,-8.65,10.77
8.347326040267944,-10.99,1.28,-16.03,19.47
8.3888521194458,-13.39,35.21,-5.65,38.09
8.390045166015625,-11.09,45.94,5.22,47.54
8.390914916992188,-6.71,13.86,-6.03,16.53
8.393001079559326,-0.79,-2.54,-0.81,2.78
8.396559238433838,2.87,-9.17,6.88,11.81
8.406748056411743,7.86,-9.86,6.41,14.14
8.416880130767822,10.06,-11.27,1.83,15.21
8.426721096038818,11.39,-9.41,1.52,14.85
8.436554908752441,9.6,-2.48,2.93,10.33
8.446486949920654,5.26,1.45,0.57,5.48
8.483643054962158,1.34,2.93,-1.65,3.61
8.48460602760315,-1.42,4.27,-3.76,5.86
8.485424995422363,-2.86,3.03,-2.71,4.97
8.496164083480835,-0.92,0.97,2.1,2.48
8.497232913970947,1.82,-1.51,2.96,3.78
8.512217044830322,3.05,-2.64,1.48,4.29
8.515673160552979,2.64,-1.72,0.12,3.15
8.526447057723999,1.09,-0.06,-0.27,1.12
8.535775184631348,0.03,0.53,-0.34,0.63
8.545460224151611,-0.07,0.25,-0.24,0.35
8.58363389968872,0.61,-0.04,0.03,0.61
8.584877014160156,1.01,-0.18,0.01,1.02
8.58565902709961,0.74,-0.02,0.04,0.74
8.59635591506958,0.23,0.17,0.1,0.3
8.597400188446045,-0.07,0.3,0.41,0.51
8.612460136413574,-0.06,0.23,0.36,0.43
8.615045070648193,0.02,0.0,0.0,0.02
8.628849029541016,-0.09,-0.04,-0.1,0.14
8.635266065597534,-0.42,0.07,-0.14,0.44
8.645128011703491,-0.55,0.1,-0.36,0.66
8.65519905090332,-0.33,0.15,-0.55,0.65
8.687408924102783,-0.09,0.2,-0.49,0.53
8.688321113586426,-0.1,0.33,-0.09,0.35
8.6893310546875,-0.39,0.46,0.23,0.64
8.694331169128418,-0.86,0.7,0.39,1.17
8.712699890136719,-1.32,0.89,0.21,1.6
8.714189052581787,-1.63,0.88,-0.31,1.87
8.728940963745117,-1.65,0.66,-0.75,1.92
8.734133005142212,-1.53,0.45,-0.66,1.72
8.744502067565918,-1.54,0.28,-0.59,1.67
8.754478931427002,-1.53,0.3,-0.79,1.74
8.786762237548828,-1.2,0.59,-1.07,1.71
8.787744045257568,-0.81,0.97,-1.17,1.72
8.788743019104004,-0.84,1.33,-0.82,1.77
8.793417930603027,-1.34,1.78,-0.22,2.23
8.812784194946289,-1.79,1.93,0.15,2.63
8.813867092132568,-2.37,2.31,0.36,3.32
8.82883596420288,-2.67,2.76,0.25,3.84
8.83346700668335,-2.53,2.99,0.0,3.91
8.843236923217773,-2.46,2.95,-0.34,3.85
8.853378057479858,-2.43,2.94,-1.03,3.95
8.887986183166504,-2.47,3.14,-1.32,4.2
8.888966083526611,-2.79,3.58,-1.2,4.69
8.890268087387085,-3.42,4.0,-1.01,5.35
8.892775058746338,-4.51,4.58,-0.85,6.48
8.903039932250977,-5.96,5.65,-0.89,8.26
8.912976026535034,-7.46,7.07,-1.3,10.35
8.922781944274902,-8.88,9.05,-1.6,12.77
8.932899951934814,-10.51,11.3,-2.82,15.68
8.942943096160889,-12.11,12.58,-5.08,18.18
8.953455924987793,-13.46,12.65,-6.39,19.54
8.984475135803223,-14.46,12.45,-6.84,20.27
8.985608100891113,-15.11,13.31,-5.46,20.86
8.986502170562744,-12.51,17.86,-2.9,21.99
8.992466926574707,-5.8,18.89,-6.56,20.82
9.002485036849976,-0.08,14.94,-10.65,18.34
9.012530088424683,1.68,9.49,-7.6,12.27
9.022234916687012,-1.0,3.72,-5.49,6.7
9.031929016113281,-4.13,-0.79,-3.82,5.68
9.041996955871582,-0.7,-0.87,-5.03,5.15
9.052172183990479,7.12,2.2,0.28,7.45
9.092718124389648,7.37,-2.19,2.41,8.05
9.094029903411865,-0.02,-4.85,-4.91,6.9
9.09506106376648,-6.54,-4.2,-2.52,8.17
9.113415241241455,-10.12,-3.6,-1.15,10.8
9.114469051361084,-12.82,-3.73,-2.5,13.58
9.129256010055542,-14.46,-4.02,-3.14,15.33
9.130255222320557,-14.21,-4.19,-2.24,14.98
9.14539098739624,-11.03,-4.28,0.17,11.83
9.146889209747314,-7.58,-5.43,1.41,9.43
9.161695957183838,-5.99,-6.95,1.35,9.27
9.194845199584961,-5.81,-7.53,1.44,9.61
9.196160078048706,-6.11,-6.96,1.77,9.42
9.19716501235962,-6.4,-6.15,1.46,8.99
9.21316909790039,-6.21,-5.74,0.54,8.47
9.214248180389404,-5.69,-5.29,-0.67,7.79
9.229059219360352,-5.27,-4.64,-1.65,7.21
9.23008108139038,-5.15,-4.19,-2.31,7.02
9.246546030044556,-5.19,-4.08,-2.54,7.07
9.248049020767212,-4.88,-4.1,-2.28,6.76
9.261577129364014,-3.83,-4.64,-1.84,6.29
9.292322158813477,-2.33,-5.25,-1.57,5.95
9.293683052062988,-0.92,-5.23,-1.43,5.49
9.294693946838379,0.31,-4.67,-1.2,4.83
9.313100099563599,1.7,-3.85,-1.91,4.62
9.314168930053711,3.5,-2.91,-3.06,5.48
9.329040050506592,5.7,-1.79,-3.5,6.92
9.330076217651367,8.57,-0.27,-3.41,9.22
9.346231937408447,11.71,1.84,-2.18,12.05
9.347708225250244,14.42,3.67,-0.62,14.89
9.361801147460938,15.72,4.95,0.19,16.48
9.3907630443573,15.82,6.31,0.99,17.06
9.391968011856079,15.81,7.37,1.64,17.52
9.392779111862183,16.44,7.64,1.03,18.15
9.412906169891357,17.53,8.35,0.82,19.43
9.413908958435059,18.56,8.66,1.04,20.5
9.429419040679932,19.99,8.21,2.54,21.75
9.430444240570068,20.51,7.06,2.8,21.87
9.445969104766846,16.48,8.06,3.26,18.63
9.447321891784668,8.66,10.54,4.66,14.41
9.461774110794067,-0.35,0.03,0.66,0.74
9.463281154632568,-12.26,1.8,-5.21,13.44
9.508548021316528,-14.53,22.68,-2.19,27.02
9.509718894958496,-9.49,33.78,7.05,35.78
9.510766983032227,-5.4,15.62,-2.04,16.65
9.529670238494873,0.3,-0.04,-2.96,2.97
9.530709028244019,4.32,-5.38,2.65,7.39
9.545780181884766,8.95,-4.71,4.57,11.09
9.546824932098389,10.84,-6.65,1.73,12.83
9.564290046691895,10.99,-6.44,-1.79,12.86
9.565698146820068,9.7,-1.56,-1.36,9.91
9.578750133514404,6.22,2.14,-0.96,6.64
9.608763217926025,2.14,1.37,-2.55,3.59
9.609904050827026,-0.65,1.16,-2.08,2.46
9.610719203948975,-1.91,1.95,0.34,2.75
9.629798889160156,-1.51,0.83,2.56,3.08
9.630834102630615,0.05,-1.33,2.66,2.97
9.646040916442871,1.83,-2.12,1.21,3.05
9.64707088470459,2.19,-1.33,0.11,2.56
9.663249015808105,1.56,-0.12,-0.4,1.61
9.664234161376953,1.0,0.18,-0.34,1.07
9.677657127380371,0.5,-0.04,0.59,0.77
9.706289052963257,0.51,-0.27,1.01,1.16
9.707441091537476,0.81,-0.34,0.07,0.88
9.708271026611328,0.85,-0.09,-1.02,1.33
9.729837894439697,0.59,0.28,-1.12,1.29
9.730856895446777,0.09,0.35,-0.21,0.41
9.74607801437378,-0.23,0.16,0.98,1.01
9.747135162353516,-0.36,-0.01,1.33,1.37
9.762640953063965,-0.34,-0.07,0.71,0.79
9.763686180114746,-0.14,0.03,-0.07,0.15
9.778633117675781,0.07,0.11,-0.51,0.52
9.806993007659912,-0.03,0.22,-0.46,0.51
9.808116912841797,-0.33,0.4,-0.38,0.64
9.808874130249023,-0.66,0.59,-0.38,0.96
9.829854965209961,-0.96,0.86,-0.17,1.3
9.830900192260742,-1.27,0.98,-0.22,1.61
9.846082210540771,-1.62,0.96,-0.72,2.01
9.847101211547852,-1.78,0.83,-0.92,2.16
9.862974166870117,-1.8,0.55,-0.71,2.01
9.863996028900146,-1.78,0.21,-0.45,1.84
9.878705978393555,-1.64,0.18,-0.4,1.69
9.9083890914917,-1.18,0.78,-0.73,1.59
9.909634113311768,-0.78,1.36,-1.23,1.99
9.91043996810913,-0.87,1.7,-1.29,2.3
9.929924964904785,-1.8,1.89,-0.64,2.68
9.931064128875732,-2.73,2.37,0.19,3.62
9.94609022140503,-3.05,2.55,0.04,3.97
9.947143077850342,-2.74,2.88,-0.26,3.98
9.962897062301636,-2.39,3.02,-0.68,3.91
9.963970184326172,-2.3,3.22,-1.13,4.11
9.978770017623901,-2.47,3.27,-1.28,4.29
10.00726318359375,-2.95,3.46,-1.18,4.69
10.008388996124268,-3.62,3.71,-1.24,5.32
10.009199142456055,-4.44,4.0,-1.45,6.14
10.030307054519653,-5.3,4.73,-1.5,7.26
10.031315088272095,-6.44,6.04,-1.61,8.97
10.046152114868164,-7.79,7.56,-2.02,11.04
10.047210216522217,-9.21,9.94,-2.54,13.78
10.05994200706482,-10.64,12.13,-4.95,16.87
10.061025142669678,-11.93,12.2,-7.34,18.57
10.076582908630371,-12.78,11.81,-7.69,19.02
10.104465007781982,-13.46,11.53,-7.89,19.4
10.105639934539795,-13.32,13.51,-6.46,20.04
10.106486082077026,-9.18,18.39,-5.13,21.18
10.108907222747803,-3.0,18.33,-8.96,20.62
10.129514217376709,0.19,11.33,-10.47,15.42
10.130507946014404,-0.38,5.07,-8.69,10.06
10.146643161773682,-4.04,0.41,-5.22,6.61
10.1476891040802,-4.45,-2.61,-4.22,6.66
10.161826133728027,2.77,1.57,-1.65,3.58
10.162898063659668,6.58,-0.64,3.58,7.51
10.206447124481201,1.5,-5.44,-2.75,6.27
10.207406997680664,-5.55,-5.5,-3.59,8.59
10.208203077316284,-9.55,-4.4,-0.34,10.52
10.230195999145508,-12.18,-4.05,-0.49,12.84
10.231203079223633,-13.88,-4.04,-0.9,14.48
10.246181964874268,-13.95,-4.46,-0.47,14.65
10.247230052947998,-11.33,-5.25,0.81,12.51
10.26314115524292,-7.95,-6.34,1.57,10.28
10.264148235321045,-5.98,-7.47,1.38,9.66
10.279134035110474,-5.43,-7.55,1.64,9.44
10.280607223510742,-5.64,-6.57,1.86,8.85
10.327277183532715,-5.68,-5.91,1.51,8.33
10.328376054763794,-5.2,-5.54,0.46,7.61
10.329353094100952,-4.77,-4.84,-0.41,6.8
10.345938205718994,-4.53,-4.0,-0.83,6.09
10.347024917602539,-4.29,-3.46,-1.34,5.67
10.361119031906128,-3.87,-3.43,-2.09,5.57
10.362103939056396,-3.1,-3.61,-2.54,5.39
10.376812934875488,-1.99,-3.9,-2.58,5.08
10.378200054168701,-0.97,-4.01,-1.87,4.52
10.393027067184448,-0.17,-3.76,-0.83,3.85
10.42329216003418,0.63,-3.34,-0.3,3.41
10.42462706565857,1.79,-2.65,-0.72,3.27
10.425600051879883,3.36,-1.86,-1.27,4.04
10.443099021911621,5.27,-1.2,-1.39,5.58
10.44410514831543,7.37,0.06,-0.57,7.39
10.460430145263672,9.1,1.93,0.6,9.32
10.461417198181152,10.59,3.38,1.48,11.21
10.47683310508728,11.66,4.21,1.3,12.46
10.478249073028564,12.35,5.4,1.35,13.54
10.492944240570068,13.2,7.06,0.96,15.0
10.523725986480713,14.35,8.47,0.74,16.67
10.525168895721436,16.16,9.32,0.61,18.66
10.526166915893555,18.14,9.27,0.65,20.38
10.548439025878906,19.47,8.08,1.04,21.1
10.549484014511108,19.99,6.34,2.76,21.15
10.563107967376709,19.2,5.36,3.98,20.32
10.564160108566284,14.43,8.92,4.03,17.43
10.579594135284424,8.88,6.46,2.45,11.25
10.581135034561157,0.11,-2.52,-2.21,3.35
10.594306945800781,-11.27,2.86,-6.54,13.34
10.624680042266846,-12.66,24.8,-1.16,27.86
10.625997066497803,-9.41,34.59,4.38,36.11
10.626816034317017,-5.61,13.04,-3.57,14.63
10.647134065628052,-0.06,-1.6,-2.91,3.32
10.648190975189209,3.24,-7.01,2.04,7.98
10.663163185119629,8.12,-7.1,4.23,11.58
10.664183139801025,10.02,-8.83,2.27,13.54
10.67991018295288,10.8,-6.71,0.4,12.72
10.68096923828125,8.84,-0.34,1.68,9.0
10.695549011230469,4.99,2.4,0.24,5.54
10.725356101989746,1.23,1.01,-2.36,2.84
10.72645616531372,-1.23,0.99,-1.9,2.47
10.727269172668457,-1.95,1.92,1.36,3.05
10.747008085250854,-0.96,0.75,3.45,3.65
10.74804401397705,0.9,-1.4,2.2,2.75
10.762928009033203,2.1,-1.78,0.13,2.75
10.763841152191162,1.91,-0.74,-1.03,2.29
10.779754161834717,1.09,0.02,-1.07,1.52
10.780786991119385,0.4,-0.02,-0.48,0.62
10.795419216156006,0.41,-0.34,-0.09,0.54
10.825149059295654,0.87,-0.38,0.01,0.94
10.826348066329956,1.09,-0.13,0.07,1.09
10.827144145965576,0.97,-0.02,0.16,0.98
10.847008228302002,0.64,-0.1,0.34,0.73
10.848082065582275,0.29,-0.08,0.47,0.55
10.86318302154541,0.0,0.07,0.55,0.55
10.864098072052002,-0.07,0.11,0.46,0.47
10.879903078079224,-0.02,0.0,0.27,0.27
10.880948066711426,0.03,-0.04,-0.12,0.13
10.894958972930908,-0.03,-0.02,-0.75,0.75
10.924999237060547,-0.22,0.17,-0.83,0.87
10.92609691619873,-0.42,0.42,-0.46,0.75
10.92685317993164,-0.6,0.46,0.05,0.75
10.947325229644775,-0.66,0.38,0.35,0.83
10.94833517074585,-0.59,0.37,0.47,0.84
10.963243961334229,-0.48,0.38,0.21,0.64
10.96427607536316,-0.62,0.39,-0.31,0.79
10.980051040649414,-0.93,0.53,-0.76,1.31
10.981060028076172,-1.16,0.6,-1.01,1.65
10.995719909667969,-1.3,0.71,-0.72,1.64
11.025297164916992,-1.39,0.63,-0.53,1.61
11.026465892791748,-1.55,0.58,-0.57,1.75
11.027263164520264,-1.7,0.78,-0.76,2.01
11.046986103057861,-1.89,1.08,-0.87,2.34
11.048068046569824,-1.87,1.46,-0.77,2.49
11.063254117965698,-1.44,1.64,-0.94,2.37
11.064290046691895,-1.24,1.44,-1.37,2.34
11.080118179321289,-1.48,1.9,-1.07,2.63
11.081132888793945,-1.75,2.25,-1.16,3.07
11.09575891494751,-1.87,3.17,-0.81,3.76
11.097218990325928,-2.21,3.59,-0.79,4.28
11.143439054489136,-2.77,3.95,-0.55,4.85
11.144561052322388,-3.36,4.1,-0.49,5.32
11.145601034164429,-3.82,4.22,-0.76,5.74
11.164061069488525,-4.01,4.5,-1.2,6.14
11.165143013000488,-4.15,5.22,-1.33,6.79
11.180187225341797,-4.74,6.03,-1.52,7.81
11.18128490447998,-5.88,7.39,-1.53,9.56
11.197123050689697,-7.47,8.87,-2.22,11.8
11.198583126068115,-9.54,10.05,-3.98,14.41
11.212643146514893,-11.38,11.1,-5.51,16.82
11.243019104003906,-12.37,11.46,-7.4,18.41
11.24423599243164,-12.52,10.34,-9.09,18.6
11.245140075683594,-12.35,9.23,-9.75,18.24
11.264031887054443,-11.29,11.41,-6.76,17.41
11.265074014663696,-7.01,17.18,-3.55,18.89
11.28017520904541,-1.67,17.68,-6.25,18.82
11.281224012374878,1.18,10.67,-9.62,14.41
11.296474933624268,-0.4,4.19,-9.8,10.66
11.297502994537354,-5.19,0.4,-6.1,8.01
11.312668085098267,-5.16,-0.8,-2.25,5.68
11.345132112503052,2.73,3.56,2.29,5.03
11.346236228942871,6.1,-0.84,4.37,7.55
11.347050189971924,1.24,-5.05,-1.61,5.44
11.364121913909912,-5.24,-4.5,-1.07,6.98
11.365166187286377,-9.29,-3.49,1.83,10.09
11.380206108093262,-12.34,-3.4,0.94,12.83
11.381227016448975,-14.59,-3.54,-0.23,15.01
11.396728038787842,-15.46,-3.82,-0.2,15.92
11.397780895233154,-13.66,-4.26,0.95,14.34
11.41276502609253,-9.84,-5.04,1.96,11.22
11.444289207458496,-7.0,-6.34,2.44,9.75
11.445334911346436,-5.82,-7.28,2.92,9.76
11.446155071258545,-5.96,-7.3,3.07,9.91
11.463910102844238,-6.27,-6.91,2.63,9.69
11.464981079101562,-6.2,-6.35,1.58,9.01
11.480262041091919,-5.89,-5.6,0.43,8.13
11.481301069259644,-5.36,-4.81,-0.32,7.2
11.496596097946167,-4.57,-4.77,-1.19,6.71
11.497611999511719,-3.72,-5.45,-2.19,6.95
11.512641906738281,-2.89,-5.9,-2.42,7.0
11.543517112731934,-2.06,-5.89,-2.0,6.55
11.544878959655762,-1.24,-5.43,-0.82,5.62
11.545709133148193,-0.16,-4.83,-0.2,4.83
11.56400203704834,1.42,-4.18,-0.16,4.41
11.56502389907837,2.96,-2.96,-0.06,4.18
11.58046007156372,4.25,-1.41,0.33,4.48
11.58146619796753,5.65,0.68,1.61,5.91
11.596615076065063,7.1,3.19,3.54,8.55
11.597657203674316,8.33,4.95,5.24,11.01
11.612907886505127,9.3,5.39,5.89,12.25
11.64148998260498,9.9,5.57,4.62,12.26
11.642537117004395,10.54,7.26,3.53,13.27
11.643364906311035,11.57,9.54,2.25,15.16
11.664048194885254,14.13,13.05,0.73,19.24
11.665113925933838,18.04,14.09,-1.75,22.95
11.679075241088867,22.03,11.43,-2.25,24.92
11.68008804321289,23.86,8.99,-0.51,25.5
11.696863174438477,23.66,9.78,0.67,25.61
11.697949886322021,20.93,0.76,-3.47,21.22
11.712938070297241,6.97,-9.66,-8.66,14.72
11.741333961486816,-8.46,-1.01,-10.29,13.35
11.742463111877441,-11.91,28.11,2.83,30.65
11.743310928344727,-9.68,39.19,8.56,41.26
11.76416802406311,-6.63,13.91,-4.29,15.99
11.76521921157837,-0.44,-1.74,-1.44,2.3
11.780770063400269,4.16,-6.09,3.23,8.05
11.781852006912231,7.91,-8.79,2.07,12.0
11.79699420928955,10.43,-10.02,-1.01,14.49
11.797996044158936,11.59,-5.33,1.2,12.81
11.81321406364441,8.41,-0.5,0.96,8.47
11.843525886535645,3.97,1.36,-0.98,4.3
11.844647884368896,0.65,2.68,-2.1,3.46
11.84547209739685,-1.71,2.59,-2.0,3.69
11.864097118377686,-2.23,1.97,0.17,2.98
11.865027904510498,-0.87,0.38,1.83,2.06
11.880481004714966,0.69,-1.84,1.84,2.69
11.88156008720398,1.65,-2.25,1.66,3.24
11.897181987762451,1.17,-1.17,1.27,2.08
11.898193120956421,0.34,-0.14,-0.1,0.38
11.912458896636963,0.29,0.37,-1.24,1.32
11.913501024246216,0.41,0.42,-1.15,1.29
11.9633150100708,0.63,0.05,-0.5,0.8
11.964462041854858,0.94,-0.39,0.12,1.02
11.965474128723145,0.9,-0.36,0.57,1.12
11.981388092041016,0.54,-0.13,0.62,0.83
11.982484102249146,0.15,0.05,0.36,0.39
11.996822118759155,0.04,0.12,0.14,0.18
11.997868061065674,0.02,0.05,0.13,0.14
12.014004230499268,-0.12,0.07,0.21,0.25
12.015489101409912,-0.29,0.09,-0.02,0.3
12.02924919128418,-0.2,-0.02,-0.72,0.74
12.064436912536621,-0.07,0.13,-0.85,0.86
12.065730094909668,-0.25,0.39,-0.4,0.61
12.066758155822754,-0.65,0.52,0.01,0.83
12.081664085388184,-0.97,0.59,0.25,1.16
12.082671165466309,-1.09,0.72,0.27,1.33
12.097123146057129,-1.21,0.82,-0.06,1.46
12.09821891784668,-1.46,0.73,-0.51,1.71
12.11401891708374,-1.68,0.67,-0.6,1.9
12.115076065063477,-1.73,0.52,-0.83,1.98
12.129693031311035,-1.58,0.46,-0.92,1.88
12.16384506225586,-1.35,0.7,-0.99,1.81
12.165131092071533,-1.21,1.04,-1.05,1.91
12.165910005569458,-1.34,1.3,-1.01,2.12
12.181183099746704,-1.64,1.54,-0.81,2.39
12.182290077209473,-1.81,1.74,-0.65,2.59
12.196990013122559,-2.19,1.82,-0.56,2.9
12.198020935058594,-2.44,2.23,-0.51,3.34
12.213911056518555,-2.5,2.57,-0.88,3.69
12.21487307548523,-2.35,3.24,-0.74,4.07
12.229419231414795,-2.33,3.69,-0.44,4.38
12.261744022369385,-2.69,4.01,-0.37,4.84
12.262814044952393,-3.4,4.13,-0.53,5.37
12.263636112213135,-4.05,4.41,-0.68,6.02
12.277729988098145,-4.65,5.08,-0.76,6.92
12.278816223144531,-5.4,5.96,-1.13,8.12
12.293750047683716,-6.46,7.26,-1.7,9.86
12.29482102394104,-8.13,9.33,-2.68,12.66
12.310532093048096,-10.0,11.42,-4.3,15.77
12.311593055725098,-11.72,12.81,-6.13,18.41
12.329511165618896,-12.91,13.01,-7.68,19.87
12.36144495010376,-13.47,12.02,-8.77,20.07
12.362608909606934,-13.61,11.57,-8.65,19.84
12.363428115844727,-11.84,14.77,-5.96,19.84
12.38127613067627,-5.93,18.3,-6.05,20.16
12.382328033447266,-0.13,15.03,-9.4,17.72
12.396625995635986,1.9,7.64,-8.49,11.57
12.397690057754517,-0.76,2.31,-6.44,6.88
12.413762092590332,-5.05,-1.85,-3.33,6.32
12.414807081222534,-2.88,-2.64,-2.31,4.53
12.429742097854614,5.03,0.81,2.39,5.62
12.459657192230225,5.95,-3.79,2.4,7.45
12.460859060287476,-1.15,-5.91,-3.66,7.04
12.461657047271729,-7.19,-5.06,-1.55,8.92
12.48121690750122,-10.61,-4.61,-0.64,11.58
12.482250213623047,-13.31,-4.68,-1.93,14.24
12.49683403968811,-14.93,-4.6,-1.98,15.74
12.49787712097168,-14.82,-4.79,-1.25,15.62
12.515108108520508,-11.95,-4.96,0.24,12.94
12.516120910644531,-8.35,-5.63,1.34,10.15
12.52858591079712,-6.22,-6.83,1.48,9.35
12.558157920837402,-5.59,-7.09,1.73,9.19
12.559250116348267,-5.92,-6.33,1.82,8.85
12.560054063796997,-6.04,-5.68,1.13,8.36
12.581532955169678,-5.48,-4.97,0.0,7.39
12.582560062408447,-4.74,-4.05,-0.95,6.3
12.597033977508545,-3.85,-3.63,-2.19,5.72
12.598098039627075,-2.81,-3.33,-3.34,5.49
12.61424708366394,-1.94,-3.0,-4.09,5.43
12.61556601524353,-1.45,-2.86,-4.46,5.49
12.62996506690979,-1.09,-2.82,-4.18,5.15
12.663274049758911,-0.54,-2.73,-2.65,3.84
12.66444706916809,0.43,-2.74,-1.21,3.02
12.665251016616821,2.02,-2.81,-0.83,3.55
12.681868076324463,3.72,-2.62,-0.7,4.6
12.682862043380737,5.04,-1.89,-0.68,5.42
12.697465896606445,5.84,-0.28,0.24,5.85
12.69851803779602,6.81,1.88,1.85,7.3
12.714197158813477,8.61,3.44,2.98,9.73
12.715227127075195,10.82,4.12,2.88,11.93
12.729837894439697,12.67,5.22,2.29,13.89
12.731257915496826,14.31,7.15,1.64,16.08
12.766726970672607,16.27,8.79,1.42,18.54
12.767673015594482,18.55,8.95,1.28,20.63
12.769432067871094,20.55,8.01,1.51,22.1
12.78055715560913,21.53,6.72,2.25,22.66
12.781658172607422,21.25,4.88,3.96,22.15
12.797176122665405,19.27,3.44,5.19,20.25
12.798204898834229,14.42,6.31,4.7,16.42
12.814702033996582,8.82,3.22,2.1,9.62
12.816205978393555,-1.32,-4.57,-2.73,5.48
12.830150127410889,-12.93,5.81,-6.63,15.64
12.8649001121521,-12.89,32.03,1.68,34.56
12.866275072097778,-10.63,37.05,4.71,38.83
12.867209911346436,-5.94,10.47,-6.21,13.54
12.881829023361206,2.42,1.66,-4.64,5.49
12.882895946502686,5.58,-5.79,1.31,8.14
12.897280216217041,7.89,-10.36,4.43,13.75
12.89827823638916,9.74,-11.09,2.32,14.94
12.914484024047852,10.56,-8.63,1.46,13.71
12.915533065795898,8.26,-2.63,2.66,9.06
12.930013179779053,3.46,1.42,1.48,4.02
12.961376190185547,-0.16,2.82,-1.16,3.05
12.962509155273438,-2.47,2.32,-2.86,4.43
12.963335990905762,-2.59,1.94,-0.58,3.28
12.982017040252686,-0.26,1.06,2.07,2.34
12.983061075210571,1.78,-0.98,1.34,2.43
12.99742317199707,2.25,-1.71,0.5,2.86
12.998444080352783,1.44,-1.04,-0.26,1.79
13.014133930206299,0.67,-0.19,-0.25,0.73
13.015212059020996,0.62,0.05,-0.04,0.62
13.02973222732544,1.14,-0.31,-0.33,1.22
13.059205055236816,1.36,-0.35,-0.39,1.45
13.060389995574951,1.04,-0.07,0.04,1.04
13.061161994934082,0.59,0.03,0.37,0.69
13.081363201141357,0.38,-0.08,0.44,0.58
13.082229137420654,0.36,-0.13,0.42,0.56
13.097578048706055,0.26,-0.12,0.3,0.41
13.098598957061768,-0.05,-0.05,0.24,0.25
13.11442518234253,-0.42,0.13,0.21,0.48
13.115458965301514,-0.56,0.25,0.1,0.62
13.129670143127441,-0.48,0.3,-0.25,0.61
13.158291101455688,-0.36,0.31,-0.62,0.78
13.160216093063354,-0.26,0.38,-0.6,0.75
13.16102123260498,-0.22,0.41,-0.28,0.54
13.18149209022522,-0.42,0.37,0.13,0.57
13.182566165924072,-0.71,0.36,0.31,0.85
13.197914123535156,-0.91,0.38,0.17,1.0
13.198937892913818,-0.99,0.42,-0.36,1.13
13.214301109313965,-1.0,0.51,-0.7,1.32
13.215313911437988,-0.95,0.6,-0.67,1.3
13.230006217956543,-0.98,0.66,-0.26,1.2
13.262161016464233,-1.16,0.63,-0.17,1.33
13.26325011253357,-1.51,0.68,-0.37,1.69
13.264072895050049,-2.01,1.09,-0.45,2.33
13.281569957733154,-2.46,1.55,-0.59,2.96
13.282588958740234,-2.52,1.92,-0.82,3.27
13.297806024551392,-2.15,2.37,-1.08,3.37
13.298832893371582,-1.55,2.24,-1.77,3.24
13.314433097839355,-1.23,2.69,-1.34,3.24
13.31536602973938,-1.69,3.08,-1.0,3.65
13.329627990722656,-2.55,3.73,-0.55,4.55
13.358293056488037,-3.36,4.16,-0.62,5.38
13.359445095062256,-3.78,4.59,-0.85,6.0
13.360258102416992,-4.0,4.83,-1.54,6.45
13.377963066101074,-4.16,5.09,-2.09,6.89
13.37908411026001,-4.61,5.81,-2.52,7.83
13.39777421951294,-5.79,7.08,-2.93,9.6
13.398827075958252,-7.53,9.32,-2.57,12.25
13.414575099945068,-9.6,12.22,-2.87,15.8
13.41562008857727,-11.51,12.98,-5.58,18.22
13.428669929504395,-12.75,12.47,-7.84,19.48
13.457908153533936,-13.18,11.66,-8.61,19.59
13.459024906158447,-13.13,10.63,-9.74,19.5
13.459827899932861,-12.45,12.56,-8.09,19.44
13.462025165557861,-8.5,18.41,-3.6,20.59
13.463128089904785,-2.78,18.42,-4.61,19.19
13.464291095733643,0.41,8.95,-8.55,12.38
13.465426921844482,0.14,2.22,-8.17,8.46
13.466599941253662,-3.24,-1.39,-4.81,5.96
13.467752933502197,-3.38,-3.26,-2.62,5.37
13.468915939331055,3.78,0.67,1.88,4.27
13.478804111480713,6.62,-3.08,4.06,8.35
13.505543231964111,0.69,-6.63,-2.39,7.08
13.506424903869629,-6.29,-5.95,-1.97,8.87
13.508459091186523,-10.3,-4.7,0.4,11.32
13.51844596862793,-13.14,-4.05,-0.12,13.75
13.53105902671814,-15.1,-3.79,-0.76,15.58
13.538465023040771,-15.82,-3.85,-0.68,16.29
13.548147201538086,-13.69,-3.88,0.5,14.23
13.558078050613403,-9.55,-4.53,1.54,10.68
13.568356037139893,-6.7,-5.96,1.81,9.14
13.578282117843628,-5.69,-6.82,2.12,9.13
13.608388900756836,-5.94,-6.57,2.33,9.15
13.609244108200073,-6.06,-5.88,1.71,8.61
13.609994888305664,-5.73,-5.23,0.55,7.77
13.631753921508789,-5.5,-4.46,-0.36,7.09
13.63261103630066,-5.24,-3.72,-1.1,6.51
13.647748947143555,-4.56,-3.15,-1.71,5.8
13.648601055145264,-3.45,-2.86,-2.44,5.1
13.663727045059204,-2.07,-2.73,-2.75,4.39
13.667398929595947,-0.64,-2.94,-2.68,4.02
13.679573059082031,0.41,-3.56,-2.53,4.38
13.708061218261719,1.15,-3.78,-1.64,4.27
13.709172010421753,1.7,-3.24,-0.5,3.69
13.709887981414795,2.47,-2.38,-0.27,3.44
13.731510162353516,3.78,-1.47,-0.74,4.12
13.732397079467773,5.16,-0.41,-0.84,5.24
13.747791051864624,6.77,1.48,0.56,6.95
13.748834133148193,8.18,4.08,2.12,9.38
13.764916896820068,9.79,6.34,3.53,12.18
13.766753196716309,11.32,7.17,3.47,13.84
13.78013300895691,12.81,7.36,3.41,15.16
13.808763980865479,14.06,7.37,2.38,16.05
13.809903144836426,15.55,7.34,1.41,17.25
13.810712099075317,17.72,7.76,0.73,19.35
13.831410884857178,19.66,7.33,0.18,20.98
13.832321166992188,21.04,6.1,0.81,21.92
13.847860097885132,21.73,4.12,2.27,22.23
13.8489089012146,19.77,3.82,3.19,20.38
13.864873886108398,13.56,5.29,2.45,14.76
13.865888118743896,3.17,-4.64,-1.5,5.81
13.880218029022217,-10.02,-2.91,-7.92,13.09
13.915312051773071,-15.29,22.95,-5.49,28.11
13.916362047195435,-12.01,44.11,8.79,46.55
13.91719388961792,-10.32,20.19,-2.1,22.77
13.932491064071655,-2.39,-0.35,-2.86,3.74
13.933588027954102,5.7,-1.8,2.77,6.58
13.947923183441162,9.83,-7.95,6.47,14.2
13.948966979980469,12.03,-11.21,2.94,16.7
13.964430093765259,12.98,-8.95,-0.06,15.76
13.965492010116577,11.7,-3.67,1.67,12.37
13.980547904968262,7.05,0.0,0.49,7.06
14.016167163848877,2.08,1.53,-2.61,3.67
14.017282962799072,-1.1,2.69,-3.43,4.49
14.018113136291504,-2.94,2.71,-1.4,4.23
14.031873226165771,-2.06,1.73,2.57,3.72
14.032729148864746,0.06,-0.82,3.14,3.24
14.047910213470459,1.92,-2.36,1.3,3.3
14.048968076705933,2.2,-1.54,-0.44,2.72
14.0646231174469,1.09,0.21,-1.0,1.49
14.065670013427734,0.26,0.8,-0.57,1.01
14.0802481174469,0.37,0.16,0.12,0.42
14.112219095230103,0.87,-0.57,0.08,1.04
14.113306045532227,1.11,-0.78,-0.24,1.37
14.114192962646484,0.83,-0.54,-0.36,1.05
14.131976127624512,0.25,-0.18,-0.46,0.55
14.132838010787964,-0.09,0.18,-0.09,0.22
14.147861003875732,-0.08,0.22,0.46,0.51
14.148898124694824,-0.06,0.11,0.7,0.71
14.164399147033691,-0.26,0.11,0.46,0.53
14.165359020233154,-0.6,0.16,0.32,0.69
14.180239200592041,-0.57,0.07,-0.68,0.89
14.213076114654541,-0.23,0.09,-1.25,1.27
14.214148998260498,-0.25,0.53,-0.44,0.73
14.214936017990112,-0.7,0.53,0.34,0.94
14.231866121292114,-1.04,0.5,0.29,1.18
14.232738018035889,-1.25,0.47,-0.18,1.34
14.247928142547607,-1.29,0.6,-0.52,1.51
14.248984098434448,-1.26,0.75,-0.34,1.5
14.264541149139404,-1.23,0.51,-0.43,1.39
14.265567064285278,-1.27,0.19,-0.73,1.47
14.280318021774292,-1.32,0.25,-0.86,1.59
14.282871007919312,-1.31,0.69,-0.83,1.69
14.328622102737427,-1.27,1.2,-1.01,2.01
14.329576015472412,-1.49,1.5,-0.94,2.31
14.330379009246826,-1.72,1.64,-0.64,2.46
14.348860025405884,-1.76,1.67,-0.34,2.44
14.349899053573608,-1.69,1.75,-0.25,2.44
14.36437201499939,-1.8,2.02,-0.24,2.71
14.365415096282959,-1.86,2.61,-0.12,3.2
14.381381034851074,-2.24,3.3,-0.55,4.02
14.382421016693115,-2.22,3.53,-0.97,4.28
14.3971529006958,-2.58,3.74,-1.16,4.68
14.427587032318115,-3.0,3.86,-1.44,5.09
14.428752899169922,-3.51,4.18,-1.51,5.66
14.429502010345459,-4.19,4.89,-1.59,6.63
14.448745012283325,-5.18,5.85,-1.9,8.04
14.4497652053833,-6.6,7.49,-1.78,10.14
14.464523077011108,-8.03,9.68,-2.01,12.73
14.465550899505615,-9.76,10.95,-3.89,15.17
14.479219913482666,-11.66,11.88,-5.34,17.48
14.480287075042725,-12.84,12.77,-5.82,19.02
14.494635105133057,-13.4,12.35,-6.89,19.48
14.52388620376587,-13.79,11.08,-7.69,19.28
14.524936199188232,-12.79,13.19,-5.81,19.26
14.525759220123291,-7.47,17.81,-4.82,19.9
14.528240203857422,-1.03,17.26,-8.09,19.08
14.530823230743408,1.75,9.92,-8.26,13.02
14.541070938110352,-0.02,3.31,-7.41,8.11
14.551064014434814,-4.58,-0.48,-4.21,6.23
14.561036109924316,-4.34,-2.52,-2.98,5.83
14.570624113082886,3.8,1.33,0.34,4.04
14.580780029296875,6.95,-2.12,3.53,8.07
14.61316704750061,0.67,-5.56,-2.65,6.19
14.614142894744873,-6.4,-5.11,-1.76,8.37
14.614975929260254,-10.39,-4.6,0.73,11.38
14.631954193115234,-13.18,-4.45,0.14,13.91
14.63279390335083,-15.05,-4.53,-0.28,15.71
14.64816403388977,-15.6,-4.91,-0.04,16.35
14.650017023086548,-13.34,-5.22,1.3,14.38
14.665061950683594,-9.35,-5.52,2.42,11.12
14.67019510269165,-6.88,-6.34,2.34,9.64
14.680548191070557,-6.12,-6.63,2.13,9.27
14.71898102760315,-6.0,-5.83,1.68,8.53
14.720095157623291,-5.59,-5.09,0.96,7.62
14.720920085906982,-5.13,-4.74,-0.02,6.98
14.721771240234375,-4.76,-4.38,-0.86,6.52
14.732608079910278,-4.3,-3.99,-1.56,6.06
14.739551067352295,-3.74,-3.77,-2.11,5.71
14.749359130859375,-3.13,-3.98,-2.6,5.69
14.759681224822998,-2.44,-4.47,-2.77,5.79
14.769464015960693,-1.66,-4.89,-2.67,5.81
14.779282093048096,-0.87,-5.07,-2.01,5.52
14.816861152648926,-0.08,-4.89,-0.85,4.96
14.817876100540161,0.64,-4.4,-0.16,4.44
14.818662166595459,1.38,-3.56,-0.48,3.84
14.83218002319336,2.13,-2.48,-0.99,3.41
14.833041191101074,2.72,-0.91,-0.88,3.0
14.848296165466309,3.85,1.75,0.67,4.28
14.84935998916626,6.0,4.84,2.07,7.98
14.865035057067871,8.82,6.82,1.95,11.31
14.868443965911865,11.55,7.65,0.76,13.87
14.880635023117065,13.96,8.6,-0.17,16.39
14.917371034622192,16.14,9.29,-0.82,18.64
14.918528079986572,18.37,9.39,-1.07,20.65
14.919415950775146,20.53,8.71,-1.08,22.32
14.932452201843262,22.59,7.64,-0.47,23.85
14.933332920074463,24.17,5.93,2.12,24.97
14.948650121688843,23.48,3.43,4.24,24.1
14.949719905853271,17.85,6.14,5.06,19.54
14.964996099472046,10.87,4.8,3.79,12.47
14.967753887176514,1.34,-5.28,-1.36,5.61
14.980587005615234,-11.67,0.55,-6.29,13.26
15.015598058700562,-14.7,26.33,-1.77,30.2
15.016688108444214,-11.25,40.9,6.47,42.9
15.017510890960693,-8.68,14.04,-4.98,17.24
15.032443046569824,-1.05,-0.81,-3.38,3.63
15.033302068710327,6.04,-2.41,1.4,6.65
15.048173904418945,9.9,-8.06,4.45,13.51
15.049216032028198,11.58,-10.89,2.05,16.02
15.06510305404663,12.28,-7.9,0.78,14.62
15.067039966583252,9.65,-1.81,2.61,10.15
15.080393075942993,4.41,0.27,0.28,4.42
15.08698320388794,0.63,0.85,-1.75,2.04
15.125777006149292,-1.72,1.68,-1.26,2.71
15.12674617767334,-1.81,1.86,1.17,2.84
15.12755298614502,0.31,0.68,1.49,1.66
15.149293899536133,2.07,-0.77,0.5,2.26
15.15034818649292,2.19,-1.01,0.32,2.43
15.165096044540405,0.91,-0.69,0.6,1.29
15.166126012802124,0.01,-0.32,0.63,0.7
15.182021141052246,0.31,0.05,0.19,0.36
15.183080196380615,0.81,0.16,-0.07,0.82
15.197705030441284,0.84,-0.04,-0.4,0.93
15.228761196136475,0.51,-0.08,-0.69,0.86
15.229854106903076,0.14,0.07,-0.89,0.9
15.230677127838135,0.04,0.14,-0.78,0.79
15.248963117599487,0.02,0.09,-0.06,0.11
15.250021934509277,0.03,-0.11,0.69,0.69
15.265224933624268,-0.02,-0.17,0.89,0.9
15.26625394821167,-0.05,-0.04,0.4,0.4
15.281857013702393,-0.05,0.1,-0.13,0.17
15.282776117324829,-0.18,0.25,-0.13,0.33
15.296313047409058,-0.33,0.3,-0.11,0.45
15.325697898864746,-0.54,0.26,-0.21,0.63
15.326891899108887,-0.57,0.47,-0.34,0.81
15.32766604423523,-0.65,0.77,-0.38,1.07
15.349694013595581,-0.94,0.94,-0.3,1.36
15.350689888000488,-1.23,0.92,-0.28,1.56
15.365638017654419,-1.39,0.82,-0.11,1.61
15.366612911224365,-1.42,0.51,-0.2,1.52
15.382420063018799,-1.45,0.25,-0.58,1.58
15.38343095779419,-1.45,0.43,-0.89,1.75
15.397333145141602,-1.35,0.87,-1.19,1.99
15.425795078277588,-1.34,1.2,-1.45,2.31
15.427021026611328,-1.79,1.63,-1.12,2.66
15.427853107452393,-2.16,1.98,-0.71,3.01
15.449146032333374,-2.21,2.25,-0.67,3.22
15.449975967407227,-1.92,2.74,-0.67,3.41
15.466272115707397,-1.78,3.04,-0.4,3.54
15.467278003692627,-2.07,3.26,-0.14,3.86
15.48126220703125,-2.67,3.32,-0.16,4.26
15.482259035110474,-3.31,3.58,-0.35,4.88
15.497512102127075,-3.73,4.03,-0.95,5.57
15.526196002960205,-3.99,4.51,-1.7,6.25
15.52742600440979,-4.31,5.08,-2.12,6.99
15.528210163116455,-5.01,6.18,-1.69,8.13
15.548971176147461,-6.36,7.64,-0.9,9.98
15.549837112426758,-8.38,9.95,-0.41,13.01
15.56369400024414,-10.92,12.82,-1.53,16.9
15.564755916595459,-13.04,14.58,-4.36,20.04
15.57918119430542,-14.67,14.84,-6.88,21.97
15.580219030380249,-15.77,13.89,-8.47,22.65
15.595026016235352,-15.6,14.6,-7.51,22.64
15.621637105941772,-11.36,18.34,-5.51,22.26
15.622694969177246,-3.55,18.93,-8.95,21.23
15.623585224151611,1.09,13.23,-9.35,16.23
15.628535032272339,0.72,5.84,-7.71,9.69
15.632678985595703,-4.03,0.71,-6.31,7.52
15.648782014846802,-5.43,-2.04,-3.02,6.53
15.652724027633667,3.32,2.9,-0.23,4.41
15.665782928466797,9.48,0.23,4.17,10.35
15.672806024551392,6.58,-5.97,-1.4,8.99
15.682315111160278,-1.29,-6.47,-4.6,8.04
15.719594955444336,-7.08,-4.84,-0.78,8.61
15.721257209777832,-10.02,-4.73,-0.85,11.11
15.722057104110718,-11.7,-5.17,-2.01,12.94
15.731130123138428,-12.27,-5.88,-2.53,13.83
15.731935024261475,-11.34,-6.06,-1.0,12.89
15.748708009719849,-9.34,-6.05,1.42,11.21
15.751956939697266,-7.93,-6.84,2.52,10.77
15.765262126922607,-7.44,-7.43,2.72,10.86
15.772097110748291,-7.3,-7.1,2.88,10.58
15.781568050384521,-7.01,-6.31,2.45,9.74
15.818449974060059,-6.44,-5.81,1.22,8.75
15.819508075714111,-6.06,-5.45,0.06,8.15
15.82035493850708,-6.01,-4.98,-0.94,7.86
15.83242416381836,-5.75,-4.37,-1.68,7.41
15.833281993865967,-5.1,-3.88,-2.32,6.81
15.84882402420044,-4.06,-3.71,-2.61,6.08
15.851139068603516,-2.78,-4.05,-2.44,5.48
15.865386962890625,-1.75,-4.8,-2.27,5.59
15.871025085449219,-1.08,-5.43,-1.85,5.83
15.88100290298462,-0.63,-5.21,-0.89,5.32
15.891135215759277,-0.19,-4.38,-0.29,4.39
15.924295902252197,0.96,-3.35,-0.66,3.54
15.925268173217773,2.76,-2.4,-1.04,3.8
15.926377058029175,4.92,-1.18,-0.65,5.1
15.930495023727417,7.02,0.46,0.57,7.05
15.940462112426758,8.67,2.34,1.87,9.17
15.950604915618896,9.65,4.01,2.47,10.73
15.960571050643921,10.25,4.83,2.09,11.52
15.970638036727905,11.47,5.43,1.26,12.75
15.98053503036499,13.17,6.19,0.15,14.55
15.990279197692871,15.53,7.72,-0.8,17.36
16.022385120391846,18.56,9.44,-1.49,20.87
16.023590087890625,21.78,9.92,-1.8,24.0
16.02443218231201,24.14,8.65,-1.42,25.68
16.029733180999756,25.57,6.4,0.66,26.36
16.04605007171631,23.48,4.45,3.79,24.19
16.049690008163452,12.53,7.98,6.69,16.29
16.06558108329773,1.16,2.55,4.42,5.23
16.069693088531494,-10.18,-1.61,-2.22,10.54
16.08110809326172,-17.43,12.54,-6.0,22.29
16.089625120162964,-15.2,31.44,1.94,34.97
16.119564056396484,-11.75,25.55,0.27,28.12
16.120523929595947,-4.95,3.63,-3.59,7.11
16.12154197692871,2.93,-1.78,1.24,3.64
16.133790016174316,9.37,-3.55,5.51,11.43
16.13906717300415,11.75,-8.68,3.94,15.13
16.149007081985474,12.88,-9.29,-1.54,15.95
16.158910036087036,12.94,-4.38,-0.8,13.68
16.16901206970215,9.24,0.72,0.18,9.26
16.179023027420044,3.44,1.06,-1.88,4.06
16.18880319595337,-0.23,1.26,-2.4,2.72
16.2205650806427,-2.33,2.07,-1.38,3.4
16.221795082092285,-2.27,2.19,1.15,3.35
16.22260093688965,-0.54,0.18,1.97,2.05
16.232908010482788,1.43,-1.78,1.6,2.78
16.238451957702637,2.35,-2.0,1.23,3.32
16.248762130737305,1.68,-0.9,0.71,2.03
16.258245944976807,0.96,0.04,-0.13,0.96
16.268383979797363,1.04,0.28,-0.15,1.08
16.278234004974365,1.17,-0.17,0.61,1.33
16.288379192352295,0.96,-0.65,0.62,1.31
16.326176166534424,0.6,-0.54,-0.25,0.84
16.32737398147583,0.26,0.06,-1.0,1.03
16.328174114227295,0.12,0.42,-1.15,1.23
16.34951400756836,0.02,0.34,-0.29,0.44
16.3505539894104,-0.18,-0.01,0.41,0.44
16.365949153900146,-0.44,-0.12,0.64,0.78
16.367001056671143,-0.75,0.06,0.17,0.77
16.382307052612305,-0.88,0.35,-0.4,1.02
16.38334012031555,-0.87,0.64,-0.43,1.16
16.398054122924805,-0.84,0.59,-0.41,1.1
16.4253511428833,-0.76,0.43,-0.45,0.98
16.426563024520874,-0.78,0.45,-0.48,1.02
16.427348136901855,-0.91,0.49,-0.52,1.15
16.429420948028564,-1.09,0.57,-0.58,1.35
16.436872959136963,-1.4,0.73,-0.51,1.65
16.44715905189514,-1.71,0.78,-0.63,1.98
16.456735134124756,-1.76,0.64,-0.81,2.04
16.466969966888428,-1.66,0.42,-0.88,1.92
16.47652816772461,-1.41,0.42,-0.7,1.62
16.4866361618042,-1.01,0.64,-0.54,1.31
16.521294116973877,-0.96,0.98,-0.42,1.43
16.522496223449707,-1.17,1.44,-0.37,1.89
16.523290157318115,-1.35,1.63,-0.61,2.2
16.532845973968506,-1.45,1.72,-0.78,2.38
16.536002159118652,-1.69,2.35,-0.54,2.94
16.548988103866577,-1.99,3.08,-0.51,3.7
16.55591106414795,-2.35,3.99,-0.44,4.65
16.56593894958496,-3.03,4.37,-0.44,5.33
16.57586407661438,-3.58,4.72,-0.49,5.94
16.585583209991455,-4.21,5.2,-1.1,6.78
16.6238431930542,-4.89,5.94,-1.89,7.92
16.62499189376831,-5.58,7.5,-2.55,9.68
16.625783920288086,-6.3,9.55,-3.66,12.01
16.628798961639404,-7.23,10.9,-5.32,14.12
16.649252891540527,-8.8,12.21,-5.91,16.16
16.650330066680908,-10.66,13.12,-6.09,17.96
16.66283893585205,-11.75,12.89,-7.25,18.88
16.665122032165527,-12.01,11.02,-8.66,18.45
16.681828022003174,-12.07,9.6,-9.15,17.93
16.68491005897522,-11.22,12.51,-6.01,17.84
16.6975679397583,-6.79,19.12,-2.93,20.5
16.728086948394775,-0.41,18.33,-7.79,19.92
16.729401111602783,2.23,8.01,-10.84,13.66
16.730224132537842,-0.55,-0.18,-7.46,7.48
16.749633073806763,-4.53,-3.93,-3.41,6.89
16.750672101974487,-0.2,0.25,2.3,2.32
16.765806198120117,4.16,-1.93,6.42,7.88
16.76687002182007,0.1,-6.17,-0.78,6.21
16.782636165618896,-5.18,-5.32,-2.1,7.71
16.784154891967773,-8.07,-3.22,0.58,8.7
16.798139095306396,-10.45,-2.73,-0.73,10.82
16.826382160186768,-11.92,-2.79,-1.51,12.33
16.82750105857849,-11.52,-2.75,-0.85,11.87
16.82831621170044,-9.07,-3.46,0.26,9.71
16.850018978118896,-6.85,-5.03,1.38,8.6
16.851116180419922,-6.14,-6.55,2.0,9.19
16.864954948425293,-6.29,-7.41,2.39,10.0
16.865997076034546,-6.54,-7.49,2.34,10.21
16.883085012435913,-6.52,-7.07,1.91,9.8
16.884087085723877,-6.12,-6.38,1.18,8.91
16.898255109786987,-5.54,-5.72,0.49,7.97
16.9293110370636,-5.15,-5.39,0.1,7.45
16.93061113357544,-5.11,-5.32,0.02,7.37
16.931605100631714,-5.16,-5.53,0.1,7.56
16.95011615753174,-5.1,-5.83,0.35,7.75
16.951134204864502,-4.7,-6.06,0.52,7.68
16.965813159942627,-3.95,-6.38,0.28,7.5
16.966844081878662,-3.16,-6.59,0.02,7.3
16.982827186584473,-2.57,-6.21,0.13,6.72
16.9839129447937,-2.19,-5.37,0.61,5.83
16.998291015625,-1.87,-4.47,0.74,4.9
17.027410984039307,-0.95,-3.3,0.61,3.48
17.02862000465393,1.01,-1.83,0.6,2.17
17.029426097869873,3.57,-0.37,0.64,3.64
17.049678087234497,6.25,1.74,1.24,6.6
17.050724983215332,8.37,4.36,1.46,9.54
17.06598997116089,9.84,6.71,1.7,12.03
17.067019939422607,10.96,8.56,1.69,14.0
17.082547187805176,12.31,9.61,1.36,15.67
17.083587169647217,13.38,9.42,0.5,16.37
17.09847593307495,14.28,8.99,0.26,16.87
17.13006591796875,14.66,8.33,0.46,16.86
17.13138508796692,15.14,7.81,0.91,17.06
17.132205963134766,15.6,7.2,0.94,17.2
17.15016007423401,13.79,10.68,0.19,17.44
17.15120792388916,12.84,12.1,-1.21,17.68
17.16599416732788,9.87,5.79,-7.57,13.72
17.16702699661255,-1.68,2.84,-6.21,7.03
17.182916164398193,-8.88,19.13,0.74,21.1
17.18395209312439,-5.7,28.47,3.58,29.25
17.198431968688965,-1.83,11.33,-3.12,11.89
17.229060173034668,1.57,-1.11,-4.48,4.87
17.230156898498535,3.67,-5.29,1.54,6.62
17.230971097946167,8.39,-2.68,5.77,10.52
17.24986219406128,12.2,-3.58,5.08,13.69
17.250914096832275,11.37,-5.48,-0.87,12.65
17.26599407196045,8.63,-0.12,0.15,8.63
17.267009019851685,3.96,0.14,1.19,4.13
17.28269910812378,0.61,-0.97,0.35,1.19
17.283731937408447,-0.92,0.42,0.43,1.09
17.298638105392456,-0.9,1.37,0.25,1.65
17.327550888061523,0.02,0.76,0.07,0.76
17.328744888305664,1.24,-0.59,0.43,1.43
17.329610109329224,2.37,-1.53,1.19,3.06
17.349801063537598,2.5,-1.42,1.4,3.19
17.35082507133484,1.64,-0.81,0.47,1.88
17.36607313156128,0.84,-0.07,-0.23,0.87
17.36711311340332,0.3,0.42,-0.28,0.58
17.38264799118042,0.39,0.22,-0.16,0.47
17.383695125579834,0.96,-0.15,-0.02,0.97
17.39853811264038,1.22,-0.31,0.14,1.26
17.430264949798584,1.02,-0.31,0.53,1.19
17.431692123413086,0.8,-0.55,0.75,1.22
17.43269395828247,0.74,-0.7,0.57,1.16
17.450797080993652,0.64,-0.47,0.11,0.8
17.4518141746521,0.31,-0.02,0.06,0.31
17.464128017425537,-0.1,0.25,0.3,0.4
17.465163230895996,-0.38,0.24,0.33,0.55
17.48307991027832,-0.5,0.35,0.01,0.61
17.484557151794434,-0.24,0.46,-0.73,0.89
17.498577117919922,-0.14,0.55,-1.25,1.37
17.500030994415283,-0.5,0.7,-1.11,1.4
17.54574203491211,-0.9,0.7,-0.68,1.32
17.54683804512024,-0.98,0.6,-0.08,1.15
17.547856092453003,-0.78,0.41,0.3,0.93
17.566862106323242,-0.53,0.24,0.3,0.65
17.567802906036377,-0.43,0.28,0.0,0.51
17.582444190979004,-0.33,0.61,-0.42,0.81
17.583482027053833,-0.41,0.76,-0.75,1.14
17.599740982055664,-0.61,0.86,-0.68,1.25
17.601229190826416,-0.98,0.85,-0.22,1.31
17.615575075149536,-1.34,0.77,-0.04,1.54
17.64578914642334,-1.23,0.77,-0.43,1.51
17.647045135498047,-0.94,0.78,-1.13,1.66
17.6480450630188,-0.65,1.27,-1.33,1.95
17.666816234588623,-0.81,1.64,-1.4,2.3
17.667850017547607,-1.57,1.97,-0.91,2.67
17.68302011489868,-2.63,2.3,-0.46,3.52
17.684011936187744,-3.43,2.69,0.03,4.35
17.699460983276367,-3.89,3.32,0.2,5.11
17.70090913772583,-3.77,3.97,-0.28,5.48
17.715562105178833,-3.5,4.42,-1.45,5.82
17.744720935821533,-3.56,5.09,-2.19,6.58
17.746116161346436,-4.21,6.08,-2.68,7.86
17.746910095214844,-5.39,7.42,-3.11,9.68
17.767282962799072,-6.92,10.05,-3.1,12.58
17.768360137939453,-8.42,12.09,-4.92,15.53
17.780169010162354,-9.76,12.68,-6.9,17.42
17.781280994415283,-10.37,13.21,-6.73,18.09
17.79961609840393,-10.66,13.01,-7.28,18.32
17.800697088241577,-11.18,11.19,-8.46,17.93
17.81568193435669,-11.78,9.99,-9.08,17.91
17.845032215118408,-11.43,13.0,-6.45,18.47
17.846312999725342,-7.5,19.52,-4.15,21.31
17.847309112548828,-1.42,19.78,-8.07,21.41
17.86683201789856,0.94,9.85,-10.98,14.78
17.867862224578857,-2.11,1.15,-8.42,8.75
17.883030891418457,-6.04,-3.39,-3.87,7.93
17.884079933166504,-2.14,0.0,1.24,2.47
17.899607181549072,3.43,-1.07,5.4,6.48
17.9006609916687,0.81,-6.09,-1.17,6.25
17.915600061416626,-4.58,-5.88,-3.0,8.03
17.94620990753174,-7.88,-3.74,0.15,8.72
17.947525024414062,-10.15,-3.12,-0.73,10.64
17.948538064956665,-11.75,-3.32,-1.81,12.34
17.966811180114746,-11.81,-3.4,-1.25,12.35
17.96787405014038,-9.95,-4.12,0.07,10.76
17.98311996459961,-7.62,-5.38,1.3,9.41
17.98417615890503,-6.37,-6.73,2.17,9.51
17.999783992767334,-6.05,-7.35,2.78,9.91
18.001243114471436,-6.22,-6.95,2.96,9.78
18.015429973602295,-6.29,-6.13,2.3,9.07
18.04582118988037,-6.02,-5.34,1.05,8.11
18.047023057937622,-5.68,-4.29,0.09,7.11
18.04784917831421,-5.24,-3.39,-0.44,6.25
18.066781997680664,-4.69,-2.95,-0.72,5.58
18.067817211151123,-4.24,-3.02,-1.0,5.3
18.082503080368042,-3.9,-3.37,-0.94,5.23
18.08358097076416,-3.6,-3.8,-0.5,5.25
18.099953174591064,-3.24,-4.25,0.0,5.34
18.10138511657715,-2.77,-4.6,0.35,5.38
18.115617036819458,-2.37,-4.69,0.48,5.27
18.143648147583008,-2.08,-4.12,0.99,4.72
18.144794940948486,-1.74,-3.12,1.67,3.94
18.14555597305298,-1.01,-2.16,1.72,2.94
18.16695213317871,0.46,-1.34,1.56,2.1
18.16799306869507,2.45,-0.41,1.52,2.91
18.183317184448242,4.97,1.29,2.13,5.55
18.184401035308838,7.9,3.31,2.35,8.88
18.198888063430786,10.73,4.67,2.31,11.92
18.199929237365723,12.97,5.88,2.38,14.43
18.21554207801819,14.62,6.76,1.99,16.22
18.2442569732666,16.11,7.15,1.37,17.67
18.245561122894287,17.33,7.28,0.09,18.79
18.246385097503662,19.16,6.79,-0.17,20.32
18.26679801940918,20.83,5.56,-0.38,21.56
18.26787805557251,21.82,4.2,0.42,22.22
18.283273220062256,20.0,8.17,0.17,21.6
18.284271240234375,15.25,6.95,-4.41,17.32
18.30008602142334,2.03,2.63,-7.68,8.36
18.301167964935303,-7.92,24.28,-1.42,25.57
18.315646171569824,-7.7,49.37,3.42,50.08
18.31714391708374,-5.57,14.32,-6.68,16.75
18.36018204689026,3.1,-2.67,-5.34,6.72
18.361321926116943,10.12,-1.14,2.14,10.4
18.36228108406067,12.13,-7.83,6.48,15.82
18.364598035812378,11.4,-10.56,3.6,15.95
18.366032123565674,8.82,-4.85,4.01,10.83
18.367435932159424,4.89,-0.55,2.64,5.58
18.372314929962158,1.62,0.36,-0.75,1.82
18.382585048675537,-0.45,1.23,-2.14,2.5
18.392463207244873,-1.68,1.5,-0.62,2.33
18.402282238006592,-1.01,0.96,1.84,2.3
18.43119502067566,0.96,-0.44,1.4,1.75
18.432373046875,2.6,-1.0,-0.18,2.79
18.43324089050293,2.5,-0.82,-0.78,2.74
18.449152946472168,1.16,-0.57,-0.24,1.31
18.45180106163025,0.51,-0.4,0.63,0.9
18.465758085250854,0.56,-0.48,0.43,0.85
18.472010135650635,0.55,-0.01,0.01,0.55
18.48332905769348,0.23,0.45,-0.18,0.53
18.491791009902954,-0.04,0.44,-0.32,0.54
18.50173306465149,-0.12,0.39,-0.32,0.51
18.535434007644653,-0.19,0.26,-0.46,0.56
18.5364830493927,-0.27,0.2,-0.48,0.58
18.537265062332153,-0.4,0.3,-0.59,0.77
18.550920009613037,-0.23,0.17,-0.76,0.81
18.551974058151245,-0.09,-0.03,-0.58,0.58
18.566726207733154,-0.25,0.18,0.19,0.36
18.570941925048828,-0.47,0.36,0.62,0.85
18.583452224731445,-0.67,0.12,0.13,0.69
18.590789079666138,-0.39,0.05,-0.83,0.91
18.60073208808899,-0.16,0.34,-0.5,0.62
18.634172916412354,-0.01,0.44,0.13,0.45
18.635488033294678,-0.03,0.37,0.21,0.42
18.63650417327881,-0.22,0.45,-0.15,0.52
18.65087890625,-0.48,0.71,-0.14,0.86
18.651904106140137,-0.73,0.9,0.12,1.16
18.666680097579956,-0.98,0.76,0.26,1.26
18.670018196105957,-1.21,0.41,0.24,1.29
18.683454036712646,-1.37,0.26,-0.04,1.39
18.69043493270874,-1.47,0.75,-0.42,1.7
18.700013160705566,-1.18,1.39,-0.98,2.06
18.738972187042236,-1.15,1.73,-1.34,2.47
18.740334033966064,-1.66,1.8,-0.95,2.62
18.741433143615723,-2.29,1.88,-0.24,2.97
18.75083017349243,-2.28,1.55,-0.16,2.76
18.75183391571045,-1.34,1.3,-0.61,1.96
18.766939163208008,-0.46,1.59,-0.83,1.85
18.76949691772461,-0.48,1.96,-0.86,2.19
18.78364610671997,-1.35,2.56,-0.4,2.92
18.78947114944458,-2.52,3.21,0.02,4.08
18.799442052841187,-3.36,3.76,0.01,5.04
18.83722710609436,-4.01,4.35,-0.31,5.92
18.838510036468506,-4.64,5.27,-0.93,7.08
18.839510917663574,-5.39,6.25,-1.62,8.41
18.840579986572266,-6.54,7.68,-1.74,10.23
18.84880495071411,-8.24,9.7,-2.13,12.9
18.858896017074585,-10.0,11.4,-3.82,15.63
18.86890697479248,-11.62,12.03,-5.75,17.68
18.87954306602478,-12.96,12.37,-6.48,19.05
18.88858699798584,-13.86,12.53,-6.59,19.81
18.898340225219727,-13.3,14.86,-5.6,20.71
18.93557119369507,-9.31,18.38,-5.5,21.32
18.936670064926147,-2.36,18.02,-9.11,20.32
18.937506198883057,2.22,14.27,-8.97,17.0
18.95125389099121,1.35,8.57,-6.36,10.75
18.952263116836548,-3.27,3.65,-4.41,6.59
18.967031002044678,-5.85,-1.21,-3.5,6.92
18.968054056167603,0.96,1.42,-3.86,4.22
18.983551025390625,8.5,2.52,1.15,8.93
18.987905979156494,4.97,-3.26,-0.65,5.97
18.999093055725098,-3.82,-3.77,-3.56,6.44
19.035447120666504,-8.9,-2.78,-0.07,9.32
19.036617040634155,-11.98,-3.23,-1.03,12.45
19.037436962127686,-14.06,-3.63,-2.22,14.68
19.050856113433838,-14.5,-3.78,-1.9,15.1
19.051923036575317,-12.58,-4.11,0.32,13.23
19.06683921813965,-9.76,-5.14,2.69,11.35
19.067891120910645,-8.05,-6.92,3.4,11.14
19.082895040512085,-7.52,-8.22,3.59,11.7
19.087074041366577,-7.82,-8.15,3.06,11.7
19.09906506538391,-8.41,-7.22,2.28,11.31
19.107229232788086,-8.8,-6.02,1.02,10.71
19.14191198348999,-8.73,-4.66,-0.32,9.9
19.142887115478516,-7.95,-3.68,-1.33,8.86
19.143928050994873,-6.62,-3.26,-2.02,7.65
19.146666049957275,-5.08,-3.32,-2.03,6.39
19.167107105255127,-3.86,-3.81,-1.59,5.65
19.1681809425354,-3.0,-4.41,-1.09,5.44
19.183778047561646,-2.47,-4.81,-1.18,5.53
19.18637704849243,-2.04,-4.23,-1.25,4.85
19.199097156524658,-1.53,-3.15,-1.07,3.66
19.206444025039673,-0.45,-2.37,-1.23,2.7
19.241873025894165,1.11,-1.75,-1.55,2.58
19.243080139160156,2.68,-1.12,-1.38,3.21
19.244327068328857,4.55,0.41,-0.4,4.58
19.246519088745117,7.08,2.78,1.12,7.68
19.267223119735718,10.01,4.73,1.83,11.22
19.26827621459961,12.56,6.16,2.14,14.15
19.28385901451111,14.61,7.93,2.54,16.81
19.285568237304688,16.21,9.25,1.76,18.74
19.29902219772339,17.46,10.05,-0.18,20.14
19.306193113327026,19.5,10.41,-1.29,22.14
19.343521118164062,22.64,9.26,-1.94,24.53
19.34471106529236,24.74,6.8,-1.56,25.7
19.345689058303833,24.66,5.3,-0.15,25.22
19.347877025604248,21.52,9.06,0.98,23.36
19.35502815246582,12.95,-0.03,-3.41,13.39
19.365342140197754,-3.24,-5.08,-6.11,8.58
19.375038146972656,-13.47,15.78,-6.89,21.86
19.385212898254395,-10.29,40.11,4.39,41.64
19.395605087280273,-7.21,26.37,-0.75,27.34
19.405220985412598,-1.55,1.67,-7.18,7.53
19.434959888458252,3.24,-5.75,0.98,6.67
19.43610405921936,9.26,-6.09,5.97,12.58
19.43693494796753,13.73,-8.02,4.87,16.62
19.451061010360718,14.44,-8.49,1.57,16.82
19.454248905181885,11.43,-2.22,1.5,11.73
19.46705722808838,5.3,0.52,0.21,5.32
19.474390029907227,1.12,0.29,-1.82,2.15
19.484270095825195,-1.31,1.74,-2.42,3.25
19.49428105354309,-1.86,2.45,-0.08,3.07
19.50430393218994,0.03,0.97,1.97,2.19
19.54258108139038,1.86,-1.28,1.47,2.69
19.543893098831177,2.05,-1.97,0.84,2.96
19.544830083847046,0.99,-0.97,0.32,1.42
19.547184944152832,0.34,-0.11,-0.1,0.37
19.553603172302246,0.5,0.04,-0.3,0.58
19.563913106918335,0.96,-0.13,-0.16,0.98
19.573606967926025,1.05,-0.32,0.06,1.09
19.583741188049316,0.76,-0.13,0.25,0.81
19.59357213973999,0.47,0.02,0.15,0.49
19.60372018814087,0.3,0.08,-0.07,0.31
19.640854120254517,0.0,0.24,-0.22,0.32
19.642197132110596,-0.24,0.28,-0.37,0.52
19.643254041671753,-0.37,0.26,-0.22,0.5
19.646775007247925,-0.43,0.17,0.15,0.48
19.667219161987305,-0.45,0.04,0.01,0.45
19.668242931365967,-0.39,0.02,-0.47,0.61
19.683489084243774,-0.32,0.24,-0.62,0.73
19.684515953063965,-0.37,0.32,-0.54,0.72
19.699685096740723,-0.42,0.27,-0.16,0.52
19.702831029891968,-0.42,0.26,0.16,0.51
19.743417024612427,-0.27,0.26,0.06,0.37
19.744534015655518,-0.21,0.39,-0.15,0.46
19.745527029037476,-0.36,0.59,-0.25,0.73
19.747200965881348,-0.68,0.68,-0.25,0.99
19.752224922180176,-1.05,0.79,-0.2,1.32
19.76232624053955,-1.22,0.67,-0.49,1.47
19.772199153900146,-1.13,0.46,-0.88,1.5
19.782191038131714,-1.0,0.53,-1.04,1.53
19.79195499420166,-0.91,0.71,-0.92,1.47
19.801977157592773,-1.02,0.9,-0.66,1.51
19.838508129119873,-1.36,0.97,-0.74,1.82
19.839468002319336,-1.81,1.28,-0.63,2.3
19.8402681350708,-2.24,2.05,-0.22,3.04
19.8500919342041,-2.48,2.78,-0.24,3.73
19.85116410255432,-2.32,3.23,-0.35,3.99
19.867126941680908,-2.32,3.85,-0.51,4.52
19.871195077896118,-2.47,4.04,-0.69,4.78
19.883867025375366,-2.73,4.54,-0.8,5.35
19.89104413986206,-3.28,4.81,-1.05,5.91
19.901036024093628,-3.91,5.19,-1.07,6.58
19.91110610961914,-4.63,5.86,-1.33,7.58
19.942487239837646,-5.33,6.82,-1.65,8.81
19.943526029586792,-6.13,8.2,-2.3,10.49
19.944544076919556,-7.19,9.08,-3.75,12.17
19.95054292678833,-8.7,10.01,-4.99,14.17
19.967638969421387,-10.14,10.98,-5.62,15.96
19.97046208381653,-11.13,11.5,-6.76,17.37
19.984057903289795,-11.61,10.81,-8.69,18.08
19.99042797088623,-12.03,10.65,-9.63,18.73
20.00023603439331,-10.84,14.58,-6.93,19.44
20.010818004608154,-5.47,20.34,-5.49,21.76
20.04120922088623,-0.1,16.94,-9.06,19.21
20.042179107666016,1.16,7.76,-9.4,12.24
20.043172121047974,-2.11,2.3,-6.61,7.3
20.049747943878174,-5.61,-2.04,-2.24,6.37
20.067386150360107,-0.71,-0.35,0.38,0.87
20.069712162017822,7.09,1.04,3.73,8.07
20.08391308784485,5.4,-4.6,0.6,7.11
20.089608192443848,-2.6,-4.72,-2.93,6.13
20.099513053894043,-8.14,-3.2,0.35,8.75
20.11002206802368,-11.36,-3.18,0.11,11.79
20.139990091323853,-13.93,-3.36,-1.38,14.39
20.140984058380127,-15.25,-3.4,-1.2,15.67
20.142038106918335,-14.14,-3.75,0.02,14.62
20.149540901184082,-10.4,-4.35,1.6,11.38
20.159325122833252,-7.51,-5.59,2.28,9.63
20.169105052947998,-6.29,-6.71,2.69,9.58
20.179180145263672,-6.35,-6.91,3.07,9.87
20.188833236694336,-6.93,-6.48,2.9,9.92
20.199013233184814,-7.1,-6.12,1.82,9.54
20.209094047546387,-7.03,-5.63,0.58,9.02
20.240456104278564,-6.83,-4.9,-0.34,8.41
20.241745948791504,-6.38,-4.33,-0.85,7.75
20.24267816543579,-5.52,-4.22,-1.3,7.06
20.248841047286987,-4.32,-4.49,-1.43,6.39
20.267704963684082,-3.01,-5.01,-1.32,5.99
20.268742084503174,-1.78,-5.71,-1.43,6.14
20.284168004989624,-0.9,-5.9,-1.4,6.13
20.288022994995117,-0.34,-5.2,-1.16,5.33
20.298197031021118,0.15,-3.98,-1.18,4.15
20.30837392807007,1.03,-2.64,-1.61,3.25
20.3449649810791,2.37,-1.29,-1.8,3.24
20.346103191375732,4.05,0.02,-1.72,4.4
20.347109079360962,5.96,2.1,-0.42,6.33
20.36801815032959,8.05,4.73,0.78,9.36
20.369017124176025,10.34,6.47,1.38,12.27
20.38541316986084,12.43,6.71,1.23,14.17
20.386483192443848,14.03,6.58,0.25,15.49
20.40125799179077,15.43,7.39,-0.17,17.1
20.402750968933105,17.26,8.31,-1.45,19.21
20.416821002960205,19.68,8.55,-2.39,21.58
20.447300910949707,22.12,8.56,-2.41,23.84
20.448668003082275,23.53,7.26,-0.67,24.63
20.44970989227295,23.44,4.61,2.3,23.99
20.468006134033203,18.97,4.34,4.86,20.05
20.469065189361572,8.26,8.49,7.96,14.27
20.484189987182617,-1.29,1.39,5.24,5.57
20.48523998260498,-11.97,-1.36,-2.05,12.22
20.501192092895508,-17.9,13.98,-3.5,22.98
20.50274896621704,-13.93,32.66,5.78,35.97
20.514345169067383,-8.96,24.85,1.96,26.48
20.542509078979492,-2.28,2.33,-5.75,6.6
20.543700218200684,6.57,0.51,-1.26,6.7
20.544548988342285,11.61,-4.96,3.82,13.19
20.546809196472168,13.48,-9.32,2.22,16.53
20.567209005355835,13.4,-8.81,-0.45,16.04
20.568264961242676,11.4,-4.25,0.17,12.16
20.58402395248413,6.31,-0.6,-0.21,6.34
20.58583688735962,1.48,0.59,-1.3,2.05
20.59994912147522,-1.57,1.56,-1.2,2.51
20.606205940246582,-2.77,1.89,0.28,3.36
20.644239902496338,-1.54,1.45,2.06,2.95
20.645381927490234,0.6,-0.18,1.87,1.97
20.646347045898438,2.18,-1.37,0.9,2.72
20.64876890182495,2.3,-1.36,0.2,2.67
20.65550708770752,1.33,-0.63,0.24,1.49
20.66554307937622,0.43,-0.06,0.51,0.66
20.675529956817627,0.22,0.23,0.31,0.44
20.685287952423096,0.55,0.11,-0.12,0.57
20.695287227630615,0.86,-0.07,-0.63,1.06
20.70537519454956,0.88,-0.08,-1.04,1.36
20.715503215789795,0.56,-0.05,-1.1,1.23
20.74842596054077,0.15,0.06,-0.57,0.59
20.749608039855957,-0.13,0.07,0.06,0.15
20.75059700012207,-0.29,-0.03,0.59,0.65
20.76835608482361,-0.41,0.02,0.89,0.98
20.76935601234436,-0.44,0.13,0.73,0.86
20.784389972686768,-0.31,0.23,0.12,0.4
20.78543710708618,-0.17,0.25,-0.38,0.48
20.801552057266235,-0.31,0.27,-0.35,0.53
20.804569005966187,-0.52,0.29,-0.21,0.63
20.81687903404236,-0.68,0.32,-0.17,0.77
20.848905086517334,-0.81,0.5,-0.18,0.96
20.850158214569092,-1.0,0.75,-0.07,1.25
20.851166009902954,-1.12,0.9,0.06,1.43
20.86820697784424,-1.08,0.8,0.03,1.34
20.869224071502686,-0.9,0.47,-0.07,1.01
20.884443044662476,-0.74,0.22,-0.21,0.8
20.885478019714355,-0.67,0.14,-0.33,0.75
20.901197910308838,-0.8,0.38,-0.4,0.97
20.903772115707397,-1.04,0.84,-0.39,1.39
20.91686511039734,-1.39,1.19,-0.43,1.87
20.9475359916687,-2.02,1.73,-0.27,2.67
20.948836088180542,-2.25,2.06,-0.72,3.13
20.949871063232422,-1.98,2.19,-1.42,3.27
20.968156099319458,-1.28,2.89,-1.82,3.64
20.96921706199646,-1.0,3.27,-1.69,3.81
20.984410047531128,-1.58,3.59,-1.06,4.06
20.985441207885742,-2.52,3.67,-0.93,4.54
21.001401901245117,-3.17,3.88,-1.04,5.11
21.002942085266113,-3.48,4.43,-1.33,5.78
21.016932010650635,-3.76,4.97,-1.76,6.47
21.04676914215088,-4.19,5.52,-1.93,7.19
21.048139095306396,-5.11,6.6,-1.75,8.52
21.049105167388916,-6.74,8.17,-1.78,10.73
21.068285942077637,-8.72,10.27,-2.16,13.64
21.069348096847534,-10.52,12.02,-3.88,16.43
21.082242965698242,-11.69,12.61,-6.31,18.31
21.083280086517334,-12.08,12.27,-7.92,18.95
21.101726055145264,-12.28,11.15,-9.08,18.9
21.103236198425293,-12.3,12.44,-7.88,19.18
21.11720108985901,-9.3,17.57,-4.9,20.47
21.1513409614563,-2.97,19.75,-6.96,21.15
21.152590036392212,0.84,12.28,-10.2,15.98
21.15359592437744,0.26,5.14,-9.0,10.36
21.168691158294678,-4.01,1.21,-4.86,6.41
21.16971707344055,-5.32,-2.72,-2.23,6.37
21.184580087661743,2.15,0.47,-0.63,2.28
21.1856050491333,7.98,-0.39,2.9,8.49
21.201382160186768,3.75,-5.36,-1.35,6.67
21.20282793045044,-4.25,-5.23,-3.13,7.43
21.217069149017334,-9.11,-4.18,-0.21,10.02
21.25093412399292,-12.35,-4.24,-0.89,13.08
21.252283096313477,-14.61,-4.37,-1.58,15.33
21.25330114364624,-15.5,-4.44,-1.36,16.18
21.268367052078247,-13.62,-4.59,-0.09,14.37
21.269444942474365,-9.48,-5.1,1.38,10.85
21.28545904159546,-6.6,-6.57,1.67,9.46
21.28644895553589,-5.56,-7.74,2.0,9.73
21.30146312713623,-5.77,-7.46,2.55,9.76
21.302828073501587,-6.24,-6.63,2.24,9.37
21.3173189163208,-6.15,-6.1,1.15,8.73
21.350313186645508,-5.6,-5.3,0.02,7.71
21.351617097854614,-4.81,-4.36,-0.74,6.53
21.352622985839844,-4.04,-3.95,-1.49,5.84
21.37055492401123,-3.4,-4.03,-2.24,5.72
21.37160015106201,-2.95,-4.28,-2.58,5.8
21.384607076644897,-2.79,-4.6,-2.37,5.87
21.38567805290222,-2.9,-4.75,-1.64,5.8
21.401402950286865,-2.94,-4.58,-0.44,5.46
21.402873992919922,-2.38,-4.15,0.91,4.86
21.417299032211304,-0.83,-3.38,1.18,3.67
21.45002794265747,1.37,-2.63,0.47,3.0
21.451344966888428,3.66,-1.49,0.04,3.95
21.452367067337036,5.94,0.52,0.14,5.96
21.46847701072693,7.41,3.17,0.38,8.06
21.469518184661865,8.45,5.62,0.75,10.17
21.484610080718994,9.8,7.13,0.11,12.11
21.485668182373047,11.69,8.34,-0.55,14.37
21.501588106155396,13.45,9.69,-1.22,16.62
21.503101110458374,15.35,11.09,-1.18,18.97
21.51739811897278,17.02,10.46,-1.22,20.01
21.51921796798706,18.81,8.81,0.15,20.77
21.564888954162598,19.68,7.1,1.99,21.01
21.566036224365234,19.25,5.96,3.85,20.51
21.567051887512207,16.0,8.56,3.92,18.56
21.58549213409424,12.7,10.07,5.01,16.96
21.586523056030273,8.84,6.76,2.57,11.42
21.60149312019348,0.38,-3.07,-0.71,3.17
21.602989196777344,-9.63,4.55,-3.11,11.09
21.61856698989868,-8.33,26.59,3.91,28.13
21.620095014572144,-4.43,29.22,7.46,30.48
21.63270401954651,-1.78,4.98,-3.03,6.09
21.663143157958984,6.5,0.16,-4.29,7.78
21.66449809074402,10.17,-4.74,0.79,11.24
21.66550922393799,11.23,-6.79,3.18,13.5
21.68529510498047,10.05,-7.33,1.64,12.54
21.686347007751465,7.33,-4.29,0.66,8.51
21.701242923736572,3.75,0.4,0.18,3.77
21.70228600502014,1.03,1.63,-1.22,2.28
21.718812942504883,-0.55,1.03,-1.88,2.21
21.72029209136963,-0.79,1.08,-0.29,1.36
21.734069108963013,0.21,0.96,1.99,2.21
21.765724182128906,1.07,-0.38,2.57,2.8
21.766951084136963,1.47,-1.45,1.9,2.8
21.76785111427307,1.27,-1.21,0.39,1.79
21.785531997680664,0.8,-0.17,-0.35,0.88
21.7865309715271,0.57,0.32,-0.26,0.7
21.801489114761353,0.56,-0.04,0.05,0.56
21.802542209625244,0.52,-0.37,0.11,0.64
21.8178391456604,0.45,-0.41,-0.24,0.65
21.8193302154541,0.54,-0.3,-0.79,1.0
21.83409023284912,0.66,-0.01,-0.82,1.05
21.864949226379395,0.55,0.08,-0.5,0.74
21.866254091262817,0.25,0.06,0.13,0.28
21.867276191711426,-0.2,0.11,0.94,0.96
21.885404109954834,-0.51,0.13,1.06,1.18
21.886423110961914,-0.38,0.07,0.37,0.53
21.901284217834473,-0.03,0.11,-0.37,0.38
21.902339935302734,0.17,0.2,-0.66,0.71
21.918265104293823,-0.11,0.34,-0.59,0.68
21.919336080551147,-0.74,0.58,-0.43,1.03
21.934006214141846,-1.21,0.83,-0.51,1.55
21.96185803413391,-1.36,1.04,-0.65,1.83
21.962992191314697,-1.4,0.98,-0.73,1.85
21.963820934295654,-1.56,0.78,-0.55,1.82
21.985623121261597,-1.76,0.47,-0.45,1.87
21.98661994934082,-1.75,0.28,-0.53,1.84
22.001583099365234,-1.49,0.42,-0.48,1.62
22.002599239349365,-1.08,0.79,-0.58,1.45
22.01839303970337,-0.6,1.05,-0.81,1.45
22.019283056259155,-0.4,1.3,-0.83,1.59
22.03410506248474,-0.68,1.46,-0.73,1.76
22.062839031219482,-1.27,1.57,-0.44,2.06
22.064038038253784,-2.12,2.04,0.07,2.94
22.064823150634766,-2.54,2.56,-0.1,3.6
22.085355043411255,-2.54,3.23,-0.42,4.13
22.086318016052246,-2.5,3.35,-0.7,4.23
22.101378917694092,-2.31,3.71,-0.87,4.45
22.102400064468384,-2.48,3.72,-1.24,4.63
22.118205070495605,-3.09,3.79,-1.48,5.1
22.11919403076172,-3.91,4.09,-1.73,5.91
22.13428497314453,-4.64,4.83,-1.82,6.94
22.16356110572815,-5.5,6.07,-1.78,8.38
22.16469407081604,-6.63,7.49,-1.65,10.13
22.165525913238525,-8.17,9.41,-1.23,12.52
22.18356418609619,-9.95,11.77,-2.19,15.56
22.18462610244751,-11.73,12.81,-5.45,18.2
22.199063062667847,-13.0,12.35,-7.3,19.36
22.20016622543335,-14.02,11.39,-7.69,19.63
22.215956211090088,-14.76,12.27,-7.32,20.54
22.21703815460205,-12.62,17.23,-5.04,21.94
22.234018087387085,-5.58,20.3,-7.78,22.44
22.262744903564453,0.48,15.39,-11.66,19.31
22.2639741897583,2.04,8.48,-9.19,12.66
22.26478409767151,-1.84,2.9,-6.35,7.21
22.285439014434814,-5.76,-2.19,-3.4,7.03
22.286489963531494,-1.06,-0.69,-2.55,2.84
22.30144691467285,6.77,1.33,1.93,7.16
22.30250310897827,5.37,-4.09,-0.48,6.76
22.31846809387207,-2.37,-4.89,-4.57,7.1
22.319499015808105,-7.67,-3.43,-1.05,8.46
22.334052085876465,-10.79,-3.45,-1.09,11.38
22.3354811668396,-13.16,-3.83,-2.25,13.88
22.381540060043335,-14.06,-4.43,-2.07,14.88
22.38270092010498,-12.27,-5.21,-0.7,13.34
22.38373303413391,-8.68,-5.83,0.82,10.48
22.402245044708252,-6.17,-6.95,0.95,9.34
22.40330410003662,-4.98,-7.8,0.77,9.28
22.418289184570312,-4.75,-7.87,0.98,9.24
22.419316053390503,-4.93,-7.48,1.07,9.02
22.435466051101685,-5.01,-7.22,0.52,8.8
22.43695592880249,-4.92,-7.02,-0.35,8.57
22.450820922851562,-4.81,-6.46,-1.25,8.15
22.48180389404297,-4.57,-5.61,-1.84,7.46
22.48315405845642,-4.2,-5.11,-2.39,7.03
22.484154224395752,-3.9,-4.95,-2.52,6.78
22.502055168151855,-3.62,-5.05,-2.32,6.63
22.50310206413269,-3.25,-5.36,-1.89,6.54
22.51851797103882,-2.89,-5.36,-1.19,6.2
22.519516944885254,-2.25,-4.86,-0.25,5.36
22.535293102264404,-1.34,-3.96,0.58,4.22
22.536757946014404,-0.2,-2.83,0.75,2.93
22.550718069076538,0.93,-1.72,0.67,2.06
22.581115007400513,2.17,0.06,0.8,2.31
22.582458972930908,4.42,3.12,1.62,5.64
22.583460092544556,7.64,5.99,1.96,9.9
22.602214097976685,10.74,7.62,0.99,13.2
22.603270053863525,13.46,9.43,0.33,16.43
22.615899085998535,16.27,11.32,-0.15,19.82
22.616989135742188,18.98,12.08,-0.94,22.51
22.632652044296265,21.34,11.6,-0.9,24.3
22.633738040924072,22.93,9.89,-0.18,24.97
22.65106201171875,23.71,7.58,2.24,24.99
22.680185079574585,22.81,4.59,4.67,23.73
22.681373119354248,19.28,1.87,5.79,20.21
22.682186126708984,14.39,3.99,5.99,16.08
22.702516078948975,8.82,5.4,3.73,10.99
22.70354700088501,-0.43,-4.91,-0.85,5.0
22.71872901916504,-12.87,-1.56,-8.32,15.4
22.719787120819092,-15.9,21.17,-6.44,27.24
22.735109090805054,-10.98,40.24,6.65,42.23
22.736162185668945,-7.87,17.85,-2.81,19.7
22.750837087631226,-0.35,-2.04,-4.16,4.64
22.779187202453613,7.17,-1.22,1.26,7.38
22.78035593032837,11.99,-5.03,4.67,13.81
22.781183004379272,12.83,-8.64,2.07,15.6
22.80230402946472,12.0,-7.1,-0.37,13.94
22.803385019302368,8.69,-1.8,0.59,8.89
22.81891703605652,4.08,0.12,-0.86,4.17
22.819973945617676,0.64,0.55,-1.74,1.93
22.835371017456055,-1.68,1.14,-0.14,2.03
22.836416006088257,-1.93,1.41,2.74,3.63
22.85112714767456,-0.21,0.31,2.52,2.54
22.87940502166748,1.72,-0.78,0.19,1.89
22.880570888519287,2.27,-0.52,-0.85,2.47
22.881386041641235,1.43,-0.17,-0.61,1.56
22.902624130249023,0.6,-0.23,0.2,0.67
22.90367102622986,0.41,-0.32,0.91,1.04
22.918333053588867,0.68,-0.37,0.78,1.09
22.919373989105225,0.94,-0.48,-0.11,1.06
22.935389041900635,0.78,-0.33,-0.97,1.28
22.936463117599487,0.23,-0.04,-1.11,1.13
22.951289176940918,-0.3,0.26,-0.38,0.54
22.979455947875977,-0.37,0.26,0.6,0.75
22.98054599761963,-0.12,0.1,0.87,0.88
22.98134708404541,0.09,0.14,0.36,0.39
23.002589225769043,0.0,0.24,-0.27,0.36
23.003614902496338,-0.23,0.32,-0.46,0.6
23.018537044525146,-0.45,0.35,-0.27,0.63
23.019586086273193,-0.71,0.34,-0.22,0.81
23.035459995269775,-1.02,0.44,-0.33,1.15
23.036489963531494,-1.1,0.69,-0.46,1.37
23.051172018051147,-0.93,0.79,-0.53,1.33
23.081062078475952,-0.68,0.73,-0.39,1.07
23.08214807510376,-0.48,0.52,-0.16,0.72
23.082993030548096,-0.58,0.39,-0.01,0.69
23.102521896362305,-0.92,0.28,-0.17,0.97
23.103588104248047,-1.11,0.25,-0.25,1.16
23.118727207183838,-0.99,0.43,-0.28,1.11
23.11976909637451,-0.68,0.59,-0.54,1.04
23.135138034820557,-0.56,0.75,-0.64,1.13
23.136148929595947,-0.74,0.97,-0.58,1.35
23.151284217834473,-1.36,1.16,-0.16,1.79
23.152749061584473,-1.81,1.88,0.39,2.63
23.19974994659424,-1.78,2.0,-0.24,2.68
23.200912952423096,-1.6,2.57,-0.3,3.04
23.20189905166626,-1.87,2.92,-0.44,3.49
23.219653129577637,-2.43,3.26,-0.52,4.09
23.220722198486328,-2.77,3.46,-0.62,4.47
23.235188007354736,-2.81,3.47,-0.88,4.55
23.236205101013184,-2.7,3.35,-1.24,4.47
23.25234317779541,-2.91,3.58,-1.47,4.84
23.253815174102783,-3.63,4.44,-1.48,5.92
23.26760196685791,-4.76,5.87,-1.3,7.66
23.298291206359863,-6.16,7.98,-1.4,10.17
23.299742221832275,-7.59,9.59,-3.13,12.62
23.30074691772461,-9.3,10.54,-4.96,14.9
23.319252967834473,-10.82,11.43,-5.24,16.58
23.320344924926758,-11.83,11.73,-5.52,17.55
23.33646512031555,-12.62,10.77,-6.17,17.7
23.337505102157593,-13.09,10.91,-5.4,17.87
23.35285210609436,-11.01,14.89,-3.75,18.89
23.354356050491333,-4.54,17.31,-6.6,19.07
23.367840051651,1.38,14.14,-9.72,17.21
23.397555112838745,3.05,8.41,-6.14,10.85
23.39874792098999,-0.34,2.94,-4.36,5.26
23.399566173553467,-4.34,-1.36,-2.31,5.1
23.41938018798828,-1.9,-2.12,-3.65,4.62
23.420456886291504,5.82,2.05,-0.01,6.17
23.43544912338257,5.47,-1.39,0.98,5.72
23.43649911880493,-2.53,-3.16,-3.8,5.55
23.45208501815796,-8.18,-2.25,-0.78,8.51
23.45310401916504,-11.54,-1.97,-0.34,11.71
23.467852115631104,-14.29,-2.44,-1.54,14.57
23.497647047042847,-15.42,-3.28,-1.31,15.81
23.498894214630127,-13.88,-4.16,0.5,14.49
23.499720096588135,-10.67,-4.91,2.12,11.93
23.519469022750854,-8.42,-6.07,2.39,10.65
23.520562171936035,-7.48,-6.95,2.04,10.41
23.534345149993896,-7.4,-6.85,2.2,10.32
23.535364151000977,-7.72,-6.22,2.18,10.15
23.552403926849365,-7.55,-5.56,1.41,9.48
23.55345606803894,-6.78,-4.84,0.18,8.33
23.56800603866577,-5.9,-4.17,-0.74,7.26
23.59619903564453,-5.04,-3.67,-1.16,6.34
23.59737205505371,-4.34,-3.49,-1.25,5.7
23.59815001487732,-3.75,-3.79,-1.26,5.47
23.619704008102417,-3.18,-4.41,-1.44,5.62
23.62073802947998,-2.73,-4.8,-1.83,5.81
23.635712146759033,-2.23,-4.4,-1.79,5.24
23.636739015579224,-1.6,-3.36,-1.43,3.98
23.652722120285034,-0.47,-2.69,-1.58,3.15
23.654189109802246,0.88,-2.17,-1.67,2.87
23.668179035186768,2.26,-0.97,-1.06,2.67
23.698724031448364,4.13,0.77,0.15,4.2
23.700042009353638,6.29,2.3,1.51,6.86
23.70097804069519,8.21,3.9,2.22,9.35
23.719187021255493,9.87,5.52,2.36,11.55
23.720278024673462,11.77,7.04,1.96,13.85
23.735692977905273,14.08,8.79,0.82,16.61
23.736770153045654,16.74,10.14,-0.39,19.57
23.750933170318604,19.69,11.24,-0.94,22.69
23.751965045928955,22.97,10.74,-0.35,25.35
23.76845407485962,25.71,8.63,0.9,27.13
23.797630071640015,27.44,6.09,3.41,28.31
23.79879903793335,26.26,3.26,5.59,27.04
23.799589157104492,19.09,4.83,4.82,20.27
23.816137075424194,6.24,-1.37,1.62,6.59
23.81719207763672,-8.9,-6.0,-6.37,12.48
23.83572292327881,-19.84,11.22,-14.28,26.89
23.836760997772217,-17.54,38.73,1.73,42.55
23.852352142333984,-11.66,35.75,1.26,37.62
23.85343909263611,-3.76,5.0,-1.01,6.33
23.868122100830078,1.25,-6.56,5.89,8.9
23.898067951202393,4.25,-12.04,7.83,14.97
23.899206161499023,8.15,-10.04,2.76,13.22
23.900029182434082,10.65,-9.1,-2.97,14.31
23.919809103012085,13.05,-5.45,-0.99,14.17
23.92084002494812,12.47,3.27,-0.54,12.9
23.935768127441406,8.19,3.81,-3.5,9.68
23.936793088912964,3.73,0.83,-2.72,4.69
23.952234029769897,0.09,0.25,-0.27,0.37
23.953278064727783,-2.36,0.82,3.6,4.38
23.968175888061523,-2.6,0.14,4.85,5.5
23.969649076461792,-0.72,-1.48,1.32,2.1
24.01474404335022,1.57,-0.98,-1.55,2.41
24.015933990478516,2.44,0.2,-1.88,3.08
24.016969203948975,1.91,0.05,-0.85,2.09
24.03627300262451,1.09,-0.53,0.32,1.25
24.03730821609497,0.68,-0.67,0.41,1.03
24.05206608772278,0.68,-0.22,0.17,0.73
24.053030014038086,0.67,0.13,0.02,0.68
24.069314002990723,0.57,0.09,0.08,0.58
24.070751190185547,0.36,-0.03,0.15,0.39
24.08524203300476,0.09,-0.09,0.1,0.16
24.117713928222656,-0.15,-0.03,0.07,0.16
24.11895513534546,-0.37,0.04,-0.05,0.37
24.11997890472412,-0.57,0.09,-0.37,0.68
24.136505126953125,-0.64,0.28,-0.8,1.06
24.137567043304443,-0.4,0.43,-1.17,1.3
24.152372121810913,-0.18,0.46,-0.83,0.96
24.153419971466064,-0.12,0.36,0.01,0.37
24.169536113739014,-0.24,0.25,0.69,0.77
24.170958042144775,-0.33,0.19,0.83,0.91
24.185391902923584,-0.48,0.21,0.43,0.67
24.215511083602905,-0.63,0.35,-0.01,0.72
24.216687202453613,-0.79,0.55,-0.08,0.96
24.217530012130737,-0.99,0.64,-0.23,1.2
24.236173152923584,-1.17,0.43,-0.38,1.3
24.237202167510986,-1.37,0.36,-0.28,1.44
24.25239109992981,-1.48,0.44,-0.37,1.58
24.253445148468018,-1.35,0.55,-0.82,1.67
24.268980026245117,-1.44,0.75,-1.05,1.93
24.270015239715576,-1.91,1.03,-0.9,2.34
24.284833908081055,-1.93,1.16,-0.92,2.43
24.31345796585083,-1.25,1.31,-1.2,2.17
24.31479811668396,-0.31,1.29,-1.59,2.07
24.31557011604309,-0.18,1.66,-0.99,1.94
24.337316036224365,-0.82,2.25,-0.51,2.44
24.338376998901367,-1.72,2.77,-0.18,3.26
24.35264301300049,-2.38,3.82,0.0,4.5
24.353683948516846,-2.92,4.26,-0.27,5.17
24.369303226470947,-3.23,4.73,-0.69,5.76
24.370342016220093,-3.51,4.93,-1.35,6.2
24.385292053222656,-3.84,5.23,-1.98,6.78
24.414213180541992,-4.62,6.11,-2.18,7.96
24.41526508331299,-5.99,8.17,-2.03,10.33
24.416090965270996,-7.81,10.61,-2.5,13.4
24.43685817718506,-9.71,12.94,-3.15,16.48
24.43795919418335,-11.33,14.38,-4.28,18.8
24.452754974365234,-12.02,13.89,-6.42,19.45
24.453795909881592,-11.9,12.28,-8.66,19.16
24.46918821334839,-12.08,10.52,-9.38,18.56
24.470267057418823,-11.94,12.83,-6.29,18.62
24.485332012176514,-7.87,17.98,-4.96,20.24
24.516086101531982,-1.28,17.28,-7.63,18.93
24.5178542137146,1.22,8.27,-6.12,10.36
24.5188570022583,-0.66,1.23,-4.32,4.53
24.536842107772827,-3.3,-2.31,-3.41,5.27
24.53785800933838,-0.61,-3.02,-4.05,5.08
24.552572011947632,6.75,0.32,0.53,6.77
24.553614139556885,6.21,-3.22,1.92,7.25
24.56972908973694,-2.27,-5.23,-3.6,6.74
24.571184158325195,-8.35,-4.69,-1.45,9.68
24.585346221923828,-12.23,-4.45,-0.68,13.03
24.616908073425293,-15.03,-4.17,-1.23,15.64
24.618282079696655,-16.41,-3.99,-1.04,16.92
24.619297981262207,-15.57,-4.06,0.07,16.09
24.63683319091797,-11.51,-4.15,1.5,12.32
24.637875080108643,-7.62,-5.24,1.38,9.35
24.652765035629272,-5.66,-6.76,0.81,8.85
24.653780937194824,-5.21,-7.2,1.02,8.94
24.66931390762329,-5.58,-6.47,1.32,8.64
24.67030620574951,-5.49,-6.03,0.66,8.18
24.685527086257935,-4.83,-5.55,-0.54,7.37
24.714128017425537,-4.21,-4.79,-1.6,6.57
24.715353965759277,-3.77,-4.2,-2.43,6.14
24.71616005897522,-3.4,-3.91,-2.92,5.94
24.736061096191406,-2.93,-3.82,-3.01,5.67
24.73713707923889,-2.37,-3.83,-2.69,5.24
24.751986026763916,-1.73,-3.8,-1.89,4.58
24.753014087677002,-0.73,-3.61,-0.96,3.8
24.769239902496338,0.78,-3.42,-1.2,3.7
24.77027201652527,2.49,-3.13,-1.97,4.45
24.785280227661133,4.34,-2.63,-2.29,5.56
24.786766052246094,6.14,-2.11,-2.43,6.93
24.83141303062439,7.94,-0.95,-1.54,8.14
24.83258605003357,9.71,0.34,-0.18,9.71
24.833627223968506,11.21,1.01,0.97,11.29
24.8535099029541,11.72,1.51,1.04,11.86
24.854571104049683,11.45,2.61,0.88,11.77
24.869331121444702,11.81,4.32,0.85,12.6
24.87036895751953,13.16,5.83,0.25,14.39
24.886494159698486,15.72,7.07,0.83,17.25
24.887979984283447,18.59,7.88,1.01,20.21
24.90185809135437,20.25,7.71,0.87,21.68
24.932333946228027,21.26,6.66,2.29,22.39
24.93381118774414,21.09,5.2,3.67,22.02
24.93485689163208,19.66,3.66,5.23,20.67
24.953574180603027,13.54,5.11,4.7,15.21
24.954631090164185,3.62,2.2,0.55,4.27
24.96951198577881,-8.97,-5.49,-6.26,12.23
24.970546007156372,-20.64,8.44,-13.04,25.83
24.986496925354004,-20.06,37.21,0.68,42.27
24.98798894882202,-14.77,37.56,2.84,40.45
25.00195002555847,-4.69,5.44,-3.21,7.86
25.030660152435303,2.49,-4.93,2.69,6.14
25.032562017440796,7.26,-7.21,6.18,11.95
25.033371925354004,10.28,-9.48,2.42,14.19
25.053357124328613,10.87,-10.4,-2.59,15.26
25.05442523956299,11.7,-5.83,-2.33,13.27
25.069727897644043,10.57,1.67,0.22,10.7
25.07078218460083,6.06,3.08,-2.42,7.21
25.08622121810913,1.94,1.25,-1.79,2.92
25.087271213531494,-0.59,0.84,0.45,1.12
25.10206890106201,-1.61,1.22,3.09,3.69
25.131532192230225,-1.13,0.23,4.18,4.33
25.13282299041748,-0.17,-1.49,2.66,3.05
25.133667945861816,0.78,-1.61,0.33,1.81
25.15325689315796,1.21,-0.39,-1.01,1.62
25.154299020767212,0.96,0.49,-1.31,1.69
25.169710159301758,0.76,0.26,-1.07,1.33
25.170777082443237,0.74,-0.26,-0.17,0.8
25.186325073242188,1.06,-0.51,0.09,1.17
25.187339067459106,1.24,-0.57,-0.33,1.4
25.201992988586426,0.91,-0.05,-0.21,0.93
25.231173992156982,0.23,0.31,0.11,0.4
25.232332229614258,-0.32,0.28,0.4,0.58
25.233201026916504,-0.39,0.22,0.62,0.76
25.253538131713867,-0.13,0.07,0.62,0.63
25.25450301170349,-0.06,-0.09,0.4,0.41
25.269399166107178,-0.15,-0.09,-0.01,0.17
25.270377159118652,-0.32,0.07,-0.59,0.67
25.286434173583984,-0.34,0.33,-1.05,1.15
25.287487030029297,-0.41,0.55,-0.92,1.14
25.302258014678955,-0.8,0.68,-0.38,1.11
25.329988956451416,-1.32,0.58,0.1,1.44
25.331149101257324,-1.61,0.56,0.03,1.7
25.331886053085327,-1.61,0.51,-0.63,1.8
25.350706100463867,-1.53,0.61,-1.06,1.95
25.351696968078613,-1.47,0.69,-0.76,1.79
25.366390228271484,-1.52,0.54,-0.29,1.63
25.36737608909607,-1.47,0.33,-0.42,1.56
25.383612155914307,-1.2,0.49,-0.74,1.49
25.384600162506104,-0.88,0.95,-0.97,1.61
25.399972915649414,-0.79,1.13,-1.05,1.73
25.427719116210938,-1.11,1.13,-0.65,1.71
25.42877507209778,-1.41,1.15,-0.21,1.83
25.429616928100586,-1.47,1.21,-0.15,1.9
25.432126998901367,-1.39,1.64,-0.51,2.2
25.450308084487915,-1.42,2.3,-0.74,2.8
25.451303005218506,-1.62,3.0,-0.97,3.54
25.46693205833435,-2.12,4.04,-0.89,4.64
25.467924118041992,-2.46,4.45,-0.99,5.18
25.48297119140625,-3.03,4.62,-0.93,5.6
25.484363079071045,-3.64,4.7,-1.09,6.04
25.527818202972412,-4.16,5.25,-1.0,6.77
25.52901005744934,-5.03,6.5,-0.81,8.25
25.530138969421387,-6.54,8.25,-0.87,10.56
25.532657146453857,-8.27,10.66,-1.56,13.58
25.550745010375977,-10.33,12.07,-4.34,16.46
25.551815032958984,-12.4,12.85,-6.04,18.85
25.569844007492065,-13.62,13.6,-7.16,20.53
25.570908069610596,-14.02,12.66,-9.12,20.97
25.585413932800293,-14.02,11.68,-9.32,20.49
25.586388111114502,-12.09,15.37,-6.52,20.61
25.601594924926758,-5.72,19.12,-7.02,21.15
25.629290103912354,0.77,15.79,-10.32,18.87
25.630462169647217,3.24,8.75,-7.11,11.73
25.631295204162598,0.48,1.84,-5.04,5.38
25.633881092071533,-3.54,-3.07,-3.76,6.0
25.635176181793213,0.21,-1.62,-3.57,3.92
25.636362075805664,7.85,1.34,2.28,8.28
25.637572050094604,6.42,-2.57,0.17,6.91
25.638734102249146,-1.88,-3.74,-5.6,6.99
25.63993215560913,-7.69,-2.38,-2.36,8.38
25.641068935394287,-11.4,-1.86,-2.51,11.82
25.66198492050171,-14.6,-2.23,-3.41,15.15
25.662986040115356,-16.5,-2.89,-2.54,16.94
25.667946100234985,-15.72,-3.88,-0.62,16.2
25.67796516418457,-11.74,-4.89,1.71,12.83
25.688032150268555,-8.14,-6.63,2.21,10.72
25.69795799255371,-6.21,-8.34,1.77,10.54
25.70793104171753,-5.67,-8.72,1.45,10.5
25.718070030212402,-6.16,-8.23,1.45,10.38
25.72768211364746,-6.75,-7.93,0.51,10.42
25.737768173217773,-6.92,-7.69,-0.55,10.35
25.76526117324829,-6.67,-7.15,-1.47,9.88
25.766249179840088,-6.0,-6.44,-2.1,9.04
25.76705503463745,-5.07,-6.01,-2.42,8.22
25.786816120147705,-4.25,-6.07,-2.49,7.81
25.787652015686035,-3.58,-6.6,-2.1,7.79
25.803121089935303,-2.86,-7.12,-1.55,7.82
25.807013034820557,-2.06,-7.18,-1.02,7.53
25.819929122924805,-1.09,-6.64,-0.5,6.74
25.827160120010376,0.04,-5.75,0.17,5.75
25.836803913116455,1.45,-4.64,-0.16,4.86
25.86607789993286,3.16,-3.08,-0.73,4.47
25.86719012260437,5.08,-0.8,-0.52,5.16
25.867998123168945,7.69,2.48,0.17,8.08
25.887370109558105,11.09,6.23,1.19,12.77
25.88823699951172,14.68,8.79,1.75,17.19
25.903199195861816,17.45,10.46,2.02,20.44
25.90626811981201,19.35,11.42,1.96,22.55
25.918044090270996,20.92,11.48,2.09,23.95
25.926934003829956,22.7,10.64,1.72,25.12
25.93612289428711,24.45,9.15,1.88,26.17
25.971728086471558,24.12,7.65,1.94,25.37
25.972865104675293,19.83,12.19,1.19,23.3
25.973687171936035,13.57,5.98,-4.19,15.4
25.98726201057434,-0.01,-3.31,-7.38,8.08
25.988329887390137,-12.18,14.69,-6.98,20.31
26.00319504737854,-11.52,38.83,3.08,40.61
26.00558304786682,-9.67,24.57,2.57,26.52
26.020061016082764,-2.5,-0.12,-2.73,3.7
26.025583028793335,5.75,-2.48,1.51,6.44
26.035516023635864,10.34,-6.99,6.7,14.16
26.07207202911377,12.11,-10.86,4.08,16.77
26.07376718521118,12.1,-8.05,1.12,14.57
26.07457399368286,7.99,-1.0,1.89,8.27
26.086973190307617,2.89,1.04,0.34,3.09
26.088057041168213,-0.37,1.13,-1.98,2.3
26.103316068649292,-2.18,1.76,-2.43,3.7
26.104734897613525,-1.69,1.83,-0.08,2.49
26.12041711807251,1.0,0.28,1.5,1.82
26.12470507621765,3.14,-1.31,0.79,3.49
26.134871006011963,3.15,-1.61,-0.1,3.53
26.172646045684814,1.65,-0.8,-0.26,1.85
26.174015045166016,0.59,-0.11,0.66,0.89
26.174968004226685,0.32,-0.25,1.26,1.32
26.187915086746216,0.46,-0.38,1.13,1.27
26.188971042633057,0.68,-0.17,0.53,0.87
26.203351974487305,0.73,0.1,-0.14,0.74
26.204408168792725,0.68,0.14,-0.73,1.0
26.220019102096558,0.57,0.04,-1.01,1.16
26.223830223083496,0.3,0.14,-0.87,0.93
26.2337589263916,-0.09,0.14,-0.46,0.48
26.27214503288269,-0.6,0.17,-0.15,0.64
26.273516178131104,-0.81,0.22,-0.19,0.86
26.274487018585205,-0.68,0.21,-0.01,0.71
26.288844108581543,-0.39,0.15,0.01,0.41
26.289858102798462,-0.21,0.08,0.09,0.24
26.302760124206543,-0.25,0.09,0.21,0.33
26.30379009246826,-0.37,0.25,-0.09,0.45
26.320934057235718,-0.44,0.39,-0.65,0.87
26.323405027389526,-0.53,0.57,-0.6,0.98
26.335915088653564,-0.64,0.71,-0.36,1.02
26.343514919281006,-0.79,0.56,-0.46,1.07
26.383388996124268,-0.9,0.42,-0.46,1.09
26.384501934051514,-1.04,0.32,-0.54,1.21
26.385505199432373,-1.34,0.33,-0.63,1.51
26.403986930847168,-1.84,0.8,-0.61,2.09
26.405063152313232,-1.94,1.33,-0.94,2.53
26.420191049575806,-1.72,1.69,-1.21,2.69
26.42123317718506,-1.66,2.05,-1.15,2.87
26.43711519241333,-1.92,2.44,-1.15,3.31
26.43849802017212,-2.39,2.84,-1.12,3.87
26.452526092529297,-2.33,3.44,-0.88,4.24
26.48332691192627,-2.28,3.81,-1.12,4.57
26.484631061553955,-2.48,3.97,-0.9,4.76
26.485608100891113,-3.13,4.52,-0.75,5.54
26.503931999206543,-4.01,4.96,-0.94,6.44
26.504971027374268,-4.75,5.48,-1.3,7.36
26.520414113998413,-5.33,6.02,-1.73,8.22
26.521456241607666,-6.04,7.08,-1.78,9.47
26.537107944488525,-6.96,9.17,-1.61,11.62
26.53850221633911,-8.08,11.6,-2.7,14.39
26.551816940307617,-9.94,12.62,-6.04,17.16
26.581583976745605,-11.55,12.96,-8.4,19.28
26.583028078079224,-12.29,12.65,-9.91,20.23
26.584007024765015,-12.25,11.59,-11.69,20.51
26.600656986236572,-12.13,12.83,-10.25,20.41
26.60172414779663,-9.58,19.31,-6.27,22.44
26.619831085205078,-3.91,22.34,-7.32,23.83
26.620896100997925,-0.42,13.46,-10.42,17.02
26.636724948883057,-1.07,4.85,-8.28,9.65
26.637765884399414,-4.35,-0.88,-3.95,5.94
26.652754068374634,-2.45,-2.02,-0.72,3.25
26.680045127868652,5.65,1.69,3.52,6.86
26.681198120117188,6.63,-4.19,3.36,8.53
26.68197202682495,-0.65,-6.35,-3.2,7.14
26.68431305885315,-7.41,-4.19,-0.85,8.55
26.690431118011475,-10.75,-3.24,0.62,11.24
26.700629234313965,-12.99,-3.2,-0.82,13.4
26.71060800552368,-14.13,-3.68,-1.3,14.65
26.720520973205566,-13.04,-4.39,0.16,13.76
26.730273008346558,-9.97,-5.03,1.79,11.3
26.740225076675415,-7.75,-6.12,2.22,10.12
26.77706289291382,-6.97,-6.73,2.48,10.0
26.778171062469482,-7.0,-6.22,2.94,9.81
26.778964042663574,-6.91,-5.58,2.87,9.33
26.783613204956055,-6.32,-5.46,1.91,8.56
26.78992509841919,-5.78,-5.27,1.02,7.88
26.8020920753479,-5.47,-4.9,0.33,7.35
26.80981707572937,-5.3,-4.32,-0.05,6.83
26.819293975830078,-5.08,-3.97,-0.48,6.46
26.829275131225586,-4.71,-4.15,-0.9,6.34
26.839240074157715,-4.15,-4.6,-1.03,6.28
26.876344203948975,-3.42,-5.01,-0.84,6.12
26.8774471282959,-2.64,-5.14,-0.35,5.78
26.8782320022583,-1.76,-4.81,0.28,5.12
26.88383388519287,-0.39,-4.05,0.95,4.17
26.88908100128174,1.58,-3.42,0.5,3.8
26.900322914123535,3.95,-2.81,-0.34,4.85
26.90910005569458,6.17,-1.83,-0.87,6.49
26.91887092590332,8.29,-0.04,-0.1,8.29
26.92877507209778,10.6,2.1,1.2,10.87
26.93889307975769,12.9,3.61,2.3,13.59
26.976680040359497,14.9,4.68,2.72,15.85
26.97785210609436,16.46,6.0,2.7,17.72
26.978684902191162,17.55,7.56,1.33,19.15
26.984447956085205,19.28,8.98,1.08,21.29
26.988293170928955,21.32,9.03,-0.1,23.15
27.003768920898438,22.88,7.92,-1.05,24.23
27.00814723968506,24.16,5.69,-0.16,24.82
27.018604040145874,24.69,2.21,2.09,24.87
27.027799129486084,21.06,0.7,3.38,21.34
27.037725925445557,9.4,3.19,2.31,10.19
27.07507610321045,-4.86,-3.69,-4.24,7.43
27.076218128204346,-16.75,6.86,-16.34,24.38
27.07714605331421,-18.15,47.84,-4.45,51.36
27.086990118026733,-19.74,44.78,-1.72,48.96
27.087849140167236,-8.79,1.9,-7.71,11.84
27.103841066360474,1.87,-4.98,3.27,6.24
27.107365131378174,7.95,-7.93,9.92,14.98
27.120334148406982,10.86,-12.54,6.76,17.91
27.127065181732178,12.05,-12.61,-0.3,17.44
27.137115001678467,12.42,-6.96,-0.15,14.23
27.147484064102173,10.86,1.64,1.39,11.07
27.18021821975708,5.87,3.99,-2.92,7.67
27.181371212005615,1.06,2.31,-4.05,4.78
27.182350158691406,-1.69,1.33,-1.57,2.66
27.186816215515137,-2.13,1.34,3.13,4.01
27.196731090545654,-0.66,-0.11,4.98,5.02
27.2068350315094,1.02,-2.18,1.97,3.11
27.216856956481934,1.76,-1.66,-0.56,2.48
27.22665500640869,1.3,0.19,-1.3,1.84
27.236413955688477,0.63,0.7,-1.11,1.45
27.246669054031372,0.35,0.1,-0.01,0.36
27.27966594696045,0.53,-0.5,0.66,0.98
27.2807879447937,0.73,-0.73,-0.04,1.03
27.282061100006104,0.75,-0.53,-1.23,1.53
27.28613805770874,0.44,0.06,-1.45,1.51
27.296077013015747,-0.06,0.5,-0.45,0.67
27.306105136871338,-0.46,0.32,0.47,0.73
27.316006183624268,-0.58,0.17,0.95,1.12
27.326075077056885,-0.59,0.19,0.61,0.86
27.33587408065796,-0.48,0.23,-0.1,0.54
27.346035957336426,-0.47,0.33,-0.41,0.7
27.377182960510254,-0.61,0.37,-0.44,0.83
27.378201961517334,-0.87,0.44,-0.42,1.06
27.379205226898193,-0.89,0.52,-0.6,1.19
27.385858058929443,-0.64,0.55,-0.68,1.08
27.395236015319824,-0.53,0.58,-0.44,0.9
27.405210971832275,-0.77,0.56,-0.01,0.95
27.415187120437622,-1.11,0.56,0.25,1.26
27.425034999847412,-1.39,0.33,-0.19,1.44
27.43521213531494,-1.31,0.08,-0.73,1.5
27.445309162139893,-0.89,0.27,-0.92,1.3
27.47730016708374,-0.57,0.61,-1.06,1.34
27.478591918945312,-0.73,0.84,-1.26,1.68
27.47938108444214,-1.25,1.09,-1.3,2.1
27.48481011390686,-1.72,1.32,-1.0,2.38
27.503911018371582,-1.91,1.37,-0.4,2.38
27.504842042922974,-1.59,1.34,-0.11,2.08
27.52067995071411,-1.28,1.42,0.05,1.91
27.524349212646484,-1.17,2.12,0.17,2.42
27.534240007400513,-1.57,2.87,-0.32,3.28
27.544591903686523,-1.87,3.41,-0.33,3.9
27.581435203552246,-2.32,3.59,-0.47,4.3
27.582560062408447,-2.83,3.7,-0.4,4.67
27.583571910858154,-3.27,3.91,-0.67,5.14
27.6044979095459,-3.69,4.31,-1.23,5.8
27.605531215667725,-4.32,4.9,-1.89,6.8
27.620612144470215,-5.26,6.01,-2.15,8.27
27.621625900268555,-6.65,7.89,-2.08,10.52
27.637299060821533,-8.16,10.64,-2.19,13.58
27.63834810256958,-9.92,12.96,-4.13,16.83
27.652381896972656,-11.73,13.47,-7.01,19.18
27.6812162399292,-13.15,13.24,-8.25,20.4
27.68238115310669,-14.06,12.64,-8.4,20.68
27.68324089050293,-13.36,14.5,-7.48,21.08
27.704820156097412,-8.93,18.8,-7.07,21.98
27.705923080444336,-1.43,19.41,-10.12,21.93
27.72185707092285,2.73,14.28,-8.08,16.63
27.72287607192993,1.1,6.22,-5.58,8.42
27.737351894378662,-4.21,0.91,-4.19,6.0
27.738397121429443,-5.89,-2.25,-3.87,7.39
27.753424167633057,1.52,3.16,-1.98,4.02
27.78228211402893,5.78,1.52,2.12,6.34
27.783552169799805,0.3,-3.31,-2.03,3.89
27.784358024597168,-6.37,-2.99,-1.54,7.2
27.80410408973694,-10.63,-3.04,0.05,11.05
27.8051860332489,-14.04,-3.62,-1.33,14.56
27.820844173431396,-15.78,-4.06,-1.5,16.36
27.82187509536743,-14.67,-4.78,-0.31,15.43
27.83769416809082,-10.17,-5.03,1.55,11.45
27.83870220184326,-6.15,-6.03,1.81,8.8
27.853432178497314,-4.16,-7.72,1.03,8.82
27.8824782371521,-3.71,-8.18,0.57,9.0
27.88371992111206,-4.4,-7.55,0.41,8.74
27.884543895721436,-5.47,-7.0,0.19,8.88
27.904499053955078,-6.01,-6.42,-0.64,8.81
27.90555191040039,-5.66,-5.73,-1.34,8.16
27.920816898345947,-4.75,-5.24,-2.03,7.35
27.921829223632812,-3.79,-5.19,-2.74,6.98
27.937458992004395,-3.16,-5.34,-2.85,6.82
27.938497066497803,-3.12,-5.82,-2.47,7.05
27.953447103500366,-3.2,-6.25,-1.75,7.23
27.954832077026367,-2.54,-6.42,-1.05,6.98
27.99793004989624,-1.25,-6.43,-0.48,6.56
27.9990291595459,-0.02,-6.3,0.4,6.31
28.00000500679016,0.7,-5.95,0.35,6.0
28.018043994903564,1.15,-4.96,-0.07,5.09
28.019066095352173,1.99,-3.3,0.18,3.85
28.034593105316162,3.6,-1.33,1.17,4.01
28.035598039627075,5.79,0.67,2.46,6.32
28.051688194274902,8.56,2.47,3.35,9.51
28.05310297012329,10.77,4.29,3.07,11.99
28.06756901741028,12.71,6.65,2.94,14.64
28.09606409072876,15.01,8.56,2.79,17.5
28.097443103790283,17.19,9.2,1.93,19.59
28.09834098815918,18.55,10.09,1.4,21.16
28.100324153900146,20.29,11.12,2.4,23.26
28.118154048919678,22.21,10.34,2.79,24.65
28.119187116622925,23.72,8.3,4.32,25.49
28.136588096618652,22.74,7.64,4.08,24.33
28.137656211853027,16.87,4.88,-0.19,17.56
28.150909900665283,2.75,-6.56,-5.58,9.04
28.15194320678711,-12.8,1.07,-13.12,18.36
28.198223114013672,-17.42,44.34,-3.18,47.74
28.199372053146362,-19.05,46.8,2.28,50.58
28.2004132270813,-9.67,2.14,-1.96,10.09
28.221699237823486,3.16,-3.6,3.74,6.07
28.222769021987915,9.25,-6.97,6.32,13.19
28.237603187561035,12.32,-11.28,5.04,17.44
28.238643169403076,13.41,-10.08,1.47,16.84
28.254918098449707,12.64,-4.8,0.94,13.55
28.256399154663086,8.68,-0.19,0.11,8.68
28.270384073257446,3.43,0.82,-2.4,4.26
28.300201892852783,-0.1,1.83,-2.75,3.3
28.301512241363525,-1.95,2.22,-0.23,2.96
28.302521228790283,-1.32,1.47,3.1,3.67
28.321599006652832,0.6,-0.42,2.62,2.72
28.32263994216919,1.66,-1.72,0.78,2.51
28.33782196044922,1.37,-1.01,-0.39,1.74
28.33887505531311,0.38,0.15,-0.94,1.02
28.354708194732666,0.01,0.63,-0.64,0.89
28.356225967407227,0.34,0.47,-0.07,0.58
28.37006902694702,0.68,-0.35,-0.31,0.82
28.401554107666016,0.67,-1.03,-1.02,1.59
28.402815103530884,0.32,-0.72,-1.55,1.73
28.40381407737732,-0.18,0.1,-1.09,1.1
28.421788215637207,-0.44,0.63,0.41,0.87
28.422863960266113,-0.51,0.55,1.52,1.69
28.437500953674316,-0.43,0.17,1.21,1.29
28.438538074493408,-0.45,0.08,0.56,0.72
28.454857110977173,-0.3,0.52,-0.66,0.89
28.4563889503479,-0.25,0.36,-0.96,1.05
28.470185041427612,-0.15,0.16,-0.74,0.77
28.49871802330017,-0.02,-0.03,-0.41,0.41
28.49995708465576,-0.27,0.12,-0.1,0.31
28.500726222991943,-0.58,0.49,-0.4,0.85
28.521904945373535,-0.87,0.9,-0.48,1.34
28.522947072982788,-0.92,1.1,-0.21,1.44
28.537694931030273,-1.02,0.79,-0.18,1.3
28.538751125335693,-1.33,0.3,-0.54,1.46
28.55507516860962,-1.67,0.19,-0.65,1.8
28.55656623840332,-1.79,0.46,-0.67,1.96
28.569408893585205,-1.3,0.83,-0.95,1.81
28.598618030548096,-0.5,1.23,-1.06,1.69
28.59991693496704,-0.14,1.39,-1.07,1.75
28.600714206695557,-0.57,1.35,-0.77,1.65
28.621896028518677,-1.61,1.48,-0.26,2.2
28.622931003570557,-2.5,1.89,-0.02,3.13
28.63788604736328,-2.75,2.32,0.02,3.59
28.638910055160522,-2.66,3.23,-0.03,4.18
28.65484619140625,-2.27,3.05,-0.93,3.91
28.655882120132446,-2.25,2.91,-0.95,3.79
28.670629024505615,-2.42,2.98,-0.77,3.91
28.700796127319336,-2.79,3.18,-1.1,4.37
28.70205593109131,-3.02,3.7,-1.38,4.97
28.70306706428528,-3.58,4.4,-1.45,5.85
28.722204208374023,-4.58,5.28,-1.11,7.07
28.723248958587646,-6.09,6.44,-0.64,8.88
28.737800121307373,-7.87,8.08,-0.55,11.29
28.738848209381104,-9.59,10.14,-1.11,14.0
28.75377321243286,-11.09,12.11,-3.29,16.74
28.754853010177612,-12.36,13.21,-6.89,19.35
28.76771306991577,-13.53,12.98,-8.84,20.72
28.76876211166382,-14.63,12.76,-9.01,21.4
28.812915086746216,-14.01,16.5,-7.41,22.87
28.814134120941162,-9.09,20.94,-7.45,24.01
28.815342903137207,-1.62,18.53,-11.9,22.08
28.81747817993164,1.69,11.81,-9.77,15.42
28.837972164154053,0.02,5.48,-8.21,9.87
28.839028120040894,-4.24,1.34,-5.55,7.11
28.85466718673706,-3.37,-1.27,-3.79,5.22
28.855751037597656,6.21,4.14,-2.15,7.76
28.869999885559082,10.47,-0.23,3.05,10.9
28.87099003791809,5.49,-5.14,-1.28,7.62
28.915529012680054,-3.43,-4.75,-3.08,6.61
28.91661500930786,-8.67,-3.65,-0.42,9.41
28.917643070220947,-11.72,-3.56,-1.65,12.35
28.938619136810303,-13.7,-3.67,-2.21,14.35
28.939658164978027,-14.16,-4.51,-1.32,14.91
28.954514026641846,-11.86,-5.58,0.88,13.13
28.955551147460938,-8.64,-6.8,2.48,11.27
28.971869945526123,-6.84,-8.23,2.72,11.04
28.973356008529663,-6.28,-8.72,2.59,11.05
28.987194061279297,-6.12,-8.08,2.56,10.45
29.01772904396057,-5.89,-7.27,1.77,9.52
29.018826961517334,-5.51,-6.64,0.57,8.64
29.019646167755127,-5.27,-5.93,-0.49,7.94
29.038434982299805,-4.96,-5.49,-1.32,7.51
29.03945803642273,-4.35,-5.28,-1.88,7.09
29.054269075393677,-3.98,-5.45,-1.88,7.0
29.0552339553833,-3.93,-6.08,-1.75,7.44
29.071274042129517,-3.8,-6.33,-1.34,7.5
29.072683095932007,-3.42,-5.85,0.05,6.77
29.087289094924927,-2.35,-5.32,0.85,5.87
29.117988109588623,-0.1,-5.33,0.07,5.33
29.119327068328857,2.08,-5.39,-0.17,5.77
29.12035608291626,3.78,-5.03,-0.22,6.29
29.138391971588135,5.13,-4.11,0.32,6.58
29.13943099975586,5.94,-2.59,1.82,6.73
29.154973030090332,6.43,-1.07,2.33,6.92
29.15596294403076,7.38,0.43,2.24,7.72
29.17172408103943,9.08,2.54,2.09,9.65
29.17319393157959,11.71,4.76,2.19,12.82
29.18715500831604,14.3,6.15,2.28,15.73
29.216938972473145,16.29,6.52,2.53,17.72
29.2183620929718,17.98,5.99,3.26,19.22
29.219383239746094,19.05,5.43,3.22,20.06
29.239765167236328,19.38,5.69,2.58,20.36
29.240803241729736,19.49,6.05,1.65,20.47
29.25474214553833,18.68,5.99,0.32,19.61
29.255774974822998,14.8,10.56,-0.37,18.18
29.271644115447998,8.36,10.95,-1.89,13.9
29.272695064544678,-2.33,-1.51,-7.19,7.7
29.287405014038086,-12.7,13.51,-11.44,21.78
29.317337036132812,-11.07,43.83,3.14,45.31
29.31869602203369,-10.12,26.58,3.31,28.63
29.319595098495483,-3.29,-1.83,-4.66,5.99
29.33877205848694,5.17,-2.52,1.8,6.02
29.339837074279785,9.8,-7.12,8.12,14.58
29.35455322265625,10.84,-10.98,6.63,16.79
29.355590105056763,10.61,-9.97,0.41,14.56
29.3713800907135,8.31,-3.05,0.78,8.88
29.372384071350098,3.72,2.24,0.31,4.35
29.387452125549316,0.34,2.35,-1.85,3.01
29.416118144989014,-1.09,1.72,-3.13,3.73
29.417237043380737,-0.9,1.85,-1.97,2.84
29.418004035949707,0.78,1.09,-0.03,1.34
29.43894100189209,2.42,-0.47,0.85,2.6
29.439975023269653,2.52,-1.83,1.74,3.56
29.454827070236206,1.41,-1.83,2.09,3.11
29.45582389831543,0.14,-0.71,1.2,1.4
29.471237182617188,-0.12,0.46,-0.18,0.5
29.472259044647217,0.37,0.57,-0.67,0.95
