time,ax,ay,az,atotal
0.002716064453125,-1.87,-1.8,0.24,2.6
0.004191160202026367,-2.31,-2.07,-0.02,3.1
0.005214214324951172,-0.6,-0.79,-0.94,1.36
0.027317047119140625,0.77,-0.74,0.06,1.06
0.028733253479003906,0.71,0.58,0.94,1.31
0.03989219665527344,0.96,1.65,0.44,1.95
0.04141807556152344,0.08,0.91,0.08,0.91
0.05769014358520508,-0.8,0.4,0.01,0.89
0.05918622016906738,-0.34,0.27,-0.13,0.45
0.0741581916809082,0.15,0.15,-0.24,0.32
0.10159826278686523,0.05,-0.08,-0.11,0.14
0.10349321365356445,-0.11,-0.15,0.08,0.2
0.1049489974975586,-0.06,-0.22,0.25,0.33
0.12370014190673828,0.05,-0.23,0.26,0.35
0.12509417533874512,0.06,-0.23,0.29,0.37
0.14021730422973633,-0.11,-0.12,0.3,0.34
0.14166522026062012,-0.1,-0.1,0.18,0.22
0.15779614448547363,-0.13,-0.09,0.08,0.17
0.1601090431213379,-0.1,-0.02,-0.05,0.11
0.17463207244873047,-0.04,-0.02,-0.08,0.09
0.1995251178741455,0.02,0.01,-0.09,0.09
0.20127105712890625,0.1,0.02,-0.05,0.11
0.2023782730102539,0.06,0.01,0.0,0.06
0.20752620697021484,-0.01,-0.02,0.15,0.15
0.21780920028686523,-0.01,-0.11,0.2,0.22
0.2275381088256836,-0.04,-0.05,0.22,0.22
0.23764419555664062,-0.07,0.01,0.1,0.12
0.24744701385498047,-0.03,-0.05,0.03,0.06
0.25731921195983887,0.1,-0.11,0.08,0.16
0.2670881748199463,0.21,-0.09,0.22,0.31
0.2777721881866455,0.2,-0.07,0.32,0.38
0.30716514587402344,0.08,-0.11,0.19,0.23
0.3089461326599121,0.03,-0.11,0.15,0.18
0.31030917167663574,0.14,-0.18,0.13,0.26
0.32447004318237305,0.49,-0.37,0.02,0.61
0.3266119956970215,0.53,-0.61,-0.28,0.85
0.34012699127197266,0.38,-0.79,-0.6,1.06
0.34652233123779297,0.33,-0.88,-0.58,1.1
0.35692715644836426,0.39,-0.63,-0.33,0.81
0.36664533615112305,0.45,-0.87,-0.44,1.07
0.37889623641967773,0.65,-1.44,0.71,1.73
0.4031252861022949,0.48,-1.64,2.81,3.28
0.40445518493652344,-0.18,0.02,1.58,1.59
0.40566110610961914,-0.73,1.64,0.42,1.84
0.4240682125091553,-1.0,1.47,0.66,1.89
0.42590999603271484,-1.05,1.03,-0.06,1.47
0.4398980140686035,-0.63,0.87,-0.56,1.21
0.44573521614074707,-0.03,0.54,-0.41,0.67
0.45697712898254395,0.31,-0.02,-0.2,0.36
0.46564316749572754,0.26,-0.27,-0.05,0.37
0.47840309143066406,0.11,-0.28,0.21,0.36
0.5064830780029297,-0.11,-0.18,0.29,0.35
0.5082731246948242,-0.31,-0.11,0.36,0.48
0.509451150894165,-0.36,-0.06,0.34,0.49
0.5249621868133545,-0.2,-0.09,0.28,0.35
0.5264441967010498,0.09,-0.12,0.42,0.44
0.5403852462768555,0.31,-0.15,0.49,0.59
0.5450711250305176,0.25,-0.24,0.32,0.47
0.5573062896728516,0.15,-0.19,0.07,0.25
0.5648441314697266,0.05,0.0,-0.09,0.1
0.5747742652893066,0.0,0.12,-0.22,0.25
0.6031112670898438,0.06,0.2,-0.37,0.42
0.6048860549926758,0.13,0.2,-0.43,0.49
0.6062602996826172,0.12,0.15,-0.33,0.38
0.624387264251709,0.03,0.04,-0.28,0.28
0.6258611679077148,-0.02,-0.01,-0.03,0.03
0.6403601169586182,-0.07,-0.05,0.19,0.2
0.6442711353302002,-0.17,-0.08,0.32,0.37
0.6569921970367432,-0.27,-0.01,0.35,0.44
0.6643822193145752,-0.36,0.06,0.21,0.42
0.6746201515197754,-0.46,0.13,0.11,0.49
0.6987800598144531,-0.57,0.21,0.03,0.6
0.6998190879821777,-0.6,0.25,-0.08,0.65
0.7035160064697266,-0.51,0.28,-0.15,0.6
0.7143239974975586,-0.35,0.3,-0.24,0.51
0.7240133285522461,-0.22,0.29,-0.32,0.48
0.733727216720581,-0.29,0.2,-0.32,0.47
0.7463760375976562,-0.41,0.15,-0.12,0.45
0.7559323310852051,-0.41,0.12,0.13,0.44
0.7664833068847656,-0.37,-0.01,0.31,0.48
0.7754859924316406,-0.33,-0.05,0.28,0.43
0.811514139175415,-0.29,-0.04,0.07,0.3
0.8133261203765869,-0.33,0.0,0.02,0.33
0.8148632049560547,-0.41,0.08,0.09,0.42
0.8216981887817383,-0.5,0.15,0.09,0.52
0.8230352401733398,-0.5,0.11,-0.2,0.54
0.8331902027130127,-0.38,0.14,-0.43,0.59
0.8431210517883301,-0.3,0.24,-0.36,0.52
0.853032112121582,-0.35,0.23,-0.28,0.5
0.862619161605835,-0.35,0.25,-0.18,0.46
0.8728251457214355,-0.29,0.2,-0.08,0.36
0.9054470062255859,-0.28,-0.02,-0.05,0.28
0.9071249961853027,-0.22,-0.2,-0.02,0.29
0.9084951877593994,-0.06,-0.16,0.12,0.2
0.9244723320007324,0.24,-0.12,0.22,0.34
0.9260072708129883,0.46,-0.15,0.1,0.49
0.9402961730957031,0.49,-0.13,-0.08,0.51
0.9418473243713379,0.42,-0.02,-0.2,0.46
0.95697021484375,0.27,0.09,-0.23,0.36
0.9618651866912842,0.11,0.15,-0.1,0.21
0.9759271144866943,0.0,0.15,-0.03,0.15
1.0046782493591309,-0.03,0.0,-0.08,0.08
1.006460189819336,0.08,-0.1,-0.06,0.14
1.0076580047607422,0.3,-0.08,-0.06,0.31
1.0245521068572998,0.43,-0.01,-0.13,0.44
1.0259943008422852,0.33,-0.02,-0.28,0.43
1.0407700538635254,0.1,0.01,-0.23,0.25
1.0421953201293945,-0.13,0.1,-0.18,0.24
1.0575013160705566,-0.26,0.12,-0.18,0.33
1.0610291957855225,-0.26,0.2,-0.16,0.36
1.0722990036010742,-0.22,0.25,0.02,0.33
1.0839552879333496,-0.26,0.22,0.18,0.38
1.1092522144317627,-0.36,0.2,0.08,0.41
1.1108760833740234,-0.55,0.2,-0.09,0.59
1.1121702194213867,-0.73,0.27,-0.4,0.87
1.1251771450042725,-0.8,0.37,-0.86,1.23
1.1308801174163818,-0.74,0.53,-1.13,1.45
1.140566110610962,-0.61,0.65,-1.11,1.42
1.150576114654541,-0.55,0.69,-0.99,1.32
1.160454273223877,-0.51,0.7,-1.05,1.36
1.1706321239471436,-0.54,0.62,-1.14,1.4
1.1804461479187012,-0.68,0.59,-1.37,1.63
1.2099261283874512,-0.78,0.69,-1.54,1.85
1.2117321491241455,-0.98,0.84,-1.66,2.1
1.2131953239440918,-1.37,1.07,-1.74,2.45
1.2231731414794922,-1.6,1.34,-1.77,2.73
1.2299771308898926,-1.66,1.51,-1.73,2.83
1.2398121356964111,-1.65,1.64,-1.68,2.86
1.249908208847046,-1.47,1.78,-1.54,2.77
1.2598910331726074,-1.32,2.04,-1.78,3.01
1.2698392868041992,-1.36,2.93,-2.19,3.9
1.2795343399047852,-1.47,4.38,-3.02,5.51
1.308354139328003,-1.34,5.51,-3.64,6.73
1.3097972869873047,-1.41,6.47,-4.36,7.92
1.3108100891113281,-2.03,6.79,-5.44,8.93
1.3247921466827393,-2.8,6.35,-5.93,9.12
1.329268217086792,-2.78,6.04,-5.62,8.7
1.3407211303710938,-2.0,5.61,-4.52,7.47
1.3491992950439453,-0.63,4.68,-3.24,5.72
1.3591251373291016,0.39,3.79,-2.27,4.43
1.3688712120056152,0.81,2.86,-2.01,3.58
1.3787102699279785,-0.33,1.93,-3.12,3.68
1.4079980850219727,-1.32,3.78,-0.9,4.1
1.4094772338867188,-1.29,4.04,0.74,4.3
1.4104831218719482,-3.47,0.39,-3.06,4.64
1.424814224243164,-5.24,-0.4,-3.34,6.22
1.42844820022583,-5.36,0.74,-1.42,5.59
1.4383721351623535,-5.14,-0.1,-1.07,5.25
1.4484221935272217,-4.65,-1.67,-0.62,4.97
1.458235263824463,-4.3,-2.98,-0.46,5.25
1.4682362079620361,-4.12,-3.64,-0.6,5.53
1.4778900146484375,-3.75,-3.58,-0.72,5.23
1.5158600807189941,-3.27,-3.35,-0.93,4.77
1.517374038696289,-2.94,-3.42,-1.23,4.67
1.518341064453125,-2.83,-3.58,-1.28,4.73
1.5207772254943848,-2.71,-3.7,-0.91,4.67
1.5272822380065918,-2.52,-3.89,-0.53,4.66
1.5379443168640137,-2.41,-4.26,-0.49,4.91
1.5477712154388428,-2.64,-4.6,-0.75,5.35
1.557589054107666,-3.08,-4.58,-0.67,5.55
1.5672602653503418,-3.41,-4.12,0.14,5.34
1.5773441791534424,-3.08,-3.97,0.49,5.04
1.6107373237609863,-2.2,-4.17,0.63,4.75
1.6123461723327637,-1.81,-4.27,0.81,4.7
1.6133241653442383,-1.76,-4.45,0.81,4.85
1.6246542930603027,-1.62,-4.42,0.98,4.8
1.6269361972808838,-1.29,-4.52,0.9,4.78
1.6406431198120117,-0.88,-4.58,0.69,4.71
1.6468241214752197,-0.58,-4.56,0.55,4.62
1.657485008239746,-0.57,-4.52,-0.04,4.55
1.6667871475219727,-0.54,-3.88,-0.41,3.93
1.6763763427734375,-0.2,-3.14,0.04,3.14
1.712151050567627,0.6,-3.07,0.06,3.12
1.7136151790618896,1.65,-2.89,0.16,3.33
1.7146291732788086,2.53,-2.52,0.8,3.65
1.7243852615356445,3.14,-2.22,1.7,4.2
1.7260560989379883,3.26,-2.16,2.2,4.48
1.740828037261963,3.25,-2.14,2.77,4.77
1.7462730407714844,3.34,-2.45,3.39,5.35
1.7576231956481934,2.82,-2.8,2.52,4.7
1.7660112380981445,2.27,-1.7,1.48,3.19
1.7759921550750732,3.02,-0.28,1.94,3.6
1.8144991397857666,4.57,-0.03,2.24,5.08
1.8158481121063232,6.19,0.12,3.06,6.9
1.8168272972106934,7.7,0.64,4.79,9.09
1.820796012878418,8.97,1.61,6.38,11.12
1.8254871368408203,9.99,2.7,7.49,12.77
1.841982126235962,10.05,2.65,8.34,13.32
1.8452861309051514,8.78,0.79,7.89,11.83
1.8552570343017578,6.59,0.47,1.62,6.8
1.8651401996612549,-1.64,-4.67,-10.24,11.37
1.8750441074371338,-11.24,-0.02,-27.4,29.61
1.8856031894683838,-13.41,28.8,-16.57,35.83
1.9134881496429443,-9.11,52.34,33.81,62.97
1.9151639938354492,-9.71,36.87,2.9,38.23
1.916588306427002,-8.59,3.96,-6.12,11.26
1.9247360229492188,-2.46,-9.55,3.62,10.5
1.9344730377197266,3.17,-13.59,4.75,14.74
1.9444491863250732,8.36,-13.24,5.55,16.61
1.9547910690307617,9.53,-11.24,2.72,14.98
1.9646821022033691,6.46,-5.7,0.78,8.65
1.9744200706481934,3.98,-1.22,-1.73,4.5
1.9848811626434326,1.73,1.9,-5.55,6.11
2.0123281478881836,0.49,4.7,-4.84,6.76
2.0138511657714844,-0.27,5.99,-1.09,6.09
2.015076160430908,-0.85,2.99,1.27,3.35
2.0246200561523438,-0.94,-0.71,2.6,2.85
2.033964157104492,-0.31,-2.45,2.75,3.69
2.0438151359558105,0.42,-2.72,1.57,3.16
2.053840160369873,0.69,-1.39,0.7,1.7
2.0638301372528076,0.47,0.05,-0.5,0.68
2.0736522674560547,0.28,0.63,-1.46,1.61
2.084038257598877,0.41,0.63,-1.54,1.71
2.1121861934661865,0.54,0.31,-1.22,1.36
2.1138319969177246,0.41,0.03,-0.79,0.89
2.115089178085327,0.1,0.06,-0.36,0.37
2.124307155609131,-0.29,0.09,-0.1,0.31
2.1333231925964355,-0.57,0.02,0.45,0.72
2.143007278442383,-0.46,-0.1,0.97,1.07
2.153029203414917,-0.19,-0.33,0.61,0.71
2.1629552841186523,0.13,-0.3,0.17,0.36
2.172976016998291,0.34,0.04,0.14,0.36
2.1833651065826416,0.22,0.24,0.03,0.32
2.2115912437438965,-0.04,0.18,-0.26,0.31
2.2132320404052734,-0.16,0.15,-0.08,0.23
2.21490216255188,-0.23,0.15,0.14,0.3
2.225625991821289,-0.25,0.16,0.03,0.29
2.232438087463379,-0.25,0.28,0.17,0.41
2.242298126220703,-0.23,0.3,0.1,0.39
2.25228214263916,-0.22,0.2,-0.1,0.31
2.262364149093628,-0.33,0.19,-0.1,0.39
2.2722251415252686,-0.5,0.24,-0.22,0.59
2.2854971885681152,-0.71,0.31,-0.35,0.85
2.313798189163208,-0.89,0.4,-0.33,1.03
2.315406322479248,-0.85,0.43,-0.33,1.0
2.3167600631713867,-0.79,0.41,-0.48,1.01
2.32145619392395,-0.72,0.42,-0.54,0.99
2.3316640853881836,-0.66,0.52,-0.43,0.94
2.341569185256958,-0.84,0.54,-0.31,1.04
2.351260185241699,-1.1,0.58,-0.37,1.29
2.361565113067627,-1.33,0.67,-0.35,1.52
2.3714311122894287,-1.3,0.8,-0.22,1.54
2.381357192993164,-1.03,0.79,-0.23,1.31
2.41733717918396,-0.89,0.68,-0.28,1.15
2.419124126434326,-0.96,0.63,-0.27,1.17
2.4204893112182617,-1.15,0.74,-0.06,1.36
2.4220499992370605,-1.2,0.91,-0.15,1.51
2.430934190750122,-1.03,0.94,-0.5,1.48
2.4409260749816895,-0.88,0.99,-0.65,1.47
2.4507651329040527,-0.93,1.26,-0.66,1.69
2.460888147354126,-1.15,1.69,-1.01,2.28
2.470771312713623,-1.41,2.06,-1.43,2.87
2.4805350303649902,-1.63,2.67,-1.09,3.31
2.5126171112060547,-2.01,3.0,-1.0,3.74
2.514416217803955,-2.67,3.25,-0.99,4.32
2.515693187713623,-3.37,3.6,-0.95,5.02
2.5233631134033203,-3.92,3.93,-0.97,5.63
2.530271053314209,-4.32,4.43,-0.93,6.25
2.5412230491638184,-4.79,5.54,-0.78,7.36
2.5498461723327637,-5.89,7.08,-1.19,9.28
2.5599923133850098,-7.74,9.22,-2.05,12.21
2.5700550079345703,-9.45,11.15,-4.32,15.24
2.580080032348633,-10.83,11.97,-6.11,17.25
2.6157021522521973,-11.96,12.04,-6.71,18.24
2.6175801753997803,-12.57,11.53,-7.54,18.64
2.6190342903137207,-12.3,10.66,-7.64,17.98
2.62191104888916,-9.71,11.72,-5.52,16.18
2.6387221813201904,-5.0,13.02,-3.49,14.37
2.640219211578369,0.28,12.87,-3.72,13.39
2.6582813262939453,3.48,11.2,-2.32,11.95
2.659759998321533,3.04,5.87,-3.61,7.53
2.6732771396636963,-0.91,-0.56,-7.06,7.14
2.6791162490844727,-2.74,-2.77,-7.22,8.2
2.693392276763916,1.4,1.48,-0.19,2.04
2.7180521488189697,2.97,-1.11,1.69,3.59
2.7198920249938965,-1.06,-3.47,-3.35,4.93
2.7210350036621094,-4.49,-4.07,-3.75,7.12
2.728365182876587,-6.21,-3.28,-2.14,7.34
2.7387633323669434,-7.73,-2.49,-2.11,8.39
2.7486252784729004,-9.11,-2.56,-2.23,9.72
2.75850510597229,-9.7,-3.49,-2.17,10.53
2.7681193351745605,-9.02,-4.76,-0.45,10.2
2.778541088104248,-7.55,-6.02,1.13,9.72
2.788454055786133,-6.17,-7.42,1.21,9.72
2.8160853385925293,-5.32,-7.61,0.02,9.28
2.81748628616333,-5.08,-6.68,-0.6,8.41
2.818709135055542,-5.42,-5.76,-0.97,7.96
2.8280792236328125,-5.25,-5.8,-2.29,8.15
2.8416991233825684,-4.72,-5.78,-3.16,8.1
2.8479361534118652,-4.31,-5.87,-3.73,8.18
2.8575971126556396,-3.94,-5.92,-3.88,8.1
2.8673620223999023,-3.49,-6.03,-3.77,7.92
2.877613067626953,-2.89,-6.17,-3.71,7.75
2.888089179992676,-2.18,-6.32,-3.61,7.59
2.91572904586792,-1.62,-6.53,-3.66,7.65
2.917356014251709,-1.14,-6.72,-4.01,7.9
2.918877124786377,-0.72,-6.61,-4.05,7.78
2.927204132080078,-0.51,-6.1,-3.57,7.08
2.9424591064453125,-0.35,-5.16,-3.4,6.18
2.947035312652588,0.18,-4.1,-3.61,5.46
2.9568099975585938,1.22,-3.41,-3.32,4.91
2.9669270515441895,2.3,-2.49,-2.15,4.01
2.976858139038086,3.34,-1.04,-0.26,3.5
2.987293243408203,4.36,0.59,1.7,4.71
3.0146961212158203,4.94,2.09,3.02,6.15
3.0159192085266113,5.5,3.62,3.62,7.51
3.017101287841797,6.74,5.43,4.17,9.6
3.0260043144226074,8.35,6.99,4.19,11.66
3.036478042602539,10.08,7.44,2.89,12.85
3.0462141036987305,11.57,7.67,1.89,14.0
3.056246280670166,12.81,8.74,1.65,15.59
3.0662670135498047,14.22,10.01,1.91,17.49
3.0762081146240234,15.95,10.46,3.28,19.35
3.086787223815918,17.91,10.28,5.01,21.24
3.119124174118042,19.45,8.89,6.83,22.44
3.1210391521453857,19.37,6.09,8.34,21.95
3.122359275817871,13.59,3.82,8.58,16.51
3.1422243118286133,2.01,2.06,6.33,6.95
3.143667221069336,-5.65,-4.53,-3.27,7.94
3.1585052013397217,-18.54,-3.79,-16.92,25.38
3.1600680351257324,-30.37,24.12,-13.68,41.12
3.1742281913757324,-18.8,50.22,22.28,58.06
3.1757922172546387,-9.1,21.79,3.5,23.87
3.191052198410034,1.82,0.02,-0.21,1.83
3.2191641330718994,8.25,-7.0,4.35,11.66
3.221287250518799,10.08,-11.74,3.02,15.76
3.2223141193389893,11.1,-11.89,0.73,16.28
3.242262125015259,10.96,-9.08,0.15,14.23
3.243760108947754,9.09,-4.79,1.83,10.43
3.258726119995117,5.48,-1.39,0.78,5.7
3.2602200508117676,1.55,1.27,-1.67,2.6
3.2749881744384766,-0.86,3.56,-2.58,4.47
3.276515007019043,-1.52,4.53,-1.74,5.08
3.29640531539917,-1.22,2.67,-0.12,2.93
3.326949119567871,-0.17,-0.42,1.83,1.88
3.3286752700805664,0.78,-2.32,2.89,3.78
3.3296961784362793,0.65,-2.62,2.47,3.65
3.341724157333374,0.17,-1.39,1.21,1.85
3.343240261077881,0.15,0.18,-0.24,0.33
3.3583672046661377,0.22,0.91,-0.91,1.3
3.359832286834717,0.29,0.69,-0.79,1.08
3.375007152557373,0.57,-0.09,-0.4,0.7
3.376476287841797,0.7,-0.66,-0.2,0.98
3.3925600051879883,0.44,-0.64,-0.47,0.9
3.417243003845215,0.0,-0.14,-0.64,0.65
3.419138193130493,-0.26,0.41,-0.09,0.49
3.4209742546081543,-0.36,0.56,0.68,0.95
3.4234561920166016,-0.34,0.28,0.76,0.87
3.4330992698669434,-0.14,0.02,0.38,0.4
3.443244218826294,0.07,-0.08,-0.42,0.43
3.453418254852295,0.05,0.11,-1.2,1.2
3.463045120239258,-0.33,0.59,-0.88,1.1
3.473283290863037,-0.94,0.91,-0.33,1.34
3.4830360412597656,-0.99,0.76,-0.23,1.26
3.4930419921875,-0.57,0.42,-0.16,0.72
3.5236141681671143,-0.34,0.24,0.02,0.41
3.5252790451049805,-0.55,0.29,0.08,0.62
3.5265371799468994,-1.02,0.51,-0.13,1.14
3.5424461364746094,-1.33,0.74,-0.58,1.62
3.5439391136169434,-1.3,0.8,-1.08,1.86
3.557465076446533,-0.92,0.7,-1.28,1.72
3.562145233154297,-0.45,0.52,-1.03,1.23
3.573944091796875,-0.09,0.34,-0.85,0.91
3.5820980072021484,-0.01,0.33,-0.87,0.93
3.5920791625976562,-0.35,0.57,-0.84,1.07
3.6217923164367676,-1.0,0.94,-0.72,1.54
3.623599052429199,-1.66,1.3,-0.42,2.14
3.6246302127838135,-1.95,1.45,-0.25,2.44
3.642477035522461,-1.98,1.51,-0.55,2.55
3.6439621448516846,-1.81,1.89,-0.38,2.64
3.6585052013397217,-1.94,2.15,-0.34,2.91
3.6615242958068848,-2.22,2.32,-0.3,3.22
3.675011157989502,-2.45,2.57,-0.42,3.57
3.6816492080688477,-2.66,2.7,-1.18,3.96
3.691789150238037,-2.8,2.95,-1.8,4.44
3.724222183227539,-2.93,3.33,-2.06,4.89
3.7256081104278564,-3.19,3.65,-2.36,5.39
3.7266101837158203,-3.64,4.1,-2.47,6.01
3.742237091064453,-4.4,4.96,-2.07,6.94
3.743699073791504,-5.42,6.5,-1.69,8.63
3.758686065673828,-6.91,8.6,-1.91,11.19
3.7607412338256836,-8.98,10.97,-3.42,14.58
3.774837017059326,-10.48,12.83,-5.7,17.51
3.7805631160736084,-11.01,12.83,-7.81,18.62
3.790585994720459,-10.77,11.6,-8.84,18.13
3.820484161376953,-10.68,10.99,-9.19,17.86
3.8219480514526367,-9.44,13.11,-6.08,17.26
3.8229851722717285,-5.44,15.42,-3.19,16.65
3.8423471450805664,0.06,14.77,-3.52,15.18
3.8438541889190674,2.69,9.88,-4.2,11.06
3.857299327850342,0.71,2.98,-5.99,6.72
3.859988212585449,-3.37,-2.19,-6.4,7.55
3.875030040740967,-2.0,-0.22,-1.76,2.67
3.8798112869262695,2.0,0.58,5.02,5.43
3.890559196472168,-0.03,-4.53,0.7,4.58
3.9289941787719727,-3.38,-6.57,-2.77,7.89
3.9302163124084473,-5.08,-5.82,-1.39,7.84
3.931230068206787,-6.45,-4.05,-0.81,7.65
3.9434900283813477,-7.5,-3.18,-0.74,8.17
3.9450061321258545,-7.63,-3.24,-0.63,8.31
3.9579811096191406,-6.62,-4.2,-0.36,7.84
3.959444046020508,-5.5,-5.52,0.39,7.8
3.975093126296997,-5.13,-6.43,0.59,8.24
3.9792733192443848,-5.3,-6.62,0.65,8.5
3.990600109100342,-5.28,-6.64,0.66,8.5
4.024736166000366,-5.28,-6.19,0.43,8.14
4.0261921882629395,-5.32,-5.71,0.18,7.8
4.0271992683410645,-4.99,-5.64,-0.66,7.55
4.042663097381592,-4.48,-5.42,-1.13,7.12
4.044125080108643,-4.27,-5.16,-1.2,6.8
4.058584213256836,-4.28,-5.17,-1.13,6.8
4.059905052185059,-4.16,-5.46,-1.06,6.94
4.075005054473877,-3.88,-5.68,-1.01,6.95
4.078396320343018,-3.52,-5.82,-1.01,6.87
4.091344118118286,-3.17,-5.95,-1.03,6.81
4.124139308929443,-3.01,-5.98,-0.77,6.73
4.125457286834717,-3.08,-5.84,-0.31,6.6
4.126474142074585,-3.31,-5.35,0.15,6.29
4.142621994018555,-3.19,-4.3,0.39,5.36
4.144088268280029,-2.14,-3.48,0.16,4.08
4.158631324768066,-0.25,-3.07,0.18,3.08
4.1601011753082275,1.58,-2.59,0.67,3.1
4.175312042236328,2.89,-1.58,1.55,3.64
4.177523136138916,3.82,-0.2,2.3,4.46
4.194217205047607,4.86,1.29,2.56,5.64
4.224315166473389,6.1,2.93,2.7,7.28
4.225614070892334,6.88,4.42,2.83,8.65
4.226699113845825,7.21,5.73,2.56,9.55
4.242748260498047,8.07,7.22,2.95,11.22
4.244222164154053,10.04,8.46,4.01,13.72
4.258707046508789,12.58,8.15,4.82,15.74
4.260172128677368,13.98,6.62,5.21,16.32
4.275324106216431,13.99,5.82,5.43,16.09
4.2768073081970215,13.15,5.1,5.28,15.06
4.290926218032837,12.88,4.71,5.11,14.63
4.296794176101685,13.73,4.2,4.49,15.04
4.337010145187378,13.99,2.75,3.39,14.65
4.338369131088257,10.57,4.61,1.35,11.61
4.339380264282227,1.91,0.02,-5.09,5.43
4.35943603515625,-10.96,-4.66,-17.36,21.05
4.36102819442749,-21.54,16.16,-21.89,34.7
4.375284194946289,-12.77,54.7,14.2,57.93
4.376788139343262,-3.93,33.0,4.05,33.47
4.392221212387085,0.86,-1.3,-7.46,7.62
4.393678188323975,4.12,-10.29,2.18,11.29
4.407470226287842,6.34,-12.29,5.02,14.71
4.434437274932861,7.52,-11.9,3.96,14.62
4.436270236968994,8.74,-9.74,3.46,13.53
4.437684059143066,7.0,-4.78,3.05,9.0
4.439673185348511,3.86,-0.43,2.54,4.64
4.445589065551758,1.24,2.87,0.81,3.22
4.455735206604004,-0.66,3.93,-1.87,4.4
4.4657182693481445,-1.4,3.25,-1.84,3.98
4.475532054901123,-0.47,1.9,0.78,2.1
4.485365152359009,1.13,-0.17,2.46,2.71
4.495317220687866,1.72,-1.93,1.96,3.24
4.525505065917969,1.42,-2.3,0.43,2.73
4.526777267456055,1.09,-1.17,-0.08,1.6
4.527788162231445,0.84,-0.01,0.06,0.84
4.542891025543213,0.61,0.19,-0.03,0.63
4.5449700355529785,0.59,0.05,-0.51,0.78
4.558084011077881,0.71,0.19,-0.73,1.03
4.5650410652160645,0.79,0.35,-0.72,1.12
4.575183153152466,0.79,0.29,-0.27,0.88
4.584586143493652,0.5,0.03,0.35,0.61
4.594624042510986,0.28,-0.18,0.66,0.73
4.626552104949951,0.42,-0.32,0.65,0.83
4.627914190292358,0.56,-0.4,0.47,0.83
4.628724098205566,0.56,-0.4,0.32,0.75
4.642880201339722,0.36,-0.33,0.25,0.54
4.64438533782959,0.03,-0.16,0.11,0.19
4.658630132675171,-0.2,0.01,-0.11,0.22
4.664037227630615,-0.29,0.17,-0.22,0.4
4.675174236297607,-0.3,0.3,-0.43,0.6
4.684086322784424,-0.27,0.36,-0.64,0.78
4.69356632232666,-0.25,0.38,-0.5,0.67
4.734844207763672,-0.41,0.42,-0.15,0.6
4.736280202865601,-0.58,0.49,-0.13,0.77
4.737253189086914,-0.7,0.51,-0.43,0.96
4.739712238311768,-0.86,0.56,-0.59,1.18
4.7432332038879395,-0.99,0.58,-0.64,1.31
4.753395080566406,-1.0,0.54,-0.67,1.31
4.763534069061279,-0.81,0.44,-0.68,1.14
4.773401260375977,-0.52,0.34,-0.73,0.95
4.783185005187988,-0.31,0.34,-0.62,0.77
4.793118000030518,-0.41,0.4,-0.39,0.69
4.827259063720703,-0.67,0.55,-0.18,0.88
4.828408241271973,-0.86,0.69,-0.2,1.12
4.829377174377441,-1.06,0.84,-0.31,1.38
4.843062162399292,-1.34,1.12,-0.47,1.8
4.844531059265137,-1.67,1.34,-0.64,2.23
4.858834266662598,-1.78,1.46,-0.78,2.43
4.862364292144775,-1.68,1.53,-0.95,2.46
4.873754024505615,-1.77,1.81,-1.02,2.72
4.882328033447266,-1.96,2.37,-1.04,3.24
4.892168998718262,-2.17,2.86,-0.99,3.72
4.9282660484313965,-2.47,3.24,-0.95,4.18
4.930034160614014,-2.74,3.46,-1.2,4.57
4.931116104125977,-3.07,3.74,-1.23,4.99
4.94296407699585,-3.54,4.23,-1.21,5.64
4.944446086883545,-4.28,4.92,-1.48,6.68
4.959190130233765,-5.24,6.23,-1.38,8.25
4.961783170700073,-6.49,8.1,-1.57,10.49
4.975433111190796,-7.64,9.3,-3.49,12.53
4.981900215148926,-8.21,9.86,-5.23,13.85
4.991318225860596,-8.77,10.24,-6.34,14.89
5.0292510986328125,-9.07,10.31,-7.23,15.51
5.030610084533691,-9.29,10.03,-7.88,15.77
5.0316221714019775,-9.42,9.28,-8.92,15.95
5.0418620109558105,-9.14,9.94,-8.27,15.83
5.042903184890747,-7.15,12.96,-4.99,15.61
5.0591721534729,-2.75,15.26,-3.48,15.89
5.060945987701416,0.6,13.84,-4.33,14.51
5.075571060180664,0.91,7.16,-5.61,9.14
5.081049203872681,-1.96,1.45,-6.55,6.98
5.091355323791504,-5.1,-1.99,-5.52,7.77
5.100834131240845,-3.43,-1.99,-4.32,5.86
5.132219314575195,2.75,2.42,2.68,4.53
5.13337516784668,3.2,-1.02,3.5,4.85
5.134546279907227,-2.29,-4.18,-2.04,5.18
5.140082120895386,-6.52,-4.67,-2.24,8.32
5.150086164474487,-8.86,-3.68,-0.7,9.61
5.160247325897217,-10.64,-3.15,-0.77,11.12
5.170221328735352,-11.34,-3.15,-0.74,11.79
5.180575132369995,-9.74,-3.63,0.47,10.4
5.190181255340576,-6.63,-5.03,1.83,8.52
5.200024127960205,-4.54,-6.71,2.17,8.38
5.230531215667725,-4.38,-7.38,2.06,8.82
5.23190712928772,-4.74,-7.16,1.72,8.75
5.2329230308532715,-4.75,-6.04,0.84,7.72
5.242778301239014,-4.63,-4.65,0.07,6.56
5.249475002288818,-4.44,-3.96,-0.9,6.01
5.259605169296265,-3.92,-3.85,-1.84,5.79
5.26937198638916,-3.4,-3.7,-2.29,5.52
5.279597282409668,-3.19,-4.1,-2.36,5.7
5.289360046386719,-3.36,-4.72,-2.02,6.13
5.299326181411743,-3.56,-5.29,-1.39,6.52
5.330006122589111,-3.6,-5.78,-0.77,6.85
5.331401109695435,-3.43,-6.34,-0.39,7.21
5.33241605758667,-3.14,-6.98,-0.16,7.65
5.342738151550293,-2.98,-7.56,0.2,8.12
5.348674297332764,-3.14,-7.79,0.56,8.41
5.359338283538818,-3.34,-7.33,0.95,8.11
5.368845224380493,-3.32,-6.09,1.52,7.1
5.378787040710449,-2.55,-4.64,1.58,5.52
5.388620138168335,-0.76,-3.36,1.25,3.66
5.398555278778076,1.58,-2.26,1.19,3.0
5.429262161254883,3.88,-0.7,1.39,4.18
5.430663108825684,6.16,1.29,1.91,6.57
5.431718111038208,7.91,3.18,2.06,8.77
5.443437099456787,9.37,5.16,2.53,10.99
5.447757244110107,10.71,7.08,3.06,13.19
5.459474086761475,11.93,8.38,3.02,14.88
5.468214988708496,12.95,9.48,2.94,16.31
5.4781622886657715,14.49,10.25,3.48,18.08
5.48884916305542,16.56,9.95,3.45,19.62
5.497589111328125,18.69,8.66,4.61,21.1
5.534977197647095,20.14,6.95,6.17,22.18
5.536346197128296,18.05,9.21,6.48,21.27
5.537318229675293,11.26,7.86,2.44,13.94
5.539659023284912,-0.76,-3.02,-9.1,9.61
5.547033309936523,-13.4,13.0,-18.89,26.55
5.5573201179504395,-15.83,54.04,0.11,56.31
5.567599296569824,-13.56,27.92,1.09,31.05
5.577356338500977,-3.39,-0.11,-3.13,4.61
5.587175130844116,4.77,-7.67,5.04,10.34
5.597099304199219,7.1,-13.66,7.06,16.93
5.634327173233032,9.93,-13.3,4.77,17.26
5.635814189910889,10.88,-9.06,3.62,14.61
5.636797189712524,6.93,-3.66,2.65,8.27
5.639206171035767,2.93,-0.23,1.23,3.18
5.646284103393555,0.45,2.6,-2.37,3.54
5.656753063201904,-0.14,3.93,-2.37,4.59
5.666582107543945,0.21,2.86,0.21,2.87
5.676591157913208,0.69,0.35,1.81,1.96
5.686269283294678,1.14,-0.99,2.22,2.68
5.696302175521851,1.31,-1.47,0.73,2.09
5.733175277709961,1.32,-0.86,-0.17,1.58
5.7345452308654785,1.25,-0.27,-0.3,1.31
5.7355241775512695,1.11,-0.3,-0.08,1.15
5.738746166229248,1.0,-0.48,0.11,1.11
5.759451150894165,0.83,-0.35,-0.19,0.92
5.760901212692261,0.74,0.03,-0.44,0.86
5.7759222984313965,0.61,0.18,-0.3,0.7
5.777362108230591,0.33,0.03,0.38,0.5
5.791398048400879,-0.08,-0.14,1.09,1.1
5.795446157455444,-0.41,-0.18,1.13,1.21
5.834506034851074,-0.45,0.04,0.56,0.71
5.835651159286499,-0.19,0.37,-0.09,0.42
5.836898326873779,0.13,0.45,-0.63,0.78
5.838681221008301,0.32,0.2,-0.83,0.91
5.844648122787476,0.23,0.04,-0.5,0.55
5.854927062988281,-0.09,0.06,-0.15,0.18
5.864865303039551,-0.4,0.21,-0.06,0.45
5.874949216842651,-0.61,0.5,0.18,0.8
5.884814262390137,-0.73,0.63,0.07,0.96
5.895045280456543,-0.87,0.68,-0.28,1.13
5.904748201370239,-1.03,0.83,-0.35,1.36
5.935471057891846,-1.19,0.94,-0.49,1.59
5.936614990234375,-1.23,0.9,-0.65,1.65
5.937549114227295,-1.4,0.86,-0.49,1.71
5.943975210189819,-1.4,0.91,-0.47,1.73
5.954202175140381,-1.25,0.87,-1.06,1.85
5.964160203933716,-1.01,1.17,-1.17,1.93
5.974501132965088,-1.18,1.48,-1.36,2.33
5.984095096588135,-1.61,1.59,-1.37,2.64
5.994138240814209,-1.99,1.66,-1.08,2.8
6.004034996032715,-2.27,1.71,-0.89,2.97
6.034901142120361,-2.4,1.87,-1.01,3.2
6.036065101623535,-2.43,2.18,-1.29,3.51
6.037264108657837,-2.48,2.57,-1.4,3.83
6.043173313140869,-2.58,3.01,-1.4,4.2
6.053190231323242,-2.94,3.45,-1.41,4.74
6.063360214233398,-3.53,3.85,-1.53,5.44
6.073461055755615,-4.19,4.15,-1.76,6.15
6.083227157592773,-4.85,4.6,-1.9,6.94
6.093376159667969,-5.37,5.5,-2.07,7.96
6.103053092956543,-6.0,6.55,-2.48,9.22
6.1336281299591064,-6.94,8.33,-2.53,11.13
6.134819030761719,-8.17,10.19,-4.23,13.72
6.136073112487793,-9.21,11.04,-7.65,16.28
6.142636299133301,-9.64,11.08,-9.37,17.42
6.15955924987793,-9.83,10.62,-10.32,17.77
6.162288188934326,-9.79,10.91,-10.36,17.94
6.176130294799805,-8.14,14.06,-7.48,17.88
6.183261156082153,-4.27,17.03,-5.16,18.29
6.19251823425293,0.11,16.87,-5.09,17.62
6.202177047729492,1.68,11.03,-5.68,12.51
6.231960296630859,-0.6,4.3,-6.8,8.06
6.233127117156982,-4.08,-0.68,-6.32,7.55
6.234371185302734,-2.87,-0.02,-3.74,4.71
6.243539333343506,2.3,2.87,3.84,5.31
6.251988172531128,0.68,-2.34,0.81,2.56
6.261936187744141,-4.49,-4.78,-3.74,7.54
6.271827220916748,-7.49,-4.28,-2.07,8.87
6.28195333480835,-9.35,-3.09,-0.83,9.88
6.291810989379883,-10.61,-2.38,-0.75,10.89
6.301823139190674,-10.24,-2.51,-0.31,10.54
6.339052200317383,-7.77,-3.76,0.22,8.63
6.340456008911133,-5.59,-5.32,0.74,7.75
6.3414552211761475,-5.02,-6.54,0.96,8.3
6.359766006469727,-5.19,-7.14,1.18,8.9
6.360759258270264,-5.36,-6.85,0.92,8.74
6.376057147979736,-5.45,-6.31,0.47,8.35
6.377549171447754,-5.53,-5.79,0.05,8.0
6.392810106277466,-5.93,-5.19,-0.43,7.89
6.39426326751709,-5.95,-4.93,-1.31,7.83
6.408441066741943,-5.42,-4.7,-1.73,7.37
6.4370951652526855,-4.66,-4.79,-2.03,6.98
6.438467025756836,-4.31,-4.92,-2.05,6.85
6.439462184906006,-4.07,-5.38,-1.91,7.01
6.460378170013428,-3.73,-5.9,-1.78,7.2
6.46140718460083,-3.37,-6.42,-1.83,7.47
6.476498126983643,-3.08,-7.01,-1.93,7.89
6.4779651165008545,-2.94,-7.25,-1.54,7.97
6.493070125579834,-3.03,-6.87,-0.71,7.54
6.494568109512329,-3.09,-5.9,0.16,6.66
6.508510112762451,-2.28,-4.66,0.14,5.18
6.539006233215332,-0.2,-3.86,-0.03,3.86
6.540297031402588,2.23,-2.74,0.51,3.56
6.541290283203125,4.26,-0.85,1.69,4.66
6.559879302978516,5.65,1.28,3.09,6.56
6.560883045196533,6.92,3.68,4.13,8.85
6.576313018798828,8.4,6.2,4.39,11.32
6.5777740478515625,10.47,8.42,4.63,14.21
6.592916011810303,12.91,10.41,4.69,17.23
6.594624042510986,14.92,11.99,4.12,19.57
6.608325004577637,16.65,12.14,3.46,20.89
6.638445138931274,17.96,11.49,2.92,21.51
6.639790058135986,19.27,11.02,3.62,22.49
6.64084005355835,19.83,9.5,4.65,22.47
6.659934043884277,16.84,11.57,5.27,21.1
6.660982131958008,10.54,10.43,3.16,15.16
6.6758551597595215,1.02,-1.65,-5.24,5.58
6.676870107650757,-12.19,4.16,-12.81,18.16
6.6931233406066895,-18.02,38.56,-3.46,42.7
6.694620132446289,-12.66,33.74,6.85,36.68
6.708338260650635,-4.55,2.54,0.93,5.29
6.70981502532959,4.35,-4.38,2.32,6.59
6.75403618812561,10.23,-6.98,6.7,14.08
6.755211114883423,11.05,-9.64,4.51,15.34
6.756204128265381,11.21,-7.82,0.28,13.67
6.776932239532471,8.93,-3.02,1.18,9.5
6.777964115142822,4.24,-0.51,0.01,4.27
6.793155193328857,0.58,0.75,-0.89,1.3
6.794611215591431,-1.44,1.8,-0.67,2.4
6.809704303741455,-0.49,1.2,0.77,1.5
6.811159133911133,1.54,-0.04,0.91,1.78
6.825268268585205,2.19,-0.09,0.61,2.27
6.854725122451782,1.43,-0.15,0.11,1.44
6.85605525970459,0.79,-0.49,0.3,0.97
6.8571131229400635,0.72,-0.65,0.96,1.36
6.878019332885742,0.71,-0.84,1.04,1.51
6.879072189331055,0.61,-0.57,0.79,1.14
6.891377210617065,0.58,-0.02,0.09,0.58
6.892864227294922,0.55,0.33,-0.51,0.81
6.909696102142334,0.47,0.45,-0.49,0.81
6.911020278930664,0.49,0.23,-0.28,0.6
6.925154209136963,0.52,-0.22,-0.27,0.62
6.955632209777832,0.41,-0.39,-0.3,0.64
6.956894159317017,0.14,-0.17,-0.13,0.25
6.957897186279297,-0.12,0.09,0.13,0.19
6.976566314697266,-0.22,0.22,0.29,0.42
6.9775710105896,-0.21,0.17,0.25,0.36
6.993311166763306,-0.15,0.1,0.02,0.18
6.994725227355957,-0.09,0.08,-0.3,0.32
7.009907245635986,-0.13,0.2,-0.42,0.48
7.011520147323608,-0.39,0.37,-0.24,0.58
7.02547025680542,-0.76,0.5,-0.18,0.92
7.055688142776489,-1.1,0.66,-0.17,1.29
7.057026147842407,-1.22,0.87,-0.21,1.51
7.058021068572998,-1.15,0.88,-0.2,1.46
7.076423168182373,-1.06,0.77,-0.19,1.32
7.077470302581787,-1.03,0.56,-0.38,1.23
7.093010187149048,-0.98,0.44,-0.58,1.22
7.09429931640625,-0.79,0.5,-0.7,1.16
7.109911203384399,-0.66,0.72,-0.76,1.23
7.1113481521606445,-0.8,1.06,-0.9,1.6
7.125463008880615,-1.22,1.34,-1.2,2.17
7.1536102294921875,-1.91,1.79,-0.93,2.77
7.154888153076172,-2.54,2.21,-0.64,3.42
7.155911207199097,-2.78,2.34,-0.61,3.68
7.176667213439941,-2.68,2.44,-0.6,3.67
7.177700042724609,-2.51,2.43,-1.03,3.64
7.193164110183716,-2.38,2.57,-1.29,3.73
7.194171190261841,-2.44,2.91,-1.29,4.01
7.209866046905518,-2.69,3.2,-1.35,4.39
7.211315155029297,-3.22,3.41,-1.52,4.93
7.225508213043213,-3.94,3.71,-1.69,5.66
7.255688190460205,-4.67,4.36,-1.9,6.66
7.257036209106445,-5.32,5.03,-2.52,7.74
7.258055210113525,-6.02,5.98,-2.85,8.95
7.276576042175293,-7.02,7.75,-3.17,10.92
7.277640342712402,-8.26,9.17,-5.36,13.45
7.293455123901367,-9.09,9.65,-6.9,14.94
7.294892311096191,-9.65,9.69,-6.74,15.24
7.309032201766968,-10.22,9.23,-7.21,15.54
7.310457229614258,-10.93,8.9,-8.43,16.42
7.325570106506348,-10.2,12.14,-6.42,17.1
7.354628086090088,-6.54,15.91,-3.94,17.64
7.35599422454834,-1.13,15.11,-5.51,16.12
7.356997013092041,1.72,10.77,-6.0,12.44
7.376560211181641,1.27,5.28,-5.31,7.59
7.377621173858643,-2.67,1.6,-4.8,5.72
7.393534183502197,-4.85,-1.64,-4.11,6.56
7.3949432373046875,-0.66,1.42,-2.37,2.84
7.410055160522461,5.62,4.94,3.85,8.41
7.4114670753479,4.29,-0.38,0.94,4.4
7.4257330894470215,-1.29,-2.83,-3.63,4.78
7.45481014251709,-5.52,-3.19,-2.33,6.78
7.4561920166015625,-8.31,-3.02,-1.35,8.94
7.457208156585693,-10.34,-3.18,-1.19,10.88
7.476907253265381,-10.64,-3.69,-0.52,11.27
7.477955341339111,-8.66,-4.48,0.66,9.77
7.493293285369873,-6.44,-5.73,1.71,8.78
7.49472713470459,-5.46,-7.21,1.97,9.25
7.510430335998535,-5.44,-8.14,1.82,9.95
7.511893272399902,-5.97,-7.7,1.86,9.91
7.525583267211914,-6.51,-6.78,1.22,9.47
7.526987075805664,-6.22,-6.15,0.07,8.74
7.57588529586792,-5.73,-5.09,-0.49,7.67
7.577048301696777,-5.67,-4.55,-0.43,7.28
7.578048229217529,-4.93,-4.82,-1.16,6.99
7.593928337097168,-4.25,-4.85,-1.61,6.64
7.594987154006958,-4.1,-4.8,-1.55,6.5
7.610012054443359,-3.99,-5.16,-1.14,6.62
7.611476182937622,-3.67,-5.55,-0.53,6.67
7.627096176147461,-3.15,-5.93,-0.01,6.71
7.628584146499634,-2.63,-6.63,0.03,7.13
7.6421802043914795,-2.12,-7.27,0.18,7.57
7.673955202102661,-1.6,-7.42,0.51,7.6
7.675320148468018,-1.08,-7.19,1.16,7.36
7.676393032073975,-0.62,-6.43,1.56,6.64
7.694000244140625,0.01,-5.43,1.1,5.54
7.6950461864471436,1.28,-3.92,0.8,4.2
7.709792137145996,3.07,-1.99,1.94,4.14
7.710825204849243,4.87,0.03,3.97,6.28
7.726809024810791,6.48,1.74,5.08,8.41
7.728316307067871,7.84,3.58,5.14,10.03
7.742147207260132,9.2,5.73,4.93,11.9
7.773541212081909,11.01,8.1,4.78,14.48
7.7748942375183105,13.74,10.01,4.86,17.68
7.775923252105713,16.38,10.39,4.51,19.91
7.793862342834473,18.11,9.34,4.62,20.89
7.794916152954102,19.08,8.0,5.56,21.42
7.809525012969971,19.06,6.46,5.77,20.93
7.810527324676514,16.6,4.98,4.67,17.94
7.826634168624878,13.03,10.04,2.4,16.62
7.828287124633789,6.19,0.6,-7.19,9.5
7.8401970863342285,-8.12,-1.83,-21.23,22.8
7.868598222732544,-18.01,31.86,-18.29,40.91
7.869933128356934,-16.43,49.21,5.01,52.12
7.870975017547607,-9.61,8.97,-3.61,13.63
7.873265266418457,0.44,-6.4,0.86,6.47
7.874546051025391,7.91,-9.34,9.5,15.49
7.8758931159973145,10.68,-11.71,8.62,18.04
7.8792033195495605,12.42,-11.67,2.93,17.29
7.8896660804748535,11.12,-6.33,3.19,13.18
7.899430274963379,5.46,-1.04,3.39,6.51
7.909241199493408,0.7,1.13,0.55,1.43
7.9426751136779785,-1.95,2.97,-2.84,4.54
7.943644046783447,-1.97,4.33,-2.36,5.31
7.944464206695557,-0.32,2.71,0.26,2.74
7.948673248291016,1.44,-0.26,1.02,1.78
7.958927154541016,1.78,-1.8,1.03,2.73
7.968662261962891,1.12,-1.94,0.32,2.26
7.978950023651123,0.86,-0.78,-0.23,1.18
7.988739013671875,0.8,0.13,-0.42,0.91
7.998842239379883,0.76,0.09,-0.57,0.95
8.008525133132935,0.73,-0.13,-0.35,0.81
8.04282808303833,0.6,-0.17,-0.15,0.64
8.043776035308838,0.43,-0.01,-0.09,0.43
8.04453420639038,0.3,0.1,0.04,0.31
8.060556173324585,0.25,0.04,0.34,0.42
8.061394214630127,0.1,-0.04,0.7,0.7
8.076662063598633,-0.03,-0.02,0.75,0.75
8.07771921157837,0.03,-0.03,0.4,0.4
8.093485116958618,0.24,0.0,-0.08,0.25
8.097776174545288,0.29,0.06,-0.25,0.38
8.108620166778564,0.11,0.12,-0.31,0.35
8.143731117248535,-0.02,0.05,-0.59,0.59
8.144887208938599,-0.09,0.09,-0.56,0.57
8.145719051361084,-0.12,0.19,-0.38,0.44
8.160881996154785,-0.27,0.26,-0.24,0.44
8.161838054656982,-0.35,0.38,-0.11,0.52
8.17653512954712,-0.45,0.46,0.11,0.65
8.177597045898438,-0.58,0.45,0.22,0.76
8.193633079528809,-0.65,0.37,0.11,0.75
8.197030067443848,-0.67,0.3,-0.06,0.73
8.209184169769287,-0.63,0.29,-0.23,0.73
8.24482011795044,-0.65,0.33,-0.48,0.87
8.246097087860107,-0.9,0.49,-0.86,1.33
8.2469642162323,-1.3,0.81,-1.13,1.9
8.261109113693237,-1.53,1.19,-1.2,2.27
8.262164115905762,-1.44,1.35,-1.09,2.25
8.27685022354126,-1.41,1.29,-1.21,2.26
8.277866125106812,-1.5,1.21,-1.31,2.33
8.293617248535156,-1.67,1.24,-1.13,2.36
8.296339988708496,-1.94,1.31,-0.98,2.53
8.309003114700317,-2.17,1.49,-1.05,2.83
8.316280126571655,-2.21,1.81,-0.97,3.01
8.351870059967041,-1.78,1.99,-1.05,2.86
8.353069305419922,-1.79,2.33,-1.44,3.27
8.354331016540527,-1.94,3.08,-1.43,3.91
8.356624126434326,-2.28,3.52,-1.23,4.37
8.376887321472168,-2.92,3.74,-0.83,4.81
8.377933025360107,-3.53,4.06,-0.49,5.4
8.393740177154541,-4.08,4.46,-0.85,6.1
8.395464181900024,-4.7,5.15,-1.17,7.06
8.409319162368774,-5.86,6.58,-1.52,8.94
8.415903091430664,-7.04,8.05,-3.03,11.11
8.452280044555664,-7.84,9.07,-4.74,12.89
8.45344614982605,-8.63,9.67,-5.98,14.27
8.454706192016602,-9.38,9.74,-6.89,15.17
8.45619821548462,-9.81,9.54,-7.04,15.38
8.465091228485107,-10.24,8.76,-7.6,15.47
8.47520923614502,-10.54,8.87,-7.6,15.73
8.484989166259766,-8.98,12.01,-5.07,15.82
8.495042324066162,-4.84,13.66,-4.46,15.16
8.505475044250488,0.48,13.02,-5.79,14.25
8.514841079711914,2.87,9.59,-4.94,11.16
8.544170141220093,0.45,3.6,-5.06,6.22
8.545443058013916,-4.0,-1.19,-4.78,6.34
8.546326160430908,-4.68,-4.04,-5.73,8.42
8.560994148254395,1.16,0.27,-2.44,2.71
8.564286231994629,4.69,-0.31,1.89,5.06
8.574637174606323,-0.14,-3.55,-2.93,4.6
8.584189176559448,-5.03,-4.47,-3.73,7.69
8.594086170196533,-7.91,-4.25,-2.28,9.26
8.60391616821289,-10.15,-3.54,-2.17,10.96
8.614078044891357,-11.76,-3.41,-2.09,12.42
8.644569158554077,-11.43,-3.21,-1.11,11.92
8.645729064941406,-9.21,-3.58,0.57,9.89
8.646555185317993,-6.99,-4.77,1.87,8.66
8.661266326904297,-6.01,-6.09,2.36,8.87
8.663467168807983,-5.91,-6.65,2.22,9.16
8.6756432056427,-5.94,-5.94,1.72,8.57
8.683223247528076,-5.54,-4.78,0.6,7.34
8.693297147750854,-4.88,-4.06,-0.66,6.38
8.703501224517822,-4.21,-3.57,-1.71,5.77
8.713321208953857,-3.55,-3.23,-2.38,5.35
8.7501962184906,-3.05,-3.09,-2.82,5.17
8.75154733657837,-2.76,-3.38,-3.11,5.35
8.752568244934082,-2.45,-3.94,-3.0,5.52
8.756973266601562,-1.98,-4.72,-2.77,5.81
8.762720108032227,-1.35,-5.59,-2.57,6.29
8.77680516242981,-0.85,-6.42,-2.33,6.88
8.782653331756592,-0.87,-6.97,-1.64,7.21
8.79346513748169,-1.26,-6.67,-0.84,6.83
8.802589178085327,-1.25,-5.71,-0.55,5.87
8.812795162200928,-0.05,-4.99,-0.27,4.99
8.84841513633728,1.91,-4.13,0.84,4.62
8.849744319915771,3.61,-2.78,2.82,5.35
8.85076904296875,4.52,-1.31,4.7,6.65
8.861862182617188,4.59,-0.02,5.72,7.33
8.862890243530273,4.82,1.89,6.92,8.64
8.87632417678833,6.4,4.59,8.29,11.43
8.881819248199463,8.66,6.78,8.44,13.86
8.89348030090332,10.74,7.8,7.02,15.01
8.902154207229614,12.48,8.93,6.08,16.5
8.911826133728027,14.12,10.61,5.35,18.45
8.950162172317505,16.16,11.4,4.92,20.37
8.951841115951538,17.72,10.08,4.82,20.94
8.95292615890503,17.02,11.52,3.44,20.83
8.957131147384644,15.74,13.39,1.29,20.7
8.961183071136475,11.6,5.12,-10.28,16.32
8.97710132598877,-1.9,11.97,-15.34,19.55
8.981120109558105,-10.27,41.84,-6.71,43.6
8.993922233581543,-11.22,25.33,-1.32,27.73
9.000833988189697,-3.92,-0.52,2.58,4.72
9.011154174804688,3.74,-6.33,6.48,9.8
9.048478126525879,6.38,-12.47,7.11,15.7
9.049895286560059,8.93,-12.22,4.48,15.78
9.050891160964966,9.92,-6.17,5.95,13.11
9.060967206954956,6.33,-0.86,3.68,7.37
9.062009334564209,2.6,1.98,0.8,3.36
9.077205181121826,-0.75,2.49,-2.7,3.74
9.08033800125122,-1.84,1.02,-2.45,3.22
9.093737125396729,-0.08,0.54,0.33,0.63
9.100551128387451,1.39,0.06,1.13,1.79
9.110326290130615,1.55,0.03,0.35,1.58
9.120173215866089,1.01,-0.01,-0.47,1.11
9.154073238372803,0.74,-0.16,-0.87,1.15
9.155217170715332,1.01,-0.31,-0.4,1.12
9.156169176101685,1.26,-0.66,0.25,1.44
9.159759044647217,1.05,-0.89,0.51,1.46
9.16966724395752,0.7,-0.51,0.28,0.91
9.179855108261108,0.56,0.12,-0.11,0.58
9.18981409072876,0.46,0.46,-0.03,0.65
9.199631214141846,0.27,0.41,0.5,0.7
9.209694147109985,0.08,0.03,0.73,0.73
9.21953821182251,0.0,-0.18,0.62,0.64
9.253156185150146,0.08,-0.11,0.22,0.25
9.25429916381836,0.36,0.0,-0.52,0.63
9.25551700592041,0.47,0.08,-0.7,0.84
9.259029150009155,0.33,0.07,-0.46,0.57
9.269049167633057,0.08,-0.09,-0.41,0.42
9.279023170471191,-0.18,-0.05,-0.41,0.45
9.288942337036133,-0.28,0.21,-0.2,0.4
9.29892110824585,-0.33,0.32,-0.22,0.5
9.308917045593262,-0.31,0.27,-0.05,0.41
9.318854331970215,-0.33,0.11,0.2,0.4
9.349430084228516,-0.36,-0.01,0.33,0.48
9.350869178771973,-0.38,0.04,0.36,0.52
9.351869106292725,-0.38,0.17,0.03,0.41
9.361497163772583,-0.53,0.32,-0.19,0.64
9.368564128875732,-0.66,0.52,-0.24,0.87
9.378074169158936,-0.56,0.59,-0.4,0.9
9.38795018196106,-0.42,0.59,-0.38,0.81
9.398116111755371,-0.56,0.69,-0.29,0.93
9.408440113067627,-0.95,0.85,-0.24,1.29
9.418168067932129,-1.4,1.01,-0.34,1.75
9.449662208557129,-1.73,1.21,-0.43,2.15
9.450982093811035,-1.89,1.36,-0.54,2.39
9.452071189880371,-1.98,1.47,-0.87,2.61
9.459926128387451,-1.9,1.7,-1.47,2.94
9.467306137084961,-1.52,2.29,-1.87,3.32
9.477481126785278,-1.44,2.85,-2.02,3.77
9.487450122833252,-1.75,3.12,-1.83,4.01
9.497007131576538,-2.23,3.3,-1.56,4.27
9.507527112960815,-2.68,3.35,-1.36,4.5
9.516945123672485,-2.97,3.47,-1.34,4.75
9.551981210708618,-3.16,3.65,-1.74,5.13
9.553394317626953,-3.34,3.9,-2.13,5.55
9.554395198822021,-3.64,4.28,-2.29,6.06
9.557334184646606,-4.27,4.89,-2.16,6.84
9.576994180679321,-5.53,6.19,-1.53,8.44
9.578051090240479,-7.44,8.37,-1.9,11.35
9.594068050384521,-8.94,9.26,-4.88,13.76
9.597109317779541,-9.78,9.37,-6.19,14.89
9.61014699935913,-10.11,9.53,-6.55,15.36
9.616494178771973,-10.33,8.97,-7.64,15.66
9.654436111450195,-10.64,8.74,-8.56,16.21
9.65567421913147,-9.88,11.89,-6.62,16.81
9.656656265258789,-6.98,15.6,-4.45,17.66
9.658819198608398,-1.44,15.04,-6.2,16.33
9.665832996368408,2.64,10.98,-7.51,13.56
9.675855159759521,2.37,5.18,-7.0,9.02
9.68608808517456,-1.88,0.39,-5.79,6.1
9.69596529006958,-4.92,-3.14,-4.04,7.09
9.706048011779785,-1.28,-0.36,-1.3,1.85
9.716015338897705,4.67,2.59,4.44,6.94
9.754013061523438,2.87,-1.64,1.0,3.45
9.755273342132568,-2.37,-3.1,-3.22,5.05
9.756253242492676,-5.62,-2.52,-1.98,6.46
9.758449077606201,-7.7,-1.7,-1.72,8.07
9.764938116073608,-9.18,-1.7,-2.37,9.63
9.77511715888977,-8.87,-2.25,-2.02,9.37
9.785036087036133,-6.6,-3.58,-0.57,7.53
9.795083999633789,-4.53,-5.34,0.63,7.03
9.805259227752686,-3.97,-6.81,1.01,7.94
9.81509518623352,-4.24,-7.65,0.96,8.79
9.853490114212036,-4.52,-7.68,0.47,8.92
9.85486912727356,-4.61,-7.12,-0.4,8.49
9.855839252471924,-4.59,-6.46,-1.06,7.99
9.858222007751465,-5.29,-5.58,-1.29,7.79
9.864473342895508,-5.33,-5.69,-2.41,8.16
9.87460708618164,-5.18,-5.38,-2.72,7.94
9.884512186050415,-5.1,-5.47,-2.71,7.95
9.894358158111572,-4.78,-5.84,-2.43,7.92
9.904264211654663,-4.25,-6.33,-1.75,7.82
9.91434907913208,-3.7,-6.97,-1.42,8.01
9.924601078033447,-3.3,-7.68,-1.47,8.48
9.956849098205566,-3.31,-8.22,-1.69,9.02
9.958034038543701,-3.69,-8.04,-1.43,8.96
9.959063053131104,-4.12,-7.03,-0.6,8.17
9.978153228759766,-4.18,-5.76,-0.09,7.11
9.979186058044434,-3.02,-4.64,0.17,5.53
9.993848323822021,-0.77,-3.85,0.67,3.98
9.994843006134033,1.3,-2.97,1.57,3.6
10.011670112609863,2.73,-1.34,2.98,4.25
10.013413190841675,4.37,1.12,4.55,6.4
10.02687931060791,6.69,3.84,5.3,9.35
10.05528712272644,9.04,6.86,5.52,12.61
10.056686162948608,10.85,9.52,5.47,15.43
10.057714223861694,12.28,11.21,5.22,17.42
10.076312065124512,13.16,12.17,4.77,18.54
10.077426195144653,14.22,12.58,4.87,19.6
10.091407299041748,16.27,12.33,5.34,21.1
10.092609167098999,17.11,11.71,4.0,21.11
10.108251094818115,14.87,14.99,3.01,21.32
10.112818241119385,14.13,15.3,-1.39,20.87
10.126903057098389,7.48,6.7,-9.91,14.1
10.15520715713501,-5.31,15.35,-9.8,18.96
10.156565189361572,-10.72,32.38,-1.19,34.12
10.157557010650635,-7.98,15.08,4.74,17.7
10.178232192993164,1.4,-0.24,4.86,5.06
10.179300308227539,7.07,-5.38,5.53,10.46
10.19428825378418,7.07,-10.55,4.24,13.38
10.195279121398926,7.2,-8.41,2.22,11.29
10.211153030395508,6.43,-3.25,3.44,7.98
10.212639331817627,4.12,0.69,1.92,4.59
10.22691822052002,1.47,1.17,-0.52,1.94
10.25634217262268,0.09,-0.39,-1.1,1.17
10.257791996002197,0.36,-0.44,-0.42,0.7
10.258783340454102,1.38,0.3,0.68,1.56
10.278028011322021,1.38,0.43,0.81,1.65
10.278933048248291,0.74,0.52,0.36,0.97
10.29425311088562,0.35,0.31,0.16,0.49
10.295316219329834,0.71,-0.3,-0.02,0.77
10.311447143554688,1.17,-0.7,0.22,1.38
10.312889099121094,1.12,-0.8,0.45,1.44
10.32728910446167,0.83,-0.66,0.29,1.09
10.359097003936768,0.73,-0.2,0.04,0.75
10.360299110412598,0.65,0.22,-0.21,0.71
10.36112117767334,0.47,0.31,-0.11,0.57
10.37839412689209,0.53,0.13,0.23,0.59
10.379443168640137,0.6,-0.2,0.5,0.8
10.394549131393433,0.43,-0.39,0.59,0.82
10.395617008209229,0.15,-0.3,0.17,0.37
10.411174297332764,-0.06,0.0,-0.17,0.18
10.412651062011719,-0.05,0.25,-0.05,0.25
10.427072048187256,0.2,0.13,-0.24,0.33
10.457447052001953,0.32,0.01,-0.54,0.62
10.458787202835083,0.12,0.1,-0.59,0.61
10.459763050079346,-0.17,0.2,-0.51,0.57
10.478232145309448,-0.47,0.33,-0.11,0.58
10.479287147521973,-0.61,0.37,0.22,0.74
10.494522094726562,-0.52,0.29,0.23,0.63
10.495548248291016,-0.44,0.26,0.25,0.56
10.51107406616211,-0.49,0.31,0.23,0.62
10.512563228607178,-0.57,0.35,-0.02,0.66
10.526983261108398,-0.63,0.44,-0.45,0.89
10.55708932876587,-0.73,0.55,-0.7,1.15
10.558534145355225,-0.87,0.62,-0.72,1.28
10.559538125991821,-1.09,0.65,-0.77,1.48
10.578080177307129,-1.18,0.68,-0.89,1.62
10.579105138778687,-1.07,0.79,-0.78,1.54
10.594839096069336,-0.99,0.86,-0.96,1.62
10.595874309539795,-0.97,0.99,-1.09,1.76
10.609660148620605,-1.06,1.13,-0.97,1.82
10.610704183578491,-1.17,1.3,-0.56,1.83
10.6270592212677,-1.31,1.33,-0.67,1.98
10.654454231262207,-1.48,1.36,-1.03,2.25
10.655878067016602,-1.55,1.69,-1.42,2.69
10.656805992126465,-1.6,2.48,-1.54,3.32
10.658714294433594,-1.65,2.92,-1.31,3.6
10.668344020843506,-1.83,3.03,-0.83,3.63
10.678561210632324,-2.19,2.91,-0.72,3.71
10.688238143920898,-2.6,2.84,-0.91,3.95
10.698446273803711,-2.92,3.12,-1.01,4.39
10.708328247070312,-3.4,3.58,-1.51,5.16
10.718406200408936,-3.9,4.2,-1.77,5.99
10.728196144104004,-4.55,5.37,-1.61,7.22
10.7587571144104,-5.47,6.95,-2.4,9.16
10.759943008422852,-6.32,7.84,-4.33,10.96
10.760969161987305,-7.15,8.58,-5.04,12.25
10.778110027313232,-8.32,9.35,-5.6,13.71
10.779169082641602,-9.35,9.62,-6.43,14.87
10.79443621635437,-10.0,9.47,-6.87,15.39
10.797354221343994,-10.36,8.89,-7.82,15.73
10.811801195144653,-9.72,10.13,-7.04,15.7
10.817744255065918,-6.87,13.44,-4.7,15.8
10.827587127685547,-1.95,13.46,-5.17,14.55
10.85946011543274,2.68,11.32,-5.12,12.7
10.860788106918335,2.72,6.4,-4.78,8.43
10.86180830001831,-1.59,1.87,-5.45,5.97
10.878657341003418,-5.32,-1.44,-4.25,6.95
10.879727125167847,-3.22,-0.05,-2.71,4.2
10.894864082336426,3.56,4.27,2.08,5.93
10.89660120010376,3.2,-0.74,-0.32,3.3
10.91162919998169,-1.94,-3.17,-3.84,5.34
10.916850090026855,-5.85,-2.93,-2.39,6.96
10.926696300506592,-8.64,-2.67,-1.82,9.22
10.959058284759521,-10.44,-2.86,-2.03,11.01
10.960382223129272,-10.32,-3.47,-1.33,10.96
10.961417198181152,-8.04,-4.59,0.45,9.26
10.978897094726562,-5.63,-6.23,1.6,8.54
10.979936122894287,-4.65,-7.74,1.69,9.18
10.994908332824707,-4.81,-8.68,1.57,10.04
10.99598503112793,-5.22,-8.57,1.24,10.11
11.01175832748413,-5.26,-7.75,0.43,9.37
11.016072273254395,-5.52,-6.75,-0.19,8.72
11.026049137115479,-5.54,-6.44,-1.45,8.61
11.05826210975647,-5.17,-5.93,-2.02,8.12
11.059436321258545,-4.95,-5.58,-2.26,7.79
11.060444116592407,-4.63,-5.67,-2.24,7.65
11.078972339630127,-4.41,-6.04,-1.91,7.71
11.080006122589111,-4.32,-6.49,-1.31,7.9
11.094795227050781,-4.21,-6.76,-0.9,8.01
11.0958411693573,-4.02,-7.02,-0.95,8.14
11.111907005310059,-3.9,-6.91,-1.1,8.01
11.115278244018555,-3.98,-6.09,-0.75,7.31
11.125232219696045,-4.18,-4.66,0.04,6.26
11.163473129272461,-3.73,-3.31,0.19,4.99
11.164846181869507,-1.58,-2.38,0.3,2.87
11.165866136550903,1.47,-1.7,0.59,2.32
11.178730010986328,3.92,-0.68,1.19,4.15
11.179793119430542,5.42,0.97,2.08,5.88
11.194788217544556,6.58,2.81,2.96,7.74
11.195815086364746,7.83,4.57,3.25,9.63
11.211759090423584,9.13,6.47,3.52,11.73
11.214407205581665,10.98,8.83,4.28,14.72
11.227220058441162,13.01,10.67,5.17,17.6
11.26270318031311,14.48,11.33,5.8,19.27
11.264158248901367,15.08,10.44,6.27,19.38
11.265178203582764,14.78,9.42,6.48,18.68
11.278572082519531,14.4,8.51,6.6,17.98
11.27960729598999,13.64,7.48,5.87,16.62
11.294750213623047,12.91,10.32,4.68,17.17
11.295801162719727,10.12,2.54,-2.39,10.7
11.311902046203613,-1.08,-3.45,-11.25,11.81
11.313672065734863,-10.58,16.38,-12.33,23.07
11.327194213867188,-10.02,40.81,1.39,42.04
11.361592292785645,-5.21,16.76,3.5,17.89
11.36294412612915,4.36,-0.25,2.21,4.89
11.363965034484863,7.61,-9.28,5.32,13.12
11.37867522239685,7.5,-12.94,3.69,15.4
11.379743099212646,6.22,-8.23,5.07,11.49
11.3946852684021,3.67,-3.26,4.48,6.64
11.395721197128296,1.85,-0.38,1.75,2.57
11.411910057067871,0.94,2.56,-0.75,2.82
11.413386106491089,1.0,1.97,-2.47,3.31
11.42628812789917,2.25,-0.13,-0.79,2.38
11.46090316772461,2.41,-0.51,0.8,2.59
11.462284088134766,1.34,0.11,1.3,1.87
11.463283061981201,0.37,0.35,0.65,0.82
11.478937149047852,0.42,0.2,-0.15,0.48
11.479988098144531,0.74,-0.16,-0.35,0.83
11.495630264282227,0.67,-0.37,-0.09,0.77
11.497101306915283,0.72,-0.43,-0.17,0.85
11.511776208877563,1.02,-0.43,-0.5,1.21
11.513159275054932,0.98,-0.17,-0.56,1.14
11.527269124984741,0.63,0.16,-0.34,0.73
11.532113075256348,0.27,0.25,0.16,0.4
11.571973323822021,0.32,0.11,0.45,0.56
11.57315731048584,0.59,-0.16,0.08,0.61
11.574174165725708,0.65,-0.22,-0.21,0.71
11.596009254455566,0.28,-0.05,-0.09,0.29
11.597535133361816,-0.25,0.24,0.49,0.6
11.611996173858643,-0.52,0.34,0.51,0.8
11.613469123840332,-0.18,0.2,-0.28,0.38
11.628617286682129,0.28,0.11,-0.9,0.94
11.630012035369873,0.26,0.14,-0.75,0.8
11.643864154815674,-0.22,0.14,-0.35,0.43
11.673436164855957,-0.67,0.28,-0.11,0.73
11.674796104431152,-0.78,0.51,-0.22,0.95
11.675806999206543,-0.75,0.7,-0.35,1.08
11.695609092712402,-0.7,0.69,-0.4,1.06
11.69664716720581,-0.77,0.44,-0.32,0.94
11.711863040924072,-0.82,0.29,-0.05,0.87
11.71333932876587,-0.75,0.24,-0.16,0.8
11.728574275970459,-0.75,0.23,-0.53,0.94
11.729932308197021,-0.87,0.41,-1.0,1.38
11.743869304656982,-0.97,0.74,-1.17,1.69
11.770823001861572,-1.2,1.09,-1.36,2.11
11.772146224975586,-1.57,1.45,-1.56,2.64
11.773120164871216,-2.03,1.8,-1.71,3.2
11.775331020355225,-2.25,2.48,-1.32,3.59
11.779886245727539,-2.31,2.85,-1.4,3.92
11.790399074554443,-2.31,2.9,-1.68,4.07
11.800051212310791,-2.29,3.03,-1.85,4.22
11.809978008270264,-2.19,3.24,-1.7,4.26
11.820269107818604,-2.25,3.43,-1.53,4.37
11.830127239227295,-2.7,3.6,-1.35,4.69
11.859716176986694,-3.5,3.9,-1.27,5.39
11.860883235931396,-4.29,4.3,-1.57,6.27
11.861894130706787,-4.8,4.85,-2.03,7.11
11.878910064697266,-5.43,5.71,-2.81,8.36
11.879990100860596,-6.55,7.26,-3.05,10.24
11.89525818824768,-7.68,9.24,-4.11,12.69
11.89923906326294,-8.5,9.67,-6.98,14.64
11.91199517250061,-8.99,10.0,-8.18,15.73
11.919342041015625,-9.12,9.92,-9.72,16.61
11.929078102111816,-8.75,8.97,-11.05,16.7
11.966670989990234,-8.44,9.3,-10.62,16.44
11.968098163604736,-6.56,13.44,-6.46,16.29
11.969114303588867,-2.35,16.17,-3.93,16.8
11.979106187820435,2.09,13.6,-6.12,15.05
11.980120182037354,3.1,6.76,-7.4,10.49
11.995922088623047,-0.91,1.35,-6.02,6.23
11.998602151870728,-4.13,-2.58,-4.59,6.69
12.009536266326904,-0.47,-0.53,-2.45,2.55
12.018428325653076,4.37,0.75,3.35,5.55
12.028326034545898,0.48,-3.35,-0.41,3.4
12.065461158752441,-5.66,-4.54,-3.43,8.02
12.066841125488281,-9.45,-4.08,-1.7,10.43
12.067851066589355,-12.49,-3.54,-1.35,13.05
12.079207181930542,-14.61,-3.39,-0.96,15.02
12.080263137817383,-13.72,-3.63,0.61,14.2
12.095475196838379,-9.3,-5.08,2.5,10.88
12.097590208053589,-5.84,-7.14,2.59,9.58
12.111693143844604,-4.97,-8.49,1.87,10.01
12.117946147918701,-5.6,-7.79,1.46,9.7
12.127785205841064,-6.1,-6.17,0.74,8.7
12.164369106292725,-6.03,-5.15,-0.52,7.94
12.165667057037354,-5.43,-4.52,-1.4,7.2
12.166696071624756,-4.67,-3.94,-2.32,6.53
12.17825698852539,-3.79,-3.68,-2.95,6.05
12.179227113723755,-3.03,-3.68,-3.04,5.65
12.195519208908081,-2.48,-3.85,-2.83,5.38
12.197014331817627,-1.93,-4.29,-2.45,5.3
12.212032318115234,-1.17,-4.88,-2.11,5.44
12.21703314781189,-0.3,-5.48,-1.89,5.8
12.227796077728271,0.22,-5.99,-1.74,6.24
12.263751029968262,0.33,-6.28,-1.33,6.42
12.265016078948975,0.26,-6.03,-0.86,6.09
12.266107082366943,0.25,-5.29,-0.65,5.33
12.279149055480957,0.55,-4.38,-0.59,4.45
12.280240058898926,1.26,-3.52,0.03,3.73
12.295632123947144,2.22,-2.69,1.23,3.69
12.297117233276367,3.19,-1.64,2.38,4.3
12.312270164489746,4.16,-0.35,3.05,5.17
12.316119194030762,5.33,1.21,3.38,6.42
12.327544212341309,6.66,3.49,3.89,8.46
12.336308002471924,8.4,5.76,4.32,11.06
12.374346256256104,11.11,7.34,4.64,14.1
12.3755362033844,14.06,8.24,4.77,16.98
12.376516342163086,16.61,8.24,5.38,19.3
12.396336078643799,17.81,7.24,6.1,20.16
12.397806167602539,16.95,6.46,6.5,19.26
12.41211223602295,14.85,6.14,6.88,17.48
12.413535118103027,13.75,6.1,6.96,16.57
12.42917513847351,12.72,8.28,5.12,16.01
12.430642127990723,9.95,8.44,0.1,13.04
12.444453239440918,0.82,-4.93,-11.53,12.56
12.474151134490967,-12.87,4.51,-23.08,26.8
12.475492000579834,-19.61,47.33,-6.33,51.62
12.476502180099487,-15.92,37.97,7.66,41.87
12.495578289031982,-5.2,1.84,0.68,5.55
12.496618270874023,4.76,-5.63,3.96,8.36
12.51240611076355,10.75,-9.06,8.02,16.18
12.513911247253418,12.06,-11.61,4.05,17.22
12.529089212417603,12.15,-8.58,0.35,14.87
12.530548095703125,9.08,-2.7,2.03,9.68
12.544442176818848,3.97,0.81,1.7,4.39
12.57294511795044,-0.53,2.29,-0.72,2.45
12.574246168136597,-2.2,1.58,-0.89,2.85
12.575208187103271,-0.84,0.68,0.67,1.27
12.596023082733154,1.3,0.13,1.51,1.99
12.597053050994873,1.76,-0.22,1.75,2.49
12.612436294555664,0.84,-0.63,1.17,1.57
12.613924026489258,0.13,-0.69,0.14,0.71
12.62903118133545,0.43,-0.33,-0.36,0.65
12.630526065826416,0.9,-0.18,-0.66,1.13
12.644509315490723,0.84,-0.23,-0.8,1.18
12.67323613166809,0.46,-0.08,-0.43,0.63
12.674532175064087,0.23,0.16,0.03,0.28
12.675469160079956,0.36,0.09,0.19,0.41
12.696222305297852,0.54,-0.27,-0.01,0.6
12.697242259979248,0.41,-0.4,-0.03,0.57
12.712149143218994,0.0,-0.19,0.31,0.36
12.713157176971436,-0.24,0.12,0.52,0.58
12.728975296020508,-0.2,0.28,0.45,0.56
12.730377197265625,-0.09,0.33,0.38,0.51
12.744594097137451,-0.08,0.31,0.13,0.34
12.772499084472656,-0.16,0.18,-0.47,0.52
12.773981094360352,-0.12,0.19,-0.67,0.7
12.774903297424316,-0.12,0.3,-0.39,0.5
12.796866178512573,-0.4,0.35,-0.21,0.57
12.797958135604858,-0.72,0.48,-0.09,0.87
12.811957120895386,-0.77,0.63,0.02,0.99
12.812995195388794,-0.65,0.56,-0.11,0.86
12.829318046569824,-0.63,0.46,-0.15,0.79
12.830794334411621,-0.65,0.39,-0.22,0.78
12.844657182693481,-0.57,0.27,-0.34,0.71
12.873200178146362,-0.49,0.23,-0.57,0.78
12.874531269073486,-0.51,0.3,-0.81,1.0
12.875532150268555,-0.69,0.56,-0.95,1.3
12.8961820602417,-1.02,0.88,-1.09,1.73
12.897248268127441,-1.44,1.17,-1.35,2.29
12.91241717338562,-1.88,1.46,-1.41,2.76
12.913866996765137,-2.42,1.77,-1.3,3.26
12.929392337799072,-2.56,2.13,-1.13,3.51
12.930836200714111,-2.3,2.12,-1.33,3.39
12.944750308990479,-2.08,2.37,-1.37,3.43
12.973268032073975,-2.38,3.01,-1.5,4.12
12.974709033966064,-2.65,3.67,-1.58,4.79
12.975691318511963,-3.13,4.18,-1.51,5.43
12.996782302856445,-3.55,4.5,-1.55,5.93
12.997822284698486,-3.85,4.87,-1.7,6.43
13.011078119277954,-3.98,5.22,-1.96,6.85
13.012553215026855,-4.44,5.62,-2.21,7.49
13.029402256011963,-5.44,7.01,-1.86,9.06
13.03086805343628,-7.41,9.21,-3.04,12.2
13.044973134994507,-9.5,10.81,-5.83,15.52
13.075898170471191,-10.79,12.09,-6.22,17.35
13.077208995819092,-11.54,12.17,-6.9,18.13
13.0782151222229,-11.96,10.41,-8.69,18.08
13.096606254577637,-12.92,9.62,-9.21,18.55
13.097692012786865,-12.16,13.89,-5.53,19.27
13.110583305358887,-7.14,16.95,-3.6,18.74
13.112101078033447,-0.02,15.06,-6.84,16.54
13.129407167434692,3.65,9.92,-6.58,12.45
13.130836009979248,1.81,2.53,-5.85,6.62
13.144934177398682,-3.3,-2.43,-5.6,6.93
13.146400213241577,-3.66,-3.38,-5.44,7.37
13.191492080688477,3.07,3.21,0.36,4.45
13.192687034606934,5.27,1.61,3.15,6.34
13.193679332733154,-0.28,-1.74,-2.98,3.46
13.212654113769531,-5.44,-2.81,-3.5,7.05
13.213694095611572,-8.76,-2.33,-1.84,9.24
13.229374170303345,-11.33,-1.89,-1.77,11.62
13.230841159820557,-12.64,-2.52,-1.8,13.01
13.24587631225586,-10.96,-3.54,-0.16,11.51
13.24733829498291,-7.41,-5.25,1.83,9.26
13.261587142944336,-4.91,-7.45,2.11,9.16
13.2904052734375,-4.24,-8.93,1.06,9.94
13.291765213012695,-4.8,-8.74,0.45,9.98
13.292744159698486,-5.75,-7.39,0.1,9.36
13.311752319335938,-5.74,-6.73,-0.92,8.89
13.312796115875244,-4.86,-6.47,-1.61,8.25
13.329415321350098,-4.65,-6.18,-1.72,7.92
13.330888271331787,-4.38,-6.75,-2.52,8.43
13.346289157867432,-4.48,-6.85,-2.62,8.59
13.347777128219604,-4.74,-7.16,-2.24,8.87
13.36165714263916,-4.81,-7.41,-1.66,8.98
13.391674041748047,-4.52,-7.56,-1.24,8.89
13.392961025238037,-3.95,-7.9,-0.95,8.88
13.393946170806885,-3.5,-8.5,-0.77,9.22
13.412915229797363,-3.29,-8.99,-0.49,9.58
13.413966178894043,-3.16,-9.2,-0.12,9.72
13.429327011108398,-2.74,-8.47,0.71,8.93
13.430791139602661,-1.83,-7.06,1.28,7.4
13.445964336395264,-0.01,-5.66,0.54,5.68
13.447442054748535,2.25,-3.85,0.37,4.47
13.461507320404053,4.39,-1.39,1.28,4.77
13.493072986602783,6.81,1.66,2.76,7.53
13.494402170181274,9.58,5.21,4.48,11.78
13.495437145233154,12.83,8.62,5.93,16.55
13.513238191604614,15.49,11.41,6.57,20.32
13.514357089996338,17.14,13.35,7.22,22.89
13.5263991355896,18.11,12.92,6.74,23.24
13.527926206588745,18.69,12.13,5.94,23.05
13.54329514503479,17.62,15.24,4.78,23.78
13.544820308685303,15.69,20.11,1.29,25.53
13.562074184417725,12.83,14.67,-10.95,22.35
13.591703176498413,-0.46,20.8,-15.74,26.08
13.593084335327148,-9.19,40.23,-6.96,41.84
13.594101190567017,-9.17,19.37,-0.77,21.44
13.613015174865723,-3.33,-3.52,1.1,4.96
13.614061117172241,3.13,-6.62,6.98,10.11
13.629765033721924,5.2,-10.96,9.42,15.35
13.631238222122192,6.79,-10.95,4.74,13.72
13.646238327026367,8.48,-5.94,2.61,10.67
13.647692203521729,6.47,1.52,0.93,6.71
13.661847114562988,2.35,3.87,-2.2,5.03
13.692499160766602,-0.56,0.95,-2.12,2.38
13.693753242492676,-0.32,-0.53,0.34,0.7
13.694773197174072,1.61,-0.76,2.04,2.7
13.71303915977478,2.22,-0.16,1.66,2.77
13.714057207107544,1.6,0.57,0.8,1.87
13.729046106338501,1.12,0.17,-0.02,1.13
13.730107307434082,1.2,-0.47,0.14,1.29
13.746161222457886,1.25,-0.77,0.67,1.61
13.747568130493164,1.04,-0.87,0.66,1.5
13.762636184692383,0.86,-0.56,0.34,1.08
13.791979312896729,0.8,-0.11,-0.02,0.8
13.793277263641357,0.57,0.15,-0.18,0.61
13.794270992279053,0.36,0.24,-0.1,0.44
13.812867164611816,0.24,0.14,-0.14,0.31
13.81394100189209,0.1,0.07,-0.32,0.34
13.829225063323975,-0.03,0.09,-0.47,0.47
13.830258131027222,-0.17,0.13,-0.36,0.41
13.846074104309082,-0.19,0.1,0.04,0.21
13.84754228591919,-0.04,-0.11,0.28,0.3
13.861796140670776,0.12,-0.27,-0.06,0.3
13.89092206954956,0.16,-0.17,-0.4,0.46
13.892366170883179,-0.01,0.05,-0.49,0.49
13.893370151519775,-0.34,0.27,-0.31,0.53
13.912931203842163,-0.73,0.42,-0.07,0.84
13.913926124572754,-0.96,0.56,-0.07,1.11
13.929588317871094,-0.87,0.7,-0.14,1.12
13.931080341339111,-0.74,0.71,-0.22,1.04
13.946145057678223,-0.86,0.62,-0.28,1.09
13.947632312774658,-1.15,0.54,-0.16,1.28
13.961862087249756,-1.2,0.52,-0.21,1.32
13.963337182998657,-1.16,0.47,-0.25,1.27
14.007660150527954,-1.3,0.62,-0.46,1.51
14.008838176727295,-1.37,0.87,-1.04,1.92
14.009834289550781,-1.19,1.07,-1.42,2.13
14.030108213424683,-0.97,1.14,-1.67,2.24
14.031158208847046,-0.9,1.27,-1.5,2.16
14.04613733291626,-0.89,1.56,-0.89,2.0
14.047666072845459,-0.97,1.62,-0.84,2.06
14.063244342803955,-1.04,1.94,-0.47,2.25
14.064731121063232,-1.49,2.58,0.0,2.97
14.078487157821655,-2.12,2.85,-0.08,3.55
14.108434200286865,-2.45,3.06,-0.06,3.92
14.109685182571411,-2.71,3.18,-0.56,4.21
14.110695123672485,-2.67,3.36,-1.38,4.5
14.129802227020264,-2.48,3.54,-2.11,4.8
14.130847215652466,-2.56,4.02,-2.43,5.34
14.146212100982666,-3.12,4.6,-2.9,6.26
14.147727012634277,-4.07,5.52,-3.26,7.59
14.163154125213623,-5.32,7.06,-3.37,9.46
14.164647102355957,-7.08,8.75,-4.13,11.98
14.178689002990723,-8.96,10.15,-5.73,14.7
14.209861278533936,-10.22,11.27,-6.87,16.69
14.211284160614014,-10.78,11.56,-9.0,18.18
14.212287187576294,-10.74,10.28,-10.76,18.35
14.230240106582642,-10.42,9.47,-10.84,17.76
14.231312274932861,-8.95,12.24,-7.86,17.07
14.246440172195435,-4.8,15.59,-5.36,17.17
14.247912168502808,0.62,14.23,-6.69,15.73
14.263151168823242,3.33,10.15,-6.73,12.62
14.264628171920776,-0.04,4.55,-7.6,8.85
14.278540134429932,-5.3,-0.43,-6.33,8.26
14.308269023895264,-4.78,0.5,-2.83,5.57
14.309686183929443,1.88,4.96,2.88,6.03
14.310731172561646,1.98,-1.02,-0.14,2.23
14.329914093017578,-2.76,-3.62,-4.38,6.31
14.330970287322998,-6.49,-2.92,-3.05,7.74
14.346220016479492,-9.23,-2.0,-2.31,9.72
14.347279071807861,-11.11,-1.75,-2.5,11.52
14.363378047943115,-11.21,-2.16,-1.9,11.57
14.36486005783081,-8.99,-3.2,-0.37,9.54
14.378641128540039,-6.83,-4.72,0.74,8.33
14.407199144363403,-6.1,-6.26,1.14,8.81
14.408620119094849,-6.19,-7.3,1.36,9.66
14.409624099731445,-6.47,-7.52,1.27,10.0
14.430265188217163,-6.21,-7.36,0.32,9.63
14.431333065032959,-6.03,-6.43,-0.51,8.82
14.446282148361206,-6.08,-5.99,-1.43,8.65
14.44769811630249,-5.6,-5.94,-2.14,8.43
14.46348524093628,-5.02,-5.85,-2.42,8.07
14.464929103851318,-4.45,-6.15,-2.48,7.98
14.478665113449097,-4.05,-6.62,-2.49,8.15
14.510289192199707,-3.71,-7.03,-2.54,8.34
14.51158618927002,-3.29,-7.34,-2.54,8.43
14.512502193450928,-2.83,-7.63,-2.45,8.49
14.530339241027832,-2.53,-8.0,-2.6,8.78
14.531768321990967,-2.61,-8.08,-2.42,8.82
14.546560287475586,-3.04,-7.52,-1.56,8.25
14.548036098480225,-3.25,-6.54,-0.41,7.31
14.563469171524048,-2.29,-5.17,0.2,5.65
14.564918041229248,0.15,-3.96,0.32,3.97
14.578532218933105,2.57,-2.46,1.22,3.76
14.608574151992798,4.3,-0.09,2.74,5.09
14.609891176223755,5.72,3.18,4.12,7.73
14.610920190811157,7.58,7.29,5.33,11.79
14.627960205078125,10.06,11.1,6.07,16.16
14.629040241241455,12.98,14.08,5.94,20.05
14.643701076507568,15.2,15.91,4.56,22.47
14.645302295684814,16.94,16.32,3.94,23.85
14.66080617904663,18.96,15.59,4.55,24.96
14.66224718093872,21.03,13.25,5.97,25.56
14.678694248199463,21.54,11.85,7.07,25.58
14.708410263061523,19.27,15.31,6.64,25.49
14.709715127944946,14.95,7.64,0.3,16.79
14.710728168487549,2.95,-5.48,-9.42,11.29
14.730154991149902,-11.47,5.95,-15.91,20.49
14.731224060058594,-19.24,37.3,-7.26,42.59
14.747651100158691,-17.38,28.03,8.17,33.97
14.74914026260376,-4.71,3.78,7.26,9.44
14.763764142990112,6.15,-3.49,5.16,8.75
14.765220165252686,9.8,-10.47,6.79,15.86
14.77863621711731,11.4,-11.92,4.0,16.97
14.78009819984436,11.99,-7.22,1.11,14.03
14.826847076416016,9.41,-0.68,0.88,9.47
14.827996253967285,4.03,1.38,-2.26,4.82
14.82896614074707,0.28,1.41,-3.19,3.49
14.847345113754272,-1.24,1.01,-1.52,2.2
14.848353147506714,-0.32,0.46,1.48,1.58
14.863450050354004,0.95,-0.46,2.45,2.66
14.864907264709473,1.06,-0.83,1.39,1.93
14.87988805770874,0.43,-0.37,-0.17,0.59
14.88137412071228,0.26,0.37,-0.53,0.69
14.895913124084473,0.61,0.3,-0.19,0.7
14.92832612991333,1.03,-0.36,0.44,1.17
14.92965817451477,1.14,-0.79,0.58,1.5
14.93066930770874,1.03,-0.64,0.28,1.24
14.9469633102417,0.7,-0.07,0.21,0.73
14.948014259338379,0.3,0.31,-0.11,0.44
14.963656187057495,0.07,0.3,-0.66,0.72
14.965151309967041,-0.14,0.28,-0.3,0.43
14.979973316192627,-0.34,0.17,0.32,0.49
14.981372117996216,-0.42,-0.04,0.6,0.73
14.995615005493164,-0.41,-0.04,0.34,0.53
15.026095151901245,-0.2,0.02,-0.62,0.65
15.027363300323486,-0.09,0.17,-1.14,1.15
15.028390169143677,-0.21,0.29,-0.83,0.9
15.046847343444824,-0.43,0.24,-0.14,0.51
15.047900199890137,-0.56,0.19,0.23,0.63
15.063276290893555,-0.55,0.2,-0.08,0.59
15.064365148544312,-0.52,0.34,-0.42,0.74
15.080004215240479,-0.59,0.49,-0.31,0.82
15.081468105316162,-0.77,0.41,-0.18,0.89
15.095751285552979,-0.87,0.35,-0.13,0.94
15.126484155654907,-0.74,0.37,0.06,0.82
15.127870082855225,-0.58,0.31,-0.24,0.7
15.128850221633911,-0.45,0.43,-0.34,0.7
15.146838188171387,-0.33,0.58,-0.42,0.78
15.14786434173584,-0.39,0.57,-0.49,0.84
15.16297721862793,-0.68,0.52,-0.52,1.0
15.16445016860962,-1.15,0.59,-0.55,1.4
15.180172204971313,-1.57,0.74,-0.69,1.86
15.181648254394531,-1.74,0.92,-0.92,2.17
15.195659160614014,-1.6,1.2,-0.93,2.2
15.224955081939697,-1.45,1.55,-0.76,2.25
15.2263822555542,-1.38,2.05,-0.79,2.59
15.227426052093506,-1.27,2.23,-1.27,2.86
15.247227191925049,-1.64,2.62,-1.38,3.38
15.24823522567749,-2.07,3.52,-1.18,4.25
15.263391017913818,-2.49,3.83,-1.31,4.75
15.264400005340576,-2.72,3.86,-1.27,4.88
15.279900074005127,-2.82,3.64,-1.39,4.8
15.281379222869873,-2.89,3.61,-1.35,4.81
15.295780181884766,-3.28,3.94,-1.34,5.29
15.323118209838867,-4.16,4.64,-1.54,6.41
15.324512004852295,-5.23,5.6,-1.78,7.86
15.325491189956665,-6.49,6.64,-2.02,9.5
15.327141284942627,-7.9,7.72,-2.71,11.37
15.328565120697021,-8.94,8.78,-3.79,13.09
15.329771995544434,-9.43,9.38,-4.49,14.03
15.33092212677002,-9.84,9.7,-5.02,14.7
15.332136154174805,-10.41,8.98,-6.4,15.16
15.333437204360962,-10.91,9.21,-6.25,15.58
15.343185186386108,-9.53,12.94,-3.14,16.37
15.37284803390503,-5.1,14.5,-3.34,15.72
15.373706340789795,0.72,12.59,-6.34,14.11
15.374399185180664,3.64,10.36,-5.47,12.26
15.382752180099487,1.57,5.36,-5.5,7.83
15.392743110656738,-3.2,0.41,-5.53,6.4
15.402720212936401,-4.18,-2.52,-5.63,7.45
15.412606239318848,2.11,2.66,-2.81,4.4
15.422522068023682,6.96,3.48,1.47,7.91
15.432504177093506,3.23,-1.27,-2.89,4.51
15.442614078521729,-2.23,-2.23,-4.84,5.77
15.473576068878174,-6.08,-1.5,-3.13,7.0
15.474503993988037,-9.02,-0.99,-3.38,9.68
15.47531509399414,-10.75,-1.24,-3.6,11.4
15.497311115264893,-10.06,-2.06,-2.23,10.5
15.498152256011963,-7.42,-3.47,-0.29,8.19
15.513294219970703,-5.61,-5.46,0.78,7.86
15.514355182647705,-5.33,-7.75,1.23,9.48
15.530296325683594,-5.81,-8.94,0.94,10.7
15.531311988830566,-6.36,-8.6,0.34,10.7
15.545572280883789,-6.47,-7.88,-0.49,10.2
15.551872253417969,-6.32,-7.46,-1.09,9.83
15.587899208068848,-6.33,-7.37,-1.69,9.86
15.58905029296875,-5.87,-7.77,-2.59,10.07
15.590372085571289,-5.46,-7.66,-2.88,9.83
15.593560218811035,-5.3,-7.72,-2.87,9.79
15.613438129425049,-5.1,-7.88,-2.83,9.8
15.61445426940918,-4.61,-7.91,-2.79,9.57
15.630220174789429,-3.91,-7.92,-2.73,9.24
15.63126802444458,-3.19,-8.0,-2.67,9.01
15.645985126495361,-2.76,-8.13,-2.64,8.98
15.650949001312256,-2.73,-8.02,-2.61,8.86
15.688322067260742,-2.9,-7.36,-2.33,8.24
15.689509153366089,-3.05,-6.43,-1.93,7.37
15.690762042999268,-2.59,-5.11,-1.78,5.99
15.693453311920166,-0.87,-3.22,-1.56,3.68
15.713344097137451,1.9,-1.1,-0.99,2.4
15.714385032653809,4.84,1.3,0.0,5.01
15.7315092086792,7.13,4.67,1.15,8.6
15.73297119140625,8.6,9.01,1.93,12.6
15.746050119400024,10.14,13.74,2.12,17.2
15.750826120376587,12.05,16.57,1.88,20.57
15.787092208862305,14.21,16.02,2.83,21.6
15.788278102874756,16.33,13.88,4.21,21.84
15.789424180984497,18.23,13.01,5.54,23.07
15.796579122543335,19.57,12.69,6.66,24.25
15.799635171890259,17.28,16.64,5.63,24.64
15.810724258422852,13.71,17.89,5.65,23.23
15.819318294525146,9.59,10.2,-0.29,14.0
15.829716205596924,-0.54,2.39,-5.21,5.75
15.839775085449219,-10.94,18.64,-5.49,22.29
15.849731206893921,-13.06,27.36,4.45,30.64
15.881156206130981,-8.03,5.19,6.59,11.61
15.8824462890625,-0.33,-6.94,1.82,7.18
15.883449077606201,7.21,-6.87,3.76,10.64
15.897664070129395,11.67,-5.83,5.31,14.08
15.898730278015137,11.59,-4.55,1.62,12.55
15.913429260253906,7.94,-0.62,-1.43,8.09
15.918976306915283,3.11,1.69,0.64,3.59
15.930378198623657,-0.34,0.1,-0.02,0.35
15.938998222351074,-0.44,-0.72,0.16,0.85
15.948860168457031,0.87,-0.29,0.91,1.29
15.986999988555908,1.54,0.54,1.38,2.13
15.98833417892456,0.88,0.34,0.82,1.24
15.989282131195068,0.26,-0.14,-0.33,0.44
15.996645212173462,0.78,-0.32,-0.77,1.14
16.013712167739868,1.64,-0.6,-0.25,1.76
16.014750003814697,1.68,-0.99,0.21,1.96
16.030416011810303,1.05,-0.86,0.19,1.37
16.031886100769043,0.67,-0.1,-0.07,0.68
16.04590606689453,0.52,0.5,-0.25,0.76
16.047927141189575,0.38,0.59,-0.03,0.7
16.091023206710815,0.33,0.25,0.46,0.61
16.092167139053345,0.25,-0.17,0.73,0.79
16.093218326568604,0.26,-0.37,0.35,0.57
16.114752292633057,0.17,-0.18,0.09,0.26
16.11580514907837,-0.03,0.09,-0.15,0.17
16.13006830215454,-0.07,0.29,-0.27,0.4
16.131389141082764,-0.03,0.38,-0.42,0.56
16.147395133972168,0.01,0.33,-0.75,0.81
16.148837089538574,-0.1,0.31,-0.53,0.62
16.163149118423462,-0.38,0.38,-0.25,0.59
16.19371509552002,-0.64,0.42,-0.08,0.76
16.195013999938965,-0.83,0.52,0.01,0.97
16.196024179458618,-0.93,0.82,0.09,1.24
16.214434146881104,-1.01,1.0,0.03,1.42
16.21540403366089,-1.15,1.02,0.07,1.53
16.230412006378174,-1.34,0.85,0.04,1.58
16.23142433166504,-1.35,0.61,0.12,1.48
16.24654531478882,-1.49,0.41,-0.02,1.54
16.247974157333374,-1.57,0.6,-0.3,1.7
16.263055324554443,-1.36,0.69,-0.96,1.8
16.29224419593811,-1.08,0.94,-1.35,1.96
16.293583154678345,-0.88,1.39,-1.68,2.35
16.29461121559143,-1.0,1.63,-1.77,2.6
16.314468145370483,-1.34,1.94,-1.5,2.79
16.315484046936035,-1.65,2.15,-1.31,3.01
16.33049726486206,-1.79,2.35,-1.25,3.2
16.331950187683105,-1.88,2.55,-1.37,3.45
16.34721326828003,-2.04,2.78,-1.54,3.77
16.348721027374268,-2.44,3.17,-1.67,4.33
16.36295509338379,-2.95,3.69,-1.65,5.0
16.364464282989502,-3.56,4.23,-1.73,5.79
16.407960176467896,-4.22,4.91,-2.04,6.78
16.409066200256348,-4.99,5.6,-2.72,7.97
16.4100661277771,-6.22,6.62,-3.29,9.66
16.431461334228516,-7.69,8.61,-3.19,11.97
16.432515144348145,-8.83,10.6,-4.66,14.56
16.447442054748535,-9.14,10.99,-7.35,16.07
16.448920249938965,-9.0,10.18,-8.79,16.18
16.464219093322754,-9.12,8.91,-9.15,15.69
16.4656720161438,-9.59,8.54,-9.73,16.11
16.47939419746399,-9.22,12.3,-6.65,16.74
16.50994110107422,-6.12,16.61,-3.12,17.97
16.511235237121582,-1.02,15.68,-4.97,16.48
16.51225233078003,2.04,9.95,-7.49,12.61
16.53097414970398,0.34,3.52,-7.65,8.42
16.532048225402832,-3.99,-0.64,-5.71,6.99
16.54703712463379,-4.8,-4.38,-6.1,8.91
16.54840612411499,1.07,-0.92,-3.24,3.53
16.564441204071045,6.06,-0.51,3.0,6.78
16.565893173217773,1.28,-4.82,-1.26,5.14
16.580027103424072,-5.04,-5.96,-3.36,8.49
16.610708236694336,-9.06,-6.34,-1.99,11.23
16.612043142318726,-12.4,-5.89,-1.82,13.84
16.61308002471924,-14.82,-5.18,-1.75,15.79
16.631383180618286,-15.68,-4.73,-1.39,16.43
16.632447242736816,-13.54,-4.93,0.5,14.41
16.64723300933838,-9.91,-6.0,1.69,11.7
16.648227214813232,-7.79,-7.15,1.84,10.73
16.664528131484985,-7.83,-6.93,1.54,10.56
16.66598415374756,-8.41,-5.34,1.09,10.02
16.679606199264526,-7.86,-4.44,0.32,9.03
16.707943201065063,-6.38,-3.63,-0.72,7.37
16.70934820175171,-4.81,-2.72,-1.7,5.78
16.71033000946045,-3.61,-2.23,-2.81,5.08
16.731866121292114,-2.7,-1.91,-3.88,5.09
16.73289918899536,-1.97,-1.56,-4.45,5.11
16.747652053833008,-1.27,-1.19,-4.09,4.44
16.7491192817688,-0.47,-0.9,-4.07,4.19
16.764544010162354,0.92,-1.31,-4.61,4.88
16.76605224609375,2.62,-2.07,-4.05,5.24
16.779603004455566,3.85,-2.45,-2.33,5.12
16.809210300445557,4.14,-2.74,-0.26,4.97
16.81063413619995,3.71,-2.45,2.0,4.87
16.811731338500977,3.64,-1.31,4.61,6.01
16.831064224243164,4.3,-0.08,7.29,8.46
16.83210325241089,5.19,0.85,9.52,10.87
16.84730315208435,5.61,1.75,9.76,11.39
16.848326206207275,5.99,3.29,8.88,11.2
16.864339113235474,7.16,5.08,7.85,11.77
16.86580228805542,9.9,7.06,7.73,14.4
16.87970519065857,14.77,8.83,8.41,19.15
16.90744400024414,19.76,8.5,7.85,22.89
16.908878326416016,22.61,6.85,7.06,24.65
16.909916162490845,22.37,4.45,6.03,23.59
16.912209033966064,19.45,3.6,5.38,20.49
16.913610219955444,17.19,9.57,2.11,19.78
16.915013313293457,12.36,-0.06,-9.68,15.69
16.920927047729492,-2.55,-3.87,-23.82,24.26
16.931045055389404,-13.48,34.51,-20.44,42.31
16.940924167633057,-15.34,54.14,-1.55,56.29
16.950850009918213,-6.44,13.16,-3.27,15.01
16.98556613922119,4.76,-2.85,0.5,5.57
16.98664116859436,7.74,-12.82,12.7,19.63
16.98746418952942,9.22,-16.84,10.81,22.03
16.995992183685303,11.03,-12.89,4.79,17.62
17.000354290008545,9.69,-6.15,4.49,12.32
17.013347148895264,4.76,-1.9,2.52,5.71
17.020572185516357,-0.01,2.74,2.58,3.76
17.030848026275635,-3.7,5.59,-1.3,6.82
17.040316104888916,-2.44,2.63,-2.26,4.24
17.050299167633057,1.45,-0.19,0.15,1.47
17.086935997009277,3.19,-0.62,1.02,3.4
17.088021278381348,2.2,-1.02,-0.35,2.45
17.088874340057373,0.91,-0.29,-1.48,1.76
17.09504508972168,0.89,0.43,-1.1,1.47
17.099799156188965,1.23,-0.07,-0.52,1.33
17.114001274108887,1.1,-0.58,0.11,1.24
17.119585037231445,0.54,-0.52,0.34,0.82
17.13008713722229,-0.06,-0.08,0.4,0.41
17.139682292938232,-0.29,0.29,0.48,0.63
17.149226188659668,-0.3,0.29,0.48,0.63
17.159828186035156,-0.32,0.26,0.43,0.59
17.19231128692627,-0.33,0.31,0.15,0.47
17.193498134613037,-0.3,0.33,-0.39,0.59
17.194456100463867,-0.17,0.33,-0.71,0.8
17.214426040649414,-0.15,0.29,-0.69,0.76
17.215460300445557,-0.4,0.22,-0.7,0.83
17.23033118247986,-0.7,0.26,-0.64,0.98
17.231382131576538,-0.8,0.3,-0.81,1.17
17.24741220474243,-0.77,0.45,-0.85,1.23
17.248478174209595,-0.83,0.57,-0.48,1.11
17.263304233551025,-0.81,0.54,-0.31,1.02
17.293066024780273,-0.58,0.45,-0.14,0.74
17.29430913925171,-0.37,0.46,0.17,0.61
17.295120239257812,-0.38,0.38,0.14,0.55
17.314974308013916,-0.54,0.3,-0.05,0.61
17.31600022315979,-0.73,0.34,-0.12,0.81
17.330596208572388,-0.65,0.48,-0.18,0.82
17.331631183624268,-0.48,0.62,-0.38,0.87
17.347795009613037,-0.57,0.84,-0.49,1.12
17.349249124526978,-1.0,1.26,-0.5,1.68
17.36336612701416,-1.45,1.52,-0.86,2.26
17.3932843208313,-1.77,1.81,-0.83,2.66
17.39460325241089,-2.11,2.02,-0.9,3.05
17.39557409286499,-2.11,2.13,-0.88,3.12
17.41452407836914,-1.98,2.1,-0.93,3.03
17.415558338165283,-1.91,2.06,-0.88,2.94
17.430546283721924,-1.95,2.12,-1.0,3.04
17.431571006774902,-2.05,2.38,-1.04,3.3
17.44809103012085,-2.32,2.79,-1.08,3.78
17.449578285217285,-2.88,3.27,-1.27,4.53
17.463333129882812,-3.59,3.84,-1.37,5.43
17.492379188537598,-4.39,4.57,-1.67,6.55
17.49372625350952,-5.29,5.3,-2.37,7.85
17.494726181030273,-6.38,6.74,-2.6,9.63
17.514645099639893,-7.86,8.81,-3.45,12.3
17.515703201293945,-9.14,10.39,-5.28,14.81
17.529349327087402,-10.12,10.94,-6.48,16.25
17.53038501739502,-11.01,10.91,-6.48,16.79
17.547747135162354,-12.1,10.55,-7.12,17.56
17.54918909072876,-12.76,11.68,-6.24,18.38
17.563600063323975,-9.95,15.25,-3.52,18.54
17.595890045166016,-3.97,14.93,-5.28,16.32
17.597224235534668,2.14,13.15,-6.53,14.83
17.59824800491333,4.49,10.36,-3.91,11.94
17.61500310897827,1.43,3.42,-4.58,5.89
17.61603832244873,-3.53,-1.84,-5.55,6.83
17.630861282348633,-3.66,-3.74,-7.25,8.94
17.6318941116333,3.05,2.08,-2.17,4.28
17.647757053375244,4.67,0.1,0.6,4.7
17.64921808242798,-1.19,-3.03,-4.74,5.75
17.66359806060791,-5.89,-4.18,-4.45,8.48
17.693575143814087,-8.63,-3.81,-2.89,9.86
17.695066213607788,-10.7,-3.44,-3.28,11.7
17.69604516029358,-11.55,-3.94,-2.76,12.51
17.715843200683594,-9.87,-4.74,-0.7,10.97
17.716896057128906,-7.35,-6.13,0.95,9.61
17.72979712486267,-5.85,-7.87,1.27,9.88
17.730846166610718,-5.67,-8.57,0.99,10.32
17.74832820892334,-6.33,-7.26,1.02,9.68
17.749783039093018,-6.88,-5.79,0.63,9.01
17.76378321647644,-6.92,-5.11,-0.39,8.61
17.79329514503479,-6.54,-4.92,-0.94,8.23
17.794527053833008,-6.02,-4.89,-1.12,7.83
17.79533815383911,-5.65,-4.94,-1.41,7.63
17.814845085144043,-5.65,-4.98,-1.65,7.71
17.815819263458252,-5.68,-5.13,-1.64,7.82
17.83121633529663,-5.41,-5.29,-1.54,7.72
17.83226203918457,-4.62,-5.54,-1.29,7.32
17.8480122089386,-3.52,-5.95,-1.16,7.0
17.849494218826294,-2.6,-6.35,-0.95,6.92
17.863694190979004,-1.87,-6.59,-0.84,6.9
17.891308307647705,-1.23,-6.35,-0.53,6.48
17.892638206481934,-0.15,-5.53,-0.48,5.55
17.893458127975464,1.82,-4.28,-1.17,4.79
17.89548921585083,4.37,-3.08,-1.54,5.56
17.90370225906372,7.23,-1.72,-1.11,7.51
17.91370916366577,9.55,0.48,0.34,9.56
17.923582077026367,11.23,2.88,2.55,11.87
17.93388605117798,11.75,5.05,3.68,13.3
17.943690299987793,11.71,7.28,5.09,14.69
17.95347309112549,12.35,9.49,6.72,16.96
17.9636549949646,14.21,10.94,8.16,19.7
17.99641513824463,16.01,10.02,8.47,20.69
17.997457027435303,16.49,8.1,8.18,20.11
17.998268127441406,14.16,9.7,7.1,18.57
18.015276193618774,10.7,14.84,4.81,18.91
18.01634407043457,9.31,12.26,-5.17,16.23
18.031325340270996,1.13,14.65,-15.6,21.43
18.032677173614502,-4.92,34.7,-10.53,36.59
18.04476308822632,-3.16,31.37,-1.62,31.57
18.052317142486572,4.81,5.33,-0.31,7.18
18.062721252441406,8.15,-6.51,0.73,10.45
18.095309257507324,7.46,-10.36,9.08,15.66
18.096384048461914,5.65,-9.93,8.21,14.06
18.09721803665161,5.31,-6.38,2.99,8.82
18.115217208862305,4.66,-0.39,1.6,4.94
18.116267204284668,2.8,2.26,0.01,3.59
18.131102085113525,0.56,0.01,0.66,0.86
18.132134199142456,-1.11,-1.03,1.34,2.02
18.148227214813232,-0.73,-0.05,0.83,1.1
18.152104139328003,0.5,0.83,-0.39,1.04
18.163719177246094,1.24,0.58,-0.68,1.52
18.194500207901,1.46,0.03,-0.69,1.61
18.19618320465088,1.57,-0.27,-0.6,1.7
18.197185039520264,1.6,-0.39,-0.55,1.73
18.214943170547485,1.35,-0.41,-0.37,1.45
18.215999126434326,0.87,-0.39,-0.25,0.98
18.231136322021484,0.47,-0.24,-0.07,0.53
18.232168197631836,0.13,-0.1,0.0,0.16
18.248414039611816,-0.16,0.13,0.23,0.3
18.251379013061523,-0.25,0.25,0.41,0.54
18.26370620727539,-0.25,0.22,0.49,0.59
18.294392108917236,-0.19,0.17,0.2,0.32
18.29576301574707,0.04,0.12,-0.25,0.28
18.296768188476562,0.26,0.04,-0.53,0.59
18.315213203430176,0.32,-0.09,-0.63,0.71
18.316251277923584,0.24,-0.12,-0.58,0.63
18.331099033355713,-0.06,-0.09,-0.39,0.4
18.3321270942688,-0.61,0.07,-0.27,0.67
18.348594188690186,-1.04,0.4,-0.03,1.11
18.350597143173218,-1.06,0.53,0.0,1.18
18.36397123336792,-0.64,0.44,-0.02,0.77
18.399736166000366,-0.19,0.33,0.18,0.42
18.401037216186523,-0.03,0.14,0.21,0.25
18.40205717086792,-0.15,0.11,0.22,0.28
18.415516138076782,-0.22,0.21,0.2,0.36
18.416551113128662,-0.07,0.31,0.02,0.31
18.431034088134766,0.19,0.29,-0.15,0.37
18.432039260864258,0.04,0.26,-0.15,0.3
18.44828224182129,-0.58,0.43,-0.2,0.74
18.449766159057617,-1.34,0.72,-0.3,1.55
18.46387219429016,-1.97,1.1,-0.4,2.29
18.49754524230957,-2.19,1.31,-0.82,2.68
18.498789310455322,-1.98,1.3,-1.28,2.69
18.49976921081543,-1.58,1.33,-1.89,2.79
18.51549530029297,-1.18,1.47,-2.72,3.3
18.516569137573242,-1.29,1.97,-2.85,3.69
18.531254291534424,-1.38,2.68,-2.47,3.89
18.532276153564453,-1.77,3.2,-2.37,4.35
18.548424243927002,-2.06,4.03,-1.8,4.87
18.54991102218628,-2.62,4.34,-1.33,5.24
18.56400728225708,-3.36,4.47,-0.97,5.67
18.597899198532104,-3.93,4.52,-1.01,6.07
18.59921407699585,-4.18,4.68,-1.19,6.38
18.600229263305664,-4.56,5.02,-1.62,6.97
18.615130186080933,-5.35,5.86,-1.86,8.14
18.616133213043213,-6.74,7.63,-1.58,10.3
18.63125228881836,-8.62,10.42,-2.13,13.69
18.632301330566406,-10.15,11.81,-5.41,16.48
18.646505117416382,-10.71,11.27,-8.44,17.69
18.64811134338379,-10.62,10.16,-9.74,17.63
18.664002180099487,-10.72,9.12,-10.72,17.69
18.69725012779236,-10.32,11.71,-8.76,17.89
18.698554039001465,-7.19,15.24,-6.23,17.96
18.6996111869812,-1.22,13.66,-7.63,15.69
18.715732097625732,3.64,10.94,-6.25,13.11
18.716811180114746,3.61,5.89,-4.92,8.48
18.717849254608154,-1.26,0.02,-5.78,5.91
18.72764825820923,-4.74,-4.07,-5.78,8.51
18.73776626586914,-1.14,-0.61,-3.66,3.88
18.74784016609192,4.38,1.71,1.29,4.87
18.75774312019348,1.52,-2.72,-2.47,3.97
18.767549991607666,-3.58,-3.39,-4.0,6.34
18.801944255828857,-7.34,-2.85,-2.34,8.21
18.80323600769043,-10.4,-1.98,-2.35,10.84
18.804214000701904,-12.45,-1.98,-2.46,12.84
18.814151287078857,-12.15,-2.96,-1.48,12.59
18.81688618659973,-9.51,-4.47,0.51,10.52
18.83011531829834,-7.21,-6.19,1.59,9.63
18.836976051330566,-6.36,-7.6,1.82,10.07
18.848586082458496,-6.76,-7.57,2.01,10.34
18.857064247131348,-7.21,-6.9,1.21,10.05
18.866569995880127,-6.92,-6.35,-0.25,9.39
18.89983320236206,-6.36,-5.83,-1.45,8.74
18.90110421180725,-5.89,-5.28,-1.83,8.11
18.902106285095215,-5.5,-5.18,-2.15,7.85
18.915728092193604,-5.08,-5.37,-2.33,7.75
18.91676902770996,-4.59,-5.55,-2.32,7.56
18.931639194488525,-3.89,-5.82,-2.19,7.33
18.936084270477295,-2.89,-6.19,-2.05,7.13
18.948094129562378,-1.78,-6.67,-1.99,7.18
18.956258296966553,-0.68,-7.32,-2.15,7.65
18.96586322784424,0.41,-7.71,-2.31,8.05
18.997369289398193,1.57,-7.82,-2.04,8.23
18.99864912033081,2.65,-7.14,-1.17,7.7
18.99960708618164,3.63,-6.12,-1.1,7.2
19.01573419570923,4.82,-4.84,-0.73,6.86
19.016823291778564,6.35,-2.96,0.62,7.03
19.031617164611816,8.08,-0.29,2.97,8.61
19.035128116607666,9.76,2.6,5.3,11.4
19.04804801940918,11.44,5.16,7.18,14.45
19.055081129074097,12.22,7.89,8.22,16.7
19.065060138702393,13.37,10.74,9.81,19.75
19.097897052764893,14.8,12.31,10.12,21.74
19.099400997161865,16.18,10.68,8.67,21.23
19.100436210632324,17.32,10.28,8.32,21.79
19.113721132278442,16.27,12.2,6.52,21.35
19.114808082580566,14.22,17.32,1.87,22.48
19.13182020187378,9.45,6.39,-11.95,16.52
19.13441514968872,-5.55,11.39,-20.92,24.45
19.148061275482178,-14.08,45.52,-10.41,48.77
19.154584169387817,-14.19,29.62,2.91,32.97
19.164461135864258,-4.44,-0.59,3.44,5.64
19.202598094940186,5.54,-5.52,6.29,10.03
19.20380926132202,8.32,-12.02,10.02,17.72
19.204657077789307,9.39,-13.15,4.58,16.79
19.215623140335083,9.77,-8.21,1.76,12.88
19.21668314933777,7.25,-0.43,1.91,7.5
19.23169708251953,2.54,3.51,-0.89,4.42
19.233631134033203,-0.89,1.86,-2.64,3.34
19.24777603149414,-1.39,0.34,-1.71,2.22
19.253636121749878,0.24,-0.06,1.03,1.05
19.264349222183228,1.84,0.02,2.77,3.32
19.302067279815674,1.88,-0.09,2.0,2.74
19.303499221801758,1.11,-0.27,0.02,1.14
19.304474115371704,0.72,-0.1,-0.6,0.94
19.31600332260132,0.96,-0.07,-0.18,0.97
19.317044258117676,1.05,-0.53,0.29,1.21
19.331911087036133,0.78,-0.74,0.35,1.13
19.332950115203857,0.57,-0.43,0.07,0.71
19.34830617904663,0.69,-0.05,-0.12,0.7
19.353179216384888,0.86,0.03,-0.18,0.87
19.364155292510986,0.88,-0.19,-0.34,0.96
19.400734186172485,0.61,-0.26,-0.31,0.73
19.40208911895752,0.11,-0.08,-0.02,0.13
19.403024196624756,-0.2,0.05,0.27,0.33
19.415773153305054,-0.34,0.09,0.56,0.66
19.4168221950531,-0.42,0.15,0.62,0.76
19.431897163391113,-0.35,0.16,0.14,0.4
19.432931184768677,-0.15,0.22,-0.31,0.4
19.44843316078186,-0.11,0.26,-0.31,0.41
19.452017307281494,-0.32,0.3,-0.23,0.49
19.462136268615723,-0.41,0.3,-0.42,0.65
19.50016713142395,-0.41,0.38,-0.46,0.72
19.501410007476807,-0.47,0.4,-0.56,0.83
19.502410173416138,-0.77,0.51,-0.32,0.97
19.515884160995483,-1.07,0.6,-0.04,1.22
19.51693320274353,-1.02,0.46,-0.08,1.12
19.531907081604004,-0.79,0.27,-0.27,0.87
19.532944202423096,-0.64,0.22,-0.65,0.93
19.548664093017578,-0.74,0.41,-0.94,1.26
19.55110812187195,-0.94,0.71,-1.17,1.66
19.564385175704956,-1.07,0.93,-1.19,1.85
19.57163119316101,-1.12,1.04,-1.0,1.82
19.609222173690796,-1.22,1.02,-0.83,1.79
19.610392093658447,-1.27,1.01,-0.75,1.78
19.611299991607666,-1.23,1.01,-0.99,1.87
19.632599115371704,-1.09,1.27,-1.37,2.16
19.63363814353943,-1.17,1.79,-1.39,2.55
19.648556232452393,-1.4,2.28,-1.27,2.96
19.65003204345703,-1.95,2.55,-1.57,3.57
19.666733264923096,-2.18,3.35,-1.62,4.31
19.668228149414062,-2.2,3.8,-1.71,4.71
19.68119215965271,-2.16,4.05,-1.31,4.77
19.712172031402588,-2.53,4.09,-1.12,4.93
19.713542222976685,-3.33,4.49,-0.92,5.66
19.714553117752075,-4.36,5.44,-0.73,7.0
19.732752323150635,-5.83,6.85,-1.07,9.05
19.733803272247314,-7.31,8.3,-2.4,11.31
19.748242139816284,-8.42,9.02,-4.09,12.99
19.749263286590576,-9.07,10.05,-5.26,14.52
19.76589012145996,-9.49,10.3,-8.24,16.24
19.767338275909424,-9.3,9.91,-9.8,16.75
19.780887126922607,-8.95,9.15,-9.71,16.06
19.810750007629395,-8.78,8.48,-9.41,15.41
19.81222105026245,-7.93,10.96,-6.73,15.1
19.813260078430176,-5.07,14.06,-4.38,15.57
19.832322120666504,-0.35,14.21,-5.3,15.17
19.833407163619995,2.54,10.28,-6.56,12.45
19.848517179489136,0.61,3.47,-7.21,8.02
19.849584102630615,-4.13,-0.96,-6.24,7.54
19.86619806289673,-4.81,-2.62,-5.15,7.51
19.86764907836914,1.49,2.78,0.0,3.15
19.881245136260986,3.55,0.48,1.55,3.9
19.9132342338562,-1.62,-2.97,-3.2,4.65
19.914615154266357,-6.13,-3.08,-3.1,7.52
19.915618181228638,-9.5,-2.11,-2.17,9.97
19.932701110839844,-12.09,-1.72,-2.41,12.44
19.933754205703735,-13.03,-2.09,-2.02,13.35
19.94858407974243,-10.86,-3.15,-0.14,11.3
19.949600219726562,-7.79,-4.95,1.26,9.31
19.965922117233276,-6.35,-6.99,2.0,9.65
19.967424154281616,-6.25,-8.32,2.2,10.63
19.98115611076355,-6.34,-8.51,1.85,10.77
20.012124061584473,-6.27,-7.72,0.95,9.99
20.013436317443848,-6.01,-6.72,-0.31,9.02
20.014419078826904,-5.77,-5.83,-1.49,8.33
20.03282403945923,-5.36,-5.44,-2.37,7.99
20.033899307250977,-4.71,-5.33,-2.64,7.58
20.048721313476562,-4.06,-5.6,-2.55,7.37
20.049748182296753,-3.62,-6.18,-2.41,7.55
20.06570816040039,-3.27,-6.76,-2.34,7.86
20.067103147506714,-2.73,-7.16,-2.16,7.96
20.081257343292236,-2.14,-7.5,-2.1,8.07
20.109858989715576,-1.63,-7.81,-2.12,8.25
20.11097526550293,-1.38,-7.72,-1.96,8.08
20.11176633834839,-1.4,-7.16,-1.33,7.41
20.13258409500122,-1.11,-6.39,-0.82,6.53
20.13365602493286,-0.08,-4.89,-0.39,4.9
20.148826122283936,1.37,-3.15,0.76,3.51
20.149859189987183,3.11,-1.5,1.83,3.9
20.165646076202393,4.96,1.12,3.75,6.31
20.166651248931885,6.8,4.87,6.34,10.49
20.181153297424316,8.84,8.65,8.14,14.8
20.20798420906067,11.48,11.48,9.45,18.78
20.209102153778076,13.5,11.96,9.11,20.2
20.209938049316406,14.11,11.02,8.79,19.94
20.212520122528076,14.04,11.8,8.82,20.35
20.2162082195282,13.4,13.79,6.69,20.35
20.226168155670166,12.54,18.7,3.1,22.72
20.23611307144165,15.53,18.15,-4.76,24.35
20.246004104614258,13.39,10.61,-16.29,23.6
20.255879163742065,2.84,14.34,-13.09,19.62
20.26587724685669,-4.3,27.95,-2.43,28.38
20.301098108291626,-3.59,13.45,2.99,14.23
20.302054166793823,5.32,2.48,6.4,8.68
20.30285930633545,7.82,-5.63,7.21,12.03
20.316065311431885,5.79,-9.6,4.21,11.97
20.317126274108887,4.74,-5.58,2.74,7.81
20.33234214782715,4.13,-1.31,1.85,4.71
20.335305213928223,3.51,0.0,0.72,3.58
20.348531246185303,2.71,-0.67,-0.3,2.8
20.355314254760742,1.3,-1.06,0.25,1.69
20.365302085876465,0.12,-0.27,1.75,1.77
20.375397205352783,-0.03,0.35,1.43,1.47
20.408977031707764,0.38,0.53,0.12,0.66
20.410146236419678,1.18,0.45,-0.48,1.35
20.411136150360107,1.52,0.03,-0.07,1.52
20.414716243743896,1.11,-0.5,0.01,1.21
20.424784183502197,0.71,-0.48,0.15,0.87
20.434860229492188,0.54,-0.3,0.16,0.63
20.44475030899048,0.51,-0.22,-0.01,0.55
20.45450210571289,0.52,-0.19,-0.18,0.58
20.46472716331482,0.5,-0.07,-0.34,0.6
20.47454309463501,0.45,0.05,-0.39,0.59
20.507931232452393,0.35,0.07,-0.2,0.4
20.509077072143555,0.2,-0.03,0.12,0.23
20.51019525527954,0.09,-0.11,0.34,0.36
20.513800144195557,0.02,-0.11,0.22,0.24
20.52409815788269,-0.13,0.06,0.12,0.18
20.53409719467163,-0.28,0.17,-0.16,0.36
20.543899059295654,-0.28,0.19,-0.56,0.65
20.55391025543213,-0.38,0.35,-0.69,0.86
20.56362819671631,-0.39,0.4,-0.59,0.81
20.57382106781006,-0.37,0.31,-0.34,0.59
20.604892253875732,-0.28,0.31,0.01,0.41
20.605939149856567,-0.33,0.36,0.33,0.58
20.606727123260498,-0.47,0.36,0.32,0.67
20.61573028564453,-0.44,0.36,0.16,0.59
20.623391151428223,-0.35,0.33,0.17,0.51
20.633036136627197,-0.36,0.27,0.14,0.47
20.643112182617188,-0.36,0.25,-0.08,0.44
20.65288019180298,-0.32,0.27,-0.2,0.46
20.66315507888794,-0.25,0.34,-0.51,0.66
20.67315912246704,-0.23,0.46,-0.98,1.1
20.707109212875366,-0.41,0.77,-1.01,1.33
20.708314180374146,-0.79,0.96,-0.98,1.58
20.709079265594482,-1.26,1.06,-0.9,1.87
20.71233606338501,-1.63,1.21,-0.88,2.21
20.732312202453613,-1.98,1.3,-0.94,2.54
20.733384132385254,-2.18,1.61,-0.79,2.82
20.749075174331665,-1.97,1.63,-1.12,2.79
20.75223731994629,-1.53,1.83,-1.19,2.66
20.764881134033203,-1.51,2.18,-1.46,3.02
20.77246332168579,-1.58,2.64,-1.3,3.34
20.809767246246338,-2.03,2.91,-0.96,3.67
20.810912132263184,-2.56,2.96,-0.56,3.95
20.81192111968994,-2.88,2.9,-0.54,4.12
20.833195209503174,-3.04,3.06,-0.54,4.34
20.834224224090576,-3.23,3.48,-0.98,4.84
20.849077224731445,-3.64,4.03,-1.47,5.62
20.85011315345764,-4.64,5.38,-1.36,7.23
20.866305112838745,-5.87,7.32,-1.89,9.57
20.86780834197998,-6.79,8.38,-3.82,11.44
20.88176202774048,-7.58,8.69,-4.74,12.46
20.91169834136963,-9.14,9.43,-4.71,13.95
20.912981033325195,-10.58,9.56,-5.78,15.38
20.913995265960693,-11.33,8.73,-6.56,15.73
20.932791233062744,-11.89,8.56,-5.87,15.78
20.93381404876709,-10.26,11.42,-3.25,15.69
20.949186325073242,-5.86,12.63,-3.57,14.37
20.950217247009277,0.04,11.35,-5.34,12.54
20.966432094573975,3.65,10.91,-3.5,12.02
20.967909336090088,1.66,5.92,-3.51,7.07
20.981428146362305,-3.22,1.0,-4.06,5.27
21.011346340179443,-6.44,-2.94,-4.52,8.39
21.012675285339355,-3.41,-1.86,-4.79,6.16
21.013702154159546,4.12,3.05,-0.44,5.14
21.03289031982422,4.05,-0.46,-1.21,4.25
21.033903121948242,-1.18,-2.06,-4.29,4.9
21.049050331115723,-4.84,-1.86,-2.61,5.8
21.050056219100952,-7.94,-1.77,-3.0,8.67
21.066102027893066,-10.0,-2.26,-3.39,10.79
21.0675630569458,-10.2,-2.95,-2.54,10.91
21.081512212753296,-8.64,-3.68,-0.72,9.41
21.11172914505005,-6.94,-4.81,0.61,8.46
21.11292815208435,-6.08,-5.94,1.1,8.57
21.113746166229248,-6.01,-6.53,1.28,8.96
21.133179187774658,-6.17,-6.26,0.79,8.82
21.134177207946777,-6.07,-5.45,-0.32,8.16
21.149368286132812,-5.69,-4.75,-1.6,7.58
21.150397300720215,-5.17,-4.3,-2.42,7.14
21.166667222976685,-4.52,-4.02,-3.02,6.76
21.168086051940918,-3.92,-4.04,-3.5,6.62
21.18036699295044,-3.61,-4.38,-3.68,6.76
21.181833267211914,-3.59,-4.76,-3.35,6.83
21.227890014648438,-3.73,-5.32,-2.96,7.13
21.229055166244507,-3.74,-5.84,-2.57,7.39
21.230041027069092,-3.38,-6.32,-2.35,7.54
21.249757289886475,-2.67,-6.63,-2.19,7.47
21.250794172286987,-2.07,-7.14,-2.17,7.74
21.266017198562622,-1.74,-7.48,-1.91,7.91
21.267024040222168,-1.33,-7.23,-1.21,7.45
21.282507181167603,-0.34,-6.43,-0.36,6.44
21.28400230407715,1.53,-5.16,0.29,5.38
21.298399209976196,3.84,-3.4,0.97,5.21
21.32919931411743,6.07,-0.9,1.97,6.44
21.330525159835815,7.69,2.58,3.23,8.73
21.331634998321533,9.06,6.62,4.01,11.91
21.347742080688477,11.01,10.8,4.8,16.15
21.348803997039795,14.03,14.59,5.26,20.91
21.36307120323181,17.53,15.89,6.19,24.45
21.364142179489136,20.11,14.33,7.2,25.72
21.379584312438965,21.53,13.23,8.06,26.52
21.381174087524414,21.12,13.86,7.26,26.28
21.398667335510254,18.15,18.81,4.82,26.57
21.427640199661255,16.14,13.92,-1.12,21.34
21.4289870262146,6.14,-1.39,-9.34,11.26
21.429854154586792,-8.59,6.33,-12.87,16.71
21.449912071228027,-15.91,33.29,-6.96,37.54
21.450944185256958,-17.17,22.62,3.19,28.57
21.4658260345459,-10.22,-1.66,3.94,11.07
21.466862201690674,-1.97,-10.62,5.63,12.18
21.481879234313965,6.23,-11.03,5.59,13.84
21.482916116714478,12.7,-8.71,5.83,16.46
21.498632192611694,15.29,-2.86,4.32,16.14
21.52761220932007,11.59,1.8,-0.52,11.74
21.528799057006836,4.27,0.91,-0.52,4.39
21.52957320213318,-0.84,-0.5,0.24,1.0
21.549910068511963,-2.51,-0.49,1.32,2.87
21.550978183746338,-0.76,0.85,2.08,2.37
21.565924167633057,1.02,1.32,0.83,1.86
21.566956996917725,1.76,0.82,-0.09,1.94
21.582351207733154,1.82,-0.19,-0.38,1.86
21.58331298828125,1.83,-1.03,-0.44,2.14
21.59895920753479,1.73,-1.25,-0.17,2.14
21.63005828857422,1.54,-1.03,0.12,1.85
21.631385326385498,1.4,-0.69,0.12,1.56
21.632139205932617,1.12,-0.21,-0.03,1.13
21.65108013153076,0.66,0.35,-0.25,0.78
21.65214514732361,0.31,0.67,-0.2,0.76
21.666017055511475,0.03,0.56,0.6,0.82
21.667041301727295,-0.02,0.11,1.08,1.08
21.683056116104126,0.06,-0.18,0.83,0.85
21.68450403213501,0.18,-0.09,0.36,0.41
21.698551177978516,0.33,-0.01,-0.56,0.65
21.728373050689697,0.48,-0.01,-1.05,1.15
21.729546070098877,0.51,-0.08,-0.97,1.09
21.73035717010498,0.33,-0.1,-0.63,0.71
21.749921321868896,0.09,-0.06,-0.25,0.27
21.75100016593933,-0.12,-0.14,0.06,0.19
21.764960289001465,-0.32,-0.1,0.42,0.53
21.765969276428223,-0.4,0.01,0.38,0.55
21.782865047454834,-0.41,0.18,0.0,0.44
21.783870220184326,-0.36,0.46,-0.13,0.59
21.79881715774536,-0.51,0.64,-0.16,0.83
21.82973623275757,-0.74,0.69,0.03,1.01
21.830867290496826,-0.99,0.63,0.38,1.23
21.83168601989746,-1.2,0.61,0.44,1.41
21.85011100769043,-1.09,0.56,-0.12,1.23
21.85114312171936,-0.65,0.76,-0.65,1.19
21.86618709564209,-0.45,1.01,-0.93,1.44
21.86723804473877,-0.74,1.23,-1.12,1.82
21.883135318756104,-1.45,1.43,-1.18,2.35
21.884634017944336,-2.22,1.66,-1.02,2.95
21.898738145828247,-2.72,1.98,-0.97,3.5
21.92894721031189,-2.61,2.03,-1.34,3.56
21.930248260498047,-2.16,2.16,-1.34,3.33
21.93111228942871,-1.94,2.41,-1.64,3.5
21.950311183929443,-2.05,2.84,-1.99,4.02
21.95131206512451,-2.43,3.5,-1.86,4.64
21.96620225906372,-3.11,4.01,-1.64,5.33
21.967241287231445,-3.94,4.17,-1.58,5.95
21.98269510269165,-4.65,4.28,-1.47,6.48
21.983729124069214,-5.22,4.47,-1.58,7.05
21.998926162719727,-5.72,5.07,-2.09,7.92
22.000324249267578,-6.04,5.94,-3.24,9.06
22.044883251190186,-6.65,6.82,-4.54,10.55
22.046080112457275,-7.93,8.12,-5.5,12.61
22.047083139419556,-9.13,9.43,-5.77,14.33
22.06724715232849,-10.16,9.81,-6.39,15.5
22.06835699081421,-11.43,9.74,-7.12,16.61
22.07947015762329,-12.23,12.45,-6.95,18.78
22.0805401802063,-9.82,17.06,-4.92,20.28
22.100104331970215,-4.18,17.11,-7.25,19.04
22.101580142974854,1.15,14.23,-8.65,16.69
22.115212202072144,1.95,9.16,-6.08,11.16
22.146238327026367,-2.04,3.1,-6.18,7.2
22.147603034973145,-6.15,-0.66,-4.98,7.94
22.148620128631592,-4.94,-3.65,-6.61,9.02
22.167100191116333,3.11,1.59,-2.93,4.55
22.168129205703735,7.12,0.05,2.12,7.42
22.18266010284424,1.13,-4.68,-2.2,5.29
22.183703184127808,-5.3,-5.84,-2.38,8.23
22.200372219085693,-9.35,-6.3,-1.01,11.31
22.20183801651001,-12.81,-5.93,-0.7,14.13
22.215623140335083,-14.95,-4.94,0.19,15.74
22.245208263397217,-14.72,-4.24,1.67,15.4
22.246503114700317,-11.58,-4.86,2.94,12.89
22.247515201568604,-8.0,-5.94,3.4,10.52
22.267011165618896,-6.24,-6.81,3.01,9.71
22.268041133880615,-6.28,-6.43,2.57,9.34
22.28279399871826,-6.67,-4.87,1.91,8.47
22.283836126327515,-6.07,-4.19,0.48,7.39
22.299825191497803,-4.9,-4.19,-0.57,6.47
22.300804138183594,-4.0,-4.46,-1.26,6.12
22.31427812576294,-3.64,-5.01,-2.03,6.51
22.34314513206482,-3.58,-5.52,-2.83,7.16
22.34451413154602,-3.21,-5.9,-3.05,7.37
22.34535312652588,-2.38,-6.33,-2.86,7.34
22.347413063049316,-1.39,-7.0,-2.33,7.5
22.348618030548096,-0.73,-7.39,-1.43,7.56
22.350008010864258,-0.71,-7.2,-0.36,7.24
22.351243019104004,-0.72,-6.07,0.62,6.14
22.359877109527588,0.34,-4.19,1.22,4.37
22.370118141174316,2.14,-2.5,1.84,3.77
22.380089282989502,3.7,-0.68,3.31,5.01
22.41278314590454,4.4,1.38,5.2,6.95
22.413730144500732,4.85,3.95,6.98,9.37
22.414554119110107,6.09,6.94,8.23,12.36
22.43212604522705,8.16,9.69,8.82,15.43
22.432948112487793,10.59,12.18,8.56,18.26
22.4479660987854,12.65,14.0,7.38,20.26
22.44938325881958,14.16,13.94,5.41,20.59
22.464888095855713,15.79,11.78,3.52,20.01
22.4692063331604,17.05,9.04,2.64,19.47
22.48177218437195,16.83,9.49,1.43,19.37
22.513795137405396,17.98,10.12,-2.09,20.73
22.514953136444092,17.42,1.59,-9.28,19.8
22.515778064727783,7.35,-5.69,-14.96,17.61
22.534141063690186,-4.88,11.85,-15.72,20.28
22.53524398803711,-7.91,39.43,-2.56,40.29
22.54965305328369,-5.06,20.56,2.55,21.32
22.55068826675415,4.39,1.44,1.44,4.83
22.566462993621826,7.09,-9.02,5.22,12.6
22.5684711933136,6.87,-13.73,6.07,16.5
22.582036018371582,6.45,-9.12,7.48,13.44
22.616501331329346,4.97,-3.9,6.61,9.14
22.617889165878296,3.17,0.02,2.86,4.26
22.618898153305054,0.74,3.45,-1.36,3.78
22.63451910018921,-1.04,2.59,-3.04,4.12
22.635557174682617,-0.19,0.35,-1.67,1.71
22.649795055389404,1.68,-0.45,-0.07,1.74
22.650813102722168,2.22,-0.19,-0.16,2.23
22.666576147079468,1.54,0.04,-0.98,1.82
22.66800618171692,0.82,0.2,-1.22,1.48
22.68238115310669,0.87,0.15,-0.61,1.07
22.7168071269989,1.05,-0.37,0.33,1.16
22.718091011047363,1.06,-0.71,0.71,1.46
22.719104290008545,0.91,-0.57,0.73,1.29
22.734086990356445,0.6,-0.15,0.29,0.68
22.735148191452026,0.46,0.19,-0.25,0.55
22.750104188919067,0.49,0.36,-0.26,0.66
22.75114917755127,0.33,0.26,0.27,0.49
22.767043113708496,-0.19,0.12,0.77,0.8
22.768505096435547,-0.5,0.1,0.63,0.81
22.78221321105957,-0.37,0.25,0.13,0.46
22.787320137023926,-0.13,0.33,-0.29,0.45
22.82938528060913,-0.03,0.23,-0.62,0.66
22.830467224121094,-0.04,0.07,-0.62,0.62
22.831432342529297,-0.07,-0.03,-0.45,0.45
22.850572109222412,-0.19,0.0,-0.58,0.61
22.85159420967102,-0.28,0.23,-0.69,0.77
22.866785049438477,-0.32,0.44,-0.72,0.9
22.86781930923462,-0.38,0.56,-0.45,0.81
22.88377618789673,-0.42,0.61,-0.23,0.77
22.885306119918823,-0.58,0.59,-0.21,0.85
22.89968514442444,-0.71,0.67,-0.05,0.97
22.930254220962524,-0.65,0.74,0.09,0.98
22.93168616294861,-0.51,0.59,-0.07,0.78
22.932722091674805,-0.48,0.49,-0.12,0.69
22.95073914527893,-0.54,0.55,-0.24,0.8
22.951786994934082,-0.52,0.69,-0.4,0.95
22.966180324554443,-0.46,0.72,-0.53,1.0
22.96720600128174,-0.69,0.81,-0.54,1.19
22.983703136444092,-0.93,1.28,-0.41,1.63
22.985151290893555,-1.24,1.77,-0.4,2.19
22.999192237854004,-1.57,1.98,-0.49,2.57
23.030009269714355,-1.94,2.09,-0.31,2.86
23.031344175338745,-2.36,2.08,-0.08,3.14
23.032340049743652,-2.56,2.13,0.0,3.33
23.050575256347656,-2.42,2.1,-0.48,3.23
23.051598072052002,-2.13,2.03,-1.12,3.14
23.066760063171387,-2.03,2.16,-1.71,3.42
23.067791223526,-2.14,2.5,-2.07,3.88
23.08349323272705,-2.55,2.93,-2.38,4.55
23.08485698699951,-3.21,3.48,-2.37,5.29
23.099383115768433,-4.07,4.14,-2.21,6.21
23.128127098083496,-4.92,4.66,-2.54,7.23
23.129545211791992,-5.76,5.21,-3.04,8.34
23.130495071411133,-6.62,6.12,-3.69,9.74
23.150545120239258,-7.1,6.93,-4.44,10.86
23.151578187942505,-7.6,7.54,-4.62,11.66
23.166725158691406,-8.79,9.03,-4.71,13.45
23.167771339416504,-10.75,9.9,-7.0,16.2
23.183366298675537,-12.4,11.4,-8.88,19.04
23.184449195861816,-11.19,16.27,-8.38,21.45
23.197021007537842,-6.58,18.44,-8.56,21.36
23.22470712661743,-0.34,15.62,-10.1,18.6
23.225871086120605,3.5,13.18,-7.14,15.39
23.22673511505127,1.6,7.98,-7.01,10.74
23.229518175125122,-3.54,3.39,-7.11,8.63
23.25023603439331,-6.64,-0.66,-5.96,8.94
23.251259326934814,-2.61,1.7,-4.46,5.44
23.267057180404663,5.16,5.51,0.55,7.56
23.268084049224854,5.05,-1.54,-0.37,5.29
23.28216314315796,-0.65,-4.27,-4.17,6.0
23.283212184906006,-5.61,-4.51,-2.53,7.62
23.326776027679443,-8.83,-4.25,-2.01,10.0
23.327774047851562,-10.82,-3.8,-2.19,11.67
23.32877016067505,-10.92,-3.37,-1.42,11.51
23.331268310546875,-8.65,-3.74,-0.05,9.42
23.333359241485596,-6.38,-4.64,1.16,7.97
23.34278106689453,-5.63,-5.65,1.94,8.2
23.35277819633484,-6.1,-6.44,2.26,9.15
23.362856149673462,-6.92,-6.81,2.1,9.93
23.37235927581787,-7.18,-6.89,1.52,10.06
23.3825101852417,-6.85,-6.67,0.73,9.58
23.41842031478882,-6.37,-6.27,0.02,8.93
23.41933822631836,-5.86,-5.75,-0.61,8.23
23.420138120651245,-5.32,-5.32,-1.19,7.61
23.434327125549316,-4.76,-5.24,-1.47,7.23
23.43538212776184,-4.31,-5.57,-1.35,7.17
23.450120210647583,-4.03,-5.9,-1.1,7.22
23.45166826248169,-3.49,-6.2,-0.94,7.17
23.46702814102173,-2.65,-6.36,-1.06,6.97
23.47151231765747,-1.85,-6.54,-1.32,6.92
23.481492042541504,-1.53,-6.52,-1.38,6.83
23.51856017112732,-1.56,-5.93,-0.93,6.2
23.51962423324585,-1.47,-5.11,-0.53,5.34
23.52039623260498,-0.62,-4.31,-0.41,4.37
23.534499168395996,1.11,-3.53,-0.04,3.7
23.5355441570282,2.97,-2.51,0.98,4.01
23.550191164016724,4.59,-0.95,2.6,5.36
23.55121111869812,5.95,1.33,4.47,7.55
23.56698703765869,7.48,4.28,6.18,10.6
23.570829153060913,9.41,7.13,7.04,13.74
23.58105230331421,11.82,8.95,6.98,16.38
23.591073989868164,13.53,10.08,5.82,17.84
23.627387046813965,14.22,11.72,4.37,18.93
23.628568172454834,15.42,13.49,3.4,20.76
23.62960720062256,17.66,13.76,2.02,22.47
23.647646188735962,18.56,15.9,-0.1,24.43
23.648706197738647,19.75,17.24,0.2,26.21
23.667283058166504,18.32,10.84,-5.92,22.09
23.66833209991455,6.94,3.42,-9.53,12.27
23.683845043182373,-5.71,15.09,-7.87,17.95
23.68536901473999,-11.22,27.46,2.22,29.74
23.69740104675293,-4.77,17.01,6.78,18.92
23.725632190704346,1.77,-3.12,3.35,4.9
23.726869106292725,4.28,-9.08,5.85,11.61
23.727728128433228,5.37,-10.1,6.08,12.95
23.72968816757202,7.1,-6.8,4.4,10.77
23.747121334075928,6.31,-2.1,-0.21,6.65
23.749608993530273,3.27,1.29,-1.03,3.66
23.767301082611084,0.31,1.2,0.55,1.35
23.769288063049316,-0.47,-0.32,1.04,1.18
23.782477140426636,1.04,-0.68,0.79,1.47
23.789443016052246,2.22,-0.05,-0.06,2.22
23.82799005508423,2.13,0.53,-0.55,2.26
23.828975200653076,1.43,0.24,-0.29,1.47
23.829784154891968,0.92,-0.36,0.26,1.02
23.85128927230835,0.83,-0.68,0.61,1.23
23.85230827331543,0.89,-0.74,0.63,1.31
23.866287231445312,0.94,-0.43,0.38,1.1
23.867276191711426,0.97,-0.02,0.03,0.97
23.88422417640686,0.68,0.18,0.19,0.72
23.88566303253174,0.24,0.25,0.62,0.71
23.898330211639404,0.1,0.06,0.74,0.74
23.927768230438232,0.21,-0.24,0.11,0.33
23.928996086120605,0.49,-0.25,-0.44,0.7
23.929827213287354,0.46,-0.06,-0.71,0.84
23.951359272003174,0.21,0.13,-0.76,0.79
23.95236301422119,0.12,0.21,-0.55,0.6
23.967294216156006,-0.03,0.22,-0.37,0.43
23.968332290649414,-0.29,0.16,-0.28,0.43
23.983817100524902,-0.32,0.18,-0.14,0.39
23.985080242156982,-0.19,0.16,-0.21,0.32
23.9997661113739,-0.06,0.21,-0.22,0.31
24.02920913696289,-0.07,0.2,-0.32,0.38
24.030466079711914,-0.17,0.25,-0.24,0.38
24.03136110305786,-0.35,0.28,-0.06,0.45
24.05113911628723,-0.47,0.27,0.06,0.54
24.052183151245117,-0.47,0.29,0.05,0.55
24.067378044128418,-0.6,0.28,0.01,0.66
24.068393230438232,-0.71,0.34,-0.25,0.82
24.083482265472412,-0.73,0.56,-0.63,1.11
24.08452606201172,-0.81,0.84,-1.02,1.54
24.099765300750732,-0.93,1.09,-1.19,1.86
24.12808609008789,-1.21,1.22,-1.13,2.05
24.12923002243042,-1.61,1.28,-1.19,2.37
24.130014181137085,-2.05,1.41,-1.31,2.81
24.151044130325317,-2.38,1.9,-0.96,3.19
24.152077198028564,-2.31,2.34,-0.92,3.41
24.167384147644043,-2.04,2.44,-1.57,3.54
24.168419122695923,-2.01,3.16,-1.72,4.12
24.18398118019104,-2.51,3.71,-1.91,4.86
24.185020208358765,-3.07,4.23,-1.51,5.44
24.199952125549316,-3.48,4.48,-1.55,5.88
24.227095127105713,-3.61,4.68,-1.62,6.12
24.228281021118164,-3.86,4.92,-1.76,6.49
24.229060173034668,-4.36,5.23,-2.22,7.16
24.231444120407104,-5.08,6.14,-2.53,8.36
24.235870122909546,-5.8,7.75,-2.82,10.08
24.245941162109375,-6.79,9.09,-4.76,12.3
24.256031036376953,-8.21,9.5,-6.94,14.34
24.265830993652344,-9.03,9.81,-7.57,15.33
24.275949001312256,-9.03,9.11,-8.42,15.34
24.285593032836914,-8.65,7.63,-8.96,14.6
24.32163715362549,-8.46,7.22,-9.21,14.44
24.322601318359375,-7.55,11.33,-5.53,14.69
24.32340121269226,-4.64,15.63,-2.61,16.51
24.332764148712158,0.08,15.52,-5.12,16.34
24.335125207901,2.99,9.68,-7.8,12.78
24.35069227218628,0.61,2.46,-7.09,7.52
24.354936122894287,-3.94,-2.35,-5.37,7.06
24.36737823486328,-3.99,-3.6,-4.78,7.19
24.374691009521484,2.39,1.72,1.8,3.45
24.384976148605347,3.15,-1.22,2.43,4.16
24.39487600326538,-2.56,-3.27,-1.75,4.5
24.427789211273193,-7.16,-3.22,-0.81,7.89
24.42902112007141,-10.66,-2.11,-0.17,10.86
24.430012226104736,-13.49,-1.68,-0.77,13.61
24.45135521888733,-14.45,-2.19,-0.4,14.62
24.45239520072937,-11.48,-3.52,1.34,12.08
24.46610927581787,-6.95,-5.72,2.3,9.29
24.46712827682495,-4.75,-7.38,2.42,9.1
24.484772205352783,-4.36,-8.09,2.19,9.44
24.486253261566162,-4.43,-7.86,1.69,9.17
24.5001482963562,-4.41,-7.19,0.78,8.47
24.530376195907593,-4.17,-7.11,-0.23,8.24
24.531647205352783,-3.99,-7.12,-1.14,8.24
24.532544136047363,-4.0,-7.09,-1.96,8.37
24.55129623413086,-4.16,-7.01,-2.65,8.57
24.55237913131714,-4.23,-6.88,-3.16,8.67
24.566436290740967,-3.98,-6.67,-3.09,8.35
24.567444324493408,-3.5,-6.62,-2.46,7.88
24.58535099029541,-3.05,-7.08,-1.53,7.85
24.586801052093506,-2.76,-7.73,-0.7,8.23
24.600781202316284,-2.79,-8.31,-0.38,8.77
24.628902196884155,-3.11,-8.4,-0.24,8.96
24.630320072174072,-3.45,-7.68,0.21,8.42
24.63120412826538,-3.52,-6.33,0.55,7.26
24.65103316307068,-2.98,-4.88,0.39,5.73
24.65212631225586,-1.83,-3.21,0.57,3.73
24.666242122650146,-0.4,-0.89,1.6,1.87
24.667283058166504,1.49,2.13,3.26,4.16
24.6839280128479,3.96,5.51,4.54,8.16
24.684917211532593,6.5,8.62,4.41,11.66
24.700146198272705,8.89,10.88,3.21,14.41
24.728393077850342,11.09,12.4,2.38,16.8
24.729640007019043,13.52,13.61,2.5,19.34
24.730607986450195,16.71,13.68,3.45,21.86
24.748241186141968,19.74,12.27,4.82,23.73
24.749322175979614,19.9,14.05,4.75,24.81
24.764828205108643,18.29,18.87,5.03,26.75
24.765913009643555,18.36,16.92,-2.57,25.09
24.784366130828857,11.2,5.1,-13.12,17.98
24.785401105880737,-3.62,10.44,-9.03,14.27
24.8004412651062,-11.6,30.61,0.99,32.74
24.82766318321228,-4.0,23.32,1.74,23.72
24.828906059265137,3.84,0.55,0.82,3.96
24.829705238342285,3.02,-7.95,4.68,9.7
24.8318932056427,3.06,-11.84,5.14,13.26
24.841196060180664,6.28,-10.32,4.28,12.81
24.851510047912598,8.45,-3.92,2.83,9.73
24.861026287078857,6.25,1.47,1.53,6.6
24.871097087860107,2.25,1.25,0.9,2.72
24.88157320022583,-0.53,-0.56,0.4,0.86
24.891122341156006,-0.94,-0.29,0.52,1.11
24.927401065826416,0.14,0.34,0.27,0.45
24.928670167922974,1.16,0.59,0.01,1.3
24.92945432662964,1.42,0.34,0.16,1.46
24.93147325515747,1.1,-0.35,-0.14,1.16
24.940620183944702,0.78,-0.57,-0.33,1.02
24.950700283050537,0.69,-0.38,0.06,0.79
24.960524082183838,0.74,-0.44,0.24,0.89
24.97064733505249,0.63,-0.49,0.23,0.83
24.980481147766113,0.34,-0.12,0.08,0.36
24.99057102203369,0.14,0.22,-0.01,0.26
25.0295991897583,0.16,0.28,0.12,0.34
25.030985116958618,0.11,0.13,0.37,0.4
25.032005310058594,-0.02,0.0,0.32,0.32
25.051429271697998,-0.12,0.0,-0.22,0.25
25.052378177642822,-0.27,0.25,-0.44,0.57
25.06781315803528,-0.29,0.47,-0.25,0.6
25.06886625289917,-0.09,0.36,-0.17,0.4
25.08445715904236,0.06,0.17,-0.62,0.64
25.08595323562622,0.04,0.13,-0.95,0.95
25.10020613670349,-0.32,0.2,-0.82,0.9
25.129764080047607,-0.72,0.33,-0.37,0.87
25.131157159805298,-0.73,0.39,-0.15,0.84
25.132188320159912,-0.51,0.41,-0.28,0.71
25.15147304534912,-0.49,0.54,-0.35,0.8
25.1525239944458,-0.72,0.59,-0.41,1.01
25.167814254760742,-0.94,0.58,-0.42,1.18
25.168848991394043,-1.04,0.51,-0.61,1.3
25.18456721305847,-0.96,0.43,-0.72,1.27
25.186050176620483,-0.68,0.49,-0.78,1.14
25.200098037719727,-0.41,0.56,-0.84,1.08
25.201573133468628,-0.42,0.83,-0.79,1.22
25.247851133346558,-0.74,1.13,-0.78,1.55
25.248979091644287,-1.21,1.26,-0.91,1.96
25.25000810623169,-1.41,1.41,-1.02,2.23
25.26851511001587,-1.53,1.63,-0.78,2.36
25.269575119018555,-1.66,1.91,-0.34,2.55
25.28445529937744,-1.99,1.97,-0.66,2.87
25.28594207763672,-2.27,2.88,-0.65,3.72
25.301525115966797,-2.57,3.33,-1.02,4.32
25.30302119255066,-2.87,3.72,-1.03,4.81
25.317005157470703,-3.22,3.91,-1.08,5.17
25.348026275634766,-3.55,4.03,-1.3,5.52
25.349298000335693,-3.77,4.3,-1.54,5.92
25.350274085998535,-4.27,4.71,-1.89,6.63
25.36826229095459,-5.0,5.44,-2.33,7.74
25.369330167770386,-5.87,6.2,-2.9,9.01
25.384300231933594,-7.06,7.47,-2.99,10.7
25.385289192199707,-8.46,9.23,-3.92,13.11
25.40163516998291,-9.79,10.6,-6.58,15.85
25.403099060058594,-10.4,10.9,-8.56,17.32
25.417538166046143,-10.84,10.36,-9.14,17.56
25.447415113449097,-11.19,9.54,-10.31,17.95
25.44874334335327,-10.92,11.33,-8.78,18.01
25.449734210968018,-8.21,16.15,-5.09,18.81
25.468412160873413,-2.51,17.88,-5.28,18.81
25.46935224533081,1.65,13.15,-6.94,14.96
25.484493255615234,1.66,6.7,-6.89,9.75
25.48555898666382,-2.48,1.52,-6.02,6.68
25.50168514251709,-5.18,-3.09,-4.67,7.62
25.50311517715454,-0.69,1.01,-1.75,2.13
25.51690411567688,5.36,3.24,3.78,7.31
25.548930168151855,2.16,-2.9,-0.01,3.61
25.550273180007935,-4.18,-3.94,-2.84,6.4
25.551268100738525,-8.47,-3.86,-0.94,9.35
25.57095217704773,-11.44,-3.41,-0.52,11.94
25.571986198425293,-13.38,-3.23,-0.45,13.77
25.5842502117157,-12.75,-3.97,0.37,13.35
25.585700035095215,-9.15,-5.56,1.36,10.79
25.60141134262085,-6.1,-7.34,1.49,9.65
25.602861166000366,-5.16,-8.16,1.27,9.73
25.616987228393555,-5.5,-7.83,1.3,9.65
25.646825313568115,-6.07,-6.9,0.83,9.22
25.648229122161865,-6.23,-6.62,0.19,9.09
25.64924430847168,-5.95,-6.75,-0.37,9.0
25.668318271636963,-5.68,-6.74,-0.61,8.83
25.669357299804688,-5.47,-6.9,-0.75,8.83
25.684311151504517,-5.27,-7.05,-1.16,8.87
25.685286045074463,-5.01,-7.24,-1.43,8.91
25.701479196548462,-4.63,-7.31,-1.39,8.76
25.702962160110474,-4.19,-7.29,-0.96,8.46
25.717111110687256,-3.86,-7.53,-0.46,8.47
25.74557399749756,-3.55,-7.79,0.03,8.56
25.74696922302246,-3.42,-7.56,0.64,8.32
25.747992038726807,-3.71,-6.82,1.18,7.85
25.76886224746704,-4.35,-5.57,1.9,7.31
25.769906997680664,-4.51,-3.18,2.9,6.23
25.78462815284729,-3.17,0.0,4.25,5.3
25.78568124771118,-0.41,3.05,5.27,6.1
25.80188798904419,2.7,6.06,5.72,8.75
25.80335521697998,5.69,9.6,5.89,12.61
25.815535068511963,9.15,13.18,4.72,16.72
25.84325933456421,13.6,15.63,3.78,21.06
25.844534158706665,18.06,16.37,3.2,24.58
25.84559202194214,21.48,15.48,2.58,26.6
25.84689426422119,23.57,14.35,1.57,27.63
25.86496114730835,24.12,12.73,1.01,27.29
25.865986108779907,22.79,15.22,1.32,27.43
25.88455104827881,21.68,13.47,-0.4,25.52
25.88559103012085,16.41,1.96,-5.98,17.57
25.900590181350708,2.67,-6.39,-8.62,11.05
25.902149200439453,-11.53,8.47,-10.71,17.87
25.943629264831543,-15.76,32.17,-3.58,36.0
25.944801330566406,-11.74,20.04,4.09,23.58
25.946019172668457,-1.1,-0.84,3.2,3.48
25.947551250457764,8.4,-2.2,5.68,10.37
25.948861122131348,11.34,-6.74,7.62,15.23
25.952760219573975,10.89,-8.12,3.13,13.93
25.962934017181396,7.59,-2.9,0.67,8.15
25.97300910949707,3.46,0.44,0.66,3.54
25.98293924331665,1.0,0.75,-0.79,1.47
25.992691040039062,0.41,0.33,-1.23,1.33
26.00267219543457,1.19,-0.14,-0.71,1.39
26.03233528137207,2.04,-0.23,-0.52,2.11
26.033302307128906,2.06,-0.14,-0.2,2.07
26.034119129180908,1.26,-0.13,0.53,1.37
26.05201005935669,0.49,-0.33,1.07,1.22
26.053064107894897,0.29,-0.38,1.1,1.19
26.068092107772827,0.5,-0.23,0.85,1.01
26.0719633102417,0.76,-0.15,0.69,1.03
26.084806203842163,0.74,-0.26,0.62,0.99
26.091885089874268,0.55,-0.37,0.4,0.77
26.102084159851074,0.47,-0.23,0.18,0.55
26.134769201278687,0.38,0.04,0.07,0.38
26.13610816001892,0.28,0.19,-0.06,0.34
26.137104034423828,0.12,0.18,-0.51,0.55
26.152035236358643,-0.06,0.2,-0.86,0.88
26.15308427810669,-0.38,0.38,-0.71,0.89
26.168628215789795,-0.7,0.44,-0.45,0.94
26.171281337738037,-0.75,0.34,-0.14,0.83
26.18464708328247,-0.48,0.24,-0.19,0.56
26.191686153411865,-0.19,0.13,-0.66,0.69
26.20128631591797,-0.06,0.2,-0.96,0.98
26.233363151550293,-0.48,0.34,-0.84,1.02
26.234715223312378,-1.06,0.52,-0.65,1.34
26.235727310180664,-1.24,0.69,-0.6,1.54
26.252023220062256,-0.98,0.74,-0.34,1.27
26.253103256225586,-0.66,0.65,-0.06,0.92
26.268375158309937,-0.49,0.45,0.05,0.66
26.270491123199463,-0.41,0.32,-0.08,0.52
26.28467321395874,-0.29,0.3,-0.33,0.53
26.290475130081177,-0.25,0.4,-0.37,0.59
26.3007550239563,-0.41,0.46,-0.49,0.78
26.331829071044922,-0.64,0.69,-0.65,1.14
26.33318018913269,-0.89,0.99,-0.72,1.51
26.334123134613037,-1.19,1.24,-0.77,1.88
26.35212230682373,-1.57,1.43,-0.79,2.26
26.353193283081055,-2.04,1.69,-0.47,2.69
26.368357181549072,-2.24,1.89,-0.44,2.96
26.369596004486084,-2.44,2.38,-0.82,3.5
26.38443112373352,-2.5,3.21,-1.1,4.21
26.389881134033203,-2.65,3.79,-1.29,4.8
26.400701999664307,-2.81,4.12,-1.49,5.2
26.437777042388916,-3.02,4.18,-1.58,5.39
26.439170122146606,-3.3,4.32,-1.54,5.65
26.4400691986084,-3.77,4.67,-1.82,6.27
26.440904140472412,-4.47,5.48,-2.09,7.37
26.44945526123047,-5.56,6.77,-2.61,9.14
26.459322214126587,-7.52,8.45,-3.51,11.84
26.46922731399536,-9.33,10.82,-3.81,14.78
26.479079246520996,-10.54,12.27,-5.58,17.11
26.48980712890625,-11.15,11.88,-7.29,17.84
26.499958992004395,-11.78,11.18,-8.15,18.17
26.53574514389038,-12.98,10.65,-9.22,19.15
26.536930084228516,-12.79,14.27,-6.33,20.18
26.53804922103882,-8.22,17.8,-3.48,19.91
26.553779125213623,-0.96,15.57,-6.51,16.9
26.554813146591187,3.44,10.52,-5.76,12.47
26.567963123321533,2.19,2.65,-4.85,5.94
26.56903600692749,-3.06,-2.03,-4.44,5.76
26.585247039794922,-4.73,-4.9,-4.87,8.37
26.58833599090576,1.79,-0.23,-2.15,2.8
26.600096225738525,8.0,1.38,4.19,9.13
26.636999130249023,4.21,-3.31,-0.48,5.37
26.638297080993652,-2.54,-4.32,-3.01,5.84
26.639297008514404,-6.71,-4.56,-1.43,8.23
26.652748107910156,-9.88,-4.17,-1.99,10.9
26.65379810333252,-12.24,-4.03,-2.79,13.18
26.668373107910156,-13.01,-4.44,-2.16,13.91
26.669405221939087,-10.84,-4.98,-0.08,11.92
26.685057163238525,-7.7,-6.13,1.32,9.93
26.68726110458374,-6.05,-7.53,1.79,9.82
26.70089316368103,-5.81,-8.39,1.54,10.32
26.73605728149414,-6.61,-7.77,1.24,10.27
26.737399101257324,-6.78,-7.34,0.13,9.99
26.738417148590088,-6.35,-6.94,-0.91,9.45
26.752636194229126,-5.99,-6.6,-1.64,9.06
26.753639221191406,-5.68,-6.39,-2.08,8.79
26.76849913597107,-5.18,-6.28,-2.25,8.44
26.769484996795654,-4.57,-6.38,-2.31,8.18
26.785158157348633,-4.06,-6.75,-2.33,8.21
26.786863327026367,-3.74,-7.25,-2.23,8.45
26.80103302001953,-3.37,-7.43,-2.11,8.42
26.80680799484253,-2.84,-7.09,-1.73,7.83
26.847310066223145,-2.1,-6.57,-1.34,7.02
26.84850025177002,-1.15,-6.07,-0.83,6.23
26.849499225616455,-0.15,-5.09,-0.47,5.11
26.869079113006592,1.15,-3.37,-0.58,3.6
26.870118141174316,3.2,-1.34,-0.03,3.46
26.884719133377075,6.17,1.12,1.5,6.44
26.885723114013672,9.12,3.83,3.12,10.37
26.902108192443848,11.79,6.6,4.65,14.28
26.90356731414795,13.6,9.74,5.51,17.61
26.917530059814453,14.97,12.19,5.76,20.14
26.94695520401001,16.38,11.87,5.34,20.92
26.948358058929443,17.14,10.94,5.29,21.01
26.94937014579773,17.54,10.96,5.35,21.36
26.969247341156006,16.27,13.97,3.4,21.71
26.97030019760132,15.24,18.25,2.3,23.88
26.985042095184326,15.92,14.38,-3.54,21.74
26.986093044281006,6.27,7.11,-10.32,14.01
27.002503156661987,-5.96,20.56,-6.62,22.4
27.004033088684082,-10.0,29.08,0.3,30.75
27.01760220527649,-7.99,5.0,-0.75,9.45
27.046992301940918,-2.2,-5.66,1.13,6.17
27.04835319519043,5.04,-5.82,5.61,9.52
27.0493803024292,10.12,-7.52,7.29,14.56
27.069079160690308,11.65,-6.22,3.16,13.57
27.070150136947632,9.8,-0.97,-0.42,9.85
27.085153102874756,4.21,1.44,2.07,4.9
27.086185216903687,-0.5,-0.13,1.95,2.01
27.101967334747314,-2.16,-0.86,1.35,2.68
27.1029851436615,-0.81,0.07,1.4,1.61
27.117897033691406,1.45,0.51,1.08,1.87
27.14596915245056,2.07,0.05,0.81,2.22
27.14715313911438,1.27,-0.4,0.37,1.38
27.147943019866943,0.65,-0.59,-0.08,0.88
27.169438123703003,0.9,-0.33,-0.12,0.96
27.17045021057129,1.42,-0.29,-0.43,1.51
27.185113191604614,1.52,-0.47,-0.57,1.69
27.186126232147217,1.19,-0.25,-0.54,1.33
27.202092170715332,0.8,0.11,-0.58,0.99
27.203144073486328,0.57,0.35,-0.34,0.75
27.217833042144775,0.63,0.25,0.26,0.72
27.246803283691406,0.59,-0.18,0.66,0.9
27.248095989227295,0.46,-0.34,0.98,1.13
27.2489070892334,0.3,-0.28,0.89,0.98
27.269228219985962,0.29,-0.18,0.23,0.41
27.27026128768921,0.33,-0.05,-0.31,0.45
27.28494620323181,0.4,-0.03,-0.38,0.55
27.286004066467285,0.53,-0.2,-0.24,0.61
27.30199432373047,0.57,-0.41,-0.17,0.72
27.303001165390015,0.36,-0.32,-0.16,0.5
27.317994117736816,0.02,-0.06,-0.31,0.31
27.34785509109497,-0.29,0.3,-0.39,0.57
27.348989009857178,-0.49,0.59,-0.19,0.79
27.349780082702637,-0.6,0.57,-0.04,0.82
27.36907720565796,-0.57,0.46,0.06,0.73
27.37007212638855,-0.49,0.4,0.1,0.64
27.3852801322937,-0.54,0.35,-0.09,0.64
27.386208057403564,-0.69,0.38,-0.27,0.83
27.40252113342285,-0.95,0.52,-0.57,1.22
27.40398931503296,-1.27,0.73,-0.76,1.65
27.417819023132324,-1.32,0.86,-1.01,1.87
27.44726014137268,-1.43,1.05,-0.69,1.9
27.44897699356079,-1.89,1.27,-0.46,2.32
27.450008153915405,-2.31,1.36,-0.86,2.81
27.469189167022705,-2.4,1.52,-1.04,3.02
27.470237255096436,-2.23,1.59,-0.98,2.9
27.484971046447754,-1.84,1.48,-1.05,2.58
27.486001014709473,-1.34,1.42,-1.56,2.49
27.502288341522217,-1.26,1.76,-1.58,2.67
27.503727197647095,-1.31,2.62,-0.9,3.06
27.517871141433716,-1.56,2.97,-0.87,3.46
27.547343254089355,-2.34,3.53,-1.09,4.37
27.548681259155273,-2.68,3.98,-1.19,4.94
27.549495220184326,-2.99,4.23,-1.2,5.31
27.569271087646484,-3.42,4.36,-1.43,5.72
27.570378303527832,-3.93,4.64,-1.93,6.37
27.585357189178467,-4.43,5.46,-2.21,7.37
27.586384296417236,-5.39,6.53,-2.44,8.81
27.60203719139099,-6.99,8.56,-2.08,11.24
27.603402137756348,-8.87,10.6,-3.91,14.36
27.615516185760498,-10.46,11.18,-6.35,16.57
27.61704921722412,-11.48,11.59,-6.77,17.66
27.662899017333984,-11.86,10.81,-8.07,17.96
27.6640362739563,-12.01,9.46,-8.61,17.54
27.664992332458496,-11.3,11.22,-6.11,17.05
27.686410188674927,-7.59,13.94,-3.98,16.36
27.687464237213135,-1.57,12.36,-6.07,13.85
27.702218055725098,3.51,10.93,-4.94,12.49
27.703251123428345,3.27,6.07,-4.0,7.97
27.71930718421936,-2.29,0.36,-5.12,5.62
27.7207932472229,-5.77,-3.89,-5.85,9.09
27.734771251678467,-2.58,-3.74,-6.36,7.81
27.765034198760986,4.81,0.48,-0.85,4.9
27.766300201416016,3.95,-3.34,-1.17,5.3
27.76731300354004,-2.61,-4.93,-4.63,7.24
27.786028146743774,-6.76,-5.2,-2.84,8.98
27.78709316253662,-9.59,-4.71,-2.85,11.05
27.802170276641846,-11.95,-4.16,-3.73,13.19
27.803202152252197,-12.83,-3.95,-3.39,13.84
27.819204330444336,-11.07,-3.93,-1.65,11.86
27.820621013641357,-8.51,-4.81,-0.13,9.77
27.834893226623535,-7.06,-5.97,0.69,9.27
27.864620208740234,-6.62,-6.61,0.95,9.4
27.865906238555908,-6.51,-6.23,0.69,9.03
27.866916179656982,-6.1,-5.33,-0.12,8.1
27.885929107666016,-5.28,-4.67,-1.17,7.14
27.88696527481079,-4.36,-4.32,-2.04,6.46
27.90217399597168,-3.55,-4.06,-2.9,6.12
27.903213024139404,-3.12,-3.74,-3.54,6.02
27.918983221054077,-3.03,-3.28,-3.99,5.98
27.91998815536499,-3.07,-2.89,-3.94,5.77
27.934584140777588,-2.8,-2.55,-3.54,5.18
27.963847160339355,-1.88,-2.26,-3.34,4.44
27.965615272521973,-0.28,-2.34,-3.45,4.17
27.966443061828613,1.49,-2.7,-3.18,4.42
27.98574733734131,2.94,-3.04,-2.35,4.83
27.986791133880615,3.89,-3.05,-1.11,5.06
28.002320289611816,4.62,-2.66,0.16,5.33
28.003323078155518,5.32,-1.94,1.55,5.87
28.019212245941162,5.99,-1.0,3.11,6.82
28.02068328857422,6.69,0.17,4.16,7.87
28.034837245941162,7.44,1.71,5.02,9.13
28.064513206481934,8.45,3.57,5.96,10.93
28.065845012664795,10.21,5.18,6.88,13.35
28.06664800643921,12.24,6.12,7.21,15.46
28.085905075073242,13.79,6.83,7.06,16.93
28.08691120147705,15.19,7.37,7.2,18.35
28.102410316467285,16.5,7.06,6.55,19.1
28.103439331054688,18.03,6.8,7.23,20.58
28.118868112564087,18.55,6.15,6.69,20.65
28.1199049949646,16.14,9.25,3.84,18.99
28.13478422164917,13.46,10.08,-0.93,16.84
28.16385507583618,5.89,0.24,-12.08,13.44
28.165197134017944,-7.28,14.25,-16.38,22.89
28.166012287139893,-14.28,43.06,-6.53,45.83
28.1861732006073,-8.65,31.8,3.36,33.12
28.187246322631836,2.94,2.57,0.74,3.97
28.20256519317627,5.76,-10.14,3.44,12.15
28.203615188598633,5.64,-15.22,7.49,17.87
28.2189621925354,6.99,-12.43,5.78,15.38
28.21998119354248,8.15,-6.5,5.75,11.9
28.23485016822815,5.62,-1.11,2.29,6.16
28.26444721221924,1.61,2.63,-0.15,3.08
28.26569414138794,-1.24,1.48,-0.07,1.93
28.266534328460693,-1.43,-0.46,0.78,1.69
28.286128997802734,0.77,-0.6,0.69,1.19
28.287121295928955,2.16,0.41,0.01,2.19
28.302699089050293,1.86,1.05,-0.81,2.28
28.303717136383057,1.05,0.63,-0.82,1.47
28.319571018218994,0.85,-0.04,-0.64,1.06
28.32105016708374,1.1,-0.8,-0.22,1.37
28.334941148757935,1.28,-0.97,0.25,1.62
28.364577293395996,1.13,-0.78,0.48,1.45
28.365759134292603,0.86,-0.35,0.13,0.93
28.366610050201416,0.8,0.16,-0.21,0.84
28.386014223098755,0.69,0.36,0.0,0.77
28.38704514503479,0.57,0.18,0.7,0.92
28.401838302612305,0.52,-0.39,0.93,1.13
28.402904987335205,0.59,-0.67,0.9,1.26
28.419366121292114,0.6,-0.55,0.22,0.84
28.42035722732544,0.47,-0.08,-0.47,0.66
28.43501901626587,0.38,0.24,-0.63,0.77
28.436463117599487,0.32,0.2,-0.42,0.56
28.481728076934814,0.17,0.06,-0.28,0.33
28.48284912109375,-0.11,0.03,-0.35,0.36
28.483832120895386,-0.46,0.19,-0.37,0.62
28.503221035003662,-0.66,0.41,-0.46,0.9
28.504257202148438,-0.72,0.55,-0.59,1.08
28.520366191864014,-0.92,0.7,-0.45,1.24
28.52184820175171,-1.04,0.78,-0.33,1.34
28.536497116088867,-0.97,0.75,-0.37,1.28
28.5379741191864,-0.83,0.63,-0.6,1.2
28.551609992980957,-0.74,0.59,-0.56,1.09
28.583739280700684,-0.82,0.54,-0.35,1.04
28.584983110427856,-0.84,0.49,-0.34,1.03
28.585999011993408,-0.73,0.47,-0.55,1.02
28.603426218032837,-0.64,0.54,-1.02,1.31
28.604438304901123,-0.53,0.74,-1.31,1.59
28.619798183441162,-0.71,0.94,-1.37,1.8
28.620840072631836,-1.2,1.14,-1.21,2.05
28.635735034942627,-1.81,1.6,-0.79,2.54
28.63704013824463,-2.51,2.23,-0.58,3.4
28.651506185531616,-2.82,2.73,-1.22,4.11
28.682958126068115,-2.46,3.22,-1.8,4.43
28.684274196624756,-2.14,3.78,-1.66,4.65
28.685291290283203,-2.28,3.74,-1.56,4.64
28.7035391330719,-2.91,3.9,-1.51,5.09
28.704573154449463,-3.56,4.3,-1.78,5.85
28.71920418739319,-4.07,4.94,-2.08,6.73
28.720266342163086,-4.66,5.86,-2.57,7.91
28.73337411880493,-5.35,7.06,-3.16,9.4
28.73474407196045,-6.34,8.76,-4.06,11.55
28.750893115997314,-7.73,10.75,-5.8,14.45
28.779752254486084,-9.11,12.21,-7.56,17.0
28.781081199645996,-9.87,12.37,-8.83,18.12
28.78184413909912,-9.87,11.35,-9.77,17.93
28.803210258483887,-9.6,9.55,-11.35,17.66
28.804258108139038,-9.21,8.13,-12.0,17.17
28.819363117218018,-8.06,10.72,-8.2,15.72
28.820374011993408,-4.81,15.23,-2.79,16.21
28.836204051971436,-0.1,14.32,-3.47,14.73
28.837278127670288,2.04,7.44,-7.47,10.73
28.85188627243042,-0.02,1.41,-7.99,8.11
28.880945205688477,-3.99,-3.44,-5.31,7.47
28.882228136062622,-3.42,-3.75,-2.11,5.49
28.88305425643921,3.26,0.6,5.55,6.46
28.903258323669434,3.61,-4.1,3.27,6.36
28.90429401397705,-2.4,-6.26,-2.32,7.09
28.919331073760986,-7.34,-5.99,-1.58,9.6
28.9203941822052,-10.46,-4.81,-0.81,11.54
28.93610429763794,-12.8,-4.06,-1.48,13.5
28.937090158462524,-13.29,-3.7,-1.2,13.84
28.951019287109375,-10.37,-4.24,-0.29,11.2
28.979186058044434,-6.36,-5.56,0.08,8.44
28.980369091033936,-4.34,-6.56,0.27,7.87
28.98115611076355,-4.29,-7.04,0.72,8.27
28.983591079711914,-4.9,-6.84,0.92,8.46
28.98574209213257,-4.98,-6.69,0.45,8.35
28.986972332000732,-4.7,-6.55,-0.2,8.06
28.988258123397827,-4.53,-6.19,-0.76,7.7
28.98974609375,-4.48,-5.84,-1.12,7.44
28.999895095825195,-4.38,-5.77,-1.5,7.39
29.00977611541748,-4.15,-5.93,-1.79,7.45
29.04062819480896,-3.88,-6.08,-1.78,7.42
29.041701316833496,-3.62,-5.91,-1.57,7.1
29.042436122894287,-3.42,-5.65,-1.32,6.73
29.051627159118652,-3.31,-5.2,-1.08,6.25
29.059587001800537,-2.86,-4.41,-0.71,5.3
29.06930923461914,-1.67,-3.95,-0.58,4.32
29.079406261444092,-0.25,-3.47,0.01,3.47
29.089543342590332,0.84,-2.72,0.99,3.01
29.099433183670044,1.2,-1.87,1.83,2.87
29.109012126922607,1.29,-0.05,3.02,3.28
29.144216060638428,2.34,2.73,4.28,5.58
29.145267009735107,4.65,5.25,4.89,8.54
29.146038055419922,7.33,7.59,4.89,11.62
29.149060249328613,9.73,9.34,4.92,14.35
29.169450283050537,11.36,9.95,5.76,16.16
29.17051124572754,12.37,9.72,6.51,17.02
29.18604326248169,13.5,8.84,6.7,17.47
29.188416004180908,14.36,8.13,5.81,17.49
29.20177412033081,14.44,8.26,5.22,17.43
29.208415031433105,14.69,8.42,4.41,17.49
29.21852731704712,14.78,7.04,3.63,16.76
29.252068996429443,14.09,6.99,2.83,15.98
29.253392219543457,12.87,10.88,0.94,16.87
29.254403114318848,10.32,5.87,-2.57,12.14
29.27030920982361,1.37,-5.17,-9.65,11.03
29.271392107009888,-10.42,2.97,-12.49,16.53
29.286131143569946,-14.54,32.49,-4.78,35.91
29.2874813079834,-9.9,28.94,5.61,31.09
29.301494121551514,-0.64,3.01,5.14,5.99
29.307679176330566,7.76,-4.17,3.18,9.36
29.317710161209106,10.73,-9.42,5.26,15.21
29.351033210754395,9.48,-9.33,2.88,13.6
29.35238218307495,5.33,-3.7,3.39,7.32
29.353360176086426,1.86,-0.09,2.84,3.39
29.37048101425171,0.08,1.17,-0.73,1.38
29.371512174606323,0.09,0.67,-2.18,2.28
29.386198043823242,1.45,-0.33,-1.41,2.04
29.387234210968018,2.7,-0.76,0.3,2.82
29.402862071990967,2.43,-0.67,1.48,2.92
29.40708827972412,1.24,-0.14,0.44,1.32
29.4186372756958,0.29,0.64,0.11,0.71
29.45046901702881,0.2,0.78,0.43,0.91
29.451778173446655,0.77,-0.1,0.5,0.92
29.45279622077942,1.05,-0.74,0.48,1.37
29.47046709060669,0.87,-0.6,0.34,1.11
29.471517086029053,0.81,-0.29,0.25,0.89
29.485910177230835,1.03,-0.15,-0.05,1.04
29.486926078796387,1.13,-0.11,-0.23,1.15
