time,ax,ay,az,atotal
0.009092092514038086,0.33,-0.11,-0.23,0.41
0.019102096557617188,0.77,0.02,-0.64,1.0
0.028645992279052734,0.5,-0.12,-0.38,0.63
0.055171966552734375,0.0,0.01,-0.02,0.02
0.05649399757385254,-0.14,0.03,0.07,0.15
0.058039188385009766,0.0,0.01,-0.07,0.07
0.07656621932983398,-0.01,0.02,-0.07,0.07
0.07802605628967285,-0.11,0.02,0.0,0.11
0.0938260555267334,-0.16,0.03,0.06,0.17
0.09809207916259766,-0.04,0.03,0.18,0.18
0.10977315902709961,0.08,-0.03,0.3,0.31
0.11811709403991699,0.14,-0.05,0.16,0.21
0.1278820037841797,0.19,-0.03,0.05,0.19
0.15869617462158203,0.11,-0.01,0.03,0.11
0.1601419448852539,0.04,0.0,0.07,0.08
0.16121721267700195,-0.03,0.03,0.11,0.11
0.17763805389404297,-0.08,0.03,0.19,0.2
0.1789999008178711,-0.09,0.02,0.19,0.21
0.19401311874389648,-0.06,0.02,0.13,0.14
0.19741296768188477,-0.01,0.03,0.08,0.08
0.21023893356323242,0.06,0.03,-0.02,0.06
0.21720600128173828,0.08,0.03,-0.08,0.11
0.22816801071166992,0.09,0.03,-0.08,0.12
0.2579789161682129,0.1,0.02,-0.03,0.1
0.2592480182647705,0.17,0.0,0.06,0.18
0.26025915145874023,0.21,-0.03,0.14,0.25
0.27686595916748047,0.18,-0.03,0.15,0.23
0.27822208404541016,0.09,0.0,0.14,0.16
0.2939760684967041,-0.04,-0.01,0.09,0.09
0.29654502868652344,-0.06,0.0,0.09,0.1
0.31054210662841797,0.02,0.03,0.1,0.1
0.31649017333984375,0.08,0.04,0.08,0.12
0.32669901847839355,0.08,-0.03,0.05,0.09
0.3671410083770752,0.07,-0.03,0.06,0.09
0.3682210445404053,0.03,-0.01,0.04,0.05
0.36925220489501953,-0.04,0.0,-0.01,0.04
0.37349700927734375,-0.1,0.03,-0.04,0.11
0.393726110458374,-0.13,0.04,-0.04,0.14
0.3951249122619629,-0.18,0.01,0.02,0.18
0.4108729362487793,-0.23,0.04,0.07,0.24
0.412384033203125,-0.25,0.06,0.1,0.27
0.4262981414794922,-0.22,0.05,0.04,0.22
0.4278101921081543,-0.19,0.07,-0.02,0.2
0.466306209564209,-0.18,0.07,0.0,0.19
0.4674339294433594,-0.12,0.02,0.02,0.12
0.4686460494995117,-0.06,-0.01,-0.01,0.06
0.4739971160888672,0.01,0.01,-0.02,0.02
0.47501516342163086,0.05,-0.02,0.0,0.05
0.49405407905578613,0.04,0.01,0.0,0.04
0.49545812606811523,0.19,0.02,0.09,0.21
0.5107312202453613,0.31,-0.04,0.16,0.35
0.5149111747741699,0.16,-0.06,0.17,0.24
0.5261480808258057,-0.02,-0.02,0.13,0.13
0.5580430030822754,0.01,0.02,0.11,0.11
0.5593290328979492,0.09,0.01,0.1,0.13
0.5603351593017578,0.08,-0.01,0.09,0.12
0.579704999923706,0.03,0.02,0.07,0.07
0.5811450481414795,0.03,0.03,0.1,0.1
0.5935530662536621,0.03,0.0,0.11,0.11
0.5949480533599854,-0.04,0.01,0.08,0.09
0.6106240749359131,-0.13,0.05,0.08,0.16
0.6142680644989014,-0.18,0.03,0.07,0.19
0.6254091262817383,-0.17,0.02,-0.01,0.17
0.6622419357299805,-0.2,0.1,-0.05,0.22
0.6639950275421143,-0.22,0.13,0.04,0.25
0.6650700569152832,-0.18,0.07,0.12,0.22
0.6789200305938721,-0.21,-0.01,0.09,0.22
0.6802201271057129,-0.2,0.01,-0.04,0.2
0.6942839622497559,-0.11,0.04,-0.23,0.25
0.6957080364227295,-0.02,0.13,-0.31,0.33
0.7112221717834473,-0.12,0.16,-0.16,0.25
0.7135229110717773,-0.35,0.1,-0.12,0.38
0.7263541221618652,-0.28,0.01,-0.08,0.29
0.7336149215698242,0.03,-0.1,0.01,0.1
0.7710840702056885,0.16,-0.14,0.14,0.25
0.7727510929107666,0.17,-0.03,0.27,0.32
0.7738790512084961,0.29,-0.04,0.21,0.36
0.7753701210021973,0.5,-0.15,-0.06,0.52
0.7829010486602783,0.63,-0.1,-0.14,0.65
0.7931718826293945,0.47,-0.04,-0.08,0.47
0.8029990196228027,0.25,-0.04,0.13,0.28
0.8129739761352539,0.16,-0.05,0.28,0.32
0.8228311538696289,0.03,-0.01,0.17,0.17
0.8327112197875977,-0.09,0.09,0.02,0.12
0.8595690727233887,-0.11,0.09,-0.06,0.15
0.8608050346374512,-0.09,0.05,-0.17,0.19
0.8621060848236084,0.0,0.05,-0.35,0.35
0.8779940605163574,0.09,0.09,-0.42,0.43
0.8823041915893555,0.03,0.07,-0.38,0.38
0.8942141532897949,-0.07,0.04,-0.33,0.33
0.9021291732788086,-0.17,0.08,-0.2,0.27
0.9119548797607422,-0.31,0.11,-0.25,0.41
0.9219710826873779,-0.33,0.11,-0.41,0.53
0.9318270683288574,-0.31,0.16,-0.41,0.53
0.9592080116271973,-0.23,0.1,-0.38,0.45
0.9605488777160645,-0.18,0.13,-0.23,0.31
0.9615640640258789,-0.16,0.22,-0.2,0.33
0.9782660007476807,-0.14,0.23,-0.3,0.4
0.9814960956573486,-0.18,0.24,-0.4,0.5
0.9940240383148193,-0.06,0.22,-0.74,0.77
1.0015590190887451,0.09,0.34,-0.77,0.84
1.0113260746002197,0.1,0.45,-0.62,0.77
1.0217390060424805,0.38,0.11,-0.6,0.71
1.0335750579833984,1.35,-0.69,-0.8,1.71
1.061056137084961,2.21,-1.4,-1.88,3.22
1.0627532005310059,2.96,-1.26,-3.5,4.75
1.063788890838623,2.9,-0.49,-4.64,5.49
1.0782470703125,2.34,-0.39,-4.84,5.39
1.0807180404663086,1.72,-0.73,-4.26,4.65
1.09318208694458,1.35,-0.91,-3.45,3.81
1.1005730628967285,1.11,-1.25,-2.72,3.19
1.1104180812835693,0.63,-1.31,-2.1,2.55
1.1205010414123535,-0.12,-0.87,-1.28,1.55
1.1302242279052734,-0.83,-0.58,-0.21,1.03
1.1655092239379883,-1.38,-0.52,0.85,1.7
1.167017936706543,-1.84,-0.37,1.74,2.55
1.1680800914764404,-1.97,-0.13,2.2,2.95
1.1780290603637695,-1.89,0.3,2.37,3.04
1.179987907409668,-2.12,0.58,2.12,3.05
1.193587064743042,-2.46,0.79,1.69,3.08
1.2000188827514648,-2.56,1.04,1.55,3.16
1.210984230041504,-1.89,0.81,1.31,2.43
1.219883918762207,-0.82,0.24,0.57,1.02
1.229806900024414,-0.53,0.14,0.01,0.54
1.264389991760254,-0.93,0.15,-0.11,0.94
1.2662649154663086,-1.31,0.18,0.25,1.34
1.2677268981933594,-1.4,0.32,0.86,1.67
1.27866792678833,-1.19,-0.04,1.12,1.63
1.2801690101623535,-1.02,-0.46,1.37,1.76
1.29439115524292,-1.03,-0.59,1.76,2.12
1.2992010116577148,-0.85,-0.63,2.51,2.72
1.3112010955810547,-0.62,-0.36,3.27,3.34
1.3189020156860352,-1.65,1.8,3.73,4.45
1.3295230865478516,-2.44,2.68,2.73,4.53
1.367466926574707,-3.32,2.37,0.44,4.1
1.3694171905517578,-3.07,1.96,-1.31,3.87
1.3708550930023193,-1.69,0.97,-1.92,2.73
1.3740301132202148,-0.14,0.2,-1.38,1.4
1.3782830238342285,0.78,-0.04,-0.32,0.84
1.3946850299835205,1.36,0.06,0.5,1.45
1.3983170986175537,1.29,-0.06,0.73,1.48
1.4087910652160645,0.77,-0.32,0.54,0.99
1.4181129932403564,0.23,-0.16,0.07,0.28
1.428035020828247,-0.27,-0.08,-0.12,0.3
1.461319923400879,-0.39,0.0,-0.04,0.39
1.4630842208862305,-0.18,0.16,0.11,0.26
1.4645280838012695,0.08,0.15,0.45,0.48
1.4786961078643799,0.26,-0.03,0.49,0.55
1.4801831245422363,0.17,0.01,-0.03,0.17
1.4945311546325684,0.0,0.12,-0.48,0.49
1.497596025466919,-0.02,0.06,-0.24,0.24
1.5097630023956299,0.22,0.12,0.28,0.37
1.5174109935760498,0.59,0.25,0.61,0.88
1.527839183807373,0.82,0.21,0.71,1.1
1.5407099723815918,0.8,-0.07,0.57,0.98
1.569183111190796,0.68,-0.13,0.49,0.84
1.5703530311584473,0.37,-0.07,0.44,0.57
1.5716140270233154,0.0,-0.09,0.36,0.37
1.576803207397461,-0.23,-0.01,0.37,0.43
1.5948150157928467,-0.21,0.04,0.24,0.32
1.5967731475830078,-0.04,-0.07,-0.13,0.15
1.6109471321105957,0.05,-0.1,-0.52,0.53
1.6168360710144043,-0.04,0.0,-0.68,0.68
1.6266870498657227,-0.17,0.04,-0.76,0.77
1.637080192565918,-0.26,0.08,-0.71,0.76
1.6669800281524658,-0.56,0.15,-0.65,0.87
1.6681408882141113,-0.87,0.1,-0.5,1.0
1.6693449020385742,-1.02,-0.05,-0.44,1.11
1.6787850856781006,-0.88,-0.05,-0.64,1.08
1.6864490509033203,-0.51,0.08,-0.84,0.98
1.6962342262268066,-0.16,0.18,-0.73,0.76
1.7061851024627686,-0.06,0.18,-0.45,0.48
1.7160100936889648,-0.37,0.09,-0.22,0.43
1.726095199584961,-0.75,0.13,-0.21,0.78
1.735888957977295,-0.79,0.0,0.0,0.79
1.7667179107666016,-0.63,-0.11,0.12,0.65
1.7681541442871094,-0.49,-0.04,0.22,0.53
1.7691822052001953,-0.23,-0.02,0.26,0.34
1.7784130573272705,0.02,-0.05,0.13,0.14
1.785703182220459,0.47,-0.14,0.06,0.49
1.7953810691833496,0.99,-0.16,0.14,1.01
1.805293083190918,1.12,0.0,0.27,1.15
1.815359115600586,0.78,0.07,0.37,0.86
1.825310230255127,0.34,0.02,0.37,0.5
1.8352699279785156,0.1,0.05,0.23,0.25
1.8673300743103027,0.06,0.06,0.12,0.14
1.8688220977783203,-0.03,0.09,0.05,0.1
1.8698949813842773,-0.36,0.21,0.03,0.41
1.876215934753418,-0.84,0.44,0.04,0.94
1.8948791027069092,-1.17,0.4,-0.22,1.25
1.89638090133667,-1.36,0.49,-0.66,1.58
1.9114410877227783,-1.3,0.66,-1.22,1.9
1.9145030975341797,-0.9,0.69,-1.61,1.96
1.9249591827392578,-0.29,0.55,-1.39,1.52
1.934403896331787,0.0,0.31,-1.09,1.13
1.9743351936340332,-0.18,0.38,-0.87,0.96
1.9755690097808838,-0.64,0.67,-0.86,1.26
1.976572036743164,-1.0,1.09,-0.76,1.66
1.9951519966125488,-1.02,1.25,-0.62,1.72
1.9966158866882324,-1.1,1.02,-1.06,1.83
2.011406898498535,-1.13,0.89,-1.51,2.08
2.0128579139709473,-1.19,0.89,-1.52,2.12
2.0283310413360596,-1.41,0.98,-1.44,2.24
2.0298008918762207,-1.8,1.26,-0.91,2.37
2.043997049331665,-2.38,2.0,-0.58,3.16
2.071235179901123,-3.17,2.97,-0.72,4.4
2.072604179382324,-3.92,4.29,-1.21,5.93
2.0735950469970703,-3.06,3.91,-1.05,5.07
2.075989007949829,-2.26,3.34,0.03,4.03
2.083048105239868,-2.91,3.36,-0.68,4.49
2.093319892883301,-3.61,3.36,-1.14,5.06
2.1033191680908203,-3.84,3.28,-1.64,5.3
2.1132102012634277,-3.73,3.31,-2.08,5.4
2.1230430603027344,-3.73,3.48,-2.48,5.67
2.1329450607299805,-4.07,3.68,-3.25,6.37
2.1690940856933594,-4.33,3.64,-3.67,6.74
2.1706318855285645,-4.43,3.51,-3.48,6.63
2.1715919971466064,-4.46,3.42,-3.67,6.71
2.17401123046875,-4.64,3.63,-4.06,7.15
2.1948699951171875,-4.44,4.15,-4.05,7.3
2.1963391304016113,-3.87,4.6,-4.77,7.67
2.211527109146118,-3.56,4.71,-5.94,8.37
2.2130420207977295,-3.74,5.38,-6.37,9.13
2.226655960083008,-2.26,6.59,-4.75,8.43
2.2320351600646973,2.25,9.18,-1.25,9.53
2.2695400714874268,4.03,8.33,-0.69,9.27
2.270745038986206,1.31,3.67,-3.08,4.96
2.27201509475708,-1.61,1.37,-4.71,5.16
2.2744479179382324,-4.21,-0.74,-4.84,6.45
2.295074939727783,-6.04,-3.86,-4.6,8.51
2.2965590953826904,-5.23,-6.54,-4.44,9.47
2.311534881591797,-1.92,-4.93,-2.66,5.92
2.3130311965942383,-4.98,-5.06,-3.19,7.78
2.3271842002868652,-8.73,-5.05,-4.13,10.89
2.3312840461730957,-10.81,-4.28,-3.88,12.25
2.3435301780700684,-10.48,-4.51,-2.42,11.66
2.3693320751190186,-9.09,-5.1,-0.88,10.46
2.3706090450286865,-8.29,-5.48,0.08,9.93
2.371645927429199,-8.08,-5.55,0.34,9.8
2.3809609413146973,-7.87,-5.12,0.51,9.4
2.3949739933013916,-7.44,-4.14,1.08,8.58
2.4010839462280273,-6.76,-3.49,1.58,7.77
2.411530017852783,-5.98,-3.09,1.59,6.91
2.4206271171569824,-5.28,-2.39,1.12,5.9
2.43068790435791,-4.66,-1.27,0.79,4.89
2.440742015838623,-4.07,-0.03,0.62,4.11
2.469902992248535,-2.9,0.6,0.5,3.0
2.4715399742126465,-1.1,1.16,0.72,1.75
2.473114013671875,0.74,1.66,0.74,1.96
2.480052947998047,1.87,2.08,0.38,2.82
2.490307092666626,2.24,3.11,0.25,3.84
2.5002598762512207,2.85,4.56,0.52,5.4
2.5101680755615234,4.14,5.52,0.97,6.96
2.520048141479492,5.86,5.56,1.3,8.18
2.529911994934082,7.36,5.1,1.23,9.03
2.5401790142059326,8.3,4.9,0.86,9.67
2.5696780681610107,8.5,5.91,0.31,10.35
2.5709919929504395,6.97,11.92,-0.42,13.81
2.57226300239563,12.25,10.4,-1.5,16.13
2.579380989074707,19.24,6.73,1.16,20.41
2.5955190658569336,19.06,2.94,3.9,19.67
2.5994338989257812,15.22,2.13,4.26,15.94
2.6100149154663086,12.27,1.94,4.95,13.37
2.6193439960479736,11.25,1.3,5.49,12.58
2.629088878631592,11.11,0.21,5.15,12.24
2.639080047607422,11.26,-0.76,4.01,11.97
2.6702489852905273,9.66,-2.39,1.33,10.03
2.6714439392089844,3.67,-3.52,-3.27,6.04
2.6726841926574707,-3.59,3.03,-3.55,5.88
2.678452968597412,-4.09,12.52,1.82,13.29
2.688319206237793,2.33,8.6,4.17,9.83
2.6989030838012695,4.46,-2.05,1.09,5.02
2.7087950706481934,3.37,-3.46,0.72,4.88
2.718657970428467,1.79,-1.87,2.11,3.33
2.728456974029541,0.98,-0.35,2.51,2.71
2.7383241653442383,1.0,0.11,2.04,2.27
2.773231029510498,0.86,0.01,1.72,1.92
2.7747130393981934,1.07,-0.33,1.63,1.97
2.7757320404052734,1.49,-0.39,1.27,1.99
2.7955451011657715,1.77,-0.17,0.87,1.97
2.7970619201660156,2.08,-0.1,0.5,2.14
2.8116700649261475,2.05,-0.1,0.37,2.08
2.8130569458007812,1.56,0.08,0.57,1.66
2.8284480571746826,0.61,0.19,0.7,0.94
2.8299121856689453,-0.28,0.01,0.71,0.76
2.8475232124328613,-0.23,0.02,0.7,0.73
2.8743691444396973,0.08,0.09,0.52,0.53
2.875648021697998,0.2,0.12,0.29,0.37
2.8766860961914062,0.0,0.19,-0.26,0.32
2.8955459594726562,-0.31,0.14,-1.03,1.08
2.896998882293701,-0.41,0.18,-1.03,1.12
2.911691188812256,-0.19,0.37,-0.41,0.58
2.9131510257720947,0.07,0.1,-0.07,0.14
2.9284491539001465,0.3,-0.2,-0.36,0.5
2.9299380779266357,0.31,0.02,-0.53,0.61
2.943538188934326,0.04,0.32,-0.36,0.48
2.9713480472564697,-0.3,0.44,-0.34,0.63
2.972926139831543,-0.6,0.42,-0.34,0.8
2.9738590717315674,-0.82,0.35,-0.58,1.06
2.976168155670166,-0.52,0.18,-0.75,0.93
2.9864940643310547,-0.05,-0.09,-0.66,0.66
2.996568202972412,0.19,-0.32,-0.74,0.82
3.0064070224761963,0.35,-0.3,-0.55,0.71
3.0162429809570312,0.28,-0.15,-0.33,0.45
3.026033878326416,-0.07,-0.01,-0.16,0.17
3.036129951477051,-0.43,0.03,-0.13,0.45
3.0734219551086426,-0.69,0.04,-0.01,0.69
3.0748701095581055,-0.67,0.16,0.03,0.68
3.0758540630340576,-0.46,0.18,-0.22,0.54
3.0958971977233887,-0.18,-0.01,-0.44,0.47
3.0973739624023438,0.14,-0.18,-0.4,0.46
3.1119751930236816,0.31,-0.22,-0.31,0.49
3.1134328842163086,0.39,-0.16,-0.17,0.45
3.128754138946533,0.51,0.01,0.21,0.55
3.1302170753479004,0.53,0.17,0.52,0.76
3.1478710174560547,0.29,0.2,0.59,0.68
3.1535019874572754,0.07,0.22,0.39,0.45
3.1837780475616455,0.08,0.16,0.19,0.26
3.1849570274353027,0.15,0.04,-0.15,0.21
3.186221122741699,0.01,-0.08,-0.42,0.42
3.192643165588379,-0.21,-0.11,-0.7,0.73
3.194549083709717,-0.57,-0.07,-1.02,1.17
3.212189197540283,-1.12,-0.02,-1.29,1.7
3.2146780490875244,-1.68,0.06,-1.42,2.2
3.2290968894958496,-1.71,0.41,-0.99,2.01
3.234626054763794,-1.41,0.93,-0.11,1.69
3.2459659576416016,-1.7,1.24,0.11,2.1
3.273083209991455,-2.08,1.24,-0.31,2.44
3.2744622230529785,-2.37,0.89,-0.81,2.65
3.2754859924316406,-2.45,0.6,-1.39,2.88
3.295773983001709,-2.07,0.54,-1.8,2.79
3.297274112701416,-1.71,0.91,-1.98,2.76
3.312203884124756,-1.41,1.36,-1.89,2.72
3.3138508796691895,-1.51,1.61,-1.7,2.78
3.328946113586426,-1.91,2.07,-1.41,3.14
3.3340370655059814,-1.79,2.87,-1.31,3.62
3.346619129180908,-2.05,3.93,-2.2,4.94
3.3725881576538086,-2.68,4.98,-0.9,5.72
3.3739919662475586,-2.07,3.59,0.36,4.15
3.375035047531128,-2.72,3.37,0.12,4.33
3.3956780433654785,-3.43,3.86,-0.1,5.16
3.3971550464630127,-4.03,3.61,-0.78,5.46
3.4121170043945312,-4.35,3.41,-1.1,5.63
3.414001941680908,-4.24,2.96,-1.94,5.52
3.431640148162842,-4.36,3.13,-3.15,6.22
3.433152198791504,-4.48,3.43,-3.73,6.76
3.4432220458984375,-4.26,3.09,-3.96,6.58
3.471435070037842,-3.87,2.71,-4.13,6.27
3.4725890159606934,-3.34,2.53,-3.96,5.76
3.473595142364502,-2.97,3.06,-4.21,5.99
3.482497215270996,-4.09,4.23,-4.84,7.61
3.4925589561462402,-5.88,5.24,-5.31,9.49
3.5027379989624023,-6.27,5.48,-4.99,9.7
3.5125961303710938,-4.16,6.1,-2.72,7.86
3.5224270820617676,1.33,8.65,0.96,8.8
3.5325911045074463,4.66,7.93,1.01,9.25
3.5424931049346924,2.07,4.25,-2.08,5.16
3.5770959854125977,-1.66,3.26,-4.17,5.54
3.5787360668182373,-3.91,1.77,-4.58,6.27
3.580085039138794,-5.87,-0.66,-4.75,7.57
3.595928192138672,-5.38,-2.48,-4.39,7.37
3.597425937652588,-1.4,-3.22,-3.31,4.82
3.6118390560150146,-3.79,-2.99,-2.98,5.67
3.613306999206543,-7.38,-1.91,-3.37,8.33
3.6289761066436768,-9.92,-1.25,-3.27,10.51
3.6315510272979736,-10.55,-1.59,-2.13,10.87
3.6441709995269775,-9.75,-2.72,-0.78,10.15
3.67710018157959,-8.45,-3.93,-0.17,9.32
3.678402900695801,-7.25,-4.37,-0.14,8.46
3.6794350147247314,-6.22,-4.39,-0.27,7.61
3.6961190700531006,-5.6,-4.27,-0.48,7.05
3.6971611976623535,-5.43,-4.08,-0.7,6.82
3.712038040161133,-5.49,-3.88,-0.59,6.74
3.7135090827941895,-5.56,-3.52,-0.17,6.58
3.729084014892578,-5.44,-3.27,0.25,6.35
3.7309000492095947,-5.09,-3.02,0.66,5.95
3.7441370487213135,-4.68,-2.64,0.8,5.43
3.775306224822998,-4.24,-2.13,0.19,4.74
3.7767181396484375,-3.45,-1.52,-0.8,3.85
3.7777419090270996,-2.3,-0.85,-1.23,2.74
3.795819044113159,-1.08,-0.11,-0.85,1.37
3.7973060607910156,-0.27,0.55,-0.07,0.61
3.8120789527893066,0.13,1.28,0.82,1.52
3.813554048538208,0.39,2.0,1.38,2.46
3.8290131092071533,0.73,2.81,1.76,3.39
3.830470085144043,1.6,4.05,2.17,4.86
3.848051071166992,3.08,5.37,2.28,6.59
3.8785271644592285,4.78,6.32,2.17,8.21
3.8798890113830566,6.68,7.12,1.68,9.9
3.8809030055999756,8.64,7.94,0.78,11.76
3.8965001106262207,9.84,9.37,-0.12,13.58
3.8980300426483154,8.55,16.3,-0.36,18.4
3.912281036376953,13.29,9.6,-2.39,16.56
3.913745880126953,18.91,2.43,-0.55,19.07
3.9291582107543945,17.84,1.11,0.91,17.89
3.930610179901123,14.75,2.6,0.96,15.0
3.944489002227783,13.27,2.43,1.41,13.56
3.9491019248962402,12.95,2.81,2.46,13.47
3.9895730018615723,12.58,2.71,3.02,13.21
3.9910759925842285,11.59,1.74,3.06,12.11
3.992089033126831,9.12,-1.33,1.33,9.31
4.013214111328125,2.49,-4.15,-2.35,5.38
4.014682054519653,-3.61,-0.55,-3.92,5.35
4.029053211212158,-2.95,6.81,-0.39,7.43
4.030527114868164,0.69,11.12,3.46,11.66
4.045630931854248,6.78,7.29,3.35,10.5
4.047119140625,8.58,-1.54,0.6,8.73
4.062146186828613,5.64,-0.97,0.52,5.74
4.089828014373779,2.84,0.34,2.53,3.81
4.091172218322754,1.33,-1.02,2.65,3.13
4.092124938964844,1.61,-1.67,2.24,3.22
4.113101005554199,2.36,-1.07,2.07,3.31
4.114569187164307,2.9,0.04,2.05,3.55
4.129002094268799,2.61,0.31,1.95,3.27
4.1304731369018555,1.88,-0.29,1.48,2.41
4.14565896987915,1.41,-0.37,1.12,1.83
4.14713191986084,1.2,-0.04,0.81,1.44
4.164614200592041,0.9,0.14,0.06,0.91
4.193964958190918,0.27,0.1,-0.73,0.78
4.195350170135498,-0.13,0.3,-0.74,0.8
4.196376085281372,-0.27,0.47,-0.45,0.7
4.2128870487213135,-0.3,0.19,-0.69,0.77
4.2143940925598145,-0.17,-0.02,-1.32,1.33
4.229027032852173,-0.02,0.03,-1.52,1.52
4.230509996414185,-0.16,0.12,-0.96,0.98
4.245507001876831,-0.84,0.22,-0.23,0.89
4.246891021728516,-1.42,0.28,0.19,1.45
4.261332988739014,-1.17,0.41,0.16,1.25
4.28795599937439,-0.73,0.62,-0.03,0.95
4.289307117462158,-0.65,0.56,-0.57,1.03
4.290268898010254,-0.82,0.17,-0.8,1.15
4.292489051818848,-0.77,-0.01,-0.66,1.01
4.296346187591553,-0.92,-0.1,-0.8,1.22
4.306571006774902,-0.78,-0.06,-0.95,1.23
4.316760063171387,-0.32,0.06,-0.57,0.65
4.3266730308532715,0.21,-0.06,-0.19,0.28
4.3365490436553955,0.57,-0.17,0.08,0.6
4.34640908241272,0.63,-0.28,0.27,0.74
4.380089044570923,0.57,-0.21,0.39,0.72
4.381241083145142,0.36,0.04,0.21,0.41
4.382236957550049,0.26,0.21,0.03,0.33
4.396457195281982,0.28,0.23,0.07,0.36
4.397924900054932,0.29,0.11,-0.01,0.31
4.412228107452393,0.29,0.01,-0.02,0.29
4.415724992752075,0.3,-0.11,0.18,0.36
4.428532123565674,0.18,-0.15,0.25,0.34
4.435631036758423,0.0,-0.04,0.15,0.15
4.44534707069397,-0.12,0.16,0.04,0.2
4.482754230499268,-0.23,0.28,-0.11,0.37
4.484217166900635,-0.29,0.33,-0.34,0.55
4.4852330684661865,-0.33,0.38,-0.51,0.71
4.486266136169434,-0.45,0.44,-0.7,0.94
4.494990110397339,-0.64,0.36,-0.91,1.16
4.505099058151245,-0.79,0.39,-0.92,1.27
4.515094041824341,-1.11,0.4,-0.94,1.5
4.525081157684326,-1.38,0.37,-1.12,1.81
4.53476095199585,-1.57,0.41,-1.04,1.92
4.544793128967285,-1.8,0.44,-0.8,2.01
4.57881498336792,-2.03,0.62,-0.72,2.24
4.580045223236084,-2.24,0.88,-0.61,2.48
4.5810441970825195,-2.26,1.13,-0.63,2.6
4.595947027206421,-2.33,1.42,-0.72,2.82
4.597021102905273,-2.23,1.74,-0.75,2.92
4.612485885620117,-1.94,1.87,-1.03,2.88
4.614006996154785,-2.19,2.39,-1.41,3.53
4.629348039627075,-1.78,3.06,-0.85,3.64
4.634319067001343,-1.68,2.62,-1.08,3.29
4.644500017166138,-2.35,2.8,-1.3,3.87
4.67936110496521,-2.81,3.07,-1.7,4.49
4.680850982666016,-2.95,3.05,-2.04,4.7
4.681812047958374,-3.19,3.24,-2.26,5.07
4.691763877868652,-3.71,3.8,-2.45,5.84
4.693636894226074,-4.26,4.26,-2.76,6.62
4.7130842208862305,-4.65,4.39,-3.04,7.08
4.714608192443848,-4.86,4.54,-3.49,7.51
4.729448080062866,-4.8,4.27,-4.02,7.57
4.733352184295654,-4.6,4.21,-4.28,7.56
4.744600057601929,-4.25,4.15,-4.28,7.32
4.753910064697266,-3.57,3.41,-4.11,6.42
4.7882630825042725,-3.1,3.46,-4.09,6.18
4.78942608833313,-3.22,4.54,-4.19,6.96
4.7906341552734375,-3.53,5.6,-4.44,7.97
4.792478084564209,-2.82,6.36,-3.58,7.82
4.802646160125732,1.08,8.66,-0.16,8.72
4.812618017196655,2.79,7.2,0.28,7.72
4.822678089141846,0.16,3.93,-2.1,4.45
4.832770109176636,-3.16,3.18,-4.39,6.27
4.8427228927612305,-5.5,2.17,-4.72,7.56
4.852466106414795,-6.65,0.49,-3.88,7.71
4.882620096206665,-6.75,-2.94,-3.4,8.1
4.883949041366577,-1.92,-3.46,-1.95,4.41
4.884967088699341,0.62,-0.89,-0.52,1.2
4.8952460289001465,-3.42,-1.39,-1.27,3.9
4.901778221130371,-7.28,-1.04,-2.4,7.73
4.912528991699219,-9.29,-0.94,-2.23,9.6
4.921969890594482,-9.4,-1.54,-1.24,9.6
4.9318389892578125,-8.41,-2.4,-0.38,8.75
4.942686080932617,-7.1,-3.69,-0.03,8.0
4.95177698135376,-6.23,-4.7,-0.2,7.8
4.982734203338623,-5.75,-5.04,-0.63,7.67
4.98404598236084,-5.37,-4.8,-1.06,7.28
4.985063076019287,-5.0,-4.38,-1.22,6.75
4.9913249015808105,-4.56,-3.93,-1.11,6.12
5.001284122467041,-4.36,-3.74,-0.8,5.79
5.011372089385986,-4.54,-3.32,-0.44,5.64
5.021283149719238,-4.75,-2.54,-0.19,5.38
5.0310959815979,-4.59,-1.82,-0.27,4.94
5.0412280559539795,-4.0,-1.38,-0.93,4.33
5.0511040687561035,-3.07,-0.98,-1.83,3.7
5.082222938537598,-1.97,-0.38,-2.09,2.89
5.083506107330322,-0.88,-0.08,-1.7,1.91
5.0845160484313965,-0.34,-0.22,-0.98,1.06
5.09652304649353,0.05,-0.04,-0.26,0.26
5.1004719734191895,0.53,0.6,0.1,0.8
5.1127610206604,0.67,1.34,0.13,1.5
5.120614051818848,0.65,2.09,0.31,2.21
5.130295038223267,0.78,2.91,0.78,3.11
5.14041805267334,1.26,3.52,1.48,4.02
5.150299072265625,1.9,3.88,2.05,4.78
5.188601016998291,2.5,4.11,1.82,5.14
5.190023899078369,3.42,4.46,0.95,5.7
5.190989971160889,4.9,5.7,0.36,7.52
5.193285942077637,7.3,6.58,-1.12,9.89
5.199573040008545,10.17,6.8,-1.87,12.37
5.209753036499023,10.57,9.82,-2.12,14.58
5.219888210296631,11.23,9.89,-2.47,15.16
5.229852199554443,15.02,4.4,-1.13,15.69
5.239570140838623,15.08,2.91,2.37,15.53
5.24952507019043,13.11,3.05,3.63,13.94
5.286643028259277,11.88,3.52,4.01,13.02
5.2880330085754395,11.27,3.84,4.35,12.67
5.288997173309326,10.36,3.66,4.35,11.81
5.292294979095459,8.68,3.59,4.49,10.41
5.312845230102539,6.53,4.39,5.01,9.32
5.314336061477661,4.64,4.86,5.69,8.8
5.329667091369629,1.56,1.68,3.62,4.28
5.3311591148376465,-4.18,-1.87,-0.53,4.6
5.345035076141357,-6.93,-2.11,-2.65,7.71
5.348609924316406,-1.24,-0.39,-1.21,1.77
5.387962102890015,5.29,0.19,-0.19,5.29
5.389179229736328,7.4,2.4,0.37,7.78
5.390282154083252,7.29,8.14,2.43,11.19
5.392107963562012,8.57,4.39,0.25,9.63
5.39811110496521,5.67,1.68,-0.62,5.94
5.408194065093994,2.8,2.93,3.12,5.11
5.418276071548462,1.67,-1.13,5.18,5.55
5.428338050842285,1.99,-3.0,4.48,5.74
5.438119888305664,1.89,-1.4,2.81,3.66
5.447997093200684,1.41,0.35,1.24,1.91
5.483609199523926,0.88,0.54,0.5,1.14
5.484920978546143,0.67,0.21,0.83,1.08
5.485945224761963,0.76,-0.16,1.29,1.5
5.48734188079834,0.6,-0.53,0.52,0.95
5.497881889343262,0.48,-0.3,-0.69,0.89
5.507541179656982,0.67,0.15,-1.18,1.36
5.517752170562744,0.77,0.34,-1.29,1.54
5.527596950531006,0.64,0.22,-1.51,1.65
5.537630081176758,0.37,0.05,-1.52,1.56
5.547363042831421,0.16,0.09,-1.06,1.07
5.5572509765625,0.04,0.13,-0.58,0.59
5.589130878448486,-0.14,0.13,-0.27,0.33
5.5901780128479,-0.45,0.12,-0.16,0.49
5.591401100158691,-0.7,0.13,0.0,0.71
5.596854209899902,-0.74,0.18,0.18,0.78
5.606528043746948,-0.62,0.09,0.19,0.65
5.61669397354126,-0.38,-0.18,-0.15,0.44
5.626963138580322,0.01,-0.28,-0.53,0.59
5.63666296005249,0.42,-0.26,-0.37,0.61
5.646584987640381,0.6,-0.18,-0.15,0.64
5.656402111053467,0.41,-0.2,-0.19,0.49
5.687743186950684,0.07,-0.19,-0.19,0.27
5.6888861656188965,-0.28,-0.07,-0.08,0.29
5.690141201019287,-0.59,-0.01,-0.15,0.6
5.695974111557007,-0.72,-0.03,-0.22,0.75
5.712421894073486,-0.51,0.04,-0.01,0.51
5.71574592590332,-0.16,0.15,0.29,0.36
5.729538917541504,0.22,0.22,0.46,0.55
5.735964059829712,0.37,0.23,0.62,0.75
5.745594024658203,0.47,0.02,0.49,0.67
5.755454063415527,0.94,0.0,0.48,1.05
5.7875871658325195,1.41,0.06,0.53,1.5
5.7887959480285645,1.54,0.01,0.33,1.57
5.790114879608154,1.35,-0.03,-0.06,1.35
5.794974088668823,1.1,0.03,-0.26,1.13
5.812851905822754,0.85,0.23,-0.14,0.89
5.814778089523315,0.4,0.36,-0.2,0.57
5.829807996749878,-0.18,0.43,-0.02,0.46
5.834988117218018,-0.8,0.49,0.2,0.95
5.844799995422363,-1.41,0.41,-0.03,1.46
5.854794979095459,-1.91,0.07,-0.82,2.07
5.885462999343872,-2.16,-0.02,-1.5,2.62
5.886628150939941,-2.0,0.36,-1.73,2.66
5.887789011001587,-2.0,0.56,-1.86,2.78
5.894763946533203,-2.47,0.54,-1.83,3.12
5.904376029968262,-2.96,0.77,-1.47,3.39
5.914191007614136,-3.13,1.17,-1.16,3.53
5.924220085144043,-2.91,1.46,-1.01,3.4
5.934313058853149,-2.66,1.43,-0.78,3.11
5.944505214691162,-2.24,1.49,-0.7,2.77
5.954401016235352,-1.62,1.7,-1.29,2.67
5.991204023361206,-1.37,2.42,-2.42,3.68
5.992707014083862,-2.09,4.19,-2.18,5.16
5.99373197555542,-1.84,4.11,-1.55,4.76
5.994760990142822,-1.73,2.96,-1.7,3.82
6.003616094589233,-2.03,3.09,-1.07,3.84
6.013669967651367,-2.51,2.95,-1.0,4.0
6.023583889007568,-2.91,3.04,-1.29,4.4
6.03345799446106,-3.35,3.3,-1.33,4.88
6.043709993362427,-3.68,3.44,-1.33,5.21
6.053524971008301,-3.99,3.42,-1.81,5.55
6.088613986968994,-4.44,3.56,-2.13,6.07
6.090019226074219,-4.69,3.68,-2.26,6.37
6.090996026992798,-4.66,3.34,-2.96,6.45
6.093379020690918,-4.56,3.08,-3.54,6.54
6.1027421951293945,-4.3,2.79,-3.57,6.24
6.1127471923828125,-3.44,2.6,-3.9,5.81
6.122628211975098,-3.21,3.12,-4.35,6.24
6.132657051086426,-3.55,4.3,-4.62,7.24
6.142786979675293,-3.7,5.6,-4.36,8.0
6.152771949768066,-2.28,7.49,-2.89,8.34
6.189802169799805,1.14,9.59,-1.22,9.73
6.191211223602295,1.1,7.25,-1.74,7.53
6.192241191864014,-1.16,4.33,-3.35,5.59
6.194366931915283,-3.26,3.21,-4.66,6.53
6.20213508605957,-4.85,1.77,-4.79,7.04
6.21210503578186,-6.05,-1.33,-4.65,7.74
6.222002029418945,-5.24,-4.99,-4.17,8.35
6.2323479652404785,0.42,-2.02,-2.7,3.39
6.242147922515869,0.89,-0.47,-1.65,1.93
6.251823902130127,-3.65,-1.91,-2.36,4.74
6.290592193603516,-7.41,-1.75,-3.25,8.27
6.2918760776519775,-9.56,-1.74,-2.89,10.13
6.292884111404419,-10.26,-2.07,-1.68,10.6
6.31351900100708,-9.62,-2.57,-0.52,9.97
6.314594030380249,-8.31,-3.59,0.05,9.05
6.330296993255615,-7.44,-4.22,0.12,8.55
6.331739902496338,-7.05,-4.03,-0.02,8.12
6.346605062484741,-6.93,-3.52,-0.1,7.77
6.348088026046753,-6.72,-3.36,0.0,7.51
6.362634181976318,-6.43,-3.37,0.42,7.27
6.364089012145996,-6.2,-3.05,0.94,6.97
6.4119181632995605,-5.88,-2.59,1.28,6.55
6.413130044937134,-5.48,-2.08,1.07,5.95
6.414103031158447,-4.98,-1.57,0.04,5.22
6.43074107170105,-4.03,-0.78,-0.97,4.21
6.4317920207977295,-2.6,-0.13,-1.53,3.01
6.446568965911865,-1.26,-0.01,-1.55,1.99
6.448017120361328,-0.7,-0.31,-0.95,1.22
6.4634599685668945,-0.31,-0.11,0.1,0.34
6.464928150177002,0.63,0.61,0.93,1.27
6.479456901550293,1.54,1.28,1.25,2.36
6.509636878967285,1.64,1.9,1.57,2.96
6.510918140411377,1.21,2.84,2.35,3.87
6.511929035186768,1.2,3.86,3.46,5.32
6.5302581787109375,2.24,4.87,3.93,6.64
6.531308174133301,4.5,5.81,2.9,7.9
6.5468220710754395,7.27,6.3,1.53,9.74
6.5483012199401855,9.42,7.12,0.56,11.82
6.563467025756836,11.23,7.86,-0.02,13.7
6.564949035644531,13.16,7.54,-0.09,15.16
6.57889199256897,12.66,8.76,0.36,15.39
6.607323169708252,11.06,10.05,0.71,14.96
6.608588218688965,15.16,3.56,0.57,15.58
6.6095850467681885,16.39,3.38,2.76,16.96
6.630888938903809,15.45,3.82,3.89,16.38
6.6319451332092285,14.57,3.61,4.22,15.59
6.6469690799713135,13.25,3.28,4.59,14.4
6.6484270095825195,11.58,3.02,4.51,12.78
6.663794994354248,8.27,1.08,2.32,8.65
6.6653032302856445,-0.36,-1.74,-2.11,2.75
6.679066181182861,-9.02,0.1,-4.34,10.01
6.710990905761719,-7.23,4.91,-0.78,8.77
6.712299108505249,1.1,5.16,1.53,5.49
6.7133002281188965,5.18,3.88,1.31,6.6
6.730544090270996,4.76,3.86,2.18,6.5
6.731603145599365,5.02,3.43,1.77,6.33
6.746680021286011,5.67,1.37,0.78,5.88
6.748100996017456,2.92,0.04,1.47,3.26
6.763638973236084,0.78,-0.3,3.53,3.62
6.765104055404663,0.76,-1.62,3.09,3.57
6.778831958770752,1.9,-1.91,2.03,3.37
6.808302879333496,2.39,-0.63,1.5,2.89
6.809645175933838,2.49,0.98,1.12,2.9
6.810654163360596,2.24,0.85,0.43,2.43
6.830132961273193,1.67,-0.34,-0.26,1.72
6.83119010925293,0.96,-0.7,-0.61,1.33
6.846423149108887,0.24,0.11,-0.34,0.43
6.8474531173706055,-0.46,0.76,0.2,0.91
6.863560199737549,-0.63,0.45,0.41,0.87
6.86503791809082,-0.31,0.06,0.34,0.46
6.878973007202148,0.0,-0.15,-0.22,0.26
6.908535957336426,0.59,-0.04,-0.87,1.05
6.909955024719238,1.01,0.03,-0.83,1.3
6.910937070846558,1.2,-0.03,-0.64,1.36
6.930459976196289,0.94,-0.05,-0.59,1.11
6.931519985198975,0.4,0.01,-0.34,0.52
6.946332931518555,0.02,0.22,-0.08,0.23
6.9474029541015625,-0.18,0.33,-0.03,0.37
6.9635419845581055,-0.16,0.27,0.21,0.37
6.9648590087890625,0.06,0.14,0.39,0.41
6.97884202003479,0.19,0.07,0.61,0.64
7.007616996765137,0.17,-0.02,0.39,0.42
7.009608030319214,0.26,-0.03,-0.09,0.27
7.010623931884766,0.32,0.08,-0.33,0.46
7.0305562019348145,0.28,0.16,-0.33,0.46
7.031450033187866,0.1,0.09,-0.49,0.5
7.046326160430908,-0.46,0.05,-0.59,0.74
7.047369956970215,-0.7,0.08,-0.5,0.86
7.063654899597168,-0.33,0.13,-0.16,0.38
7.06506609916687,-0.06,0.11,-0.08,0.14
7.078694105148315,-0.13,-0.03,-0.29,0.31
7.107769966125488,-0.28,-0.24,-0.13,0.39
7.109167098999023,-0.37,-0.24,-0.02,0.44
7.110106945037842,-0.36,-0.04,-0.21,0.41
7.130743980407715,-0.42,0.14,-0.35,0.56
7.1318230628967285,-0.34,0.22,-0.29,0.49
7.146337032318115,-0.08,0.11,-0.15,0.2
7.147561073303223,0.16,0.07,-0.08,0.19
7.164093017578125,0.23,0.17,0.01,0.28
7.16555118560791,0.14,0.3,0.1,0.34
7.179128170013428,-0.04,0.26,0.05,0.26
7.180598020553589,-0.24,0.18,-0.02,0.3
7.2270941734313965,-0.6,0.18,-0.09,0.63
7.228237152099609,-1.0,0.25,-0.16,1.04
7.229238986968994,-1.16,0.37,-0.42,1.28
7.24741005897522,-1.15,0.49,-0.66,1.41
7.248897075653076,-1.04,0.55,-0.95,1.51
7.26372504234314,-1.14,0.48,-1.19,1.71
7.265192985534668,-1.09,0.59,-1.05,1.62
7.280296087265015,-1.07,0.54,-0.72,1.39
7.281747102737427,-1.21,0.6,-0.6,1.47
7.295900106430054,-1.52,0.82,-0.47,1.78
7.328143119812012,-1.89,1.0,-0.62,2.22
7.329452991485596,-2.14,1.23,-0.98,2.65
7.330486059188843,-2.09,1.4,-1.38,2.86
7.347779035568237,-2.06,1.4,-1.91,3.13
7.349143981933594,-2.56,2.08,-2.63,4.21
7.36315393447876,-2.21,3.2,-1.67,4.23
7.364686965942383,-1.82,3.22,-1.73,4.08
7.380503177642822,-2.45,3.18,-1.89,4.43
7.381969928741455,-3.1,3.14,-1.47,4.65
7.39578914642334,-3.53,3.05,-1.1,4.79
7.426091194152832,-4.11,3.45,-1.27,5.51
7.4274680614471436,-4.67,4.31,-1.77,6.59
7.428473949432373,-4.95,4.74,-2.33,7.23
7.447011947631836,-5.29,5.0,-3.17,7.93
7.448058128356934,-5.65,5.16,-3.83,8.55
7.464968204498291,-5.68,4.94,-4.18,8.61
7.466422080993652,-5.33,4.19,-4.61,8.19
7.479418992996216,-4.67,3.38,-4.55,7.34
7.480893135070801,-3.54,3.14,-4.32,6.4
7.496009111404419,-3.26,4.08,-4.95,7.19
7.527026176452637,-4.27,5.88,-5.42,9.06
7.528746128082275,-4.74,7.33,-5.55,10.34
7.529762029647827,-3.42,8.75,-3.68,10.08
7.547276973724365,0.94,10.49,0.18,10.53
7.548348903656006,2.12,7.3,0.62,7.62
7.563998222351074,-0.29,3.83,-1.91,4.28
7.565468072891235,-3.4,2.55,-4.24,6.0
7.580640077590942,-5.31,1.04,-4.57,7.08
7.582120895385742,-6.02,-1.75,-4.04,7.45
7.595923900604248,-4.17,-5.11,-3.02,7.25
7.625010013580322,1.74,-3.71,-0.77,4.16
7.6263580322265625,0.74,-3.26,-0.17,3.34
7.627367973327637,-3.69,-3.19,-1.71,5.16
7.6471240520477295,-6.91,-2.48,-2.67,7.81
7.6481242179870605,-8.3,-2.67,-2.31,9.01
7.663597106933594,-8.36,-3.3,-1.42,9.09
7.6649110317230225,-7.5,-4.18,-0.63,8.6
7.680634021759033,-6.57,-5.08,-0.16,8.3
7.681997060775757,-6.2,-5.47,-0.16,8.26
7.696131229400635,-6.1,-5.23,-0.42,8.04
7.724030017852783,-5.88,-4.61,-0.55,7.49
7.725389003753662,-5.32,-4.12,-0.39,6.74
7.726348876953125,-4.7,-4.01,-0.01,6.17
7.747541904449463,-4.82,-4.17,0.33,6.38
7.748629093170166,-5.37,-4.14,0.62,6.8
7.763858079910278,-6.09,-3.72,0.75,7.17
7.764894962310791,-6.5,-2.94,0.82,7.18
7.780574083328247,-5.97,-2.14,0.49,6.36
7.782069206237793,-4.66,-1.57,-0.4,4.93
7.796122074127197,-2.54,-1.0,-1.09,2.93
7.823573112487793,-0.3,-0.25,-0.83,0.91
7.82497501373291,1.47,0.38,0.13,1.52
7.826000213623047,1.98,0.44,0.62,2.12
7.828130006790161,1.46,0.78,0.8,1.83
7.829555034637451,0.94,2.03,0.73,2.35
7.830877065658569,0.84,3.55,0.52,3.68
7.832253932952881,1.47,4.93,0.54,5.17
7.839619159698486,2.73,5.82,0.75,6.47
7.849914073944092,4.12,6.04,0.82,7.35
7.859898090362549,5.54,6.15,0.49,8.29
7.891416072845459,6.9,6.13,-0.18,9.23
7.8923659324646,7.88,6.12,-0.28,9.98
7.893141031265259,7.95,8.75,-0.23,11.82
7.913002967834473,7.6,13.18,-1.14,15.25
7.913870096206665,12.05,7.68,-1.69,14.38
7.930114030838013,14.9,5.18,1.49,15.84
7.931160926818848,13.44,3.25,2.85,14.11
7.947041988372803,11.11,2.45,3.28,11.84
7.948898077011108,9.59,2.98,4.37,10.95
7.962722063064575,8.83,4.34,5.12,11.09
7.969168186187744,8.31,5.19,5.43,11.2
8.004857063293457,8.01,5.38,5.63,11.17
8.006114959716797,7.54,4.19,5.05,9.99
8.007287979125977,4.7,0.3,1.97,5.1
8.01026701927185,-1.8,-2.37,-1.93,3.54
8.030409097671509,-6.07,-1.56,-3.1,6.99
8.031429052352905,-2.53,0.74,-0.68,2.72
8.047266006469727,2.36,1.01,0.96,2.74
8.048269033432007,4.41,3.0,2.55,5.91
8.06316614151001,7.08,4.93,2.68,9.03
8.068381071090698,10.09,1.8,0.84,10.28
8.104907035827637,8.08,0.85,-0.39,8.13
8.106112003326416,4.16,1.77,1.46,4.75
8.10726809501648,2.42,0.02,2.21,3.27
8.110119104385376,2.79,-1.29,2.34,3.86
8.130555152893066,2.76,-1.08,2.4,3.81
8.131638050079346,2.22,-0.37,2.13,3.09
8.146957874298096,1.52,-0.24,1.74,2.32
8.148025035858154,0.44,-0.48,1.08,1.26
8.162848949432373,-0.5,-0.4,0.45,0.78
8.167486190795898,-0.78,0.07,0.07,0.78
8.206006050109863,-0.77,0.38,-0.63,1.06
8.207204103469849,-0.91,0.31,-1.22,1.55
8.208421230316162,-0.8,0.1,-1.26,1.49
8.210018157958984,-0.36,0.12,-1.01,1.07
8.216660022735596,0.06,0.14,-0.72,0.73
8.227050065994263,0.3,0.09,-0.6,0.67
8.237010955810547,0.39,0.04,-0.76,0.85
8.24663496017456,0.44,0.14,-1.0,1.1
8.256747007369995,0.4,0.2,-0.85,0.96
8.266868114471436,0.25,0.08,-0.28,0.38
8.298203945159912,0.03,-0.16,0.38,0.41
8.299504041671753,-0.22,-0.22,0.81,0.86
8.300468921661377,-0.48,-0.19,0.94,1.07
8.314613103866577,-0.47,-0.09,0.89,1.01
8.316040992736816,-0.28,0.03,0.78,0.82
8.330276012420654,-0.05,0.03,0.54,0.54
8.336277961730957,0.2,-0.04,0.18,0.27
8.346934080123901,0.42,0.01,-0.15,0.44
8.356153964996338,0.64,0.1,-0.28,0.7
8.366209983825684,0.69,0.17,-0.21,0.74
8.402554035186768,0.44,0.1,-0.14,0.47
8.403934001922607,0.05,-0.11,-0.08,0.14
8.4049391746521,-0.33,-0.14,0.14,0.38
8.414376020431519,-0.59,0.08,0.18,0.62
8.4154372215271,-0.54,0.33,0.16,0.65
8.430652141571045,-0.42,0.36,-0.02,0.55
8.43520212173462,-0.3,0.19,-0.31,0.47
8.448253154754639,-0.31,0.11,-0.27,0.42
8.455431938171387,-0.3,0.13,-0.28,0.43
8.465264081954956,-0.33,0.16,-0.29,0.46
8.502373218536377,-0.22,0.17,-0.38,0.47
8.503827095031738,-0.36,0.18,-0.51,0.64
8.504858016967773,-0.85,0.32,-0.75,1.17
8.515162944793701,-1.09,0.53,-0.71,1.4
8.516210079193115,-1.2,0.65,-0.62,1.49
8.530805110931396,-1.44,0.75,-0.73,1.78
8.5343918800354,-1.51,0.75,-0.8,1.86
8.545348167419434,-1.2,0.84,-0.46,1.53
8.55450701713562,-0.81,0.97,-0.17,1.27
8.564444065093994,-0.77,0.91,-0.26,1.22
8.601836204528809,-0.84,0.71,-0.53,1.22
8.603110074996948,-1.25,0.72,-0.62,1.57
8.604122161865234,-1.26,0.94,-0.56,1.66
8.614489078521729,-1.18,1.04,-0.5,1.65
8.61554503440857,-1.14,1.11,-0.48,1.66
8.630864143371582,-1.2,1.38,-0.6,1.92
8.633708000183105,-1.76,2.5,-0.83,3.16
8.647379875183105,-2.07,3.67,-1.38,4.43
8.65407419204712,-2.01,3.88,-0.85,4.45
8.663798093795776,-2.41,3.62,-1.38,4.56
8.702863216400146,-2.85,3.23,-2.11,4.79
8.704277992248535,-2.99,2.73,-2.22,4.61
8.705328941345215,-3.3,2.81,-2.57,5.03
8.714815139770508,-4.0,3.51,-3.23,6.22
8.715834140777588,-4.93,4.37,-3.93,7.67
8.730804920196533,-5.89,5.08,-4.49,8.98
8.733027935028076,-6.27,5.21,-4.7,9.4
8.747509002685547,-6.16,5.26,-4.76,9.39
8.753332138061523,-5.92,5.02,-5.11,9.29
8.76330304145813,-5.54,4.59,-5.36,8.97
8.773010015487671,-4.76,4.19,-5.09,8.13
8.805402040481567,-4.13,4.47,-4.79,7.74
8.806588172912598,-3.94,5.4,-5.43,8.61
8.807882070541382,-3.93,6.88,-5.7,9.76
8.812469005584717,-2.25,8.6,-3.26,9.46
8.831117153167725,2.6,10.39,-0.61,10.72
8.832130908966064,2.58,7.3,-2.54,8.14
8.847929000854492,-0.86,4.8,-5.2,7.12
8.852367877960205,-4.06,3.29,-6.64,8.44
8.863564014434814,-6.91,-0.22,-6.11,9.22
8.87230920791626,-7.15,-4.31,-4.85,9.65
8.903894901275635,0.03,-2.28,-1.77,2.88
8.905090093612671,1.72,-0.98,-0.37,2.01
8.906310081481934,-3.39,-1.8,-1.81,4.24
8.911610126495361,-7.81,-1.43,-3.2,8.56
8.921694993972778,-10.53,-1.69,-2.81,11.02
8.931515216827393,-11.13,-2.18,-1.15,11.39
8.941418170928955,-10.01,-2.65,0.45,10.36
8.951412200927734,-8.24,-3.7,1.36,9.13
8.96182107925415,-6.95,-4.79,1.49,8.57
8.971585035324097,-6.34,-5.17,1.02,8.24
9.004179954528809,-6.14,-4.74,0.55,7.77
9.005598068237305,-6.1,-4.14,0.29,7.37
9.006639003753662,-6.07,-3.89,0.19,7.21
9.012064933776855,-6.0,-3.84,0.17,7.12
9.021085023880005,-5.85,-3.81,0.27,6.98
9.030715942382812,-5.66,-3.9,0.43,6.88
9.040572166442871,-5.47,-3.74,0.8,6.67
9.050897121429443,-5.34,-3.22,1.14,6.33
9.060874938964844,-5.3,-2.36,0.87,5.86
9.070798873901367,-4.92,-1.41,-0.11,5.11
9.102723121643066,-3.61,-0.59,-1.21,3.85
9.104156970977783,-1.56,-0.11,-1.84,2.41
9.105226039886475,0.35,0.5,-1.61,1.72
9.11539602279663,1.81,1.39,-0.7,2.38
9.120133876800537,2.98,1.94,0.28,3.56
9.130477905273438,3.44,2.14,1.03,4.18
9.140100955963135,2.85,2.65,1.61,4.21
9.150569915771484,2.36,4.09,2.25,5.23
9.1600821018219,2.9,5.71,2.4,6.83
9.169867992401123,4.32,6.65,2.14,8.21
9.209579944610596,6.23,6.93,1.77,9.48
9.210954189300537,8.16,7.13,1.04,10.88
9.211968898773193,9.8,7.27,0.55,12.21
9.231280088424683,10.3,9.0,0.53,13.68
9.232310056686401,9.83,12.34,0.08,15.77
9.247903108596802,15.1,5.86,-0.66,16.21
9.249401092529297,17.14,3.94,1.77,17.67
9.264600038528442,15.29,3.74,2.86,15.99
9.266074180603027,13.64,4.42,3.44,14.74
9.280107975006104,12.72,4.77,4.2,14.21
9.309690952301025,11.84,5.09,4.33,13.59
9.310997009277344,10.14,5.12,4.88,12.36
9.311999082565308,6.85,4.3,5.71,9.9
9.331476211547852,1.28,1.45,4.59,4.98
9.332548141479492,-6.31,-1.22,1.8,6.67
9.347527980804443,-10.72,-1.87,-0.21,10.88
9.34886908531189,-4.06,-0.06,-0.84,4.14
9.364757061004639,3.92,2.73,-1.01,4.88
9.366207122802734,8.23,8.25,1.79,11.78
9.379863023757935,11.8,3.57,0.84,12.35
9.40723204612732,8.33,2.41,0.22,8.67
9.408606052398682,4.95,2.98,1.03,5.86
9.409613132476807,2.62,-1.32,1.93,3.51
9.411809921264648,2.31,-3.28,3.09,5.06
9.417784214019775,2.78,-1.71,3.04,4.46
9.43007516860962,2.34,0.27,2.46,3.4
9.437915086746216,1.6,0.83,1.83,2.56
9.448111057281494,0.78,0.43,0.89,1.25
9.457746028900146,-0.02,-0.23,0.13,0.26
9.467880010604858,-0.5,-0.28,-0.11,0.58
9.504271030426025,-0.67,0.02,-0.02,0.67
9.505648136138916,-0.68,0.04,0.24,0.72
9.506712913513184,-0.76,-0.04,0.3,0.81
9.511550903320312,-0.62,0.05,-0.12,0.63
9.517129898071289,-0.14,0.18,-0.64,0.67
9.531204223632812,0.36,0.16,-1.15,1.21
9.537227153778076,0.72,0.03,-1.74,1.88
9.54749608039856,0.92,-0.16,-1.75,1.98
9.557223081588745,0.99,-0.17,-1.39,1.71
9.566922187805176,0.66,-0.03,-0.71,0.96
9.577113151550293,0.11,-0.02,0.11,0.15
9.608671188354492,-0.28,-0.18,0.55,0.64
9.609832048416138,-0.47,-0.15,1.03,1.14
9.610844135284424,-0.37,0.21,1.51,1.56
9.631944179534912,-0.12,0.43,1.42,1.48
9.632971048355103,0.04,0.27,0.95,0.98
9.647477149963379,0.43,0.13,0.28,0.52
9.648808002471924,0.93,-0.08,-0.39,1.01
9.665086030960083,1.27,-0.32,-0.57,1.42
9.666582107543945,1.12,-0.34,-0.44,1.25
9.680354118347168,0.53,-0.17,-0.32,0.64
9.709990978240967,-0.1,0.0,-0.04,0.1
9.711328029632568,-0.5,0.06,0.37,0.62
9.712372064590454,-0.66,0.08,0.52,0.84
9.731931209564209,-0.67,0.12,0.24,0.72
9.732930183410645,-0.47,0.15,0.06,0.49
9.74613618850708,-0.09,0.12,-0.1,0.18
9.747133016586304,0.21,0.05,-0.04,0.21
9.763193130493164,0.37,0.0,-0.13,0.39
9.765448093414307,0.41,-0.01,-0.11,0.42
9.778170108795166,0.25,0.03,-0.01,0.25
9.806305885314941,0.06,0.06,0.12,0.14
9.807698011398315,-0.11,0.21,0.18,0.29
9.80873703956604,-0.26,0.4,0.07,0.48
9.814731121063232,-0.34,0.53,-0.15,0.64
9.83181619644165,-0.52,0.62,-0.24,0.84
9.834712028503418,-0.75,0.64,-0.45,1.08
9.847692012786865,-0.91,0.56,-0.69,1.27
9.85514211654663,-1.02,0.45,-0.82,1.38
9.864617109298706,-1.38,0.44,-0.82,1.66
9.874770164489746,-1.66,0.49,-0.95,1.97
9.90671706199646,-1.81,0.6,-1.18,2.24
9.907923221588135,-2.13,0.63,-1.85,2.89
9.90902304649353,-2.63,0.63,-2.44,3.64
9.914103984832764,-2.86,0.52,-2.44,3.79
9.92414402961731,-2.65,0.64,-1.85,3.29
9.934200048446655,-2.42,0.95,-1.38,2.94
9.944151878356934,-2.13,1.47,-1.32,2.9
9.954065084457397,-1.7,2.13,-1.72,3.22
9.96407699584961,-1.56,3.09,-2.0,3.99
9.973918914794922,-2.19,4.42,-1.66,5.2
10.013346195220947,-2.1,4.0,-1.08,4.64
10.014647006988525,-2.3,3.36,-0.8,4.14
10.015639066696167,-3.01,3.41,-0.75,4.6
10.031912088394165,-3.85,3.68,-1.15,5.44
10.0329270362854,-4.32,4.14,-2.0,6.3
10.04800796508789,-4.56,4.53,-2.79,7.0
10.049511909484863,-4.71,4.48,-3.26,7.27
10.064940929412842,-5.07,4.43,-3.8,7.73
10.066450119018555,-5.6,4.81,-4.03,8.41
10.080440044403076,-5.68,4.36,-3.95,8.17
10.110352993011475,-4.99,3.27,-3.78,7.06
10.111663103103638,-3.98,2.63,-3.63,5.99
10.112643003463745,-2.53,2.39,-3.52,4.95
10.132005214691162,-1.55,3.23,-3.58,5.06
10.133012056350708,-1.75,4.64,-3.72,6.19
10.147509098052979,-0.73,6.42,-2.46,6.91
10.148528099060059,2.72,8.77,-1.15,9.25
10.165325164794922,2.27,7.93,-3.26,8.86
10.166794061660767,-1.19,5.12,-4.94,7.21
10.180645942687988,-3.51,3.51,-5.07,7.09
10.208989143371582,-5.35,1.18,-4.3,6.96
10.21041202545166,-6.73,-1.53,-3.43,7.7
10.211414098739624,-5.38,-3.65,-3.26,7.27
10.232407093048096,0.55,-2.39,-2.05,3.19
10.233447074890137,0.79,-1.69,-1.53,2.41
10.248317003250122,-3.88,-2.18,-2.55,5.12
10.249756097793579,-8.18,-1.47,-3.14,8.88
10.26530909538269,-10.36,-1.49,-2.64,10.79
10.266784191131592,-10.45,-2.05,-1.27,10.72
10.280503034591675,-9.39,-2.83,0.17,9.8
10.310415029525757,-7.94,-3.73,1.14,8.84
10.31174898147583,-6.93,-4.47,1.48,8.37
10.312757015228271,-6.59,-4.62,1.2,8.13
10.331916093826294,-6.5,-4.38,0.61,7.86
10.332971096038818,-6.33,-4.13,0.05,7.55
10.348273038864136,-5.93,-3.95,-0.12,7.12
10.34972095489502,-5.48,-3.72,0.07,6.62
10.36510419845581,-5.1,-3.63,0.21,6.26
10.366563081741333,-4.81,-3.46,0.38,5.93
10.38044810295105,-4.73,-3.03,0.62,5.65
10.381896018981934,-4.76,-2.38,0.46,5.34
10.427719116210938,-4.65,-1.7,-0.22,4.95
10.428865909576416,-4.06,-0.86,-1.14,4.3
10.429903984069824,-2.98,-0.1,-1.64,3.4
10.44863510131836,-1.69,0.46,-1.42,2.25
10.449697971343994,-0.71,0.76,-0.65,1.22
10.465339183807373,0.1,1.31,0.21,1.33
10.466785907745361,0.9,2.25,0.87,2.57
10.481645107269287,1.18,3.06,1.19,3.48
10.483076095581055,0.73,3.76,1.55,4.13
10.497075080871582,0.31,4.76,2.11,5.21
10.526793003082275,0.73,5.9,2.5,6.44
10.528235912322998,2.15,6.57,2.6,7.38
10.529290199279785,4.14,6.64,2.46,8.2
10.54825496673584,5.95,6.7,1.76,9.13
10.549292087554932,7.41,7.15,0.92,10.33
10.565194129943848,7.09,11.46,0.91,13.5
10.566688060760498,8.22,12.13,-0.22,14.65
10.5818510055542,14.32,5.78,-0.21,15.44
10.583323001861572,16.44,4.43,2.8,17.25
10.597397089004517,14.95,3.58,3.23,15.7
10.626503944396973,13.46,3.75,2.92,14.27
10.627920150756836,12.61,4.39,2.76,13.63
10.628925085067749,11.72,4.83,2.5,12.92
10.648417949676514,10.54,5.48,2.69,12.18
10.649460077285767,9.0,4.82,2.64,10.54
10.664883136749268,4.06,1.01,1.05,4.31
10.665916919708252,-3.57,-1.44,-1.05,3.99
10.68177604675293,-7.72,-1.13,-0.91,7.85
10.683229923248291,-3.6,-0.09,1.6,3.94
10.697443008422852,2.66,-0.61,1.43,3.08
10.72568416595459,5.23,1.14,0.48,5.37
10.727143049240112,6.16,6.03,1.45,8.74
10.728116035461426,8.98,4.53,0.44,10.06
10.748512029647827,6.74,-0.15,-1.89,7.0
10.74954605102539,2.96,1.37,-0.23,3.26
10.765079021453857,2.32,-0.15,2.57,3.46
10.766119003295898,2.15,-2.64,3.41,4.81
10.781877994537354,1.06,-1.97,2.87,3.63
10.78335189819336,0.74,0.07,1.64,1.8
10.79751706123352,0.98,0.52,0.89,1.42
10.824958086013794,1.47,-0.16,1.04,1.8
10.82633113861084,1.87,-0.33,1.31,2.3
10.827332973480225,1.65,-0.29,1.29,2.11
10.829426050186157,0.99,-0.27,1.13,1.52
10.83096694946289,0.49,-0.14,0.55,0.74
10.837228059768677,0.19,0.19,-0.37,0.45
10.847404956817627,-0.11,0.37,-0.96,1.03
10.857295036315918,-0.22,0.3,-1.01,1.07
10.867185115814209,-0.16,0.21,-0.56,0.61
10.876996994018555,0.06,0.06,-0.3,0.31
10.911745071411133,0.38,-0.07,-0.3,0.48
10.912864208221436,0.51,-0.03,0.01,0.51
10.913816928863525,0.37,0.0,0.3,0.47
10.932693004608154,0.16,0.11,0.26,0.32
10.933713912963867,0.07,0.1,0.07,0.14
10.948058128356934,0.19,0.13,0.18,0.29
10.949110984802246,0.37,0.18,0.34,0.53
10.965565204620361,0.49,0.1,0.28,0.57
10.967024087905884,0.58,-0.01,0.32,0.66
10.980951070785522,0.63,-0.13,0.07,0.64
11.013535022735596,0.61,-0.17,-0.18,0.65
11.014963150024414,0.35,-0.04,-0.23,0.42
11.015909194946289,0.01,0.04,-0.32,0.32
11.032573223114014,-0.15,0.03,-0.2,0.25
11.033597946166992,-0.18,-0.02,0.04,0.18
11.04828691482544,-0.03,-0.06,0.33,0.33
11.049329042434692,0.27,-0.2,0.56,0.65
11.065583229064941,0.4,-0.21,0.42,0.61
11.06702995300293,0.48,-0.14,0.29,0.57
11.080962181091309,0.46,0.01,0.19,0.49
11.112699031829834,0.32,0.12,-0.07,0.34
11.11426305770874,0.1,0.26,-0.21,0.34
11.115149021148682,0.01,0.46,-0.23,0.51
11.13278603553772,-0.04,0.5,-0.18,0.53
11.13385009765625,-0.23,0.39,-0.21,0.49
11.148531913757324,-0.51,0.28,-0.06,0.58
11.149992942810059,-0.83,0.23,-0.12,0.86
11.165513038635254,-1.09,0.3,-0.49,1.23
11.167006969451904,-1.17,0.45,-0.88,1.53
11.180998086929321,-1.23,0.41,-1.12,1.71
11.184783935546875,-1.45,0.51,-1.08,1.87
11.226001024246216,-1.86,0.73,-1.35,2.41
11.227158069610596,-2.09,0.94,-1.6,2.79
11.22819709777832,-2.07,1.03,-1.39,2.69
11.249516010284424,-1.89,1.19,-1.46,2.66
11.250933170318604,-1.86,1.39,-1.23,2.62
11.265322208404541,-1.86,1.76,-1.11,2.79
11.266703128814697,-2.04,2.35,-1.14,3.31
11.282285213470459,-2.65,3.42,-0.48,4.35
11.283782005310059,-2.91,3.74,-0.54,4.76
11.297791957855225,-3.09,3.76,-1.01,4.97
11.328429222106934,-3.19,3.89,-1.24,5.18
11.329744100570679,-3.26,3.76,-1.81,5.29
11.330750942230225,-3.41,3.81,-2.37,5.63
11.349047183990479,-3.65,4.09,-3.05,6.27
11.350080966949463,-4.26,4.51,-3.77,7.25
11.365384101867676,-5.02,4.89,-4.45,8.3
11.366852045059204,-5.87,5.08,-5.14,9.31
11.382391929626465,-6.01,4.82,-4.71,9.02
11.38385009765625,-5.69,4.46,-4.43,8.47
11.398622989654541,-5.26,3.72,-4.52,7.86
11.427679061889648,-4.63,3.08,-4.51,7.15
11.429107189178467,-3.4,2.8,-4.17,6.06
11.430116176605225,-2.4,3.17,-4.02,5.65
11.448984146118164,-2.49,4.67,-3.88,6.56
11.45003890991211,-2.3,6.58,-3.53,7.81
11.465662956237793,0.16,9.28,-2.66,9.65
11.467175960540771,1.55,10.82,-3.29,11.41
11.482500076293945,-1.24,7.76,-4.09,8.85
11.483946084976196,-3.95,4.64,-4.47,7.55
11.497884035110474,-5.52,2.22,-4.63,7.53
11.52665090560913,-6.72,-0.76,-4.8,8.29
11.527990102767944,-6.88,-4.51,-4.7,9.47
11.528985023498535,-1.2,-3.39,-2.68,4.48
11.548848152160645,2.75,-1.44,-0.87,3.22
11.54988718032837,-0.61,-2.32,-1.4,2.77
11.565496921539307,-4.9,-2.62,-3.0,6.31
11.566473960876465,-8.11,-2.79,-3.28,9.18
11.581472873687744,-9.61,-3.22,-2.25,10.38
11.582886219024658,-9.97,-3.75,-0.86,10.68
11.59810209274292,-9.46,-4.29,0.42,10.39
11.626358032226562,-8.85,-4.92,1.05,10.17
11.628414154052734,-8.16,-5.27,1.03,9.76
11.62941598892212,-7.24,-4.87,0.94,8.77
11.64915418624878,-6.36,-4.34,0.88,7.74
11.650243997573853,-5.86,-4.07,0.78,7.17
11.665966033935547,-5.67,-3.76,0.6,6.82
11.667471885681152,-5.64,-3.47,0.49,6.64
11.682472229003906,-5.6,-2.99,0.48,6.36
11.683964014053345,-5.59,-2.32,0.38,6.06
11.697927951812744,-5.31,-1.48,-0.11,5.51
11.726961135864258,-4.27,-0.56,-0.87,4.39
11.728368997573853,-2.46,-0.01,-1.52,2.89
11.729377031326294,-0.37,0.22,-1.57,1.62
11.749011993408203,0.91,0.55,-0.93,1.41
11.750030040740967,0.93,0.66,-0.24,1.16
11.765822887420654,0.77,1.29,0.52,1.58
11.767269134521484,1.06,2.36,1.15,2.83
11.782166004180908,1.42,3.35,1.63,3.98
11.783592224121094,1.64,4.16,2.12,4.94
11.798107147216797,1.93,4.94,2.66,5.93
11.825820922851562,2.71,5.88,3.43,7.32
11.827178001403809,4.1,6.42,3.65,8.44
11.828164100646973,5.84,6.35,2.75,9.05
11.84937310218811,7.57,6.33,1.77,10.02
11.850399017333984,9.02,6.35,0.81,11.06
11.865730047225952,10.24,5.8,-0.14,11.76
11.866772174835205,10.68,5.67,-0.31,12.09
11.88244104385376,8.78,10.18,0.51,13.45
11.883893013000488,11.94,6.08,1.36,13.46
11.897918224334717,14.8,3.97,3.01,15.61
11.925662994384766,13.91,2.78,3.93,14.71
11.9270920753479,11.8,2.39,4.0,12.68
11.928075075149536,10.1,3.07,4.47,11.46
11.930285930633545,9.27,3.58,4.75,11.01
11.931802034378052,8.7,3.17,4.41,10.25
11.93873405456543,6.32,0.48,2.38,6.77
11.949007987976074,0.32,-2.5,-1.0,2.71
11.958681106567383,-5.0,-1.88,-2.8,6.03
11.968985080718994,-3.61,1.14,-0.94,3.9
11.978859901428223,2.64,3.37,0.94,4.38
11.988903045654297,5.85,4.96,1.34,7.78
12.01941204071045,5.84,5.34,1.59,8.07
12.020685195922852,6.0,2.59,0.7,6.57
12.021657943725586,4.41,-0.05,-0.13,4.41
12.03311014175415,2.39,-0.02,1.47,2.8
12.03815221786499,1.72,-1.39,3.29,3.96
12.048567056655884,1.54,-2.15,3.39,4.29
12.058041095733643,1.61,-1.25,3.12,3.72
12.067924976348877,1.64,0.01,2.76,3.21
12.078347206115723,1.57,0.43,1.83,2.44
12.088240146636963,1.5,-0.03,0.77,1.68
12.118088006973267,1.66,-0.31,0.49,1.75
12.119440078735352,1.58,-0.16,0.54,1.67
12.120462894439697,1.19,0.05,0.38,1.25
12.133240222930908,0.75,0.28,0.37,0.88
12.137387037277222,0.1,0.24,0.02,0.26
12.148605108261108,-0.44,0.1,-1.07,1.16
12.157639980316162,-0.38,0.2,-1.47,1.53
12.167378902435303,-0.02,0.25,-1.02,1.05
12.177578926086426,0.31,0.1,-0.3,0.44
12.187427043914795,0.51,-0.01,0.02,0.51
12.217782020568848,0.58,-0.09,-0.08,0.59
12.219160079956055,0.56,0.01,-0.33,0.65
12.220141887664795,0.25,0.09,-0.17,0.31
12.233066082000732,-0.23,0.18,0.22,0.36
12.236685037612915,-0.34,0.25,0.48,0.63
12.24898099899292,-0.22,0.17,0.55,0.61
12.256777048110962,-0.06,0.1,0.28,0.3
12.26668119430542,0.17,0.03,-0.01,0.17
12.276777029037476,0.28,0.14,-0.2,0.37
12.286713123321533,0.34,0.25,-0.33,0.53
12.3162841796875,0.5,0.14,-0.38,0.64
12.317667961120605,0.54,0.02,-0.24,0.59
12.318679094314575,0.44,-0.1,-0.08,0.45
12.33293104171753,0.19,-0.2,-0.02,0.27
12.335859060287476,-0.03,-0.21,-0.12,0.24
12.346605062484741,-0.14,-0.17,0.04,0.22
12.35588002204895,-0.21,-0.08,0.21,0.3
12.36609697341919,-0.23,-0.03,0.1,0.25
12.376008987426758,-0.28,0.04,0.14,0.31
12.385664939880371,-0.18,0.04,0.26,0.31
12.422694206237793,-0.04,0.04,0.16,0.16
12.423996925354004,0.02,0.15,0.08,0.17
12.425040006637573,-0.01,0.23,0.09,0.24
12.428745031356812,-0.03,0.34,-0.01,0.34
12.435245990753174,-0.08,0.35,-0.11,0.37
12.448781967163086,-0.16,0.3,-0.21,0.39
12.455502986907959,-0.32,0.44,-0.42,0.68
12.46614408493042,-0.49,0.72,-0.63,1.07
12.475117206573486,-0.61,0.87,-0.88,1.37
12.485065937042236,-0.81,0.83,-1.13,1.61
12.522051095962524,-1.27,0.76,-1.26,1.94
12.523348093032837,-1.85,0.75,-1.02,2.24
12.524480104446411,-2.23,0.79,-0.9,2.53
12.530155181884766,-2.53,0.94,-1.09,2.91
12.534430027008057,-2.83,1.27,-1.38,3.39
12.54927921295166,-2.93,1.69,-1.35,3.64
12.554359912872314,-3.26,2.5,-1.11,4.25
12.56604290008545,-3.09,2.81,-0.8,4.25
12.5746750831604,-2.99,2.67,-0.54,4.04
12.58426308631897,-3.23,2.83,-0.66,4.34
12.621815204620361,-3.27,3.11,-0.98,4.61
12.623181104660034,-3.02,3.59,-1.36,4.88
12.62419319152832,-2.45,3.58,-1.76,4.68
12.632873058319092,-2.24,3.16,-1.99,4.35
12.633895874023438,-2.75,3.2,-2.19,4.75
12.647768020629883,-3.51,3.48,-2.39,5.49
12.653533935546875,-4.35,3.84,-2.58,6.35
12.666343212127686,-4.87,4.05,-2.77,6.91
12.6736478805542,-4.99,4.06,-2.91,7.06
12.683494091033936,-4.94,3.92,-3.24,7.08
12.72132921218872,-5.01,3.95,-3.72,7.38
12.722730159759521,-4.81,3.94,-4.44,7.64
12.723730087280273,-4.16,3.54,-5.02,7.41
12.733122110366821,-3.61,3.95,-5.33,7.55
12.73413896560669,-3.92,5.22,-5.77,8.71
12.749283075332642,-3.85,6.43,-5.31,9.18
12.753260135650635,-1.58,7.8,-3.66,8.75
12.766167163848877,3.68,10.68,-0.74,11.32
12.773066997528076,4.36,8.25,-1.46,9.44
12.782793045043945,0.56,4.31,-4.11,5.98
12.792821884155273,-3.26,2.56,-5.69,7.03
12.824419975280762,-6.11,0.15,-5.14,7.98
12.82558012008667,-7.15,-3.95,-4.3,9.23
12.82683801651001,-2.3,-5.62,-3.33,6.92
12.832248210906982,3.3,-2.36,-1.43,4.3
12.849236011505127,0.18,-2.06,-1.8,2.74
12.852420091629028,-5.6,-1.68,-3.73,6.93
12.86636209487915,-9.61,-1.13,-3.95,10.45
12.872153997421265,-10.73,-1.67,-2.55,11.15
12.882000923156738,-9.71,-2.69,-0.71,10.1
12.89205002784729,-8.08,-3.49,0.72,8.83
12.925955057144165,-7.01,-4.05,1.43,8.22
12.927107095718384,-6.66,-4.27,1.44,8.04
12.92806601524353,-6.58,-4.31,0.93,7.92
12.93150520324707,-6.56,-4.19,0.36,7.79
12.94152021408081,-6.39,-4.06,0.03,7.57
12.951572895050049,-6.16,-3.78,-0.08,7.22
12.961734056472778,-6.08,-3.48,-0.14,7.0
12.971514225006104,-5.94,-3.25,-0.26,6.77
12.981456995010376,-5.58,-2.8,-0.36,6.25
12.99142599105835,-5.14,-2.06,-0.58,5.56
13.024045944213867,-4.39,-1.33,-1.19,4.73
13.025236129760742,-3.13,-0.91,-1.96,3.8
13.026482105255127,-1.46,-0.51,-2.24,2.72
13.030622959136963,0.02,-0.32,-2.06,2.08
13.049312114715576,0.92,-0.1,-1.68,1.91
13.050379037857056,1.15,0.1,-1.23,1.68
13.066505908966064,0.99,0.5,-0.64,1.28
13.070707082748413,0.98,1.42,0.01,1.72
13.080545902252197,1.4,2.52,0.49,2.92
13.090567111968994,1.84,3.19,0.81,3.77
13.123979091644287,2.03,3.69,1.19,4.37
13.125154972076416,2.26,4.35,1.76,5.2
13.126366138458252,2.83,5.04,1.84,6.06
13.130012035369873,3.96,5.6,1.17,6.95
13.14919900894165,5.6,6.12,0.55,8.31
13.150233030319214,7.48,6.26,0.06,9.75
13.166685104370117,9.17,6.2,-0.37,11.07
13.170017004013062,10.62,6.04,-0.15,12.21
13.179893970489502,11.61,5.36,0.37,12.79
13.189824104309082,11.18,4.76,0.93,12.18
13.22761607170105,9.24,6.58,1.45,11.43
13.2288179397583,10.25,4.57,2.39,11.47
13.22982120513916,10.84,4.3,4.06,12.34
13.249649047851562,10.68,3.9,4.8,12.34
13.25059199333191,10.12,3.21,4.83,11.66
13.266503095626831,9.33,3.02,4.94,10.98
13.26800012588501,7.88,2.75,4.6,9.52
13.282875061035156,5.86,3.08,4.67,8.1
13.284255981445312,3.24,2.5,4.25,5.9
13.295232057571411,-1.88,-0.36,1.48,2.41
13.315967082977295,-6.6,-0.4,-1.22,6.72
13.317037105560303,-3.83,2.06,-0.32,4.36
13.318295001983643,2.37,2.92,0.89,3.86
13.32930302619934,5.2,2.58,0.61,5.83
13.338636875152588,5.23,4.13,0.42,6.67
13.34974718093872,4.22,4.93,0.86,6.54
13.359090089797974,4.09,3.55,0.75,5.46
13.36855697631836,3.92,0.41,0.28,3.95
13.379248142242432,2.39,-1.02,1.17,2.84
13.39070987701416,2.27,-1.19,2.84,3.82
13.428932189941406,2.85,-1.62,2.7,4.24
13.430315017700195,3.41,-0.93,2.23,4.17
13.431346893310547,3.19,-0.06,1.85,3.68
13.4498770236969,2.56,-0.06,1.16,2.81
13.45086407661438,1.96,-0.08,0.64,2.06
13.466347217559814,1.04,-0.04,0.13,1.04
13.467860221862793,0.11,0.11,-0.27,0.31
13.483281135559082,-0.49,0.3,-0.35,0.67
13.484766960144043,-0.6,0.31,0.1,0.68
13.498573064804077,-0.62,0.25,0.0,0.66
13.527202129364014,-0.71,0.14,-0.47,0.86
13.528560161590576,-0.6,-0.02,-0.53,0.8
13.529561042785645,-0.2,-0.18,-0.73,0.77
13.550039052963257,0.65,-0.19,-0.97,1.18
13.551130056381226,1.13,0.0,-1.01,1.51
13.566718101501465,1.23,0.14,-0.61,1.38
13.568142890930176,0.99,0.14,0.04,1.0
13.583240032196045,0.47,-0.01,0.62,0.77
13.584707021713257,-0.01,-0.06,0.95,0.95
13.598567962646484,-0.15,0.05,0.96,0.97
13.600057125091553,0.01,0.13,0.78,0.79
13.644221067428589,0.16,0.16,0.46,0.51
13.645388126373291,0.04,0.23,0.2,0.3
13.64637804031372,-0.14,0.2,-0.17,0.29
13.667404174804688,0.01,0.03,-0.66,0.66
13.668874025344849,0.25,-0.1,-0.7,0.75
13.68331003189087,0.34,-0.19,-0.44,0.58
13.684823036193848,0.09,-0.15,-0.11,0.2
13.699853897094727,-0.38,0.03,0.13,0.4
13.701312065124512,-0.86,0.25,0.31,0.94
13.715290069580078,-1.07,0.39,0.2,1.15
13.747164011001587,-0.91,0.37,0.08,0.98
13.748493194580078,-0.42,0.32,0.0,0.52
13.749485969543457,0.08,0.14,0.02,0.16
13.767107963562012,0.38,0.03,-0.07,0.38
13.76814317703247,0.5,0.01,-0.13,0.51
13.783244132995605,0.42,0.01,0.13,0.43
13.784633159637451,0.31,0.08,0.42,0.52
13.799850940704346,0.21,0.11,0.38,0.44
13.801321983337402,0.09,0.18,0.29,0.35
13.815761089324951,-0.09,0.15,0.14,0.22
13.847535133361816,-0.33,0.26,-0.14,0.44
13.848860025405884,-0.53,0.55,-0.53,0.92
13.849857091903687,-0.66,0.66,-0.94,1.32
13.867232084274292,-0.97,0.58,-1.25,1.68
13.868719100952148,-1.29,0.53,-1.16,1.81
13.883409976959229,-1.44,0.54,-0.73,1.7
13.884868144989014,-1.62,0.71,-0.4,1.81
13.900122165679932,-1.74,0.91,-0.52,2.03
13.901625156402588,-1.79,1.21,-0.51,2.21
13.915326118469238,-2.05,1.44,-0.5,2.55
13.944784164428711,-2.27,2.12,-0.31,3.12
13.94631814956665,-2.26,2.57,-0.42,3.44
13.947319030761719,-2.08,2.6,-0.19,3.33
13.967169046401978,-2.01,2.63,-0.24,3.31
13.96823000907898,-2.19,2.73,-0.52,3.53
13.983431100845337,-2.49,2.97,-1.14,4.03
13.984909057617188,-2.65,3.21,-2.02,4.62
14.000164985656738,-2.54,3.09,-2.6,4.77
14.001628875732422,-2.58,2.76,-2.97,4.8
14.01547622680664,-3.17,2.76,-3.1,5.22
14.045934200286865,-3.68,3.02,-2.9,5.57
14.047272205352783,-4.34,3.39,-3.01,6.27
14.048312187194824,-4.98,3.84,-3.19,7.05
14.06724214553833,-5.44,4.3,-3.21,7.64
14.068320035934448,-5.98,4.44,-3.52,8.23
14.083199977874756,-6.17,4.16,-3.98,8.43
14.084688186645508,-5.87,3.77,-4.06,8.07
14.100192070007324,-5.12,3.35,-3.78,7.19
14.101692199707031,-4.8,3.91,-3.47,7.09
14.11542797088623,-4.74,4.95,-3.58,7.73
14.143723964691162,-4.02,6.38,-4.1,8.58
14.145129203796387,-2.98,7.73,-3.88,9.14
14.146135091781616,-0.27,10.11,-0.71,10.13
14.167099952697754,2.18,9.89,0.36,10.13
14.168031215667725,0.05,5.7,-1.97,6.03
14.18303394317627,-3.56,4.23,-4.94,7.41
14.184096097946167,-6.11,3.33,-5.98,9.17
14.200329065322876,-7.53,0.67,-5.62,9.41
14.201770067214966,-7.76,-4.55,-4.74,10.16
14.21557903289795,-1.95,-4.44,-2.02,5.25
14.245735168457031,2.78,-0.61,0.08,2.84
14.247177124023438,-1.15,-1.34,-1.14,2.1
14.248192071914673,-5.55,-1.9,-3.28,6.72
14.267481088638306,-8.41,-1.92,-3.66,9.37
14.268513202667236,-9.48,-2.17,-2.53,10.04
14.283277034759521,-9.17,-2.85,-0.98,9.65
14.28472900390625,-7.84,-3.87,0.09,8.74
14.300313949584961,-6.52,-4.76,0.43,8.08
14.30176591873169,-5.9,-4.96,0.35,7.71
14.315818071365356,-5.8,-4.77,0.13,7.51
14.34526801109314,-5.88,-4.42,-0.07,7.35
14.34673810005188,-5.82,-4.11,-0.08,7.12
14.347732067108154,-5.5,-4.09,0.2,6.85
14.367785930633545,-4.98,-4.0,0.81,6.43
14.368844985961914,-4.73,-3.61,0.8,6.0
14.383471012115479,-4.64,-2.86,-0.15,5.45
14.384974956512451,-4.3,-1.69,-1.07,4.74
14.40010690689087,-3.47,-0.74,-1.6,3.89
14.401551008224487,-1.94,-0.4,-1.78,2.66
14.415641069412231,-0.25,-0.03,-1.28,1.3
14.417084217071533,0.86,0.58,-0.39,1.1
14.463376998901367,1.01,0.77,0.14,1.27
14.464575052261353,0.25,0.95,0.52,1.11
14.46557903289795,-0.83,1.87,1.31,2.42
14.484046936035156,-1.38,3.36,2.33,4.31
14.485526084899902,-1.16,4.57,3.25,5.72
14.500202178955078,-0.57,5.23,4.03,6.62
14.501681089401245,0.66,5.45,4.07,6.83
14.516784191131592,2.29,5.79,2.8,6.82
14.518278121948242,4.31,6.86,0.67,8.12
14.53257417678833,6.95,8.16,-0.19,10.72
14.562494993209839,10.11,8.21,-0.76,13.04
14.563806056976318,12.67,7.23,-0.77,14.6
14.564826011657715,14.11,6.02,0.08,15.34
14.583829879760742,13.82,4.14,1.46,14.5
14.584907054901123,12.34,2.56,3.28,13.02
14.600187063217163,9.98,5.03,4.5,12.04
14.601689100265503,9.45,7.16,4.45,12.66
14.617058038711548,11.96,3.21,3.77,12.94
14.618474006652832,12.91,2.03,3.61,13.55
14.632544994354248,12.39,1.34,2.33,12.67
14.662930965423584,11.18,1.57,0.94,11.32
14.66438913345337,10.06,3.01,0.44,10.5
14.665396213531494,7.08,2.24,-1.46,7.56
14.683706045150757,-1.2,0.87,-3.36,3.67
14.684759140014648,-7.65,3.32,-2.51,8.7
14.700199127197266,-4.15,4.74,2.28,6.69
14.701664924621582,2.13,3.36,3.69,5.42
14.717134952545166,5.95,3.74,2.6,7.49
14.718600034713745,6.42,3.63,1.96,7.63
14.732740879058838,6.32,2.98,1.56,7.15
14.762644052505493,5.84,0.02,0.94,5.91
14.764050006866455,2.88,-1.07,1.87,3.59
14.765068054199219,2.26,-1.1,3.8,4.55
14.78404712677002,2.99,-1.59,3.39,4.79
14.785097122192383,3.62,-1.56,2.59,4.71
14.800294876098633,3.3,-0.42,1.92,3.84
14.801774978637695,2.38,0.31,1.05,2.61
14.817086219787598,1.52,0.28,0.17,1.55
14.818535089492798,0.62,0.15,-0.54,0.83
14.832464218139648,-0.11,0.38,-0.94,1.01
14.863231182098389,-0.52,0.62,-0.96,1.25
14.864556074142456,-0.7,0.5,-1.02,1.33
14.865600109100342,-0.72,0.13,-1.36,1.54
14.884552955627441,-0.58,-0.01,-1.23,1.35
14.885606050491333,-0.4,0.11,-0.93,1.01
14.90036392211914,-0.28,0.13,-0.68,0.74
14.901866912841797,-0.04,-0.05,-0.58,0.58
14.917164087295532,0.38,-0.22,-0.45,0.62
14.918624877929688,0.7,-0.21,-0.09,0.73
14.932762145996094,0.64,-0.1,0.24,0.69
14.962202072143555,0.28,-0.02,0.46,0.53
14.96359395980835,0.04,-0.01,0.67,0.67
14.964603900909424,0.12,0.03,0.89,0.89
14.983963012695312,0.23,0.03,0.9,0.92
14.98495602607727,0.31,-0.02,0.55,0.63
15.0003662109375,0.35,-0.03,0.08,0.36
15.001829147338867,0.4,0.1,-0.45,0.61
15.017077922821045,0.48,0.12,-0.74,0.89
15.018503189086914,0.45,0.0,-0.72,0.84
15.032944202423096,0.3,-0.03,-0.54,0.61
15.063179016113281,-0.1,-0.01,-0.23,0.25
15.064483165740967,-0.6,0.06,0.11,0.61
15.065469026565552,-0.87,0.18,0.27,0.92
15.084106922149658,-0.92,0.25,-0.11,0.95
15.085158109664917,-0.79,0.32,-0.4,0.94
15.10075306892395,-0.56,0.26,-0.61,0.86
15.102195024490356,-0.32,0.19,-0.56,0.67
15.117394924163818,-0.01,0.13,-0.29,0.31
15.118824005126953,0.31,0.13,0.0,0.33
15.132620096206665,0.22,0.11,0.32,0.4
15.161145210266113,-0.14,0.1,0.36,0.39
15.162466049194336,-0.41,0.25,0.42,0.63
15.163412094116211,-0.6,0.39,0.42,0.82
15.184242010116577,-0.71,0.42,0.05,0.82
15.185163021087646,-0.61,0.44,-0.29,0.8
15.200608015060425,-0.5,0.39,-0.8,1.02
15.202047109603882,-0.5,0.35,-1.23,1.37
15.217020034790039,-0.61,0.3,-1.12,1.31
15.218436002731323,-1.09,0.15,-0.91,1.42
15.23291301727295,-1.82,0.33,-0.69,1.97
15.2344069480896,-2.2,0.73,-0.45,2.36
15.278832912445068,-2.32,1.16,-0.69,2.68
15.279987096786499,-2.4,1.44,-0.92,2.94
15.280951976776123,-2.33,1.52,-1.06,2.97
15.30102014541626,-1.91,1.46,-1.1,2.64
15.302496910095215,-1.32,1.57,-1.13,2.34
15.317126035690308,-1.11,2.17,-1.3,2.76
15.31856393814087,-2.05,3.67,-1.28,4.39
15.335142135620117,-2.4,4.43,-1.21,5.18
15.336575031280518,-2.55,4.01,-1.21,4.9
15.349780082702637,-3.25,3.93,-1.75,5.39
15.379554033279419,-3.62,3.77,-2.25,5.69
15.380774974822998,-3.7,3.48,-2.5,5.66
15.381752014160156,-3.75,3.61,-2.76,5.89
15.400929927825928,-4.37,4.12,-3.18,6.79
15.402050018310547,-5.33,4.65,-3.73,7.99
15.41719102859497,-6.07,5.02,-3.85,8.76
15.418663024902344,-6.44,5.12,-3.69,9.01
15.434026002883911,-6.38,4.78,-3.75,8.8
15.435508012771606,-6.13,4.09,-4.31,8.53
15.449573040008545,-5.28,3.23,-4.7,7.77
15.480179071426392,-4.49,3.25,-4.79,7.32
15.481541156768799,-4.29,3.91,-5.24,7.81
15.482556104660034,-3.9,5.16,-5.56,8.52
15.500944137573242,-2.86,6.96,-4.94,9.0
15.502007007598877,0.68,10.12,-2.55,10.45
15.517345905303955,2.71,10.08,-1.75,10.58
15.518774032592773,-0.12,5.6,-3.38,6.54
15.533751964569092,-3.17,3.78,-5.03,7.04
15.53522801399231,-5.38,1.92,-5.83,8.16
15.54947805404663,-6.98,-2.04,-5.77,9.28
15.578553199768066,-5.89,-5.74,-4.84,9.54
15.57999300956726,2.18,-2.45,-1.96,3.82
15.58100700378418,3.78,-1.06,-0.55,3.96
15.600711107254028,-1.7,-2.17,-2.01,3.41
15.601757049560547,-6.96,-2.54,-3.57,8.22
15.61718201637268,-10.06,-2.99,-3.44,11.04
15.618203163146973,-10.92,-3.35,-2.1,11.61
15.634088039398193,-10.32,-3.74,-0.35,10.98
15.635555028915405,-8.99,-4.35,1.11,10.04
15.649349212646484,-7.9,-5.18,1.81,9.61
15.677309036254883,-7.33,-5.69,1.58,9.41
15.678586959838867,-7.01,-5.73,0.83,9.09
15.679559230804443,-6.61,-5.2,0.25,8.41
15.682065963745117,-6.06,-4.55,0.03,7.57
15.68348217010498,-5.58,-4.17,0.02,6.96
15.68483304977417,-5.24,-3.92,0.05,6.54
15.6861891746521,-5.06,-3.73,-0.02,6.28
15.687693119049072,-5.1,-2.96,-0.25,5.9
15.690690994262695,-5.16,-1.83,-1.04,5.57
15.700836181640625,-4.49,-0.62,-1.91,4.91
15.731415033340454,-2.67,0.19,-2.65,3.76
15.732378005981445,-0.14,0.31,-3.04,3.05
15.733189105987549,2.48,0.73,-2.43,3.54
15.749694108963013,4.27,1.28,-1.53,4.71
15.75052809715271,4.85,1.8,-1.2,5.31
15.767285108566284,3.52,1.97,-0.83,4.11
15.770123958587646,1.29,3.14,0.63,3.45
15.783776998519897,0.13,4.84,2.05,5.25
15.79021692276001,0.5,6.37,3.25,7.16
15.79982304573059,1.33,7.06,3.88,8.16
15.833503007888794,2.13,7.43,4.04,8.72
15.834619045257568,3.73,7.8,3.89,9.48
15.835453987121582,6.37,7.36,2.59,10.07
15.850874900817871,9.3,6.29,1.06,11.27
15.851960182189941,11.74,5.87,0.31,13.12
15.867563009262085,13.45,5.42,0.11,14.5
15.86936616897583,14.02,4.21,0.7,14.65
15.883841037750244,13.19,2.96,1.72,13.62
15.889264106750488,12.01,2.02,2.56,12.44
15.899480104446411,10.96,1.67,3.4,11.59
15.93454909324646,10.14,1.67,4.05,11.04
15.935840129852295,9.15,2.35,3.88,10.21
15.936869144439697,6.35,7.11,3.19,10.05
15.951109886169434,6.59,4.89,1.19,8.29
15.952176094055176,8.14,2.81,1.88,8.81
15.96740198135376,5.45,0.4,2.31,5.93
15.968531131744385,-2.65,-0.23,0.61,2.72
15.983952045440674,-8.92,3.45,0.33,9.56
15.988543033599854,-4.79,5.6,3.09,7.99
15.999160051345825,1.87,2.89,3.17,4.67
16.008718967437744,4.99,0.45,1.97,5.38
16.0395610332489,5.76,2.21,1.36,6.31
16.04073190689087,5.4,5.04,1.0,7.45
16.041887998580933,3.12,4.11,1.19,5.29
16.049899101257324,1.43,1.2,1.52,2.4
16.05807399749756,3.86,2.62,1.68,4.95
16.06796908378601,5.04,-1.38,0.09,5.22
16.07778000831604,3.24,-1.53,-0.05,3.58
16.08778190612793,2.14,-0.36,0.63,2.25
16.098233222961426,1.83,-0.04,0.35,1.86
16.10806107521057,2.02,-0.02,-0.27,2.03
16.138535022735596,1.74,0.19,-0.76,1.9
16.139857053756714,1.51,0.16,-0.43,1.57
16.140881061553955,1.22,0.19,0.22,1.25
16.15009593963623,0.71,0.11,0.59,0.92
16.157238006591797,0.25,0.03,0.73,0.77
16.167116165161133,-0.12,0.01,0.8,0.8
16.177088022232056,-0.27,-0.07,0.57,0.63
16.187005043029785,-0.17,-0.14,0.3,0.37
16.197450160980225,0.2,-0.07,0.18,0.27
16.207345008850098,0.61,-0.02,0.24,0.65
16.238801956176758,0.91,0.04,0.29,0.95
16.240178108215332,1.03,0.04,0.17,1.04
16.24110507965088,1.03,0.02,-0.07,1.03
16.25118899345398,1.01,0.05,-0.25,1.04
16.256423950195312,0.89,-0.02,-0.2,0.91
16.26694393157959,0.69,-0.09,-0.13,0.7
16.276480197906494,0.51,-0.12,-0.09,0.53
16.287853002548218,0.22,-0.12,0.12,0.27
16.29668617248535,-0.05,0.06,0.18,0.19
16.30643320083618,-0.2,0.14,-0.06,0.25
16.337858200073242,-0.27,0.2,-0.19,0.38
16.339187145233154,-0.23,0.15,-0.35,0.44
16.340163230895996,-0.13,0.05,-0.35,0.37
16.351684093475342,-0.09,-0.03,-0.16,0.18
16.355796098709106,-0.15,0.03,-0.1,0.18
16.367367029190063,-0.25,0.08,-0.04,0.26
16.375833988189697,-0.25,0.1,0.17,0.31
16.385885000228882,-0.1,0.1,0.34,0.36
16.39591121673584,0.0,0.06,0.43,0.43
16.405806064605713,-0.03,0.05,0.34,0.34
16.445762157440186,-0.09,0.07,0.15,0.18
16.44708490371704,-0.11,0.05,0.18,0.21
16.448101043701172,-0.05,0.07,0.35,0.36
16.46834897994995,0.08,0.13,0.48,0.5
16.469796180725098,0.06,0.12,0.34,0.36
16.48445415496826,-0.2,0.09,0.05,0.22
16.485873222351074,-0.51,0.16,-0.49,0.72
16.501427173614502,-0.81,0.33,-1.09,1.39
16.50289821624756,-1.1,0.52,-1.4,1.85
16.51676106452942,-1.42,0.5,-1.34,2.01
16.547225952148438,-1.61,0.55,-1.13,2.04
16.548525094985962,-1.97,0.87,-1.14,2.43
16.549489974975586,-2.35,1.05,-1.55,3.0
16.5683012008667,-2.66,1.07,-1.95,3.46
16.56934118270874,-2.66,1.04,-1.94,3.45
16.58287000656128,-2.54,1.09,-1.56,3.17
16.58435606956482,-2.58,1.21,-1.37,3.16
16.6011860370636,-2.59,1.44,-1.32,3.24
16.602643966674805,-2.33,1.77,-1.6,3.33
16.615478038787842,-2.28,2.84,-2.02,4.16
16.644332885742188,-2.81,4.55,-1.8,5.64
16.645700931549072,-2.62,4.94,-1.02,5.68
16.64672613143921,-2.87,4.37,-1.33,5.39
16.648839950561523,-3.39,4.5,-1.73,5.89
16.653635025024414,-3.85,4.34,-2.18,6.19
16.663734912872314,-4.06,4.35,-2.34,6.39
16.67368793487549,-4.38,4.67,-2.29,6.79
16.683637142181396,-5.09,4.96,-2.76,7.62
16.693594932556152,-5.95,5.05,-3.37,8.5
16.703613996505737,-6.35,5.03,-3.77,8.93
16.740292072296143,-6.11,4.49,-4.12,8.62
16.741690158843994,-5.46,3.63,-4.55,7.98
16.74275493621826,-4.69,3.21,-5.19,7.69
16.751087188720703,-4.16,3.69,-5.86,8.07
16.752673149108887,-4.59,5.42,-6.21,9.43
16.767701148986816,-4.94,7.01,-6.43,10.71
16.77264404296875,-3.48,8.51,-4.91,10.42
16.784582138061523,0.91,12.28,-1.46,12.39
16.793061017990112,2.46,10.7,-0.54,10.99
16.802844047546387,-0.22,4.8,-1.88,5.15
16.812813997268677,-3.72,2.26,-4.26,6.09
16.84539222717285,-5.89,0.1,-5.74,8.22
16.846564054489136,-7.1,-4.11,-6.38,10.39
16.84756302833557,-6.09,-6.28,-5.24,10.19
16.868519067764282,0.9,-2.42,-2.17,3.37
16.86958408355713,2.58,-1.39,-0.43,2.96
16.8844211101532,-1.45,-2.69,-1.86,3.57
16.88545513153076,-5.54,-3.32,-3.53,7.36
16.90140390396118,-8.29,-3.42,-3.37,9.58
16.902903079986572,-9.33,-3.47,-2.16,10.18
16.9170880317688,-8.85,-3.74,-0.84,9.64
16.946060180664062,-7.82,-4.37,0.08,8.95
16.947503089904785,-6.99,-4.97,0.5,8.59
16.948491096496582,-6.43,-5.26,0.49,8.32
16.968178033828735,-6.08,-5.17,0.14,7.98
16.969213008880615,-5.72,-5.16,-0.42,7.71
16.98477005958557,-5.3,-5.1,-0.64,7.38
16.98628807067871,-5.02,-5.01,-0.56,7.11
17.001480102539062,-4.97,-4.48,-0.05,6.69
17.002971172332764,-5.35,-3.59,0.75,6.48
17.01677894592285,-6.01,-2.54,1.08,6.61
17.046781063079834,-6.29,-1.41,0.18,6.44
17.048057079315186,-5.26,-0.71,-1.84,5.61
17.049052000045776,-2.81,-0.08,-3.51,4.49
17.06840991973877,0.04,1.02,-3.11,3.27
17.069507122039795,2.54,2.46,-1.55,3.86
17.084678173065186,4.33,2.99,-0.18,5.26
17.086155891418457,4.28,2.5,0.11,4.95
17.101465225219727,3.26,3.16,0.23,4.54
17.102874040603638,2.68,4.83,0.54,5.55
17.116878032684326,2.72,5.94,0.3,6.54
17.147136211395264,3.42,6.51,0.23,7.35
17.148416996002197,5.09,6.89,0.93,8.61
17.149421215057373,7.44,6.4,2.03,10.02
17.168325901031494,9.79,5.28,2.22,11.34
17.16938018798828,11.08,4.47,1.72,12.07
17.18440008163452,10.87,4.04,0.61,11.61
17.18543815612793,10.12,3.54,-0.57,10.73
17.201383113861084,9.76,3.37,-0.9,10.36
17.202855110168457,9.6,3.27,-0.25,10.14
17.217112064361572,9.22,4.68,1.84,10.5
17.24538516998291,8.92,8.98,2.61,12.92
17.246747970581055,11.86,4.9,2.0,12.98
17.247753143310547,12.73,3.39,2.76,13.45
17.268596172332764,11.61,2.92,2.89,12.31
17.269638061523438,10.03,3.09,3.07,10.93
17.28493595123291,7.81,3.77,3.67,9.41
17.286398887634277,4.61,3.4,3.56,6.74
17.302873134613037,-1.97,1.27,1.26,2.66
17.30435299873352,-8.01,1.55,-0.57,8.17
17.317522048950195,-4.49,2.46,1.21,5.26
17.34685707092285,3.6,1.36,1.67,4.19
17.348320960998535,7.18,1.52,0.86,7.38
17.34935998916626,7.28,4.06,0.45,8.34
17.36875605583191,5.89,4.96,0.76,7.73
17.369806051254272,5.74,3.08,0.64,6.54
17.384587049484253,4.25,-0.76,-0.36,4.33
17.385611057281494,1.93,-0.92,1.09,2.39
17.401726007461548,1.92,-1.68,2.69,3.7
17.40320611000061,2.18,-2.29,2.34,3.93
17.41714906692505,2.36,-1.06,1.73,3.11
17.447758197784424,2.08,0.35,0.97,2.32
17.44913101196289,1.97,0.57,0.28,2.06
17.450134992599487,1.89,0.17,0.06,1.89
17.468509197235107,1.45,-0.12,0.27,1.47
17.46955108642578,0.68,-0.06,0.48,0.83
17.485097885131836,-0.12,0.11,0.63,0.65
17.4865300655365,-0.56,0.02,0.07,0.56
17.50174903869629,-0.43,0.05,-0.45,0.62
17.50323510169983,-0.11,0.09,-0.6,0.61
17.517324924468994,0.06,-0.02,-1.21,1.21
17.548945903778076,0.22,-0.06,-1.39,1.4
17.550300121307373,0.59,0.03,-0.79,0.98
17.551308155059814,0.68,0.21,-0.27,0.76
17.568758964538574,0.63,0.07,0.06,0.63
17.569849967956543,0.68,-0.07,0.23,0.72
17.584660053253174,0.71,0.01,0.39,0.81
17.585711002349854,0.64,-0.04,0.51,0.81
17.60090398788452,0.44,-0.05,0.76,0.87
17.60236120223999,0.19,0.07,0.91,0.93
17.61702799797058,-0.11,0.01,0.9,0.9
17.618464946746826,-0.2,-0.05,0.7,0.72
17.664534091949463,0.07,-0.11,0.4,0.42
17.66573405265808,0.71,-0.12,0.18,0.74
17.666728973388672,1.26,-0.02,0.16,1.27
17.685490131378174,1.09,0.05,0.27,1.12
17.686530113220215,0.4,0.06,0.13,0.42
17.701763153076172,-0.11,0.06,0.24,0.27
17.703153133392334,-0.22,-0.01,0.45,0.5
17.716880083084106,-0.25,-0.11,0.31,0.41
17.718329906463623,-0.36,0.04,-0.06,0.36
17.733922004699707,-0.41,0.21,-0.19,0.49
17.76534605026245,-0.29,0.28,-0.35,0.53
17.766674995422363,-0.21,0.2,-0.6,0.66
17.767684936523438,-0.11,0.22,-0.53,0.58
17.785213947296143,-0.01,0.34,-0.55,0.64
17.786208152770996,0.0,0.35,-0.61,0.7
17.801666021347046,0.01,0.3,-0.51,0.59
17.80272102355957,-0.02,0.24,-0.41,0.47
17.818467140197754,-0.23,0.27,-0.3,0.46
17.81990909576416,-0.38,0.31,-0.14,0.51
17.833802223205566,-0.48,0.4,-0.17,0.64
17.86359691619873,-0.63,0.59,-0.41,0.95
17.86496591567993,-0.6,0.71,-0.47,1.04
17.865978002548218,-0.58,0.67,-0.77,1.17
17.885200023651123,-0.78,0.69,-1.3,1.66
17.886210918426514,-1.14,0.73,-1.54,2.05
17.901495933532715,-1.39,0.83,-1.49,2.2
17.902867078781128,-1.75,1.12,-1.24,2.41
17.918517112731934,-2.39,1.63,-0.79,2.99
17.9200119972229,-2.83,2.26,-0.23,3.62
17.933987140655518,-2.95,2.3,-0.39,3.76
17.96452307701111,-3.23,2.54,-0.54,4.14
17.965900897979736,-3.28,3.15,-1.06,4.66
17.96693515777588,-2.82,3.59,-1.24,4.73
17.985074996948242,-2.57,3.88,-1.67,4.94
17.986120223999023,-2.44,3.72,-2.09,4.91
18.001620054244995,-2.56,3.36,-2.07,4.7
18.002684116363525,-3.14,3.35,-2.08,5.04
18.01847505569458,-3.67,3.43,-1.94,5.38
18.01991891860962,-4.19,3.44,-2.15,5.83
18.033992052078247,-4.8,3.77,-2.5,6.59
18.063955068588257,-5.29,4.25,-2.8,7.34
18.065246105194092,-5.61,4.11,-3.51,7.79
18.066254138946533,-5.75,3.81,-4.16,8.05
18.085411071777344,-5.66,3.73,-4.49,8.13
18.08647394180298,-4.87,3.25,-4.44,7.34
18.101675987243652,-3.9,3.06,-4.21,6.5
18.102696895599365,-3.86,3.89,-4.24,6.92
18.11854600906372,-3.74,5.4,-3.94,7.65
18.119993209838867,-2.91,6.93,-3.99,8.5
18.13392210006714,-0.41,9.47,-2.51,9.8
18.163299083709717,2.53,11.59,-1.02,11.9
18.1646409034729,0.26,7.53,-2.2,7.84
18.165721893310547,-3.22,4.86,-4.26,7.22
18.185471057891846,-5.2,3.3,-5.4,8.19
18.18651008605957,-6.23,0.0,-5.47,8.29
18.20164918899536,-6.51,-4.72,-4.57,9.24
18.20268487930298,-0.83,-2.96,-2.26,3.81
18.21851921081543,2.79,-0.5,-0.74,2.92
18.219978094100952,-1.63,-2.17,-2.05,3.4
18.23413610458374,-6.44,-2.1,-3.81,7.77
18.26265811920166,-9.43,-1.69,-3.77,10.29
18.26412296295166,-10.19,-1.97,-2.6,10.69
18.26511812210083,-9.28,-2.77,-1.36,9.77
18.287052154541016,-7.7,-3.96,-0.54,8.67
18.288103103637695,-6.61,-4.73,-0.15,8.12
18.3016939163208,-6.07,-4.75,-0.05,7.7
18.302770137786865,-5.6,-4.48,-0.19,7.17
18.31876516342163,-5.04,-4.2,-0.43,6.57
18.32023000717163,-4.53,-3.96,-0.39,6.02
18.32217502593994,-4.15,-3.87,-0.18,5.67
18.34824800491333,-4.11,-3.9,0.06,5.66
18.349380016326904,-4.48,-3.66,0.2,5.78
18.35018801689148,-4.94,-3.19,0.11,5.88
18.36815118789673,-4.88,-2.45,-0.23,5.46
18.369153022766113,-3.86,-1.83,-0.6,4.31
18.384653091430664,-2.31,-1.34,-0.74,2.77
18.385693073272705,-0.82,-0.82,-0.54,1.27
18.402252197265625,0.14,-0.21,0.41,0.48
18.403264045715332,0.02,0.22,1.51,1.52
18.417151927947998,-0.94,1.13,2.28,2.71
18.420449018478394,-1.76,2.37,2.84,4.09
18.460061073303223,-1.43,3.7,3.36,5.19
18.46121311187744,0.39,4.87,3.56,6.04
18.462417125701904,3.03,5.19,2.64,6.56
18.464718103408813,5.44,5.4,0.76,7.7
18.482038974761963,6.6,5.92,-1.16,8.94
18.483109951019287,6.96,6.59,-2.25,9.84
18.50188112258911,8.22,7.78,-2.19,11.52
18.502937078475952,10.92,7.51,-1.56,13.34
18.51732301712036,13.54,6.2,-0.63,14.9
18.519606113433838,14.56,4.64,0.26,15.28
18.56072187423706,13.37,2.95,1.29,13.75
18.56189203262329,10.81,2.59,2.77,11.45
18.56325912475586,7.94,6.39,4.04,10.96
18.565589904785156,9.64,4.66,4.72,11.7
18.56908416748047,12.43,4.16,5.57,14.24
18.57889413833618,13.02,3.65,5.31,14.52
18.58928394317627,12.19,2.69,3.86,13.06
18.59916400909424,10.91,2.36,2.8,11.5
18.6090669631958,9.19,1.6,1.49,9.44
18.618846893310547,3.66,0.3,-1.18,3.85
18.64860701560974,-5.09,0.59,-3.6,6.26
18.649567127227783,-8.97,4.25,-2.41,10.21
18.650390148162842,-2.54,6.06,1.53,6.74
18.669065952301025,4.76,4.64,2.07,6.96
18.670144081115723,6.5,3.73,2.78,7.99
18.685249090194702,5.74,2.21,2.43,6.61
18.68824005126953,4.48,-0.11,1.35,4.68
18.701781034469604,1.67,-1.56,0.87,2.44
18.708385944366455,-0.15,-1.2,2.22,2.52
18.718153953552246,-0.07,-2.08,3.11,3.74
18.750237941741943,1.2,-2.11,2.86,3.75
18.75161099433899,2.71,-0.66,2.27,3.59
18.752608060836792,3.55,0.55,1.54,3.9
18.76923418045044,3.9,0.84,0.94,4.09
18.77032208442688,3.71,0.47,0.23,3.74
18.785271167755127,3.07,-0.07,0.13,3.07
18.78748321533203,1.7,-0.24,0.43,1.76
18.80220317840576,0.27,0.01,0.74,0.78
18.807635068893433,-0.56,0.35,0.64,0.91
18.817923069000244,-0.78,0.52,0.15,0.94
18.85461187362671,-0.84,0.27,-0.87,1.23
18.855943202972412,-0.58,-0.01,-1.39,1.5
18.857022047042847,0.12,0.03,-1.19,1.19
18.869261026382446,0.72,0.09,-0.83,1.1
18.870317935943604,0.84,-0.03,-0.47,0.96
18.885231971740723,0.65,-0.17,-0.36,0.76
18.886646032333374,0.48,-0.19,-0.29,0.59
18.901976108551025,0.78,-0.03,0.12,0.78
18.90661311149597,0.81,-0.03,0.39,0.89
18.917584896087646,0.53,0.07,0.87,1.02
18.952281951904297,0.03,0.08,1.25,1.25
18.953628063201904,-0.33,0.09,1.06,1.11
18.954647064208984,-0.18,0.23,0.73,0.78
18.969435214996338,0.39,0.13,0.04,0.41
18.970499992370605,0.97,-0.15,-0.47,1.08
18.985183000564575,1.21,-0.21,-0.47,1.31
18.98613405227661,0.96,-0.1,-0.44,1.06
19.001867055892944,0.4,0.05,-0.43,0.58
19.00616216659546,-0.18,0.08,-0.5,0.53
19.017755031585693,-0.42,0.16,-0.25,0.51
19.05302095413208,-0.3,0.37,0.0,0.47
19.05432891845703,-0.01,0.33,-0.04,0.33
19.055360078811646,0.04,0.04,-0.23,0.23
19.06955909729004,-0.09,-0.11,-0.2,0.24
19.07058095932007,-0.23,-0.11,-0.12,0.28
19.08521318435669,-0.18,-0.17,-0.16,0.29
19.08622908592224,-0.06,-0.21,0.12,0.24
19.102355003356934,-0.07,-0.2,0.56,0.59
19.10543704032898,-0.15,-0.04,0.72,0.73
19.117805004119873,-0.06,0.2,0.87,0.89
19.152812004089355,0.04,0.39,0.67,0.77
19.15419602394104,-0.04,0.51,0.08,0.51
19.155200958251953,-0.2,0.46,-0.49,0.7
19.169393062591553,-0.36,0.42,-0.99,1.13
19.17043709754944,-0.56,0.45,-1.24,1.43
19.185268878936768,-0.88,0.59,-1.29,1.66
19.186294078826904,-1.39,0.62,-1.26,1.97
19.202364921569824,-2.08,0.68,-1.18,2.48
19.204601049423218,-2.85,0.87,-1.11,3.17
19.21760106086731,-3.33,0.84,-1.32,3.67
19.22457218170166,-3.48,0.94,-1.26,3.81
19.26261806488037,-3.25,1.28,-1.37,3.75
19.263801097869873,-3.01,1.42,-1.8,3.78
19.265022039413452,-2.4,1.47,-1.87,3.37
19.266637086868286,-1.82,1.6,-1.64,2.92
19.27387809753418,-1.57,2.18,-1.89,3.28
19.28402090072632,-2.02,3.18,-1.64,4.1
19.293981075286865,-2.07,3.54,-1.07,4.23
19.30404305458069,-2.51,3.89,-1.06,4.74
19.314029216766357,-2.92,4.22,-1.53,5.35
19.323559045791626,-2.97,3.75,-1.88,5.13
19.355803966522217,-2.81,3.41,-2.05,4.87
19.357182025909424,-3.14,3.45,-2.04,5.09
19.35820198059082,-3.75,3.6,-2.12,5.61
19.36845111846924,-4.2,3.67,-2.38,6.06
19.373158931732178,-4.54,3.92,-2.57,6.52
19.385211944580078,-5.02,4.2,-3.01,7.2
19.392927169799805,-5.1,3.91,-3.47,7.3
19.402839183807373,-4.7,3.54,-3.8,7.0
19.413020133972168,-4.26,3.5,-4.68,7.23
19.423089027404785,-3.79,3.28,-5.62,7.53
19.453832149505615,-3.65,3.9,-5.9,7.95
19.455092906951904,-3.98,5.3,-6.02,8.95
19.456159114837646,-3.59,6.37,-4.88,8.79
19.470057010650635,-0.16,8.51,-1.36,8.61
19.472336053848267,4.7,9.8,0.24,10.87
19.48541498184204,2.63,6.14,-2.47,7.12
19.492205142974854,-1.48,3.81,-4.71,6.23
19.5020809173584,-4.4,2.08,-4.96,6.94
19.512310028076172,-6.22,-1.28,-4.16,7.59
19.522214889526367,-5.91,-4.72,-2.91,8.1
19.554376125335693,0.37,-3.6,-1.49,3.91
19.555684089660645,3.39,-2.19,-0.77,4.1
19.556754112243652,-1.31,-3.29,-1.95,4.04
19.56977415084839,-6.18,-3.1,-3.38,7.69
19.571549892425537,-9.05,-2.65,-3.38,10.01
19.585412979125977,-9.93,-2.73,-2.32,10.55
19.591644048690796,-9.33,-3.22,-1.05,9.92
19.602166175842285,-7.99,-4.18,-0.05,9.01
19.611804008483887,-6.75,-5.12,0.38,8.48
19.621405124664307,-6.05,-5.18,0.4,7.97
19.658973217010498,-5.77,-4.63,0.12,7.39
19.660396099090576,-5.54,-4.0,-0.26,6.83
19.66145420074463,-5.29,-3.71,-0.56,6.48
19.667773008346558,-5.18,-3.4,-0.69,6.23
19.685729026794434,-5.25,-2.98,-0.64,6.07
19.686755180358887,-5.35,-2.63,-0.46,5.97
19.702080011367798,-5.3,-1.96,-0.23,5.65
19.703114986419678,-4.96,-1.28,-0.45,5.14
19.718210220336914,-4.12,-0.81,-1.25,4.38
19.720744132995605,-2.93,-0.34,-1.87,3.49
19.76284408569336,-1.69,0.1,-2.13,2.72
19.763998985290527,-0.57,0.35,-1.95,2.06
19.76500105857849,0.12,0.51,-1.25,1.35
19.786468029022217,0.43,0.87,-0.58,1.13
19.78750205039978,0.66,1.46,-0.33,1.63
19.80274510383606,0.72,2.14,-0.31,2.27
19.80422019958496,0.75,2.99,-0.11,3.08
19.81942319869995,1.06,3.84,0.27,3.99
19.820898056030273,1.71,4.42,0.72,4.79
19.83518695831299,2.66,4.76,1.24,5.59
19.865675926208496,3.9,4.93,1.59,6.48
19.86700201034546,5.2,4.91,1.23,7.25
19.868016004562378,6.28,5.25,0.53,8.2
19.886414051055908,7.83,6.01,0.05,9.87
19.887459993362427,10.08,6.03,-0.14,11.74
19.902334213256836,12.0,5.32,0.27,13.12
19.90338897705078,12.68,4.33,1.11,13.44
19.91934609413147,12.03,3.56,2.25,12.74
19.920806884765625,10.85,3.13,3.23,11.74
19.935028076171875,9.51,4.06,3.7,10.98
19.964212894439697,8.08,7.29,3.87,11.55
19.965596199035645,9.53,4.49,4.02,11.27
19.96660804748535,10.65,3.41,4.9,12.2
19.986155033111572,10.28,2.8,4.94,11.74
19.987246990203857,8.78,2.7,4.58,10.26
20.002695083618164,6.38,3.16,4.63,8.49
20.004173040390015,2.88,2.45,3.86,5.4
20.019373893737793,-3.74,0.76,0.95,3.93
20.020867109298706,-9.36,1.51,-1.23,9.56
20.03496789932251,-6.18,2.59,-0.02,6.7
20.03643798828125,1.27,0.96,0.34,1.62
20.080655097961426,5.2,-0.51,0.03,5.22
20.08182191848755,6.34,1.36,-0.07,6.48
20.082810878753662,5.99,5.11,0.57,7.89
20.103102207183838,5.45,4.46,0.45,7.05
20.104149103164673,4.57,0.24,-0.7,4.62
20.119624137878418,3.06,-0.74,0.11,3.15
20.12104320526123,2.84,-1.46,2.31,3.94
20.135385036468506,2.92,-2.01,2.58,4.38
20.13683795928955,2.87,-1.45,1.82,3.69
20.151817083358765,2.45,-0.27,1.87,3.09
20.18237018585205,1.88,0.67,1.78,2.67
20.183692932128906,0.95,0.0,1.23,1.55
20.18470001220703,0.76,-0.25,1.74,1.91
20.203088998794556,0.62,0.04,1.64,1.75
20.20414113998413,0.44,-0.01,1.29,1.36
20.2193500995636,0.16,-0.05,1.25,1.26
20.22078800201416,-0.17,0.22,0.37,0.46
20.236268997192383,0.0,0.45,-0.69,0.82
20.237699031829834,0.49,0.39,-1.31,1.45
20.252363204956055,1.03,0.1,-1.14,1.53
20.282347202301025,1.51,-0.12,-0.39,1.56
20.28358507156372,1.65,-0.17,0.18,1.66
20.284590005874634,1.19,-0.14,0.59,1.33
20.302932024002075,0.63,0.01,0.85,1.05
20.303956031799316,0.24,0.21,0.84,0.89
20.319068908691406,0.01,0.3,0.56,0.63
20.320383071899414,-0.03,0.27,0.09,0.28
20.336448192596436,0.22,0.16,-0.17,0.32
20.337904930114746,0.57,-0.03,-0.25,0.62
20.351685047149658,0.66,-0.27,-0.4,0.81
20.38196301460266,0.69,-0.32,-0.45,0.88
20.383304119110107,0.78,-0.33,-0.19,0.86
20.384291172027588,0.73,-0.3,-0.05,0.79
20.40329909324646,0.48,-0.13,0.05,0.49
20.404341220855713,0.13,0.12,0.1,0.2
20.41911792755127,-0.15,0.17,-0.05,0.23
20.42018699645996,-0.25,0.12,-0.03,0.27
20.436238050460815,-0.18,0.04,0.27,0.32
20.43765115737915,0.0,-0.06,0.32,0.32
20.451608180999756,0.05,-0.19,-0.07,0.2
20.480408191680908,0.08,-0.25,-0.26,0.36
20.48179006576538,0.19,-0.22,-0.28,0.4
20.4827880859375,0.27,-0.13,-0.18,0.34
20.50322198867798,0.28,0.04,0.0,0.28
20.504228115081787,0.16,0.27,0.14,0.34
20.519411087036133,0.04,0.43,0.18,0.46
20.52061104774475,-0.06,0.48,0.13,0.5
20.536463022232056,-0.22,0.43,-0.03,0.48
20.537967205047607,-0.44,0.34,-0.22,0.59
20.551608085632324,-0.59,0.26,-0.33,0.72
20.58074402809143,-0.81,0.46,-0.69,1.15
20.58217191696167,-0.89,0.59,-0.93,1.41
20.58324098587036,-0.96,0.61,-0.88,1.43
20.60309100151062,-1.27,0.69,-1.0,1.75
20.604125022888184,-1.68,0.74,-0.97,2.07
20.619571208953857,-1.78,0.75,-0.55,2.0
20.620609998703003,-1.97,1.02,-0.65,2.31
20.63636803627014,-2.14,1.24,-1.08,2.69
20.637816905975342,-2.58,1.27,-1.57,3.27
20.651827096939087,-3.2,1.51,-1.64,3.89
20.6802020072937,-3.44,2.38,-0.84,4.26
20.681486129760742,-3.08,2.85,-0.72,4.25
20.682483196258545,-2.68,3.18,-0.6,4.2
20.70320701599121,-2.22,3.53,-0.49,4.19
20.70425319671631,-2.14,3.57,-0.74,4.22
20.71955394744873,-2.33,3.78,-1.38,4.64
20.720587015151978,-2.54,3.9,-2.08,5.09
20.736711978912354,-2.77,3.85,-2.46,5.34
20.738192081451416,-3.23,3.78,-2.49,5.56
20.751821994781494,-4.02,3.93,-2.62,6.2
20.78100299835205,-4.97,4.51,-2.88,7.3
20.782410144805908,-5.8,5.13,-3.19,8.37
20.783420085906982,-6.12,5.11,-3.49,8.7
20.803168058395386,-6.09,4.66,-3.99,8.64
20.8042631149292,-5.81,4.32,-4.52,8.53
20.81956720352173,-4.97,3.98,-5.24,8.24
20.820564031600952,-3.98,3.41,-6.12,8.05
20.836656093597412,-4.52,4.58,-6.39,9.06
20.838118076324463,-5.07,6.42,-6.04,10.16
20.851862907409668,-3.33,7.74,-4.25,9.43
20.853379011154175,1.44,11.36,-0.78,11.47
20.89911699295044,3.6,11.26,-0.2,11.82
20.90027904510498,1.06,6.27,-2.12,6.7
20.901286125183105,-2.82,3.35,-4.43,6.22
20.920266151428223,-5.59,0.86,-5.25,7.71
20.92131209373474,-7.19,-3.86,-5.51,9.84
20.936374187469482,-4.92,-6.77,-4.09,9.31
20.937798023223877,2.57,-2.79,-0.71,3.85
20.953258991241455,2.45,-2.0,-0.36,3.18
20.95469093322754,-2.33,-2.76,-2.24,4.25
20.968919038772583,-6.47,-2.99,-3.17,7.8
20.998525142669678,-8.61,-3.32,-2.73,9.62
20.999905109405518,-9.25,-3.27,-1.54,9.93
21.00087022781372,-8.99,-3.53,-0.31,9.66
21.020211219787598,-8.08,-4.51,0.31,9.25
21.0212721824646,-7.34,-5.29,0.57,9.06
21.03660821914673,-6.96,-5.39,0.48,8.81
21.03807806968689,-6.62,-4.86,0.28,8.21
21.053202152252197,-6.08,-4.15,0.14,7.36
21.05466103553772,-5.47,-4.0,0.09,6.77
21.06877899169922,-5.24,-3.88,0.26,6.52
21.098544120788574,-5.52,-3.57,0.54,6.59
21.099917888641357,-5.98,-3.03,0.89,6.76
21.100884914398193,-6.32,-2.46,0.81,6.83
21.12050199508667,-5.89,-1.6,0.15,6.1
21.121490955352783,-4.65,-0.72,-0.8,4.77
21.135822057724,-2.84,0.03,-1.34,3.14
21.136803150177002,-0.9,0.58,-1.31,1.69
21.153746128082275,0.7,1.02,-0.85,1.5
21.155203104019165,1.52,1.14,-0.6,1.99
21.16811990737915,1.25,1.29,-0.74,1.94
21.1964750289917,0.63,2.35,-0.58,2.5
21.197883129119873,0.69,3.95,-0.04,4.01
21.198853969573975,1.69,5.19,0.71,5.5
21.201322078704834,3.01,5.44,1.32,6.35
21.20262908935547,3.83,5.35,1.79,6.81
21.204104900360107,4.28,5.59,1.7,7.24
21.20543909072876,5.01,6.11,1.27,8.0
21.209092140197754,6.65,6.67,1.05,9.47
21.21932101249695,9.0,6.66,0.49,11.2
21.229300022125244,11.41,6.22,0.23,12.99
21.261898040771484,13.08,5.14,-0.04,14.05
21.262825965881348,13.2,3.68,0.35,13.7
21.264843940734863,12.23,2.85,1.68,12.66
21.268752098083496,10.09,5.46,2.98,11.85
21.278722047805786,9.68,6.13,3.44,11.96
21.289037227630615,11.8,2.24,3.63,12.54
21.29883098602295,12.54,1.83,4.1,13.31
21.30885601043701,11.92,1.46,3.23,12.43
21.318635940551758,10.47,2.47,2.77,11.1
21.328447103500366,9.39,4.48,2.65,10.73
21.358213901519775,5.63,2.7,0.23,6.24
21.359443187713623,-2.92,1.48,-2.55,4.14
21.360687017440796,-7.68,4.37,-1.8,9.01
21.368232011795044,-3.03,4.73,2.12,6.0
21.37837314605713,1.68,1.47,2.21,3.14
21.388017177581787,3.28,0.72,1.83,3.82
21.39804220199585,3.81,1.82,1.61,4.51
21.407928943634033,2.72,1.96,1.23,3.57
21.417827129364014,3.7,2.89,0.75,4.75
21.42801809310913,5.4,0.36,0.46,5.43
21.465250968933105,3.63,-1.04,0.66,3.83
21.466689109802246,2.44,-0.44,2.42,3.46
21.467528104782104,2.6,-0.96,2.61,3.8
21.48679494857788,3.1,-1.18,1.62,3.69
21.487861156463623,2.83,-0.37,0.67,2.93
21.503106117248535,1.97,0.39,-0.18,2.01
21.50413203239441,1.44,0.55,-0.16,1.54
21.51998519897461,1.02,0.24,0.63,1.22
21.521461009979248,0.69,-0.03,1.4,1.56
21.53565502166748,0.23,-0.08,1.29,1.31
21.5643150806427,-0.18,0.01,0.3,0.35
21.5657639503479,-0.24,0.04,-0.43,0.49
21.566762924194336,-0.18,0.15,-0.48,0.53
21.587090015411377,0.0,0.24,-0.48,0.53
21.58798909187317,0.21,0.13,-0.55,0.6
21.603154182434082,0.51,-0.05,-0.57,0.76
21.604255199432373,0.97,-0.06,-0.71,1.2
21.619935989379883,1.32,-0.02,-0.54,1.42
21.621394157409668,1.33,-0.01,-0.26,1.35
21.635935068130493,0.84,0.04,-0.09,0.84
21.637412071228027,0.29,0.03,0.14,0.32
21.68049716949463,0.01,0.07,0.57,0.57
21.68164300918579,-0.06,0.14,0.65,0.66
21.6826171875,0.06,0.09,0.4,0.41
21.704678058624268,0.34,-0.07,0.11,0.36
21.70616602897644,0.72,-0.22,0.09,0.75
21.720126152038574,0.94,-0.2,0.22,0.98
21.72159194946289,0.86,-0.11,0.29,0.91
21.736931085586548,0.53,-0.04,0.1,0.54
21.738399028778076,0.14,0.02,-0.01,0.14
21.752387046813965,-0.15,0.06,0.09,0.18
21.78290319442749,-0.3,0.13,0.3,0.44
21.784198999404907,-0.36,0.24,0.24,0.49
21.785181045532227,-0.24,0.2,0.1,0.32
21.803651094436646,-0.12,0.14,0.07,0.19
21.80464506149292,-0.04,0.04,0.0,0.05
21.819886207580566,0.09,-0.02,-0.31,0.32
21.820926189422607,0.15,-0.03,-0.46,0.48
21.83647918701172,0.24,0.0,-0.48,0.53
21.83792209625244,0.22,0.13,-0.64,0.68
21.852281093597412,0.24,0.35,-0.81,0.91
21.88014316558838,0.25,0.56,-0.8,1.0
21.881529092788696,0.28,0.65,-0.48,0.85
21.882535934448242,0.15,0.76,-0.01,0.77
21.884646892547607,-0.43,0.72,0.1,0.84
21.886096954345703,-1.17,0.55,-0.07,1.29
21.8939471244812,-1.67,0.29,-0.06,1.69
21.904296875,-1.69,0.26,-0.26,1.72
21.913965225219727,-1.59,0.46,-0.46,1.71
21.924156188964844,-1.56,0.67,-0.91,1.92
21.934089183807373,-1.7,0.79,-0.95,2.1
21.96422815322876,-1.86,1.06,-0.94,2.33
21.965409994125366,-2.43,1.2,-1.45,3.07
21.966392040252686,-3.84,1.56,-1.05,4.27
21.987260103225708,-3.67,2.04,-0.71,4.25
21.98830223083496,-3.03,2.05,-1.13,3.82
22.00341510772705,-2.72,2.77,-1.23,4.07
22.004460096359253,-2.51,3.43,-1.53,4.51
22.02004098892212,-2.38,3.87,-1.98,4.95
22.02326202392578,-2.55,3.7,-2.63,5.2
22.036091089248657,-2.67,3.25,-2.87,5.09
22.069879055023193,-2.65,3.0,-2.83,4.9
22.071145057678223,-3.14,3.14,-2.7,5.19
22.072216987609863,-3.87,3.47,-2.77,5.88
22.087560176849365,-4.29,3.56,-2.94,6.3
22.088603019714355,-4.5,3.78,-2.82,6.51
22.10332202911377,-4.82,3.86,-2.81,6.78
22.104379177093506,-5.08,3.52,-2.93,6.83
22.1203830242157,-4.89,2.85,-3.2,6.5
22.122759103775024,-4.24,2.32,-3.39,5.9
22.13508701324463,-3.2,2.31,-3.54,5.3
22.16900396347046,-2.74,3.31,-3.95,5.83
22.170387029647827,-3.44,4.74,-4.18,7.19
22.17135500907898,-3.54,5.78,-3.77,7.75
22.187528133392334,-1.49,7.52,-2.25,7.98
22.188551902770996,2.45,10.91,-1.22,11.24
22.203369140625,2.17,9.54,-2.43,10.08
22.204385995864868,-1.22,5.89,-3.88,7.15
22.221374988555908,-3.96,3.76,-4.51,7.08
22.2228422164917,-5.42,1.01,-4.46,7.09
22.236330032348633,-6.04,-2.34,-4.26,7.75
22.26831293106079,-4.61,-4.51,-3.59,7.38
22.26966905593872,1.67,-2.62,-1.61,3.49
22.27064609527588,2.65,-2.63,-0.71,3.8
22.287825107574463,-2.13,-2.84,-1.66,3.91
22.288815021514893,-6.4,-2.66,-2.54,7.38
22.304033041000366,-8.16,-3.02,-2.17,8.96
22.305450916290283,-8.17,-3.48,-1.09,8.94
22.32058095932007,-7.61,-4.47,-0.07,8.82
22.322006225585938,-7.04,-5.66,0.51,9.04
22.336328983306885,-6.77,-6.08,0.58,9.11
22.36863899230957,-6.51,-5.87,0.36,8.77
22.369951009750366,-6.05,-5.52,0.16,8.19
22.370924949645996,-5.65,-5.32,-0.11,7.76
22.387742042541504,-5.59,-5.06,-0.09,7.54
22.388761043548584,-5.63,-4.55,0.07,7.23
22.403573989868164,-5.6,-3.83,0.14,6.78
22.404569149017334,-5.55,-3.06,0.07,6.33
22.421585083007812,-5.45,-2.18,-0.32,5.87
22.42298698425293,-5.27,-1.45,-1.19,5.59
22.436172008514404,-4.63,-0.67,-1.78,5.0
22.440264225006104,-3.4,0.0,-1.85,3.87
22.48087215423584,-1.8,0.34,-1.71,2.5
22.482015132904053,-0.19,0.61,-1.27,1.42
22.483002185821533,1.03,1.21,-1.09,1.92
22.504914045333862,1.65,2.24,-1.5,3.16
22.505914211273193,1.62,3.3,-1.79,4.08
22.520461082458496,1.48,4.18,-1.88,4.81
22.52195692062378,1.8,4.8,-1.67,5.39
22.537618160247803,2.62,5.24,-1.06,5.95
22.53909206390381,3.59,5.53,-0.22,6.59
22.55255699157715,4.39,5.5,0.63,7.06
22.583394050598145,4.88,5.21,1.27,7.25
22.58477210998535,5.23,4.92,1.25,7.28
22.58577299118042,6.03,4.87,0.82,7.79
22.60410213470459,7.36,4.57,0.06,8.66
22.60520887374878,8.95,4.3,-0.29,9.93
22.6200590133667,10.64,4.16,0.09,11.42
22.621106147766113,11.26,3.37,0.21,11.75
22.637206077575684,10.36,2.76,0.86,10.75
22.638626098632812,9.37,2.76,2.23,10.01
22.652574062347412,8.97,2.36,3.13,9.78
22.68237805366516,8.57,1.91,3.85,9.58
22.683648109436035,7.88,1.53,4.3,9.1
22.68464422225952,7.11,1.35,4.41,8.47
22.704020977020264,6.51,1.67,4.34,8.0
22.705060958862305,4.41,6.27,4.03,8.66
22.72019600868225,4.45,5.82,2.98,7.9
22.721221923828125,7.2,3.76,3.83,8.98
22.737462043762207,7.75,1.18,3.94,8.77
22.738924980163574,2.77,-1.27,2.04,3.66
22.752624034881592,-5.49,-0.43,-0.56,5.53
22.782366037368774,-10.06,3.21,-0.33,10.56
22.783761024475098,-5.1,4.71,2.91,7.52
22.78457808494568,2.17,1.56,3.27,4.22
22.804061889648438,5.83,0.31,1.89,6.13
22.805106163024902,6.06,2.68,0.24,6.63
22.820104122161865,3.9,4.78,0.49,6.18
22.821115016937256,2.62,3.55,1.56,4.67
22.8370840549469,4.6,1.82,1.89,5.29
22.83833122253418,5.29,-0.75,1.54,5.56
22.852686882019043,3.72,-0.73,1.92,4.24
22.88169813156128,2.65,-0.7,2.05,3.42
22.883102893829346,2.32,-0.73,1.3,2.75
22.88412618637085,2.38,-0.42,0.74,2.52
22.904072046279907,2.08,-0.04,0.1,2.08
22.905117988586426,1.59,0.15,-0.32,1.62
22.920114040374756,1.01,0.08,-0.32,1.06
22.921075105667114,0.46,0.02,-0.19,0.49
22.937283992767334,-0.08,0.01,0.01,0.08
22.93873906135559,-0.62,0.12,0.32,0.7
22.95269012451172,-1.12,0.14,0.3,1.16
22.9828040599823,-1.26,-0.17,-0.3,1.3
22.984142065048218,-0.83,-0.39,-0.63,1.11
22.985177040100098,-0.03,-0.26,-0.42,0.49
23.004030227661133,0.6,0.0,-0.37,0.7
23.005110025405884,0.83,0.13,-0.42,0.93
23.02035617828369,0.74,0.21,-0.38,0.85
23.021376132965088,0.62,0.14,-0.22,0.67
23.037324905395508,0.46,0.13,-0.27,0.54
23.03877592086792,0.05,0.23,-0.62,0.66
23.05280590057373,-0.31,-0.02,-0.22,0.38
23.08166003227234,-0.03,-0.08,0.76,0.76
23.082984924316406,0.48,0.03,1.07,1.17
23.0839581489563,0.71,0.03,0.87,1.12
23.10429811477661,0.72,0.02,0.46,0.85
23.10538601875305,0.83,0.01,0.05,0.83
23.12056016921997,1.06,0.15,0.06,1.07
23.121592044830322,0.95,0.14,0.1,0.96
23.137495040893555,0.32,-0.07,0.02,0.32
23.138896942138672,-0.28,-0.1,0.08,0.3
23.152822971343994,-0.47,0.09,0.12,0.49
23.182519912719727,-0.46,0.17,0.14,0.51
23.183856964111328,-0.41,0.23,0.13,0.48
23.184876918792725,-0.26,0.25,0.09,0.37
23.205705165863037,-0.25,0.26,-0.03,0.36
23.206769943237305,-0.3,0.21,-0.11,0.38
23.218153953552246,-0.23,0.23,-0.05,0.32
23.219204902648926,-0.32,0.29,0.04,0.43
23.237521171569824,-0.33,0.48,0.03,0.58
23.23898696899414,-0.19,0.56,-0.02,0.59
23.252835035324097,-0.2,0.36,-0.24,0.47
23.254353046417236,-0.24,0.28,-0.31,0.48
23.30140495300293,-0.18,0.29,-0.37,0.5
23.302605152130127,-0.38,0.35,-0.46,0.69
23.30359697341919,-0.74,0.39,-0.74,1.11
23.32146406173706,-1.05,0.51,-1.09,1.59
23.32253909111023,-1.13,0.77,-1.02,1.7
23.337389945983887,-1.24,0.8,-0.82,1.68
23.338887214660645,-1.58,0.77,-0.97,2.0
23.354249954223633,-2.39,0.75,-1.45,2.89
23.35574197769165,-3.24,1.2,-1.43,3.73
23.369705200195312,-3.4,2.18,-0.83,4.12
23.40133309364319,-2.98,2.38,-0.98,3.93
23.40268611907959,-2.65,2.56,-1.08,3.83
23.40369987487793,-2.51,2.57,-1.02,3.73
23.421438217163086,-2.34,2.53,-0.87,3.55
23.42249822616577,-2.27,3.05,-1.14,3.96
23.43745994567871,-2.38,3.77,-1.67,4.76
23.43850302696228,-2.61,4.0,-2.28,5.29
23.45419216156006,-3.06,3.99,-2.83,5.76
23.45567512512207,-3.75,4.07,-3.06,6.32
23.469824075698853,-4.4,4.22,-2.97,6.78
23.499829053878784,-5.12,4.53,-3.04,7.48
23.501281023025513,-5.88,5.08,-3.38,8.47
23.502272129058838,-6.15,5.3,-3.77,8.95
23.521339893341064,-6.02,4.93,-4.17,8.82
23.522364139556885,-5.49,4.3,-4.48,8.28
23.53715205192566,-4.72,3.94,-5.02,7.93
23.538177967071533,-4.05,3.97,-5.4,7.83
23.554063081741333,-4.16,5.17,-5.44,8.58
23.555556058883667,-3.48,6.45,-5.0,8.87
23.570045948028564,-1.14,7.9,-3.78,8.83
23.60090208053589,3.25,11.6,-1.76,12.17
23.60223388671875,3.01,9.97,-2.13,10.63
23.60324716567993,-0.62,5.18,-3.39,6.22
23.621462106704712,-3.79,2.15,-4.63,6.35
23.622512102127075,-6.03,-1.65,-5.27,8.17
23.637495040893555,-7.2,-6.23,-5.34,10.91
23.638586044311523,-3.16,-6.34,-3.27,7.8
23.653071880340576,3.59,-2.98,-0.58,4.7
23.65453600883484,1.67,-3.15,-0.94,3.68
23.67008900642395,-3.45,-3.31,-2.86,5.57
23.699174880981445,-7.39,-3.54,-3.63,8.96
23.700679063796997,-9.1,-3.8,-2.93,10.28
23.70167589187622,-9.06,-3.84,-1.57,9.96
23.721204042434692,-8.03,-4.03,-0.25,8.98
23.722218990325928,-6.89,-4.59,0.58,8.29
23.7376389503479,-6.25,-5.14,0.77,8.12
23.738673210144043,-6.14,-5.32,0.48,8.13
23.754454135894775,-6.17,-5.12,0.05,8.01
23.755919933319092,-5.97,-4.59,-0.3,7.53
23.770055055618286,-5.51,-4.13,-0.39,6.89
23.798200130462646,-5.01,-3.77,-0.2,6.27
23.799535036087036,-4.73,-3.52,0.07,5.89
23.80053400993347,-4.87,-3.21,0.34,5.84
23.821306228637695,-5.36,-2.46,0.59,5.92
23.8223659992218,-5.82,-1.44,0.52,6.01
23.836423873901367,-5.79,-0.38,-0.17,5.8
23.837456226348877,-4.75,0.54,-1.34,4.96
23.853950023651123,-2.76,1.02,-2.44,3.82
23.854980945587158,-0.67,1.47,-2.28,2.79
23.870209217071533,0.71,2.14,-1.16,2.53
23.89836311340332,1.56,2.64,-0.43,3.09
23.899614095687866,2.18,3.17,-0.26,3.85
23.90055799484253,2.55,3.83,-0.47,4.62
23.92149806022644,2.77,4.47,-0.75,5.31
23.922559022903442,3.26,5.09,-0.63,6.07
23.93779993057251,4.1,5.45,-0.31,6.82
23.938817977905273,5.01,5.42,-0.49,7.39
23.95418906211853,5.93,5.75,-0.9,8.3
23.955214977264404,7.46,6.22,-0.7,9.73
23.970194101333618,9.46,5.93,-0.19,11.16
23.998462200164795,10.82,5.15,0.48,11.99
23.999785900115967,11.21,4.7,1.22,12.21
24.000790119171143,10.82,4.09,1.76,11.7
24.021449089050293,10.01,3.37,2.41,10.83
24.022568225860596,8.97,3.07,2.78,9.87
24.03777313232422,6.79,6.47,3.19,9.9
24.038806915283203,7.12,5.44,3.87,9.76
24.054160118103027,8.91,3.93,5.02,10.95
24.0551860332489,9.54,3.49,5.31,11.46
24.070186138153076,8.9,3.45,5.01,10.78
24.071646213531494,7.39,3.78,5.23,9.81
24.11434507369995,4.6,4.08,5.55,8.28
24.11548614501953,-0.54,2.23,3.99,4.6
24.11648988723755,-6.76,0.74,1.21,6.9
24.118964195251465,-6.67,1.15,0.47,6.78
24.120293140411377,0.43,1.29,0.62,1.49
24.121721029281616,5.13,1.01,-0.14,5.23
24.123076915740967,6.02,2.66,-0.28,6.58
24.12718105316162,6.4,5.22,0.99,8.31
24.137410163879395,8.24,2.89,0.89,8.77
24.14729905128479,7.81,0.33,-0.34,7.82
24.174970149993896,6.21,0.83,1.45,6.43
24.175934076309204,4.87,-0.84,2.51,5.54
24.176918983459473,3.86,-1.9,2.03,4.75
24.188180923461914,2.98,-1.11,1.54,3.53
24.19698405265808,1.84,-0.03,0.82,2.01
24.20681095123291,0.76,0.31,0.55,0.98
24.217007160186768,0.13,-0.14,0.98,0.99
24.226460933685303,-0.12,-0.5,1.79,1.86
24.236801147460938,-0.44,-0.17,2.32,2.36
24.2466459274292,-0.49,0.2,1.86,1.93
24.275772094726562,-0.38,0.17,0.92,1.0
24.276710033416748,-0.38,0.08,-0.21,0.44
24.278400897979736,-0.28,0.14,-0.87,0.92
24.287755012512207,0.03,0.13,-0.92,0.92
24.296470165252686,0.33,0.0,-0.94,0.99
24.306047916412354,0.87,-0.08,-0.9,1.25
24.31610918045044,1.46,-0.09,-0.95,1.74
24.325855016708374,1.45,-0.16,-0.94,1.73
24.336350917816162,0.96,-0.18,-0.46,1.07
24.346208095550537,0.32,-0.08,0.17,0.37
24.379420042037964,-0.28,0.17,0.69,0.76
24.38077688217163,-0.68,0.27,0.88,1.14
24.381762981414795,-0.63,0.3,0.57,0.9
24.38534688949585,-0.04,0.17,0.17,0.24
24.404425144195557,0.73,-0.04,0.03,0.73
24.405499935150146,1.04,-0.15,-0.05,1.05
24.421555995941162,0.76,-0.06,0.03,0.76
24.42520523071289,0.35,0.15,-0.11,0.39
24.435277938842773,0.14,0.18,-0.02,0.22
24.44524621963501,0.0,0.05,0.04,0.06
24.483901023864746,-0.15,0.0,0.0,0.15
24.484973907470703,-0.34,0.06,0.06,0.35
24.485780000686646,-0.44,0.21,0.09,0.49
24.505186080932617,-0.42,0.36,0.0,0.55
24.506237983703613,-0.33,0.31,-0.16,0.48
24.521045207977295,-0.1,0.15,-0.19,0.26
24.522075176239014,0.21,-0.04,-0.2,0.29
24.53770899772644,0.41,-0.15,-0.2,0.48
24.538958072662354,0.4,-0.12,-0.18,0.45
24.553410053253174,0.36,-0.03,-0.09,0.37
24.582390069961548,0.28,0.08,0.14,0.32
24.58378314971924,0.09,0.14,0.42,0.45
24.58478593826294,-0.01,0.12,0.45,0.46
24.604753971099854,0.03,0.07,0.37,0.37
24.605801105499268,0.02,0.11,0.2,0.22
24.621289014816284,-0.15,0.32,-0.19,0.4
24.62231707572937,-0.53,0.48,-0.52,0.88
24.638193130493164,-0.81,0.59,-0.59,1.16
24.639689922332764,-1.04,0.66,-0.75,1.44
24.653496026992798,-1.37,0.6,-0.97,1.78
24.681396007537842,-1.75,0.45,-1.1,2.11
24.682723999023438,-2.07,0.51,-1.16,2.42
24.683495044708252,-2.21,0.76,-1.18,2.61
24.6855731010437,-2.19,0.99,-1.12,2.65
24.69300103187561,-2.37,1.17,-1.31,2.94
24.70333504676819,-2.58,1.47,-1.2,3.2
24.713157176971436,-2.47,1.96,-0.8,3.25
24.723222017288208,-2.08,2.53,-0.46,3.3
24.73298692703247,-1.64,3.18,-0.35,3.59
24.742932081222534,-1.6,3.61,-0.6,3.99
24.779693126678467,-1.92,3.67,-0.95,4.24
24.780896186828613,-2.16,3.55,-1.49,4.41
24.781675100326538,-2.22,3.33,-1.94,4.44
24.784162998199463,-2.17,3.03,-2.01,4.23
24.804563999176025,-2.5,2.72,-2.14,4.26
24.80561900138855,-3.17,2.67,-2.23,4.7
24.821070194244385,-3.88,2.88,-2.44,5.41
24.82209300994873,-4.5,3.39,-2.73,6.26
24.837090015411377,-4.94,3.81,-2.93,6.89
24.84219789505005,-5.2,3.85,-3.25,7.24
24.852964878082275,-5.44,3.63,-3.55,7.44
24.88453722000122,-5.55,3.72,-3.78,7.67
24.885858058929443,-5.24,3.49,-4.11,7.51
24.886878967285156,-4.33,2.94,-4.13,6.66
24.90511703491211,-3.6,3.27,-4.06,6.33
24.9061279296875,-3.99,4.95,-4.12,7.57
24.921268939971924,-3.67,6.24,-3.96,8.25
24.92233896255493,-1.81,7.51,-3.18,8.35
24.938376903533936,2.06,11.17,-1.8,11.5
24.94173288345337,1.68,10.17,-2.59,10.62
24.95367407798767,-1.69,6.49,-4.0,7.8
24.98480796813965,-4.18,4.43,-5.2,8.0
24.986135959625244,-5.7,1.41,-5.65,8.14
24.98715305328369,-6.86,-2.36,-5.59,9.15
25.005276203155518,-5.51,-4.84,-4.5,8.6
25.00629711151123,1.84,-1.39,-1.7,2.86
25.02118492126465,2.49,-0.51,-1.14,2.78
25.022218227386475,-2.17,-1.48,-2.85,3.87
25.038665056228638,-6.49,-1.89,-4.0,7.85
25.04079508781433,-8.93,-2.2,-3.55,9.85
25.053627014160156,-9.56,-2.54,-2.07,10.1
25.082886219024658,-9.04,-3.22,-0.62,9.61
25.08428406715393,-8.02,-4.09,0.34,9.0
25.08524990081787,-7.26,-4.81,0.73,8.73
25.105401039123535,-6.8,-4.99,0.64,8.45
25.106462001800537,-6.28,-4.77,0.34,7.89
25.120452880859375,-5.72,-4.43,0.18,7.23
25.12145709991455,-5.28,-4.15,0.2,6.71
25.139097213745117,-5.09,-4.04,0.31,6.5
25.140563011169434,-5.11,-3.88,0.44,6.43
25.153869152069092,-5.02,-3.48,0.47,6.12
25.182764053344727,-4.75,-2.9,0.25,5.57
25.18414807319641,-4.26,-2.41,-0.42,4.91
25.185126066207886,-3.38,-1.82,-1.14,4.0
25.205472946166992,-2.27,-1.17,-1.29,2.86
25.206536054611206,-1.15,-0.59,-1.1,1.69
25.2215518951416,-0.11,-0.12,-0.65,0.67
25.22259521484375,0.68,0.39,-0.23,0.81
25.238469123840332,1.08,1.08,0.09,1.53
25.23990821838379,0.91,1.98,0.39,2.21
25.253847122192383,0.53,3.16,0.84,3.31
25.287793159484863,0.41,4.37,1.14,4.53
25.289155960083008,0.82,5.52,1.3,5.72
25.29016399383545,2.01,6.57,1.06,6.95
25.305387020111084,4.11,7.29,0.23,8.37
25.30645990371704,6.9,7.73,-0.63,10.38
25.321532011032104,9.74,7.75,-0.97,12.48
25.322566032409668,11.92,7.12,-0.8,13.9
25.338793992996216,12.72,5.97,-0.28,14.05
25.3403000831604,12.27,4.55,0.53,13.09
25.353865146636963,11.55,3.65,1.41,12.19
25.38819694519043,11.22,3.25,2.12,11.87
25.389535903930664,11.1,2.95,2.66,11.78
25.39055299758911,8.97,6.01,3.22,11.26
25.40538501739502,7.93,6.8,3.43,10.99
25.406442165374756,9.6,3.91,3.85,11.05
25.421876907348633,10.6,3.25,4.49,11.96
25.423320055007935,10.27,2.91,4.21,11.47
25.438633918762207,8.45,3.04,3.71,9.71
25.440123081207275,4.59,3.1,2.41,6.04
25.45387601852417,-3.0,2.11,-0.44,3.69
25.487385034561157,-9.49,3.74,-1.44,10.3
25.48871421813965,-4.04,5.16,1.16,6.65
25.489727020263672,3.81,2.62,1.35,4.81
25.50529718399048,5.62,0.07,0.72,5.66
25.50632619857788,4.51,-0.38,0.56,4.56
25.521554946899414,3.74,1.04,0.86,3.97
25.522571086883545,2.92,2.15,0.58,3.67
25.538572072982788,2.49,1.91,0.43,3.16
25.540033102035522,3.32,1.28,0.48,3.59
25.553947925567627,3.87,-0.48,0.33,3.91
25.58526110649109,2.97,-0.83,0.74,3.17
25.58658504486084,2.62,-0.83,1.73,3.24
25.58753490447998,2.95,-1.14,1.47,3.48
25.605586051940918,3.78,-0.28,0.89,3.89
25.606637001037598,3.66,0.8,-0.01,3.74
25.621239185333252,2.72,0.65,-0.5,2.84
25.622297048568726,2.01,-0.49,1.22,2.4
25.638683080673218,1.9,-0.65,3.48,4.01
25.64017105102539,0.7,-0.05,3.93,3.99
25.654006004333496,-1.0,0.11,2.98,3.14
25.656090021133423,-1.31,0.18,1.63,2.09
25.70083713531494,-0.67,0.19,0.56,0.89
25.702007055282593,0.11,-0.01,-0.62,0.62
25.702970027923584,0.58,-0.01,-1.85,1.93
25.722153186798096,0.9,0.08,-2.29,2.46
25.72319507598877,1.09,0.14,-1.76,2.07
25.736854076385498,0.83,0.14,-1.08,1.36
25.7382709980011,0.01,0.17,-0.31,0.35
25.755142211914062,-0.55,0.36,0.21,0.69
25.756607055664062,-0.87,0.47,0.35,1.04
25.770977020263672,-0.9,0.63,0.14,1.1
25.802390098571777,-0.6,0.52,-0.49,0.93
25.803704023361206,-0.42,0.23,-0.75,0.88
25.80472707748413,-0.26,-0.01,-0.97,1.0
25.82241201400757,0.12,-0.16,-0.85,0.87
25.82347822189331,0.55,-0.11,-0.26,0.61
25.83841896057129,0.8,0.06,0.05,0.8
25.83948802947998,0.79,0.09,0.24,0.83
25.85508108139038,0.47,0.1,0.26,0.54
25.856449127197266,0.29,0.02,0.41,0.5
25.870886087417603,0.4,-0.05,0.46,0.61
25.900830030441284,0.58,-0.16,0.31,0.67
25.902245044708252,0.59,-0.12,-0.07,0.6
25.903307914733887,0.4,-0.05,-0.3,0.5
25.92209506034851,0.21,0.01,-0.1,0.23
25.923169136047363,0.24,0.03,0.22,0.32
25.938554048538208,0.32,0.04,0.26,0.41
25.939599990844727,0.3,0.07,0.14,0.33
25.955332040786743,0.19,0.21,-0.01,0.28
25.956775188446045,0.06,0.33,-0.11,0.35
25.97111415863037,-0.16,0.36,-0.29,0.48
26.000060081481934,-0.45,0.36,-0.34,0.66
26.0014328956604,-0.82,0.4,-0.28,0.95
26.002546072006226,-1.23,0.51,-0.29,1.36
26.022311210632324,-1.62,0.61,-0.41,1.77
26.023345947265625,-2.04,0.92,-0.3,2.25
26.038723945617676,-1.91,1.33,-0.28,2.34
26.03975009918213,-1.86,1.29,-0.69,2.36
26.055268049240112,-1.94,1.24,-0.86,2.45
26.056719064712524,-2.04,1.15,-0.83,2.48
26.071022033691406,-2.02,1.21,-0.8,2.48
26.09819793701172,-1.94,1.3,-0.73,2.44
26.099575996398926,-1.99,1.41,-0.67,2.52
26.100616931915283,-2.36,1.47,-0.66,2.85
26.102367877960205,-2.58,1.53,-0.81,3.1
26.103512048721313,-2.58,1.55,-1.07,3.19
26.112579107284546,-2.49,1.61,-1.36,3.26
26.12258505821228,-2.31,1.8,-1.53,3.3
26.132323026657104,-2.16,2.2,-1.54,3.44
26.142406940460205,-2.36,2.65,-1.69,3.93
26.152504920959473,-2.92,3.16,-2.03,4.75
26.188682079315186,-3.23,3.45,-2.54,5.36
26.189873218536377,-3.21,3.26,-2.63,5.27
26.19073510169983,-3.44,3.14,-2.47,5.27
26.206270217895508,-4.28,3.47,-2.47,6.03
26.20726490020752,-5.34,3.99,-2.65,7.17
26.221107959747314,-6.13,4.4,-2.98,8.11
26.222146034240723,-6.25,4.37,-3.42,8.35
26.238428115844727,-5.81,4.02,-3.79,8.01
26.241579055786133,-5.11,3.61,-4.23,7.55
26.253979206085205,-4.27,3.41,-4.55,7.11
26.28780221939087,-3.72,3.59,-5.02,7.2
26.289023876190186,-3.46,5.08,-4.87,7.84
26.289877891540527,-2.34,6.88,-4.49,8.54
26.306222915649414,0.43,9.61,-2.9,10.04
26.3072829246521,2.92,12.1,-1.94,12.59
26.32179594039917,0.96,8.77,-2.48,9.16
26.32283902168274,-2.18,5.56,-4.0,7.18
26.338906049728394,-4.67,3.05,-5.37,7.74
26.3407621383667,-6.35,-0.55,-5.64,8.51
26.354185104370117,-7.55,-5.11,-5.51,10.65
26.387187004089355,-3.77,-5.06,-3.55,7.24
26.38860011100769,2.58,-0.96,-0.71,2.84
26.389674186706543,0.55,-1.45,-0.37,1.59
26.40616512298584,-4.31,-2.28,-2.2,5.34
26.407235145568848,-8.13,-2.57,-2.91,9.0
26.421791076660156,-9.82,-2.66,-2.02,10.37
26.42283606529236,-9.75,-2.84,-0.42,10.16
26.43910503387451,-8.61,-3.51,0.75,9.32
26.44060516357422,-7.28,-4.43,1.16,8.6
26.45461416244507,-6.47,-4.94,0.84,8.18
26.460357189178467,-6.21,-4.98,0.32,7.96
26.499967098236084,-6.06,-4.79,0.04,7.72
26.50116491317749,-5.9,-4.59,-0.07,7.47
26.502175092697144,-5.74,-4.25,0.19,7.14
26.522851943969727,-5.47,-3.73,0.39,6.63
26.523940086364746,-5.37,-3.02,0.12,6.16
26.53879404067993,-5.43,-1.97,-0.55,5.8
26.53983497619629,-5.22,-0.79,-1.13,5.39
26.556293964385986,-4.02,-0.06,-1.38,4.25
26.557639122009277,-1.8,0.06,-1.08,2.1
26.570492029190063,0.12,-0.3,-0.8,0.86
26.598877906799316,0.43,-0.56,-0.67,0.97
26.600296020507812,-0.15,0.24,-0.33,0.43
26.60131001472473,-0.22,1.53,-0.07,1.54
26.60344696044922,0.26,2.55,0.02,2.56
26.608785152435303,1.06,3.49,0.36,3.66
26.61899209022522,1.94,4.12,0.76,4.61
26.629000186920166,2.49,4.4,1.24,5.2
26.63888907432556,2.72,4.75,1.49,5.67
26.64847421646118,3.0,5.38,1.34,6.3
26.658780097961426,3.99,6.11,1.21,7.39
26.688595056533813,6.2,6.22,1.03,8.84
26.689857959747314,9.0,5.88,0.65,10.77
26.690712928771973,11.52,5.49,-0.25,12.76
26.70624303817749,13.03,4.89,-0.87,13.94
26.70796298980713,13.3,4.39,-1.66,14.1
26.721971035003662,12.49,3.7,-1.58,13.12
26.728154182434082,11.56,3.23,0.05,12.0
26.73866105079651,11.62,2.84,2.15,12.15
26.748218059539795,10.64,4.99,3.43,12.24
26.757853031158447,9.61,6.55,3.69,12.2
26.7900390625,10.84,3.33,3.72,11.93
26.791407108306885,11.36,2.56,4.61,12.52
26.79242205619812,10.88,2.78,4.82,12.22
26.806354999542236,8.99,2.89,4.35,10.39
26.807416915893555,4.3,1.99,2.95,5.58
26.82024097442627,-3.91,0.57,0.08,3.95
26.82739496231079,-9.92,1.69,-1.69,10.2
26.8386812210083,-4.79,3.45,0.5,5.92
26.847501039505005,3.62,2.16,1.32,4.41
26.857279062271118,6.51,0.96,1.22,6.69
26.895528078079224,6.2,3.0,1.32,7.01
26.896984100341797,4.3,4.44,1.17,6.29
26.898029088974,3.4,3.33,0.66,4.8
26.90204906463623,4.56,2.1,0.69,5.06
26.906495094299316,3.42,-0.32,1.31,3.67
26.92236614227295,1.91,-1.29,2.32,3.27
26.92649221420288,1.9,-1.67,1.91,3.16
26.939000129699707,2.12,-0.93,1.17,2.59
26.945900917053223,1.88,0.41,0.86,2.1
26.95651602745056,1.5,0.38,0.08,1.54
26.993091106414795,1.62,-0.12,0.0,1.62
26.994411945343018,1.63,-0.28,0.55,1.74
26.995409965515137,1.2,0.04,1.09,1.62
27.006359100341797,0.55,0.24,1.43,1.55
27.00740098953247,-0.18,0.12,0.42,0.47
27.022284030914307,-0.49,-0.03,-0.82,0.95
27.02608609199524,-0.26,-0.02,-0.75,0.79
27.037108898162842,-0.1,0.06,-0.35,0.36
27.04606008529663,0.16,0.03,-0.24,0.29
27.0555419921875,0.39,0.03,-0.81,0.89
27.092391967773438,0.51,0.21,-1.28,1.39
27.093736171722412,0.59,0.24,-0.99,1.17
27.094710111618042,0.58,0.13,-0.47,0.75
27.095726013183594,0.41,0.05,-0.03,0.41
27.105348110198975,0.27,0.07,0.55,0.61
27.115209102630615,0.18,0.06,0.82,0.84
27.125070095062256,0.16,0.14,0.64,0.67
27.135250091552734,0.13,0.02,0.11,0.17
27.1451358795166,0.24,-0.07,-0.07,0.25
27.15507698059082,0.46,0.11,0.23,0.52
27.191307067871094,0.43,0.2,0.17,0.5
27.1924729347229,0.55,0.17,0.07,0.57
27.193498134613037,0.53,0.05,0.13,0.54
27.2063570022583,0.09,-0.04,-0.01,0.09
27.207366943359375,-0.31,0.16,0.1,0.36
27.2221999168396,-0.42,0.29,0.09,0.51
27.22416400909424,-0.31,0.26,-0.1,0.41
27.238981008529663,0.01,0.15,-0.13,0.19
27.244335174560547,0.22,-0.01,-0.26,0.34
27.254748106002808,0.4,-0.05,-0.32,0.51
27.26437520980835,0.57,0.06,-0.33,0.66
27.296539068222046,0.47,0.06,-0.35,0.58
27.297702074050903,0.25,0.09,-0.26,0.37
27.298988103866577,-0.02,0.18,-0.01,0.18
27.303539037704468,-0.3,0.24,0.04,0.38
27.322346210479736,-0.43,0.39,0.14,0.59
27.323418140411377,-0.58,0.56,0.31,0.86
27.33929705619812,-0.85,0.6,0.32,1.08
27.34334421157837,-1.11,0.5,0.35,1.26
27.353267192840576,-1.23,0.34,0.34,1.32
27.36332607269287,-1.23,0.41,-0.11,1.3
27.39469289779663,-1.24,0.59,-0.58,1.49
27.395900011062622,-1.53,1.07,-0.52,1.93
27.397072076797485,-1.6,1.36,-0.62,2.18
27.404141902923584,-1.75,1.16,-0.83,2.25
27.412955045700073,-2.02,1.11,-0.6,2.38
27.42266607284546,-2.3,1.12,-0.42,2.59
27.432687997817993,-2.41,1.2,-0.57,2.75
27.442617893218994,-2.36,1.1,-0.99,2.78
27.453845024108887,-2.13,1.12,-1.44,2.8
27.46266794204712,-1.81,1.41,-1.82,2.92
27.493979930877686,-1.61,2.11,-1.86,3.24
27.49506402015686,-1.84,2.89,-1.59,3.77
27.49587917327881,-2.36,3.63,-1.45,4.56
27.506680965423584,-2.98,4.13,-1.52,5.31
27.512081146240234,-3.37,3.94,-1.74,5.46
27.522361993789673,-3.64,3.44,-2.05,5.41
27.532012939453125,-4.12,3.29,-2.35,5.77
27.541786193847656,-4.58,3.39,-2.62,6.27
27.552103996276855,-5.18,3.6,-3.11,7.03
27.562028884887695,-5.66,4.0,-3.65,7.83
27.594059944152832,-5.9,4.17,-4.01,8.26
27.595428943634033,-5.92,3.79,-4.06,8.11
27.59644317626953,-5.77,3.47,-4.13,7.89
27.60136604309082,-5.04,3.12,-4.32,7.33
27.61153793334961,-3.78,2.43,-3.96,5.98
27.621488094329834,-1.76,2.14,-3.56,4.51
27.631278038024902,1.71,6.69,-1.65,7.09
27.64129114151001,3.94,11.99,-1.29,12.68
27.651453971862793,0.35,10.13,-2.26,10.38
27.661238193511963,-3.27,8.8,-1.97,9.59
27.699356079101562,-3.94,6.78,-2.25,8.15
27.70061206817627,-3.75,4.75,-3.93,7.21
27.701584100723267,-4.5,3.36,-5.52,7.87
27.703911066055298,-5.32,1.8,-5.8,8.07
27.710469007492065,-5.92,-1.23,-4.82,7.73
27.720571994781494,-4.99,-4.85,-3.07,7.6
27.730499029159546,1.61,-2.1,-0.57,2.7
27.740414142608643,3.19,-0.51,-0.09,3.23
27.750540018081665,-1.77,-1.6,-2.42,3.39
27.760478973388672,-6.53,-1.91,-4.09,7.93
27.797985076904297,-9.24,-2.35,-3.72,10.23
27.79945993423462,-9.79,-3.25,-2.32,10.57
27.800426959991455,-8.81,-4.05,-0.94,9.74
27.802704095840454,-7.45,-4.56,-0.08,8.73
27.809783935546875,-6.46,-4.98,0.25,8.16
27.820064067840576,-5.95,-5.11,0.19,7.84
27.829756021499634,-5.72,-4.85,-0.09,7.49
27.83964705467224,-5.53,-4.47,-0.18,7.11
27.849863052368164,-5.21,-4.05,0.0,6.59
27.859827041625977,-4.53,-3.76,0.16,5.88
27.898657083511353,-3.69,-3.52,0.34,5.11
27.900010108947754,-3.49,-3.58,0.35,5.01
27.900978088378906,-4.42,-3.35,0.24,5.55
27.90324306488037,-6.31,-2.13,0.09,6.66
27.909098148345947,-8.09,-0.26,-0.52,8.11
27.919221878051758,-7.45,1.06,-1.31,7.63
27.92910599708557,-3.61,0.97,-1.82,4.15
27.938920974731445,0.59,0.62,-1.7,1.9
27.949214935302734,2.41,1.01,-1.18,2.86
27.959060192108154,1.67,1.33,-0.43,2.17
27.99573302268982,0.46,1.7,0.78,1.92
27.997025966644287,0.84,2.54,1.7,3.16
27.99809217453003,2.09,3.32,2.31,4.55
28.003180027008057,2.91,3.9,2.5,5.47
28.022790908813477,3.11,4.54,2.38,5.99
28.023824214935303,3.54,5.33,2.05,6.71
28.039162158966064,4.67,5.77,1.59,7.59
28.040191173553467,6.35,6.01,1.6,8.88
28.05498504638672,8.57,6.03,1.83,10.63
28.05804705619812,11.13,5.81,1.82,12.68
28.071353912353516,13.43,5.13,1.66,14.47
28.099189043045044,14.33,4.21,1.67,15.02
28.100536108016968,13.53,4.27,2.1,14.34
28.10152006149292,9.93,9.12,2.67,13.74
28.107769012451172,10.4,7.07,2.61,12.84
28.117738008499146,13.31,4.25,3.53,14.41
28.127490997314453,14.0,3.49,4.24,15.03
28.137514114379883,13.33,2.79,4.23,14.26
28.147236108779907,11.96,3.9,4.84,13.47
28.157451152801514,10.11,4.07,4.9,11.94
28.1674861907959,3.92,0.45,1.48,4.21
28.198065996170044,-5.58,-0.51,-1.77,5.87
28.199217081069946,-8.67,1.99,-1.1,8.96
28.200419902801514,-2.0,2.99,1.42,3.86
28.206809043884277,4.17,1.81,1.17,4.69
28.223062992095947,6.06,2.39,0.45,6.52
28.22663402557373,4.16,3.48,0.92,5.5
28.23951005935669,3.61,3.77,1.29,5.37
28.246788024902344,6.03,2.51,0.54,6.55
28.25657892227173,5.22,0.11,0.53,5.24
28.266522884368896,2.59,0.24,2.12,3.35
28.2990140914917,1.08,-0.29,2.13,2.4
28.30015206336975,1.07,-0.87,1.22,1.84
28.301326036453247,1.09,-0.74,0.62,1.45
28.306060075759888,0.63,-0.18,-0.09,0.66
28.31584405899048,0.18,0.19,-0.45,0.52
28.326255083084106,0.0,0.21,-0.55,0.58
28.336081981658936,-0.05,0.14,-0.67,0.68
28.346001148223877,-0.08,0.24,-0.43,0.49
28.355693101882935,-0.1,0.28,-0.11,0.31
28.365897178649902,-0.2,0.04,-0.2,0.28
28.397200107574463,-0.24,-0.25,-0.23,0.41
28.398389101028442,-0.12,-0.12,0.0,0.16
28.399621963500977,0.01,0.03,-0.1,0.1
28.40533709526062,0.27,0.01,-0.37,0.45
28.423025131225586,0.53,0.09,-0.47,0.71
28.425111055374146,0.69,0.15,-0.36,0.79
28.439613103866577,0.61,0.07,-0.21,0.64
28.445026874542236,0.51,-0.09,0.07,0.52
28.45508098602295,0.57,-0.2,0.46,0.75
28.465249061584473,0.74,-0.18,0.65,1.0
28.50205087661743,0.86,-0.11,0.66,1.08
28.5032000541687,0.86,-0.1,0.56,1.03
28.50418210029602,0.74,-0.09,0.59,0.95
28.523620128631592,0.51,-0.1,0.6,0.79
28.524652004241943,0.44,-0.11,0.53,0.69
28.539488077163696,0.37,-0.14,0.58,0.7
28.540541172027588,0.24,-0.07,0.57,0.62
28.55634903907776,0.18,0.02,0.43,0.46
28.557827949523926,0.03,0.01,0.15,0.15
28.572251081466675,-0.15,0.09,0.03,0.17
28.601563930511475,-0.2,0.16,-0.05,0.26
28.603272914886475,-0.13,0.22,-0.07,0.26
28.60417103767395,0.04,0.15,-0.26,0.3
28.6235408782959,0.15,0.08,-0.34,0.38
28.624593019485474,0.07,0.07,-0.22,0.24
28.63827610015869,0.03,0.12,-0.24,0.26
28.639689922332764,0.04,0.11,-0.15,0.19
28.656352996826172,-0.01,0.13,0.0,0.13
28.65774917602539,-0.25,0.2,-0.03,0.32
28.672221183776855,-0.48,0.23,-0.15,0.55
28.702680110931396,-0.57,0.3,-0.28,0.7
28.70401096343994,-0.8,0.38,-0.53,1.03
28.70503520965576,-1.05,0.47,-0.69,1.34
28.723408222198486,-1.19,0.42,-0.64,1.41
28.724432945251465,-1.5,0.37,-0.61,1.66
28.74030590057373,-1.73,0.41,-0.74,1.92
28.741804122924805,-1.97,0.65,-0.61,2.16
28.75647497177124,-1.97,0.87,-0.62,2.24
28.757869005203247,-1.77,0.86,-0.95,2.18
28.772199153900146,-1.92,0.95,-1.26,2.48
28.802074909210205,-1.66,1.08,-1.56,2.52
28.80336618423462,-1.29,1.26,-1.55,2.37
28.804367065429688,-1.02,1.49,-2.07,2.74
28.823305130004883,-1.02,2.23,-2.27,3.34
28.824292182922363,-1.61,4.01,-1.54,4.58
28.83954906463623,-2.17,4.81,-1.57,5.5
28.840574026107788,-2.44,4.19,-1.87,5.19
28.85664987564087,-2.73,4.15,-1.56,5.2
28.85809898376465,-3.52,4.1,-1.92,5.73
28.87235116958618,-4.09,4.46,-2.14,6.41
28.87381410598755,-4.49,4.84,-2.52,7.06
28.91998815536499,-4.92,5.18,-2.89,7.7
28.921185970306396,-5.46,5.27,-3.15,8.21
28.922205924987793,-5.99,5.19,-3.63,8.71
28.94064998626709,-6.39,5.31,-4.0,9.22
28.941739082336426,-6.48,4.56,-4.3,9.01
28.956631183624268,-5.88,3.29,-4.57,8.14
28.95810317993164,-4.42,2.54,-4.37,6.71
28.973331928253174,-3.24,3.51,-4.23,6.38
28.97481107711792,-3.21,4.86,-5.32,7.88
28.988953113555908,-3.05,6.0,-5.58,8.74
29.019620895385742,-0.63,8.17,-3.19,8.79
29.020909070968628,3.0,10.86,-1.06,11.31
29.021920204162598,1.51,7.19,-1.89,7.58
29.04035520553589,-2.19,3.4,-3.93,5.63
29.04142999649048,-5.17,1.13,-5.17,7.39
29.056489944458008,-7.17,-1.94,-5.29,9.11
29.05795407295227,-6.95,-5.3,-4.51,9.83
29.07353711128235,-0.16,-3.22,-1.71,3.64
29.074954986572266,2.06,-1.7,-0.6,2.73
29.086637020111084,-2.14,-2.54,-2.15,3.95
29.11635112762451,-6.14,-2.56,-3.56,7.54
29.118211030960083,-8.59,-2.66,-3.29,9.57
29.119274139404297,-9.0,-2.77,-2.15,9.65
29.12142300605774,-8.11,-3.07,-0.7,8.69
29.122876167297363,-7.05,-3.74,0.41,7.99
29.129679203033447,-6.54,-4.32,0.85,7.88
29.14003896713257,-6.47,-4.38,0.67,7.84
29.149928092956543,-6.32,-4.01,0.21,7.48
29.159919023513794,-5.54,-3.59,-0.14,6.6
29.16992998123169,-4.3,-3.31,-0.18,5.42
29.20054006576538,-3.38,-3.01,-0.13,4.52
29.20162296295166,-3.21,-2.79,-0.27,4.26
29.20263409614563,-3.55,-2.48,-0.24,4.33
29.22379207611084,-3.79,-2.28,-0.29,4.43
29.224833965301514,-3.56,-1.87,-0.47,4.04
29.240066051483154,-2.84,-1.46,-0.49,3.23
29.24112606048584,-2.04,-1.49,-0.4,2.55
29.256977081298828,-1.55,-1.59,-0.42,2.25
29.259021043777466,-1.15,-1.21,-0.23,1.68
29.272541999816895,-0.64,-0.66,0.13,0.92
29.307907104492188,-0.17,-0.13,0.43,0.48
29.309228897094727,0.0,0.31,0.61,0.68
29.310236930847168,-0.08,0.94,0.67,1.15
29.323819160461426,0.03,1.86,0.7,1.98
29.324868202209473,0.34,2.68,0.74,2.8
29.339898109436035,0.89,3.5,1.11,3.77
29.340959072113037,1.86,4.26,1.28,4.82
29.35694909095764,3.3,5.01,1.19,6.11
29.35841989517212,4.94,5.61,1.05,7.54
29.372328996658325,6.52,5.98,0.71,8.87
29.406858921051025,8.05,6.4,0.3,10.28
29.408257961273193,9.54,6.65,0.05,11.62
29.409285068511963,11.3,6.51,0.48,13.04
29.424122095108032,12.73,5.64,1.09,13.96
29.425173044204712,12.58,4.63,1.91,13.54
29.44032096862793,11.34,3.91,3.05,12.37
29.441386222839355,10.51,3.43,4.11,11.79
29.45689105987549,8.64,7.1,4.75,12.14
29.458385944366455,8.68,6.76,4.23,11.78
29.472630977630615,10.98,3.55,4.47,12.37
29.50536298751831,12.18,2.9,4.44,13.28
29.50675106048584,11.64,1.89,3.09,12.19
29.507744073867798,9.21,0.71,1.03,9.29
29.524100065231323,2.91,-0.5,-1.97,3.54
29.525146007537842,-7.28,0.76,-3.97,8.32
29.540278911590576,-10.55,6.17,-0.57,12.23
29.541336059570312,-2.23,6.92,5.04,8.84
29.55702018737793,4.07,1.09,4.77,6.36
29.55849313735962,5.91,-0.85,2.36,6.42
29.57276487350464,5.75,2.18,1.0,6.23
29.60477113723755,4.24,4.35,0.59,6.1
29.6060791015625,1.86,2.72,0.87,3.4
29.607100009918213,1.09,1.0,1.47,2.08
29.624102115631104,3.17,1.18,1.79,3.82
29.625192165374756,3.72,-1.32,1.33,4.16
29.640199184417725,2.59,-1.01,1.27,3.05
29.64158606529236,2.03,-0.19,0.87,2.21
29.657031059265137,1.94,0.11,0.22,1.95
29.658491134643555,1.96,0.2,-0.07,1.97
29.67303204536438,1.61,0.31,-0.15,1.64
29.676012992858887,1.18,0.06,-0.06,1.18
29.718079090118408,0.79,-0.24,0.34,0.89
29.719290018081665,0.4,-0.28,0.69,0.84
29.720266103744507,-0.04,-0.03,0.8,0.8
29.74071216583252,-0.45,0.2,0.86,0.99
29.74177598953247,-0.72,0.13,0.58,0.93
29.756969928741455,-0.81,-0.04,0.17,0.82
29.75844717025757,-0.63,-0.06,-0.06,0.63
29.77404808998108,-0.3,0.01,-0.27,0.4
29.775508880615234,0.16,0.22,-0.35,0.44
29.789298057556152,0.64,0.4,-0.49,0.89
29.82016110420227,0.76,0.27,-0.97,1.26
29.821521043777466,0.76,0.07,-1.29,1.49
29.82247018814087,0.93,0.13,-1.11,1.45
29.840999126434326,1.1,0.15,-0.73,1.32
29.84203815460205,1.03,0.1,-0.25,1.06
29.85705304145813,0.57,-0.11,0.18,0.6
29.858542919158936,0.25,-0.37,0.58,0.73
29.873956203460693,0.4,-0.3,0.91,1.03
29.875431060791016,0.37,-0.08,0.8,0.88
29.888988971710205,0.12,0.01,0.54,0.55
29.919475078582764,-0.1,0.04,0.42,0.43
29.920727014541626,-0.08,0.02,0.5,0.5
29.921735048294067,0.23,-0.03,0.6,0.64
29.940922021865845,0.61,-0.17,0.42,0.75
29.94192099571228,0.77,-0.17,0.2,0.81
29.95707106590271,0.6,-0.08,0.02,0.6
29.9585280418396,0.2,-0.1,0.04,0.22
29.97389316558838,-0.14,-0.09,0.24,0.29
29.975361108779907,-0.35,-0.03,0.45,0.57
