time,ax,ay,az,atotal
0.0015597343444824219,1.48,-1.14,-0.09,1.87
0.011810779571533203,1.27,-0.49,0.9,1.63
0.021045684814453125,0.32,0.11,0.4,0.52
0.031059741973876953,-0.09,-0.06,0.1,0.14
0.0419619083404541,-0.18,-0.14,0.22,0.31
0.07836484909057617,-0.14,-0.09,0.29,0.33
0.07863688468933105,-0.14,-0.05,0.13,0.19
0.07892370223999023,-0.12,-0.04,0.05,0.13
0.08095383644104004,-0.01,0.02,-0.03,0.03
0.09096574783325195,0.07,0.03,-0.09,0.11
0.10082483291625977,0.04,0.02,-0.08,0.09
0.11155891418457031,-0.02,0.01,-0.14,0.14
0.12096977233886719,-0.04,0.02,-0.15,0.15
0.13093781471252441,0.0,0.04,-0.09,0.09
0.14188289642333984,0.05,0.03,-0.06,0.08
0.1799027919769287,0.01,0.02,-0.04,0.04
0.1801919937133789,-0.03,0.01,-0.04,0.05
0.18065977096557617,-0.11,0.01,-0.11,0.15
0.18096280097961426,-0.16,0.02,-0.14,0.21
0.19076776504516602,-0.13,-0.01,-0.06,0.14
0.20103693008422852,-0.08,-0.05,0.0,0.09
0.21146297454833984,-0.03,-0.01,-0.04,0.05
0.22078371047973633,-0.07,-0.03,-0.07,0.1
0.2308807373046875,-0.08,-0.02,-0.06,0.1
0.2418227195739746,-0.01,0.01,-0.02,0.02
0.27951669692993164,0.11,0.01,0.08,0.13
0.27985477447509766,0.16,-0.02,0.1,0.18
0.2803637981414795,0.15,-0.04,0.08,0.17
0.28077173233032227,0.09,-0.06,0.02,0.1
0.29064178466796875,0.06,-0.03,0.05,0.08
0.3009157180786133,0.08,-0.01,0.06,0.1
0.3113288879394531,0.12,0.0,0.11,0.16
0.32063984870910645,0.05,0.0,0.06,0.07
0.33085083961486816,-0.02,-0.02,0.01,0.03
0.341519832611084,0.04,-0.02,0.09,0.1
0.3793330192565918,0.13,0.01,0.15,0.19
0.3796210289001465,0.14,0.01,0.08,0.16
0.3799278736114502,-0.06,-0.03,-0.02,0.06
0.3804206848144531,-0.19,-0.06,0.02,0.2
0.3905208110809326,-0.15,-0.04,0.08,0.17
0.4008469581604004,-0.1,-0.05,0.17,0.2
0.41121578216552734,-0.17,-0.03,0.2,0.26
0.42050981521606445,-0.12,-0.03,0.19,0.22
0.43062496185302734,-0.15,-0.04,0.19,0.24
0.44139671325683594,-0.18,-0.04,0.19,0.26
0.4780616760253906,-0.21,-0.08,0.19,0.29
0.47870683670043945,-0.35,-0.14,0.26,0.45
0.4790158271789551,-0.16,0.01,0.01,0.16
0.4802248477935791,0.41,0.07,-0.11,0.43
0.49031686782836914,0.81,0.22,-0.14,0.85
0.5003678798675537,0.38,0.0,0.23,0.44
0.5110788345336914,0.19,-0.04,0.21,0.28
0.5203647613525391,0.26,0.0,0.22,0.34
0.5305209159851074,0.36,0.0,0.29,0.46
0.5411748886108398,0.44,-0.02,0.29,0.52
0.5504817962646484,0.42,-0.04,0.25,0.49
0.5793037414550781,0.27,-0.11,0.27,0.39
0.5796427726745605,0.09,-0.07,0.26,0.28
0.5801599025726318,0.02,0.04,0.46,0.46
0.5902299880981445,0.22,-0.08,0.93,0.95
0.6001577377319336,0.52,-0.08,1.02,1.14
0.6109588146209717,0.69,0.0,0.99,1.2
0.6202118396759033,0.72,-0.03,0.95,1.19
0.630314826965332,0.77,-0.07,1.0,1.26
0.6411747932434082,0.83,-0.11,1.03,1.32
0.650364875793457,0.84,-0.18,1.1,1.39
0.6788330078125,0.75,-0.25,1.15,1.39
0.6791298389434814,0.48,-0.36,1.15,1.29
0.6800727844238281,0.26,-0.4,1.12,1.21
0.6901259422302246,0.25,-0.34,1.02,1.1
0.7001328468322754,0.35,-0.26,0.89,0.99
0.7106528282165527,0.49,-0.29,0.81,0.99
0.7201688289642334,0.58,-0.35,0.78,1.03
0.7301349639892578,0.55,-0.34,0.72,0.96
0.7410528659820557,0.49,-0.34,0.61,0.85
0.7501778602600098,0.51,-0.36,0.45,0.76
0.7796988487243652,0.59,-0.46,0.36,0.83
0.7800097465515137,0.48,-0.5,0.32,0.76
0.7803177833557129,-0.1,-0.54,0.33,0.64
0.7899408340454102,-0.9,-0.6,-0.04,1.08
0.7998788356781006,-1.15,-0.54,0.1,1.27
0.8107028007507324,-0.61,-0.34,0.66,0.96
0.8199818134307861,0.21,-0.24,1.11,1.15
0.8299999237060547,0.38,-0.36,0.75,0.91
0.8409688472747803,0.13,-0.36,0.06,0.38
0.8501009941101074,-0.53,-0.22,-0.48,0.74
0.8803210258483887,-1.45,-0.06,-0.78,1.64
0.8806378841400146,-1.78,-0.11,-0.42,1.83
0.8809409141540527,-1.54,-0.16,-0.3,1.57
0.8897709846496582,-0.98,-0.16,-0.61,1.16
0.8996577262878418,-0.68,-0.16,-1.09,1.29
0.9105429649353027,-0.6,0.1,-1.16,1.3
0.9199099540710449,-0.47,0.27,-0.91,1.05
0.9297809600830078,-0.36,0.25,-1.05,1.13
0.9408717155456543,-0.5,0.2,-1.46,1.55
0.9498777389526367,-0.46,0.23,-1.55,1.63
0.9808859825134277,-0.29,0.34,-1.3,1.37
0.9814367294311523,-0.31,0.29,-0.95,1.04
0.9817788600921631,-0.38,0.16,-0.75,0.85
0.9895830154418945,-0.44,0.16,-0.67,0.81
0.9995768070220947,-0.44,0.13,-0.57,0.73
1.0104079246520996,-0.38,0.07,-0.45,0.59
1.0197257995605469,-0.29,0.02,-0.18,0.34
1.0296058654785156,-0.28,0.0,-0.05,0.28
1.040794849395752,-0.3,-0.03,-0.04,0.3
1.0495789051055908,-0.26,0.02,-0.15,0.3
1.0807757377624512,-0.22,0.07,-0.33,0.4
1.0811078548431396,0.01,0.14,-0.44,0.46
1.0814309120178223,0.27,0.15,-0.27,0.41
1.0894768238067627,0.48,0.18,-0.11,0.52
1.099489688873291,0.86,0.15,0.01,0.87
1.1103286743164062,0.94,0.05,-0.03,0.94
1.1195118427276611,0.66,-0.02,-0.15,0.67
1.1295018196105957,0.34,-0.04,-0.01,0.34
1.1404309272766113,0.22,-0.04,-0.01,0.22
1.149552822113037,0.28,-0.07,0.09,0.3
1.180840015411377,0.46,-0.04,0.27,0.53
1.1811468601226807,0.76,0.08,0.33,0.83
1.1814548969268799,0.91,0.17,0.39,1.0
1.1892967224121094,0.93,0.19,0.38,1.02
1.1993358135223389,0.79,0.13,0.18,0.82
1.2101349830627441,0.5,0.06,0.19,0.53
1.2191998958587646,0.38,0.01,0.34,0.51
1.2293357849121094,0.57,0.07,0.57,0.8
1.2404179573059082,0.6,0.06,0.44,0.74
1.2494258880615234,0.42,0.01,0.29,0.51
1.280683994293213,0.34,-0.05,0.27,0.43
1.2810218334197998,0.41,-0.01,0.34,0.53
1.2813518047332764,0.44,0.08,0.43,0.62
1.2892417907714844,0.37,0.11,0.67,0.77
1.2992277145385742,0.38,0.14,0.48,0.62
1.309943675994873,0.12,0.14,0.0,0.18
1.319563865661621,-0.37,0.21,0.14,0.44
1.3292369842529297,-0.07,0.29,0.24,0.38
1.3402369022369385,0.49,0.28,0.36,0.66
1.3492398262023926,0.67,0.28,0.43,0.84
1.381150722503662,0.81,0.41,0.43,1.0
1.3814787864685059,0.75,0.5,0.25,0.93
1.3818049430847168,0.52,0.58,0.1,0.78
1.388953685760498,0.36,0.61,0.04,0.7
1.3989558219909668,0.52,0.8,0.28,0.99
1.4097979068756104,0.92,0.97,0.64,1.48
1.4189608097076416,1.3,1.19,1.01,2.03
1.429109811782837,1.63,1.57,1.55,2.74
1.4401988983154297,2.01,1.35,1.85,3.04
1.449193000793457,2.03,1.51,2.0,3.22
1.4811558723449707,2.39,2.7,2.18,4.21
1.48148775100708,2.93,3.43,2.61,5.21
1.4818108081817627,3.23,4.16,3.12,6.12
1.4887948036193848,4.17,4.77,3.88,7.42
1.4990098476409912,4.67,4.65,4.65,8.06
1.5096559524536133,4.35,4.83,4.71,8.02
1.5189800262451172,4.48,5.91,4.75,8.8
1.5290348529815674,4.83,7.09,5.07,9.96
1.540003776550293,4.7,7.79,5.42,10.59
1.5489368438720703,4.28,8.07,5.93,10.89
1.5811867713928223,3.46,8.06,6.2,10.74
1.5814919471740723,2.74,7.85,5.25,9.83
1.581791877746582,1.56,7.91,3.05,8.61
1.5887038707733154,2.81,8.62,2.0,9.28
1.5987358093261719,4.09,7.83,0.28,8.83
1.609562873840332,3.62,7.52,-0.78,8.38
1.619009017944336,-0.17,8.1,-0.07,8.1
1.6288299560546875,-3.5,8.59,0.09,9.27
1.6396617889404297,-1.09,7.32,0.06,7.4
1.6487998962402344,2.24,4.71,1.4,5.4
1.6808998584747314,2.07,1.89,2.09,3.49
1.681210994720459,-2.45,1.64,-3.0,4.2
1.6815237998962402,-1.06,5.11,-4.59,6.95
1.688572883605957,3.47,4.57,-0.07,5.73
1.6986026763916016,5.7,1.97,3.17,6.81
1.709324836730957,5.99,-0.04,4.13,7.27
1.718977928161621,4.74,-1.01,3.64,6.06
1.7286128997802734,3.71,-1.31,2.8,4.82
1.7395319938659668,3.11,-1.1,2.12,3.92
1.7486529350280762,2.52,-0.6,1.63,3.06
1.780634880065918,1.9,-0.32,1.3,2.32
1.7809648513793945,1.46,-0.49,1.16,1.92
1.781266689300537,1.2,-0.81,1.01,1.76
1.79054594039917,0.97,-1.12,0.74,1.65
1.7983779907226562,0.8,-1.55,0.62,1.85
1.8091309070587158,0.72,-2.09,0.5,2.26
1.8189268112182617,0.93,-2.52,0.36,2.71
1.828500747680664,1.1,-2.97,0.36,3.18
1.839439868927002,1.08,-3.44,0.3,3.61
1.8485517501831055,0.95,-3.93,0.36,4.05
1.8810138702392578,0.86,-4.39,0.6,4.51
1.8813509941101074,0.89,-4.89,0.71,5.02
1.8816747665405273,0.83,-5.25,0.75,5.36
1.888274908065796,0.68,-5.39,0.91,5.5
1.8982608318328857,0.42,-5.41,0.91,5.5
1.9090547561645508,0.22,-5.27,0.53,5.3
1.918733835220337,-0.02,-5.02,-0.04,5.02
1.9284839630126953,-0.48,-4.63,-0.94,4.74
1.939208984375,-1.5,-4.06,-1.94,4.74
1.9484138488769531,-3.19,-3.36,-3.14,5.59
1.9807958602905273,-4.51,-2.89,-4.33,6.88
1.9811019897460938,-5.26,-2.41,-5.32,7.85
1.9814038276672363,-5.91,-1.82,-6.09,8.67
1.9881818294525146,-6.62,-1.26,-6.85,9.6
1.9980719089508057,-7.3,-0.72,-7.56,10.53
2.0088987350463867,-7.8,-0.37,-8.07,11.22
2.018174886703491,-7.94,-0.33,-7.91,11.21
2.0282387733459473,-7.49,-0.59,-7.39,10.53
2.0391058921813965,-6.55,-0.91,-7.05,9.66
2.0482287406921387,-6.05,-0.98,-7.28,9.51
2.081380844116211,-6.17,-1.13,-7.55,9.81
2.0816948413848877,-5.93,-1.82,-7.12,9.44
2.081997871398926,-5.64,-2.56,-6.18,8.74
2.0880398750305176,-6.31,-0.73,-6.26,8.91
2.098031997680664,-4.52,3.25,-5.46,7.79
2.108743906021118,1.24,-0.91,-3.32,3.65
2.1179189682006836,7.93,8.6,10.32,15.59
2.1280808448791504,14.73,11.01,20.06,27.21
2.1388959884643555,7.46,7.29,0.48,10.44
2.148138999938965,-0.45,4.37,-6.0,7.43
2.177795886993408,-6.87,3.93,-3.78,8.77
2.17813777923584,-8.51,1.33,-8.64,12.19
2.1784629821777344,-6.03,4.3,-2.19,7.72
2.1879498958587646,-6.93,0.22,2.76,7.46
2.197889804840088,-5.1,-2.95,-3.02,6.62
2.208634853363037,-3.77,-1.98,-5.43,6.9
2.2178549766540527,-2.9,-1.18,-4.85,5.77
2.2279748916625977,-2.07,-0.14,-3.61,4.16
2.2389798164367676,-0.56,1.13,-2.55,2.84
2.248121738433838,0.46,1.35,-1.63,2.16
2.2803568840026855,0.04,0.85,-1.17,1.44
2.2807178497314453,-1.09,0.34,-0.68,1.32
2.2810678482055664,-1.56,0.15,-0.47,1.63
2.287846803665161,-1.52,0.04,-0.18,1.53
2.297736883163452,-1.41,-0.2,0.32,1.45
2.308616876602173,-0.77,-0.17,0.29,0.84
2.3185977935791016,0.24,0.04,-0.04,0.24
2.327849864959717,1.33,0.17,-0.46,1.41
2.3389368057250977,1.85,0.18,-0.88,2.05
2.3479037284851074,1.33,0.11,-0.9,1.6
2.380680799484253,0.19,-0.13,-0.52,0.56
2.3810477256774902,-0.55,-0.18,-0.24,0.62
2.3814077377319336,-0.8,-0.07,0.09,0.8
2.3876466751098633,-0.73,-0.05,0.4,0.83
2.397749900817871,-0.32,-0.04,0.64,0.71
2.4083938598632812,0.32,0.01,0.68,0.75
2.417782783508301,0.96,0.12,0.54,1.1
2.4277167320251465,1.45,0.18,0.44,1.52
2.439023971557617,1.5,0.22,0.41,1.57
2.4477908611297607,1.1,0.22,0.33,1.16
2.481194019317627,0.67,0.14,0.39,0.78
2.481544017791748,0.54,0.0,0.56,0.77
2.4818928241729736,0.65,-0.16,0.79,1.03
2.487421989440918,0.65,-0.27,0.94,1.17
2.4976298809051514,0.88,-0.24,1.2,1.5
2.508344888687134,1.58,-0.2,1.61,2.26
2.517500877380371,1.96,-0.12,1.52,2.48
2.527524948120117,1.63,0.01,0.93,1.87
2.5388007164001465,1.23,0.12,0.43,1.3
2.547609806060791,1.08,0.14,0.04,1.08
2.5809860229492188,0.85,0.11,0.01,0.85
2.5813398361206055,0.62,0.07,0.43,0.75
2.5817008018493652,0.91,-0.03,0.93,1.3
2.5872738361358643,1.36,-0.09,1.49,2.01
2.5974009037017822,1.64,-0.02,1.79,2.42
2.608163833618164,1.81,0.15,1.57,2.4
2.6173267364501953,1.74,0.33,1.37,2.23
2.627452850341797,1.5,0.43,1.32,2.04
2.638329029083252,1.41,0.6,0.95,1.8
2.6474478244781494,1.37,0.87,0.65,1.74
2.6803789138793945,1.45,1.19,0.5,1.94
2.6807308197021484,1.82,1.93,0.98,2.82
2.6810789108276367,2.23,2.29,1.55,3.55
2.6870648860931396,1.98,2.72,1.83,3.82
2.6971848011016846,1.91,3.53,2.29,4.62
2.7079918384552,2.12,4.95,2.42,5.9
2.717118740081787,3.14,6.61,2.88,7.86
2.7272539138793945,4.64,7.2,4.14,9.51
2.738420009613037,4.9,7.8,4.95,10.45
2.7473440170288086,4.65,8.47,5.37,11.05
2.7811379432678223,3.83,8.84,6.05,11.37
2.7815027236938477,2.69,8.95,6.65,11.47
2.7818548679351807,2.56,9.34,6.59,11.71
2.7869668006896973,4.13,9.7,5.3,11.79
2.797031879425049,5.24,9.58,3.32,11.41
2.807985782623291,5.59,8.43,1.62,10.24
2.817168712615967,4.61,7.59,-1.46,8.99
2.827103853225708,2.01,8.61,-2.99,9.33
2.8382198810577393,-1.18,10.37,-1.9,10.6
2.847200870513916,-1.96,9.5,-0.06,9.7
2.8820948600769043,0.27,6.1,0.47,6.12
2.8824658393859863,1.78,2.69,1.73,3.66
2.882826805114746,-1.5,0.35,-0.04,1.54
2.8868248462677,-3.17,2.71,-4.34,6.01
2.896951675415039,1.23,5.06,-1.08,5.31
2.90773868560791,5.12,3.18,2.72,6.61
2.9169528484344482,7.02,0.84,4.38,8.31
2.926989793777466,6.29,-0.58,4.24,7.6
2.9382529258728027,5.0,-1.07,3.21,6.03
2.9470558166503906,4.0,-1.24,2.74,5.0
2.9828178882598877,3.0,-1.45,2.52,4.17
2.9832048416137695,2.06,-1.85,2.46,3.7
2.9835848808288574,1.18,-2.29,2.62,3.67
2.9868597984313965,0.31,-2.46,2.65,3.62
2.9968888759613037,-0.22,-2.4,2.4,3.4
3.007617950439453,-0.19,-2.53,2.26,3.39
3.016929864883423,0.21,-2.87,2.27,3.66
3.02689790725708,0.73,-3.07,2.25,3.87
3.038285732269287,1.16,-3.21,2.12,4.01
3.0469207763671875,1.48,-3.44,1.99,4.24
3.0823848247528076,1.56,-3.65,1.91,4.4
3.0827479362487793,1.28,-3.89,1.82,4.48
3.083099842071533,0.88,-4.16,1.69,4.57
3.0868849754333496,0.57,-4.41,1.55,4.7
3.0967729091644287,0.35,-4.66,1.49,4.9
3.107423782348633,0.11,-4.74,1.51,4.97
3.116748809814453,-0.39,-4.59,1.39,4.81
3.1267077922821045,-1.28,-4.13,0.36,4.33
3.163519859313965,-2.58,-3.29,-1.58,4.46
3.1638526916503906,-3.86,-2.42,-3.39,5.67
3.1641807556152344,-4.99,-1.59,-5.2,7.38
3.1664156913757324,-6.08,-0.75,-6.2,8.71
3.176476001739502,-6.59,-0.12,-6.65,9.36
3.186868906021118,-6.7,0.27,-7.26,9.88
3.196537971496582,-7.25,0.65,-8.21,10.97
3.2073397636413574,-7.88,0.81,-9.08,12.04
3.2165658473968506,-8.31,-0.14,-9.11,12.33
3.226534843444824,-8.72,-1.18,-9.01,12.59
3.2642078399658203,-8.29,-1.45,-8.6,12.03
3.2645938396453857,-7.5,-1.7,-8.01,11.1
3.2649569511413574,-6.84,-2.03,-7.99,10.71
3.2662439346313477,-6.24,-2.54,-7.45,10.04
3.2763428688049316,-6.08,-3.2,-6.64,9.55
3.2867698669433594,-6.71,-2.05,-6.16,9.33
3.2965359687805176,-3.6,2.08,-6.13,7.4
3.307159900665283,3.0,1.89,-0.55,3.58
3.316417694091797,7.12,8.15,13.93,17.63
3.327110767364502,15.2,11.33,21.75,28.85
3.365781784057617,9.03,10.73,-1.03,14.06
3.3663907051086426,-4.4,11.11,-12.34,17.17
3.366745948791504,-7.53,2.33,-8.31,11.45
3.3671116828918457,-9.1,-2.58,-3.05,9.93
3.376224994659424,-10.4,-2.25,5.17,11.83
3.386131763458252,-9.59,-3.86,-3.2,10.82
3.3962507247924805,-7.0,-2.15,-8.02,10.86
3.407061815261841,-4.88,-0.18,-4.78,6.83
3.4161887168884277,-3.06,0.62,-1.97,3.69
3.4261770248413086,-0.71,0.73,-2.11,2.34
3.464852809906006,1.25,0.62,-2.98,3.29
3.465221881866455,1.35,0.71,-2.38,2.82
3.4658279418945312,0.07,0.81,-1.38,1.6
3.466193675994873,-0.85,0.69,-1.59,1.93
3.475947856903076,-0.91,0.48,-1.65,1.94
3.485909938812256,-0.99,0.24,-1.27,1.62
3.4959988594055176,-1.28,0.03,-1.24,1.78
3.5071349143981934,-1.42,-0.19,-1.33,1.95
3.5161938667297363,-1.07,-0.28,-1.24,1.66
3.5262060165405273,-0.51,-0.23,-1.07,1.2
3.5641989707946777,-0.29,-0.1,-0.82,0.87
3.564556837081909,-0.35,-0.03,-0.42,0.54
3.5649099349975586,-0.44,-0.01,-0.05,0.44
3.5659499168395996,-0.35,-0.05,0.37,0.51
3.575950860977173,-0.12,-0.09,0.81,0.82
3.5860090255737305,0.21,-0.05,1.06,1.08
3.5959408283233643,0.49,0.0,1.15,1.25
3.6067237854003906,0.71,0.05,1.02,1.24
3.615924835205078,0.97,0.18,0.66,1.18
3.6259570121765137,1.07,0.23,0.27,1.12
3.6641407012939453,0.92,0.11,0.33,0.98
3.6644937992095947,0.8,0.03,0.61,1.0
3.664885997772217,0.86,0.06,1.04,1.35
3.6656088829040527,0.87,0.08,1.3,1.56
3.6756739616394043,0.96,0.05,1.37,1.67
3.6857028007507324,1.07,-0.06,1.39,1.75
3.6957807540893555,1.42,-0.19,1.4,2.0
3.7066149711608887,2.04,-0.3,1.32,2.44
3.7158658504486084,2.29,-0.26,1.27,2.63
3.7258188724517822,2.05,0.03,0.86,2.22
3.764050006866455,1.56,0.38,0.32,1.63
3.7644119262695312,1.23,0.66,0.22,1.41
3.7647757530212402,1.06,0.63,0.47,1.31
3.7656137943267822,1.11,0.57,0.82,1.49
3.775540828704834,1.23,0.47,1.38,1.9
3.785552978515625,1.33,0.69,1.7,2.26
3.795637845993042,1.38,0.98,1.41,2.2
3.8064608573913574,1.38,1.43,0.95,2.2
3.8155598640441895,1.45,2.09,0.87,2.68
3.8256638050079346,1.65,2.16,1.2,2.97
3.863248825073242,1.42,2.26,1.64,3.13
3.8636059761047363,1.8,2.41,1.77,3.49
3.8639559745788574,2.06,2.71,1.95,3.92
3.865388870239258,2.13,2.84,2.36,4.26
3.8754827976226807,2.36,3.2,2.71,4.81
3.885439872741699,2.71,4.14,3.0,5.78
3.895490884780884,3.23,6.25,2.92,7.61
3.90645170211792,5.08,7.94,3.92,10.2
3.9154748916625977,5.54,8.36,5.48,11.42
3.925630807876587,4.79,8.96,6.32,11.96
3.936823844909668,4.52,10.13,8.08,13.72
3.965439796447754,5.6,11.16,8.59,15.15
3.96580171585083,7.08,11.35,7.06,15.12
3.966153860092163,7.18,10.23,5.96,13.84
3.975238800048828,6.87,8.49,2.79,11.27
3.985194683074951,6.25,8.69,-3.09,11.14
3.995313882827759,3.07,11.74,-5.17,13.19
4.006241798400879,-1.49,13.57,-2.88,13.95
4.015413761138916,-2.39,12.13,-2.08,12.53
4.025476932525635,-0.48,7.2,0.58,7.23
4.03663969039917,1.35,3.53,2.57,4.57
4.065187931060791,-1.69,0.99,0.17,1.96
4.065544843673706,-5.38,1.83,-6.62,8.72
4.065896987915039,-1.74,4.78,-2.43,5.63
4.075207710266113,2.89,3.17,2.38,4.9
4.085116863250732,5.52,0.74,3.34,6.49
4.095191955566406,5.36,-0.78,3.53,6.46
4.106083869934082,4.47,-1.6,3.12,5.68
4.115280866622925,4.16,-2.15,3.14,5.63
4.125319004058838,3.68,-2.65,3.29,5.6
4.136437892913818,3.19,-2.82,3.47,5.49
4.165954828262329,2.46,-2.9,3.77,5.35
4.1663148403167725,1.59,-3.19,3.84,5.23
4.166667938232422,0.71,-3.34,3.53,4.91
4.174948692321777,0.01,-3.33,3.28,4.67
4.1849188804626465,-0.02,-3.44,3.16,4.67
4.195039749145508,0.54,-3.46,2.97,4.59
4.205832004547119,1.17,-3.41,2.78,4.55
4.215065002441406,1.59,-3.48,2.56,4.6
4.225153923034668,1.81,-3.56,2.31,4.61
4.236450910568237,1.65,-3.77,2.15,4.64
4.265740871429443,0.85,-4.18,1.66,4.57
4.26609468460083,-0.38,-4.48,0.57,4.53
4.266445875167847,-1.48,-4.71,-0.05,4.93
4.274855852127075,-2.15,-5.03,-0.24,5.47
4.28481388092041,-2.41,-4.99,-0.68,5.58
4.294964790344238,-3.02,-4.48,-1.79,5.69
4.3055548667907715,-3.55,-3.68,-3.1,5.97
4.31486177444458,-4.22,-2.49,-4.14,6.41
4.32496190071106,-5.45,-1.34,-5.09,7.57
4.336155891418457,-6.37,-0.64,-6.06,8.81
4.365702867507935,-6.48,-0.31,-6.66,9.29
4.3660569190979,-6.66,-0.47,-7.39,9.95
4.366415977478027,-7.57,-1.08,-8.54,11.46
4.374720811843872,-9.26,-1.79,-9.32,13.25
4.384655952453613,-9.94,-2.57,-9.29,13.84
4.394716739654541,-8.8,-3.74,-8.75,12.96
4.405656814575195,-7.75,-4.82,-8.14,12.22
4.414752960205078,-7.62,-5.22,-8.07,12.26
4.4247727394104,-7.7,-5.21,-8.33,12.48
4.436000823974609,-7.71,-5.28,-8.53,12.65
4.46595573425293,-7.85,-3.85,-8.93,12.49
4.466311931610107,-6.95,5.56,-4.69,10.06
4.466660976409912,-0.04,-0.32,-1.03,1.07
4.474644899368286,11.81,11.97,20.0,26.12
4.484904766082764,15.37,23.77,12.6,30.98
4.494585990905762,2.24,24.16,-20.07,31.48
4.5056939125061035,1.5,7.21,-14.64,16.38
4.514601707458496,-3.19,-6.71,-1.9,7.66
4.524648904800415,-8.01,-5.99,8.11,12.87
4.535871982574463,-9.79,-5.36,-2.55,11.44
4.565701961517334,-10.51,-4.15,-8.8,14.32
4.566061019897461,-9.15,-1.38,-5.83,10.93
4.566417694091797,-5.11,0.36,-2.63,5.75
4.574296951293945,-0.74,0.88,-2.12,2.41
4.5843377113342285,2.72,1.42,-1.57,3.44
4.594466686248779,4.39,1.45,0.0,4.62
4.6055006980896,2.6,1.09,0.51,2.86
4.614614009857178,-0.34,0.44,-1.2,1.32
4.624538898468018,-1.29,-0.02,-2.7,2.99
4.635843753814697,-1.37,-0.04,-2.11,2.51
4.665931701660156,-1.28,-0.04,-1.04,1.64
4.666292905807495,-0.7,0.0,-0.99,1.21
4.666642904281616,-0.11,-0.08,-1.46,1.46
4.6742188930511475,0.08,-0.09,-1.59,1.59
4.684225797653198,0.1,0.02,-1.28,1.28
4.6942079067230225,0.09,0.1,-0.61,0.62
4.7055559158325195,0.0,0.05,0.02,0.05
4.714346885681152,-0.25,0.05,0.62,0.67
4.724311828613281,-0.42,0.03,1.06,1.14
4.736126899719238,-0.4,0.01,1.05,1.12
4.766146898269653,-0.14,0.05,0.67,0.68
4.766499996185303,0.42,0.12,0.41,0.59
4.766845703125,1.15,0.18,0.45,1.24
4.774163722991943,1.69,0.27,0.35,1.74
4.7841057777404785,1.94,0.23,0.24,1.96
4.794172763824463,1.94,0.13,0.34,1.97
4.805801868438721,1.45,-0.01,0.64,1.58
4.814120769500732,0.95,-0.01,1.16,1.49
4.824152946472168,0.95,0.09,1.62,1.88
4.835396766662598,0.92,0.2,1.83,2.05
4.867044925689697,0.79,0.2,1.46,1.67
4.867406845092773,0.59,0.02,0.89,1.06
4.8677659034729,0.4,-0.14,0.82,0.92
4.873964786529541,0.69,-0.11,0.71,0.99
4.883947849273682,1.06,0.07,0.55,1.19
4.8940558433532715,1.05,0.33,0.25,1.12
4.905245780944824,0.82,0.63,0.09,1.03
4.914040803909302,0.56,0.88,0.28,1.08
4.924079895019531,0.15,0.86,0.5,1.0
4.935232877731323,0.02,0.55,0.84,1.0
4.967176914215088,0.09,0.47,1.52,1.59
4.967544794082642,0.48,0.75,1.71,1.92
4.967901706695557,1.24,1.33,1.61,2.42
4.973851680755615,0.82,1.67,1.6,2.45
4.983781814575195,0.9,1.97,1.67,2.73
4.993809700012207,1.23,2.21,1.65,3.01
5.005049705505371,1.53,2.29,1.65,3.21
5.013919830322266,1.92,2.41,1.64,3.49
5.023870944976807,2.33,2.57,1.9,3.95
5.035179853439331,2.55,3.09,2.32,4.62
5.0664896965026855,2.74,4.17,2.75,5.69
5.066840887069702,3.38,6.15,3.13,7.68
5.067187786102295,4.93,7.71,4.53,10.21
5.073584794998169,5.45,8.23,6.04,11.57
5.08374285697937,5.51,9.16,7.03,12.79
5.093690872192383,6.07,10.33,8.55,14.71
5.104931831359863,6.28,10.51,9.2,15.31
5.1137518882751465,5.41,9.56,8.46,13.86
5.123738765716553,4.33,8.25,6.41,11.3
5.135074853897095,4.87,7.24,1.74,8.89
5.168452739715576,6.48,8.03,-3.56,10.91
5.1688079833984375,5.14,11.68,-6.29,14.22
5.169157028198242,0.54,14.53,-2.51,14.75
5.173499822616577,-2.08,12.47,1.63,12.74
5.183647871017456,-0.52,7.46,1.0,7.54
5.193467855453491,1.93,3.98,1.13,4.56
5.204871892929077,-1.02,1.99,0.55,2.3
5.213572978973389,-5.33,1.31,-5.23,7.58
5.22372579574585,-2.24,4.27,-4.57,6.64
5.235001802444458,3.29,4.63,0.76,5.73
5.26779580116272,7.26,2.02,3.45,8.28
5.26812481880188,8.8,-0.45,4.5,9.89
5.268451690673828,7.35,-1.77,4.03,8.56
5.273365020751953,5.85,-2.36,3.35,7.14
5.283340930938721,4.83,-2.46,3.09,6.23
5.293575763702393,3.84,-2.17,2.87,5.26
5.304152011871338,2.86,-2.04,2.79,4.48
5.313350677490234,1.78,-1.96,2.65,3.74
5.323436737060547,0.92,-1.86,2.27,3.07
5.334475994110107,0.38,-1.87,1.74,2.58
5.3682026863098145,0.34,-1.95,1.38,2.41
5.3685338497161865,0.7,-2.05,1.19,2.47
5.368858814239502,1.18,-2.36,1.06,2.84
5.373080730438232,1.66,-2.68,0.76,3.24
5.383098840713501,2.0,-3.16,0.69,3.8
5.393189907073975,1.82,-3.7,0.6,4.16
5.403968811035156,0.93,-4.38,0.32,4.48
5.413274765014648,-0.41,-5.31,-0.1,5.32
5.423317909240723,-1.46,-6.23,-0.27,6.4
5.434261798858643,-2.43,-6.93,-0.27,7.34
5.4687278270721436,-3.45,-7.43,-0.61,8.21
5.469059944152832,-4.18,-7.7,-1.26,8.85
5.469385862350464,-5.08,-7.63,-2.19,9.42
5.473014831542969,-6.14,-6.9,-3.12,9.74
5.482967853546143,-6.59,-5.58,-4.04,9.53
5.49306583404541,-6.6,-4.04,-4.36,8.88
5.50389289855957,-6.93,-2.36,-5.22,8.99
5.513078689575195,-7.55,-0.31,-6.82,10.17
5.523046016693115,-9.12,1.54,-8.28,12.41
5.534134864807129,-11.52,2.41,-9.13,14.89
5.56827974319458,-13.49,1.72,-9.01,16.31
5.568610906600952,-13.78,0.2,-7.63,15.75
5.568939685821533,-12.29,-0.38,-6.96,14.12
5.572788715362549,-9.29,-0.36,-7.25,11.78
5.582868814468384,-6.32,0.22,-6.23,8.87
5.592881679534912,-6.81,6.16,-5.38,10.64
5.6035966873168945,-3.64,-1.55,-6.42,7.54
5.612936019897461,-2.23,-5.11,-8.38,10.06
5.622914791107178,12.38,10.17,9.49,18.62
5.634094715118408,24.39,19.0,15.92,34.77
5.667737007141113,13.55,24.38,-2.56,28.0
5.668076992034912,2.19,11.34,-12.46,16.98
5.668402910232544,-10.69,-5.67,-2.94,12.45
5.672586917877197,-14.83,-10.47,7.25,19.54
5.682832717895508,-13.7,-7.97,-2.44,16.03
5.692690849304199,-12.45,-4.47,-7.03,14.98
5.70345401763916,-8.18,-0.98,-5.87,10.11
5.712800979614258,-4.49,1.13,-2.34,5.18
5.722638845443726,-2.44,1.14,-0.55,2.74
5.733914852142334,0.37,0.72,-1.61,1.8
5.768206834793091,4.31,1.11,-3.2,5.48
5.7685136795043945,5.36,1.52,-2.64,6.16
5.768816947937012,1.56,1.24,-1.89,2.74
5.772462844848633,-1.4,0.79,-2.24,2.75
5.782557010650635,-2.04,0.18,-1.79,2.71
5.792553901672363,-1.55,-0.21,-1.23,1.98
5.803548812866211,-0.94,-0.32,-0.88,1.32
5.812717914581299,-0.5,-0.13,-0.72,0.88
5.82255482673645,0.13,0.15,-0.52,0.55
5.833766937255859,0.19,0.26,-0.39,0.5
5.867998838424683,-0.19,0.27,-0.42,0.53
5.868326902389526,-0.56,0.2,-0.22,0.63
5.868630886077881,-0.54,0.0,0.18,0.56
5.872423887252808,-0.27,-0.12,0.47,0.55
5.882452011108398,-0.13,-0.12,0.46,0.49
5.892444849014282,0.02,-0.01,0.51,0.51
5.903082847595215,0.24,0.18,0.56,0.63
5.9123148918151855,0.52,0.29,0.41,0.72
5.922456741333008,0.85,0.32,0.49,1.03
5.933426856994629,1.2,0.29,0.88,1.51
5.968031883239746,1.76,0.26,1.26,2.18
5.968349933624268,2.0,0.14,1.58,2.55
5.968653678894043,1.52,-0.05,1.79,2.34
5.972409725189209,0.99,-0.25,1.86,2.12
5.982156753540039,0.72,-0.25,1.78,1.93
5.992331027984619,0.67,-0.05,1.28,1.44
6.003034830093384,0.65,0.12,0.5,0.82
6.012282848358154,0.43,0.31,-0.17,0.55
6.022550821304321,0.13,0.5,-0.44,0.67
6.033423900604248,-0.11,0.55,-0.22,0.6
6.068976879119873,0.25,0.79,0.23,0.85
6.0693039894104,1.14,1.17,0.84,1.83
6.069610834121704,1.3,1.73,1.27,2.5
6.072422981262207,1.19,1.95,1.61,2.79
6.082080841064453,1.1,1.83,2.19,3.05
6.092139720916748,1.09,1.49,2.41,3.03
6.102859973907471,1.18,1.24,1.86,2.52
6.112237930297852,1.03,1.31,1.5,2.24
6.12247371673584,1.31,1.42,1.54,2.47
6.1332597732543945,1.73,1.41,1.88,2.91
6.168903827667236,1.95,1.54,2.21,3.32
6.169210910797119,2.17,1.87,2.76,3.97
6.169511795043945,2.51,2.33,3.34,4.78
6.172132968902588,2.99,3.03,3.83,5.72
6.181849002838135,3.49,4.19,4.3,6.94
6.19183087348938,3.89,6.86,4.12,8.89
6.202625751495361,5.82,10.04,4.88,12.58
6.211901903152466,7.5,11.0,7.25,15.15
6.222336769104004,6.42,10.2,8.06,14.49
6.233036994934082,4.85,9.6,7.92,13.35
6.268597841262817,4.11,9.34,7.6,12.72
6.268905878067017,3.38,8.66,4.22,10.2
6.269209861755371,3.9,8.39,-1.23,9.33
6.2717719078063965,3.35,10.34,-5.46,12.16
6.281816005706787,0.32,13.33,-3.63,13.81
6.291791915893555,-1.43,12.7,0.98,12.81
6.30255389213562,-0.35,9.09,1.0,9.15
6.311863899230957,2.08,5.32,-0.14,5.71
6.321847915649414,1.23,2.81,0.65,3.13
6.332780838012695,-2.66,1.47,-2.17,3.73
6.369034767150879,-3.55,3.37,-6.07,7.79
6.369341850280762,1.74,5.99,-1.93,6.52
6.3696448802948,6.59,4.13,2.04,8.04
6.371582984924316,8.66,1.01,3.83,9.52
6.381678819656372,8.22,-0.99,4.46,9.4
6.391593933105469,6.1,-1.88,3.37,7.21
6.402349948883057,4.81,-2.16,2.49,5.83
6.411683797836304,4.51,-1.85,2.51,5.48
6.421658992767334,4.48,-1.25,2.6,5.32
6.432631015777588,3.76,-1.04,2.07,4.41
6.468636989593506,2.8,-1.12,1.32,3.29
6.468945026397705,2.15,-1.28,1.13,2.74
6.469244003295898,1.79,-1.63,1.33,2.76
6.471455812454224,1.54,-1.92,1.1,2.69
6.481438875198364,1.31,-2.26,0.67,2.69
6.491484880447388,1.36,-2.74,0.4,3.08
6.502162933349609,1.64,-3.32,0.33,3.71
6.511685848236084,1.66,-3.95,0.19,4.28
6.5216217041015625,1.02,-4.61,-0.01,4.72
6.532522678375244,-0.07,-5.44,-0.42,5.45
6.568822860717773,-1.11,-6.4,-0.97,6.56
6.569113731384277,-1.66,-7.4,-0.83,7.62
6.56939172744751,-2.14,-8.07,-0.83,8.39
6.571318864822388,-2.83,-8.26,-1.54,8.86
6.58126974105835,-3.69,-7.97,-2.64,9.17
6.591360807418823,-4.63,-7.33,-3.99,9.54
6.602022886276245,-5.31,-6.38,-5.47,9.94
6.611343860626221,-5.54,-5.17,-6.95,10.28
6.621335983276367,-5.52,-3.81,-8.26,10.64
6.63254976272583,-5.57,-2.4,-9.39,11.17
6.668640851974487,-5.89,-0.77,-10.37,11.95
6.668931007385254,-6.37,1.1,-11.35,13.06
6.669215679168701,-7.05,2.7,-12.39,14.5
6.671228885650635,-7.97,3.77,-12.83,15.56
6.681175708770752,-8.54,3.71,-12.5,15.58
6.691249847412109,-8.33,2.51,-12.17,14.95
6.701852798461914,-7.77,7.31,-9.24,14.11
6.7112298011779785,-1.94,0.09,-4.9,5.27
6.721308708190918,-3.01,-5.66,-6.44,9.08
6.732245922088623,0.09,4.54,4.92,6.69
6.7686238288879395,8.75,11.85,27.16,30.89
6.7689290046691895,5.77,11.28,1.71,12.78
6.769213676452637,-1.79,7.71,-2.86,8.41
6.771123886108398,-9.24,3.25,4.21,10.66
6.781019687652588,-13.25,1.03,-3.73,13.8
6.791065692901611,-7.1,-1.55,-4.02,8.3
6.801652908325195,-2.98,-0.26,-3.95,4.95
6.811115741729736,-0.86,-1.2,-6.03,6.2
6.821150779724121,1.66,0.4,-8.56,8.72
6.832129955291748,2.35,0.93,-8.97,9.31
6.8689868450164795,1.43,0.19,-7.09,7.23
6.8692779541015625,0.4,0.11,-3.96,3.98
6.869592905044556,-0.45,0.27,-1.53,1.61
6.870812892913818,-1.98,0.68,0.83,2.25
6.880915880203247,-2.63,0.42,2.14,3.41
6.890931844711304,-1.63,0.2,1.66,2.33
6.901535987854004,-0.42,0.2,1.16,1.24
6.9109907150268555,0.52,0.12,0.06,0.53
6.920867919921875,1.32,0.07,-0.67,1.48
6.931931972503662,1.85,-0.07,-0.44,1.9
6.968768835067749,1.65,-0.42,-0.84,1.89
6.969070911407471,0.08,-0.71,-2.06,2.18
6.969357013702393,-1.74,-0.88,-2.63,3.27
6.970783710479736,-1.94,-0.72,-1.33,2.45
6.980762004852295,-0.85,-0.29,0.41,0.98
6.990717887878418,0.09,0.19,1.4,1.41
7.001356840133667,0.47,0.47,1.62,1.75
7.010703802108765,0.38,0.47,1.0,1.16
7.020765781402588,0.23,0.43,0.13,0.5
7.031569004058838,0.22,0.32,-0.22,0.44
7.068763732910156,0.22,0.05,0.09,0.24
7.069057941436768,0.44,-0.1,0.69,0.82
7.06934380531311,0.55,-0.05,1.09,1.22
7.070590019226074,0.47,-0.03,1.26,1.34
7.080657005310059,0.4,-0.12,1.27,1.33
7.090443849563599,0.69,-0.16,1.0,1.22
7.101223945617676,1.03,-0.11,0.57,1.18
7.110623836517334,1.14,0.08,0.36,1.19
7.1205878257751465,1.3,0.32,0.36,1.38
7.131558895111084,1.44,0.52,0.58,1.63
7.169052839279175,1.25,0.48,0.75,1.53
7.169344902038574,0.87,0.42,0.81,1.26
7.169626712799072,0.57,0.41,1.04,1.25
7.170432806015015,0.55,0.74,1.52,1.77
7.180383682250977,0.39,1.05,2.04,2.32
7.190313816070557,0.89,1.72,2.02,2.79
7.201061725616455,1.33,2.34,2.39,3.59
7.210472822189331,1.25,2.23,2.56,3.61
7.22046685218811,1.42,2.39,2.28,3.59
7.231352806091309,1.75,2.39,2.49,3.86
7.269018888473511,2.16,2.39,2.53,4.09
7.269300937652588,2.49,2.73,2.71,4.58
7.269586801528931,2.71,3.71,2.9,5.43
7.270177841186523,2.96,5.56,3.01,6.98
7.280307769775391,4.01,7.27,3.81,9.13
7.290222883224487,5.1,8.02,5.59,11.02
7.300931930541992,5.65,8.58,6.82,12.33
7.3103437423706055,5.61,9.35,7.45,13.2
7.320339679718018,4.61,9.84,8.29,13.66
7.331336975097656,2.98,9.22,8.82,13.1
7.3704588413238525,1.42,7.51,7.16,10.47
7.370745897293091,1.87,5.95,1.39,6.38
7.37103271484375,5.01,6.81,-4.73,9.68
7.3713250160217285,3.61,10.55,-5.62,12.48
7.380140781402588,-1.0,11.76,-1.91,11.95
7.390193939208984,-1.66,10.75,0.55,10.89
7.400796890258789,0.42,8.08,-0.33,8.09
7.410183906555176,1.78,4.08,-0.02,4.45
7.420123815536499,-1.04,1.35,0.4,1.75
7.431065797805786,-3.87,0.72,-3.41,5.2
7.470105886459351,-0.83,3.05,-4.57,5.55
7.470384836196899,5.06,4.69,0.01,6.89
7.470655918121338,9.49,2.57,2.87,10.24
7.470923900604248,11.84,-0.18,4.93,12.82
7.479899883270264,11.53,-1.64,5.49,12.87
7.490175724029541,9.21,-1.89,4.37,10.36
7.500698804855347,7.19,-1.78,3.42,8.15
7.509990692138672,5.37,-1.57,2.55,6.14
7.519937992095947,4.08,-1.44,2.2,4.85
7.531027793884277,2.99,-1.72,2.52,4.27
7.569991827011108,2.22,-1.93,2.6,3.92
7.570265769958496,1.57,-2.03,2.03,3.27
7.570533752441406,1.23,-1.93,1.1,2.53
7.570777893066406,1.23,-2.0,0.95,2.53
7.579869747161865,1.6,-2.2,1.17,2.96
7.590083837509155,2.26,-2.46,1.2,3.54
7.600421905517578,2.23,-2.72,1.1,3.68
7.609838962554932,0.91,-2.74,0.6,2.94
7.619882822036743,-1.29,-2.58,-0.28,2.89
7.630865812301636,-3.08,-3.0,-1.16,4.45
7.669151782989502,-4.25,-3.3,-2.37,5.87
7.669604778289795,-5.03,-3.03,-4.25,7.24
7.669870853424072,-5.36,-2.89,-5.69,8.33
7.670135021209717,-5.88,-3.52,-3.85,7.86
7.679691791534424,-6.77,-4.15,-1.94,8.17
7.689682960510254,-7.16,-3.41,-2.49,8.31
7.700257778167725,-6.88,-2.02,-2.95,7.75
7.709683895111084,-5.98,-0.63,-3.29,6.85
7.719711780548096,-5.76,1.2,-3.98,7.1
7.73063588142395,-7.13,3.07,-5.65,9.6
7.769294738769531,-8.78,3.84,-7.5,12.16
7.769958972930908,-9.53,2.93,-8.06,12.82
7.770230770111084,-9.64,0.84,-8.27,12.72
7.770495891571045,-9.29,-1.04,-7.91,12.24
7.779543876647949,-9.3,-0.4,-7.05,11.67
7.789502859115601,-7.0,1.13,-7.0,9.96
7.800071716308594,-5.93,-2.98,-7.18,9.77
7.809516906738281,-11.09,-4.51,-8.48,14.67
7.819545745849609,-8.39,0.18,-8.26,11.77
7.830473899841309,6.17,12.7,12.47,18.83
7.86954402923584,13.86,15.4,13.58,24.77
7.86981201171875,2.31,14.18,-8.03,16.45
7.8700737953186035,-4.36,3.14,-3.32,6.31
7.870330810546875,-5.8,-6.4,-3.37,9.27
7.879388809204102,-7.22,-4.53,-2.49,8.87
7.889379978179932,-8.6,-4.06,-2.34,9.79
7.899994850158691,-8.87,-3.12,-5.66,10.97
7.909371852874756,-7.12,-1.06,-6.92,9.98
7.919432878494263,-4.45,0.37,-3.6,5.73
7.930181980133057,-2.08,0.55,-1.94,2.89
7.939464807510376,0.57,0.74,-2.74,2.89
7.970002889633179,2.35,1.44,-2.57,3.76
7.970277786254883,0.59,1.3,-0.81,1.64
7.970535755157471,-1.97,0.44,0.03,2.01
7.979229927062988,-2.37,-0.17,-0.49,2.42
7.989307880401611,-1.84,-0.23,-1.27,2.24
7.999826908111572,-1.43,-0.02,-1.68,2.2
8.009217739105225,-1.18,0.14,-1.75,2.11
8.019315719604492,-0.68,0.2,-1.74,1.87
8.030073881149292,0.19,0.19,-1.54,1.56
8.039315700531006,0.52,0.25,-1.36,1.47
8.070077896118164,0.46,0.26,-1.14,1.25
8.070343017578125,0.14,0.16,-0.59,0.62
8.070604801177979,-0.28,0.0,0.05,0.28
8.07904577255249,-0.46,-0.09,0.4,0.61
8.089190006256104,-0.35,-0.07,0.66,0.75
8.09970474243164,-0.15,0.07,0.62,0.64
8.109139919281006,0.11,0.17,0.38,0.43
8.119335889816284,0.44,0.24,0.31,0.58
8.130026817321777,0.71,0.17,0.24,0.76
8.139235973358154,0.89,0.08,0.5,1.02
8.17047381401062,1.14,0.01,1.12,1.59
8.170740842819214,1.49,-0.08,1.54,2.14
8.171011924743652,1.6,-0.22,1.59,2.26
8.178931713104248,1.3,-0.29,1.31,1.86
8.188868999481201,0.79,-0.27,0.86,1.19
8.199731826782227,0.51,-0.17,0.63,0.82
8.20897889137268,0.68,-0.04,0.43,0.8
8.219116687774658,1.08,0.25,0.05,1.1
8.229805946350098,1.31,0.52,0.05,1.41
8.239019870758057,1.25,0.73,0.38,1.49
8.270732879638672,1.23,0.72,0.65,1.56
8.27099895477295,1.11,0.67,0.85,1.55
8.27126169204712,0.97,0.63,1.31,1.74
8.278741836547852,1.18,0.56,1.46,1.95
8.288792848587036,1.45,0.85,1.32,2.13
8.299424886703491,1.77,1.4,1.33,2.61
8.3088698387146,2.52,2.25,1.66,3.76
8.31910490989685,2.51,2.48,2.43,4.28
8.33057188987732,2.39,2.51,2.72,4.4
8.338797807693481,2.7,2.79,2.65,4.7
8.370927810668945,2.65,2.88,2.98,4.91
8.371187686920166,2.44,3.2,3.1,5.07
8.371444702148438,2.43,4.5,3.23,6.04
8.37863302230835,3.53,6.33,3.29,7.95
8.388855934143066,4.81,6.59,4.72,9.42
8.399236679077148,4.28,6.64,5.61,9.68
8.408597946166992,4.27,7.52,6.68,10.92
8.418616771697998,5.12,8.57,7.68,12.59
8.429483890533447,6.15,9.4,7.37,13.43
8.438560009002686,6.49,9.52,6.59,13.27
8.470964908599854,6.14,9.01,5.28,12.11
8.471224784851074,6.02,8.21,2.6,10.5
8.471483707427979,6.07,7.36,-2.14,9.77
8.478401899337769,4.42,8.7,-6.99,12.0
8.488356828689575,-0.06,12.04,-6.37,13.62
8.499059677124023,-3.02,12.55,-0.65,12.92
8.508372783660889,-1.49,8.85,1.91,9.17
8.5184907913208,1.69,4.79,0.42,5.09
8.529284000396729,1.5,1.56,0.67,2.26
8.538658857345581,-1.86,-0.05,-1.43,2.34
8.57110071182251,-2.02,2.56,-5.73,6.59
8.571363925933838,3.11,5.43,-2.75,6.83
8.571621894836426,7.89,3.7,0.74,8.74
8.578341007232666,10.92,0.75,2.95,11.33
8.588383674621582,10.08,-1.49,3.75,10.85
8.598973751068115,7.32,-2.55,3.24,8.4
8.60822582244873,5.23,-2.96,2.68,6.58
8.618481874465942,3.61,-3.09,2.34,5.29
8.629328727722168,2.6,-3.1,2.07,4.54
8.638330936431885,1.71,-3.0,2.26,4.12
8.67152190208435,1.0,-2.82,2.34,3.79
8.6717848777771,0.93,-2.68,1.87,3.39
8.672042846679688,1.59,-2.71,1.83,3.63
8.678143978118896,2.42,-3.02,2.07,4.38
8.688267707824707,2.98,-3.37,1.86,4.86
8.698728799819946,2.78,-3.58,1.35,4.72
8.70807695388794,1.84,-3.58,0.44,4.04
8.718245029449463,1.11,-3.72,0.0,3.88
8.729043006896973,0.71,-4.01,-0.1,4.07
8.738271713256836,0.66,-4.15,-0.33,4.21
8.771842002868652,0.18,-4.06,-0.66,4.11
8.772104740142822,-0.67,-3.99,-1.24,4.23
8.772369861602783,-1.8,-3.79,-2.4,4.83
8.778018951416016,-3.03,-3.26,-3.37,5.58
8.787969827651978,-5.26,-2.65,-4.29,7.28
8.798528909683228,-8.06,-2.03,-5.95,10.22
8.808019876480103,-10.01,-0.89,-6.99,12.24
8.818048000335693,-10.5,0.36,-6.65,12.43
8.82899284362793,-10.16,2.14,-6.7,12.35
8.838112831115723,-9.41,3.77,-7.1,12.37
8.872336864471436,-8.72,4.16,-7.1,11.98
8.872599840164185,-8.7,3.4,-7.21,11.79
8.872859001159668,-8.84,1.75,-7.52,11.73
8.877892971038818,-8.47,-0.2,-6.98,10.97
8.887866020202637,-7.85,-1.61,-5.8,9.89
8.898366928100586,-7.5,-2.78,-5.3,9.59
8.908074855804443,-8.69,-0.98,-5.69,10.43
8.917923927307129,-6.92,-0.02,-7.31,10.06
8.928714752197266,-4.89,-1.5,-7.18,8.81
8.937992811203003,2.32,5.56,2.98,6.72
8.97178602218628,11.54,7.13,13.7,19.27
8.972047805786133,8.14,6.95,10.01,14.65
8.972304821014404,-1.2,7.32,-2.0,7.68
8.977810859680176,-7.27,7.73,-6.55,12.47
8.987742900848389,-7.39,4.87,-5.52,10.43
8.998328685760498,-5.28,0.31,-6.87,8.67
9.008035898208618,-7.03,0.22,0.78,7.07
9.017721891403198,-8.09,-2.76,1.5,8.67
9.02863597869873,-7.25,-3.21,-3.8,8.79
9.037841796875,-5.97,-2.11,-4.92,8.01
9.072098731994629,-4.46,-0.82,-3.49,5.72
9.072365760803223,-2.98,0.17,-2.07,3.63
9.07262372970581,-1.12,0.79,-1.9,2.34
9.07762098312378,0.88,0.93,-1.78,2.19
9.087677955627441,1.76,0.81,-1.73,2.59
9.098167896270752,0.76,0.54,-2.14,2.33
9.107848882675171,-0.21,0.4,-2.09,2.13
9.117722988128662,-0.06,0.43,-1.73,1.78
9.128357887268066,0.02,0.28,-1.76,1.78
9.137664794921875,-0.46,0.05,-1.23,1.31
9.172704696655273,-0.73,-0.01,-0.95,1.19
9.172967910766602,-0.54,0.01,-1.03,1.16
9.17323088645935,-0.26,0.12,-0.87,0.91
9.177435874938965,-0.25,0.14,-0.74,0.79
9.187408924102783,-0.48,0.13,-0.57,0.75
9.197993755340576,-0.91,0.07,-0.22,0.93
9.207456827163696,-1.22,-0.06,0.11,1.22
9.217447757720947,-1.16,-0.1,0.25,1.19
9.228240966796875,-0.74,-0.05,0.25,0.78
9.237427711486816,-0.26,0.07,0.34,0.43
9.273502826690674,0.27,0.13,0.59,0.66
9.27376389503479,0.91,0.17,0.58,1.09
9.274019718170166,1.28,0.31,0.59,1.44
9.277305841445923,1.03,0.29,0.53,1.19
9.28730583190918,0.68,0.05,0.66,0.94
9.297940731048584,0.76,-0.17,1.24,1.46
9.307301998138428,1.24,-0.31,1.87,2.26
9.317338943481445,1.9,-0.24,2.13,2.86
9.32821273803711,2.35,-0.03,2.1,3.15
9.337283849716187,2.37,0.08,1.82,2.98
9.373275756835938,2.26,0.04,1.61,2.77
9.373520851135254,2.38,-0.03,1.61,2.87
9.373781681060791,2.76,-0.01,1.92,3.36
9.377169847488403,2.7,0.01,1.83,3.26
9.387170791625977,2.27,-0.13,2.14,3.12
9.397648811340332,1.97,0.24,1.92,2.76
9.407143831253052,2.02,0.72,1.02,2.37
9.417198896408081,1.59,1.12,0.5,2.0
9.427870750427246,0.97,1.49,0.43,1.82
9.437121868133545,1.04,2.11,0.99,2.55
9.473949909210205,1.05,2.37,1.52,3.0
9.474209785461426,0.95,2.97,2.29,3.86
9.474803924560547,1.81,3.39,2.83,4.77
9.477051734924316,2.34,3.66,3.33,5.47
9.486920833587646,2.53,4.23,3.51,6.05
9.497562885284424,2.66,5.88,3.13,7.17
9.506972789764404,3.71,8.06,3.1,9.39
9.517002820968628,4.85,8.98,4.95,11.34
9.52790880203247,5.04,9.83,6.26,12.69
9.537047863006592,5.45,10.78,7.07,13.99
9.57470989227295,5.93,11.47,7.55,14.95
9.574971675872803,6.61,12.08,7.3,15.58
9.57522988319397,6.94,11.55,6.61,15.0
9.576848030090332,5.98,9.02,4.35,11.66
9.586870908737183,4.49,7.06,-1.11,8.44
9.59737491607666,1.86,7.71,-6.65,10.35
9.606864929199219,-2.21,12.28,-6.38,14.01
9.616873741149902,-4.48,13.46,0.15,14.18
9.627760887145996,-1.21,8.56,1.65,8.8
9.636892795562744,1.67,3.45,0.02,3.83
9.674874782562256,-0.55,-0.3,0.67,0.91
9.6751389503479,-4.81,-1.23,-4.09,6.43
9.675397872924805,-2.75,2.78,-5.23,6.53
9.676878929138184,2.53,4.59,0.23,5.24
9.686767816543579,6.71,2.52,3.22,7.85
9.697220802307129,8.83,-0.47,6.02,10.69
9.706665992736816,7.7,-2.12,6.53,10.31
9.716749906539917,6.19,-2.26,4.84,8.17
9.727635860443115,4.68,-2.2,3.69,6.35
9.73672890663147,3.09,-2.25,3.18,4.97
9.774734020233154,2.04,-2.41,3.03,4.37
9.77499771118164,1.32,-2.76,3.45,4.61
9.77525782585144,0.69,-3.06,3.62,4.79
9.776541709899902,0.34,-3.23,3.12,4.5
9.786513805389404,0.46,-3.59,2.8,4.57
9.797061920166016,0.95,-4.04,2.75,4.97
9.806603908538818,1.23,-4.32,2.54,5.16
9.816591739654541,1.05,-4.44,2.12,5.03
9.8274507522583,0.81,-4.44,1.75,4.84
9.8366117477417,0.54,-4.57,1.42,4.81
9.875356674194336,0.24,-4.88,1.0,4.98
9.875622749328613,-0.56,-5.02,0.72,5.1
9.875908851623535,-1.52,-4.79,0.0,5.02
9.87634801864624,-2.09,-4.28,-1.19,4.9
9.886384963989258,-3.46,-3.41,-2.64,5.52
9.896966934204102,-5.28,-2.24,-5.03,7.62
9.906401872634888,-6.24,-1.11,-5.88,8.64
9.916468858718872,-6.39,-0.46,-4.38,7.76
9.927076816558838,-5.65,0.07,-3.03,6.41
9.936367988586426,-5.28,1.85,-4.08,6.92
9.976574897766113,-5.34,3.95,-5.93,8.9
9.976837873458862,-5.65,4.32,-6.49,9.62
9.977101802825928,-6.14,3.53,-6.59,9.67
9.977362871170044,-6.9,2.8,-7.55,10.6
9.98619794845581,-7.53,1.61,-9.13,11.94
9.996886730194092,-7.72,-0.32,-9.78,12.46
10.006363868713379,-7.51,-2.02,-9.18,12.03
10.016305923461914,-7.44,-2.95,-8.31,11.53
10.026920795440674,-7.86,-3.84,-7.97,11.83
10.036299705505371,-8.67,0.41,-7.72,11.61
10.076694011688232,-5.75,-0.6,-6.85,8.96
10.076955795288086,-1.49,0.2,-5.26,5.47
10.077219009399414,5.33,7.66,9.42,13.25
10.077476978302002,10.79,4.28,14.36,18.46
10.086074829101562,6.26,4.63,3.62,8.58
10.096709728240967,0.82,7.9,-3.37,8.62
10.106101989746094,-4.36,6.6,-6.03,9.94
10.116137027740479,-7.09,1.74,-2.11,7.59
10.12671685218811,-7.64,1.61,-3.8,8.68
10.136156797409058,-4.02,-1.38,-9.41,10.32
10.176385879516602,-3.79,0.3,-6.34,7.39
10.176651000976562,-4.41,-1.6,-4.78,6.69
10.17691683769226,-3.47,-0.24,-6.21,7.11
10.177177906036377,-3.38,0.12,-5.39,6.36
10.185894966125488,-2.59,-0.39,-3.3,4.21
10.196528911590576,-1.53,0.19,-1.47,2.13
10.205959796905518,-1.08,0.72,-0.78,1.51
10.216004848480225,-0.93,0.58,-0.43,1.17
10.22659182548523,-1.17,0.3,-0.55,1.32
10.236004829406738,-1.54,0.27,-1.15,1.94
10.277444839477539,-1.44,0.33,-1.23,1.92
10.2777099609375,-0.99,0.18,-1.5,1.8
10.277970790863037,-0.61,0.1,-1.85,1.95
10.278230905532837,-0.53,0.04,-1.92,1.99
10.285767793655396,-0.54,0.01,-1.65,1.73
10.296342849731445,-0.58,-0.01,-1.25,1.37
10.305805683135986,-0.61,0.0,-1.03,1.19
10.315993785858154,-0.44,-0.01,-0.86,0.96
10.326601028442383,-0.15,0.0,-0.51,0.53
10.335777759552002,-0.1,0.07,0.02,0.12
10.377797842025757,-0.23,0.08,0.51,0.56
10.378045797348022,-0.25,0.08,0.83,0.87
10.378302812576294,0.04,0.13,0.79,0.8
10.378565788269043,0.51,0.21,0.83,0.99
10.385747909545898,0.89,0.23,0.88,1.27
10.396220684051514,1.21,0.13,0.5,1.31
10.405877828598022,1.08,0.06,0.19,1.09
10.415735721588135,0.88,0.05,0.59,1.06
10.426630973815918,0.96,0.02,1.36,1.66
10.435766696929932,1.28,0.03,1.82,2.22
10.477245807647705,1.39,-0.06,1.82,2.29
10.477509021759033,1.09,-0.22,1.6,1.94
10.477767944335938,0.93,-0.38,1.46,1.77
10.478024005889893,1.36,-0.41,1.27,1.9
10.485437870025635,2.06,-0.31,0.94,2.28
10.495988845825195,2.16,0.0,0.64,2.25
10.505584716796875,1.73,0.27,0.56,1.83
10.515523910522461,1.26,0.35,0.63,1.45
10.558852910995483,1.03,0.24,0.89,1.38
10.559113025665283,0.95,0.19,1.37,1.67
10.559369802474976,0.92,0.45,1.55,1.85
10.559624910354614,0.84,0.76,1.04,1.53
10.565380811691284,0.54,0.99,0.51,1.23
10.575677871704102,0.33,1.23,0.49,1.36
10.585412979125977,0.79,1.73,0.52,1.97
10.59609079360962,0.86,2.1,1.37,2.65
10.60541296005249,1.05,2.12,1.51,2.8
10.615432739257812,1.6,2.53,1.28,3.25
10.661266803741455,1.48,2.55,1.53,3.32
10.661527872085571,1.44,2.68,1.64,3.45
10.661796808242798,1.69,3.5,1.85,4.3
10.662038803100586,2.37,5.05,1.85,5.87
10.665295839309692,3.75,6.16,2.65,7.68
10.675222873687744,4.39,6.33,4.11,8.73
10.685257911682129,4.56,6.54,5.05,9.43
10.695874691009521,4.42,6.97,6.16,10.29
10.70516300201416,4.25,7.57,7.55,11.5
10.715272903442383,4.82,8.34,8.52,12.85
10.761076927185059,4.71,8.59,7.65,12.42
10.761340856552124,4.13,8.14,6.41,11.15
10.761602878570557,4.32,7.26,3.88,9.29
10.761859893798828,5.51,6.86,-0.82,8.83
10.765102863311768,6.03,8.93,-5.02,11.88
10.77501392364502,2.57,12.35,-4.84,13.51
10.785107851028442,-0.6,12.32,-0.87,12.36
10.795708894729614,0.92,9.61,0.65,9.67
10.805125713348389,2.14,5.8,1.66,6.4
10.81512975692749,2.11,3.15,2.6,4.59
10.86141586303711,-1.4,1.43,0.93,2.2
10.861684799194336,-4.64,1.96,-5.59,7.52
10.86194372177124,-0.8,5.27,-4.44,6.93
10.862201690673828,4.12,4.63,0.59,6.22
10.864941835403442,7.23,1.61,3.25,8.08
10.874886989593506,7.42,-0.71,3.83,8.38
10.884943008422852,5.0,-1.69,2.61,5.88
10.895521879196167,3.45,-2.14,2.21,4.62
10.904966831207275,2.71,-2.7,2.76,4.71
10.915011882781982,2.14,-2.88,3.11,4.74
10.96082067489624,1.36,-2.62,3.13,4.3
10.961782932281494,0.57,-2.52,3.03,3.98
10.962047815322876,-0.06,-2.54,2.72,3.72
10.962308883666992,-0.17,-2.53,2.51,3.56
10.964818954467773,0.5,-2.57,2.54,3.64
10.974800825119019,1.42,-2.68,2.6,3.99
10.984794855117798,1.95,-2.65,2.35,4.04
10.995423793792725,1.97,-2.68,2.2,3.98
11.004811763763428,1.54,-3.01,2.09,3.97
11.014899730682373,1.05,-3.44,1.88,4.05
11.025609970092773,0.67,-3.96,1.82,4.4
11.06131386756897,0.19,-4.38,1.45,4.61
11.061583995819092,-0.46,-4.57,0.9,4.68
11.061844825744629,-0.96,-4.86,0.84,5.02
11.064550876617432,-1.36,-4.91,0.59,5.12
11.074657917022705,-1.45,-4.67,-0.06,4.89
11.08465576171875,-1.45,-4.27,-0.49,4.53
11.095270872116089,-1.79,-3.42,-1.15,4.02
11.10477089881897,-2.59,-2.38,-2.06,4.07
11.114807844161987,-3.74,-1.65,-3.13,5.14
11.125525951385498,-4.75,-0.99,-4.42,6.56
11.162498950958252,-5.9,-0.28,-6.44,8.73
11.162761688232422,-7.49,0.33,-8.56,11.37
11.163020849227905,-9.29,0.47,-9.48,13.28
11.16449499130249,-10.71,-0.34,-9.51,14.32
11.174506902694702,-10.74,-1.58,-9.21,14.23
11.18451189994812,-9.79,-2.48,-8.87,13.44
11.195111751556396,-8.86,-2.86,-8.64,12.7
11.204474925994873,-7.91,-2.94,-8.26,11.8
11.214556694030762,-7.31,-3.12,-7.92,11.22
11.22528886795044,-7.55,2.48,-7.18,10.71
11.262324810028076,-4.68,-0.46,-4.62,6.59
11.262585878372192,-2.61,-5.63,-7.99,10.11
11.26284384727478,1.61,8.91,2.96,9.52
11.264972686767578,14.51,19.94,13.63,28.17
11.274349689483643,9.75,20.67,-9.73,24.83
11.284379959106445,6.3,7.97,-6.12,11.86
11.294886827468872,-7.54,-5.02,0.04,9.05
11.30436372756958,-10.03,-8.17,-1.86,13.06
11.314376831054688,-7.88,-4.49,-6.6,11.21
11.325185775756836,-9.65,-2.65,-7.14,12.29
11.363102912902832,-8.92,-0.13,-4.17,9.84
11.363372802734375,-4.78,1.22,-2.45,5.5
11.36366891860962,-0.58,0.69,-2.03,2.22
11.364213943481445,1.3,0.73,-1.56,2.15
11.374180793762207,1.81,0.76,-0.39,2.0
11.384209871292114,0.86,0.61,-0.05,1.05
11.394729852676392,-0.6,0.46,-1.43,1.61
11.404169797897339,-1.31,0.19,-2.37,2.71
11.414244890213013,-1.45,0.21,-2.05,2.51
11.425005912780762,-1.22,0.15,-1.72,2.11
11.466327905654907,-1.11,-0.09,-1.63,1.97
11.466629028320312,-1.3,-0.26,-1.35,1.89
11.466935873031616,-0.9,-0.12,-1.17,1.48
11.467206001281738,-0.15,0.21,-1.32,1.34
11.474009990692139,0.59,0.32,-1.16,1.34
11.48400068283081,0.7,0.23,-0.54,0.91
11.494472980499268,0.32,0.13,0.33,0.47
11.50407600402832,-0.05,0.0,1.08,1.08
11.514101028442383,-0.2,-0.11,1.12,1.14
11.524909019470215,-0.06,-0.06,0.61,0.61
11.563462734222412,0.26,0.07,0.33,0.42
11.563889980316162,0.52,0.15,0.26,0.6
11.56414794921875,0.73,0.11,0.41,0.84
11.564411878585815,0.83,0.07,0.84,1.18
11.57391881942749,0.72,0.05,1.04,1.26
11.583947896957397,0.52,0.02,0.91,1.04
11.594269752502441,0.28,-0.01,0.71,0.76
11.604221820831299,0.1,-0.14,0.52,0.54
11.613902807235718,0.17,-0.2,0.67,0.71
11.624668836593628,0.54,-0.13,0.84,1.0
11.664076805114746,0.84,-0.01,0.63,1.05
11.664341926574707,0.95,0.08,0.61,1.13
11.664598941802979,1.11,0.13,0.89,1.42
11.664853811264038,1.46,0.15,1.2,1.89
11.673759937286377,1.71,0.12,1.14,2.05
11.683812856674194,1.67,0.06,0.98,1.93
11.694492816925049,1.42,-0.04,0.84,1.65
11.703751802444458,1.05,-0.03,0.9,1.38
11.713811874389648,0.84,0.25,1.11,1.41
11.724527835845947,0.7,0.62,1.25,1.56
11.764416694641113,0.68,0.92,1.21,1.66
11.764684677124023,0.71,1.15,1.49,2.01
11.764941692352295,0.99,1.33,1.76,2.41
11.76520586013794,1.4,1.7,1.86,2.88
11.773685932159424,1.56,1.95,2.11,3.26
11.783631801605225,1.31,2.55,1.9,3.43
11.794477939605713,2.26,3.19,1.79,4.29
11.803603887557983,1.97,3.07,1.92,4.12
11.81367301940918,1.73,3.22,2.43,4.38
11.824371814727783,2.07,4.31,2.82,5.55
11.864810943603516,3.15,6.3,3.19,7.73
11.865071773529053,4.69,7.06,4.69,9.68
11.865327835083008,5.06,7.3,5.75,10.58
11.865585803985596,4.98,7.83,6.5,11.32
11.873456001281738,4.23,8.17,7.31,11.75
11.883502960205078,3.16,8.21,8.57,12.28
11.894386768341064,3.32,8.45,9.26,12.96
11.903489828109741,4.27,8.28,7.46,11.93
11.913512706756592,4.94,7.05,3.69,9.36
11.924327850341797,5.86,7.07,-0.49,9.19
11.965014934539795,5.03,9.55,-3.55,11.36
11.965281009674072,-0.34,12.05,-3.35,12.51
11.96554183959961,-3.16,11.11,-0.23,11.55
11.96579885482788,-2.52,9.21,1.95,9.74
11.973258018493652,-0.63,6.24,2.8,6.86
11.983337879180908,2.07,2.8,2.58,4.33
11.994242906570435,0.92,0.32,2.25,2.45
12.003349781036377,-1.75,0.06,-2.92,3.4
12.013309001922607,0.09,3.81,-4.76,6.09
12.024048805236816,4.39,4.7,-1.02,6.51
12.065415859222412,7.42,2.68,1.28,7.99
12.065683841705322,8.55,0.46,2.9,9.04
12.065948963165283,8.37,-1.64,3.97,9.4
12.066205978393555,6.8,-2.88,3.8,8.3
12.073148727416992,4.83,-2.73,3.29,6.45
12.083199977874756,3.39,-2.36,3.27,5.26
12.094071865081787,2.38,-2.4,3.68,4.99
12.103306770324707,1.83,-2.36,3.58,4.66
12.113120794296265,1.3,-2.01,3.08,3.9
12.123896837234497,0.74,-1.61,2.5,3.06
12.165940761566162,1.08,-1.13,1.89,2.45
12.166201829910278,2.02,-1.06,1.83,2.92
12.166460990905762,2.9,-1.22,2.34,3.92
12.166724681854248,3.36,-1.1,2.48,4.31
12.173096895217896,2.74,-0.94,2.27,3.68
12.18324089050293,0.79,-1.44,1.72,2.37
12.193978786468506,-1.19,-1.95,-0.42,2.32
12.203230857849121,-2.68,-1.83,-2.76,4.26
12.212989807128906,-3.64,-1.86,-2.83,4.97
12.223948955535889,-3.5,-2.51,-1.03,4.42
12.26636791229248,-2.8,-2.82,-0.28,3.98
12.26663088798523,-2.64,-2.2,-0.84,3.53
12.266896724700928,-3.27,-1.46,-1.73,3.97
12.2671537399292,-4.25,-0.6,-2.46,4.94
12.272984981536865,-5.07,0.26,-3.06,5.92
12.282883882522583,-5.94,1.1,-4.45,7.5
12.293409824371338,-6.5,1.91,-6.05,9.08
12.302886009216309,-6.78,2.19,-6.9,9.91
12.312901973724365,-7.27,1.75,-8.02,10.96
12.323686838150024,-8.35,0.75,-9.54,12.7
12.367018699645996,-9.43,-0.57,-10.18,13.88
12.367284774780273,-9.72,-2.05,-10.26,14.28
12.36755084991455,-9.4,-3.22,-10.14,14.19
12.367817878723145,-8.86,-3.79,-9.75,13.7
12.372674942016602,-8.1,-4.09,-9.44,13.09
12.382699966430664,-7.26,-4.32,-9.12,12.43
12.39337968826294,-7.18,-0.13,-8.67,11.25
12.402719974517822,-3.91,0.62,-5.02,6.39
12.412832736968994,-0.69,-4.09,-5.55,6.92
12.423612833023071,3.05,5.66,6.03,8.81
12.467680931091309,10.55,7.31,18.55,22.55
12.46794581413269,9.02,6.09,3.37,11.39
12.468204975128174,3.3,7.03,-5.74,9.65
12.468463897705078,-5.19,11.91,-7.98,15.24
12.472567796707153,-9.91,6.01,-16.89,20.48
12.482501983642578,-8.18,6.74,-9.95,14.53
12.493013858795166,-9.76,-0.16,4.65,10.81
12.502604961395264,-8.85,-7.24,-0.6,11.44
12.512609004974365,-7.66,-4.97,-9.2,12.96
12.525262832641602,-6.49,-2.66,-5.85,9.13
12.5674147605896,-4.5,-0.79,-2.67,5.29
12.567681789398193,-1.05,1.15,-2.92,3.3
12.567940711975098,1.96,2.14,-2.83,4.05
12.568199872970581,2.83,2.2,-1.93,4.07
12.572431802749634,1.6,1.37,-1.5,2.58
12.582432746887207,-0.12,0.72,-1.91,2.04
12.592957973480225,-1.13,0.3,-2.26,2.54
12.602470874786377,-1.57,0.05,-1.96,2.51
12.612510681152344,-1.6,-0.18,-1.16,1.98
12.62326192855835,-1.29,-0.22,-0.42,1.37
12.668346881866455,-0.73,-0.09,-0.26,0.78
12.668608903884888,-0.25,0.04,-0.44,0.5
12.668867826461792,-0.05,0.05,-0.48,0.48
12.669123888015747,0.01,0.0,-0.18,0.18
12.672345876693726,-0.04,-0.09,0.22,0.24
12.682309865951538,-0.01,-0.16,0.51,0.53
12.692790985107422,0.17,-0.22,0.66,0.71
12.702303886413574,0.44,-0.14,0.43,0.63
12.712224006652832,0.67,0.01,0.17,0.69
12.723030805587769,0.92,0.12,-0.07,0.93
12.768313884735107,1.27,0.18,-0.27,1.31
12.768579959869385,1.37,0.16,-0.14,1.38
12.768838882446289,1.18,0.17,0.17,1.2
12.769101858139038,0.91,0.18,0.5,1.05
12.772169828414917,0.73,0.15,0.93,1.19
12.782090902328491,0.71,-0.02,1.35,1.52
12.792601823806763,0.85,-0.21,1.9,2.09
12.802050828933716,1.39,-0.34,2.26,2.67
12.81204080581665,2.32,-0.4,2.2,3.22
12.82298994064331,3.18,-0.44,2.27,3.93
12.868830680847168,3.65,-0.37,2.02,4.18
12.8690767288208,3.65,-0.19,1.53,3.96
12.869335889816284,3.51,-0.06,1.33,3.75
12.86959981918335,3.21,-0.08,1.18,3.42
12.871977806091309,2.87,-0.19,1.49,3.23
12.881910800933838,2.76,-0.22,2.04,3.43
12.892529964447021,2.62,-0.16,1.93,3.25
12.901959896087646,2.15,0.01,1.81,2.81
12.91185188293457,1.59,0.32,1.73,2.37
12.922863960266113,1.07,0.68,1.47,1.94
12.96877384185791,0.82,1.12,0.98,1.69
12.969032764434814,0.69,1.6,0.7,1.87
12.96929383277893,0.83,2.22,0.54,2.43
12.96954870223999,1.44,3.26,1.05,3.71
12.971883773803711,1.06,3.73,2.5,4.61
12.981798887252808,1.04,4.66,3.05,5.66
12.992379903793335,2.4,7.18,2.71,8.04
13.001957893371582,4.16,7.87,3.94,9.73
13.01177167892456,4.06,7.88,4.79,10.07
13.02265191078186,3.85,8.82,5.09,10.88
13.069361686706543,3.9,9.31,6.89,12.22
13.069638729095459,3.97,10.02,7.35,13.04
13.069897890090942,4.33,10.72,6.67,13.34
13.070158004760742,4.02,10.01,5.97,12.32
13.071634769439697,4.14,8.29,4.07,10.12
13.081711769104004,5.5,6.59,0.2,8.58
13.092198848724365,6.1,7.06,-5.04,10.6
13.101690769195557,2.97,10.37,-6.19,12.43
13.111636877059937,-2.12,11.78,-1.9,12.11
13.12247896194458,-2.33,9.44,-0.99,9.77
13.16926097869873,0.93,5.7,-1.01,5.86
13.169526815414429,1.61,1.43,1.3,2.51
13.169789791107178,-1.24,-0.87,-0.25,1.53
13.170049905776978,-1.53,1.55,-3.88,4.44
13.171529769897461,2.8,3.61,-0.65,4.61
13.181530952453613,6.68,1.76,2.23,7.25
13.192081928253174,8.92,-0.2,3.34,9.52
13.201554775238037,8.97,-1.3,3.98,9.89
13.21160888671875,7.63,-2.02,3.68,8.7
13.222477912902832,5.86,-2.31,2.81,6.89
13.270570755004883,4.33,-2.27,2.02,5.28
13.270869731903076,3.54,-2.36,2.0,4.7
13.271297931671143,3.09,-2.71,2.54,4.83
13.271556854248047,2.82,-2.92,2.95,5.01
13.27181887626648,2.41,-3.01,2.97,4.86
13.281442880630493,1.56,-3.08,2.52,4.27
13.29190969467163,0.63,-3.09,2.08,3.77
13.30140495300293,0.31,-3.05,1.7,3.5
13.31177282333374,0.55,-2.97,1.94,3.58
13.322247982025146,0.57,-2.86,1.89,3.47
13.371399879455566,0.49,-2.74,1.77,3.29
13.371663808822632,0.02,-2.48,1.68,2.99
13.371920824050903,-0.7,-2.45,1.22,2.82
13.37218189239502,-1.36,-2.24,0.19,2.62
13.37244176864624,-2.07,-1.6,-1.68,3.1
13.38125467300415,-3.33,-0.83,-3.8,5.12
13.391863822937012,-4.52,-0.22,-4.37,6.29
13.401216983795166,-4.5,-0.5,-2.45,5.14
13.411557674407959,-4.41,-0.8,-0.32,4.49
13.422102928161621,-5.02,-0.09,-0.85,5.09
13.471192836761475,-5.6,1.35,-3.15,6.56
13.47145700454712,-5.75,2.88,-4.84,8.04
13.47171688079834,-5.93,3.72,-6.62,9.63
13.471980810165405,-7.18,3.21,-10.15,12.84
13.472237825393677,-9.04,2.22,-12.5,15.58
13.481084823608398,-10.8,0.63,-11.56,15.83
13.491575717926025,-12.84,-1.97,-10.52,16.71
13.501064777374268,-14.12,-4.02,-9.88,17.69
13.51158881187439,-12.38,-4.9,-9.38,16.28
13.521767854690552,-10.03,-4.82,-8.78,14.17
13.570806980133057,-8.51,-4.78,-7.62,12.38
13.571077823638916,-7.38,-4.83,-7.29,11.44
13.571339845657349,-6.53,-3.45,-8.03,10.9
13.571597814559937,-4.37,4.37,-4.31,7.53
13.571854829788208,3.38,4.24,5.24,7.54
13.580874919891357,13.46,5.57,19.3,24.18
13.591445922851562,15.79,13.03,13.54,24.54
13.600963830947876,-2.54,25.48,-17.68,31.11
13.61093783378601,-1.95,13.27,-23.91,27.41
13.621685981750488,0.55,-5.35,4.1,6.76
13.667779922485352,-7.56,-12.37,10.08,17.65
13.668049812316895,-7.57,-7.57,-3.62,11.3
13.66831088066101,-8.97,-4.69,-6.74,12.16
13.668568849563599,-8.05,-1.89,-5.08,9.7
13.670900821685791,-4.58,0.94,-2.77,5.43
13.680783748626709,-2.1,1.75,-1.12,2.95
13.69129490852356,-0.09,1.39,-1.71,2.2
13.700780868530273,1.55,1.27,-1.5,2.5
13.710803985595703,1.56,1.18,-0.95,2.17
13.721629858016968,-0.78,1.03,-0.99,1.62
13.768754005432129,-1.88,0.64,-1.25,2.34
13.76902985572815,-1.28,0.24,-1.72,2.15
13.769289016723633,-0.61,0.08,-1.74,1.84
13.769532680511475,-0.54,0.08,-1.88,1.95
13.770687818527222,-0.65,0.03,-1.66,1.78
13.78066873550415,-0.76,-0.06,-1.16,1.38
13.791170835494995,-0.6,-0.04,-0.84,1.03
13.800567865371704,-0.15,0.07,-0.62,0.64
13.810613870620728,0.02,0.11,-0.29,0.31
13.82154369354248,0.03,0.04,0.32,0.32
13.868505954742432,0.16,-0.04,0.75,0.76
13.868767738342285,0.29,-0.08,0.74,0.79
13.869025707244873,-0.03,0.02,0.43,0.43
13.869282722473145,-0.33,-0.01,0.26,0.42
13.870503902435303,-0.06,-0.04,0.25,0.26
13.880478858947754,0.51,0.13,0.11,0.53
13.89103889465332,1.16,0.3,0.1,1.2
13.900490760803223,1.65,0.4,0.69,1.83
13.910468816757202,1.72,0.36,1.15,2.1
13.92127799987793,1.36,0.34,1.11,1.78
13.969007968902588,0.96,0.3,1.23,1.58
13.969268798828125,0.65,0.15,1.56,1.69
13.96952772140503,0.66,-0.08,1.7,1.82
13.969802856445312,1.22,-0.24,1.72,2.12
13.97027587890625,2.01,-0.25,1.56,2.55
13.980389833450317,2.36,0.03,1.31,2.69
13.990893840789795,2.07,0.56,0.9,2.32
14.000348806381226,1.69,0.82,0.74,2.01
14.010499954223633,1.35,0.8,1.39,2.09
14.02108383178711,1.26,0.8,2.16,2.62
14.069524765014648,1.25,0.94,2.36,2.83
14.069970846176147,1.61,1.19,2.28,3.03
14.070233821868896,1.22,1.56,2.31,3.04
14.070493698120117,1.08,1.75,2.11,2.94
14.070748805999756,1.22,2.17,1.96,3.16
14.08018684387207,1.58,2.38,2.06,3.52
14.090758800506592,2.08,2.73,2.27,4.11
14.100215911865234,2.64,3.06,2.77,4.89
14.110236883163452,2.99,3.76,3.16,5.75
14.120925903320312,3.43,5.9,2.78,7.36
14.170064926147461,4.99,7.93,3.08,9.86
14.170334815979004,5.36,8.31,4.66,10.93
14.170591831207275,4.52,8.77,6.32,11.71
14.170849800109863,4.77,9.88,8.29,13.75
14.171109676361084,4.61,10.48,9.1,14.62
14.180058002471924,3.1,10.08,8.84,13.76
14.190640926361084,2.5,8.55,6.78,11.19
14.200071811676025,4.31,6.65,1.76,8.11
14.210032939910889,7.17,6.84,-2.89,10.32
14.220837831497192,6.3,10.46,-4.64,13.06
14.270152807235718,0.18,12.94,-1.37,13.01
14.270421981811523,-3.01,10.9,1.67,11.43
14.270689964294434,-1.26,7.85,0.49,7.96
14.27095079421997,1.32,4.46,0.27,4.65
14.271209716796875,-0.01,1.88,1.16,2.2
14.27980375289917,-2.8,1.02,-2.81,4.09
14.290489673614502,-0.16,3.85,-4.7,6.07
14.299874782562256,5.0,5.34,-0.55,7.33
14.309822797775269,8.38,3.07,2.39,9.23
14.32074499130249,9.87,0.42,4.46,10.83
14.370522022247314,9.01,-1.3,5.4,10.58
14.370786905288696,6.64,-1.94,4.6,8.3
14.371043682098389,4.9,-1.89,3.52,6.32
14.37130069732666,3.8,-1.6,3.46,5.38
14.371556758880615,2.74,-1.33,3.72,4.8
14.379679679870605,1.48,-1.14,3.41,3.88
14.390451908111572,0.39,-1.07,2.68,2.91
14.399699687957764,-0.2,-0.99,2.14,2.36
14.409933805465698,-0.27,-1.06,1.75,2.06
14.420623779296875,-0.21,-1.33,1.55,2.05
14.471503734588623,-0.27,-1.87,1.35,2.32
14.471767902374268,-0.46,-2.62,1.56,3.08
14.472025871276855,-0.95,-3.24,1.77,3.81
14.47228479385376,-1.92,-3.33,1.32,4.06
14.472540855407715,-2.72,-3.82,0.77,4.75
14.479379892349243,-3.35,-4.69,-0.08,5.76
14.49009370803833,-4.04,-5.12,-1.48,6.68
14.499574899673462,-3.96,-5.24,-2.88,7.17
14.509781837463379,-3.82,-5.33,-2.09,6.88
14.520351886749268,-4.24,-5.81,-0.66,7.22
14.571610927581787,-4.86,-6.01,-1.14,7.81
14.57187795639038,-5.38,-5.49,-2.24,8.0
14.572135925292969,-5.31,-4.47,-3.16,7.62
14.572391986846924,-4.75,-3.59,-3.75,7.03
14.572646856307983,-5.13,-2.84,-4.84,7.6
14.579521894454956,-6.4,-2.12,-6.42,9.3
14.5900559425354,-7.74,-1.6,-7.53,10.91
14.599430799484253,-8.87,-1.28,-8.18,12.13
14.609477996826172,-9.69,-1.16,-8.95,13.24
14.620230674743652,-9.94,-1.55,-8.96,13.47
14.672033786773682,-9.19,-2.43,-7.96,12.39
14.672295808792114,-8.05,-2.51,-7.26,11.12
14.672538757324219,-7.4,-2.51,-7.76,11.01
14.672799825668335,-8.42,0.29,-8.0,11.61
14.673056840896606,-5.77,2.33,-7.39,9.66
14.679518699645996,-0.85,-6.64,-8.29,10.65
14.689886808395386,6.32,12.22,8.47,16.15
14.699891805648804,20.74,32.25,20.01,43.25
14.709305763244629,2.75,31.14,-16.25,35.23
14.719995975494385,0.76,-1.6,-9.71,9.87
14.770933866500854,-10.47,-14.5,8.98,20.01
14.771196842193604,-16.93,-11.11,0.32,20.25
14.771459817886353,-15.17,-5.61,-7.95,18.02
14.771716833114624,-13.46,-2.93,-6.36,15.17
14.771972894668579,-8.32,0.83,-3.78,9.17
14.77944278717041,-1.36,1.58,-2.56,3.3
14.78973388671875,3.87,1.1,-1.98,4.48
14.799103736877441,5.96,1.56,-2.45,6.63
14.80922269821167,4.88,1.63,-3.65,6.3
14.81990671157837,0.41,1.01,-3.01,3.2
14.871227741241455,-2.49,0.17,-2.32,3.4
14.871488809585571,-2.98,0.0,-2.93,4.17
14.871747016906738,-2.86,0.12,-2.68,3.92
14.87200379371643,-2.8,0.18,-1.98,3.43
14.872259855270386,-2.23,0.12,-1.4,2.63
14.879405975341797,-1.43,0.0,-0.86,1.66
14.889626026153564,-1.3,-0.13,-0.2,1.32
14.899008750915527,-1.29,-0.17,0.17,1.31
14.908971786499023,-0.88,-0.1,0.2,0.9
14.919750690460205,-0.33,-0.05,0.07,0.34
14.928966999053955,0.15,-0.06,0.15,0.22
14.971938848495483,0.31,-0.11,0.35,0.48
14.972201824188232,0.48,-0.19,0.37,0.63
14.972461700439453,0.79,-0.27,0.28,0.88
14.972720861434937,0.81,-0.11,0.17,0.83
14.97885799407959,0.56,0.12,0.1,0.58
14.989425897598267,0.42,0.29,0.28,0.58
14.998868942260742,0.72,0.39,0.73,1.09
15.008903980255127,1.37,0.36,1.46,2.03
15.019696712493896,1.67,0.26,1.78,2.45
15.028884887695312,1.51,0.04,1.4,2.05
15.07191276550293,1.04,-0.17,0.98,1.43
15.072175025939941,0.67,-0.27,0.99,1.22
15.07243299484253,0.71,-0.32,1.34,1.54
15.0726900100708,1.12,-0.27,1.59,1.96
15.078816890716553,1.96,-0.06,1.43,2.42
15.089303970336914,2.77,0.17,1.58,3.19
15.098702907562256,3.12,0.61,1.61,3.56
15.108703851699829,2.89,0.87,1.07,3.2
15.11953592300415,2.02,0.85,0.95,2.38
15.128702878952026,1.38,0.88,1.0,1.91
15.17273473739624,1.06,1.15,0.68,1.7
15.172996997833252,0.85,1.7,0.6,1.99
15.173259735107422,1.21,2.44,1.19,2.97
15.173516750335693,1.43,2.81,2.54,4.04
15.178650856018066,1.8,2.91,3.08,4.6
15.189064979553223,2.69,3.31,3.25,5.36
15.198585987091064,2.79,3.49,3.56,5.71
15.208580017089844,2.8,3.92,3.47,5.93
15.219337940216064,2.68,5.27,3.24,6.74
15.22862982749939,3.19,7.21,3.02,8.44
15.273138999938965,4.06,7.64,4.46,9.73
15.273400783538818,3.34,7.53,5.63,9.97
15.273669719696045,2.99,8.75,6.49,11.29
15.273927688598633,5.06,10.94,7.73,14.31
15.278409957885742,6.65,11.08,8.29,15.35
15.289021968841553,6.6,9.1,6.84,13.15
15.298365831375122,6.68,6.87,4.01,10.38
15.308406829833984,7.51,5.74,-0.65,9.47
15.319575786590576,7.19,7.9,-5.33,11.93
15.328393936157227,3.22,12.4,-6.64,14.42
15.373054027557373,-1.53,12.95,-2.52,13.28
15.373315811157227,-2.46,9.55,-1.0,9.91
15.37357473373413,-0.57,5.51,-1.17,5.66
15.373830795288086,1.28,1.26,0.29,1.81
15.378117799758911,-2.24,-0.34,-1.93,2.97
15.388758897781372,-1.5,2.46,-4.37,5.23
15.398303985595703,3.32,4.51,-0.07,5.6
15.408370018005371,6.78,2.54,2.73,7.73
15.41911268234253,7.95,0.66,3.94,8.89
15.42841386795044,7.09,0.05,3.85,8.06
15.47360372543335,6.33,-0.2,2.61,6.84
15.473864793777466,5.92,-0.37,1.78,6.19
15.474128723144531,5.56,-0.61,1.83,5.88
15.474385738372803,5.07,-1.01,1.93,5.51
15.478022813796997,4.36,-1.65,2.04,5.08
15.488685846328735,3.41,-2.34,2.08,4.62
15.498111724853516,2.49,-2.6,1.88,4.06
15.508105754852295,1.81,-2.51,1.81,3.58
15.518877029418945,1.29,-2.07,1.28,2.75
15.52821397781372,0.99,-1.76,0.55,2.09
15.573871850967407,1.1,-1.78,0.1,2.09
15.574137687683105,1.68,-1.62,0.06,2.33
15.574399948120117,2.24,-1.43,0.65,2.73
15.574656963348389,1.94,-1.7,0.26,2.59
15.577951908111572,0.65,-2.41,-0.87,2.64
15.588486909866333,-0.98,-2.92,-2.38,3.89
15.597937822341919,-2.04,-3.38,-2.71,4.78
15.608006954193115,-2.42,-3.99,-1.95,5.05
15.61881685256958,-2.09,-4.61,-1.21,5.2
15.628031730651855,-1.98,-4.71,-1.37,5.28
15.67436170578003,-2.88,-4.33,-2.19,5.64
15.674623012542725,-4.13,-3.85,-2.76,6.28
15.674881935119629,-4.97,-3.5,-2.83,6.7
15.6751389503479,-5.69,-3.04,-3.62,7.39
15.677822828292847,-6.55,-2.04,-5.57,8.83
15.688361883163452,-7.69,-0.79,-7.3,10.63
15.697666883468628,-8.73,0.25,-8.14,11.93
15.707756996154785,-9.58,0.85,-8.69,12.96
15.718613862991333,-10.3,0.86,-9.27,13.88
15.727773904800415,-10.78,0.48,-9.26,14.21
15.77446985244751,-10.63,-0.24,-8.47,13.59
15.774739742279053,-10.14,-0.92,-7.57,12.68
15.77499771118164,-9.38,-1.14,-6.86,11.67
15.775253772735596,-8.15,-1.72,-6.53,10.58
15.777697801589966,-6.78,-3.27,-5.67,9.42
15.788188934326172,-7.28,-1.68,-5.37,9.2
15.797464847564697,-5.27,2.72,-5.61,8.16
15.807622909545898,1.95,-0.44,-1.45,2.46
15.818549871444702,8.64,3.39,9.72,13.43
15.827692985534668,17.43,8.76,19.66,27.69
15.875263690948486,11.49,7.64,5.59,14.88
15.875533819198608,-1.8,14.46,-9.38,17.32
15.875795841217041,-6.98,18.12,-19.56,27.56
15.876054763793945,-13.98,12.93,-7.2,20.35
15.877474784851074,-16.43,-6.16,15.61,23.48
15.888068675994873,-12.37,-14.03,3.42,19.01
15.897363901138306,-10.19,-8.48,-6.43,14.73
15.907460689544678,-7.22,-3.33,-5.47,9.65
15.918279886245728,-2.62,-0.07,-4.8,5.46
15.927605867385864,-0.17,1.5,-4.01,4.28
15.974775791168213,1.62,1.7,-2.55,3.46
15.975039005279541,2.95,1.02,-3.72,4.85
15.975298881530762,3.41,1.08,-4.64,5.85
15.975558757781982,2.26,1.23,-2.8,3.8
15.9773108959198,-0.22,0.95,-1.4,1.7
15.987865924835205,-1.75,0.7,-1.67,2.51
15.99721097946167,-2.45,0.25,-1.62,2.94
16.00741195678711,-2.58,-0.09,-0.9,2.73
16.018179893493652,-2.21,-0.18,-0.27,2.23
16.027434825897217,-1.39,-0.22,0.24,1.42
16.075679779052734,-0.66,-0.28,0.02,0.71
16.07594084739685,-0.67,-0.23,-0.46,0.84
16.076197862625122,-0.84,-0.16,-0.39,0.93
16.076454877853394,-0.43,-0.09,-0.35,0.56
16.077425003051758,0.01,-0.04,-0.46,0.46
16.0877468585968,-0.2,0.05,-0.26,0.33
16.097362995147705,-0.47,-0.02,-0.06,0.47
16.107215881347656,-0.29,-0.06,0.12,0.31
16.118021965026855,0.24,0.1,0.09,0.27
16.12721586227417,0.92,0.23,0.05,0.94
16.174561023712158,1.32,0.3,0.14,1.36
16.17482089996338,1.4,0.27,0.24,1.44
16.1750807762146,1.18,0.13,0.59,1.32
16.17533588409424,0.99,0.0,1.14,1.5
16.177242755889893,0.99,-0.06,1.72,1.98
16.187625885009766,1.39,-0.05,1.65,2.15
16.19729781150818,1.72,-0.1,1.38,2.2
16.207132816314697,1.63,-0.15,1.22,2.04
16.21792697906494,1.24,-0.05,1.05,1.62
16.227138996124268,0.91,0.22,0.65,1.13
16.275620937347412,0.91,0.38,0.44,1.07
16.275879859924316,1.2,0.39,0.68,1.43
16.276136875152588,1.87,0.32,1.23,2.26
16.27641487121582,2.41,0.31,1.55,2.88
16.27694082260132,2.48,0.37,2.24,3.36
16.287407875061035,2.28,0.57,2.92,3.74
16.29720687866211,2.27,1.08,2.46,3.51
16.306947708129883,2.08,1.76,1.87,3.3
16.317766904830933,2.14,2.42,1.8,3.69
16.326945781707764,1.93,2.84,1.99,3.96
16.375185012817383,1.95,3.02,2.33,4.28
16.37545871734619,2.56,3.29,2.67,4.95
16.375717878341675,2.93,3.5,3.19,5.56
16.375979900360107,3.24,4.2,3.47,6.33
16.376750946044922,3.57,5.85,3.41,7.65
16.387335777282715,4.97,7.69,3.9,9.95
16.39673089981079,5.94,8.35,5.32,11.54
16.406737804412842,5.55,8.96,6.21,12.23
16.417563915252686,4.75,9.71,7.46,13.13
16.426748752593994,3.97,10.21,8.69,13.98
16.474798679351807,4.15,10.96,9.15,14.86
16.475059986114502,4.69,10.83,8.5,14.54
16.47533082962036,5.39,8.95,4.47,11.36
16.475586891174316,6.37,7.31,-2.18,9.93
16.47663402557373,5.77,9.36,-7.36,13.23
16.487136840820312,2.98,13.78,-7.2,15.83
16.49660086631775,-0.89,15.65,-1.17,15.71
16.50687289237976,-1.68,10.28,1.83,10.57
16.5173819065094,1.02,3.8,1.4,4.17
16.526654720306396,-0.81,1.62,0.74,1.95
16.574667930603027,-6.64,1.59,-6.49,9.42
16.57493281364441,-5.04,5.26,-6.45,9.72
16.575191020965576,1.7,5.38,0.14,5.64
16.575448989868164,6.98,1.86,2.95,7.8
16.576435804367065,8.71,-0.9,3.82,9.55
16.58699083328247,6.88,-1.97,3.14,7.81
16.59647798538208,5.56,-2.7,2.32,6.6
16.60651183128357,4.24,-3.4,2.67,6.05
16.61729884147644,3.0,-3.84,2.65,5.54
16.626534938812256,2.17,-3.98,2.59,5.22
16.674636840820312,1.33,-4.1,2.77,5.12
16.674901962280273,0.76,-4.24,2.65,5.05
16.675185680389404,0.6,-4.38,2.53,5.09
16.675445795059204,0.85,-4.48,2.56,5.22
16.676384925842285,1.51,-4.57,2.62,5.47
16.686892986297607,2.07,-4.45,2.56,5.53
16.69630789756775,2.3,-4.34,2.31,5.42
16.706446886062622,2.19,-4.45,2.07,5.37
16.717198848724365,1.84,-4.78,1.86,5.44
16.726340770721436,1.28,-5.29,1.63,5.68
16.774266719818115,0.65,-5.97,1.37,6.15
16.77452802658081,0.37,-6.53,1.14,6.63
16.774788856506348,0.26,-6.93,0.91,6.99
16.77504873275757,0.06,-7.23,0.46,7.24
16.77611780166626,-0.15,-7.32,0.05,7.32
16.786727905273438,-0.65,-7.19,-0.11,7.22
16.796111822128296,-1.59,-6.76,-0.44,6.95
16.806192874908447,-2.94,-5.82,-1.73,6.74
16.816985845565796,-4.52,-4.27,-4.17,7.48
16.826222896575928,-5.67,-2.66,-6.79,9.23
16.87497901916504,-6.33,-1.19,-8.23,10.45
16.875245809555054,-6.72,0.16,-8.79,11.06
16.875542879104614,-7.39,1.62,-9.84,12.41
16.875982761383057,-8.73,3.22,-11.64,14.9
16.876239776611328,-10.81,4.19,-12.53,17.07
16.88660979270935,-13.39,3.77,-12.52,18.71
16.896044731140137,-13.36,1.84,-11.91,17.99
16.906051874160767,-10.37,4.83,-10.73,15.68
16.916850805282593,-2.2,2.85,-6.41,7.35
16.92612385749817,-0.01,-6.29,-6.01,8.69
16.978891849517822,-1.46,1.89,-3.08,3.89
16.97919797897339,11.54,12.78,14.46,22.48
16.979466915130615,17.95,15.92,11.36,26.54
16.97978401184082,4.74,15.76,-8.41,18.48
16.980072021484375,-10.16,3.57,-6.51,12.58
16.9863018989563,-13.79,-2.06,2.86,14.23
16.995850801467896,-11.86,-6.29,1.97,13.56
17.00586700439453,-9.31,-6.82,-4.64,12.43
17.016661882400513,-7.77,-3.85,-8.02,11.81
17.02586793899536,-5.83,0.24,-7.32,9.36
17.075439929962158,-3.84,2.51,-5.13,6.88
17.075702905654907,-0.78,2.0,-3.81,4.37
17.075960874557495,2.06,0.82,-2.94,3.68
17.076217889785767,2.73,0.66,-2.04,3.47
17.076472759246826,1.27,0.63,-1.53,2.08
17.08626699447632,-0.28,0.53,-1.65,1.75
17.095757961273193,-1.39,0.42,-0.97,1.74
17.10576581954956,-2.13,-0.02,0.39,2.16
17.11649799346924,-1.85,-0.05,0.7,1.97
17.126027822494507,-0.3,0.13,-0.08,0.33
17.176402807235718,1.57,0.18,-1.0,1.87
17.176666736602783,2.18,0.04,-0.96,2.38
17.17693281173706,1.15,-0.27,-0.09,1.18
17.177189826965332,-0.02,-0.46,0.25,0.52
17.17744493484497,-0.18,-0.4,0.1,0.44
17.186079025268555,0.23,-0.11,0.06,0.26
17.19560980796814,0.42,0.11,0.34,0.55
17.20549488067627,0.42,0.15,0.69,0.82
17.216075897216797,0.64,0.22,0.88,1.11
17.225530862808228,1.04,0.27,1.08,1.52
17.27548885345459,1.16,0.31,1.0,1.56
17.275747776031494,1.14,0.28,0.62,1.32
17.276002883911133,0.85,0.1,0.63,1.06
17.276259899139404,0.43,-0.22,1.06,1.16
17.276515007019043,0.46,-0.48,1.32,1.47
17.285874843597412,0.94,-0.41,1.06,1.47
17.295351028442383,1.23,-0.09,0.29,1.26
17.30536389350891,0.9,0.29,-0.15,0.95
17.31602668762207,0.57,0.56,-0.07,0.8
17.325304985046387,0.6,0.59,0.06,0.84
17.375196933746338,0.8,0.49,0.68,1.15
17.375455856323242,1.24,0.47,0.93,1.61
17.375711917877197,1.55,0.41,1.29,2.05
17.375967025756836,1.47,0.27,2.0,2.49
17.376220703125,1.43,0.22,2.41,2.81
17.385726928710938,1.38,0.38,2.22,2.64
17.395308017730713,1.44,0.72,1.85,2.45
17.405221939086914,1.81,1.35,1.39,2.65
17.415865898132324,1.78,2.1,1.61,3.18
17.425151824951172,1.5,2.31,2.25,3.55
17.47567367553711,1.86,2.37,2.2,3.73
17.475931882858276,2.09,2.5,2.26,3.96
17.476187705993652,2.03,2.48,2.15,3.85
17.476441860198975,1.96,2.63,2.2,3.94
17.476696014404297,1.84,3.64,2.04,4.56
17.485538959503174,2.39,5.39,2.01,6.22
17.49505376815796,3.45,6.18,3.03,7.69
17.505082845687866,3.52,6.33,3.96,8.25
17.515745878219604,3.66,6.91,4.82,9.18
17.52507781982422,4.31,7.4,5.62,10.24
17.575453758239746,4.31,7.85,6.23,10.9
17.575713872909546,3.6,8.15,6.75,11.17
17.575968742370605,2.39,7.36,6.25,9.94
17.576223850250244,1.29,6.36,3.53,7.38
17.576480865478516,2.51,6.0,-0.75,6.54
17.58549690246582,5.14,7.43,-4.2,9.96
17.594964027404785,4.03,10.77,-2.97,11.87
17.60504984855652,0.31,10.79,0.42,10.8
17.615880012512207,1.26,8.77,0.06,8.86
17.625017881393433,3.62,5.85,-0.61,6.9
17.675808906555176,3.28,3.33,1.06,4.79
17.676068782806396,-0.8,2.16,-0.36,2.33
17.6763277053833,-3.84,2.86,-6.06,7.72
17.676584720611572,-0.57,6.05,-4.56,7.59
17.67683982849121,5.12,5.56,0.22,7.56
17.68530797958374,8.45,2.32,2.63,9.14
17.694915771484375,8.69,0.36,3.21,9.27
17.704912900924683,7.31,-0.56,2.86,7.86
17.715885877609253,6.55,-1.06,2.39,7.05
17.724859714508057,6.16,-1.62,2.56,6.86
17.775247812271118,5.49,-2.05,2.83,6.5
17.77550983428955,4.58,-2.0,2.77,5.71
17.77577781677246,3.38,-1.66,2.59,4.57
17.776034832000732,2.32,-1.56,2.14,3.52
17.776290893554688,1.6,-1.58,1.62,2.77
17.78525972366333,1.2,-1.72,1.24,2.43
17.79482078552246,1.14,-1.8,0.78,2.26
17.804706811904907,1.28,-1.79,0.61,2.28
17.857154846191406,1.47,-2.02,0.81,2.62
17.85741686820984,1.53,-2.45,0.96,3.04
17.857676029205322,1.22,-3.02,0.71,3.33
17.857932806015015,0.42,-3.71,0.41,3.75
17.858189821243286,-0.36,-4.3,0.05,4.31
17.86503267288208,-0.74,-4.79,-0.01,4.84
17.87462568283081,-0.66,-5.23,0.52,5.29
17.885132789611816,-0.92,-5.59,0.66,5.7
17.89454698562622,-1.09,-5.67,0.45,5.79
17.904600858688354,-1.66,-5.25,-0.54,5.53
17.959107875823975,-2.94,-4.52,-2.06,5.77
17.95936870574951,-4.72,-3.66,-3.82,7.08
17.95963191986084,-6.46,-2.65,-5.23,8.72
17.95988893508911,-7.61,-2.07,-5.48,9.6
17.960147857666016,-7.56,-1.4,-6.18,9.86
17.96449589729309,-7.24,-0.43,-7.24,10.24
17.974413871765137,-7.73,0.5,-8.5,11.5
17.98495888710022,-8.7,0.97,-9.57,12.96
17.99440097808838,-9.7,0.69,-10.02,13.96
18.00447988510132,-10.25,0.13,-9.75,14.14
18.05912685394287,-9.98,-0.32,-9.2,13.57
18.059387683868408,-8.84,-1.03,-8.67,12.42
18.059645891189575,-8.22,-0.78,-7.75,11.32
18.059906005859375,-6.58,2.94,-7.07,10.09
18.06016182899475,-1.49,-2.65,-5.93,6.66
18.064247846603394,-6.14,-2.81,-5.96,9.0
18.07440996170044,3.69,8.65,5.8,11.04
18.084864854812622,18.02,12.29,24.51,32.81
18.094313859939575,10.29,9.93,-0.34,14.3
18.10429573059082,-2.22,7.94,-8.94,12.16
18.159894943237305,-9.09,3.76,-7.02,12.08
18.160167694091797,-10.61,1.25,-9.67,14.4
18.160429000854492,-12.87,3.64,1.24,13.43
18.16069269180298,-10.05,-2.95,1.52,10.58
18.160959720611572,-7.18,-4.13,-4.91,9.62
18.164127826690674,-5.56,-2.07,-6.55,8.83
18.174121856689453,-3.18,-0.36,-5.23,6.13
18.184663772583008,-0.89,0.79,-3.15,3.36
18.194162845611572,1.12,1.19,-1.81,2.43
18.204189777374268,1.68,1.14,-1.77,2.69
18.258821964263916,1.08,0.87,-1.85,2.31
18.25956082344055,0.04,0.57,-1.9,1.98
18.259827852249146,-0.67,0.49,-2.13,2.28
18.260085821151733,-1.17,0.35,-1.76,2.14
18.260380744934082,-1.55,0.11,-0.87,1.78
18.2640278339386,-1.43,-0.02,-0.16,1.43
18.27397394180298,-0.77,-0.04,-0.02,0.77
18.284583806991577,-0.14,-0.06,-0.11,0.18
18.293964862823486,-0.03,-0.1,-0.08,0.13
18.304033756256104,-0.4,-0.08,0.14,0.43
18.314862728118896,-0.69,-0.09,0.29,0.75
18.359423875808716,-0.74,-0.02,0.3,0.79
18.359692811965942,-0.63,0.06,-0.03,0.63
18.359954833984375,-0.4,0.14,-0.43,0.6
18.36021089553833,-0.23,0.15,-0.46,0.53
18.363796710968018,0.09,0.08,-0.33,0.35
18.37376070022583,0.84,0.08,-0.06,0.84
18.38442087173462,1.67,0.02,0.6,1.77
18.393828868865967,2.46,-0.2,1.79,3.04
18.403844833374023,3.68,-0.54,3.37,5.01
18.414697885513306,4.95,-0.64,4.59,6.78
18.459625720977783,4.95,-0.64,4.52,6.73
18.45988702774048,3.35,-0.46,2.33,4.1
18.4601469039917,1.82,-0.17,0.13,1.83
18.460404872894287,1.02,0.03,-0.09,1.02
18.46367383003235,1.23,0.16,0.24,1.26
18.474040985107422,2.52,0.2,0.51,2.57
18.484200954437256,3.3,0.12,0.63,3.36
18.49379301071167,3.01,-0.08,1.13,3.21
18.503666877746582,2.35,-0.27,1.57,2.83
18.514509677886963,1.68,-0.19,1.27,2.11
18.559316873550415,1.23,-0.02,0.91,1.53
18.559576988220215,1.39,0.2,0.67,1.55
18.55983591079712,1.78,0.51,0.71,1.98
18.560089826583862,1.92,0.95,0.8,2.28
18.56355571746826,1.69,1.56,1.02,2.51
18.573527812957764,1.56,2.35,1.37,3.13
18.584088802337646,2.25,4.08,2.05,5.09
18.593525886535645,2.15,5.66,3.35,6.91
18.603585720062256,2.64,7.94,3.7,9.14
18.614389896392822,5.35,8.72,4.56,11.2
18.65932583808899,5.73,8.13,5.52,11.37
18.659586906433105,4.98,8.28,5.41,11.07
18.659843921661377,3.89,8.75,5.7,11.14
18.66010093688965,3.22,10.09,6.98,12.68
18.663363933563232,3.52,11.25,7.07,13.74
18.673436880111694,5.1,11.24,4.94,13.29
18.683851718902588,6.58,10.51,4.02,13.03
18.693464756011963,6.18,8.27,2.21,10.55
18.70348072052002,5.31,6.44,-1.83,8.54
18.714210987091064,3.92,7.93,-4.41,9.88
18.759275913238525,0.43,10.7,-3.4,11.23
18.75953769683838,-1.54,9.8,0.56,9.93
18.759795904159546,-0.05,6.09,1.36,6.24
18.760053873062134,1.54,2.43,1.89,3.44
18.763194799423218,-1.63,-0.85,0.03,1.83
18.773260831832886,-3.64,-0.09,-4.54,5.81
18.78365468978882,1.06,3.35,-1.41,3.78
18.79337501525879,6.11,2.29,2.15,6.87
18.803297996520996,9.85,0.04,4.0,10.63
18.81404399871826,10.7,-1.64,5.17,11.99
18.859673023223877,8.43,-2.56,4.68,9.97
18.859932899475098,5.39,-2.8,2.98,6.76
18.860190868377686,2.59,-2.82,1.24,4.02
18.860445976257324,0.74,-2.9,0.87,3.11
18.86308479309082,-0.2,-3.42,2.41,4.18
18.873069763183594,-0.44,-3.73,3.13,4.88
18.883424758911133,-0.16,-3.53,2.28,4.2
18.893091678619385,-0.41,-3.57,1.23,3.79
18.9030818939209,-0.53,-3.85,0.59,3.93
18.913878917694092,-0.03,-4.15,1.02,4.27
18.95976185798645,1.12,-4.18,1.48,4.57
18.960022926330566,2.06,-4.02,1.65,4.8
18.96027898788452,1.61,-4.15,1.78,4.79
18.960534811019897,0.17,-4.1,1.14,4.25
18.96299386024475,-1.03,-4.38,0.27,4.5
18.973045825958252,-2.47,-4.33,-0.53,5.01
18.983423709869385,-3.74,-3.93,-2.34,5.9
18.992896795272827,-4.68,-3.89,-3.42,6.98
19.002973794937134,-6.13,-4.35,-2.47,7.91
19.013835906982422,-7.29,-4.64,-1.92,8.85
19.059868812561035,-8.26,-3.75,-2.96,9.54
19.06012988090515,-8.14,-2.44,-3.99,9.38
19.060388803482056,-7.32,-1.17,-4.4,8.62
19.060645818710327,-7.98,0.65,-5.78,9.87
19.062808990478516,-9.79,2.59,-7.03,12.32
19.072784900665283,-11.71,3.75,-7.28,14.28
19.08351993560791,-12.88,3.42,-7.12,15.1
19.09281086921692,-12.1,1.5,-6.98,14.04
19.10284686088562,-9.08,-0.37,-6.0,10.88
19.11367177963257,-6.66,-0.85,-4.48,8.07
19.160362720489502,-5.6,-0.89,-3.44,6.63
19.160624980926514,-6.42,-0.1,-3.33,7.23
19.160881996154785,-8.13,2.33,-4.6,9.62
19.161139011383057,-1.97,-4.52,-6.55,8.19
19.162556886672974,4.86,0.79,-0.61,4.96
19.172667026519775,17.66,10.64,11.95,23.83
19.18349289894104,21.94,15.64,15.34,31.0
19.192689895629883,0.11,14.82,-0.62,14.83
19.202711820602417,-12.48,4.47,-5.86,14.49
19.213483810424805,-10.56,-3.9,-12.64,16.92
19.26006269454956,-15.19,-1.83,-0.93,15.32
19.260324954986572,-14.19,-2.15,4.31,14.98
19.26058292388916,-10.2,-2.69,-1.91,10.72
19.260838985443115,-7.09,-1.82,-4.38,8.53
19.262510776519775,-3.0,-0.23,-4.41,5.33
19.27252769470215,0.67,0.58,-3.21,3.33
19.283411979675293,3.36,0.85,-3.0,4.58
19.292524814605713,4.16,1.3,-3.87,5.82
19.30248785018921,1.84,1.1,-2.44,3.24
19.31338381767273,-1.23,0.24,-1.02,1.61
19.36083698272705,-2.81,0.13,-0.88,2.94
19.36109685897827,-2.54,0.24,-1.3,2.86
19.361353874206543,-1.74,0.06,-1.15,2.08
19.361609935760498,-0.83,0.08,-0.95,1.26
19.362409830093384,-0.01,0.24,-1.03,1.05
19.372483730316162,0.46,0.21,-0.97,1.09
19.383188724517822,0.26,0.06,-0.7,0.74
19.392428874969482,-0.28,-0.16,-0.45,0.55
19.402517795562744,-0.64,-0.28,-0.26,0.74
19.41309881210327,-0.65,-0.23,-0.26,0.73
19.460543870925903,-0.52,-0.07,-0.26,0.58
19.46080780029297,-0.38,0.04,-0.01,0.38
19.461066722869873,-0.22,0.13,0.4,0.47
19.46132469177246,-0.06,0.23,0.65,0.69
19.46222972869873,0.24,0.32,0.73,0.83
19.472113847732544,0.81,0.34,0.82,1.2
19.483134746551514,1.43,0.2,1.08,1.8
19.4923198223114,1.82,-0.01,1.52,2.37
19.502241849899292,2.12,-0.16,1.88,2.83
19.513022899627686,2.33,-0.19,2.06,3.11
19.56056499481201,2.24,-0.29,1.98,3.0
19.56082773208618,1.69,-0.38,1.71,2.43
19.56108570098877,1.09,-0.29,1.44,1.82
19.56136679649353,0.87,0.04,0.95,1.28
19.562049865722656,1.06,0.35,0.51,1.22
19.57202386856079,1.38,0.43,0.9,1.7
19.58292293548584,1.88,0.3,1.65,2.51
19.592087745666504,2.46,0.35,1.97,3.17
19.602046966552734,2.5,0.56,1.8,3.13
19.612945795059204,1.94,0.85,1.39,2.53
19.66004180908203,1.42,1.3,1.27,2.3
19.660301685333252,1.51,2.04,1.36,2.87
19.660558700561523,1.36,2.78,1.49,3.43
19.660813808441162,1.08,3.25,2.25,4.09
19.66191291809082,1.65,3.42,2.81,4.72
19.67189598083496,2.07,3.44,3.26,5.17
19.682434797286987,2.09,3.42,3.47,5.3
19.691953897476196,1.87,3.82,3.38,5.43
19.701921939849854,1.55,4.74,3.27,5.96
19.71277689933777,1.55,6.3,3.29,7.27
19.760507822036743,2.95,7.29,5.12,9.38
19.760769844055176,4.13,7.43,7.26,11.17
19.761026859283447,5.28,8.32,7.61,12.45
19.761284828186035,6.93,9.4,7.93,14.11
19.761857986450195,7.02,9.52,9.25,15.01
19.77183485031128,5.84,8.56,9.93,14.35
19.782264709472656,5.56,6.83,6.76,11.1
19.79180097579956,7.52,6.06,-0.92,9.7
19.801771879196167,8.95,9.64,-7.36,15.07
19.812716960906982,6.41,14.73,-8.54,18.19
19.860023021697998,2.66,15.85,-2.13,16.21
19.860283851623535,0.53,10.74,1.67,10.88
19.860540866851807,0.26,5.41,1.08,5.52
19.860795974731445,0.62,2.88,0.63,3.01
19.861608028411865,-3.41,1.84,-2.01,4.36
19.87163782119751,-6.55,2.6,-7.01,9.93
19.882137775421143,-2.2,5.33,-4.05,7.04
19.891620874404907,3.95,4.81,0.53,6.24
19.90158176422119,7.75,1.89,2.75,8.43
19.912383794784546,8.66,-0.94,4.46,9.78
19.96060800552368,6.65,-2.59,3.74,8.05
19.960876941680908,5.07,-3.19,2.13,6.35
19.961293697357178,4.17,-3.58,1.42,5.67
19.96155285835266,3.34,-3.84,2.08,5.49
19.961808681488037,2.55,-3.95,2.93,5.53
19.971511840820312,1.86,-3.93,3.09,5.33
19.982000827789307,1.57,-4.06,3.18,5.39
19.99146270751953,1.76,-4.43,2.97,5.61
20.00147581100464,2.22,-4.84,2.53,5.89
20.01230788230896,2.61,-5.22,2.21,6.24
20.06040096282959,2.72,-5.5,1.99,6.45
20.06066083908081,2.63,-5.32,1.61,6.14
20.061080932617188,2.24,-5.01,1.11,5.59
20.061339855194092,1.3,-4.87,0.67,5.08
20.061595916748047,-0.07,-4.97,0.37,4.98
20.07132577896118,-1.08,-5.3,-0.4,5.42
20.08184576034546,-1.41,-5.3,-1.48,5.68
20.091322898864746,-1.77,-4.64,-2.71,5.65
20.10140895843506,-3.0,-3.74,-4.88,6.84
20.11224889755249,-5.38,-2.64,-6.36,8.73
20.159860849380493,-7.89,-1.69,-6.41,10.3
20.160120964050293,-8.67,-0.91,-6.07,10.62
20.160379886627197,-7.93,0.67,-6.65,10.37
20.160640716552734,-7.32,2.88,-8.03,11.24
20.161059856414795,-7.36,4.72,-9.75,13.09
20.17119598388672,-7.79,4.73,-10.54,13.93
20.181697845458984,-8.49,3.96,-9.72,13.49
20.191186904907227,-8.9,2.62,-10.35,13.89
20.201125860214233,-8.46,-0.3,-9.6,12.79
20.211978912353516,-7.58,-1.75,-7.64,10.9
20.260743856430054,-6.69,3.45,-6.2,9.75
20.26100778579712,-2.16,-2.57,-5.43,6.38
20.261265754699707,-4.34,-4.75,-5.96,8.77
20.26152276992798,-0.64,7.05,4.37,8.31
20.26177978515625,7.7,11.14,23.21,26.87
20.271031856536865,6.14,5.81,6.46,10.63
20.281534910202026,-1.07,1.24,-5.15,5.4
20.290937900543213,-5.71,0.18,-3.67,6.79
20.30090093612671,-7.31,0.93,-4.91,8.85
20.311585903167725,-6.88,2.94,-1.9,7.71
20.360559940338135,-7.47,1.58,-5.95,9.67
20.3608238697052,-3.38,0.52,-10.53,11.07
20.36108088493347,-2.86,1.97,-7.98,8.7
20.361337900161743,-3.1,-0.35,-5.85,6.62
20.36159372329712,-2.19,-0.43,-4.74,5.23
20.370746850967407,-2.06,-0.33,-3.36,3.95
20.381330966949463,-1.71,0.18,-2.66,3.16
20.390764713287354,-1.71,0.64,-1.27,2.22
20.400741815567017,-1.83,0.49,0.24,1.9
20.41145372390747,-1.51,0.24,-0.27,1.55
20.46102476119995,-1.16,0.23,-1.49,1.9
20.461287021636963,-1.5,0.32,-1.43,2.09
20.461543798446655,-2.0,0.16,-0.95,2.21
20.461800813674927,-1.88,0.05,-0.9,2.08
20.462040901184082,-1.29,-0.04,-0.9,1.57
20.47074270248413,-0.7,0.05,-1.2,1.39
20.481197834014893,-0.34,0.11,-1.55,1.59
20.490651845932007,-0.23,0.11,-1.6,1.62
20.500772953033447,-0.02,0.15,-1.2,1.2
20.511602878570557,0.08,0.08,-0.24,0.26
20.56159782409668,-0.04,-0.1,0.63,0.63
20.56186079978943,0.07,-0.12,1.19,1.19
20.562119007110596,0.3,-0.04,1.2,1.23
20.56237483024597,0.43,0.06,0.72,0.84
20.56262969970703,0.46,0.07,0.19,0.5
20.570584774017334,0.58,0.02,0.13,0.59
20.581056833267212,1.02,0.04,0.61,1.18
20.590560913085938,1.59,0.16,0.94,1.85
20.600757837295532,1.84,0.21,1.04,2.12
20.611352920532227,1.81,0.09,1.37,2.27
20.66049289703369,1.6,-0.11,1.62,2.27
20.660752773284912,1.37,-0.25,1.54,2.07
20.6610107421875,1.42,-0.31,1.35,1.98
20.661266803741455,1.61,-0.18,1.07,1.94
20.661521911621094,1.59,0.11,0.52,1.67
20.670398712158203,1.45,0.41,0.02,1.5
20.680999755859375,1.21,0.61,-0.09,1.35
20.69045400619507,1.0,0.8,0.36,1.33
20.70073175430298,0.94,0.96,0.54,1.44
20.711251735687256,0.99,0.98,0.71,1.56
20.76104497909546,0.91,1.18,1.1,1.85
20.761306762695312,1.15,1.34,1.44,2.27
20.761563777923584,1.55,1.65,2.16,3.12
20.761823892593384,1.64,1.84,3.06,3.92
20.762078762054443,2.04,1.61,2.96,3.93
20.770322799682617,2.64,1.89,2.51,4.1
20.780838012695312,2.56,1.88,2.38,3.96
20.79059886932373,2.55,2.02,2.46,4.07
20.80025291442871,2.78,2.5,2.89,4.72
20.811043739318848,3.13,3.6,3.24,5.76
20.860522747039795,3.73,5.34,3.63,7.45
20.86079502105713,4.46,7.29,3.71,9.31
20.8610577583313,5.27,7.89,4.84,10.65
20.861315727233887,4.28,8.1,5.9,10.89
20.861573696136475,3.73,9.03,7.07,12.05
20.870149850845337,4.82,10.22,8.21,13.96
20.880696773529053,5.57,10.58,7.46,14.09
20.89011788368225,5.67,9.59,5.96,12.63
20.900123834609985,5.31,8.04,2.58,9.97
20.91082787513733,5.27,7.72,-3.14,9.86
20.96062994003296,3.44,10.79,-7.51,13.58
20.960896015167236,-1.19,13.81,-3.04,14.19
20.961155891418457,-2.23,11.79,0.49,12.0
20.961416721343994,0.79,7.41,-0.91,7.5
20.961676836013794,1.83,3.16,-0.42,3.67
20.969924926757812,-0.8,0.19,1.33,1.56
20.980484008789062,-5.09,0.02,-3.23,6.02
20.98998498916626,-2.79,3.73,-3.93,6.09
20.99997091293335,1.91,4.55,1.23,5.08
21.01073694229126,5.72,1.62,4.33,7.35
21.060747861862183,7.39,-1.15,5.52,9.29
21.061012744903564,6.42,-2.35,4.37,8.11
21.061270713806152,4.94,-2.61,2.89,6.29
21.061529874801636,3.47,-2.56,2.47,4.96
21.061790943145752,2.26,-2.4,2.31,4.02
21.069742679595947,1.48,-2.37,2.63,3.83
21.080375909805298,0.76,-2.47,2.79,3.8
21.089842796325684,0.33,-2.63,2.39,3.56
21.09980297088623,0.28,-2.85,2.09,3.54
21.110593795776367,0.51,-2.9,1.71,3.4
21.161521911621094,0.94,-2.73,1.54,3.27
21.16178274154663,1.27,-2.78,1.59,3.44
21.16204071044922,1.49,-3.06,1.69,3.79
21.16229772567749,1.43,-3.26,1.37,3.81
21.16255474090576,1.17,-3.62,1.03,3.94
21.169570922851562,0.82,-4.02,0.96,4.21
21.18022584915161,0.69,-4.08,1.32,4.34
21.18961191177368,0.61,-4.06,1.42,4.34
21.19972586631775,-0.21,-4.13,0.95,4.24
21.210482835769653,-1.99,-3.92,-0.65,4.44
21.261069774627686,-2.78,-3.44,-3.26,5.49
21.2613308429718,-3.37,-2.98,-4.01,6.02
21.26158881187439,-4.09,-3.02,-2.69,5.75
21.261847019195557,-5.0,-2.7,-3.02,6.43
21.26210379600525,-5.85,-2.06,-4.55,7.69
21.269556999206543,-6.38,-1.48,-5.94,8.84
21.280163764953613,-6.46,-0.72,-7.07,9.6
21.289548873901367,-6.08,0.03,-7.8,9.88
21.299513816833496,-5.79,-0.25,-7.85,9.75
21.31021499633789,-7.02,-0.75,-8.34,10.92
21.360944747924805,-8.73,-1.27,-9.34,12.84
21.361204862594604,-8.93,-2.22,-9.14,12.96
21.361466884613037,-7.97,-2.85,-8.81,12.21
21.361722946166992,-7.42,-2.52,-9.05,11.97
21.361982822418213,-7.45,-2.6,-8.82,11.83
21.369478702545166,-7.53,-3.14,-8.38,11.69
21.379945755004883,-7.48,-3.29,-8.19,11.56
21.389357805252075,-7.62,3.78,-7.11,11.08
21.39931869506836,1.29,3.74,-1.73,4.31
21.41019082069397,11.15,7.88,15.89,20.95
21.461898803710938,18.08,12.29,24.27,32.66
21.462167739868164,7.48,12.03,-4.72,14.93
21.462430000305176,-3.4,12.77,-13.54,18.91
21.462687015533447,-6.21,1.01,-3.44,7.17
21.462953805923462,-10.82,-2.24,2.73,11.38
21.469170808792114,-11.4,-3.5,-1.91,12.07
21.479662895202637,-7.12,-3.12,-5.59,9.57
21.48915982246399,-5.61,-1.12,-7.46,9.4
21.499181747436523,-2.56,0.59,-6.07,6.61
21.51001787185669,-0.72,1.31,-3.83,4.11
21.56268072128296,0.66,0.96,-3.9,4.07
21.56294083595276,2.11,0.74,-3.7,4.32
21.56319785118103,1.82,0.63,-2.67,3.29
21.563458919525146,-0.49,0.37,-1.25,1.39
21.56371784210205,-1.96,0.13,-0.53,2.03
21.569097995758057,-1.89,0.17,-0.81,2.06
21.579590797424316,-1.64,0.15,-0.26,1.66
21.589043855667114,-1.46,0.15,-0.1,1.47
21.59905767440796,-1.38,0.03,-0.28,1.4
21.60985279083252,-1.23,-0.17,-0.52,1.34
21.662360906600952,-0.84,-0.25,-0.71,1.12
21.662621021270752,-0.49,-0.19,-0.91,1.05
21.662879943847656,-0.44,-0.06,-0.9,1.0
21.663137912750244,-0.69,0.02,-0.88,1.11
21.663393020629883,-0.88,-0.02,-0.66,1.1
21.66885471343994,-0.89,-0.08,-0.21,0.91
21.679422855377197,-0.66,-0.09,0.21,0.69
21.688843727111816,-0.2,-0.08,0.4,0.45
21.69894790649414,0.46,-0.03,0.68,0.82
21.709730863571167,1.21,0.06,1.06,1.6
21.762274742126465,1.85,0.18,1.1,2.15
21.762534856796265,1.89,0.3,0.67,2.02
21.76279067993164,1.35,0.23,0.3,1.4
21.763047695159912,0.67,0.04,0.43,0.79
21.763304710388184,0.44,-0.03,0.94,1.03
21.768680810928345,0.58,0.01,1.3,1.42
21.779325008392334,0.65,0.09,1.21,1.37
21.788675785064697,0.54,0.07,1.1,1.22
21.798630714416504,0.39,-0.03,1.01,1.08
21.80935573577881,0.54,-0.11,0.93,1.08
21.861408710479736,1.09,-0.09,0.74,1.32
21.86166787147522,1.53,0.08,0.47,1.6
21.86192274093628,1.57,0.39,0.42,1.67
21.8621768951416,1.52,0.61,0.75,1.8
21.86243200302124,1.47,0.71,1.07,1.95
21.868531703948975,1.54,0.55,1.3,2.08
21.87909984588623,1.4,0.31,1.91,2.38
21.888458728790283,1.58,0.45,1.92,2.52
21.89855194091797,1.76,1.02,1.52,2.53
21.909263849258423,1.63,1.69,1.34,2.7
21.96113681793213,1.67,2.16,1.47,3.1
21.961395740509033,1.45,2.67,1.73,3.49
21.961652755737305,1.76,2.76,1.82,3.74
21.96190881729126,2.05,2.74,2.18,4.05
21.96214771270752,2.48,2.74,2.47,4.44
21.968451023101807,2.67,2.96,2.74,4.83
21.978972911834717,2.67,3.87,2.72,5.43
21.988354682922363,2.98,5.88,2.43,7.02
21.998377799987793,4.14,7.69,3.26,9.32
22.00928783416748,4.36,8.51,4.76,10.68
22.061877727508545,4.11,9.0,6.66,11.92
22.062139987945557,4.6,9.51,8.61,13.62
22.062395811080933,5.11,9.71,8.84,14.09
22.062651872634888,4.6,9.26,8.23,13.21
22.06290888786316,3.87,8.14,6.75,11.26
22.06860876083374,4.69,6.72,2.01,8.43
22.078873872756958,6.31,6.91,-3.61,10.02
22.08833599090576,4.27,10.85,-6.14,13.17
22.098289012908936,-2.49,13.31,-2.69,13.8
22.10908579826355,-3.82,10.28,0.41,10.97
22.16131281852722,0.76,6.65,-0.02,6.69
22.161576747894287,2.05,3.23,0.68,3.88
22.161836862564087,-1.45,0.56,0.4,1.6
22.162097930908203,-3.31,1.18,-4.05,5.36
22.162353992462158,1.04,4.15,-2.31,4.86
22.16845178604126,5.52,3.22,1.39,6.53
22.178749799728394,8.64,0.58,3.37,9.29
22.18822193145752,9.68,-1.13,4.23,10.62
22.1981840133667,8.74,-2.1,3.86,9.78
22.208930015563965,7.7,-2.49,3.53,8.82
22.261183738708496,6.34,-2.47,3.21,7.52
22.26191282272339,4.87,-2.32,2.35,5.88
22.262173891067505,3.96,-2.31,2.08,5.03
22.262430906295776,3.21,-2.57,2.45,4.78
22.26269292831421,2.41,-2.75,2.36,4.35
22.268041849136353,1.63,-2.78,2.05,3.81
22.278610706329346,0.76,-2.58,1.34,3.0
22.288058757781982,0.18,-2.36,0.47,2.41
22.298094749450684,0.42,-2.24,0.58,2.35
22.30883502960205,1.14,-2.28,0.86,2.69
22.362294673919678,1.39,-2.39,0.59,2.82
22.362555980682373,0.78,-2.28,0.34,2.43
22.362817764282227,-0.23,-1.9,0.03,1.91
22.363078832626343,-1.07,-2.26,-0.34,2.52
22.363334894180298,-2.23,-1.97,-1.31,3.25
22.3678879737854,-3.58,-1.19,-3.65,5.24
22.378516674041748,-4.8,-0.73,-5.33,7.2
22.387820720672607,-5.35,-0.86,-4.29,6.91
22.397819995880127,-5.31,-1.37,-2.02,5.84
22.40875768661499,-5.64,-0.88,-2.27,6.14
22.417895793914795,-6.42,0.37,-3.86,7.5
22.461821794509888,-7.12,1.46,-4.81,8.71
22.462084770202637,-7.32,2.05,-5.52,9.39
22.46234679222107,-7.68,2.56,-6.12,10.14
22.462605953216553,-8.61,3.19,-6.87,11.46
22.46773886680603,-9.75,3.05,-8.45,13.25
22.47819185256958,-10.72,2.0,-10.55,15.17
22.487724781036377,-10.83,-0.14,-9.92,14.68
22.497705936431885,-10.58,-2.94,-7.37,13.22
22.50846576690674,-9.56,-3.63,-6.03,11.87
22.51785182952881,-8.73,-3.79,-5.53,11.0
22.562511920928955,-8.82,-4.12,-5.6,11.23
22.56277370452881,-8.81,-3.73,-5.89,11.23
22.563031673431396,-8.52,-1.06,-6.58,10.81
22.563293933868408,-7.07,6.21,-4.26,10.32
22.567505836486816,3.98,2.63,0.17,4.77
22.578067779541016,13.64,3.55,8.19,16.3
22.58757185935974,16.86,6.9,14.64,23.37
22.597540855407715,7.99,7.97,-1.26,11.35
22.608455896377563,-0.3,16.91,-11.05,20.2
22.617801904678345,-1.77,7.46,-13.26,15.31
22.663168907165527,-5.66,-1.43,-2.45,6.33
22.663439750671387,-11.83,-5.14,5.43,13.99
22.66369867324829,-12.54,-5.08,-1.51,13.61
22.663955688476562,-11.3,-3.34,-4.89,12.75
22.667372703552246,-7.27,-1.21,-3.92,8.34
22.67795991897583,-3.04,0.85,-3.25,4.53
22.687448024749756,-0.93,1.26,-2.11,2.62
22.697457790374756,0.38,1.18,-1.82,2.2
22.708131790161133,1.31,0.89,-2.16,2.67
22.717432975769043,0.95,0.69,-2.0,2.31
22.763303756713867,-0.05,0.59,-1.92,2.0
22.76356601715088,-0.55,0.37,-2.37,2.46
22.763831853866577,-0.73,0.07,-2.24,2.35
22.76408886909485,-1.66,-0.04,-1.01,1.94
22.76732301712036,-2.44,-0.18,0.1,2.44
22.77785086631775,-2.04,-0.04,0.22,2.05
22.787272930145264,-0.93,0.19,-0.19,0.96
22.79722285270691,-0.12,0.0,-0.18,0.21
22.80811071395874,0.55,-0.22,0.36,0.69
22.81745672225952,1.2,-0.27,0.7,1.41
22.86273980140686,1.74,-0.13,0.54,1.82
22.863000869750977,1.85,0.16,0.19,1.86
22.863255977630615,1.36,0.39,-0.2,1.42
22.863512992858887,0.64,0.33,-0.36,0.8
22.86712074279785,0.11,0.09,-0.23,0.27
22.877622842788696,0.02,-0.09,0.03,0.09
22.88705086708069,0.44,-0.01,0.52,0.68
22.89708185195923,1.28,0.15,1.08,1.68
22.907983779907227,1.97,0.18,1.67,2.58
22.917126893997192,2.23,-0.06,1.97,2.97
22.96298885345459,2.25,-0.4,1.94,2.99
22.9632568359375,2.27,-0.65,2.13,3.17
22.96352195739746,2.01,-0.64,2.07,2.95
22.963780879974365,1.37,-0.33,1.25,1.88
22.966948986053467,0.82,0.12,0.56,1.0
22.977427005767822,0.95,0.42,0.46,1.13
22.986968994140625,1.53,0.57,0.61,1.74
22.997063875198364,1.95,0.33,1.32,2.37
23.007746696472168,2.22,-0.21,2.32,3.21
23.01704168319702,2.25,-0.25,2.6,3.44
23.06275486946106,2.09,0.12,2.25,3.07
23.063015937805176,1.68,0.54,1.81,2.52
23.063280820846558,1.22,0.71,1.21,1.85
23.063536882400513,0.77,0.83,0.65,1.3
23.066746711730957,0.51,1.1,0.83,1.46
23.077373027801514,0.69,1.32,1.07,1.83
23.086768865585327,1.01,1.94,1.37,2.58
23.096828937530518,2.03,2.58,1.85,3.76
23.107584953308105,2.14,2.92,2.34,4.31
23.11689567565918,2.41,3.62,2.8,5.17
23.162688732147217,2.43,5.11,2.81,6.31
23.162948846817017,2.65,7.59,2.76,8.49
23.163205862045288,3.56,9.31,4.38,10.88
23.16346287727356,4.24,9.71,6.99,12.69
23.166656970977783,4.21,9.59,8.24,13.32
23.177202701568604,4.12,10.14,8.29,13.73
23.18659281730652,4.39,10.24,8.72,14.14
23.196720838546753,4.2,8.65,7.47,12.17
23.207480907440186,4.28,6.47,3.86,8.66
23.216732025146484,5.32,5.28,-1.37,7.61
23.263001918792725,4.55,7.39,-4.44,9.74
23.263263702392578,-2.08,10.49,-3.4,11.22
23.26352286338806,-4.82,10.85,-1.72,11.99
23.26378297805786,-1.88,9.25,-1.11,9.5
23.266565799713135,2.6,5.31,0.24,5.91
23.277024745941162,3.01,2.11,1.4,3.93
23.28643798828125,-1.12,0.89,-1.26,1.9
23.29648494720459,-1.28,2.76,-5.06,5.9
23.307292938232422,3.82,5.0,-1.23,6.41
23.316624879837036,7.75,3.08,2.26,8.64
23.363468885421753,9.79,0.45,3.67,10.46
23.363730907440186,9.4,-0.76,3.43,10.03
23.363988876342773,7.79,-1.19,2.68,8.32
23.364245891571045,6.37,-1.58,2.46,7.0
23.366355895996094,5.08,-1.83,2.48,5.94
23.376956939697266,4.07,-1.81,2.42,5.06
23.386515855789185,3.17,-1.73,2.61,4.45
23.39655089378357,2.42,-1.72,2.64,3.97
23.407187938690186,1.93,-1.64,2.29,3.41
23.41639995574951,1.6,-1.71,1.79,2.94
23.463924884796143,1.3,-1.87,1.03,2.49
23.46419095993042,1.24,-2.02,0.44,2.41
23.464448928833008,1.3,-2.28,0.38,2.65
23.464712858200073,1.29,-2.57,0.52,2.92
23.466322898864746,0.99,-2.99,0.36,3.17
23.476770877838135,0.31,-3.56,0.21,3.57
23.48641872406006,-0.58,-4.12,-0.08,4.16
23.496397972106934,-1.24,-4.65,-0.06,4.81
23.507009983062744,-1.55,-5.14,-0.24,5.37
23.51624298095703,-1.62,-5.22,-0.87,5.53
23.563942909240723,-2.14,-5.07,-1.9,5.82
23.564208984375,-3.75,-4.89,-3.38,7.02
23.564469814300537,-5.64,-4.57,-4.67,8.63
23.564727783203125,-7.03,-4.2,-5.18,9.68
23.56619167327881,-7.35,-3.49,-5.75,9.96
23.57662582397461,-6.75,-2.23,-6.5,9.63
23.5863938331604,-6.5,-0.66,-7.42,9.88
23.596131801605225,-7.27,0.91,-9.05,11.64
23.606972694396973,-8.75,1.93,-11.08,14.24
23.616164684295654,-10.12,1.5,-11.85,15.65
23.66387176513672,-11.15,0.14,-11.42,15.96
23.6641206741333,-11.15,-1.28,-11.49,16.06
23.664377689361572,-10.15,-2.52,-11.19,15.31
23.66464376449585,-8.59,-3.41,-9.14,12.99
23.6659038066864,-8.33,0.22,-8.5,11.9
23.676517963409424,-5.14,3.8,-5.97,8.74
23.68589186668396,2.02,-0.59,-3.75,4.3
23.695966720581055,11.48,9.47,16.87,22.49
23.70676589012146,20.96,10.9,23.16,33.08
23.71592092514038,9.22,11.55,-6.48,16.13
23.764251708984375,-2.96,10.8,-8.82,14.25
23.764514923095703,-11.57,3.42,-3.7,12.61
23.764776706695557,-13.22,-4.49,-4.49,14.66
23.76503586769104,-10.71,-2.14,-1.93,11.09
23.765824794769287,-9.55,-1.81,-4.27,10.61
23.776233673095703,-5.88,-1.35,-6.86,9.13
23.785808801651,-3.81,0.29,-5.42,6.63
23.79584288597107,-2.95,0.64,-3.26,4.44
23.80655574798584,-0.84,0.52,-3.14,3.29
23.815907955169678,1.65,0.84,-2.95,3.48
23.864659786224365,2.08,1.18,-1.77,2.97
23.864946842193604,0.59,1.05,-1.52,1.93
23.865209817886353,-0.68,0.65,-2.03,2.23
23.865660905838013,-0.62,0.36,-2.25,2.36
23.865921020507812,-0.16,0.14,-1.45,1.46
23.87628483772278,0.02,-0.12,-0.71,0.72
23.88569402694702,0.06,-0.22,-0.67,0.7
23.89585781097412,-0.21,-0.25,-0.77,0.83
23.90646481513977,-0.47,-0.21,-0.55,0.75
23.915656805038452,-0.46,-0.12,-0.33,0.57
23.964476823806763,-0.27,-0.06,-0.17,0.32
23.964759826660156,-0.09,-0.04,0.15,0.17
23.9650297164917,0.09,-0.03,0.33,0.34
23.965441703796387,0.2,0.04,0.53,0.56
23.965697765350342,0.17,0.12,0.64,0.67
23.975940704345703,0.13,0.21,0.53,0.58
23.98541283607483,0.08,0.25,0.4,0.47
23.995471000671387,-0.06,0.29,0.28,0.4
24.006237983703613,0.0,0.27,0.25,0.36
24.01559281349182,0.22,0.24,0.27,0.42
24.064849853515625,0.67,0.24,0.3,0.77
24.065268993377686,1.16,0.23,0.6,1.32
24.06552791595459,1.58,-0.05,1.33,2.06
24.06578493118286,1.99,-0.51,2.11,2.94
24.066040992736816,2.41,-0.91,2.38,3.5
24.075822830200195,2.89,-0.98,2.75,4.1
24.085229873657227,3.04,-0.65,2.6,4.05
24.095314979553223,2.38,-0.14,1.78,2.97
24.106191873550415,1.46,0.07,0.98,1.75
24.115535736083984,1.07,0.16,0.28,1.11
24.164137840270996,1.33,0.14,0.27,1.36
24.16440200805664,1.98,-0.06,0.72,2.1
24.164674758911133,2.19,-0.05,1.17,2.48
24.165116786956787,1.64,0.05,1.56,2.26
24.16537094116211,1.17,0.21,1.9,2.24
24.175712823867798,1.15,0.56,1.97,2.34
24.18522596359253,1.28,0.99,1.31,2.08
24.19523572921753,1.22,1.53,0.55,2.03
24.20599389076233,1.48,1.89,0.34,2.42
24.2153058052063,1.58,2.17,0.64,2.75
24.2650408744812,2.02,2.45,1.38,3.46
24.265302896499634,1.81,2.73,1.75,3.71
24.265559673309326,1.52,4.82,2.3,5.55
24.265814781188965,2.52,7.51,2.54,8.31
24.266072750091553,3.74,8.06,4.29,9.86
24.27560782432556,3.73,8.18,5.48,10.52
24.28503680229187,3.91,8.78,6.58,11.64
24.295060873031616,4.08,9.58,7.38,12.76
24.305855751037598,4.23,10.57,7.6,13.68
24.31504988670349,4.23,10.34,7.35,13.37
24.36505389213562,4.22,8.46,5.34,10.85
24.365312814712524,4.56,6.29,1.51,7.91
24.365569829940796,6.0,6.33,-2.76,9.14
24.365827798843384,4.7,8.75,-4.02,10.71
24.366086959838867,-2.79,10.27,-2.8,11.0
24.37547492980957,-5.37,10.07,-2.73,11.73
24.38490581512451,0.6,8.0,-2.04,8.27
24.39489483833313,3.74,4.25,0.53,5.68
24.405698776245117,1.55,2.86,1.18,3.46
24.414925813674927,-1.53,3.56,-3.27,5.07
24.46501398086548,2.23,5.73,-2.38,6.59
24.4652738571167,6.97,4.85,1.64,8.64
24.465528964996338,9.41,2.33,3.0,10.14
24.465786933898926,9.31,0.62,3.29,9.89
24.466043949127197,7.89,-0.43,2.96,8.43
24.475257873535156,6.31,-1.05,2.26,6.78
24.48466968536377,4.71,-1.45,1.81,5.25
24.494825839996338,3.24,-1.9,2.09,4.29
24.505352020263672,1.83,-2.16,2.45,3.74
24.514709949493408,0.78,-2.34,2.5,3.51
24.565423011779785,0.41,-2.3,2.02,3.08
24.56568479537964,0.79,-2.02,1.65,2.72
24.565942764282227,1.48,-2.09,1.61,3.02
24.566203832626343,2.02,-2.25,1.26,3.27
24.566459894180298,2.08,-2.36,0.7,3.22
24.575162887573242,1.51,-2.53,0.49,2.98
24.584709882736206,0.9,-2.86,0.12,3.0
24.594583988189697,0.29,-3.46,0.08,3.47
24.60517692565918,-0.15,-4.13,-0.06,4.13
24.614653825759888,-0.48,-4.66,-0.25,4.69
24.66505193710327,-0.76,-5.21,-0.38,5.27
24.665320873260498,-1.1,-5.65,-0.69,5.79
24.665578842163086,-1.92,-6.09,-1.43,6.54
24.665836811065674,-2.88,-6.67,-2.04,7.54
24.66609787940979,-3.7,-7.02,-2.1,8.2
24.674906730651855,-4.98,-7.13,-2.43,9.03
24.68455696105957,-5.93,-6.98,-2.93,9.61
24.694489002227783,-6.48,-6.51,-3.91,9.98
24.70503282546997,-6.94,-5.97,-5.27,10.56
24.714478969573975,-7.61,-5.59,-6.13,11.25
24.76604986190796,-9.5,-5.26,-7.1,12.97
24.76630973815918,-12.19,-4.99,-8.25,15.54
24.766570806503296,-14.5,-4.54,-9.86,18.11
24.766829013824463,-15.93,-3.75,-11.21,19.83
24.767086029052734,-16.14,-2.52,-11.59,20.02
24.774962902069092,-14.26,-1.52,-10.97,18.05
24.784334897994995,-11.68,-1.46,-9.96,15.41
24.79431390762329,-9.44,-1.34,-9.32,13.33
24.80496382713318,-8.8,1.33,-9.58,13.07
24.814308881759644,-6.86,11.11,-4.94,13.96
24.86528182029724,19.0,9.91,12.24,24.67
24.865550994873047,50.51,23.92,37.33,67.2
24.865813732147217,17.79,23.42,1.12,29.43
24.866081714630127,-2.73,8.09,-21.17,22.82
24.8663387298584,-11.32,-3.96,-5.2,13.07
24.874595880508423,-22.59,-7.53,7.47,24.95
24.884090900421143,-24.18,-4.59,2.03,24.69
24.894207000732422,-13.69,-2.65,-6.51,15.38
24.905041694641113,-4.97,-1.25,-6.71,8.44
24.914089679718018,-1.6,0.71,-4.88,5.18
24.965699672698975,-0.49,1.83,-2.52,3.15
24.965962886810303,3.2,2.17,-3.39,5.14
24.966221809387207,6.11,2.04,-4.23,7.7
24.96647882461548,2.79,1.17,-2.73,4.07
24.966744899749756,-1.64,0.36,-1.8,2.46
24.974538803100586,-3.01,-0.16,-0.44,3.04
24.984009742736816,-2.88,-0.3,0.64,2.96
24.993974685668945,-2.36,-0.15,1.31,2.7
25.004998683929443,-1.5,0.02,1.56,2.16
25.013972759246826,-0.04,-0.06,1.09,1.09
25.06597900390625,1.36,-0.2,0.41,1.43
25.066243886947632,2.07,-0.17,-0.12,2.08
25.066500902175903,2.06,-0.06,-0.38,2.09
25.06676483154297,1.55,-0.09,-0.56,1.65
25.067020893096924,0.78,-0.14,-0.71,1.06
25.07432794570923,0.0,-0.16,-0.74,0.75
25.083827018737793,-0.53,0.0,-0.8,0.95
25.09391188621521,-0.58,0.17,-0.38,0.71
25.147941827774048,0.19,0.22,0.35,0.45
25.148204803466797,1.63,0.27,1.02,1.94
25.148468017578125,2.69,0.28,1.27,2.98
25.148728847503662,2.83,0.27,1.06,3.03
25.148987770080566,2.18,0.17,0.8,2.32
25.153746843338013,1.42,-0.12,1.16,1.83
25.163785934448242,0.84,-0.24,1.6,1.82
25.174314975738525,0.85,-0.22,1.45,1.69
25.183790683746338,1.35,-0.16,1.18,1.8
25.193760871887207,2.07,-0.11,0.93,2.27
25.249191761016846,2.25,-0.15,0.65,2.34
25.249452829360962,1.6,-0.25,0.67,1.75
25.24971079826355,0.97,-0.26,0.55,1.14
25.24997091293335,0.55,-0.13,0.59,0.81
25.250228881835938,0.44,-0.03,1.26,1.33
25.25374984741211,0.71,-0.17,2.19,2.3
25.263566970825195,1.37,-0.19,2.42,2.78
25.274059772491455,1.89,-0.05,2.05,2.78
25.283543825149536,2.1,0.03,1.88,2.81
25.293614864349365,2.32,0.23,1.32,2.67
25.349256992340088,2.29,0.44,0.88,2.49
25.34951686859131,2.27,0.68,1.16,2.63
25.34975790977478,2.22,1.37,1.16,2.85
25.35001277923584,1.24,2.29,1.68,3.09
25.35026979446411,1.02,2.79,2.48,3.86
25.353353023529053,2.23,3.52,3.12,5.2
25.36331081390381,2.45,4.03,4.16,6.28
25.373852729797363,2.8,6.87,4.11,8.48
25.383370876312256,5.23,10.28,4.94,12.54
25.39406180381775,6.32,11.12,6.6,14.39
25.449100017547607,5.79,11.26,7.81,14.87
25.44985294342041,6.07,11.78,9.42,16.25
25.450127840042114,6.38,12.17,8.39,16.09
25.450390815734863,6.62,11.19,7.1,14.81
25.45065188407898,6.03,9.17,5.1,12.1
25.45333194732666,5.4,7.49,0.96,9.28
25.463275909423828,4.11,8.05,-3.29,9.61
25.473931789398193,-1.0,11.24,-4.54,12.16
25.483179807662964,-6.74,12.05,-3.35,14.2
25.493268966674805,-4.42,9.62,-2.31,10.83
25.504076957702637,2.23,4.66,0.01,5.16
25.54916477203369,2.75,1.37,1.29,3.33
25.549426794052124,-2.54,0.17,-3.15,4.05
25.54968500137329,-0.46,2.57,-4.49,5.19
25.549940824508667,5.13,4.08,0.91,6.61
25.553172826766968,8.62,2.38,2.31,9.23
25.56308388710022,9.74,0.91,1.72,9.93
25.57371473312378,8.62,-0.08,1.26,8.71
25.583088874816895,7.43,-1.1,0.99,7.57
25.593108892440796,6.74,-1.29,0.32,6.86
25.60399293899536,6.41,-0.71,-0.26,6.45
25.650120735168457,5.98,-0.63,-0.15,6.01
25.65038299560547,4.84,-1.11,-0.06,4.96
25.650640964508057,3.82,-1.63,-0.54,4.18
25.65089702606201,3.37,-1.99,-0.93,4.02
25.65307879447937,3.23,-2.07,-1.26,4.03
25.662971019744873,3.21,-1.91,-1.69,4.09
25.67353582382202,2.8,-1.95,-1.75,3.83
25.6830997467041,2.38,-2.12,-1.66,3.59
25.69299077987671,2.06,-2.46,-1.83,3.69
25.703787803649902,1.77,-2.96,-2.06,4.01
25.750252723693848,1.48,-3.71,-1.82,4.38
25.75051498413086,1.02,-4.48,-1.78,4.92
25.75077486038208,0.39,-5.15,-1.7,5.43
25.751044750213623,-0.17,-5.86,-1.77,6.12
25.752763748168945,-0.45,-6.47,-2.05,6.8
25.762820720672607,-0.6,-6.8,-2.6,7.3
25.773313999176025,-0.41,-7.02,-3.07,7.67
25.782792806625366,-0.72,-7.03,-3.28,7.79
25.792871952056885,-1.74,-7.0,-3.28,7.92
25.80376100540161,-3.01,-7.02,-3.54,8.41
25.850255966186523,-4.08,-6.68,-4.55,9.05
25.850515842437744,-4.71,-5.77,-5.67,9.36
25.850775718688965,-5.09,-4.78,-6.48,9.52
25.85103487968445,-5.64,-3.83,-7.12,9.85
25.852606773376465,-6.61,-2.82,-7.63,10.48
25.862679958343506,-7.99,-1.82,-8.33,11.68
25.87320899963379,-9.29,-0.57,-9.29,13.15
25.882690906524658,-9.93,0.66,-9.82,13.98
25.892805814743042,-9.82,1.05,-9.52,13.71
25.903557777404785,-9.34,1.2,-9.32,13.24
25.950413703918457,-8.39,1.16,-8.8,12.21
25.95068073272705,-7.48,0.44,-7.69,10.73
25.950937747955322,-7.03,-0.61,-6.48,9.58
25.9512038230896,-9.16,3.99,-5.5,11.4
25.95266890525818,-1.61,0.99,-3.67,4.12
25.962547779083252,15.06,6.29,11.52,19.97
25.973012924194336,30.07,18.1,32.54,47.86
25.982672691345215,9.64,16.0,-1.45,18.73
25.992546796798706,-9.04,10.48,-13.97,19.66
26.003270864486694,-15.73,-0.84,1.57,15.83
26.05093002319336,-18.81,-2.93,3.59,19.37
26.051208019256592,-15.17,-3.63,-3.06,15.89
26.051488876342773,-8.68,-2.68,-6.58,11.21
26.05174970626831,-5.55,-1.41,-7.53,9.45
26.05245089530945,-2.4,0.9,-6.73,7.2
26.062315940856934,-0.89,1.47,-4.68,4.98
26.07278084754944,0.86,0.46,-4.83,4.92
26.082310676574707,3.1,0.59,-4.67,5.63
26.0923810005188,2.8,1.09,-3.21,4.39
26.103145837783813,0.09,0.97,-1.95,2.17
26.151351928710938,-2.44,0.37,-1.66,2.97
26.151649951934814,-3.33,0.04,-0.76,3.41
26.152079820632935,-2.82,-0.06,0.44,2.85
26.15234088897705,-1.86,-0.15,0.85,2.05
26.152601718902588,-1.17,-0.18,0.37,1.24
26.162259817123413,-0.48,-0.11,-0.37,0.61
26.17264986038208,-0.04,-0.02,-0.87,0.87
26.182161808013916,-0.15,-0.07,-1.19,1.2
26.19224500656128,-0.48,-0.09,-1.33,1.41
26.203007698059082,-0.62,-0.06,-1.29,1.43
26.25151300430298,-0.39,-0.04,-1.11,1.17
26.251962900161743,-0.21,0.06,-0.58,0.61
26.252225875854492,-0.33,0.17,0.08,0.37
26.252481937408447,-0.4,0.25,0.62,0.77
26.252736806869507,0.03,0.39,0.78,0.87
26.262187004089355,0.85,0.47,0.92,1.33
26.27274489402771,1.4,0.44,0.85,1.69
26.282086849212646,1.67,0.37,0.96,1.96
26.292117834091187,1.95,0.09,1.22,2.3
26.30288791656494,2.23,-0.17,1.42,2.64
26.35255789756775,2.55,-0.41,2.07,3.3
26.35282278060913,2.9,-0.56,2.78,4.05
26.353081703186035,3.14,-0.65,2.97,4.37
26.35333776473999,3.28,-0.63,2.56,4.2
26.353593826293945,3.13,-0.23,1.66,3.55
26.361878871917725,2.51,0.24,0.64,2.6
26.372766971588135,1.57,0.33,0.35,1.64
26.381964683532715,0.69,0.15,0.75,1.03
26.391947746276855,0.58,-0.02,1.12,1.26
26.402751922607422,0.92,0.09,1.24,1.54
26.451143741607666,1.18,0.55,1.29,1.83
26.45157480239868,1.15,1.17,1.21,2.03
26.451831817626953,1.08,1.87,0.98,2.37
26.452091693878174,1.21,2.4,1.05,2.88
26.452345848083496,1.48,3.27,1.17,3.77
26.461822986602783,1.74,3.05,1.32,3.75
26.472670793533325,1.59,3.08,1.86,3.93
26.48179578781128,1.95,3.48,2.69,4.81
26.49172878265381,2.41,4.91,2.86,6.17
26.502604961395264,4.05,6.98,3.29,8.71
26.551651000976562,5.88,8.27,4.63,11.15
26.5519118309021,6.83,8.81,5.68,12.51
26.55217480659485,6.73,8.97,6.61,13.01
26.552430868148804,5.98,9.18,8.29,13.73
26.552685737609863,5.61,9.51,9.23,14.39
26.56155490875244,5.99,9.34,7.82,13.57
26.572460889816284,5.86,8.2,4.86,11.18
26.581655025482178,5.49,7.1,1.04,9.03
26.59164786338806,5.47,8.73,-3.22,10.79
26.602388858795166,1.3,12.99,-4.84,13.92
26.651840686798096,-5.22,13.55,-2.19,14.68
26.65210199356079,-5.15,10.13,0.45,11.37
26.65235996246338,0.8,5.89,1.74,6.19
26.65261483192444,1.28,3.89,1.84,4.48
26.65287184715271,-3.72,3.43,-3.0,5.88
26.661512851715088,-1.62,5.61,-5.21,7.82
26.67235279083252,5.02,6.35,0.11,8.09
26.68159294128418,9.35,3.67,2.87,10.44
26.691484928131104,11.25,1.63,3.57,11.91
26.702270984649658,9.9,0.34,3.42,10.47
26.7516348361969,7.78,-0.67,2.83,8.3
26.7518949508667,6.4,-1.39,2.53,7.02
26.752153873443604,5.37,-1.66,2.4,6.11
26.752413749694824,4.46,-1.53,2.25,5.22
26.752668857574463,3.56,-1.54,2.41,4.56
26.761359691619873,2.9,-1.62,2.09,3.92
26.77186679840088,2.76,-1.9,1.67,3.74
26.781327724456787,2.61,-2.41,1.38,3.81
26.79135274887085,2.32,-2.73,0.76,3.66
26.802409887313843,1.95,-3.02,0.32,3.6
26.851786851882935,1.54,-3.47,0.17,3.8
26.85204792022705,1.18,-3.85,-0.1,4.02
26.852306842803955,0.62,-4.33,-0.23,4.38
26.852564811706543,0.0,-5.07,-0.31,5.07
26.852824687957764,-0.62,-5.96,-0.67,6.02
26.861273765563965,-1.3,-6.8,-1.09,7.0
26.87169599533081,-2.14,-7.73,-1.29,8.12
26.881170749664307,-3.22,-8.47,-1.87,9.25
26.89122486114502,-4.43,-8.76,-3.41,10.39
26.901893854141235,-5.89,-8.86,-4.82,11.68
26.951982021331787,-7.4,-8.73,-5.75,12.8
26.95224690437317,-8.03,-7.64,-6.96,13.08
26.952504873275757,-8.1,-6.12,-7.6,12.68
26.952762842178345,-8.62,-4.72,-7.99,12.66
26.953019857406616,-9.73,-3.32,-8.78,13.51
26.96104383468628,-10.99,-2.57,-8.76,14.28
26.9715838432312,-12.0,-2.02,-8.4,14.78
26.98102378845215,-12.12,-1.07,-8.58,14.88
26.99102282524109,-11.51,0.31,-8.41,14.25
27.00181484222412,-11.05,1.42,-8.05,13.74
27.05233669281006,-10.78,1.7,-7.73,13.37
27.05259895324707,-11.09,3.75,-7.86,14.1
27.05285882949829,-6.63,7.94,-6.93,12.45
27.053119897842407,1.71,-1.81,-4.19,4.87
27.0533766746521,11.07,7.43,8.53,15.82
27.06152868270874,32.64,20.85,30.41,49.24
27.07140874862671,15.3,19.81,2.41,25.14
27.08088779449463,-3.99,4.34,-8.27,10.15
27.09087085723877,-13.31,-6.72,-1.91,15.03
27.101602792739868,-18.34,-5.19,-4.82,19.66
27.151875019073486,-19.85,1.51,-0.44,19.91
27.152139902114868,-14.51,1.98,-3.06,14.96
27.15239667892456,-6.15,0.38,-6.61,9.03
27.15265679359436,-1.33,0.23,-6.48,6.61
27.152915000915527,0.46,-0.05,-6.24,6.25
27.160751819610596,2.23,0.54,-6.13,6.54
27.171267986297607,2.84,1.36,-3.95,5.05
27.180728912353516,0.31,1.75,-2.57,3.12
27.190799713134766,-2.42,0.78,-1.76,3.09
27.201512813568115,-2.25,-0.33,-0.73,2.38
27.252227783203125,-0.62,-0.43,0.6,0.96
27.252490997314453,0.54,-0.27,1.48,1.59
27.252731800079346,0.84,-0.28,1.48,1.72
27.2529878616333,0.67,-0.3,1.31,1.5
27.25324296951294,0.58,-0.1,0.81,1.0
27.260640859603882,0.43,-0.01,0.19,0.47
27.27105474472046,0.01,-0.1,-0.34,0.35
27.280584812164307,-0.49,-0.21,-0.63,0.82
27.290565013885498,-0.65,-0.23,-0.73,1.0
27.301336765289307,-0.41,0.02,-0.44,0.6
27.352566719055176,0.04,0.24,-0.03,0.24
27.352826833724976,0.49,0.25,0.28,0.61
27.35308599472046,0.6,0.1,0.57,0.83
27.353344917297363,0.64,0.02,0.87,1.08
27.353600025177002,1.07,-0.04,1.26,1.65
27.360421895980835,1.3,-0.2,1.36,1.89
27.37098789215088,1.12,-0.37,1.41,1.83
27.380452871322632,1.21,-0.25,1.41,1.87
27.39037585258484,1.76,-0.09,1.25,2.16
27.40117383003235,2.51,0.03,1.54,2.94
27.45186996459961,3.2,-0.03,2.0,3.77
27.452135801315308,3.37,-0.2,2.29,4.07
27.452395915985107,3.27,-0.25,2.51,4.12
27.452658891677856,3.28,-0.23,2.3,4.01
27.452916860580444,3.08,-0.1,2.11,3.73
27.4602689743042,2.97,0.24,2.12,3.65
27.470845699310303,2.66,0.54,1.56,3.13
27.48022699356079,2.06,0.95,1.06,2.5
27.49017882347107,1.62,1.49,0.98,2.4
27.500971794128418,1.22,1.88,0.98,2.44
27.55177402496338,1.09,2.57,0.96,2.95
27.5520339012146,1.32,3.55,1.43,4.04
27.552289962768555,0.73,3.84,2.81,4.81
27.552543878555298,0.63,3.79,3.16,4.97
27.552806854248047,0.72,4.77,3.28,5.83
27.560178756713867,1.15,6.64,3.34,7.52
27.57069182395935,2.79,8.09,4.3,9.57
27.58019185066223,4.03,8.41,6.11,11.14
27.59002685546875,4.99,9.13,7.39,12.76
27.600910902023315,6.52,10.25,7.58,14.31
27.652463912963867,7.71,11.14,7.4,15.43
27.65272879600525,7.64,10.27,7.65,14.91
27.652987003326416,7.25,8.33,5.93,12.53
27.653249740600586,7.17,6.62,1.41,9.86
27.653515815734863,6.91,6.16,-4.48,10.28
27.659989833831787,3.89,10.44,-8.17,13.81
27.670559883117676,-1.23,14.01,-4.51,14.76
27.6799738407135,-2.99,12.11,1.42,12.55
27.690040826797485,0.78,7.8,1.51,7.98
27.7007737159729,3.28,3.3,0.72,4.7
27.752286911010742,-0.33,1.34,-0.29,1.41
27.752551794052124,-4.04,1.18,-5.03,6.55
27.75281000137329,-0.93,4.47,-4.86,6.66
27.75306987762451,5.02,5.63,-0.35,7.55
27.753323793411255,9.2,3.0,1.9,9.86
27.759787797927856,10.39,0.42,4.08,11.17
27.770315885543823,8.07,-1.05,4.5,9.29
27.779807806015015,6.11,-1.6,3.56,7.25
27.789970874786377,4.53,-2.04,3.0,5.8
27.80053687095642,2.7,-2.39,3.06,4.72
27.85198402404785,1.06,-2.66,3.12,4.23
27.852247714996338,-0.28,-2.83,3.02,4.14
27.85250997543335,-0.95,-2.64,2.64,3.85
27.852768898010254,-0.79,-2.63,2.23,3.53
27.853024005889893,-0.08,-2.91,1.91,3.48
27.859633922576904,0.93,-3.06,1.82,3.67
27.87019968032837,1.53,-3.07,1.75,3.85
27.879685878753662,1.53,-3.14,1.7,3.88
27.889932870864868,0.88,-3.48,1.54,3.9
27.900447845458984,-0.16,-4.01,1.51,4.28
27.952313899993896,-1.09,-4.84,1.46,5.17
27.95257568359375,-1.76,-5.74,1.41,6.16
27.952833890914917,-2.33,-6.46,1.23,6.97
27.953089714050293,-2.64,-6.74,1.0,7.3
27.953346729278564,-2.45,-6.69,0.43,7.13
27.95954990386963,-2.26,-6.17,-0.23,6.57
27.970133781433105,-2.94,-5.39,-2.03,6.46
27.979537963867188,-4.0,-4.49,-3.3,6.85
27.98987579345703,-5.23,-3.9,-2.63,7.03
28.00035285949707,-6.04,-3.12,-3.6,7.69
28.0521559715271,-6.5,-1.88,-5.75,8.87
28.05241870880127,-7.05,-0.46,-7.71,10.45
28.052677869796753,-8.12,0.94,-9.37,12.43
28.052934885025024,-9.56,2.01,-10.79,14.55
28.053192853927612,-10.64,2.3,-11.69,15.97
28.059354782104492,-11.21,1.37,-11.38,16.03
28.069949865341187,-11.56,-0.66,-10.79,15.82
28.079309940338135,-10.83,-2.76,-10.46,15.3
28.089256763458252,-9.5,-2.64,-10.91,14.7
28.100133895874023,-8.76,4.17,-8.44,12.85
28.15191888809204,-5.26,-1.32,-7.76,9.46
28.15218496322632,3.83,7.18,1.89,8.35
28.15244483947754,16.39,15.08,27.82,35.63
28.15270185470581,11.35,12.37,0.51,16.79
28.152960777282715,2.18,11.05,-12.19,16.59
28.159206867218018,-4.26,1.62,-2.6,5.24
28.1697518825531,-12.7,-3.72,0.69,13.25
28.17920684814453,-8.73,-5.34,-2.22,10.47
28.189157962799072,-4.51,-1.83,-8.07,9.42
28.199996948242188,-4.82,-0.05,-7.06,8.54
28.25203275680542,-4.0,1.44,-5.31,6.8
28.252295970916748,-2.47,1.09,-4.04,4.85
28.2525577545166,0.03,0.38,-3.92,3.93
28.252814769744873,1.34,0.49,-2.98,3.3
28.253073692321777,0.43,0.74,-1.86,2.04
28.259099006652832,-1.04,0.69,-1.49,1.94
28.269670963287354,-1.65,0.43,-1.57,2.31
28.27903699874878,-1.65,0.28,-1.4,2.18
28.28908681869507,-1.49,0.15,-0.74,1.67
28.299835681915283,-0.98,-0.05,-0.69,1.19
28.352120876312256,-0.52,-0.27,-0.95,1.11
28.352380752563477,-0.33,-0.32,-1.06,1.15
28.352648735046387,-0.22,-0.2,-0.82,0.87
28.352913856506348,0.03,-0.06,-0.62,0.62
28.353169918060303,0.23,0.1,-0.61,0.65
28.359001874923706,0.01,0.16,-0.31,0.34
28.36942982673645,-0.3,0.09,0.34,0.46
28.378978729248047,-0.37,0.06,0.75,0.83
28.389060020446777,-0.12,0.11,0.99,1.0
28.39972186088562,0.54,0.2,1.1,1.24
28.452306747436523,1.49,0.3,1.0,1.81
28.45256781578064,2.19,0.35,0.96,2.41
28.45282483100891,2.55,0.31,1.16,2.81
28.45307970046997,2.69,0.13,1.18,2.94
28.453336715698242,2.45,-0.09,1.38,2.81
28.45881700515747,2.13,-0.25,1.76,2.77
28.469310760498047,1.77,-0.29,1.77,2.51
28.478744983673096,1.1,-0.19,1.67,2.0
28.488687992095947,0.67,-0.06,1.28,1.44
28.49951481819153,0.79,0.08,0.68,1.04
28.5520339012146,1.08,0.35,0.32,1.17
28.552300930023193,1.18,0.65,-0.07,1.34
28.552551746368408,1.02,0.87,0.05,1.34
28.552809715270996,0.95,0.91,0.48,1.4
28.55306386947632,0.85,0.79,0.81,1.41
28.558631896972656,0.9,0.8,1.18,1.68
28.569196701049805,0.73,0.98,1.68,2.07
28.578606843948364,0.97,1.37,2.28,2.83
28.58864688873291,1.4,1.81,2.77,3.59
28.599390029907227,1.55,2.09,2.28,3.45
28.65270471572876,1.44,2.44,2.18,3.57
28.65296697616577,1.57,2.71,2.55,4.03
28.653226852416992,2.12,3.04,3.26,4.93
28.653491973876953,2.85,3.55,4.07,6.1
28.653753757476807,3.61,4.48,4.85,7.52
28.658474922180176,4.31,6.25,5.28,9.24
28.669001817703247,5.51,9.01,5.38,11.85
28.67847180366516,6.61,10.83,6.85,14.41
28.689106941223145,6.38,12.1,8.74,16.23
28.699246883392334,6.29,12.72,10.04,17.38
28.752241849899292,6.02,12.03,9.73,16.6
28.752502918243408,5.49,10.39,7.48,13.92
28.75276470184326,6.28,8.43,2.49,10.8
28.753020763397217,7.25,8.76,-3.8,11.98
28.75328493118286,4.43,13.05,-7.14,15.52
28.75830602645874,-1.61,16.22,-2.7,16.52
28.768988847732544,-3.94,12.76,1.35,13.42
28.778355836868286,-0.06,7.09,0.03,7.09
28.78838586807251,1.85,3.36,0.75,3.9
28.799076795578003,-2.92,1.78,-0.67,3.48
28.852370738983154,-5.28,2.54,-6.62,8.84
28.852635860443115,-0.03,5.86,-3.4,6.77
28.852896690368652,5.84,4.86,1.73,7.79
28.853163719177246,9.47,1.7,3.51,10.24
28.853418827056885,9.64,-0.7,4.09,10.49
28.85822081565857,6.97,-2.16,3.57,8.12
28.8687686920166,4.81,-2.94,2.84,6.31
28.878390789031982,3.66,-3.22,2.4,5.43
28.88817286491394,3.0,-3.22,2.64,5.13
28.89899182319641,2.33,-3.47,3.16,5.23
28.952610969543457,1.67,-3.88,3.47,5.46
28.952888011932373,1.22,-4.2,3.31,5.48
28.95314598083496,1.32,-4.54,3.11,5.65
28.953401803970337,1.58,-4.99,2.84,5.95
28.95366096496582,1.82,-5.37,2.57,6.22
28.958051681518555,1.88,-5.68,2.56,6.5
28.968581676483154,1.65,-5.88,2.4,6.56
28.978065967559814,1.23,-6.05,2.05,6.5
28.9880108833313,0.63,-6.28,1.51,6.48
28.99882984161377,-0.17,-6.56,0.77,6.6
29.05244493484497,-1.24,-6.9,0.07,7.01
29.052706718444824,-2.28,-7.29,-0.49,7.65
29.052973747253418,-3.06,-7.52,-1.23,8.21
29.053229808807373,-3.79,-7.13,-2.17,8.36
29.05348777770996,-4.75,-6.17,-3.5,8.53
29.05785894393921,-6.19,-4.55,-5.05,9.19
29.06839084625244,-7.86,-2.17,-6.02,10.13
29.077922821044922,-8.34,0.54,-6.61,10.65
29.087873935699463,-7.37,3.67,-6.62,10.56
29.09861469268799,-5.81,6.89,-6.9,11.35
29.152475833892822,-5.4,8.67,-8.67,13.39
29.15273690223694,-7.86,7.6,-11.28,15.7
29.152999877929688,-10.41,5.11,-12.42,16.99
29.15326499938965,-10.23,2.73,-11.88,15.91
29.15352201461792,-7.23,5.5,-9.15,12.89
29.157705783843994,-2.88,-1.31,-6.89,7.58
29.168147802352905,-7.77,-5.4,-8.91,12.99
29.177661895751953,-6.89,0.02,-7.59,10.25
29.187631845474243,5.7,12.72,17.02,21.99
29.198390007019043,8.07,10.08,19.39,23.29
29.252659797668457,-2.3,4.38,-4.07,6.4
29.25292181968689,-8.2,2.69,-3.79,9.42
29.253180980682373,-8.27,-0.61,-3.73,9.09
29.253437995910645,-4.7,-3.24,-0.86,5.77
29.253692865371704,-4.94,-0.26,-0.82,5.01
29.257683753967285,-5.73,0.49,-8.13,9.95
29.268083810806274,-1.1,1.55,-9.48,9.66
29.277403831481934,-0.26,2.27,-6.75,7.12
29.287479877471924,-0.85,0.45,-4.76,4.85
29.29826784133911,-1.36,0.2,-4.15,4.37
29.353394985198975,-2.34,0.03,-3.16,3.93
29.353659868240356,-2.7,0.34,-1.66,3.18
29.35392189025879,-2.75,0.52,-0.58,2.85
29.35418176651001,-2.04,0.32,0.23,2.07
29.35443878173828,-1.1,0.25,-0.02,1.12
29.35771083831787,-0.68,0.08,-0.44,0.81
29.368008852005005,-0.76,0.04,-0.81,1.11
29.37743091583252,-1.06,0.11,-1.3,1.68
29.38745379447937,-1.06,-0.02,-1.17,1.57
29.39829182624817,-0.63,-0.16,-1.15,1.32
29.45293378829956,-0.24,-0.25,-1.35,1.39
29.453204870224,-0.17,-0.23,-1.45,1.47
29.45346975326538,-0.34,-0.15,-1.01,1.07
29.45372772216797,-0.43,-0.07,-0.23,0.49
29.453985691070557,-0.4,-0.01,0.39,0.55
29.457664966583252,-0.2,0.08,0.75,0.78
29.46784496307373,0.24,0.2,0.87,0.92
29.477370738983154,0.64,0.3,0.75,1.03
29.48737382888794,0.72,0.28,0.55,0.94
29.498072862625122,0.78,0.1,0.29,0.83
29.55229377746582,1.1,0.06,0.58,1.24
29.553030014038086,1.56,0.08,1.12,1.92
29.5532968044281,1.9,0.04,1.47,2.4
29.553557872772217,1.84,-0.07,2.29,2.93
29.55381989479065,1.77,-0.14,2.46,3.03
29.557194709777832,1.84,-0.25,1.98,2.71
29.56769895553589,1.72,-0.23,1.48,2.28
29.57712483406067,1.7,0.07,0.82,1.88
29.587143898010254,1.64,0.46,0.11,1.7
29.597996711730957,1.19,0.7,-0.16,1.38
29.607232809066772,0.97,0.79,-0.02,1.25
29.65289282798767,1.31,0.71,0.8,1.69
29.653143882751465,1.81,0.71,2.04,2.81
29.65339994430542,2.07,0.72,3.05,3.75
29.653656005859375,2.32,1.12,3.1,4.03
29.657028675079346,2.36,1.88,2.76,4.08
29.6675968170166,2.45,2.91,2.12,4.35
29.676971912384033,1.58,2.85,2.05,3.84
29.68706178665161,1.33,2.31,1.99,3.32
29.6979398727417,1.64,1.99,2.8,3.8
29.70713186264038,2.35,1.99,3.51,4.66
29.752814769744873,3.3,2.69,4.08,5.89
29.75307583808899,3.86,4.41,4.12,7.16
29.75333285331726,4.62,7.55,3.47,9.5
29.75358772277832,6.19,9.22,4.46,11.96
29.756844997406006,6.01,9.36,6.46,12.86
29.767356872558594,6.05,9.92,8.62,14.46
29.77686071395874,6.09,9.94,9.31,14.91
29.786844730377197,5.39,9.78,8.71,14.16
29.797557830810547,5.07,9.06,7.12,12.58
29.806923866271973,5.07,7.78,2.2,9.54
29.85362195968628,5.7,7.68,-4.69,10.65
29.853883743286133,3.24,11.7,-8.99,15.1
29.85414171218872,-3.23,13.88,-3.85,14.76
29.854400873184204,-4.59,11.41,1.16,12.35
29.856746673583984,-1.61,8.44,-0.4,8.6
29.867201805114746,1.52,3.72,-0.54,4.05
29.876707792282104,1.0,1.01,1.21,1.86
29.88672685623169,-2.44,0.69,-2.96,3.89
29.897523880004883,-0.48,4.15,-4.9,6.43
29.906730890274048,4.68,5.97,-0.41,7.59
29.95370888710022,8.03,3.45,2.44,9.07
29.95396900177002,9.6,0.59,4.21,10.49
29.954224824905396,8.45,-1.33,4.77,9.79
29.954481840133667,6.34,-2.48,3.83,7.81
29.95653986930847,4.8,-3.07,2.82,6.35
29.96704888343811,3.79,-3.03,2.54,5.47
29.976494789123535,2.88,-2.8,2.8,4.89
29.986552715301514,1.57,-2.76,3.02,4.38
29.997282028198242,0.16,-2.73,2.38,3.62
30.006521701812744,-0.63,-2.81,1.48,3.23
30.053831815719604,-0.57,-2.9,0.99,3.11
30.054091930389404,0.02,-3.03,0.75,3.12
30.05434799194336,0.7,-3.45,0.8,3.61
30.054608821868896,1.07,-3.83,1.02,4.1
30.05645179748535,0.93,-4.15,0.67,4.3
30.067020893096924,0.6,-4.57,0.42,4.62
30.0763897895813,-0.21,-5.06,0.54,5.09
30.08635187149048,-1.27,-5.34,0.59,5.52
30.09714388847351,-1.77,-5.72,-0.04,5.98
30.106416702270508,-2.26,-5.66,-0.87,6.15
30.153937816619873,-2.59,-5.18,-2.19,6.19
30.154205799102783,-3.61,-4.51,-3.53,6.77
