time,ax,ay,az,atotal
0.0025298595428466797,-0.06,-0.34,-0.44,0.55
0.011343002319335938,0.21,0.08,-0.16,0.27
0.02343583106994629,-0.4,0.04,-0.05,0.4
0.047430992126464844,-0.38,0.05,-0.05,0.38
0.04902482032775879,-0.21,0.06,0.11,0.24
0.05066967010498047,0.03,0.04,0.14,0.14
0.06505298614501953,0.15,0.09,0.38,0.41
0.06996393203735352,0.14,0.09,0.4,0.43
0.08154082298278809,0.13,0.09,0.12,0.19
0.09015989303588867,0.17,0.01,-0.13,0.21
0.10220193862915039,0.3,-0.06,-0.13,0.33
0.11249065399169922,0.46,-0.1,-0.07,0.47
0.11996173858642578,0.46,-0.07,-0.01,0.46
0.1322798728942871,0.24,-0.02,0.04,0.24
0.15549278259277344,0.12,0.01,0.34,0.36
0.15723681449890137,0.15,-0.1,0.67,0.69
0.15943288803100586,0.08,-0.21,0.58,0.62
0.1696338653564453,0.06,-0.19,0.3,0.36
0.18216466903686523,0.03,-0.11,0.11,0.15
0.18921995162963867,0.06,-0.05,0.23,0.24
0.19903993606567383,0.22,-0.04,0.38,0.44
0.2095048427581787,0.24,0.01,0.33,0.4
0.2213449478149414,0.14,0.03,0.24,0.27
0.22934198379516602,0.01,0.01,0.06,0.06
0.2528519630432129,-0.13,0.0,-0.06,0.14
0.2544260025024414,-0.14,0.01,0.01,0.14
0.2585117816925049,-0.16,0.06,0.09,0.19
0.26867079734802246,-0.21,0.1,0.02,0.23
0.2788097858428955,-0.12,0.08,-0.14,0.2
0.28876781463623047,-0.04,0.06,-0.22,0.23
0.29854393005371094,-0.18,0.07,-0.25,0.31
0.30880069732666016,-0.23,0.08,-0.26,0.35
0.32080698013305664,-0.23,0.06,-0.22,0.32
0.3308727741241455,-0.27,0.0,-0.24,0.36
0.35375380516052246,0.12,0.01,-0.2,0.23
0.3554098606109619,0.61,0.0,0.1,0.61
0.3578507900238037,0.5,0.06,0.31,0.59
0.36792469024658203,0.37,-0.04,0.39,0.53
0.3779716491699219,0.26,-0.09,0.46,0.53
0.38794469833374023,0.05,-0.05,0.36,0.36
0.3976438045501709,-0.16,-0.02,0.22,0.27
0.40765881538391113,-0.36,0.01,0.12,0.37
0.4202427864074707,-0.28,0.0,0.04,0.28
0.4300498962402344,0.03,0.01,0.03,0.04
0.45197081565856934,0.27,-0.04,0.02,0.27
0.45362186431884766,0.22,0.03,0.0,0.22
0.4571819305419922,-0.04,0.13,0.03,0.13
0.46711182594299316,-0.34,0.08,-0.07,0.35
0.4771127700805664,-0.35,-0.03,0.06,0.35
0.48690176010131836,0.0,-0.08,0.22,0.23
0.49701881408691406,0.23,-0.06,0.14,0.27
0.5075068473815918,0.15,-0.04,0.0,0.15
0.5195908546447754,0.02,-0.03,-0.12,0.12
0.529425859451294,0.0,-0.02,-0.11,0.11
0.5571458339691162,0.02,-0.02,-0.06,0.06
0.5586438179016113,0.02,0.01,0.06,0.06
0.5600547790527344,-0.03,0.04,0.21,0.21
0.566309928894043,-0.05,0.04,0.31,0.31
0.5764138698577881,-0.02,0.06,0.36,0.36
0.5863997936248779,0.13,0.03,0.37,0.39
0.5963737964630127,0.39,-0.03,0.34,0.51
0.6061038970947266,0.52,-0.05,0.28,0.59
0.6185770034790039,0.53,-0.02,0.2,0.56
0.6262757778167725,0.49,-0.02,0.05,0.49
0.6606817245483398,0.44,-0.01,-0.04,0.44
0.6625027656555176,0.36,0.0,-0.04,0.36
0.6638836860656738,0.24,0.01,0.05,0.24
0.682708740234375,0.2,0.01,0.13,0.23
0.684058666229248,0.13,0.05,0.19,0.23
0.6981077194213867,-0.07,0.06,0.18,0.2
0.6995818614959717,-0.27,0.03,0.11,0.29
0.7174696922302246,-0.34,-0.01,0.0,0.34
0.7229008674621582,-0.32,0.04,-0.07,0.33
0.7286128997802734,-0.27,0.07,-0.03,0.28
0.7543978691101074,-0.22,0.02,-0.09,0.23
0.756199836730957,-0.25,0.06,-0.26,0.36
0.7577788829803467,-0.31,0.08,-0.37,0.48
0.764819860458374,-0.38,0.07,-0.32,0.5
0.7745058536529541,-0.35,0.08,-0.2,0.41
0.7847578525543213,-0.17,0.09,-0.09,0.21
0.7948517799377441,-0.03,0.08,-0.05,0.09
0.8044657707214355,-0.03,0.08,-0.07,0.11
0.8152389526367188,-0.01,0.04,-0.07,0.08
0.8279557228088379,0.03,0.03,-0.11,0.11
0.8535668849945068,0.01,0.14,-0.21,0.25
0.8552098274230957,-0.06,0.2,-0.28,0.34
0.8569238185882568,-0.17,0.17,-0.28,0.36
0.8659286499023438,-0.28,0.08,-0.16,0.33
0.8742327690124512,-0.33,0.02,0.03,0.33
0.8839206695556641,-0.46,0.01,0.03,0.46
0.894068717956543,-0.64,0.03,-0.01,0.64
0.9037728309631348,-0.55,0.01,0.2,0.58
0.9164247512817383,-0.22,-0.05,0.48,0.53
0.9266688823699951,0.12,-0.03,0.55,0.56
0.9360718727111816,0.26,-0.05,0.42,0.49
0.9594826698303223,0.03,-0.1,0.27,0.28
0.9612936973571777,-0.3,-0.07,0.24,0.39
0.9632587432861328,-0.5,-0.07,0.29,0.58
0.9828157424926758,-0.52,-0.1,0.3,0.6
0.9842939376831055,-0.26,-0.12,0.25,0.38
0.9985308647155762,0.13,-0.1,0.12,0.2
1.0029816627502441,0.22,-0.07,0.08,0.24
1.014408826828003,0.03,-0.03,0.1,0.1
1.0260210037231445,-0.32,-0.03,0.15,0.35
1.0333247184753418,-0.66,0.0,0.21,0.69
1.0581879615783691,-0.69,-0.01,0.32,0.76
1.0600697994232178,-0.35,-0.05,0.47,0.58
1.062659740447998,-0.2,-0.03,0.59,0.62
1.07269287109375,-0.31,-0.05,0.56,0.64
1.0826287269592285,-0.26,-0.13,0.54,0.61
1.0924348831176758,-0.21,-0.07,0.49,0.53
1.102341651916504,-0.17,0.07,0.48,0.51
1.1153359413146973,-0.1,0.01,0.55,0.55
1.124619960784912,0.13,-0.12,0.62,0.64
1.1350078582763672,0.41,-0.11,0.45,0.61
1.1577467918395996,0.32,0.03,0.15,0.35
1.1596097946166992,-0.02,0.08,0.17,0.18
1.1617448329925537,-0.02,-0.04,0.17,0.17
1.1719636917114258,0.17,-0.17,0.05,0.24
1.181870937347412,0.04,-0.16,0.03,0.16
1.1918578147888184,-0.38,-0.01,0.1,0.39
1.2016396522521973,-0.62,0.1,0.18,0.65
1.2117068767547607,-0.49,0.09,0.01,0.49
1.221977710723877,-0.27,0.04,-0.11,0.29
1.2339897155761719,0.03,0.14,0.0,0.14
1.260873794555664,0.19,0.38,-0.31,0.52
1.2624847888946533,-0.05,0.51,-1.04,1.15
1.2638907432556152,-0.13,0.37,-1.34,1.39
1.283430814743042,0.22,0.25,-0.85,0.91
1.2848827838897705,0.37,0.01,-0.44,0.57
1.299074649810791,0.17,-0.16,0.04,0.23
1.3007287979125977,-0.11,0.15,0.67,0.69
1.3154478073120117,0.03,0.23,0.99,1.01
1.3209857940673828,0.45,-0.05,1.0,1.09
1.335019826889038,0.98,-0.24,0.71,1.23
1.360635757446289,1.34,-0.32,0.22,1.39
1.362560749053955,1.48,-0.31,-0.1,1.51
1.364034652709961,1.27,-0.17,-0.14,1.28
1.3832497596740723,0.83,0.02,-0.09,0.83
1.38472580909729,0.35,0.03,-0.12,0.37
1.3989808559417725,0.05,-0.06,-0.03,0.08
1.4004559516906738,-0.12,-0.11,0.07,0.17
1.4152238368988037,-0.23,0.02,-0.02,0.23
1.4224448204040527,-0.11,0.18,-0.29,0.35
1.4320979118347168,-0.03,0.17,-0.56,0.58
1.4638676643371582,-0.4,-0.01,-0.74,0.84
1.4656376838684082,-0.55,0.01,-0.63,0.83
1.4671196937561035,-0.38,0.08,-0.49,0.62
1.4830288887023926,-0.35,0.12,-0.32,0.48
1.4844727516174316,-0.46,0.25,-0.06,0.52
1.4991798400878906,-0.63,0.32,-0.04,0.7
1.500593662261963,-0.69,0.32,-0.16,0.77
1.5145268440246582,-0.57,0.24,-0.28,0.67
1.5198607444763184,-0.33,0.09,-0.3,0.45
1.5338878631591797,-0.09,-0.02,-0.21,0.22
1.5599968433380127,0.06,-0.02,0.04,0.07
1.5616779327392578,0.06,0.13,0.13,0.19
1.5630407333374023,-0.01,0.24,0.1,0.26
1.5834498405456543,0.0,0.25,0.08,0.26
1.5847949981689453,-0.05,0.17,-0.07,0.19
1.5989298820495605,0.0,0.14,-0.19,0.23
1.60040283203125,-0.02,0.29,-0.25,0.38
1.6152818202972412,-0.1,0.42,-0.31,0.53
1.6189627647399902,0.01,0.36,-0.25,0.43
1.6332237720489502,0.06,0.12,0.07,0.15
1.6599879264831543,-0.15,0.13,0.27,0.33
1.6619486808776855,-0.22,0.25,0.24,0.41
1.6633977890014648,-0.24,0.21,0.12,0.34
1.6832499504089355,-0.32,0.18,-0.09,0.37
1.684755802154541,-0.43,0.19,-0.28,0.54
1.6990289688110352,-0.41,0.26,-0.3,0.57
1.7004988193511963,-0.52,0.33,-0.49,0.78
1.7147347927093506,-0.67,0.38,-0.6,0.97
1.7175726890563965,-0.62,0.48,-0.53,0.94
1.7344279289245605,-0.64,0.66,-0.62,1.1
1.7380168437957764,-0.93,0.81,-0.99,1.58
1.7703547477722168,-1.05,1.05,-1.06,1.82
1.7719597816467285,-1.16,1.59,-1.49,2.46
1.7737689018249512,-1.03,2.12,-1.78,2.95
1.7830209732055664,-0.78,2.07,-1.33,2.58
1.787179946899414,-1.04,2.09,-0.86,2.48
1.7990548610687256,-1.67,2.3,-1.09,3.04
1.8073468208312988,-2.28,2.69,-1.33,3.76
1.8168087005615234,-2.62,2.98,-1.48,4.23
1.8270759582519531,-2.76,3.15,-1.73,4.53
1.837397813796997,-2.96,3.13,-2.04,4.76
1.868175983428955,-3.17,3.16,-2.25,5.0
1.8697738647460938,-3.51,3.39,-2.65,5.55
1.8707847595214844,-3.94,3.75,-2.86,6.14
1.8831467628479004,-4.31,4.0,-3.01,6.6
1.8863677978515625,-4.67,4.04,-3.3,7.0
1.896359920501709,-4.95,3.87,-3.53,7.2
1.906348705291748,-5.04,3.72,-3.41,7.13
1.9161019325256348,-4.77,3.12,-3.35,6.61
1.9261548519134521,-4.25,2.59,-3.42,6.03
1.936586856842041,-3.16,2.41,-3.29,5.15
1.9639108180999756,-2.42,3.19,-3.5,5.31
1.9657049179077148,-2.25,4.22,-3.87,6.15
1.9669628143310547,-1.9,5.9,-3.43,7.08
1.983139991760254,0.18,8.12,-1.91,8.34
1.9856538772583008,2.75,9.33,-1.58,9.85
1.9990968704223633,0.97,6.32,-3.61,7.34
2.0057249069213867,-1.83,4.05,-4.88,6.6
2.0153369903564453,-3.43,2.53,-4.7,6.34
2.0254838466644287,-4.64,0.48,-4.23,6.29
2.0359628200531006,-5.44,-2.57,-4.49,7.5
2.065570831298828,-1.96,-4.59,-4.23,6.54
2.0674688816070557,1.39,-3.04,-3.1,4.55
2.0689477920532227,-2.27,-3.03,-3.18,4.94
2.0836048126220703,-6.5,-2.87,-3.88,8.09
2.0850987434387207,-8.96,-2.78,-3.8,10.12
2.0991287231445312,-9.5,-3.33,-2.72,10.42
2.104747772216797,-8.83,-3.89,-1.24,9.72
2.1147618293762207,-7.94,-4.44,0.04,9.09
2.1248648166656494,-7.44,-4.69,0.77,8.82
2.1374058723449707,-7.22,-4.54,0.96,8.58
2.1708579063415527,-7.17,-4.16,0.81,8.32
2.172646999359131,-6.97,-3.87,0.67,8.0
2.1741318702697754,-6.64,-3.72,0.65,7.63
2.180083751678467,-6.41,-3.53,0.8,7.36
2.183865785598755,-6.1,-3.17,0.97,6.94
2.199176788330078,-5.62,-2.57,0.78,6.22
2.2040438652038574,-5.16,-1.66,0.31,5.42
2.2146687507629395,-4.35,-0.59,-0.35,4.4
2.224090814590454,-2.83,0.35,-1.17,3.08
2.233860969543457,-0.91,0.8,-2.09,2.41
2.2679057121276855,0.59,1.3,-2.35,2.74
2.269739866256714,1.1,1.83,-1.6,2.66
2.271190881729126,1.27,2.32,-0.51,2.69
2.2838869094848633,1.77,2.99,0.32,3.48
2.2853779792785645,2.02,3.58,0.85,4.19
2.299482822418213,1.68,4.2,1.29,4.7
2.3034019470214844,1.37,5.07,2.09,5.65
2.3132147789001465,1.64,5.55,2.81,6.43
2.3231687545776367,2.49,5.52,2.82,6.68
2.3329918384552,3.82,5.54,2.28,7.1
2.370553970336914,5.33,5.6,1.61,7.89
2.371853828430176,6.81,5.59,1.53,8.94
2.3728628158569336,6.42,9.44,1.96,11.58
2.3835017681121826,7.88,8.85,1.52,11.94
2.3849897384643555,12.51,2.47,1.41,12.82
2.3994879722595215,13.26,2.27,2.66,13.71
2.4026217460632324,12.36,2.33,2.43,12.81
2.4148848056793213,12.32,3.01,2.86,13.0
2.4223437309265137,12.75,3.27,3.23,13.55
2.4322609901428223,13.12,3.32,2.72,13.8
2.4704537391662598,13.92,3.63,1.78,14.49
2.4723048210144043,14.32,3.1,0.31,14.65
2.473728656768799,10.27,-0.06,-2.82,10.65
2.480679988861084,0.79,-0.97,-5.06,5.21
2.4817209243774414,-6.46,2.14,-3.37,7.59
2.4994008541107178,-4.38,3.49,1.75,5.86
2.5018367767333984,0.48,2.02,3.11,3.73
2.5148487091064453,3.84,2.87,1.91,5.16
2.5218148231506348,4.29,3.87,1.79,6.04
2.531444787979126,3.45,2.95,1.72,4.85
2.541548728942871,4.38,2.85,1.19,5.35
2.57218599319458,3.34,-0.46,0.33,3.38
2.5738258361816406,0.28,-0.96,1.14,1.51
2.5752649307250977,-0.76,-0.62,2.66,2.83
2.5808868408203125,0.7,-1.44,2.42,2.9
2.5913119316101074,2.68,-1.88,1.77,3.72
2.6009278297424316,3.62,-0.53,1.31,3.88
2.6112189292907715,3.46,0.87,0.86,3.66
2.6209158897399902,2.92,1.1,0.2,3.12
2.6308846473693848,2.3,0.4,-0.25,2.34
2.640800952911377,1.83,-0.23,-0.28,1.86
2.669893741607666,1.84,-0.09,0.13,1.84
2.6715588569641113,1.94,0.11,0.87,2.12
2.6725716590881348,1.88,-0.09,1.6,2.47
2.6837878227233887,1.49,-0.27,1.9,2.42
2.6904549598693848,0.78,-0.19,1.99,2.14
2.700352668762207,0.02,0.04,1.76,1.76
2.7101428508758545,-0.72,0.13,1.18,1.38
2.7203149795532227,-1.19,0.07,0.63,1.34
2.7302868366241455,-1.1,-0.06,0.17,1.11
2.7401928901672363,-0.61,0.07,-0.19,0.64
2.769944667816162,-0.28,0.38,-0.78,0.91
2.7713727951049805,-0.05,0.51,-1.54,1.62
2.7723898887634277,0.27,0.32,-2.02,2.06
2.783829689025879,0.32,0.02,-2.23,2.25
2.7898406982421875,0.06,-0.2,-2.01,2.02
2.7996737957000732,0.26,-0.22,-1.05,1.1
2.8094818592071533,0.25,-0.01,-0.04,0.25
2.8196117877960205,-0.7,0.15,-0.08,0.72
2.829338788986206,-1.69,0.17,-0.09,1.7
2.839864730834961,-1.5,0.11,0.41,1.55
2.8689498901367188,-0.72,0.04,0.3,0.78
2.870595932006836,0.11,0.21,-0.1,0.25
2.871588706970215,0.56,0.26,-0.62,0.87
2.8839359283447266,0.38,0.11,-0.71,0.81
2.8889026641845703,-0.25,-0.01,-0.44,0.5
2.89959979057312,-0.82,-0.12,-0.25,0.86
2.908836841583252,-0.91,-0.15,-0.23,0.95
2.918839931488037,-0.15,-0.03,-0.1,0.18
2.928886890411377,0.57,0.07,-0.09,0.58
2.9391307830810547,0.5,-0.09,-0.35,0.61
2.9769937992095947,0.25,-0.17,-0.4,0.5
2.978534698486328,0.02,-0.16,-0.28,0.32
2.979515790939331,-0.16,-0.07,-0.18,0.25
3.000734806060791,-0.06,0.31,0.18,0.36
3.0022287368774414,-0.26,0.5,0.34,0.65
3.0166897773742676,-0.49,0.53,0.07,0.72
3.0181617736816406,-0.21,0.56,0.05,0.6
3.0317606925964355,0.22,0.37,0.01,0.43
3.033252716064453,0.55,0.15,-0.15,0.58
3.048651695251465,0.76,0.17,-0.33,0.84
3.0748157501220703,0.69,0.16,-0.29,0.76
3.0761919021606445,0.31,0.17,-0.36,0.5
3.077235698699951,0.02,0.34,-0.28,0.44
3.079521656036377,-0.35,0.48,-0.01,0.59
3.0872647762298584,-0.93,0.4,0.0,1.01
3.09753680229187,-1.45,0.42,-0.1,1.51
3.1073179244995117,-1.62,0.36,-0.28,1.68
3.1172738075256348,-1.37,0.41,-0.27,1.45
3.127196788787842,-1.17,0.47,-0.53,1.36
3.1371827125549316,-1.27,0.45,-0.82,1.57
3.1748838424682617,-1.5,0.26,-1.13,1.89
3.1761698722839355,-1.68,0.25,-1.32,2.15
3.177142858505249,-1.74,0.38,-1.38,2.25
3.1792118549346924,-1.46,0.56,-1.16,1.94
3.1863198280334473,-1.55,0.66,-1.02,1.96
3.196859836578369,-1.88,0.79,-0.94,2.24
3.2067158222198486,-1.71,1.17,-0.51,2.13
3.2163257598876953,-1.3,1.62,-0.16,2.08
3.226364850997925,-1.33,1.89,-0.81,2.44
3.236578941345215,-2.2,2.65,-1.11,3.61
3.2693557739257812,-2.73,3.38,-1.24,4.51
3.2706546783447266,-3.4,3.08,-2.36,5.15
3.27164888381958,-3.52,3.27,-2.73,5.52
3.282031774520874,-3.43,3.58,-2.52,5.56
3.2858688831329346,-3.96,4.02,-2.84,6.31
3.297311782836914,-5.16,4.73,-3.72,7.92
3.306044816970825,-5.92,5.12,-3.92,8.75
3.3168606758117676,-5.79,5.06,-4.22,8.77
3.325777769088745,-5.6,4.9,-4.67,8.78
3.336103916168213,-5.21,4.63,-4.71,8.41
3.3483588695526123,-4.24,3.91,-4.42,7.26
3.376797676086426,-3.15,3.54,-4.0,6.2
3.377950668334961,-2.76,4.08,-4.06,6.38
3.3789286613464355,-3.42,4.92,-4.34,7.39
3.3999156951904297,-3.32,6.43,-4.15,8.34
3.4014317989349365,-1.49,7.71,-2.58,8.26
3.4169816970825195,2.2,8.87,-0.32,9.14
3.4184467792510986,2.14,6.36,-0.7,6.74
3.4376096725463867,-0.93,4.32,-2.89,5.28
3.4390838146209717,-3.81,3.72,-4.15,6.75
3.453913688659668,-5.83,1.89,-3.78,7.2
3.4794259071350098,-7.39,-0.96,-2.78,7.95
3.4807357788085938,-5.62,-3.26,-1.97,6.78
3.4817419052124023,-0.79,-2.92,-1.16,3.23
3.4993607997894287,-2.97,-1.97,-0.72,3.63
3.500811815261841,-7.08,-1.75,-1.47,7.43
3.516580820083618,-9.9,-1.12,-1.74,10.11
3.5180907249450684,-10.58,-1.73,-1.08,10.77
3.5318779945373535,-9.75,-2.56,-0.12,10.08
3.533968925476074,-8.26,-3.37,0.35,8.92
3.5482847690582275,-6.92,-4.31,0.28,8.15
3.5733847618103027,-6.28,-4.79,-0.07,7.89
3.5752696990966797,-6.14,-4.54,-0.58,7.65
3.5767738819122314,-6.25,-3.98,-0.94,7.46
3.5835909843444824,-6.28,-3.49,-1.05,7.26
3.6000866889953613,-5.95,-3.03,-0.9,6.73
3.6034669876098633,-5.47,-2.86,-0.72,6.21
3.6154956817626953,-5.14,-2.75,-0.76,5.87
3.6235358715057373,-4.99,-2.69,-0.76,5.71
3.6332387924194336,-5.01,-2.37,-0.4,5.55
3.6462879180908203,-4.93,-1.77,-0.14,5.23
3.6747817993164062,-4.3,-1.2,-0.65,4.51
3.675930976867676,-2.69,-0.61,-1.36,3.07
3.6772007942199707,-0.58,0.2,-1.52,1.63
3.682682991027832,1.1,1.22,-1.25,2.06
3.699918746948242,1.62,2.31,-0.95,2.97
3.702849864959717,0.8,2.99,-0.59,3.15
3.715507984161377,0.31,4.14,0.21,4.15
3.7226078510284424,0.82,5.19,1.02,5.35
3.732515811920166,1.9,5.9,1.65,6.41
3.7425358295440674,3.4,6.19,1.78,7.28
3.7787556648254395,5.17,6.45,1.15,8.34
3.779958724975586,7.24,7.58,-0.06,10.48
3.7810797691345215,9.91,8.12,-0.68,12.82
3.800471782684326,9.85,12.44,-0.93,15.89
3.8019638061523438,11.83,11.14,-2.18,16.39
3.816542863845825,17.58,4.26,-0.91,18.11
3.81801176071167,17.63,4.52,2.58,18.38
3.832052707672119,14.9,4.21,3.28,15.82
3.833533763885498,13.13,3.45,3.37,13.98
3.8525209426879883,12.31,3.71,3.9,13.43
3.8800148963928223,11.7,4.22,4.15,13.11
3.8813629150390625,10.86,4.99,4.58,12.79
3.882345676422119,9.34,4.64,4.86,11.5
3.9009997844696045,4.92,0.69,2.35,5.49
3.9025206565856934,-3.64,-1.6,-1.18,4.14
3.916818857192993,-7.8,0.03,-1.56,7.95
3.9182968139648438,-1.32,3.01,0.8,3.38
3.9319629669189453,4.99,5.06,0.79,7.15
3.9334306716918945,6.91,6.4,1.32,9.51
3.9484407901763916,9.72,3.77,0.62,10.44
3.975493907928467,9.31,-1.65,-1.16,9.52
3.9773528575897217,5.1,0.29,0.74,5.16
3.978848934173584,3.32,-0.49,2.55,4.21
3.9805238246917725,2.48,-2.16,2.88,4.37
3.990461826324463,1.8,-1.42,2.35,3.28
4.000673770904541,1.56,-0.04,1.75,2.34
4.010656833648682,2.02,0.4,1.41,2.49
4.020673751831055,2.31,-0.01,1.06,2.54
4.030459880828857,1.89,-0.5,0.75,2.09
4.040471792221069,1.04,-0.42,1.31,1.72
4.076282978057861,0.16,0.04,2.21,2.21
4.077880859375,-0.57,0.36,1.57,1.7
4.078858852386475,-0.67,0.42,-0.16,0.8
4.08110785484314,-0.08,0.43,-1.23,1.3
4.089441776275635,0.5,0.3,-1.5,1.6
4.099910736083984,0.56,-0.03,-1.46,1.56
4.109863758087158,0.35,-0.12,-1.38,1.42
4.119768857955933,0.16,-0.04,-1.16,1.17
4.129772663116455,0.07,-0.04,-0.8,0.8
4.139608860015869,-0.01,-0.02,-0.41,0.41
4.149450778961182,-0.19,0.09,0.01,0.21
4.180712699890137,-0.42,0.19,0.31,0.55
4.181920766830444,-0.57,0.3,0.43,0.77
4.182919979095459,-0.5,0.29,0.33,0.66
4.200351715087891,-0.14,0.13,0.28,0.33
4.201772689819336,0.26,-0.06,0.11,0.28
4.217821836471558,0.64,-0.2,0.0,0.67
4.2192816734313965,0.89,-0.27,0.04,0.93
4.232301712036133,0.87,-0.26,0.0,0.9
4.238752841949463,0.71,-0.12,-0.09,0.72
4.249102830886841,0.46,-0.03,-0.09,0.46
4.283476829528809,0.26,0.1,0.07,0.28
4.284793853759766,0.08,0.16,0.25,0.3
4.28578782081604,-0.08,0.14,0.26,0.3
4.300810813903809,-0.09,0.11,0.1,0.17
4.302246809005737,0.01,0.07,-0.19,0.2
4.316649913787842,-0.02,0.07,-0.47,0.47
4.318100929260254,-0.04,0.1,-0.56,0.57
4.332219839096069,0.12,0.2,-0.35,0.42
4.337917804718018,0.33,0.16,-0.19,0.41
4.348505973815918,0.42,0.04,-0.05,0.42
4.377556800842285,0.38,-0.05,0.12,0.4
4.378865718841553,0.24,0.07,0.38,0.45
4.379860877990723,0.08,0.21,0.45,0.5
4.400774955749512,0.06,0.24,0.32,0.4
4.402234792709351,0.02,0.23,0.09,0.24
4.416813850402832,-0.07,0.15,-0.19,0.25
4.41837477684021,-0.25,0.08,-0.33,0.42
4.431769847869873,-0.48,0.04,-0.4,0.62
4.4371747970581055,-0.84,0.01,-0.57,1.01
4.448823928833008,-1.11,0.22,-0.66,1.31
4.47839879989624,-1.18,0.52,-0.68,1.45
4.479732990264893,-1.21,0.81,-0.63,1.58
4.480755805969238,-1.28,0.95,-0.46,1.65
4.500799655914307,-1.47,1.0,-0.49,1.84
4.502236843109131,-1.74,1.0,-0.87,2.18
4.51715087890625,-1.93,1.15,-0.9,2.42
4.518599987030029,-2.1,1.26,-0.91,2.61
4.532265663146973,-2.23,1.33,-1.36,2.93
4.536487817764282,-2.81,1.95,-2.03,3.97
4.548719882965088,-2.54,2.96,-1.63,4.22
4.583476781845093,-1.67,3.2,-1.38,3.86
4.5847578048706055,-1.69,3.48,-1.53,4.16
4.585775852203369,-2.16,3.63,-1.66,4.53
4.601071834564209,-2.66,3.47,-2.05,4.82
4.602544784545898,-3.07,3.36,-2.33,5.11
4.617124795913696,-3.52,3.29,-2.53,5.44
4.618603706359863,-4.26,3.41,-2.75,6.11
4.632414817810059,-4.86,3.88,-2.91,6.86
4.635721683502197,-5.25,4.09,-3.16,7.36
4.6487298011779785,-5.75,4.28,-3.4,7.93
4.684375762939453,-6.01,4.25,-3.51,8.15
4.685771942138672,-5.97,3.79,-3.54,7.9
4.686791896820068,-5.73,3.42,-3.65,7.6
4.7010698318481445,-4.99,2.74,-3.62,6.74
4.702570915222168,-3.53,2.1,-3.81,5.6
4.716990947723389,-2.75,3.2,-3.97,5.79
4.718432903289795,-2.79,4.95,-4.08,6.99
4.732419967651367,-2.94,6.73,-4.23,8.47
4.734932899475098,-1.06,9.02,-2.45,9.4
4.748812675476074,2.36,10.32,-0.96,10.62
4.784419775009155,1.4,7.01,-1.8,7.37
4.785800933837891,-1.35,4.57,-3.93,6.17
4.786818981170654,-3.54,3.53,-5.32,7.3
4.801315784454346,-5.04,1.22,-5.54,7.58
4.802824974060059,-5.83,-3.1,-4.92,8.23
4.817057847976685,-2.78,-4.38,-3.52,6.26
4.818519830703735,2.81,-1.75,-2.04,3.88
4.832444667816162,0.49,-2.52,-2.56,3.62
4.8341217041015625,-4.73,-3.17,-4.5,7.25
4.848793983459473,-8.87,-2.93,-5.14,10.66
4.883044719696045,-10.99,-3.03,-3.8,12.01
4.884440898895264,-11.6,-3.13,-1.33,12.08
4.885462760925293,-11.17,-3.31,1.01,11.69
4.901182651519775,-10.26,-4.0,1.92,11.17
4.902696847915649,-9.58,-4.13,1.39,10.52
4.917126655578613,-8.65,-3.19,0.45,9.23
4.918585777282715,-7.45,-2.37,-0.19,7.82
4.93263578414917,-6.34,-2.11,-0.24,6.68
4.934132814407349,-5.69,-1.98,0.07,6.02
4.94983983039856,-5.46,-1.87,0.19,5.77
4.953833818435669,-5.22,-1.74,0.03,5.5
4.996302843093872,-4.54,-1.47,-0.41,4.78
4.9975268840789795,-3.51,-1.03,-0.97,3.78
4.998530864715576,-2.39,-0.59,-1.57,2.91
5.018037796020508,-1.3,-0.24,-1.81,2.24
5.019476890563965,-0.16,0.1,-1.7,1.71
5.033661842346191,0.93,0.38,-1.6,1.88
5.035077810287476,1.82,0.9,-1.45,2.49
5.049940824508667,2.29,1.53,-1.11,2.96
5.05140495300293,2.26,2.1,-0.51,3.12
5.065539836883545,2.0,2.84,0.29,3.48
5.092321872711182,1.82,3.53,1.22,4.15
5.0936548709869385,1.78,3.97,1.77,4.69
5.094705820083618,2.02,4.25,1.41,4.91
5.097225666046143,3.08,4.75,0.76,5.71
5.101832866668701,4.86,5.33,0.05,7.21
5.11240291595459,7.33,5.99,-0.5,9.47
5.12242579460144,10.51,6.11,-0.97,12.19
5.132260799407959,13.33,5.47,-1.24,14.46
5.142074823379517,14.62,4.54,-1.0,15.34
5.15198278427124,14.18,3.69,-0.07,14.65
5.181347846984863,11.37,5.6,1.15,12.72
5.182514667510986,9.25,7.87,1.97,12.3
5.1835198402404785,11.06,3.97,3.29,12.2
5.202443838119507,11.58,2.83,5.55,13.14
5.203956842422485,10.28,2.32,6.07,12.16
5.217872858047485,8.08,2.83,6.05,10.48
5.221599817276001,5.96,5.16,6.69,10.33
5.23261284828186,5.25,7.75,7.79,12.17
5.241412878036499,3.85,5.09,6.02,8.77
5.251068830490112,-1.3,0.09,1.18,1.75
5.284005880355835,-4.84,0.31,-1.89,5.2
5.285560846328735,0.01,1.49,-1.02,1.8
5.28653883934021,5.29,0.81,-0.09,5.35
5.301476001739502,6.57,0.63,-0.19,6.6
5.302990913391113,5.61,2.45,-0.21,6.12
5.317790985107422,4.02,3.07,0.75,5.11
5.320579767227173,4.03,2.2,0.78,4.65
5.332682847976685,5.11,-0.35,-0.37,5.13
5.340669870376587,4.61,-0.67,-0.32,4.66
5.350340843200684,3.69,0.74,1.72,4.13
5.389500856399536,2.84,-0.43,1.95,3.47
5.390811920166016,2.49,-1.49,2.15,3.61
5.39182186126709,2.11,-0.77,2.23,3.16
5.398059844970703,1.38,0.22,1.63,2.14
5.399688720703125,0.61,0.42,1.4,1.58
5.417735815048218,0.18,-0.16,1.62,1.63
5.4198317527771,0.17,-0.4,2.12,2.16
5.432658672332764,0.22,-0.24,1.84,1.86
5.439900875091553,0.36,-0.05,1.05,1.11
5.449563980102539,0.58,-0.01,0.12,0.59
5.486342906951904,0.8,0.18,-0.76,1.11
5.487675666809082,0.91,0.3,-1.34,1.64
5.488695859909058,1.0,0.16,-1.74,2.01
5.489731788635254,0.82,-0.02,-1.85,2.02
5.499262809753418,0.64,-0.03,-1.24,1.39
5.509212970733643,0.51,0.04,-0.35,0.61
5.519383907318115,0.36,0.11,0.22,0.43
5.52923583984375,0.16,0.16,0.55,0.59
5.539106845855713,0.09,0.11,0.7,0.71
5.548986911773682,0.14,0.08,0.6,0.62
5.584245681762695,0.16,0.06,0.51,0.53
5.585399866104126,0.25,0.09,0.34,0.43
5.586413860321045,0.35,-0.01,0.23,0.41
5.6009039878845215,0.55,-0.13,0.23,0.61
5.601866722106934,0.6,-0.15,0.22,0.65
5.617475986480713,0.38,-0.1,0.09,0.4
5.61893367767334,0.15,-0.02,-0.29,0.32
5.632929801940918,-0.08,0.08,-0.45,0.46
5.638344764709473,-0.18,0.13,-0.44,0.49
5.649141788482666,-0.08,0.08,-0.44,0.45
5.6845948696136475,0.0,-0.08,-0.23,0.24
5.685896873474121,0.03,-0.14,0.04,0.14
5.68694281578064,0.03,0.0,0.32,0.32
5.701009750366211,0.02,0.03,0.4,0.4
5.70230770111084,0.13,-0.04,0.16,0.21
5.717475891113281,0.32,-0.09,0.03,0.33
5.718947887420654,0.54,-0.15,0.04,0.56
5.732740879058838,0.57,-0.08,0.12,0.58
5.737513780593872,0.52,0.05,0.19,0.55
5.749136924743652,0.46,0.23,0.2,0.55
5.757404804229736,0.4,0.36,0.2,0.57
5.7942986488342285,0.3,0.45,0.06,0.54
5.795435905456543,0.13,0.48,-0.22,0.54
5.796296834945679,-0.14,0.52,-0.51,0.74
5.818540811538696,-0.52,0.56,-0.69,1.02
5.820023775100708,-0.98,0.53,-0.76,1.34
5.833119869232178,-1.4,0.57,-0.81,1.71
5.834579944610596,-1.75,0.69,-0.88,2.07
5.84952974319458,-2.07,0.68,-1.01,2.4
5.850992679595947,-2.24,0.69,-1.14,2.6
5.865796804428101,-2.33,0.72,-1.29,2.75
5.895406723022461,-2.58,0.8,-1.52,3.09
5.89680290222168,-2.84,0.91,-1.98,3.57
5.897843837738037,-2.87,1.28,-2.17,3.81
5.917891979217529,-2.58,1.79,-2.15,3.8
5.918949842453003,-2.73,2.7,-2.18,4.41
5.934046745300293,-2.96,4.08,-1.62,5.29
5.935530662536621,-2.46,4.15,-1.36,5.01
5.949665784835815,-2.32,3.65,-1.55,4.59
5.951147794723511,-2.68,3.45,-1.84,4.74
5.966035842895508,-3.13,3.62,-2.19,5.26
5.994104862213135,-3.65,3.97,-2.69,6.02
5.995395660400391,-4.09,4.33,-3.05,6.69
5.996370792388916,-4.61,4.47,-3.18,7.16
5.99865198135376,-5.09,4.53,-3.33,7.58
6.005274772644043,-5.64,4.81,-3.75,8.3
6.015376806259155,-5.95,4.73,-3.76,8.48
6.025211811065674,-5.67,4.0,-3.72,7.87
6.035400867462158,-4.93,3.14,-4.07,7.12
6.045240879058838,-4.07,2.53,-4.3,6.43
6.055234909057617,-2.7,2.35,-4.34,5.62
6.084795951843262,-2.29,3.55,-4.1,5.88
6.086164951324463,-2.75,5.9,-3.99,7.63
6.087186813354492,-2.31,8.76,-3.05,9.55
6.101148843765259,1.12,11.7,-1.21,11.81
6.104381799697876,1.18,9.04,-1.87,9.3
6.117353916168213,-1.41,4.88,-3.43,6.12
6.124793767929077,-3.88,3.19,-4.81,6.95
6.134370803833008,-5.6,0.9,-5.62,7.98
6.144317865371704,-6.83,-3.48,-6.21,9.86
6.15438985824585,-4.51,-5.22,-4.8,8.4
6.191357851028442,1.25,-1.83,-2.06,3.02
6.1927008628845215,-0.44,-1.84,-1.54,2.43
6.193785667419434,-4.8,-2.71,-3.12,6.33
6.197369813919067,-8.25,-2.46,-3.92,9.45
6.21757698059082,-9.56,-2.39,-3.34,10.4
6.21898078918457,-8.97,-2.64,-2.23,9.61
6.233072757720947,-7.82,-3.25,-1.22,8.55
6.234562873840332,-7.09,-4.21,-0.71,8.27
6.249380826950073,-6.97,-4.78,-0.55,8.46
6.253575801849365,-6.93,-4.66,-0.54,8.36
6.293564796447754,-6.71,-4.34,-0.54,8.0
6.294662952423096,-6.38,-4.16,-0.27,7.62
6.295952796936035,-6.08,-3.98,0.29,7.27
6.2973878383636475,-6.02,-3.67,0.82,7.09
6.302859783172607,-6.32,-3.21,1.22,7.19
6.313042879104614,-6.55,-2.49,1.15,7.1
6.323059797286987,-6.54,-1.61,0.56,6.75
6.333101749420166,-5.98,-0.72,0.07,6.02
6.343092918395996,-4.67,0.02,-0.13,4.67
6.353017807006836,-3.06,0.46,-0.34,3.11
6.389869689941406,-1.71,0.73,-0.25,1.87
6.3912858963012695,-1.04,1.04,0.23,1.48
6.392411708831787,-0.59,1.63,0.62,1.84
6.402091979980469,0.32,2.76,0.78,2.88
6.4031267166137695,1.73,3.99,0.65,4.39
6.417472839355469,3.06,4.72,0.43,5.64
6.422063827514648,3.8,5.12,0.52,6.39
6.432170867919922,4.41,5.73,0.72,7.26
6.442193984985352,5.23,6.19,0.79,8.14
6.452060699462891,6.18,6.43,0.48,8.93
6.4899678230285645,7.51,6.76,0.41,10.11
6.491708755493164,9.3,6.87,0.45,11.57
6.4927849769592285,11.21,6.4,0.64,12.92
6.501471996307373,12.33,5.42,1.0,13.5
6.502528667449951,11.67,5.02,1.07,12.74
6.517700672149658,10.1,6.54,1.0,12.07
6.521421909332275,11.14,5.16,1.29,12.34
6.531458854675293,12.06,4.47,2.6,13.12
6.541499853134155,12.29,4.87,3.85,13.76
6.55130672454834,12.28,4.51,3.94,13.66
6.561347961425781,12.06,3.85,3.61,13.16
6.594674825668335,11.08,3.97,3.93,12.4
6.595824718475342,8.76,3.79,4.66,10.62
6.596832752227783,3.23,1.24,3.85,5.17
6.61869478225708,-5.36,-0.62,1.06,5.49
6.6202027797698975,-9.13,1.33,-0.57,9.24
6.634556770324707,-1.66,2.58,1.03,3.23
6.635957717895508,5.62,0.96,1.12,5.81
6.650166988372803,7.18,1.64,0.62,7.39
6.651644706726074,5.95,5.42,1.1,8.12
6.666139841079712,4.35,6.41,1.82,7.95
6.696951866149902,6.04,4.25,1.23,7.48
6.698302745819092,5.9,1.13,0.75,6.05
6.69936990737915,3.05,0.61,2.74,4.14
6.718167781829834,1.47,-1.08,3.66,4.08
6.719225883483887,1.58,-1.85,2.51,3.49
6.734380722045898,2.02,-1.3,1.75,2.97
6.735870838165283,1.87,-0.54,1.31,2.34
6.75010871887207,1.61,-0.01,0.88,1.83
6.751572847366333,1.36,0.08,0.44,1.43
6.766136884689331,1.02,-0.09,0.05,1.02
6.795763969421387,0.52,-0.25,-0.23,0.62
6.797104835510254,0.09,-0.11,-0.25,0.28
6.798116683959961,-0.29,-0.01,-0.32,0.43
6.818224906921387,-0.58,0.0,-0.37,0.68
6.819228649139404,-0.57,0.05,-0.21,0.6
6.834488868713379,-0.38,0.13,-0.16,0.43
6.835984706878662,-0.13,0.21,-0.26,0.35
6.850108861923218,0.24,0.12,-0.41,0.49
6.85156774520874,0.54,0.05,-0.45,0.7
6.866085767745972,0.73,0.2,-0.25,0.79
6.895359992980957,0.79,0.09,-0.17,0.81
6.896684885025024,1.01,0.09,0.17,1.02
6.897570848464966,1.08,0.09,0.61,1.24
6.918669700622559,0.55,-0.04,0.5,0.74
6.919701814651489,0.1,-0.13,0.15,0.22
6.934172868728638,0.29,0.02,0.11,0.31
6.9352006912231445,0.63,-0.1,0.06,0.64
6.950190782546997,0.79,-0.18,0.02,0.81
6.951653957366943,0.72,-0.08,-0.02,0.72
6.966200828552246,0.41,-0.03,-0.07,0.41
6.996523857116699,0.0,0.09,-0.25,0.26
6.998406887054443,-0.23,0.14,-0.29,0.39
6.999423980712891,-0.28,0.12,-0.07,0.31
7.018302917480469,-0.29,0.11,-0.07,0.31
7.019160747528076,-0.22,0.12,-0.29,0.38
7.03467583656311,-0.13,0.17,-0.35,0.41
7.0361328125,-0.2,0.19,-0.47,0.54
7.050006866455078,-0.24,0.18,-0.33,0.44
7.051421880722046,-0.3,0.19,-0.09,0.36
7.066222667694092,-0.44,0.19,0.03,0.48
7.095771789550781,-0.38,0.2,0.1,0.44
7.097049713134766,-0.18,0.27,0.23,0.39
7.098052978515625,-0.1,0.28,0.28,0.4
7.118085861206055,-0.13,0.25,0.08,0.29
7.1190807819366455,-0.14,0.25,-0.22,0.36
7.134635925292969,-0.13,0.22,-0.47,0.53
7.136114835739136,-0.19,0.21,-0.6,0.66
7.150278806686401,-0.32,0.26,-0.63,0.75
7.151727676391602,-0.43,0.31,-0.76,0.92
7.167489767074585,-0.75,0.32,-0.92,1.22
7.196035861968994,-1.04,0.5,-1.03,1.54
7.197386741638184,-1.14,0.61,-0.74,1.48
7.198394775390625,-1.61,0.67,-0.8,1.91
7.218218803405762,-2.12,0.95,-1.05,2.54
7.219275951385498,-2.19,1.2,-0.76,2.61
7.234443664550781,-2.29,1.28,-0.81,2.74
7.23547887802124,-2.68,1.58,-0.88,3.23
7.250428676605225,-2.96,1.92,-1.05,3.68
7.251896858215332,-3.14,2.19,-1.71,4.19
7.266446828842163,-3.6,2.95,-2.07,5.09
7.29436182975769,-2.81,4.08,-1.37,5.13
7.295731782913208,-2.45,3.99,-1.2,4.83
7.296703815460205,-2.8,4.01,-1.21,5.03
7.298979759216309,-3.44,3.9,-1.49,5.4
7.305517673492432,-3.97,3.82,-2.12,5.9
7.315621852874756,-4.63,3.89,-2.8,6.66
7.3255109786987305,-5.36,4.32,-3.38,7.66
7.335330963134766,-5.92,4.71,-3.87,8.49
7.345043659210205,-6.32,4.96,-4.32,9.12
7.35565185546875,-6.59,4.92,-4.65,9.44
7.365509986877441,-6.4,4.24,-4.72,9.01
7.397502899169922,-5.87,3.77,-4.7,8.41
7.398672819137573,-4.63,2.78,-4.89,7.28
7.3996617794036865,-3.56,2.43,-4.97,6.57
7.418691873550415,-4.08,4.27,-4.93,7.69
7.419727802276611,-4.19,6.39,-5.33,9.31
7.434319972991943,-3.42,8.43,-4.75,10.26
7.435379981994629,0.24,11.09,-0.77,11.11
7.450617790222168,2.63,9.66,1.57,10.13
7.4546217918396,1.21,5.31,-0.23,5.45
7.466327667236328,-2.14,3.79,-4.13,6.0
7.49655294418335,-4.89,1.92,-6.5,8.35
7.498083829879761,-6.31,-2.44,-6.78,9.57
7.499093770980835,-5.95,-5.95,-4.7,9.63
7.5186567306518555,-0.58,-3.19,-1.42,3.53
7.519649982452393,-1.11,-2.44,-1.14,2.91
7.534441947937012,-5.49,-2.76,-2.51,6.63
7.535811901092529,-8.56,-2.52,-3.39,9.54
7.550647735595703,-9.5,-2.42,-2.89,10.22
7.553876876831055,-8.92,-2.52,-1.88,9.45
7.566613674163818,-7.73,-3.4,-0.92,8.49
7.595294952392578,-6.77,-4.81,-0.53,8.32
7.596614837646484,-6.66,-5.46,-0.59,8.63
7.597585678100586,-6.89,-5.09,-0.79,8.6
7.618766784667969,-6.78,-4.24,-0.98,8.05
7.619856834411621,-6.29,-3.44,-0.7,7.2
7.6345977783203125,-5.63,-3.09,-0.07,6.42
7.6356329917907715,-5.48,-3.11,0.57,6.32
7.650597810745239,-5.75,-2.92,0.74,6.49
7.653104782104492,-5.86,-2.41,0.4,6.34
7.66685676574707,-5.16,-1.52,-0.14,5.38
7.693066835403442,-3.84,-0.77,-0.74,3.98
7.694552898406982,-2.26,-0.38,-1.16,2.56
7.695602893829346,-0.87,0.05,-1.18,1.46
7.702563762664795,-0.03,0.53,-0.93,1.07
7.71829891204834,0.38,0.91,-0.34,1.04
7.722402811050415,1.11,1.74,0.36,2.09
7.733344793319702,2.07,2.79,0.75,3.55
7.742555856704712,2.61,3.67,1.26,4.67
7.752285957336426,2.83,4.35,1.98,5.55
7.762422800064087,3.28,5.24,2.43,6.64
7.79879093170166,4.25,6.18,1.47,7.64
7.799975872039795,6.07,7.29,0.82,9.52
7.801050662994385,8.63,8.08,0.67,11.84
7.818985939025879,11.21,7.81,0.17,13.66
7.8200297355651855,13.27,7.14,-0.17,15.06
7.834913730621338,12.85,8.2,-0.02,15.24
7.836342811584473,11.87,8.82,0.38,14.79
7.850684881210327,15.13,3.6,1.14,15.59
7.852169990539551,15.21,2.98,3.24,15.83
7.866625785827637,13.21,3.14,3.83,14.1
7.900108814239502,11.67,3.54,3.81,12.77
7.901525974273682,10.85,3.71,4.06,12.16
7.902599811553955,9.81,4.1,4.45,11.52
7.918956756591797,8.56,4.83,5.18,11.11
7.9200286865234375,6.86,5.01,5.51,10.12
7.934953689575195,2.64,1.92,3.33,4.66
7.936409950256348,-4.36,-0.46,-0.15,4.38
7.950755834579468,-7.83,-0.44,-1.14,7.92
7.952237844467163,-3.22,-0.51,0.53,3.3
7.966609954833984,3.35,-2.04,0.9,4.02
7.999660968780518,6.67,-1.69,0.32,6.88
8.001059770584106,6.81,2.02,-0.83,7.15
8.002081871032715,5.64,6.69,-0.35,8.75
8.01912784576416,7.35,6.3,-0.18,9.68
8.020153999328613,6.91,1.48,-1.38,7.2
8.034980773925781,3.58,2.1,0.6,4.19
8.036430835723877,1.22,0.68,2.84,3.16
8.050687789916992,0.62,-1.79,2.73,3.32
8.052169799804688,1.76,-2.05,2.27,3.52
8.066802978515625,2.23,-1.21,1.98,3.21
8.096980810165405,1.6,-0.44,1.51,2.24
8.098299980163574,0.51,-0.05,1.26,1.36
8.099302768707275,-0.01,-0.32,1.22,1.26
8.118818759918213,0.36,-0.28,1.7,1.76
8.119846820831299,0.21,-0.06,1.41,1.42
8.13508677482605,-0.12,0.04,0.42,0.43
8.13652777671814,-0.08,0.17,-0.37,0.41
8.151642799377441,0.09,0.29,-0.79,0.84
8.153082847595215,0.38,0.25,-0.65,0.79
8.167715787887573,0.65,0.11,-0.26,0.7
8.169172763824463,0.75,0.05,-0.5,0.9
8.213040828704834,1.03,0.03,-1.01,1.44
8.214202880859375,1.39,0.01,-0.93,1.67
8.215162754058838,1.34,-0.02,-0.45,1.41
8.235748767852783,0.61,0.0,0.21,0.64
8.236730813980103,-0.41,0.21,0.84,0.95
8.252190828323364,-1.06,0.28,0.69,1.29
8.253639698028564,-0.79,0.25,0.34,0.89
8.267544746398926,0.04,0.07,0.14,0.16
8.268990993499756,0.74,-0.08,-0.2,0.77
8.283718824386597,1.12,-0.08,-0.5,1.22
8.314103841781616,1.19,-0.09,-0.58,1.32
8.315486907958984,1.03,-0.18,-0.37,1.1
8.31649398803711,0.73,-0.19,-0.01,0.75
8.335294723510742,0.25,-0.09,0.34,0.43
8.336326837539673,-0.2,-0.01,0.43,0.47
8.35204792022705,-0.43,0.04,0.36,0.56
8.353490829467773,-0.39,0.18,0.19,0.46
8.367580890655518,-0.11,0.23,-0.12,0.28
8.369004726409912,0.16,0.09,-0.19,0.26
8.383867740631104,0.25,0.03,-0.1,0.27
8.413266658782959,0.18,0.07,-0.16,0.25
8.414617776870728,0.07,0.08,-0.21,0.23
8.41560173034668,0.0,0.13,-0.16,0.2
8.435547828674316,-0.02,0.11,-0.09,0.14
8.43659496307373,-0.1,0.12,-0.19,0.24
8.452078819274902,-0.21,0.09,-0.25,0.33
8.45350694656372,-0.4,0.04,-0.33,0.52
8.467438697814941,-0.63,0.13,-0.4,0.75
8.468896865844727,-0.75,0.3,-0.43,0.91
8.48379373550415,-0.79,0.44,-0.46,1.01
8.512489795684814,-0.84,0.52,-0.56,1.13
8.513932704925537,-0.91,0.59,-0.7,1.29
8.514884948730469,-1.1,0.59,-0.82,1.49
8.535496711730957,-1.4,0.7,-0.81,1.76
8.536506652832031,-1.48,0.83,-0.94,1.93
8.552114963531494,-1.55,1.06,-1.11,2.18
8.553553819656372,-1.64,1.16,-1.21,2.34
8.567355871200562,-1.71,1.29,-1.41,2.56
8.56880784034729,-1.79,1.39,-1.67,2.81
8.58388876914978,-1.84,1.64,-1.84,3.07
8.61311674118042,-2.22,2.63,-1.9,3.93
8.61450982093811,-2.36,4.1,-0.98,4.83
8.615561962127686,-2.03,3.97,-0.4,4.47
8.635486841201782,-2.49,3.69,-0.96,4.55
8.636539936065674,-3.01,3.57,-1.25,4.83
8.652048826217651,-3.33,3.5,-1.59,5.08
8.653288841247559,-3.79,3.55,-2.47,5.75
8.667495727539062,-4.29,3.68,-3.09,6.44
8.668977737426758,-4.96,4.2,-3.64,7.44
8.683843851089478,-5.4,4.61,-4.04,8.16
8.71352481842041,-5.81,4.79,-4.37,8.7
8.71495771408081,-6.24,4.65,-4.27,8.87
8.715962886810303,-6.18,4.22,-4.31,8.63
8.735671997070312,-5.55,3.63,-4.61,8.07
8.736719846725464,-4.67,2.95,-4.53,7.14
8.752364873886108,-3.39,3.26,-4.35,6.4
8.75386095046997,-2.43,4.2,-4.29,6.47
8.767387866973877,-2.27,5.79,-4.25,7.53
8.768803834915161,-1.21,8.02,-3.24,8.73
8.784414768218994,2.77,10.23,-1.8,10.75
8.812695980072021,2.45,7.47,-3.81,8.73
8.81402587890625,-0.54,4.58,-5.39,7.09
8.815025806427002,-2.83,3.08,-5.93,7.25
8.835590839385986,-4.2,-0.12,-5.6,7.0
8.836646795272827,-3.78,-3.71,-5.28,7.47
8.8524169921875,1.95,-3.56,-4.13,5.79
8.853468894958496,2.97,-3.31,-3.44,5.62
8.86772084236145,-2.09,-3.67,-4.36,6.07
8.869194984436035,-6.97,-2.84,-5.51,9.32
8.884166717529297,-9.49,-2.59,-4.94,11.0
8.912420749664307,-9.98,-2.76,-2.69,10.69
8.913798809051514,-9.4,-2.97,-0.55,9.87
8.914803981781006,-8.52,-3.79,0.49,9.33
8.935703754425049,-8.05,-4.51,0.74,9.25
8.9367036819458,-8.08,-4.36,0.74,9.21
8.952236652374268,-8.12,-3.79,0.69,8.98
8.95326280593872,-7.84,-3.4,0.79,8.58
8.967857837677002,-7.49,-3.55,1.08,8.35
8.96925973892212,-7.3,-3.47,1.33,8.19
8.984383821487427,-7.23,-3.21,1.41,8.03
8.98584270477295,-6.97,-3.02,1.26,7.69
9.03096866607666,-6.67,-2.74,0.87,7.26
9.032179832458496,-6.15,-2.1,0.18,6.5
9.03316879272461,-5.36,-1.28,-0.59,5.54
9.052770853042603,-4.4,-0.73,-1.25,4.63
9.05379867553711,-3.05,-0.31,-1.59,3.45
9.068717956542969,-1.74,-0.09,-1.58,2.35
9.070162773132324,-0.6,0.21,-1.36,1.5
9.084462881088257,0.75,0.92,-0.84,1.45
9.085931777954102,2.21,1.79,-0.34,2.86
9.100327968597412,3.09,2.46,-0.07,3.95
9.132055759429932,2.86,2.89,0.15,4.06
9.13351583480835,2.21,3.86,0.52,4.47
9.134504795074463,2.11,4.99,0.95,5.5
9.153442859649658,2.69,5.71,1.1,6.4
9.154477834701538,3.61,6.06,0.47,7.06
9.168978691101074,4.53,6.58,-0.27,7.99
9.170461654663086,6.09,7.28,-0.51,9.5
9.184638977050781,8.35,7.05,-0.39,10.93
9.186127662658691,10.42,5.79,0.04,11.92
9.200654983520508,11.57,5.12,0.6,12.66
9.229405879974365,11.32,6.63,0.82,13.14
9.230694770812988,13.16,4.46,1.16,13.94
9.231695652008057,13.33,4.21,2.18,14.14
9.25263786315918,11.94,4.77,3.24,13.25
9.253683805465698,11.15,4.8,3.83,12.72
9.268809795379639,11.03,4.39,4.43,12.67
9.269852876663208,10.78,3.63,4.82,12.35
9.284840822219849,9.81,3.25,5.13,11.53
9.286298751831055,7.87,3.63,5.95,10.51
9.300782680511475,4.89,3.01,6.15,8.41
9.330030918121338,-1.36,0.51,3.74,4.01
9.331365823745728,-8.7,-0.04,0.24,8.7
9.332380771636963,-8.55,1.48,-0.36,8.68
9.35263180732727,-0.33,1.54,0.33,1.6
9.353688716888428,5.17,0.68,-0.18,5.21
9.36880874633789,6.52,2.54,-0.19,6.99
9.36987590789795,6.36,6.04,0.83,8.81
9.384639739990234,6.72,4.74,0.92,8.27
9.38606595993042,5.0,1.36,-0.09,5.18
9.400709867477417,2.58,-0.31,1.44,2.97
9.429609775543213,1.57,-2.41,2.49,3.8
9.430973768234253,1.81,-2.85,1.59,3.73
9.431949853897095,2.41,-1.23,0.54,2.75
9.453155994415283,2.35,0.31,0.04,2.37
9.454221725463867,2.19,0.58,0.17,2.27
9.469164848327637,1.74,-0.08,0.66,1.86
9.470614910125732,1.21,-0.33,1.82,2.21
9.485113859176636,0.33,-0.21,2.4,2.43
9.486583709716797,-0.53,0.04,1.57,1.65
9.500709772109985,-1.0,0.17,0.86,1.32
9.529757976531982,-1.18,0.21,0.13,1.2
9.53118085861206,-1.05,0.24,-0.44,1.16
9.532172679901123,-0.6,0.17,-0.67,0.91
9.552905797958374,-0.03,0.04,-0.91,0.91
9.553857803344727,0.75,-0.09,-0.96,1.22
9.568825721740723,1.26,-0.15,-0.97,1.59
9.57018780708313,1.32,-0.07,-0.6,1.45
9.584939002990723,1.05,0.0,-0.04,1.05
9.586368799209595,0.66,0.01,0.49,0.82
9.600839853286743,0.32,0.05,0.59,0.67
9.629212856292725,0.04,0.17,0.57,0.59
9.630691766738892,-0.05,0.22,0.57,0.61
9.631651878356934,0.18,0.08,0.38,0.42
9.633886814117432,0.64,0.01,0.11,0.64
9.635284900665283,1.09,-0.04,0.02,1.09
9.636696815490723,1.36,-0.22,-0.07,1.37
9.638169765472412,1.32,-0.3,0.01,1.35
9.648047924041748,0.87,-0.11,0.24,0.9
9.657933712005615,0.32,0.17,0.15,0.39
9.667810916900635,-0.09,0.22,-0.2,0.31
9.701030731201172,-0.17,0.09,-0.25,0.31
9.702081680297852,0.03,-0.04,-0.13,0.13
9.7028648853302,0.22,-0.14,-0.12,0.28
9.719594955444336,0.25,-0.13,-0.2,0.34
9.720655918121338,0.29,0.11,-0.04,0.31
9.735369682312012,0.23,0.21,0.1,0.32
9.737171649932861,0.02,0.18,0.08,0.19
9.751068830490112,-0.2,0.15,0.11,0.27
9.756975650787354,-0.44,0.15,0.21,0.51
9.767775774002075,-0.53,0.2,0.32,0.65
9.777239799499512,-0.5,0.32,0.34,0.68
9.809049844741821,-0.56,0.43,0.08,0.71
9.810229778289795,-0.49,0.57,-0.08,0.75
9.811542987823486,-0.4,0.54,-0.3,0.73
9.81661081314087,-0.59,0.55,-0.69,1.06
9.826579809188843,-0.81,0.55,-0.86,1.3
9.836410999298096,-0.96,0.48,-0.94,1.42
9.84635066986084,-1.47,0.31,-1.34,2.01
9.85618281364441,-1.87,0.42,-1.26,2.29
9.866858959197998,-1.93,0.58,-1.0,2.24
9.87652587890625,-2.02,0.82,-1.14,2.46
9.909036874771118,-2.04,1.09,-1.11,2.56
9.910372734069824,-1.86,1.27,-1.02,2.47
9.911428928375244,-1.91,1.56,-0.76,2.58
9.916861772537231,-1.83,1.99,-0.59,2.76
9.935890674591064,-1.93,2.1,-0.36,2.87
9.936905860900879,-2.1,2.57,0.03,3.31
9.951753854751587,-1.94,2.75,-0.13,3.36
9.955496788024902,-1.91,2.97,-0.55,3.57
9.96762466430664,-2.19,3.43,-1.32,4.27
9.975726842880249,-2.36,3.71,-1.91,4.79
10.012359857559204,-2.42,3.37,-2.08,4.64
10.013513803482056,-2.83,3.07,-2.09,4.66
10.014412879943848,-3.5,3.13,-2.09,5.13
10.016531944274902,-4.25,3.53,-2.08,5.9
10.025205850601196,-5.02,3.97,-2.21,6.77
10.035040855407715,-5.47,4.19,-2.64,7.37
10.045074939727783,-5.66,4.0,-3.03,7.56
10.054832935333252,-5.76,3.8,-3.5,7.73
10.06516981124878,-5.8,3.72,-4.17,8.05
10.074971675872803,-5.27,3.35,-4.85,7.9
10.106666803359985,-4.07,2.8,-4.94,6.98
10.108373880386353,-2.64,2.78,-5.0,6.3
10.109392881393433,-2.38,4.59,-5.4,7.47
10.120151996612549,-1.89,6.81,-5.07,8.69
10.12434196472168,0.36,8.41,-3.55,9.13
10.13572382926941,4.01,10.25,-1.62,11.12
10.144270896911621,2.84,7.44,-2.96,8.49
10.154502868652344,-0.57,4.91,-5.48,7.37
10.164409875869751,-3.26,3.12,-7.03,8.35
10.174269676208496,-5.21,-0.73,-6.75,8.55
10.212450981140137,-5.65,-4.8,-5.8,9.41
10.21376371383667,-0.49,-2.77,-4.37,5.19
10.214748859405518,2.65,-1.0,-2.29,3.64
10.216951847076416,-2.1,-2.06,-3.01,4.2
10.223537921905518,-7.11,-1.45,-4.84,8.72
10.233478784561157,-9.56,-1.27,-4.67,10.71
10.24343490600586,-9.71,-2.06,-3.03,10.37
10.253387928009033,-8.93,-2.86,-1.37,9.47
10.263400793075562,-8.13,-3.59,-0.38,8.89
10.27370285987854,-7.67,-4.23,0.27,8.76
10.310144901275635,-7.58,-4.3,0.79,8.75
10.311534881591797,-7.5,-3.96,0.99,8.53
10.312538862228394,-7.42,-3.6,1.07,8.31
10.315791845321655,-7.27,-3.42,1.01,8.09
10.323094844818115,-7.11,-3.23,0.85,7.85
10.335639953613281,-7.05,-2.85,0.67,7.63
10.342843770980835,-6.86,-2.4,0.31,7.27
10.352497816085815,-6.4,-2.04,0.02,6.71
10.362501859664917,-5.33,-1.59,-0.09,5.56
10.3728346824646,-3.96,-1.15,-0.42,4.14
10.408984661102295,-2.76,-0.7,-0.96,3.0
10.410273790359497,-1.85,-0.44,-1.25,2.27
10.411354780197144,-0.83,-0.12,-1.21,1.47
10.418112754821777,0.59,0.26,-1.1,1.27
10.422006845474243,1.94,0.99,-1.46,2.62
10.435638904571533,2.83,2.03,-1.71,3.87
10.441702842712402,3.51,2.82,-1.18,4.65
10.452006816864014,3.9,2.95,-0.43,4.9
10.462251663208008,3.94,3.13,0.46,5.05
10.471882820129395,4.03,3.98,1.32,5.81
10.508785724639893,4.6,4.97,1.98,7.05
10.510157823562622,5.57,5.32,2.66,8.14
10.511198997497559,6.74,4.94,3.27,8.97
10.520301818847656,7.78,4.17,3.24,9.4
10.521344661712646,8.62,3.69,2.74,9.76
10.535733699798584,9.54,3.69,2.41,10.5
10.541308879852295,10.25,3.82,2.15,11.14
10.551392793655396,10.17,3.82,1.59,10.97
10.561444759368896,9.76,3.95,1.97,10.71
10.57127571105957,8.04,7.55,2.97,11.42
10.581292867660522,7.92,8.62,3.52,12.22
10.613154888153076,13.54,-1.32,3.81,14.12
10.614329814910889,12.2,6.2,5.85,14.88
10.615338802337646,10.68,6.31,3.55,12.9
10.636745929718018,11.34,5.48,4.68,13.43
10.637804985046387,9.88,3.61,4.28,11.35
10.65318489074707,3.75,0.53,1.0,3.91
10.654637813568115,-5.93,-0.03,-2.62,6.48
10.668574810028076,-9.81,3.08,-2.19,10.51
10.670269966125488,-2.59,4.44,1.61,5.38
10.68481183052063,4.41,0.55,1.92,4.84
10.715145826339722,6.31,-1.31,1.58,6.63
10.716431856155396,6.69,0.82,1.26,6.85
10.717400789260864,5.36,3.9,1.52,6.8
10.736357688903809,4.67,5.03,1.83,7.1
10.737405776977539,5.21,2.41,1.04,5.83
10.753085851669312,2.81,-0.78,0.26,2.92
10.75456976890564,0.59,-0.25,1.89,1.99
10.768460750579834,1.18,-0.47,2.59,2.88
10.76990270614624,2.45,-1.09,2.1,3.4
10.784894943237305,3.18,-0.34,1.88,3.7
10.814935684204102,2.96,0.27,1.4,3.28
10.816314697265625,2.41,0.09,0.96,2.59
10.81728982925415,1.57,-0.19,0.61,1.69
10.83667278289795,0.74,-0.13,0.64,0.98
10.837711811065674,0.14,0.15,1.0,1.02
10.853128910064697,-0.39,0.24,0.98,1.08
10.854576826095581,-0.58,0.4,0.25,0.74
10.868541717529297,-0.63,0.33,-0.75,1.03
10.870028972625732,-0.46,0.17,-1.39,1.47
10.884859800338745,-0.17,0.26,-1.24,1.27
10.915894985198975,0.19,0.17,-0.82,0.85
10.91725492477417,0.32,0.01,-0.55,0.63
10.918293952941895,0.34,-0.02,-0.85,0.91
10.936709880828857,0.6,0.15,-0.99,1.16
10.937774658203125,0.65,0.21,-0.42,0.8
10.953263759613037,0.15,0.18,0.34,0.41
10.954741954803467,-0.21,0.15,0.71,0.75
10.96892786026001,-0.26,0.25,0.94,1.0
10.970356941223145,-0.18,0.34,0.36,0.52
10.985821723937988,0.3,0.28,-0.38,0.55
11.014928817749023,0.6,0.09,-0.42,0.73
11.01633596420288,0.4,0.01,-0.41,0.57
11.017309665679932,0.44,-0.08,-0.19,0.48
11.036434650421143,0.47,-0.15,-0.05,0.49
11.03743577003479,0.19,-0.07,-0.2,0.28
11.053216934204102,0.24,0.15,0.22,0.35
11.054571866989136,0.19,0.17,0.25,0.35
11.068368911743164,-0.04,-0.07,0.11,0.13
11.069772720336914,-0.11,-0.23,0.2,0.32
11.085129737854004,-0.14,-0.31,0.0,0.34
11.114522933959961,-0.29,-0.4,-0.64,0.8
11.115855693817139,-0.39,-0.41,-1.18,1.3
11.116828918457031,-0.31,-0.4,-1.45,1.53
11.13681173324585,-0.21,-0.32,-1.22,1.27
11.13783597946167,-0.29,-0.23,-0.73,0.81
11.15316390991211,-0.6,-0.19,-0.62,0.88
11.154191970825195,-0.44,0.12,-0.45,0.64
11.168814659118652,0.69,0.86,0.84,1.38
11.170340776443481,0.54,0.91,1.6,1.91
11.185067653656006,-0.26,0.92,1.08,1.44
11.215739727020264,-0.72,0.78,0.98,1.44
11.216892719268799,-0.92,0.59,0.88,1.4
11.217930793762207,-1.04,0.4,0.26,1.14
11.23655366897583,-0.81,0.3,-0.29,0.91
11.237599849700928,-0.59,0.11,-1.14,1.28
11.253617763519287,-0.57,0.04,-1.7,1.79
11.255101680755615,-0.69,0.14,-1.67,1.81
11.268709659576416,-0.96,0.37,-1.47,1.79
11.270167827606201,-1.42,0.63,-1.22,1.97
11.285061836242676,-1.83,0.98,-0.46,2.12
11.318140983581543,-2.06,1.22,0.15,2.39
11.319489002227783,-2.4,1.55,0.14,2.86
11.320504665374756,-2.63,1.78,-0.69,3.24
11.337271690368652,-2.72,2.02,-1.32,3.63
11.338271856307983,-3.27,2.86,-1.88,4.73
11.35352087020874,-2.93,3.72,-1.78,5.05
11.355004787445068,-2.78,3.27,-2.4,4.91
11.368667840957642,-3.37,3.25,-2.72,5.41
11.370151996612549,-3.69,3.3,-2.66,5.61
11.385108947753906,-3.93,3.43,-2.78,5.91
11.386522769927979,-4.65,4.24,-3.1,7.01
11.433450698852539,-5.07,5.26,-3.13,7.94
11.434650897979736,-5.14,5.54,-2.99,8.12
11.4356369972229,-5.78,5.9,-3.19,8.85
11.453921794891357,-6.32,5.83,-3.39,9.24
11.454939842224121,-6.19,5.01,-3.34,8.63
11.469002723693848,-5.65,4.14,-3.7,7.92
11.47045373916626,-4.52,3.63,-3.63,6.83
11.48554277420044,-3.59,3.43,-3.67,6.17
11.487022876739502,-3.96,4.73,-4.4,7.57
11.50167989730835,-4.29,6.89,-4.8,9.42
11.53109073638916,-2.83,9.16,-2.93,10.02
11.53241491317749,0.97,11.62,0.95,11.69
11.533415794372559,1.39,8.27,1.16,8.46
11.553815841674805,-1.23,4.55,-1.83,5.05
11.554840803146362,-4.38,3.51,-4.5,7.19
11.569963932037354,-6.61,2.07,-5.17,8.64
11.571427822113037,-7.74,-0.75,-4.7,9.08
11.58562183380127,-4.67,-3.89,-3.29,6.91
11.58712387084961,1.93,-1.73,-0.58,2.65
11.601776838302612,-0.41,-1.53,-0.76,1.75
11.634276866912842,-5.63,-1.54,-2.59,6.38
11.635628700256348,-8.95,-0.67,-3.46,9.61
11.63663387298584,-9.54,-1.0,-2.98,10.04
11.653961658477783,-8.05,-2.05,-1.82,8.5
11.655022859573364,-5.93,-3.3,-0.84,6.83
11.670164823532104,-4.81,-4.47,-0.43,6.58
11.671567916870117,-4.84,-4.97,-0.37,6.94
11.685876846313477,-5.43,-5.09,-0.51,7.46
11.68735384941101,-5.71,-4.93,-0.49,7.55
11.701717853546143,-5.52,-4.72,-0.26,7.26
11.73341679573059,-5.18,-4.65,-0.1,6.96
11.734790802001953,-4.91,-4.71,-0.14,6.8
11.735798835754395,-4.71,-4.79,-0.1,6.71
11.753889799118042,-4.74,-4.69,0.05,6.66
11.75495982170105,-4.86,-4.36,0.6,6.55
11.770363807678223,-5.05,-3.84,1.49,6.51
11.771836757659912,-5.22,-2.94,2.25,6.39
11.785747766494751,-4.8,-1.94,1.2,5.31
11.787205696105957,-3.24,-1.31,-1.18,3.68
11.801737785339355,-0.77,-0.3,-1.92,2.09
11.834159851074219,1.65,0.84,-1.03,2.11
11.835436820983887,3.42,1.54,-0.72,3.81
11.836445808410645,4.29,1.91,-0.74,4.75
11.85394287109375,4.41,2.42,-0.48,5.05
11.854987859725952,4.67,3.6,-0.23,5.9
11.87019395828247,5.69,5.34,-0.25,7.8
11.87165880203247,7.48,6.59,-0.9,10.0
11.885846853256226,9.37,6.61,-1.49,11.56
11.887322902679443,10.52,6.46,-1.69,12.46
11.901619911193848,11.01,6.07,-1.61,12.67
11.931690692901611,11.12,5.29,-1.08,12.36
11.933061838150024,7.9,9.16,-0.01,12.09
11.934038877487183,7.86,8.18,-0.13,11.34
11.953710794448853,11.71,3.38,0.96,12.22
11.954779863357544,13.09,4.44,3.47,14.25
11.97005581855774,13.08,4.94,4.2,14.59
11.97150993347168,11.95,5.75,4.88,14.13
11.985864877700806,10.68,7.31,5.85,14.2
11.987324714660645,9.48,8.54,6.91,14.51
12.001613855361938,7.61,5.68,6.01,11.23
12.031128883361816,1.25,0.08,1.48,1.93
12.032520771026611,-6.21,0.14,-1.68,6.43
12.033511877059937,-4.91,1.19,-0.64,5.09
12.053871870040894,1.53,-0.25,0.13,1.55
12.054909706115723,4.15,-1.92,0.09,4.57
12.069811820983887,4.76,-1.6,-0.03,5.02
12.070772647857666,4.76,1.39,0.07,4.95
12.086909770965576,3.5,3.38,-0.08,4.86
12.088352680206299,4.94,4.29,0.27,6.54
12.102427959442139,6.89,1.67,0.15,7.09
12.13151478767395,5.14,1.12,1.02,5.35
12.132827758789062,3.64,0.81,2.94,4.74
12.13382887840271,3.02,-0.61,2.72,4.1
12.153779983520508,2.97,-0.96,2.27,3.85
12.15487289428711,2.47,-0.56,2.12,3.3
12.169901847839355,1.58,-0.23,1.61,2.26
12.170942783355713,0.3,-0.44,1.26,1.36
12.186028957366943,-0.61,-0.61,1.09,1.39
12.187459945678711,-0.43,-0.15,0.85,0.96
12.201789855957031,-0.09,0.14,0.34,0.37
12.203259944915771,-0.08,0.37,0.4,0.55
12.249056816101074,0.01,0.22,-0.24,0.32
12.2501859664917,0.39,-0.02,-0.9,0.98
12.251192808151245,0.74,0.02,-1.29,1.48
12.27063798904419,0.72,0.03,-1.62,1.77
12.271697998046875,0.74,-0.08,-1.66,1.81
12.28712797164917,1.08,-0.04,-1.63,1.95
12.28858470916748,1.27,-0.16,-1.35,1.86
12.302735805511475,0.91,-0.19,-0.51,1.06
12.30413293838501,0.1,-0.06,0.37,0.38
12.318702697753906,-0.65,0.13,0.93,1.14
12.350894927978516,-1.01,0.26,1.26,1.63
12.352193832397461,-0.71,0.32,1.26,1.48
12.353131771087646,-0.15,0.2,0.81,0.84
12.370678901672363,0.32,0.03,0.18,0.36
12.371696949005127,0.61,-0.15,-0.33,0.7
12.3873929977417,0.72,-0.2,-0.45,0.87
12.388922691345215,0.55,-0.06,-0.36,0.66
12.402707815170288,0.37,0.06,-0.42,0.56
12.404131889343262,0.24,0.06,-0.37,0.44
12.418754816055298,0.07,0.03,-0.21,0.22
12.449313879013062,-0.1,0.06,-0.01,0.11
12.45072889328003,-0.2,0.21,0.23,0.37
12.451696872711182,-0.2,0.26,0.33,0.46
12.470634937286377,-0.1,0.12,0.21,0.26
12.4716157913208,0.07,-0.04,0.05,0.09
12.486655712127686,0.23,-0.17,-0.24,0.37
12.487651824951172,0.27,-0.17,-0.4,0.51
12.502624988555908,0.4,-0.02,-0.13,0.42
12.504088878631592,0.32,0.29,0.02,0.43
12.518678665161133,0.08,0.45,0.11,0.47
12.54710578918457,-0.06,0.44,0.25,0.5
12.548482894897461,-0.31,0.31,0.21,0.48
12.549458980560303,-0.67,0.18,0.07,0.69
12.551859855651855,-0.86,0.25,-0.08,0.89
12.553220748901367,-0.78,0.4,-0.12,0.88
12.554587841033936,-0.57,0.46,-0.38,0.82
12.556054830551147,-0.58,0.44,-0.79,1.07
12.566206932067871,-0.85,0.41,-1.02,1.38
12.576194763183594,-1.2,0.42,-0.86,1.53
12.585951805114746,-1.59,0.49,-0.74,1.82
12.619025707244873,-1.99,0.68,-0.91,2.29
12.619983673095703,-2.27,0.86,-1.04,2.64
12.620749950408936,-2.02,1.0,-0.73,2.36
12.637207984924316,-1.76,1.03,-0.47,2.09
12.638055801391602,-1.77,1.04,-0.48,2.1
12.653586864471436,-1.83,1.1,-0.47,2.18
12.65514588356018,-1.62,1.2,-0.77,2.15
12.669148921966553,-1.77,1.7,-1.57,2.91
12.675244808197021,-2.03,3.06,-1.42,3.93
12.685337781906128,-1.55,3.83,-1.23,4.31
12.720099925994873,-1.75,3.5,-1.71,4.27
12.721378803253174,-2.19,3.27,-1.85,4.34
12.722206830978394,-2.64,3.0,-2.19,4.55
12.737681865692139,-3.14,2.95,-2.48,4.97
12.73872995376587,-3.73,3.16,-2.79,5.62
12.753819942474365,-4.38,3.83,-3.06,6.57
12.754886865615845,-4.71,4.2,-3.22,7.08
12.768960952758789,-5.06,4.4,-3.51,7.56
12.774274826049805,-5.48,4.46,-3.66,7.95
12.785111904144287,-5.75,4.23,-3.59,7.99
12.820734977722168,-5.61,3.72,-3.6,7.63
12.822045803070068,-5.11,3.48,-3.55,7.12
12.823116779327393,-4.04,2.84,-3.55,6.08
12.837560653686523,-2.95,2.75,-3.78,5.52
12.838546752929688,-2.76,3.77,-4.12,6.22
12.853954792022705,-3.06,5.05,-4.59,7.47
12.855016708374023,-2.59,6.3,-3.22,7.53
12.869244813919067,0.63,9.2,0.54,9.23
12.873865842819214,2.85,8.07,0.98,8.61
12.88575267791748,0.85,4.28,-1.36,4.57
12.92178988456726,-2.46,3.14,-4.0,5.64
12.923090934753418,-4.71,2.3,-4.57,6.95
12.92409372329712,-5.83,-0.07,-4.27,7.22
12.937558650970459,-6.24,-4.37,-3.69,8.46
12.938607692718506,-2.77,-4.69,-1.78,5.73
12.953741788864136,1.16,-1.62,-0.11,1.99
12.954781770706177,-1.58,-2.03,-0.28,2.58
12.969520807266235,-5.45,-2.17,-1.75,6.12
12.973085880279541,-8.14,-1.89,-2.26,8.65
12.985760688781738,-9.21,-2.03,-1.68,9.57
12.992950916290283,-9.02,-2.35,-0.69,9.34
13.029731750488281,-8.21,-3.2,0.07,8.81
13.030890941619873,-7.58,-3.98,0.27,8.56
13.032127857208252,-7.17,-4.22,-0.03,8.31
13.034046649932861,-6.79,-3.79,-0.2,7.77
13.042540788650513,-6.28,-3.14,-0.11,7.02
13.052520751953125,-5.75,-2.82,0.11,6.4
13.062333822250366,-5.33,-2.61,0.31,5.94
13.072450876235962,-5.14,-2.43,0.1,5.68
13.082505702972412,-4.97,-1.95,-0.55,5.36
13.092350959777832,-4.65,-1.22,-1.12,4.93
13.124088764190674,-3.88,-0.59,-1.21,4.1
13.125411987304688,-2.55,-0.36,-1.26,2.86
13.126441955566406,-1.2,-0.45,-1.39,1.89
13.137767791748047,-0.4,-0.4,-1.33,1.44
13.141597747802734,-0.31,-0.28,-1.0,1.08
13.153833866119385,-0.36,0.2,-0.55,0.68
13.161749839782715,-0.14,0.96,-0.16,0.98
13.17147970199585,0.34,1.77,0.22,1.81
13.181556701660156,0.77,2.44,0.55,2.61
13.191496849060059,0.95,2.99,1.01,3.29
13.222448825836182,0.98,3.52,1.55,3.96
13.223798751831055,1.25,4.08,1.98,4.7
13.224808692932129,2.2,4.72,2.08,5.6
13.237783908843994,4.14,5.54,1.6,7.09
13.240860939025879,6.74,5.89,0.82,8.98
13.253998756408691,8.89,5.77,0.18,10.59
13.260940790176392,10.4,5.84,-0.33,11.93
13.270550727844238,11.46,5.56,-0.55,12.74
13.280821800231934,12.07,4.79,-0.24,12.98
13.2908296585083,10.07,7.81,0.36,12.74
13.324158668518066,10.79,5.95,0.89,12.35
13.325531959533691,13.43,2.8,2.28,13.9
13.326515674591064,13.62,2.8,3.72,14.39
13.337877750396729,12.84,2.79,3.61,13.62
13.340105772018433,11.74,3.01,3.36,12.57
13.353882789611816,10.55,3.92,3.71,11.85
13.360208988189697,9.6,5.23,4.62,11.86
13.370069980621338,8.08,4.31,4.14,10.04
13.38017988204956,1.94,0.21,0.63,2.05
13.38990068435669,-6.03,0.29,-2.41,6.5
13.428103923797607,-6.36,2.98,-0.71,7.05
13.42951488494873,0.69,2.36,1.72,3.0
13.430464744567871,5.05,1.31,1.79,5.51
13.433867931365967,5.87,2.87,1.58,6.72
13.43946385383606,4.25,3.85,1.39,5.9
13.454049825668335,3.07,2.37,0.69,3.93
13.459266662597656,3.87,1.62,0.34,4.2
13.46943998336792,3.15,-0.34,0.13,3.17
13.479556798934937,1.21,-0.67,1.19,1.82
13.489352703094482,0.63,-1.17,1.8,2.23
13.527740001678467,1.08,-1.56,1.55,2.45
13.528934955596924,2.19,-0.9,1.79,2.96
13.529735803604126,2.97,-0.19,1.62,3.38
13.535214900970459,3.15,-0.01,1.11,3.33
13.554316997528076,2.85,-0.07,0.7,2.93
13.555306911468506,2.25,-0.08,0.62,2.33
13.569102764129639,1.37,0.02,0.6,1.49
13.570157766342163,0.57,0.21,0.73,0.94
13.586094856262207,0.07,0.34,0.89,0.95
13.588467836380005,-0.14,0.18,1.01,1.03
13.629868984222412,-0.16,-0.07,0.72,0.74
13.631057739257812,-0.13,-0.16,0.05,0.21
13.632184982299805,0.01,-0.11,-0.79,0.79
13.633778810501099,0.41,0.06,-1.29,1.35
13.637840747833252,0.86,0.24,-1.48,1.72
13.647685766220093,1.17,0.24,-1.3,1.76
13.65800666809082,1.29,0.13,-0.95,1.6
13.667878866195679,1.15,0.04,-0.51,1.25
13.677719831466675,0.72,-0.11,-0.27,0.77
13.687583923339844,0.34,-0.13,-0.17,0.4
13.72310495376587,0.18,-0.1,0.03,0.2
13.724063873291016,0.11,-0.06,0.27,0.29
13.724812984466553,-0.01,-0.06,0.41,0.41
13.726963996887207,-0.15,0.0,0.55,0.57
13.737380981445312,-0.22,0.0,0.66,0.69
13.747182846069336,-0.21,-0.08,0.7,0.73
13.757277965545654,-0.11,-0.16,0.62,0.64
13.76718783378601,0.03,-0.11,0.53,0.54
13.776951789855957,-0.01,0.04,0.12,0.12
13.787170886993408,-0.19,0.18,-0.49,0.55
13.797004699707031,-0.06,0.32,-0.35,0.47
13.828962802886963,0.12,0.35,0.37,0.52
13.830121994018555,0.06,0.23,0.62,0.66
13.831198692321777,-0.04,0.16,0.29,0.33
13.836266994476318,-0.03,0.21,-0.05,0.21
13.854704856872559,0.12,0.2,-0.28,0.36
13.856143951416016,0.32,0.1,0.03,0.33
13.869507789611816,0.35,0.05,0.28,0.45
13.876232862472534,0.21,0.05,0.22,0.3
13.886010885238647,-0.01,0.13,-0.01,0.13
13.896310806274414,-0.17,0.2,-0.26,0.36
13.926564693450928,-0.18,0.23,-0.17,0.33
13.927528858184814,-0.21,0.29,-0.06,0.36
13.928539752960205,-0.41,0.39,-0.07,0.57
13.935943841934204,-0.73,0.43,-0.33,0.9
13.945716857910156,-1.11,0.37,-0.76,1.39
13.955489873886108,-1.48,0.35,-0.94,1.78
13.965475797653198,-1.67,0.56,-0.8,1.93
13.975263833999634,-1.71,0.69,-0.96,2.07
13.985830783843994,-2.07,0.81,-1.66,2.77
13.995421886444092,-2.35,0.91,-2.16,3.31
14.026781797409058,-2.29,0.96,-1.9,3.12
14.027888774871826,-2.15,1.07,-1.48,2.82
14.028710842132568,-2.08,1.19,-1.53,2.84
14.0379638671875,-1.99,1.19,-1.51,2.76
14.044729709625244,-1.93,1.28,-1.41,2.71
14.055417776107788,-1.69,1.78,-0.97,2.63
14.06481385231018,-1.63,2.63,-0.65,3.16
14.074550867080688,-2.41,4.01,-1.95,5.06
14.084701776504517,-2.24,4.53,-1.44,5.25
14.094899654388428,-1.97,3.31,-1.15,4.01
14.127717971801758,-2.63,2.93,-1.33,4.15
14.129002809524536,-3.43,2.94,-1.21,4.67
14.130088806152344,-4.02,3.11,-1.42,5.27
14.136610984802246,-4.48,3.78,-1.76,6.12
14.154484748840332,-4.72,4.25,-2.25,6.73
14.155560970306396,-5.07,4.48,-2.64,7.26
14.16970181465149,-5.41,4.49,-2.84,7.58
14.173885822296143,-5.6,4.39,-3.17,7.78
14.18620777130127,-5.57,4.1,-3.6,7.79
14.193939685821533,-5.1,3.42,-3.77,7.2
14.232831001281738,-4.23,2.89,-3.91,6.44
14.234063863754272,-3.58,2.76,-4.46,6.35
14.235082864761353,-3.99,3.88,-4.96,7.45
14.236947774887085,-4.42,5.7,-4.98,8.76
14.243402004241943,-3.42,7.09,-3.74,8.71
14.253455877304077,0.46,9.97,-0.14,9.98
14.26327896118164,3.68,10.41,1.45,11.13
14.273393869400024,2.04,5.91,-0.88,6.31
14.283551692962646,-1.45,3.81,-4.33,5.94
14.293345928192139,-4.06,2.52,-5.73,7.46
14.331432819366455,-5.45,-0.31,-6.01,8.11
14.332704782485962,-5.75,-5.18,-5.78,9.65
14.333690881729126,-1.14,-5.08,-3.49,6.26
14.355111837387085,2.11,-2.01,-1.02,3.08
14.356122970581055,-1.96,-2.43,-1.49,3.45
14.37069582939148,-6.36,-2.73,-2.64,7.4
14.371753692626953,-9.56,-2.76,-2.45,10.24
14.387385845184326,-10.43,-2.94,-1.15,10.89
14.38884973526001,-9.41,-3.4,0.26,10.0
14.403023719787598,-7.77,-4.34,1.1,8.96
14.434009790420532,-6.44,-5.1,1.43,8.33
14.435290813446045,-5.83,-5.11,1.17,7.84
14.436283826828003,-5.66,-4.8,0.44,7.43
14.455435752868652,-5.69,-4.4,-0.12,7.19
14.456547737121582,-5.76,-4.05,-0.2,7.04
14.471085786819458,-5.84,-3.77,-0.08,6.95
14.472572803497314,-5.69,-3.44,0.05,6.64
14.487031936645508,-5.25,-2.95,0.28,6.02
14.488507747650146,-4.92,-2.5,0.41,5.53
14.502870798110962,-4.69,-1.88,0.22,5.05
14.533086776733398,-4.1,-1.17,-0.25,4.27
14.534556865692139,-2.73,-0.75,-0.58,2.88
14.535584926605225,-1.04,-0.64,-0.63,1.37
14.554979801177979,0.19,-0.44,-0.42,0.63
14.556047916412354,0.38,-0.04,0.03,0.38
14.570903778076172,-0.38,0.52,0.72,0.96
14.571924686431885,-0.93,1.56,1.36,2.26
14.587026834487915,-0.65,2.96,1.95,3.6
14.588474750518799,0.11,4.42,2.7,5.18
14.602970838546753,0.7,5.45,3.29,6.4
14.604474782943726,0.88,6.16,3.92,7.35
14.650552749633789,1.5,6.99,4.15,8.26
14.651712894439697,3.71,7.9,3.79,9.51
14.652707815170288,6.95,8.15,1.68,10.84
14.671680927276611,9.13,7.63,-0.68,11.91
14.672731876373291,10.55,8.15,-1.42,13.4
14.687142848968506,12.42,7.69,-1.6,14.69
14.688623905181885,11.95,8.76,-0.68,14.83
14.70363187789917,14.51,4.41,0.01,15.16
14.705103874206543,16.41,2.32,1.28,16.62
14.719902992248535,14.94,2.25,2.1,15.25
14.749754905700684,12.87,2.27,1.91,13.2
14.751108884811401,11.46,2.73,1.85,11.92
14.75213885307312,10.64,3.33,1.88,11.3
14.771503925323486,9.62,3.99,2.17,10.63
14.772557735443115,7.31,3.41,1.88,8.28
14.788287878036499,0.54,0.86,-0.02,1.01
14.789740800857544,-7.45,1.37,-1.6,7.74
14.803570747375488,-7.92,2.86,0.61,8.44
14.805056810379028,-1.26,1.19,2.46,3.0
14.819854736328125,3.46,-1.54,1.97,4.26
14.848346710205078,5.1,-0.69,1.86,5.47
14.849796772003174,5.41,2.57,1.35,6.13
14.850797653198242,3.89,4.18,0.29,5.71
14.871665954589844,4.46,4.18,-0.15,6.11
14.872619867324829,4.82,1.35,-0.3,5.01
14.887948989868164,2.35,0.72,0.68,2.55
14.889005661010742,1.65,0.1,2.65,3.12
14.903687953948975,1.69,-1.66,2.36,3.34
14.905160903930664,2.37,-1.87,1.69,3.45
14.919965744018555,2.56,-0.61,1.25,2.91
14.948359966278076,1.79,0.27,0.42,1.85
14.949696779251099,1.22,0.24,-0.14,1.25
14.950675964355469,1.2,-0.06,-0.02,1.2
14.9529447555542,1.4,0.09,0.75,1.59
14.954335689544678,0.89,0.19,0.99,1.34
14.958038806915283,-0.1,0.12,0.38,0.41
14.967952728271484,-0.59,0.09,-0.53,0.79
14.977910995483398,-0.57,0.3,-0.84,1.05
14.987749814987183,-0.33,0.16,-0.43,0.56
14.997912883758545,0.0,-0.02,0.03,0.03
15.032543659210205,0.36,0.0,0.04,0.36
15.033914804458618,0.72,0.04,-0.41,0.82
15.034880876541138,0.85,0.07,-0.91,1.24
15.056169986724854,0.81,0.1,-0.74,1.1
15.057170867919922,0.66,0.25,-0.1,0.71
15.071603775024414,0.27,0.19,0.51,0.6
15.07258677482605,0.1,0.22,1.12,1.14
15.085779666900635,0.23,0.22,1.27,1.3
15.086877822875977,0.41,0.06,0.9,0.99
15.102157831192017,0.67,-0.02,0.55,0.86
15.13280987739563,0.8,-0.04,0.38,0.88
15.133997917175293,0.75,-0.04,0.03,0.75
15.134913921356201,0.51,0.02,-0.58,0.77
15.151780843734741,0.28,0.14,-0.82,0.87
15.152779817581177,0.22,0.17,-0.52,0.58
15.167763710021973,0.17,0.12,-0.25,0.32
15.168747901916504,0.0,-0.01,-0.33,0.33
15.185406684875488,-0.3,-0.03,-0.3,0.42
15.186783790588379,-0.63,0.02,-0.03,0.63
15.201372861862183,-0.93,0.15,-0.01,0.94
15.233177661895752,-1.12,0.28,-0.16,1.16
15.234987735748291,-0.99,0.39,-0.09,1.06
15.235949993133545,-0.75,0.33,0.0,0.81
15.25287389755249,-0.55,0.23,0.03,0.59
15.25386095046997,-0.56,0.12,0.07,0.57
15.26872968673706,-0.65,0.05,0.14,0.66
15.269710779190063,-0.67,0.09,0.15,0.69
15.285270690917969,-0.64,0.08,0.15,0.66
15.286545753479004,-0.43,0.11,0.31,0.54
15.301714897155762,-0.24,0.28,0.39,0.53
15.33195972442627,-0.19,0.35,0.23,0.45
15.333330869674683,-0.21,0.25,0.06,0.33
15.334293842315674,-0.37,0.13,-0.05,0.39
15.352932929992676,-0.44,0.11,-0.11,0.46
15.353909969329834,-0.54,0.07,-0.19,0.57
15.369010925292969,-0.55,0.1,-0.48,0.73
15.370014667510986,-0.48,0.34,-0.81,1.0
15.385030746459961,-0.55,0.63,-1.02,1.31
15.38643479347229,-0.59,1.0,-0.82,1.42
15.401636838912964,-0.49,1.27,-0.41,1.42
15.40493392944336,-0.68,1.33,-0.29,1.52
15.446605682373047,-1.0,1.44,-0.36,1.78
15.447758674621582,-1.24,1.54,-0.42,2.02
15.448996782302856,-1.27,1.85,-0.63,2.33
15.45126485824585,-1.2,2.33,-1.03,2.81
15.469058990478516,-1.24,2.68,-1.55,3.33
15.470059871673584,-1.55,3.09,-2.16,4.07
15.48524284362793,-2.02,3.21,-2.56,4.57
15.486635684967041,-2.57,3.13,-2.76,4.9
15.501538753509521,-3.03,3.21,-2.81,5.23
15.504196882247925,-3.47,3.44,-2.74,5.6
15.546253681182861,-3.85,3.68,-2.82,6.02
15.547407865524292,-4.25,3.96,-3.11,6.58
15.548617839813232,-4.77,4.22,-3.29,7.16
15.551626682281494,-5.21,4.41,-3.2,7.53
15.571718692779541,-5.57,4.1,-3.27,7.65
15.572764873504639,-5.77,3.88,-3.26,7.67
15.587471961975098,-5.66,3.84,-3.4,7.63
15.58894681930542,-4.81,3.04,-3.6,6.73
15.603349685668945,-3.26,2.28,-3.91,5.57
15.604820728302002,-2.27,3.01,-4.27,5.69
15.648642778396606,-2.76,5.28,-4.44,7.43
15.649780750274658,-2.86,7.0,-4.13,8.61
15.65074872970581,0.12,9.51,-1.8,9.67
15.65235185623169,2.98,10.28,-1.24,10.77
15.653761863708496,1.1,7.11,-2.45,7.6
15.662507772445679,-1.89,5.45,-3.82,6.91
15.673011779785156,-4.25,3.93,-4.09,7.08
15.682480812072754,-5.9,0.82,-3.72,7.02
15.692614793777466,-6.49,-3.28,-3.23,7.95
15.702685832977295,-2.56,-3.85,-2.66,5.33
15.733020782470703,1.92,-1.46,-1.28,2.73
15.73419189453125,-1.49,-1.94,-1.22,2.73
15.73507285118103,-6.3,-2.09,-2.33,7.03
15.755608797073364,-9.53,-1.76,-2.4,9.98
15.756656885147095,-10.59,-2.03,-1.25,10.85
15.771333694458008,-10.04,-2.54,0.33,10.36
15.772332668304443,-8.89,-3.4,1.55,9.64
15.787767887115479,-8.03,-4.33,1.85,9.3
15.79209280014038,-7.65,-4.56,1.21,8.98
15.80354380607605,-7.42,-4.32,0.36,8.59
15.838928699493408,-7.18,-3.72,-0.22,8.08
15.840173721313477,-6.68,-3.27,-0.55,7.45
15.841166973114014,-5.85,-3.0,-0.5,6.59
15.855949878692627,-4.92,-2.87,-0.12,5.69
15.856996774673462,-4.09,-2.81,0.21,4.96
15.871694803237915,-3.51,-2.67,0.02,4.41
15.872696876525879,-3.25,-2.33,-0.81,4.08
15.887854814529419,-3.0,-1.73,-1.81,3.9
15.891238689422607,-2.38,-0.96,-2.48,3.56
15.903669834136963,-1.28,-0.33,-2.38,2.72
15.939023971557617,-0.15,-0.08,-1.71,1.71
15.940406799316406,0.38,-0.23,-1.23,1.3
15.941404819488525,0.51,-0.03,-1.01,1.13
15.956133842468262,0.66,0.73,-0.86,1.3
15.957181930541992,0.92,1.7,-0.59,2.02
15.971446990966797,1.18,2.5,-0.11,2.76
15.972482681274414,1.21,3.03,0.65,3.32
15.987594842910767,1.18,3.61,1.34,4.02
15.99036169052124,1.42,4.39,1.96,5.01
16.00364065170288,2.1,5.16,2.47,6.09
16.028786659240723,3.21,5.73,2.53,7.03
16.02984094619751,4.69,6.21,2.25,8.1
16.030702829360962,6.76,6.62,1.78,9.62
16.040177822113037,8.39,7.48,1.08,11.29
16.056135654449463,7.16,11.83,0.74,13.84
16.0599627494812,10.72,6.64,0.01,12.6
16.069758892059326,14.66,3.53,1.74,15.17
16.080103874206543,14.33,3.16,3.5,15.08
16.089653968811035,12.8,3.34,3.42,13.66
16.099780797958374,11.86,3.32,3.58,12.82
16.140273809432983,11.42,3.46,3.85,12.53
16.141385793685913,10.91,3.41,3.78,12.03
16.142329692840576,10.25,3.52,3.55,11.4
16.154162883758545,9.35,3.59,3.44,10.58
16.155239820480347,7.57,1.47,2.11,7.99
16.172119855880737,2.13,-1.99,-1.12,3.12
16.17353868484497,-3.92,-1.82,-3.0,5.26
16.187673807144165,-3.95,0.62,-0.99,4.11
16.189090728759766,1.37,1.28,1.42,2.35
16.20368766784668,5.2,2.35,1.61,5.92
16.20892095565796,5.22,5.31,1.71,7.63
16.25236988067627,6.36,7.09,1.63,9.66
16.25351095199585,7.62,2.18,0.19,7.92
16.254474878311157,4.37,0.18,-0.26,4.38
16.273146867752075,1.48,0.44,1.88,2.43
16.274134874343872,0.44,-0.95,2.79,2.97
16.28883385658264,1.07,-1.62,2.55,3.2
16.29025888442993,1.34,-1.38,2.15,2.88
16.304475784301758,0.96,-0.92,1.69,2.15
16.305902004241943,0.82,0.01,1.01,1.3
16.32073187828064,0.63,0.08,0.22,0.67
16.350595951080322,0.57,-0.13,0.09,0.59
16.35198974609375,0.52,-0.17,0.19,0.57
16.352961778640747,0.59,-0.13,-0.2,0.63
16.37261986732483,0.55,0.02,-0.39,0.67
16.373618841171265,0.25,0.18,-0.43,0.52
16.38862681388855,-0.08,0.31,-0.46,0.56
16.389957904815674,-0.11,0.39,-0.53,0.66
16.404621839523315,0.08,0.3,-0.89,0.94
16.405995845794678,0.36,0.12,-0.94,1.01
16.420872688293457,0.8,0.04,-0.33,0.86
16.449442863464355,1.06,-0.08,0.36,1.12
16.450730800628662,0.94,-0.2,0.41,1.04
16.451697826385498,0.66,-0.18,0.19,0.71
16.47298765182495,0.43,-0.08,0.25,0.5
16.47404193878174,0.29,0.07,0.48,0.56
16.489272832870483,0.22,0.11,0.54,0.59
16.490651845932007,0.21,0.15,0.52,0.58
16.50465488433838,0.25,0.15,0.11,0.31
16.505980968475342,0.3,0.08,-0.3,0.43
16.52084493637085,0.33,0.11,-0.41,0.53
16.55056095123291,0.27,0.13,-0.37,0.47
16.55184268951416,0.17,-0.01,-0.28,0.32
16.552801847457886,0.05,-0.09,-0.26,0.27
16.572762966156006,-0.14,0.0,-0.1,0.17
16.573803901672363,-0.45,0.11,-0.02,0.46
16.58898377418518,-0.7,0.22,0.05,0.73
16.5904278755188,-0.58,0.32,0.09,0.66
16.604464769363403,-0.3,0.41,0.0,0.5
16.605881690979004,-0.11,0.31,0.08,0.33
16.62081289291382,-0.02,0.04,0.07,0.08
16.65137767791748,0.01,-0.13,-0.17,0.21
16.652671813964844,-0.11,-0.16,-0.19,0.27
16.653668880462646,-0.22,-0.11,-0.1,0.26
16.672478675842285,-0.28,0.08,-0.09,0.3
16.673513889312744,-0.26,0.3,-0.06,0.4
16.688358783721924,-0.29,0.48,0.0,0.56
16.689844846725464,-0.23,0.57,0.11,0.62
16.704396724700928,-0.14,0.48,-0.03,0.5
16.705898761749268,-0.15,0.49,-0.43,0.66
16.720754861831665,-0.29,0.63,-0.72,0.99
16.75247097015381,-0.65,0.68,-0.9,1.3
16.7537899017334,-0.94,0.78,-1.04,1.6
16.754776000976562,-1.23,0.85,-1.21,1.92
16.772486686706543,-1.82,0.9,-1.33,2.42
16.7735698223114,-2.6,1.38,-1.14,3.15
16.789262771606445,-2.81,2.36,-0.95,3.79
16.790737867355347,-2.63,2.46,-1.05,3.75
16.80461072921753,-2.55,2.65,-0.74,3.75
16.80593967437744,-2.62,2.69,-0.86,3.85
16.82081890106201,-2.54,2.83,-1.13,3.96
16.85121488571167,-2.42,3.12,-1.52,4.23
16.85250473022461,-2.61,3.44,-2.11,4.8
16.853511810302734,-2.91,3.84,-2.61,5.47
16.872443675994873,-3.41,3.78,-3.17,5.99
16.87348484992981,-4.03,3.7,-3.38,6.43
16.888961791992188,-4.57,3.87,-3.31,6.84
16.889973878860474,-5.31,4.22,-3.51,7.63
16.904377937316895,-6.3,5.0,-4.1,9.02
16.905818939208984,-6.96,5.6,-4.59,10.04
16.92091989517212,-6.98,5.15,-4.76,9.89
16.951777935028076,-6.48,4.55,-5.19,9.46
16.953022956848145,-5.57,3.97,-5.88,9.01
16.954028844833374,-4.05,3.38,-5.98,7.97
16.972490787506104,-2.64,3.46,-5.89,7.32
16.973522663116455,-1.9,5.2,-5.25,7.62
16.98921298980713,-0.52,7.6,-4.49,8.84
16.99068284034729,2.86,11.23,-2.62,11.88
17.005326747894287,4.09,11.11,-1.88,11.98
17.006783962249756,0.86,5.38,-2.96,6.2
17.021684885025024,-2.79,2.32,-4.46,5.74
17.02311897277832,-5.44,-0.68,-5.22,7.56
17.071247816085815,-7.17,-4.93,-5.02,10.04
17.072463989257812,-3.63,-5.36,-2.72,7.02
17.073493003845215,2.37,-3.01,-0.31,3.84
17.090065002441406,-0.35,-3.66,-0.64,3.73
17.091161727905273,-5.26,-3.6,-2.39,6.8
17.105819702148438,-8.73,-3.23,-3.0,9.77
17.10731077194214,-9.77,-3.23,-2.21,10.52
17.12143898010254,-9.14,-3.36,-0.89,9.77
17.12292981147766,-8.19,-4.26,0.33,9.23
17.137244701385498,-7.76,-5.4,0.91,9.49
17.166090965270996,-7.83,-5.45,0.99,9.59
17.167577743530273,-7.94,-4.66,0.75,9.23
17.168585777282715,-7.76,-3.78,0.61,8.65
17.189819812774658,-7.11,-3.22,0.63,7.83
17.19086790084839,-6.21,-3.01,0.31,6.9
17.20581865310669,-5.71,-2.83,-0.3,6.37
17.20731282234192,-5.45,-2.19,-0.67,5.91
17.22177267074585,-5.06,-1.25,-0.4,5.22
17.223259925842285,-4.05,-0.52,0.02,4.08
17.23764991760254,-2.47,-0.44,-0.23,2.51
17.265323877334595,-1.14,-0.51,-0.64,1.4
17.266698837280273,-0.43,-0.07,-0.7,0.82
17.267724990844727,-0.22,0.72,-0.85,1.13
17.27029275894165,-0.08,1.52,-1.03,1.83
17.27164387702942,0.37,2.18,-1.03,2.43
17.272790908813477,1.19,2.83,-0.8,3.17
17.28059983253479,2.08,3.37,-0.28,3.97
17.290761947631836,2.43,3.57,0.5,4.34
17.30036187171936,2.13,3.6,1.53,4.45
17.31049394607544,1.65,3.78,2.49,4.81
17.33821392059326,1.68,4.08,2.84,5.24
17.339512825012207,2.41,4.48,3.01,5.91
17.340333938598633,3.71,4.86,2.76,6.7
17.356613874435425,5.36,5.44,2.51,8.03
17.35989284515381,7.28,5.95,2.3,9.67
17.369818687438965,9.26,6.23,1.86,11.31
17.379912853240967,10.82,6.2,1.23,12.53
17.389612674713135,11.94,5.77,1.16,13.31
17.39982795715332,12.52,4.73,1.69,13.48
17.409717798233032,12.22,3.25,2.63,12.91
17.447722911834717,11.44,2.88,3.36,12.26
17.44917869567871,10.38,5.05,3.51,12.06
17.450162887573242,10.6,3.72,3.36,11.72
17.45263385772705,10.96,2.73,3.53,11.83
17.45924472808838,11.63,5.62,3.71,13.43
17.46934700012207,14.69,3.68,2.71,15.38
17.479249954223633,13.96,0.66,3.1,14.31
17.48907995223999,6.2,-0.47,0.01,6.21
17.499128818511963,-3.76,-0.47,-4.0,5.5
17.50925874710083,-12.11,2.54,-4.95,13.32
17.545390844345093,-11.26,5.39,0.26,12.48
17.54677391052246,-3.21,0.99,3.53,4.87
17.54779291152954,3.56,-3.65,3.27,6.05
17.553332805633545,6.9,-2.91,3.23,8.15
17.558653831481934,6.99,0.38,2.62,7.47
17.57213592529297,6.55,2.74,1.41,7.23
17.578430652618408,6.81,2.49,0.71,7.28
17.588247776031494,4.85,0.54,1.23,5.03
17.598659992218018,2.08,-0.39,2.16,3.02
17.608449935913086,0.5,-0.53,1.75,1.89
17.64490580558777,-0.03,-0.39,1.38,1.43
17.64625597000122,0.01,-0.54,0.91,1.05
17.647368907928467,0.08,-0.49,-0.2,0.53
17.656869888305664,0.36,-0.12,-0.87,0.94
17.657925844192505,0.7,0.53,-0.71,1.12
17.671981811523438,0.83,0.71,-0.19,1.1
17.677770853042603,0.94,0.36,-0.13,1.01
17.68836283683777,0.72,0.02,-0.26,0.76
17.697877883911133,0.05,0.03,-0.36,0.36
17.70772075653076,-0.75,0.26,-0.34,0.86
17.74573588371277,-1.23,0.17,-0.25,1.26
17.74712896347046,-1.14,-0.19,-0.39,1.21
17.748228788375854,-0.57,-0.13,-0.25,0.63
17.753572940826416,0.3,0.12,0.08,0.33
17.772568702697754,0.79,0.22,0.03,0.82
17.773602962493896,0.87,0.14,-0.06,0.88
17.78802490234375,0.89,-0.04,-0.02,0.89
17.78926372528076,1.04,0.07,0.09,1.04
17.80446195602417,0.82,0.12,-0.05,0.83
17.806784868240356,0.41,0.07,-0.13,0.43
17.821319818496704,0.19,0.09,0.25,0.32
17.851248741149902,0.2,0.08,0.52,0.56
17.85262393951416,0.23,0.0,0.42,0.47
17.853598833084106,0.33,0.0,0.31,0.45
17.873039722442627,0.55,-0.06,0.2,0.58
17.874058723449707,0.72,-0.1,0.19,0.75
17.88964080810547,0.58,-0.12,0.16,0.61
17.891089916229248,0.21,-0.05,0.29,0.36
17.90505075454712,-0.24,0.11,0.37,0.45
17.906470775604248,-0.5,0.2,0.24,0.58
17.921368837356567,-0.3,0.19,0.28,0.45
17.950506687164307,0.05,0.08,0.29,0.3
17.95186471939087,0.26,0.03,0.13,0.29
17.952852725982666,0.31,-0.01,0.16,0.34
17.97309684753418,0.11,-0.02,0.1,0.15
17.974109649658203,-0.07,0.09,0.03,0.11
17.991042852401733,-0.19,0.2,0.03,0.27
17.99241280555725,-0.27,0.23,0.1,0.36
18.005207777023315,-0.49,0.17,0.11,0.53
18.00665283203125,-0.87,0.1,-0.05,0.87
18.02158498764038,-0.99,0.15,-0.13,1.0
18.050408840179443,-0.78,0.38,0.01,0.86
18.051758766174316,-0.56,0.7,-0.31,0.94
18.052738666534424,-0.45,0.77,-0.74,1.15
18.073211669921875,-0.4,0.56,-0.84,1.08
18.074257850646973,-0.58,0.28,-0.76,0.99
18.088884830474854,-0.74,0.22,-0.54,0.94
18.090325832366943,-0.66,0.34,-0.35,0.82
18.105164766311646,-0.71,0.51,-0.88,1.24
18.10661792755127,-1.02,0.55,-1.3,1.74
18.121596813201904,-0.8,0.7,-0.94,1.41
18.15207290649414,-0.73,0.84,-0.74,1.33
18.153393745422363,-1.43,1.23,-0.45,1.93
18.1543607711792,-1.91,2.12,-0.27,2.86
18.173162937164307,-1.94,2.06,-1.21,3.07
18.174194812774658,-1.83,2.55,-0.7,3.21
18.189985752105713,-2.08,2.97,-0.73,3.69
18.19146180152893,-2.66,3.53,-1.15,4.56
18.205139875411987,-2.93,3.85,-1.76,5.14
18.2066068649292,-3.13,3.62,-2.43,5.36
18.221510887145996,-3.47,3.37,-2.74,5.55
18.252042770385742,-4.02,3.51,-2.84,6.04
18.253411769866943,-4.37,3.88,-2.73,6.45
18.254355907440186,-3.5,3.88,-1.66,5.48
18.27303981781006,-4.51,3.64,-2.02,6.13
18.274064779281616,-5.84,4.42,-2.96,7.89
18.289949893951416,-6.13,5.09,-2.7,8.41
18.291412830352783,-6.86,5.32,-3.18,9.24
18.30505084991455,-7.09,5.15,-3.97,9.62
18.306565761566162,-6.52,5.04,-4.02,9.16
18.32171869277954,-5.96,4.94,-4.32,8.86
18.352645874023438,-5.63,5.16,-4.98,9.11
18.353946685791016,-4.94,5.92,-5.2,9.3
18.35496687889099,-0.58,8.51,-3.17,9.09
18.37304973602295,5.39,13.89,-1.48,14.97
18.374112844467163,4.06,9.95,-2.84,11.11
18.390005826950073,-0.3,5.52,-5.26,7.63
18.391494750976562,-4.02,2.8,-6.06,7.79
18.405183792114258,-6.12,-1.75,-5.89,8.67
18.40669870376587,-6.43,-5.39,-4.71,9.62
18.421489715576172,0.11,-3.41,-1.5,3.72
18.453049659729004,4.76,-2.08,0.55,5.22
18.45437979698181,1.21,-3.32,-1.25,3.74
18.45538878440857,-3.68,-3.31,-3.53,6.07
18.473524808883667,-7.08,-3.49,-4.1,8.89
18.47499370574951,-8.43,-3.7,-3.37,9.8
18.489983797073364,-8.43,-4.18,-2.16,9.65
18.491397857666016,-7.85,-4.74,-1.17,9.24
18.50505495071411,-7.3,-5.23,-0.59,8.99
18.506524801254272,-7.01,-5.21,-0.2,8.73
18.521775722503662,-6.96,-4.76,-0.09,8.43
18.55441188812256,-6.81,-4.11,-0.1,7.95
18.555741786956787,-6.26,-3.48,0.08,7.16
18.556787967681885,-5.14,-2.98,0.42,5.95
18.573978900909424,-3.92,-3.08,0.81,5.05
18.575393676757812,-3.34,-3.56,1.2,5.02
18.590121746063232,-3.46,-3.78,1.05,5.23
18.59158682823181,-3.92,-3.6,0.66,5.36
18.6052668094635,-4.69,-2.92,0.34,5.53
18.606754779815674,-5.66,-1.85,-0.03,5.95
18.621603965759277,-6.38,-0.45,-0.44,6.41
18.623048782348633,-5.9,0.76,-1.25,6.07
18.673491954803467,-3.62,1.16,-2.25,4.41
18.674670696258545,-0.44,1.31,-2.47,2.83
18.675686836242676,2.43,1.91,-1.72,3.53
18.690640926361084,4.2,3.01,-0.55,5.19
18.69167184829712,4.47,3.34,0.23,5.58
18.706533908843994,3.94,3.27,0.73,5.17
18.70798683166504,3.81,4.14,1.15,5.74
18.72222089767456,4.31,5.35,1.09,6.95
18.723676681518555,5.23,6.23,0.68,8.16
18.7381808757782,6.1,6.25,0.14,8.73
18.769845962524414,6.93,6.06,-0.19,9.2
18.771183967590332,8.45,5.8,0.16,10.25
18.772212982177734,10.21,5.0,0.52,11.38
18.790769815444946,11.08,4.75,0.61,12.07
18.79223084449768,9.43,8.92,1.07,13.02
18.806739807128906,11.97,4.48,0.66,12.79
18.80825185775757,13.82,3.26,2.24,14.37
18.822276830673218,12.14,3.54,3.35,13.08
18.823773860931396,10.45,3.28,3.22,11.41
18.838212966918945,9.64,3.49,3.78,10.92
18.867628812789917,9.03,3.72,4.6,10.79
18.868878841400146,8.05,3.72,5.25,10.3
18.86979866027832,6.29,3.86,6.12,9.58
18.890248775482178,4.13,3.74,6.54,8.59
18.891296863555908,-0.14,1.14,4.48,4.62
18.90669584274292,-6.37,-0.63,1.16,6.5
18.908187866210938,-8.22,-0.14,-0.33,8.22
18.922452926635742,-2.14,0.41,-0.02,2.17
18.923892974853516,3.7,0.0,-0.54,3.73
18.938194751739502,5.95,0.93,-1.2,6.14
18.967734813690186,6.11,5.32,0.06,8.1
18.969103813171387,7.33,6.2,1.11,9.66
18.970075845718384,6.62,1.88,-0.36,6.89
18.99125385284424,4.01,0.95,0.15,4.12
18.992305755615234,2.59,-1.04,1.79,3.31
19.006821870803833,2.59,-2.18,2.18,4.02
19.008187770843506,3.38,-1.48,2.0,4.19
19.022409915924072,3.33,-0.15,1.87,3.82
19.023874759674072,2.46,0.42,1.62,2.97
19.03847074508667,1.49,0.07,1.59,2.18
19.06693172454834,0.69,-0.21,1.68,1.82
19.068246841430664,0.13,-0.13,1.53,1.54
19.069228649139404,-0.38,-0.15,1.21,1.27
19.090380668640137,-0.42,-0.14,1.29,1.36
19.09142279624939,-0.33,0.03,1.31,1.35
19.106852769851685,-0.29,0.23,0.81,0.89
19.10834264755249,-0.35,0.21,-0.37,0.55
19.122490882873535,-0.5,0.11,-1.62,1.69
19.123976707458496,-0.29,0.01,-2.02,2.04
19.138452768325806,0.51,-0.02,-1.4,1.49
19.166534900665283,1.43,-0.09,-0.7,1.59
19.167914867401123,1.7,-0.07,-0.74,1.85
19.168842792510986,1.36,0.05,-0.73,1.54
19.171162843704224,0.61,0.19,-0.46,0.78
19.172547817230225,-0.18,0.16,-0.06,0.24
19.176333904266357,-0.55,0.26,0.45,0.75
19.186433792114258,-0.74,0.29,0.84,1.15
19.196378707885742,-0.93,0.2,0.72,1.19
19.20619773864746,-0.83,0.14,0.24,0.87
19.21622586250305,-0.38,0.05,-0.44,0.58
19.25265383720398,0.16,-0.16,-0.83,0.86
19.254002809524536,0.66,-0.2,-0.58,0.9
19.255050659179688,0.78,-0.16,-0.43,0.9
19.273437976837158,0.57,-0.12,-0.38,0.69
19.274462699890137,0.35,0.0,-0.1,0.36
19.28927993774414,0.22,0.1,0.29,0.37
19.290318965911865,0.1,0.08,0.61,0.62
19.305465698242188,0.1,0.14,0.95,0.96
19.3068368434906,0.08,0.11,0.74,0.75
19.321983814239502,-0.07,0.03,0.28,0.29
19.351454734802246,-0.11,0.01,-0.21,0.23
19.35328483581543,0.07,0.01,-0.22,0.23
19.35411787033081,0.43,0.04,0.03,0.43
19.373657703399658,0.75,0.04,0.02,0.75
19.374637842178345,0.78,0.01,-0.05,0.78
19.390103816986084,0.56,0.08,0.06,0.56
19.39151096343994,0.24,0.18,0.25,0.39
19.405741691589355,0.0,0.36,0.36,0.5
19.407193660736084,-0.11,0.4,0.34,0.53
19.42201280593872,-0.28,0.29,0.17,0.43
19.424505710601807,-0.5,0.14,-0.1,0.52
19.466609001159668,-0.58,0.04,-0.16,0.6
19.467760801315308,-0.56,0.21,-0.34,0.68
19.468721866607666,-0.54,0.37,-0.78,1.01
19.470273971557617,-0.76,0.38,-1.05,1.35
19.474021911621094,-1.1,0.38,-1.04,1.56
19.483969688415527,-1.55,0.36,-1.03,1.89
19.494135856628418,-1.73,0.47,-0.89,2.0
19.504315853118896,-1.77,0.6,-0.85,2.05
19.514251708984375,-1.89,0.78,-0.98,2.26
19.524016857147217,-2.06,0.95,-1.11,2.52
19.55434799194336,-2.35,1.08,-1.21,2.85
19.555511951446533,-2.74,1.27,-1.45,3.35
19.556492805480957,-2.86,1.6,-1.93,3.8
19.573744773864746,-2.73,2.22,-2.47,4.29
19.574787855148315,-3.09,3.89,-2.39,5.51
19.590260982513428,-2.69,4.78,-1.87,5.79
19.59343194961548,-2.59,4.23,-2.1,5.38
19.60582685470581,-2.97,3.96,-1.92,5.3
19.613319873809814,-3.18,3.75,-1.56,5.15
19.6232168674469,-3.53,3.94,-1.67,5.54
19.6561336517334,-4.28,4.46,-2.16,6.54
19.657405853271484,-5.06,4.8,-2.59,7.43
19.658421993255615,-5.67,4.86,-2.86,7.99
19.674139976501465,-6.11,4.94,-3.11,8.45
19.675201892852783,-6.58,4.76,-3.48,8.83
19.690452814102173,-6.54,4.15,-3.93,8.68
19.692770957946777,-5.67,3.42,-4.15,7.81
19.705764770507812,-4.4,2.77,-4.42,6.82
19.712892770767212,-2.54,1.9,-5.03,5.94
19.72245693206787,-1.9,3.12,-5.44,6.55
19.755703926086426,-2.72,6.12,-5.66,8.76
19.757070779800415,-2.59,8.26,-4.3,9.66
19.75810980796814,1.43,11.16,-1.08,11.3
19.77416467666626,3.4,9.4,-0.57,10.01
19.77523183822632,0.98,5.03,-2.62,5.75
19.79047966003418,-2.16,3.81,-4.85,6.53
19.79199481010437,-4.59,1.57,-5.67,7.46
19.80596685409546,-6.05,-3.1,-5.06,8.47
19.811668872833252,-3.15,-4.54,-3.47,6.52
19.822279930114746,2.31,-2.25,-1.96,3.77
19.859124660491943,-0.58,-3.06,-2.26,3.84
19.86095666885376,-5.47,-3.6,-3.47,7.41
19.861989974975586,-9.06,-3.11,-3.78,10.29
19.87405300140381,-10.4,-3.02,-2.94,11.22
19.875112771987915,-9.95,-3.28,-1.49,10.58
19.890543937683105,-8.56,-4.0,-0.2,9.45
19.89201593399048,-7.34,-4.97,0.45,8.87
19.906085968017578,-6.73,-5.31,0.47,8.58
19.91111469268799,-6.51,-4.93,0.2,8.16
19.922205924987793,-6.41,-4.36,-0.17,7.75
19.959256649017334,-6.34,-4.02,-0.47,7.52
19.96054983139038,-6.31,-3.79,-0.5,7.37
19.961540699005127,-6.26,-3.58,-0.29,7.21
19.974650859832764,-5.95,-3.21,0.14,6.76
19.975709915161133,-5.32,-2.82,0.45,6.03
19.990368843078613,-4.7,-2.32,0.21,5.24
19.991424798965454,-4.23,-1.72,-0.73,4.62
20.00601077079773,-3.57,-0.99,-1.73,4.08
20.01026678085327,-2.42,-0.2,-2.45,3.44
20.02234697341919,-1.0,0.46,-2.64,2.86
20.057588815689087,0.33,1.29,-2.17,2.54
20.05898094177246,1.29,2.01,-1.21,2.67
20.059956789016724,2.73,2.77,-0.26,3.89
20.074553966522217,4.06,3.22,0.05,5.18
20.075599670410156,3.75,3.5,0.09,5.13
20.09057092666626,2.48,4.56,0.6,5.22
20.09206771850586,2.13,6.05,1.56,6.6
20.106207847595215,3.5,6.79,2.33,7.98
20.10960078239441,5.42,6.3,1.67,8.47
20.122442722320557,6.98,6.21,0.59,9.36
20.15708875656128,8.85,6.54,0.68,11.02
20.158439874649048,11.11,6.01,1.11,12.68
20.15945291519165,13.16,4.77,1.6,14.08
20.174123764038086,12.93,4.94,2.08,13.99
20.1752028465271,10.53,8.06,2.51,13.49
20.190364837646484,11.72,5.35,3.24,13.28
20.19143772125244,11.89,5.29,5.08,13.97
20.2060809135437,11.01,4.23,5.53,13.02
20.208863735198975,10.13,3.52,5.46,12.03
20.222371816635132,9.51,3.71,5.66,11.67
20.22877597808838,8.72,3.98,5.78,11.19
20.26686191558838,7.29,3.86,5.4,9.85
20.268019676208496,3.68,1.24,3.19,5.02
20.26898193359375,-2.79,-0.88,-0.12,2.92
20.271264791488647,-6.81,-0.07,-2.32,7.19
20.27799367904663,-2.66,1.03,-1.29,3.13
20.288161754608154,3.17,0.39,-1.03,3.35
20.29831600189209,4.61,2.4,0.57,5.22
20.308159828186035,6.88,5.49,1.8,8.98
20.317903995513916,9.3,1.61,0.1,9.43
20.3279287815094,7.01,1.88,0.63,7.28
20.361685752868652,4.42,0.4,2.13,4.92
20.363014698028564,2.8,-2.2,3.07,4.7
20.364030838012695,2.38,-2.35,3.51,4.84
20.37445378303528,1.84,-0.79,3.06,3.65
20.37725281715393,1.4,0.36,2.77,3.12
20.390232801437378,1.14,0.29,1.84,2.18
20.39759588241577,1.26,-0.07,1.18,1.72
20.407298803329468,1.22,-0.26,1.1,1.66
20.417271852493286,0.42,-0.18,0.98,1.08
20.427303791046143,-0.06,0.09,1.0,1.0
20.46135187149048,0.21,0.18,0.51,0.58
20.46267080307007,0.6,0.14,-0.69,0.92
20.463709831237793,0.79,0.11,-1.59,1.77
20.474507808685303,0.92,0.17,-1.55,1.81
20.476565837860107,0.7,0.12,-0.94,1.17
20.49047565460205,0.3,0.0,-0.43,0.52
20.496845722198486,0.14,-0.01,-0.05,0.14
20.50653576850891,0.1,0.05,0.19,0.22
20.516796827316284,0.11,0.04,0.25,0.27
20.526442766189575,0.2,0.08,0.22,0.3
20.560258865356445,0.23,0.13,0.2,0.33
20.561614990234375,0.15,0.11,0.22,0.28
20.562588691711426,0.12,0.13,0.15,0.23
20.574695825576782,0.14,-0.02,0.03,0.14
20.57570171356201,0.33,-0.1,-0.03,0.34
20.590519905090332,0.54,-0.07,0.02,0.54
20.595508813858032,0.48,0.12,0.13,0.51
20.60546588897705,0.21,0.31,-0.31,0.48
20.615798950195312,0.04,0.29,-0.68,0.74
20.62579083442688,-0.14,0.11,-0.42,0.45
20.66309881210327,-0.4,0.2,-0.11,0.46
20.66444492340088,-0.61,0.29,-0.49,0.83
20.66554594039917,-0.89,0.24,-0.81,1.22
20.674654960632324,-0.95,0.24,-0.67,1.18
20.675644874572754,-0.73,0.26,-0.23,0.8
20.690542697906494,-0.46,0.25,0.14,0.54
20.694997787475586,-0.25,0.19,0.22,0.38
20.706146717071533,-0.1,0.14,0.12,0.2
20.715160846710205,0.0,0.13,0.25,0.28
20.724828720092773,0.08,0.11,0.33,0.35
20.763670921325684,0.15,0.09,0.09,0.19
20.764999866485596,0.14,0.08,-0.24,0.28
20.76607894897461,-0.03,0.07,-0.52,0.52
20.771301746368408,-0.12,0.34,-0.54,0.64
20.77428388595581,-0.28,0.59,-0.27,0.7
20.79073977470398,-0.37,0.69,0.04,0.78
20.79417896270752,-0.46,0.59,0.18,0.76
20.804661750793457,-0.65,0.52,-0.08,0.83
20.814189910888672,-0.9,0.59,-0.24,1.1
20.824219703674316,-1.25,0.61,-0.42,1.45
20.86308479309082,-1.52,0.53,-0.57,1.7
20.864500999450684,-1.76,0.58,-0.86,2.04
20.86558485031128,-1.95,0.79,-1.22,2.43
20.87479591369629,-2.09,1.08,-1.36,2.71
20.8758327960968,-2.14,1.64,-1.19,2.94
20.89066982269287,-1.87,1.82,-1.11,2.83
20.893390655517578,-2.07,1.64,-1.14,2.87
20.906306743621826,-2.39,1.84,-1.27,3.27
20.913436889648438,-2.67,2.23,-1.67,3.85
20.923317909240723,-2.77,2.98,-1.89,4.48
20.962742805480957,-2.79,3.49,-2.11,4.94
20.96414279937744,-2.96,3.49,-2.39,5.16
20.965121746063232,-3.16,3.56,-2.21,5.24
20.974382877349854,-3.49,3.72,-1.95,5.46
20.97545576095581,-4.04,3.7,-1.84,5.77
20.990992784500122,-4.69,3.96,-1.94,6.43
20.992554664611816,-5.21,4.45,-2.41,7.26
21.006399869918823,-5.71,4.61,-2.72,7.82
21.012959003448486,-5.86,4.28,-2.91,7.81
21.02281665802002,-5.59,3.81,-3.33,7.54
21.03281593322754,-5.22,3.62,-3.95,7.48
21.065837860107422,-4.58,3.44,-4.45,7.25
21.067031860351562,-3.45,2.64,-4.91,6.55
21.06832480430603,-2.41,2.16,-5.26,6.17
21.072019815444946,-2.55,4.41,-5.1,7.2
21.09098982810974,-2.77,7.12,-4.28,8.75
21.092037677764893,0.17,10.03,-1.61,10.15
21.10637664794922,3.07,11.75,-0.41,12.15
21.111978769302368,1.66,7.8,-1.55,8.12
21.122848987579346,-1.33,5.04,-3.66,6.36
21.132032871246338,-3.9,3.28,-4.82,7.01
21.16678786277771,-5.6,-0.26,-5.2,7.64
21.167940855026245,-6.37,-4.53,-4.85,9.19
21.16917586326599,-1.88,-4.11,-3.25,5.56
21.171376705169678,2.64,-1.41,-1.54,3.36
21.181262969970703,-0.89,-2.33,-1.78,3.06
21.191388845443726,-5.51,-2.72,-2.93,6.8
21.201124668121338,-8.74,-2.71,-3.05,9.64
21.21104097366333,-9.84,-3.06,-2.05,10.5
21.22143578529358,-9.53,-3.59,-0.68,10.2
21.23126792907715,-8.63,-4.33,0.41,9.66
21.263738870620728,-7.78,-5.04,0.97,9.32
21.26507878303528,-7.27,-5.21,0.91,8.99
21.266124725341797,-6.94,-4.97,0.61,8.55
21.27159881591797,-6.6,-4.52,0.32,8.0
21.280786991119385,-6.15,-4.23,0.06,7.46
21.291010856628418,-5.72,-4.06,0.01,7.01
21.300591945648193,-5.55,-3.85,0.14,6.75
21.31043291091919,-5.67,-3.43,0.35,6.63
21.320685863494873,-5.78,-2.67,0.4,6.37
21.33033800125122,-5.72,-1.91,-0.23,6.03
21.36211085319519,-5.02,-1.01,-0.9,5.19
21.363438844680786,-3.45,-0.36,-1.39,3.73
21.364454746246338,-1.4,-0.28,-1.84,2.32
21.373511791229248,0.45,0.12,-1.54,1.6
21.38013982772827,1.6,0.89,-0.59,1.92
21.39079999923706,2.09,1.43,0.16,2.53
21.399518966674805,2.02,1.9,0.65,2.84
21.410147666931152,1.51,2.72,1.12,3.3
21.420026779174805,1.26,3.92,1.53,4.39
21.42980194091797,1.67,5.13,1.9,5.71
21.467400789260864,2.72,6.17,1.9,7.0
21.468689918518066,4.27,6.7,1.42,8.07
21.469660758972168,5.63,6.96,0.76,8.98
21.472038745880127,6.98,7.55,0.7,10.3
21.47945284843445,8.24,9.27,0.56,12.41
21.489221811294556,8.4,14.05,-0.01,16.36
21.49921679496765,14.06,7.45,-1.26,15.96
21.509042739868164,17.61,4.31,1.39,18.18
21.519219875335693,15.42,2.93,3.07,15.99
21.529109954833984,12.57,3.31,3.45,13.44
21.565454959869385,11.36,3.32,3.9,12.46
21.566659927368164,11.13,3.77,4.19,12.47
21.567649841308594,10.72,4.05,4.34,12.25
21.57087469100952,9.39,4.41,4.51,11.31
21.59117078781128,7.7,3.56,4.56,9.63
21.592163801193237,4.26,-0.51,2.4,4.91
21.606278896331787,-1.57,-3.21,-0.86,3.67
21.607903003692627,-4.41,-2.2,-2.42,5.49
21.623177766799927,0.33,1.08,-0.95,1.47
21.62816286087036,4.63,3.39,-0.01,5.73
21.666818857192993,5.58,7.01,1.48,9.08
21.667964935302734,7.72,5.6,1.14,9.6
21.669189929962158,6.93,0.86,-0.34,6.99
21.670981884002686,4.0,1.86,0.73,4.47
21.677565813064575,2.02,0.07,2.09,2.9
21.687782764434814,1.37,-2.27,2.23,3.46
21.697829723358154,1.97,-1.9,2.3,3.57
21.707464694976807,2.33,-0.67,2.17,3.25
21.71757698059082,2.32,-0.01,2.16,3.16
21.72764277458191,1.82,0.12,2.14,2.81
21.76238775253296,1.09,-0.25,1.86,2.17
21.76364278793335,0.8,-0.44,1.54,1.79
21.764394760131836,0.71,-0.28,1.22,1.43
21.775615692138672,0.22,-0.3,0.59,0.69
21.776723861694336,-0.29,-0.18,0.06,0.34
21.791253805160522,-0.54,0.16,-0.09,0.57
21.79672384262085,-0.73,0.37,-0.17,0.83
21.806550979614258,-0.79,0.35,-0.41,0.95
21.816877841949463,-0.65,0.27,-0.86,1.11
21.826722860336304,-0.36,0.24,-1.35,1.41
21.83675980567932,-0.02,0.24,-1.58,1.59
21.8678879737854,0.28,0.25,-1.42,1.46
21.86905288696289,0.61,-0.02,-1.0,1.17
21.87000274658203,0.82,-0.14,-0.44,0.94
21.892054796218872,0.55,0.05,-0.02,0.55
21.89305281639099,0.08,0.25,0.17,0.31
21.907978773117065,-0.22,0.27,0.35,0.49
21.908974647521973,-0.33,0.12,0.52,0.62
21.924831867218018,-0.16,-0.02,0.69,0.7
21.92623996734619,0.25,-0.05,0.9,0.93
21.94053077697754,0.52,-0.05,0.72,0.88
21.968053817749023,0.57,-0.05,0.23,0.61
21.969353675842285,0.66,0.05,-0.13,0.67
21.97033381462097,0.67,-0.02,-0.35,0.75
21.991827964782715,0.5,0.03,-0.3,0.58
21.99288272857666,0.26,0.01,-0.17,0.31
22.00773787498474,0.01,-0.04,0.04,0.05
22.008781909942627,-0.21,0.04,0.28,0.35
22.02373480796814,-0.31,0.12,0.26,0.42
22.025166988372803,-0.21,0.15,0.2,0.32
22.039691925048828,-0.03,0.18,-0.06,0.19
22.06774377822876,0.05,0.17,-0.14,0.22
22.069008827209473,0.05,0.17,-0.03,0.17
22.069913864135742,0.02,0.11,0.01,0.11
22.074511766433716,0.05,0.11,0.07,0.13
22.084465980529785,0.05,0.17,0.21,0.27
22.094603776931763,-0.05,0.19,0.31,0.36
22.104498863220215,-0.2,0.16,0.31,0.4
22.114418983459473,-0.35,0.25,0.12,0.44
22.124464988708496,-0.44,0.25,-0.36,0.62
22.13463282585144,-0.54,0.28,-0.94,1.11
22.16569685935974,-0.63,0.49,-1.43,1.63
22.16684079170227,-0.83,0.52,-1.48,1.77
22.16795778274536,-1.31,0.49,-1.38,1.96
22.173658847808838,-1.72,0.57,-1.37,2.27
22.190818786621094,-1.99,0.95,-1.06,2.44
22.193543910980225,-2.36,0.95,-0.95,2.71
22.206491947174072,-2.78,0.81,-1.11,3.1
22.21385884284973,-2.68,0.88,-0.98,2.98
22.22373390197754,-2.42,1.1,-0.71,2.75
22.233757972717285,-2.16,1.31,-0.75,2.63
22.27116584777832,-1.86,1.25,-0.9,2.41
22.27236270904541,-1.68,1.67,-0.77,2.49
22.273367881774902,-1.38,2.48,-1.02,3.01
22.292165756225586,-1.68,3.67,-1.91,4.46
22.293198823928833,-1.42,4.12,-1.45,4.59
22.307713985443115,-1.72,3.44,-1.2,4.02
22.308732986450195,-2.38,3.13,-1.48,4.2
22.323758840560913,-2.6,2.95,-1.56,4.23
22.325257778167725,-2.96,2.98,-1.78,4.56
22.339807987213135,-3.69,3.21,-2.23,5.37
22.369272708892822,-4.33,3.37,-2.65,6.09
22.370587825775146,-4.93,3.87,-3.08,6.98
22.371615886688232,-5.57,4.32,-3.56,7.89
22.392221927642822,-5.84,4.21,-3.51,8.0
22.393268823623657,-5.74,3.95,-3.42,7.76
22.408004760742188,-5.52,3.61,-3.72,7.57
22.409011840820312,-5.02,2.84,-3.88,6.95
22.42380666732788,-3.89,1.96,-3.88,5.83
22.425161838531494,-2.97,2.09,-3.87,5.3
22.440133810043335,-2.81,3.29,-4.06,5.93
22.469682693481445,-3.18,5.4,-3.96,7.41
22.471014976501465,-2.46,8.11,-2.39,8.8
22.472025871276855,1.27,11.79,-0.01,11.85
22.49213695526123,3.03,9.96,-0.3,10.41
22.49315595626831,1.45,5.49,-2.71,6.29
22.50830888748169,-1.05,3.77,-5.04,6.38
22.5097336769104,-3.18,1.4,-6.13,7.04
22.523897647857666,-4.86,-2.22,-6.46,8.38
22.525375843048096,-3.26,-3.76,-5.27,7.24
22.53983497619629,1.76,-2.08,-3.31,4.28
22.5695378780365,-0.19,-2.19,-3.05,3.75
22.57096290588379,-5.09,-2.08,-4.36,7.01
22.57197666168213,-8.77,-1.74,-4.88,10.18
22.591609001159668,-9.88,-2.04,-3.36,10.63
22.592657804489136,-9.42,-2.81,-1.23,9.9
22.608357906341553,-8.48,-3.87,0.23,9.32
22.60985279083252,-7.73,-4.68,0.9,9.08
22.623915672302246,-7.3,-4.9,0.87,8.83
22.625289916992188,-6.95,-4.82,0.68,8.48
22.640049934387207,-6.76,-4.74,0.65,8.28
22.641494750976562,-6.86,-4.76,0.76,8.38
22.687071800231934,-7.2,-4.68,0.87,8.63
22.688207864761353,-7.4,-4.55,0.63,8.7
22.68927764892578,-7.29,-4.46,0.26,8.55
22.70871067047119,-6.65,-4.04,0.15,7.78
22.709775924682617,-5.61,-3.51,-0.02,6.61
22.72512984275818,-4.46,-3.02,-0.14,5.38
22.726589679718018,-3.41,-2.42,0.07,4.18
22.7403507232666,-2.56,-1.93,-0.02,3.2
22.741756916046143,-1.81,-1.22,-0.11,2.18
22.75687885284424,-1.14,-0.02,0.15,1.14
22.788092851638794,-0.63,1.19,0.5,1.43
22.789485931396484,-0.18,2.25,1.0,2.46
22.79049587249756,0.25,3.29,1.46,3.6
22.808767795562744,0.82,4.55,1.67,4.91
22.809815883636475,1.66,5.79,1.63,6.23
22.82404375076294,2.72,6.88,1.4,7.52
22.825535774230957,3.75,7.59,0.85,8.5
22.84017276763916,4.32,7.99,0.1,9.08
22.841620922088623,5.34,8.92,-0.39,10.4
22.856732845306396,7.53,8.96,-0.43,11.71
22.886080741882324,7.9,11.69,-0.23,14.11
22.887369871139526,9.41,11.94,-0.72,15.21
22.88835096359253,14.38,6.08,0.34,15.61
22.910258769989014,14.64,2.51,2.67,15.09
22.911274909973145,12.08,1.49,3.04,12.54
22.925602912902832,10.0,2.5,2.74,10.66
22.9270339012146,9.29,2.91,2.39,10.02
22.940759658813477,9.23,3.13,1.99,9.94
22.942216873168945,9.13,2.9,1.81,9.74
22.957027912139893,8.62,2.7,1.83,9.21
22.987185955047607,8.52,2.47,2.16,9.12
22.988571882247925,8.46,0.86,2.1,8.75
22.98960781097412,6.35,-1.78,0.92,6.65
23.008530855178833,1.6,-2.88,-0.81,3.39
23.00956392288208,-1.88,-2.06,-2.05,3.46
23.025003910064697,-0.39,1.65,-1.51,2.27
23.0260329246521,3.09,7.31,1.49,8.07
23.040522813796997,7.95,8.6,2.95,12.07
23.041977882385254,8.35,0.33,0.77,8.39
23.056907653808594,3.54,-0.75,-0.24,3.62
23.086320877075195,2.71,-0.19,1.15,2.95
23.08761477470398,2.84,-1.37,2.22,3.85
23.088581800460815,2.41,-1.55,3.1,4.22
23.108778953552246,1.33,-0.5,2.76,3.1
23.10983180999756,-0.01,-0.11,2.39,2.39
23.125325679779053,-0.02,-0.15,2.64,2.64
23.12632465362549,1.02,0.11,3.37,3.52
23.14088487625122,1.43,-0.28,2.49,2.88
23.142356872558594,1.33,-0.73,0.75,1.69
23.15701985359192,1.03,-0.42,-0.08,1.11
23.18499183654785,0.46,0.09,-0.32,0.56
23.186277866363525,0.06,0.23,-0.5,0.55
23.187076807022095,0.3,0.25,-0.44,0.58
23.189234733581543,0.69,0.29,-0.6,0.95
23.190428733825684,0.81,0.17,-0.91,1.23
23.19609785079956,0.88,0.06,-0.89,1.25
23.206110954284668,0.83,-0.01,-0.94,1.25
23.2160906791687,0.64,-0.03,-0.89,1.09
23.226096868515015,0.43,0.0,-0.64,0.77
23.235841751098633,0.14,0.08,-0.13,0.2
23.271134853363037,-0.1,0.11,0.41,0.43
23.272348880767822,-0.09,0.1,0.76,0.77
23.27315378189087,0.03,0.14,0.63,0.64
23.29244899749756,0.19,0.26,0.3,0.44
23.293471813201904,0.35,0.19,0.15,0.42
23.308148860931396,0.44,0.04,0.0,0.44
23.309151649475098,0.44,-0.09,-0.15,0.47
23.32383966445923,0.51,-0.22,0.07,0.55
23.325005769729614,0.38,0.01,0.32,0.49
23.34019184112549,0.09,0.34,-0.06,0.35
23.373878955841064,-0.29,0.33,-0.78,0.89
23.375229835510254,-0.49,0.2,-0.9,1.04
23.376232862472534,-0.39,-0.01,-0.6,0.71
23.392502784729004,-0.23,-0.19,-0.38,0.48
23.39359188079834,-0.02,-0.09,-0.09,0.12
23.408135890960693,0.16,0.03,0.19,0.25
23.409188747406006,0.22,0.05,0.32,0.39
23.424383878707886,0.25,-0.01,0.36,0.43
23.425805807113647,0.33,-0.02,0.53,0.62
23.440300941467285,0.38,-0.02,0.65,0.75
23.444568872451782,0.52,0.0,0.6,0.79
23.486023902893066,0.63,-0.01,0.48,0.79
23.487061977386475,0.62,-0.04,0.37,0.72
23.488090991973877,0.54,0.08,0.24,0.59
23.48997187614441,0.44,0.19,0.16,0.5
23.493847846984863,0.32,0.28,0.07,0.43
23.504202842712402,0.17,0.44,-0.02,0.47
23.514094829559326,0.01,0.55,-0.19,0.58
23.523883819580078,-0.22,0.49,-0.46,0.7
23.53408980369568,-0.56,0.37,-0.79,1.03
23.54394769668579,-0.98,0.21,-0.93,1.36
23.5759596824646,-1.37,0.11,-1.04,1.72
23.577266693115234,-1.7,0.37,-1.2,2.11
23.57823085784912,-2.03,0.62,-1.3,2.48
23.592971801757812,-2.41,0.81,-1.36,2.88
23.59397268295288,-2.64,0.98,-1.42,3.15
23.608659744262695,-2.57,1.21,-1.35,3.14
23.612972736358643,-2.58,1.39,-1.08,3.12
23.62394881248474,-2.27,1.74,-1.33,3.15
23.633264780044556,-2.16,1.85,-1.82,3.37
23.642974853515625,-2.74,2.28,-1.75,3.97
23.67520785331726,-2.48,2.88,-1.1,3.95
23.676508903503418,-2.35,2.79,-1.19,3.83
23.677520751953125,-2.79,3.42,-1.35,4.61
23.692731857299805,-2.93,3.8,-1.65,5.07
23.693756818771362,-2.78,3.48,-1.65,4.74
23.708587884902954,-3.08,3.13,-1.79,4.74
23.71226167678833,-3.91,3.34,-1.88,5.47
23.72261667251587,-4.64,3.69,-1.81,6.19
23.732507705688477,-4.94,3.83,-2.3,6.66
23.742302894592285,-5.63,4.28,-2.98,7.67
23.775646686553955,-6.43,4.75,-3.43,8.69
23.777047872543335,-6.75,4.54,-3.75,8.95
23.778075695037842,-6.9,4.3,-4.26,9.17
23.792667865753174,-6.67,4.03,-4.2,8.85
23.79375171661377,-5.44,3.33,-3.74,7.39
23.809184789657593,-3.82,2.54,-3.85,5.98
23.81154179573059,-2.78,2.65,-3.89,5.46
23.824480772018433,-2.67,4.42,-3.98,6.51
23.831833839416504,-2.18,6.01,-3.87,7.47
23.841420650482178,0.0,8.96,-1.14,9.03
23.88073968887329,2.62,10.45,0.98,10.81
23.88211178779602,1.34,6.75,-0.37,6.89
23.883137702941895,-1.84,4.55,-3.21,5.86
23.89448881149292,-4.64,3.48,-5.17,7.76
23.89552879333496,-6.33,0.11,-5.63,8.47
23.908706665039062,-6.65,-4.89,-5.05,9.67
23.910754680633545,-1.65,-4.02,-3.29,5.45
23.924519777297974,2.0,-0.73,-1.52,2.61
23.930823802947998,-1.32,-1.42,-1.93,2.73
23.940805912017822,-5.16,-1.87,-3.55,6.53
23.980299949645996,-7.44,-1.96,-3.97,8.65
23.98207187652588,-8.34,-2.66,-3.32,9.36
23.983065843582153,-8.04,-3.58,-2.12,9.05
23.99143385887146,-6.87,-4.91,-1.31,8.54
23.992490768432617,-5.73,-5.64,-1.21,8.13
24.008578777313232,-5.61,-5.38,-1.19,7.86
24.009882926940918,-6.06,-4.62,-0.99,7.68
24.024670839309692,-6.41,-4.49,-0.87,7.87
24.03024387359619,-6.36,-4.66,-0.45,7.89
24.040454864501953,-6.05,-4.61,0.37,7.61
24.078824996948242,-6.09,-4.27,0.84,7.48
24.080211877822876,-6.32,-3.55,0.71,7.28
24.081214904785156,-6.19,-2.76,0.35,6.78
24.092787742614746,-5.19,-2.05,0.27,5.58
24.093829870224,-3.87,-1.59,0.69,4.24
24.108569860458374,-3.16,-1.56,0.98,3.65
24.109529972076416,-3.0,-1.3,0.98,3.41
24.124696731567383,-2.5,-0.38,0.68,2.61
24.129559993743896,-1.54,0.74,0.24,1.72
24.140426874160767,-0.25,2.11,0.15,2.13
24.17711591720581,1.21,3.43,0.2,3.64
24.178433895111084,2.14,4.21,0.27,4.73
24.17942786216736,2.39,4.85,0.57,5.43
24.193060874938965,2.74,5.72,0.91,6.4
24.194146871566772,3.44,6.63,0.89,7.52
24.208680868148804,4.81,7.44,0.47,8.87
24.20971179008484,6.89,7.95,0.06,10.52
24.22470188140869,9.09,7.85,-0.38,12.01
24.228554725646973,10.98,7.01,-0.59,13.04
24.24062180519104,11.89,5.74,-0.31,13.2
24.248581886291504,10.05,7.17,0.62,12.36
24.28568172454834,9.82,6.63,1.49,11.94
24.28683876991272,12.55,3.07,2.1,13.08
24.2878098487854,12.59,3.19,3.59,13.47
24.289426803588867,11.2,2.98,3.75,12.18
24.29822587966919,9.92,2.71,3.77,10.95
24.307881832122803,9.28,2.85,3.83,10.43
24.317893981933594,8.99,3.03,3.9,10.25
24.327767848968506,8.97,3.32,4.57,10.6
24.3380126953125,9.01,3.26,5.35,10.97
24.347818851470947,7.75,1.54,4.85,9.27
24.380433797836304,2.52,-1.68,1.96,3.6
24.38172197341919,-3.92,-2.21,-0.77,4.56
24.382728815078735,-4.89,0.27,-0.47,4.91
24.39110779762268,1.42,4.33,1.48,4.79
24.397361755371094,6.22,6.37,1.65,9.05
24.408801794052124,8.18,6.41,1.37,10.48
24.416852951049805,8.11,1.47,-0.5,8.25
24.426978826522827,4.58,1.37,-0.08,4.78
24.437033653259277,2.54,0.57,2.29,3.46
24.44691276550293,1.6,-1.91,2.82,3.76
24.478091716766357,1.81,-2.37,2.12,3.65
24.479423999786377,2.03,-1.11,1.56,2.79
24.48043179512024,2.02,-0.07,1.45,2.48
24.493568897247314,1.56,0.28,1.55,2.21
24.496396780014038,0.66,0.09,1.1,1.28
24.508721828460693,-0.32,-0.35,-0.09,0.48
24.516441822052002,-0.84,-0.06,-0.92,1.24
24.526054859161377,-0.92,0.4,-0.93,1.36
24.536324977874756,-0.81,0.19,-0.55,0.99
24.546339988708496,-0.67,-0.14,-0.33,0.75
24.578276872634888,-0.57,-0.05,-0.15,0.59
24.5796799659729,-0.5,0.17,-0.25,0.58
24.580678939819336,-0.22,0.22,-0.98,1.02
24.593101978302002,0.73,0.07,-1.6,1.76
24.595701694488525,1.83,-0.01,-1.39,2.29
24.607353687286377,2.16,0.01,-0.65,2.25
24.615696907043457,1.43,-0.09,0.24,1.45
24.625316858291626,0.2,-0.12,0.86,0.89
24.63563084602356,-0.41,0.03,0.95,1.03
24.64562487602234,-0.15,0.09,0.88,0.89
24.683323860168457,0.48,-0.13,0.86,0.99
24.68466281890869,1.04,-0.32,0.76,1.32
24.685662746429443,1.26,-0.31,0.48,1.38
24.689300775527954,1.19,-0.21,0.28,1.24
24.70903182029724,1.03,-0.13,0.23,1.06
24.71006488800049,0.91,-0.02,0.21,0.93
24.724432945251465,0.77,0.04,0.28,0.82
24.725453853607178,0.46,0.11,0.67,0.82
24.74084186553955,0.17,0.12,0.55,0.58
24.74479389190674,-0.11,0.04,0.12,0.16
24.785152912139893,-0.33,0.0,-0.12,0.35
24.786292791366577,-0.39,0.08,-0.26,0.47
24.787601947784424,-0.37,0.17,-0.25,0.47
24.789074897766113,-0.3,0.27,-0.28,0.49
24.794164657592773,-0.17,0.31,-0.34,0.49
24.80430269241333,-0.04,0.35,-0.27,0.44
24.814157962799072,0.03,0.43,-0.3,0.52
24.82413077354431,0.0,0.45,-0.53,0.69
24.833813667297363,0.0,0.44,-0.57,0.72
24.84418487548828,-0.21,0.31,-0.49,0.61
24.880573749542236,-0.7,0.21,-0.51,0.89
24.881722927093506,-1.11,0.27,-0.51,1.25
24.882529735565186,-1.22,0.37,-0.23,1.29
24.893878936767578,-1.28,0.4,-0.29,1.37
24.894938945770264,-1.37,0.47,-0.63,1.57
24.90919589996338,-1.66,0.53,-1.05,2.03
24.91318368911743,-1.7,0.47,-1.1,2.07
24.924745798110962,-1.64,0.5,-0.88,1.92
24.933274745941162,-1.81,0.48,-0.81,2.04
24.943196773529053,-1.83,0.61,-0.81,2.09
24.98046875,-1.89,0.72,-0.91,2.21
24.98171377182007,-2.02,0.72,-1.04,2.38
24.982645988464355,-2.13,0.8,-1.28,2.61
24.993518829345703,-1.97,0.94,-1.49,2.64
24.994566917419434,-1.75,1.42,-1.4,2.65
25.00919485092163,-1.36,2.48,-1.28,3.1
25.012452840805054,-1.13,3.94,-1.32,4.3
25.024600982666016,-0.77,4.05,-1.1,4.26
25.03275489807129,-1.16,3.41,-0.88,3.7
25.04242992401123,-2.07,3.12,-1.12,3.9
25.052522659301758,-2.76,3.06,-1.26,4.3
25.08579969406128,-3.33,3.09,-1.52,4.79
25.08697485923767,-3.93,3.44,-2.01,5.59
25.087962865829468,-4.38,3.95,-2.57,6.43
25.091938972473145,-4.81,4.33,-3.19,7.21
25.102069854736328,-5.43,4.54,-3.84,8.05
25.112010955810547,-6.06,4.71,-4.2,8.74
25.121924877166748,-6.24,4.7,-4.42,8.97
25.13204574584961,-5.79,4.02,-4.4,8.3
25.141828775405884,-5.1,3.1,-4.19,7.29
25.151773929595947,-4.15,2.28,-4.39,6.45
25.185186862945557,-3.15,2.54,-4.47,6.02
25.18635582923889,-2.58,3.79,-4.37,6.33
25.1876277923584,-2.53,5.96,-4.49,7.87
25.191237926483154,-1.2,8.92,-3.15,9.53
25.201205730438232,1.96,12.06,-1.61,12.32
25.21128487586975,1.51,9.3,-2.21,9.67
25.22111177444458,-1.53,5.07,-3.67,6.44
25.2309308052063,-4.47,3.18,-4.62,7.17
25.24114179611206,-6.3,0.95,-4.91,8.04
25.251088857650757,-7.35,-3.2,-5.33,9.62
25.283386707305908,-4.53,-4.68,-3.94,7.61
25.284849882125854,1.15,-1.25,-1.66,2.37
25.285851001739502,-0.34,-1.23,-0.67,1.44
25.290300846099854,-4.35,-2.21,-1.93,5.24
25.300439834594727,-7.49,-2.46,-2.75,8.34
25.310367822647095,-9.09,-2.91,-2.07,9.76
25.320331811904907,-9.18,-3.38,-0.84,9.81
25.330151796340942,-8.21,-3.93,0.16,9.1
25.34052586555481,-7.0,-4.85,0.71,8.54
25.350268840789795,-6.15,-5.36,0.65,8.18
25.381863832473755,-5.76,-5.17,0.24,7.74
25.383211851119995,-5.59,-4.84,-0.17,7.39
25.38428783416748,-5.57,-4.51,-0.48,7.18
25.3901686668396,-5.56,-3.98,-0.59,6.86
25.399772882461548,-5.41,-3.54,-0.34,6.47
25.409570693969727,-5.23,-3.06,0.12,6.06
25.41945171356201,-5.0,-2.51,0.15,5.59
25.429463863372803,-4.68,-2.08,-0.16,5.12
25.439807891845703,-3.94,-1.67,-0.61,4.32
25.44962477684021,-2.68,-1.28,-1.1,3.16
25.486722946166992,-1.09,-0.79,-1.07,1.71
25.488009929656982,0.18,-0.3,-0.7,0.78
25.488988876342773,0.59,0.06,-0.39,0.7
25.509731769561768,0.16,0.38,0.24,0.47
25.510819911956787,-0.19,1.28,1.33,1.85
25.526444911956787,-0.14,2.31,2.09,3.11
25.52747869491577,0.07,3.13,2.55,4.03
25.54164171218872,0.55,3.99,3.08,5.07
25.543075799942017,1.34,4.79,2.8,5.7
25.558117866516113,2.27,5.89,1.75,6.55
25.587016820907593,4.18,7.37,1.08,8.54
25.58829975128174,6.99,8.17,0.61,10.76
25.589308738708496,10.13,8.23,0.39,13.05
25.610134840011597,12.79,7.55,0.43,14.85
25.611188888549805,13.19,7.34,0.6,15.1
25.626089811325073,11.64,9.46,0.91,15.02
25.627171993255615,14.48,5.13,1.62,15.44
25.641859769821167,15.16,4.77,4.06,16.4
25.64333486557007,13.88,3.71,5.2,15.27
25.658487796783447,12.19,2.37,5.08,13.41
25.687443733215332,10.89,1.83,5.1,12.16
25.688735961914062,9.95,1.54,4.71,11.11
25.689746856689453,9.52,2.15,4.23,10.63
25.709645748138428,8.32,1.55,2.48,8.81
25.710701942443848,2.41,-1.37,-1.37,3.09
25.726297855377197,-4.13,-0.08,-4.54,6.13
25.727328777313232,-3.29,6.52,-2.35,7.67
25.74185585975647,0.94,12.58,3.19,13.01
25.743367671966553,5.58,10.28,4.51,12.53
25.757986783981323,6.72,-0.21,1.23,6.83
25.78693675994873,2.95,-3.52,-0.07,4.59
25.78823685646057,1.4,-2.48,2.15,3.56
25.789109706878662,1.19,-2.16,2.79,3.72
25.80950164794922,1.65,-1.93,2.65,3.67
25.810494899749756,2.25,-0.96,2.93,3.81
25.82666778564453,2.39,-0.04,2.94,3.78
25.82766079902649,2.2,0.16,2.07,3.02
25.84216070175171,1.9,0.03,0.93,2.11
25.843599796295166,1.58,-0.01,0.12,1.58
25.85983371734619,1.21,0.12,-0.17,1.22
25.861286878585815,0.76,0.24,0.13,0.8
25.904874801635742,0.32,0.17,0.61,0.7
25.90604591369629,-0.13,0.02,0.63,0.64
25.907081842422485,-0.49,-0.04,-0.15,0.51
25.926796913146973,-0.34,0.11,-0.92,0.98
25.927822828292847,0.09,0.28,-1.13,1.16
25.942675828933716,0.35,0.1,-1.16,1.21
25.943707942962646,0.31,0.0,-1.07,1.11
25.958691835403442,0.06,0.08,-0.88,0.88
25.960189819335938,-0.22,0.1,-0.53,0.58
25.974779844284058,-0.17,0.13,0.1,0.23
26.00336480140686,0.18,0.16,0.64,0.68
26.00475788116455,0.38,0.14,0.73,0.83
26.00575876235962,0.43,0.11,0.72,0.84
26.026744842529297,0.6,0.11,0.65,0.89
26.02769374847412,0.73,0.06,0.47,0.87
26.042956829071045,0.85,0.05,0.37,0.92
26.044004917144775,0.89,0.07,0.08,0.89
26.059157848358154,0.84,0.02,0.01,0.84
26.0605628490448,0.64,0.03,-0.07,0.64
26.074941873550415,0.23,0.07,-0.35,0.42
26.10599374771118,-0.29,0.11,-0.5,0.58
26.107292652130127,-0.54,0.26,-0.34,0.68
26.10833978652954,-0.49,0.28,-0.29,0.63
26.12673783302307,-0.33,0.28,-0.18,0.46
26.127710819244385,-0.24,0.14,-0.17,0.32
26.143173694610596,-0.18,-0.04,-0.1,0.2
26.144582748413086,-0.12,-0.13,0.08,0.19
26.15907096862793,-0.04,-0.06,0.06,0.09
26.16052484512329,-0.14,0.0,-0.24,0.27
26.174970865249634,-0.43,0.09,-0.42,0.6
26.206536769866943,-0.59,0.27,-0.26,0.69
26.207916736602783,-0.53,0.4,0.06,0.66
26.20888090133667,-0.36,0.37,0.25,0.57
26.22721290588379,-0.24,0.35,0.2,0.46
26.22823977470398,-0.24,0.37,-0.04,0.44
26.2432279586792,-0.25,0.33,-0.05,0.41
26.244528770446777,-0.25,0.33,0.02,0.41
26.258591651916504,-0.26,0.43,-0.2,0.54
26.259991884231567,-0.3,0.5,-0.58,0.82
26.274434804916382,-0.6,0.49,-0.84,1.14
26.304341793060303,-1.06,0.37,-1.01,1.51
26.305697917938232,-1.49,0.34,-1.09,1.87
26.3066828250885,-1.86,0.49,-1.08,2.2
26.326855659484863,-2.11,0.97,-1.07,2.55
26.3279287815094,-2.32,1.55,-1.44,3.13
26.343159675598145,-2.31,1.87,-1.66,3.4
26.34457492828369,-2.13,2.14,-1.43,3.34
26.359153747558594,-1.83,2.35,-1.24,3.22
26.360595703125,-1.76,2.43,-0.96,3.15
26.374756813049316,-2.0,2.58,-1.01,3.41
26.404128789901733,-2.39,3.04,-1.09,4.01
26.405539989471436,-2.88,3.49,-1.45,4.75
26.406572818756104,-3.24,3.7,-2.05,5.32
26.42732286453247,-3.39,3.6,-2.64,5.6
26.428403854370117,-3.64,3.42,-3.04,5.84
26.443013668060303,-4.11,3.41,-3.25,6.25
26.44402265548706,-4.54,3.72,-3.37,6.76
26.45888376235962,-5.01,4.31,-3.56,7.5
26.460319995880127,-5.42,4.73,-3.73,8.1
26.475096702575684,-5.57,4.51,-3.88,8.14
26.50513792037964,-5.6,4.22,-4.16,8.15
26.5064377784729,-5.2,3.79,-4.76,8.0
26.50745677947998,-4.22,3.24,-5.16,7.41
26.526956796646118,-3.17,3.18,-5.33,6.96
26.52802085876465,-3.06,4.72,-5.16,7.63
26.542913913726807,-2.6,6.64,-4.68,8.52
26.54395294189453,0.04,8.91,-2.65,9.29
26.559252738952637,4.42,11.22,-0.32,12.06
26.560720920562744,3.69,6.8,-1.01,7.8
26.57493281364441,-0.06,2.96,-3.37,4.48
26.603203773498535,-3.22,1.08,-4.6,5.71
26.60462784767151,-4.91,-1.99,-4.89,7.2
26.605663776397705,-5.3,-6.0,-5.11,9.49
26.608080863952637,0.04,-5.28,-3.17,6.15
26.609537839889526,2.58,-3.57,-1.32,4.59
26.610984802246094,-1.81,-3.93,-1.94,4.74
26.62019968032837,-5.81,-3.32,-3.32,7.47
26.630632877349854,-7.92,-3.06,-3.3,9.1
26.640503883361816,-8.32,-3.22,-2.36,9.22
26.65026569366455,-7.66,-3.72,-1.24,8.6
26.66020679473877,-7.0,-4.55,-0.38,8.35
26.68889093399048,-6.75,-5.0,-0.11,8.4
26.690017700195312,-6.71,-4.61,0.03,8.14
26.69082283973694,-6.57,-4.12,0.16,7.75
26.710476875305176,-6.32,-3.66,0.39,7.31
26.711508750915527,-6.03,-3.18,0.59,6.84
26.726773738861084,-5.94,-2.57,0.64,6.5
26.729612827301025,-6.04,-2.1,0.55,6.41
26.74173378944397,-6.15,-1.65,0.29,6.37
26.749629974365234,-5.89,-1.19,-0.14,6.01
26.759652853012085,-4.86,-0.5,-0.35,4.89
26.790721893310547,-3.39,-0.11,-0.63,3.44
26.792003870010376,-2.04,0.12,-0.83,2.2
26.793033838272095,-1.25,0.31,-0.73,1.48
26.81020498275757,-0.88,0.51,-0.54,1.15
26.81124973297119,-0.71,0.93,-0.35,1.22
26.826624870300293,-0.6,1.43,-0.23,1.56
26.828844785690308,-0.45,2.07,-0.13,2.12
26.8431658744812,-0.13,2.72,0.03,2.72
26.849256992340088,0.23,3.21,0.33,3.23
26.859242916107178,0.49,3.51,0.83,3.63
26.892791748046875,0.71,3.8,1.38,4.1
26.894171714782715,0.96,4.03,1.64,4.45
26.895188808441162,1.3,4.52,1.58,4.96
26.910409927368164,2.21,5.18,1.25,5.76
26.91146469116211,4.09,5.98,0.94,7.3
26.927077770233154,6.49,6.2,0.63,8.99
26.92810297012329,8.5,5.9,0.44,10.35
26.94223165512085,8.43,8.96,0.56,12.31
26.948509693145752,9.06,8.5,-0.02,12.42
26.958792686462402,13.07,3.67,0.68,13.59
26.99147891998291,13.68,3.29,3.54,14.5
26.992843866348267,11.85,2.84,4.18,12.88
26.993865966796875,10.27,3.01,4.52,11.61
27.01050877571106,9.96,2.41,4.71,11.27
27.01157784461975,9.44,3.32,4.99,11.18
27.026741981506348,9.48,2.68,4.98,11.03
27.02779197692871,9.59,2.2,4.85,10.96
27.042576789855957,9.5,1.74,4.65,10.71
27.04758882522583,9.63,0.91,3.94,10.44
27.058600902557373,7.98,-1.74,1.18,8.25
27.095743656158447,1.7,-4.0,-2.51,5.01
27.097137928009033,-4.62,-3.2,-4.63,7.28
27.09816265106201,-5.33,0.01,-3.23,6.23
27.0992169380188,-0.13,3.68,0.08,3.68
27.106828689575195,2.83,8.52,2.94,9.44
27.116890907287598,7.0,11.92,4.22,14.45
27.126694679260254,10.13,4.34,2.06,11.21
27.1366229057312,6.46,0.05,1.21,6.57
27.146629810333252,2.47,-1.71,2.65,4.0
27.156911849975586,0.34,-2.69,3.01,4.05
27.193553924560547,0.16,-2.45,2.72,3.66
27.194740772247314,0.57,-0.8,2.5,2.68
27.195680856704712,0.81,0.09,2.62,2.74
27.211427688598633,0.75,0.03,2.15,2.27
27.212471961975098,0.49,-0.23,0.55,0.77
27.226961851119995,0.53,-0.3,-1.33,1.46
27.228012800216675,0.55,-0.04,-2.21,2.27
27.242522716522217,0.25,0.16,-2.11,2.13
27.245666980743408,0.06,0.05,-1.42,1.42
27.25895071029663,0.04,-0.07,-0.81,0.81
27.293185710906982,0.03,0.11,-0.59,0.6
27.294492721557617,0.08,0.39,-0.22,0.45
27.29547691345215,0.11,0.42,0.15,0.45
27.310876846313477,0.1,0.05,0.46,0.47
27.311927795410156,0.19,-0.14,0.68,0.71
27.32663083076477,0.26,-0.12,0.78,0.83
27.327688694000244,0.03,-0.09,0.87,0.87
27.342577934265137,-0.22,0.08,0.83,0.86
27.345151901245117,-0.15,0.21,0.74,0.78
27.35908269882202,0.08,0.31,0.7,0.76
27.39425778388977,0.2,0.28,0.29,0.45
27.395648956298828,0.71,0.18,-0.28,0.78
27.39666986465454,1.38,0.05,-0.65,1.52
27.410865783691406,1.51,-0.09,-0.37,1.55
27.41184687614441,1.1,-0.21,-0.11,1.12
27.426920890808105,0.74,-0.06,0.34,0.81
27.427934885025024,0.39,0.08,0.6,0.72
27.44248080253601,0.1,0.08,0.34,0.36
27.44480586051941,-0.09,0.27,-0.05,0.28
27.458542823791504,-0.17,0.32,-0.27,0.45
27.464231967926025,-0.08,0.15,-0.43,0.46
27.504058837890625,0.0,-0.09,-0.24,0.25
27.505188941955566,-0.12,-0.19,-0.16,0.27
27.50619077682495,-0.21,-0.13,-0.28,0.37
27.52754282951355,-0.29,0.01,-0.44,0.52
27.528600692749023,-0.36,0.16,-0.43,0.58
27.544142723083496,-0.37,0.3,-0.22,0.52
27.545609951019287,-0.4,0.26,-0.01,0.47
27.55957269668579,-0.56,0.27,0.18,0.64
27.56105089187622,-0.72,0.35,-0.03,0.8
27.57562279701233,-0.58,0.49,-0.28,0.8
27.60672879219055,-0.36,0.46,-0.23,0.62
27.608097791671753,-0.38,0.38,-0.28,0.6
27.609075784683228,-0.32,0.32,-0.12,0.46
27.62733483314514,-0.25,0.34,0.13,0.44
27.62838077545166,-0.28,0.41,0.22,0.54
27.643311977386475,-0.29,0.4,0.13,0.51
27.644344806671143,-0.37,0.34,-0.02,0.5
27.65943670272827,-0.63,0.26,-0.18,0.7
27.66090679168701,-0.83,0.31,-0.39,0.96
27.67528200149536,-1.02,0.44,-0.76,1.34
27.70459485054016,-1.41,0.6,-1.04,1.85
27.705846786499023,-1.94,0.7,-1.23,2.4
27.706835746765137,-2.26,0.76,-1.49,2.81
27.727802753448486,-2.18,1.05,-1.55,2.87
27.728839874267578,-2.24,1.57,-1.81,3.28
27.74359893798828,-1.95,2.12,-1.6,3.29
27.7445969581604,-1.64,2.09,-1.4,3.0
27.759604930877686,-1.81,2.12,-1.43,3.13
27.761080741882324,-2.1,2.46,-1.45,3.54
27.775415897369385,-2.4,2.94,-1.5,4.08
27.804563999176025,-2.89,3.38,-1.64,4.73
27.805940866470337,-3.33,3.47,-2.0,5.2
27.806896686553955,-3.45,3.47,-2.23,5.37
27.830415725708008,-3.65,3.68,-2.36,5.69
27.831442832946777,-4.09,3.99,-2.44,6.21
27.840723991394043,-4.79,4.39,-2.73,7.04
27.841757774353027,-5.59,4.96,-3.21,8.13
27.859778881072998,-6.22,5.14,-3.52,8.8
27.861246824264526,-6.42,5.18,-3.74,9.05
27.875616788864136,-6.15,4.63,-3.96,8.65
27.906280994415283,-5.23,3.56,-4.09,7.53
27.907617807388306,-3.88,2.82,-4.61,6.65
27.90862274169922,-2.69,2.68,-5.42,6.61
27.927618980407715,-2.56,5.05,-5.58,7.94
27.928672790527344,-2.37,7.61,-5.1,9.46
27.943888664245605,-0.17,10.02,-3.0,10.46
27.945366859436035,3.77,11.41,-0.71,12.03
27.959682941436768,3.31,6.65,-1.4,7.55
27.961191654205322,0.23,3.04,-3.62,4.73
27.975557804107666,-2.73,1.43,-5.27,6.1
28.004580974578857,-4.73,-1.38,-5.63,7.48
28.005992889404297,-5.57,-5.85,-5.47,9.75
28.006982803344727,-1.1,-5.54,-3.36,6.57
28.02773380279541,2.66,-3.0,-1.38,4.24
28.028787851333618,-1.14,-3.58,-1.89,4.2
28.043705940246582,-5.69,-3.56,-3.32,7.48
28.04477071762085,-8.56,-3.37,-3.6,9.87
28.059749841690063,-9.45,-3.51,-2.7,10.43
28.06122875213623,-9.09,-3.8,-1.31,9.93
28.075896739959717,-8.16,-4.33,-0.08,9.23
28.105754852294922,-7.38,-5.04,0.43,8.94
28.10747194290161,-7.07,-5.23,0.51,8.8
28.108542919158936,-7.0,-4.84,0.44,8.52
28.12776279449463,-7.01,-4.18,0.18,8.16
28.128776788711548,-6.9,-3.55,-0.01,7.75
28.14392375946045,-6.45,-2.71,-0.09,6.99
28.14496374130249,-5.85,-2.28,-0.25,6.28
28.15967583656311,-5.2,-2.06,-0.5,5.61
28.1611328125,-4.47,-1.54,-1.09,4.85
28.175811767578125,-3.57,-0.88,-2.01,4.19
28.204673767089844,-2.31,-0.12,-2.51,3.41
28.205936908721924,-0.98,0.13,-2.53,2.71
28.206931829452515,-0.2,0.02,-1.98,1.99
28.228065967559814,0.21,0.07,-1.27,1.28
28.229105949401855,0.88,0.67,-0.77,1.34
28.243992805480957,1.59,1.4,-0.57,2.19
28.245012760162354,1.85,1.87,-0.45,2.66
28.259812831878662,1.63,2.43,0.02,2.92
28.26128578186035,1.53,3.24,0.74,3.65
28.275776863098145,1.81,3.91,1.42,4.53
28.277241706848145,2.35,4.39,1.56,5.21
28.322988986968994,3.19,4.97,1.32,6.05
28.324211835861206,4.34,5.36,0.79,6.94
28.325212001800537,5.89,5.74,0.51,8.24
28.34410786628723,8.07,5.85,0.25,9.97
28.34513282775879,10.4,5.76,0.33,11.89
28.36108088493347,12.44,5.53,0.67,13.63
28.3625648021698,13.53,4.79,1.01,14.38
28.376563787460327,13.48,4.03,1.77,14.18
28.37801170349121,11.63,5.72,2.48,13.19
28.392799854278564,11.42,5.12,3.64,13.03
28.42514181137085,11.62,4.31,5.16,13.42
28.426400661468506,10.9,3.97,6.51,13.3
28.427414894104004,10.28,2.89,6.97,12.75
28.444665908813477,9.93,2.23,7.4,12.58
28.44576597213745,9.12,1.82,7.86,12.17
28.461081981658936,7.14,0.92,7.19,10.17
28.462498664855957,2.37,-1.68,4.18,5.09
28.476536750793457,-5.28,-3.44,-0.66,6.33
28.478025913238525,-9.18,-1.01,-4.99,10.49
28.492669820785522,-4.91,6.27,-3.14,8.56
28.523606777191162,2.27,15.43,2.81,15.84
28.524914741516113,8.58,9.2,3.11,12.95
28.52593684196472,6.75,0.51,0.66,6.8
28.54428768157959,3.52,-2.84,1.32,4.71
28.545352935791016,1.98,-4.46,2.25,5.37
28.56085968017578,2.04,-3.58,2.48,4.8
28.561898708343506,2.18,-1.54,2.22,3.47
28.57647466659546,2.11,0.05,2.69,3.41
28.57793092727661,2.5,1.02,3.09,4.1
28.592694759368896,2.85,0.5,2.47,3.8
28.622533798217773,2.48,-0.35,0.86,2.64
28.62430477142334,1.45,-0.36,-0.3,1.52
28.625383853912354,0.34,0.06,-0.26,0.43
28.644437789916992,-0.57,0.37,0.17,0.7
28.645466804504395,-1.31,0.5,0.14,1.4
28.661179780960083,-1.47,0.2,-0.71,1.64
28.66263771057129,-0.7,0.06,-1.23,1.41
28.67616367340088,0.31,-0.02,-1.24,1.27
28.677623748779297,0.86,-0.22,-1.45,1.7
28.69288182258606,1.08,-0.38,-1.35,1.77
28.725867748260498,1.06,-0.27,-0.85,1.38
28.7271888256073,0.78,-0.16,-0.06,0.79
28.72823190689087,0.49,-0.11,0.49,0.7
28.74499797821045,0.29,-0.04,0.51,0.58
28.746046781539917,0.2,0.12,0.19,0.3
28.761144876480103,0.23,0.06,0.27,0.35
28.76259684562683,0.27,-0.03,1.12,1.15
28.77647066116333,0.15,-0.05,1.29,1.29
28.77794599533081,-0.01,-0.11,0.65,0.65
28.792810916900635,0.08,-0.06,-0.17,0.19
28.823574781417847,0.24,-0.04,-0.99,1.01
28.82494282722473,0.31,0.02,-1.23,1.26
28.825929880142212,0.19,0.05,-0.8,0.82
28.844420909881592,-0.2,0.11,-0.17,0.28
28.84545087814331,-0.53,0.21,0.31,0.64
28.86094093322754,-0.55,0.12,0.45,0.72
28.86195683479309,-0.43,0.1,0.5,0.66
28.87633776664734,-0.42,0.33,0.61,0.81
28.877797842025757,-0.32,0.37,0.31,0.57
28.892777919769287,-0.28,0.31,-0.28,0.5
28.921863794326782,-0.41,0.31,-0.57,0.76
28.92323398590088,-0.3,0.27,-0.53,0.66
28.924203872680664,-0.09,0.12,-0.18,0.23
28.94461679458618,0.11,0.07,0.15,0.19
28.94565486907959,0.3,0.09,0.31,0.44
28.960108757019043,0.32,0.16,0.27,0.44
28.961041927337646,0.26,0.29,0.0,0.38
28.976661682128906,-0.01,0.41,-0.35,0.53
28.978148937225342,-0.32,0.44,-0.65,0.84
28.99287486076355,-0.64,0.52,-1.03,1.31
29.024324893951416,-1.07,0.49,-1.21,1.68
29.025749683380127,-1.39,0.5,-1.48,2.09
29.02676773071289,-1.55,0.52,-1.5,2.21
29.04468870162964,-1.51,0.62,-1.25,2.05
29.045748710632324,-1.45,0.74,-1.02,1.92
29.060935974121094,-1.57,0.83,-1.02,2.04
29.061899662017822,-1.71,0.91,-1.21,2.28
29.076846837997437,-1.71,0.94,-1.57,2.5
29.07821798324585,-1.81,1.05,-2.01,2.9
29.092793941497803,-2.11,1.45,-2.11,3.31
29.09424066543579,-2.39,2.4,-1.7,3.78
29.139566898345947,-2.5,3.95,-1.1,4.8
29.140739917755127,-2.56,4.24,-2.07,5.36
29.141762733459473,-2.52,4.17,-1.73,5.17
29.161749839782715,-2.51,3.87,-1.42,4.82
29.162832736968994,-2.95,3.69,-1.86,5.07
29.177835941314697,-3.49,4.14,-1.96,5.75
29.179240703582764,-4.21,4.8,-2.4,6.82
29.193548679351807,-5.13,5.13,-3.02,7.85
29.195006847381592,-5.5,4.9,-3.1,7.99
29.20936679840088,-5.64,4.76,-3.54,8.18
29.24250888824463,-5.95,4.66,-4.21,8.65
29.243809700012207,-5.95,4.23,-4.5,8.57
29.244773864746094,-4.97,3.34,-4.69,7.6
29.26183795928955,-3.34,2.71,-4.65,6.33
29.262922763824463,-2.17,3.03,-4.83,6.1
29.277775764465332,-2.16,4.83,-5.55,7.66
29.27924394607544,-1.64,6.76,-5.4,8.8
29.293585777282715,1.39,9.55,-2.89,10.07
29.29501485824585,3.75,10.24,-1.84,11.05
29.30959987640381,1.13,5.09,-3.09,6.06
29.34232783317566,-1.82,1.53,-4.71,5.27
29.34369683265686,-3.98,-0.79,-5.26,6.64
29.344727993011475,-5.12,-4.35,-5.28,8.54
29.36175775527954,-1.38,-4.81,-3.67,6.2
29.36280393600464,2.9,-3.16,-2.02,4.74
29.377983808517456,-0.99,-4.25,-2.55,5.05
29.379427909851074,-5.55,-4.0,-3.82,7.83
29.393547773361206,-8.41,-3.54,-4.04,9.97
29.394948959350586,-8.96,-3.69,-3.01,10.14
29.40976572036743,-8.15,-4.0,-1.67,9.23
29.440606832504272,-7.11,-4.68,-0.75,8.54
29.441932678222656,-6.42,-5.29,-0.47,8.33
29.44290590286255,-6.3,-5.23,-0.58,8.2
29.461726665496826,-6.38,-4.61,-0.91,7.92
29.462742805480957,-6.22,-3.85,-1.13,7.4
29.477694988250732,-5.69,-3.34,-0.99,6.67
29.478736877441406,-5.06,-3.1,-0.67,5.97
29.49389386177063,-4.66,-2.9,-0.58,5.51
29.495348930358887,-4.56,-2.51,-0.74,5.25
29.509572982788086,-4.52,-1.82,-1.13,5.0
29.53990888595581,-4.18,-1.22,-1.37,4.56
29.54128384590149,-3.17,-0.61,-1.36,3.5
29.54229497909546,-1.91,-0.24,-1.34,2.34
29.561628818511963,-1.11,-0.18,-1.32,1.73
29.56265377998352,-1.01,-0.07,-0.98,1.4
29.577865839004517,-0.8,0.62,-0.39,1.08
29.578897953033447,-0.3,1.42,0.08,1.45
29.59363079071045,0.19,2.14,0.49,2.2
29.595077991485596,0.46,2.69,0.86,2.86
29.60952377319336,0.56,3.09,1.33,3.41
29.6401948928833,0.85,3.65,1.92,4.21
29.641634941101074,1.47,4.12,2.29,4.93
29.64264488220215,2.15,4.44,1.98,5.31
29.66194486618042,3.07,5.09,1.41,6.1
29.66298770904541,4.57,5.74,1.13,7.42
29.677772998809814,6.28,5.74,0.94,8.55
29.678732872009277,7.88,5.41,1.14,9.62
29.693920850753784,9.43,4.82,1.7,10.72
29.69539165496826,10.47,3.95,2.39,11.44
29.709762811660767,10.63,3.28,3.03,11.52
29.73834776878357,9.39,4.88,3.64,11.19
29.73978567123413,8.43,7.57,4.24,12.09
29.740784883499146,10.51,5.03,4.72,12.57
29.762003898620605,11.79,4.5,6.01,13.97
29.762969970703125,11.79,3.82,6.47,13.98
29.777727842330933,10.85,3.6,6.42,13.11
29.778745651245117,9.16,4.37,6.59,12.1
29.79450273513794,7.0,5.0,6.96,11.06
29.79599380493164,2.59,2.26,5.41,6.4
29.810436725616455,-5.24,-1.04,1.62,5.58
29.839585781097412,-9.85,-0.61,-1.6,9.99
29.840811729431152,-4.37,1.42,-1.95,4.99
29.84164571762085,1.13,3.34,-0.89,3.63
29.861836910247803,3.93,6.99,2.46,8.38
29.862849712371826,7.95,6.32,3.63,10.78
29.877683877944946,10.52,0.19,0.55,10.53
29.87871789932251,7.61,0.59,-0.11,7.63
29.893815994262695,4.21,-0.68,2.0,4.71
29.895272731781006,2.47,-2.83,2.85,4.71
29.90992283821106,2.0,-2.58,2.69,4.22
29.911362648010254,1.21,-0.82,2.11,2.56
29.95769691467285,0.44,0.54,1.38,1.54
29.95884084701538,0.36,0.03,1.33,1.37
29.959840774536133,0.7,-0.49,1.71,1.91
29.978564739227295,0.94,0.06,1.12,1.46
29.97968077659607,0.24,0.26,0.83,0.9
29.995181798934937,-0.35,0.13,0.5,0.62
