time,ax,ay,az,atotal
0.008749008178710938,-0.13,0.21,-0.43,0.49
0.01939105987548828,-0.06,0.0,-0.37,0.37
0.028642892837524414,-0.24,-0.02,-0.41,0.47
0.0387110710144043,-0.29,0.0,-0.39,0.48
0.04956197738647461,-0.34,-0.08,-0.21,0.4
0.07831692695617676,-0.39,-0.14,-0.01,0.41
0.07858896255493164,-0.4,-0.09,0.02,0.41
0.0788419246673584,-0.4,-0.07,0.15,0.43
0.08852577209472656,-0.23,-0.15,0.22,0.35
0.09855794906616211,-0.23,-0.12,0.21,0.33
0.1085977554321289,-0.16,0.01,0.12,0.2
0.11923384666442871,-0.05,0.1,0.1,0.15
0.1285567283630371,0.04,0.15,0.02,0.15
0.13863801956176758,0.22,0.1,-0.24,0.34
0.1495218276977539,0.44,0.03,-0.25,0.5
0.17899799346923828,0.61,0.07,-0.06,0.61
0.17926597595214844,0.61,0.06,0.06,0.61
0.17955398559570312,0.57,0.08,0.01,0.57
0.18872499465942383,0.49,0.1,0.0,0.5
0.1983938217163086,0.31,0.11,0.09,0.34
0.2084639072418213,0.23,0.02,0.0,0.23
0.21899890899658203,0.28,-0.08,0.01,0.29
0.22837591171264648,0.16,-0.06,0.13,0.21
0.23843789100646973,0.04,-0.02,0.11,0.11
0.24935007095336914,-0.05,0.1,0.13,0.17
0.2791929244995117,-0.09,0.04,-0.17,0.19
0.2794828414916992,0.02,-0.05,-0.35,0.35
0.2797517776489258,0.02,-0.09,-0.21,0.22
0.28825902938842773,-0.15,-0.02,-0.27,0.3
0.2982749938964844,-0.21,0.07,-0.27,0.34
0.3082308769226074,-0.21,0.0,-0.21,0.29
0.3188800811767578,-0.26,-0.04,-0.39,0.47
0.3282628059387207,-0.24,-0.03,-0.4,0.46
0.3382759094238281,-0.19,-0.04,-0.33,0.38
0.3491220474243164,-0.22,-0.05,-0.31,0.38
0.3797149658203125,-0.14,0.02,-0.14,0.19
0.3800039291381836,-0.06,0.08,-0.09,0.13
0.3802919387817383,-0.07,0.03,-0.3,0.3
0.3881068229675293,-0.11,0.05,-0.37,0.38
0.3980729579925537,-0.32,0.01,-0.53,0.61
0.408113956451416,-0.57,-0.03,-0.63,0.85
0.4186539649963379,-0.66,-0.11,-0.6,0.89
0.42820191383361816,-0.42,-0.28,-0.31,0.59
0.4381749629974365,0.18,-0.21,0.07,0.28
0.4491400718688965,0.48,0.09,-0.21,0.53
0.480151891708374,0.43,0.11,-0.33,0.55
0.48044681549072266,0.09,0.08,-0.26,0.28
0.4807319641113281,-0.12,0.14,-0.16,0.24
0.4879279136657715,-0.06,0.09,0.02,0.1
0.4979410171508789,-0.01,0.01,-0.01,0.01
0.5079679489135742,0.01,0.0,-0.04,0.04
0.5184907913208008,0.04,-0.01,-0.07,0.08
0.5279998779296875,0.09,0.14,-0.12,0.2
0.5381407737731934,-0.03,-0.05,-0.05,0.07
0.5489089488983154,-0.06,-0.19,0.07,0.21
0.5799660682678223,0.06,-0.12,0.13,0.18
0.580265998840332,0.09,-0.07,0.23,0.25
0.5805530548095703,0.03,-0.01,0.26,0.26
0.5877799987792969,-0.1,-0.02,0.2,0.22
0.5977730751037598,-0.07,-0.04,0.18,0.19
0.6077780723571777,0.1,0.03,0.2,0.22
0.6186449527740479,0.42,0.07,0.16,0.45
0.6278469562530518,0.67,0.06,0.1,0.68
0.6378128528594971,0.6,-0.06,0.1,0.61
0.6486029624938965,0.32,-0.08,0.08,0.33
0.6803178787231445,-0.04,-0.08,0.12,0.14
0.680609941482544,-0.33,-0.12,0.16,0.38
0.6809039115905762,-0.41,-0.14,0.28,0.51
0.6876168251037598,-0.5,-0.14,0.34,0.62
0.6976327896118164,-0.74,-0.14,0.28,0.8
0.7076928615570068,-0.85,-0.09,0.25,0.89
0.7186670303344727,-0.72,-0.03,0.19,0.74
0.7278637886047363,-0.33,0.0,-0.07,0.33
0.7378020286560059,0.1,0.05,-0.19,0.22
0.7485790252685547,0.29,-0.04,-0.09,0.3
0.7798159122467041,0.25,-0.15,0.01,0.29
0.7800948619842529,-0.05,-0.15,0.08,0.17
0.7803809642791748,-0.35,-0.05,0.18,0.39
0.7874479293823242,-0.3,0.04,0.15,0.33
0.7976329326629639,0.0,0.13,0.12,0.17
0.8074429035186768,0.33,0.14,0.01,0.35
0.8186488151550293,0.51,0.11,-0.15,0.54
0.8275470733642578,0.51,0.12,-0.24,0.57
0.8375740051269531,0.28,0.06,-0.18,0.33
0.8485469818115234,0.07,-0.06,-0.04,0.1
0.8799400329589844,0.09,-0.05,0.06,0.11
0.8802318572998047,0.17,-0.01,0.28,0.32
0.8805217742919922,0.21,0.16,0.39,0.47
0.8873429298400879,0.22,0.12,0.24,0.34
0.8974459171295166,0.26,-0.07,0.13,0.29
0.907336950302124,0.36,-0.1,0.05,0.37
0.9183788299560547,0.48,0.01,-0.03,0.48
0.9274177551269531,0.53,0.1,0.1,0.54
0.9373397827148438,0.53,0.13,0.26,0.6
0.9483349323272705,0.64,-0.03,0.12,0.65
0.9800729751586914,0.71,-0.05,0.02,0.71
0.9803647994995117,0.64,0.01,0.16,0.65
0.9806559085845947,0.44,-0.04,0.44,0.62
0.9872188568115234,0.25,-0.05,0.52,0.57
0.9972028732299805,0.12,-0.02,0.26,0.28
1.0072228908538818,0.13,-0.02,0.15,0.19
1.01823091506958,0.26,-0.05,0.35,0.43
1.0272140502929688,0.2,-0.07,0.42,0.47
1.037266731262207,0.1,-0.04,0.3,0.31
1.0480308532714844,0.04,0.0,0.16,0.16
1.080152988433838,-0.15,-0.06,0.08,0.18
1.0804457664489746,-0.19,-0.15,0.02,0.24
1.0807368755340576,-0.08,-0.09,-0.05,0.13
1.0870568752288818,-0.01,0.06,-0.15,0.16
1.09716796875,-0.04,-0.02,-0.09,0.1
1.1070947647094727,-0.27,-0.2,-0.2,0.39
1.118114948272705,-0.38,-0.09,-0.28,0.48
1.1270968914031982,-0.34,-0.02,-0.19,0.39
1.1371638774871826,-0.35,-0.05,0.0,0.35
1.147958755493164,-0.22,0.07,0.19,0.29
1.1801767349243164,-0.03,0.04,0.3,0.3
1.180487871170044,-0.35,-0.13,-0.15,0.4
1.1807899475097656,-0.44,-0.06,-0.52,0.68
1.1869258880615234,-0.17,-0.02,-0.33,0.37
1.1969659328460693,-0.05,-0.08,-0.24,0.25
1.2069578170776367,0.17,0.02,-0.36,0.39
1.2175769805908203,0.42,0.06,-0.18,0.46
1.226891040802002,0.46,0.06,0.06,0.46
1.2369260787963867,0.42,0.09,0.08,0.43
1.247818946838379,0.51,0.13,0.14,0.54
1.2795288562774658,0.71,0.14,0.3,0.78
1.279818058013916,0.91,0.04,0.48,1.02
1.2801079750061035,1.16,-0.02,0.65,1.32
1.286694049835205,1.27,0.03,0.77,1.48
1.2967658042907715,1.17,0.14,0.84,1.44
1.3067059516906738,1.08,0.32,0.64,1.29
1.3174309730529785,1.1,0.46,0.25,1.21
1.3268458843231201,1.38,0.59,0.05,1.5
1.3367879390716553,1.57,0.63,0.03,1.69
1.3477168083190918,1.55,0.55,0.25,1.66
1.3798160552978516,1.5,0.46,0.73,1.73
1.3801007270812988,1.67,0.44,1.1,2.04
1.3803839683532715,2.4,0.67,1.31,2.81
1.3866338729858398,3.62,1.04,1.5,4.05
1.3965997695922852,4.26,1.4,1.88,4.86
1.4065947532653809,4.59,1.84,1.7,5.22
1.417299747467041,4.93,2.18,1.45,5.58
1.4266729354858398,4.76,2.28,1.48,5.48
1.4368467330932617,4.26,2.04,1.25,4.88
1.4476237297058105,3.0,2.39,0.47,3.86
1.480557918548584,1.91,3.3,-0.18,3.81
1.4808788299560547,2.34,3.98,-0.75,4.67
1.4811818599700928,3.22,4.89,-0.97,5.93
1.4864819049835205,3.66,5.33,-0.65,6.49
1.4972667694091797,3.57,5.22,0.14,6.32
1.5064587593078613,3.24,4.79,0.56,5.8
1.5171608924865723,2.57,5.7,0.84,6.3
1.5264830589294434,1.63,5.61,-0.1,5.84
1.5365159511566162,4.04,5.32,0.6,6.7
1.5474579334259033,5.16,5.08,2.24,7.57
1.5802788734436035,3.19,4.39,2.22,5.86
1.5805797576904297,1.76,3.75,1.41,4.37
1.5808658599853516,1.61,3.17,1.26,3.77
1.5863738059997559,1.34,2.66,1.44,3.3
1.5962820053100586,1.42,1.96,1.66,2.93
1.606278896331787,1.15,1.32,1.46,2.27
1.6170399188995361,1.01,0.91,1.42,1.96
1.6264147758483887,0.9,0.51,1.65,1.94
1.6362669467926025,0.77,0.32,1.59,1.79
1.6472749710083008,0.69,0.14,1.64,1.78
1.6801738739013672,0.54,-0.13,1.73,1.81
1.6804828643798828,0.3,-0.43,1.83,1.9
1.6807889938354492,0.05,-0.73,1.92,2.05
1.6862149238586426,0.13,-1.06,2.11,2.36
1.6961219310760498,0.34,-1.42,2.41,2.81
1.706183910369873,0.4,-1.68,2.59,3.11
1.716808795928955,0.29,-2.01,2.62,3.31
1.726240873336792,0.22,-2.35,2.46,3.4
1.735975742340088,0.36,-2.58,2.34,3.5
1.747087001800537,0.68,-2.76,2.36,3.69
1.7800650596618652,0.71,-3.08,2.33,3.92
1.7803728580474854,0.56,-3.44,2.13,4.08
1.7806768417358398,0.42,-3.89,2.09,4.43
1.785916805267334,0.23,-4.23,1.92,4.65
1.7959668636322021,0.13,-4.63,1.89,5.0
1.80610990524292,-0.12,-4.91,1.79,5.22
1.8167378902435303,-0.5,-5.27,1.48,5.49
1.8262248039245605,-0.79,-5.64,1.34,5.85
1.835947036743164,-1.01,-5.98,1.18,6.17
1.8469839096069336,-1.28,-6.29,0.83,6.47
1.8806898593902588,-1.66,-6.26,0.31,6.48
1.88100004196167,-2.08,-6.17,-0.08,6.51
1.8812909126281738,-2.32,-6.05,-0.44,6.49
1.885800838470459,-2.62,-5.65,-0.96,6.3
1.895857810974121,-2.25,-5.04,-1.27,5.66
1.9058599472045898,-1.43,-4.67,-1.06,4.99
1.9165239334106445,-1.38,-4.36,-1.17,4.72
1.9259519577026367,-2.13,-4.1,-1.94,5.01
1.9358229637145996,-3.24,-3.97,-2.82,5.84
1.946840763092041,-4.23,-3.46,-3.55,6.51
1.980376958847046,-5.03,-2.44,-4.59,7.23
1.9806838035583496,-5.75,-1.24,-6.33,8.64
1.9809870719909668,-6.15,-0.11,-7.66,9.82
1.9857518672943115,-7.09,0.57,-8.27,10.9
1.9956748485565186,-8.51,0.66,-8.26,11.87
2.0057058334350586,-8.74,0.64,-7.58,11.58
2.0164318084716797,-7.77,6.17,-7.55,12.46
2.025791883468628,5.12,6.3,-4.15,9.11
2.0357069969177246,23.3,18.28,21.59,36.64
2.0467779636383057,24.03,27.63,13.47,39.01
2.077332019805908,11.73,17.34,-13.63,24.98
2.077641010284424,-3.31,-3.35,-10.34,11.36
2.077949047088623,-12.4,-11.69,7.23,18.51
2.0857248306274414,-11.66,-8.38,3.17,14.7
2.0955657958984375,-11.63,-3.74,-4.46,13.0
2.105569839477539,-8.25,-0.34,-4.67,9.48
2.116344928741455,-3.91,1.6,-3.2,5.29
2.1256680488586426,-2.13,1.65,-0.88,2.83
2.1359119415283203,-1.23,0.89,-1.39,2.05
2.1468238830566406,1.0,0.82,-1.84,2.24
2.1796939373016357,1.64,0.93,-1.19,2.22
2.1800239086151123,0.23,0.39,-1.36,1.43
2.1803488731384277,-0.25,0.41,-2.31,2.35
2.185694932937622,-0.03,0.57,-2.3,2.36
2.1955418586730957,-0.14,0.3,-1.63,1.66
2.205507755279541,-0.43,-0.04,-0.66,0.78
2.216214895248413,-0.55,-0.2,-0.07,0.58
2.225512981414795,-0.65,-0.17,0.16,0.69
2.2359728813171387,-0.89,-0.15,0.36,0.97
2.2466230392456055,-1.09,-0.14,0.45,1.18
2.281583786010742,-0.91,-0.03,0.67,1.13
2.281920909881592,-0.46,0.17,0.76,0.9
2.282244920730591,-0.08,0.22,0.37,0.43
2.28568696975708,0.38,0.21,-0.05,0.43
2.2953338623046875,0.6,0.15,-0.17,0.64
2.305332899093628,0.45,-0.08,-0.21,0.5
2.316192865371704,0.63,-0.22,-0.26,0.71
2.3253307342529297,0.93,-0.22,0.04,0.95
2.3358139991760254,1.11,-0.04,0.2,1.12
2.3467650413513184,1.08,0.14,0.53,1.21
2.3822638988494873,0.75,0.23,0.94,1.22
2.3826169967651367,0.3,0.14,1.15,1.19
2.3829638957977295,0.0,0.06,1.06,1.06
2.3856120109558105,-0.02,-0.02,0.89,0.89
2.395169734954834,0.14,-0.07,0.74,0.75
2.405179977416992,0.58,-0.08,0.7,0.91
2.4160149097442627,1.22,-0.11,0.63,1.37
2.425184726715088,1.68,-0.11,0.65,1.8
2.4357399940490723,1.85,-0.07,0.73,1.99
2.4465909004211426,1.74,-0.06,0.47,1.8
2.482874870300293,1.36,-0.04,0.31,1.39
2.483232021331787,0.82,0.02,0.18,0.83
2.4835798740386963,0.35,0.02,0.15,0.38
2.484910011291504,0.01,-0.04,0.22,0.22
2.4950127601623535,-0.11,-0.11,0.28,0.32
2.505039930343628,0.22,-0.19,0.44,0.52
2.516680955886841,0.52,-0.17,0.52,0.75
2.5250840187072754,0.69,-0.13,0.68,0.97
2.535088062286377,0.6,-0.19,0.88,1.08
2.5462028980255127,0.52,-0.09,0.94,1.07
2.581258773803711,0.42,-0.07,0.86,0.95
2.581601858139038,0.17,-0.3,1.11,1.16
2.5819320678710938,0.41,-0.4,1.16,1.29
2.58477783203125,1.26,-0.39,1.44,1.95
2.5948357582092285,2.2,0.01,1.43,2.62
2.6050169467926025,2.27,0.4,0.73,2.41
2.6157939434051514,1.49,0.55,0.4,1.63
2.6249608993530273,0.65,0.64,0.53,1.05
2.6349329948425293,0.38,0.85,1.01,1.37
2.645969867706299,0.45,1.29,1.59,2.09
2.6814260482788086,0.55,2.32,2.02,3.12
2.681762933731079,1.24,4.76,1.58,5.16
2.682086944580078,3.24,6.52,2.75,7.78
2.684818744659424,3.56,5.91,4.64,8.31
2.6947250366210938,4.34,6.53,3.97,8.78
2.7047958374023438,5.24,7.75,4.03,10.18
2.715609073638916,4.78,8.36,4.5,10.62
2.7247767448425293,4.5,8.55,5.31,11.02
2.734778881072998,2.99,8.11,6.75,10.96
2.7461578845977783,2.05,7.99,7.16,10.92
2.782498836517334,2.19,8.92,6.43,11.21
2.782850742340088,3.32,9.4,5.11,11.2
2.7831978797912598,4.31,8.47,2.91,9.93
2.7845299243927,3.49,7.34,2.05,8.38
2.7945668697357178,0.64,7.05,1.76,7.29
2.8046088218688965,-6.02,8.53,-0.41,10.44
2.8154287338256836,-6.73,9.36,-1.71,11.65
2.8246407508850098,-1.37,7.24,-0.9,7.42
2.8346619606018066,2.33,3.48,1.59,4.47
2.846065044403076,-0.58,3.31,-0.23,3.36
2.8824920654296875,-2.91,5.65,-6.35,8.98
2.882826805114746,1.2,6.47,-3.06,7.25
2.883151054382324,4.55,3.76,2.49,6.4
2.884279727935791,6.03,0.81,3.69,7.11
2.8945517539978027,5.04,-0.11,2.77,5.75
2.9044947624206543,3.94,-0.6,2.19,4.54
2.915273904800415,3.61,-1.03,2.51,4.51
2.924488067626953,3.62,-0.46,2.71,4.54
2.934645891189575,3.8,0.58,2.41,4.53
2.9456329345703125,4.11,0.97,2.1,4.71
2.981785774230957,4.16,0.46,1.94,4.61
2.9821300506591797,3.8,-0.21,1.75,4.18
2.9824578762054443,3.3,-0.73,1.49,3.69
2.984182834625244,2.95,-1.19,1.45,3.49
2.994311809539795,2.83,-1.83,1.44,3.66
3.004319906234741,2.62,-2.65,1.34,3.96
3.015141010284424,2.45,-3.34,1.2,4.31
3.024312973022461,2.56,-3.89,1.19,4.8
3.0343868732452393,2.55,-4.34,1.39,5.22
3.0453667640686035,2.25,-4.63,1.49,5.35
3.0820329189300537,1.45,-4.85,1.4,5.25
3.082368850708008,0.47,-5.13,1.21,5.29
3.0827019214630127,-0.3,-5.51,0.84,5.58
3.0840818881988525,-0.71,-6.01,0.37,6.06
3.094088077545166,-0.76,-6.4,0.17,6.44
3.10418701171875,-0.85,-6.61,-0.09,6.66
3.1148767471313477,-1.02,-6.69,-0.44,6.78
3.12414288520813,-1.49,-6.81,-0.84,7.02
3.1343679428100586,-2.38,-6.85,-1.35,7.37
3.1451969146728516,-3.31,-6.83,-1.83,7.8
3.1813459396362305,-3.8,-6.69,-2.2,8.0
3.1816749572753906,-4.25,-6.26,-2.79,8.06
3.181999921798706,-4.74,-5.69,-3.69,8.27
3.183971881866455,-5.24,-5.22,-4.56,8.68
3.1940078735351562,-5.84,-4.47,-5.33,9.08
3.2039029598236084,-6.36,-3.43,-5.87,9.3
3.214643955230713,-6.91,-2.27,-6.8,9.95
3.223936080932617,-7.59,-0.88,-7.77,10.89
3.234038829803467,-8.11,0.32,-8.11,11.47
3.2451188564300537,-8.01,0.78,-7.84,11.23
3.2810959815979004,-7.78,3.18,-8.37,11.86
3.281428813934326,-3.29,8.53,-4.51,10.19
3.2817559242248535,3.07,-0.64,-6.94,7.61
3.2837319374084473,3.8,13.9,-4.54,15.1
3.294006824493408,13.46,30.37,1.69,33.26
3.3037047386169434,12.9,20.13,-2.95,24.09
3.3146309852600098,-6.4,-5.43,-6.21,10.44
3.3238277435302734,-14.82,-13.23,6.48,20.89
3.333970069885254,-14.69,-8.19,-4.75,17.47
3.345073938369751,-12.39,-2.18,-9.03,15.48
3.3812599182128906,-8.18,0.26,-3.11,8.75
3.3815908432006836,-2.85,1.91,-1.37,3.69
3.381917953491211,1.89,1.63,0.0,2.49
3.383638858795166,4.18,1.31,-0.02,4.38
3.3937177658081055,3.76,1.03,0.23,3.9
3.403639793395996,1.29,0.29,-0.46,1.39
3.4144389629364014,-0.81,-0.42,-2.67,2.82
3.4237048625946045,-1.67,-0.36,-3.27,3.68
3.43375301361084,-1.61,0.15,-1.82,2.43
3.4449658393859863,-1.2,0.4,-0.88,1.54
3.4820079803466797,-0.67,0.31,-1.03,1.26
3.4823508262634277,-0.06,0.14,-1.42,1.42
3.4826879501342773,0.47,0.03,-1.42,1.49
3.4834117889404297,0.42,0.05,-0.86,0.95
3.4935050010681152,-0.06,0.11,-0.14,0.18
3.5036518573760986,-0.53,0.11,0.35,0.64
3.5143518447875977,-0.88,0.06,0.56,1.04
3.5235888957977295,-0.84,0.01,0.67,1.07
3.533604860305786,-0.48,0.06,0.59,0.76
3.544644832611084,0.19,0.16,0.56,0.61
3.580845832824707,1.02,0.21,0.45,1.13
3.5811779499053955,1.51,0.3,0.3,1.56
3.58148193359375,1.53,0.34,0.3,1.59
3.583430767059326,1.41,0.21,0.52,1.51
3.593413829803467,1.3,0.11,0.87,1.56
3.603576898574829,1.01,0.06,1.12,1.5
3.614165782928467,0.61,0.09,1.04,1.2
3.6234829425811768,0.21,0.22,0.82,0.87
3.6334068775177,0.07,0.28,0.73,0.78
3.644425868988037,0.18,0.2,1.05,1.08
3.6822948455810547,0.67,-0.01,1.43,1.57
3.682708740234375,1.41,-0.27,1.5,2.07
3.68326997756958,1.81,-0.4,1.12,2.16
3.6836209297180176,1.88,-0.22,0.64,1.99
3.693263053894043,1.48,0.13,0.13,1.49
3.7036337852478027,0.63,0.41,-0.27,0.79
3.7139687538146973,0.08,0.55,-0.29,0.62
3.7232537269592285,0.07,0.62,0.28,0.68
3.733229875564575,0.13,0.62,0.94,1.13
3.744338035583496,0.3,0.5,1.6,1.7
3.781667947769165,0.63,0.51,1.91,2.07
3.782019853591919,1.1,0.67,1.72,2.14
3.7823829650878906,1.74,1.32,1.43,2.61
3.783167839050293,2.38,1.52,1.42,3.16
3.793125867843628,2.65,1.55,1.51,3.42
3.803523063659668,2.86,1.45,1.69,3.62
3.813765048980713,3.01,1.83,1.81,3.96
3.8230838775634766,3.21,2.38,2.16,4.54
3.8331189155578613,3.19,2.73,2.58,4.92
3.8442788124084473,3.01,3.06,3.02,5.24
3.8809428215026855,2.83,3.8,3.5,5.89
3.88165283203125,2.5,6.22,3.58,7.59
3.8819799423217773,3.31,9.61,4.17,10.98
3.8828368186950684,5.25,10.49,7.29,13.81
3.89292573928833,5.63,9.79,8.73,14.27
3.9033658504486084,6.3,9.9,8.55,14.51
3.9138598442077637,7.0,10.12,8.12,14.74
3.9230458736419678,6.58,9.36,6.66,13.23
3.9329378604888916,5.36,7.93,3.72,10.26
3.94412899017334,4.54,7.23,-0.97,8.59
3.953125,3.55,8.72,-4.97,10.64
3.9808239936828613,-0.06,11.56,-5.59,12.84
3.98115873336792,-5.39,11.63,-3.6,13.31
3.9826369285583496,-5.61,8.92,-2.35,10.79
3.992794990539551,0.08,3.75,0.39,3.77
4.002691745758057,1.97,1.22,1.23,2.62
4.013436794281006,-2.99,1.15,-4.15,5.24
4.022722959518433,-1.96,3.37,-5.1,6.41
4.03274393081665,2.52,3.48,0.87,4.38
4.043810844421387,5.93,0.76,3.16,6.76
4.0528788566589355,7.0,-0.88,3.1,7.7
4.080770969390869,5.22,-1.46,2.46,5.95
4.08112907409668,3.58,-1.85,1.4,4.26
4.0825419425964355,3.25,-2.22,0.86,4.02
4.092557907104492,3.02,-2.51,0.79,4.0
4.102591037750244,2.51,-2.66,0.6,3.7
4.113464832305908,1.77,-2.68,0.43,3.24
4.122588872909546,1.13,-2.7,0.27,2.93
4.132709980010986,0.76,-2.68,0.14,2.78
4.143280029296875,0.9,-2.74,0.17,2.88
4.152346849441528,1.31,-3.0,0.48,3.3
4.1816229820251465,1.81,-3.29,0.7,3.81
4.182194948196411,2.29,-3.51,0.93,4.29
4.182551860809326,2.55,-3.86,1.23,4.78
4.19248104095459,2.62,-4.28,1.56,5.25
4.2024359703063965,2.35,-4.65,1.55,5.43
4.213293075561523,1.88,-5.03,1.25,5.51
4.222462892532349,1.39,-5.51,1.11,5.79
4.2325029373168945,0.85,-5.98,0.92,6.1
4.243675947189331,0.5,-6.39,0.96,6.48
4.252595901489258,0.23,-6.78,1.12,6.87
4.283609867095947,-0.02,-7.03,0.94,7.09
4.2839648723602295,-0.29,-7.16,0.89,7.22
4.284313917160034,-0.39,-7.19,0.88,7.25
4.292302846908569,-0.98,-6.9,0.31,6.97
4.302217960357666,-2.2,-6.28,-0.86,6.7
4.3131818771362305,-3.37,-5.45,-2.27,6.79
4.322358846664429,-4.69,-4.33,-3.92,7.49
4.332389831542969,-5.73,-2.96,-5.19,8.27
4.343613862991333,-6.22,-1.83,-5.59,8.56
4.3524699211120605,-6.94,-0.98,-5.66,9.0
4.382921934127808,-7.77,-0.36,-5.73,9.66
4.383281946182251,-8.43,0.02,-6.2,10.46
4.3836350440979,-8.63,0.26,-6.71,10.93
4.392127990722656,-8.49,0.59,-6.79,10.88
4.4020819664001465,-8.32,1.07,-6.79,10.79
4.412993907928467,-7.89,1.59,-7.04,10.69
4.42209005355835,-7.53,2.38,-7.57,10.93
4.432223796844482,-6.17,6.66,-9.08,12.84
4.443208932876587,-0.74,-1.13,-8.87,8.97
4.452262878417969,-2.43,-0.17,-10.66,10.93
4.482930898666382,16.45,19.51,8.93,27.03
4.483297824859619,30.25,34.28,13.95,47.79
4.483757019042969,5.39,16.14,-3.02,17.28
4.491931915283203,-10.1,-14.19,3.12,17.69
4.50193190574646,-14.53,-18.3,-1.54,23.41
4.512829780578613,-18.18,-7.93,-1.91,19.92
4.522023916244507,-18.17,-1.15,-1.22,18.24
4.532140731811523,-10.04,1.64,-1.56,10.29
4.543210983276367,-2.68,1.83,0.61,3.3
4.552133083343506,0.96,0.72,0.24,1.22
4.582464933395386,2.85,0.58,-2.88,4.09
4.582821846008301,3.44,0.91,-4.61,5.82
4.583158016204834,1.84,0.62,-3.44,3.95
4.5919060707092285,-0.17,0.42,-2.08,2.12
4.601871967315674,-1.41,0.22,-2.74,3.08
4.6126790046691895,-2.09,0.12,-3.07,3.71
4.621940851211548,-1.93,0.11,-1.88,2.69
4.632020950317383,-1.29,0.04,-0.58,1.41
4.643074989318848,-0.86,-0.01,0.11,0.86
4.652029991149902,-0.71,0.01,0.64,0.95
4.682797908782959,-0.67,0.11,0.84,1.08
4.683155059814453,-0.46,0.18,0.46,0.67
4.683506965637207,-0.13,0.19,-0.19,0.29
4.69173789024353,0.33,0.15,-0.57,0.67
4.701722860336304,0.63,0.11,-0.67,0.92
4.712573051452637,0.52,0.0,-0.61,0.8
4.721660852432251,0.18,-0.07,-0.36,0.4
4.731802940368652,-0.09,-0.11,-0.08,0.16
4.742923736572266,-0.08,0.0,0.36,0.36
4.751917839050293,0.28,0.14,0.82,0.87
4.783094882965088,0.75,0.2,1.24,1.46
4.783426761627197,1.15,0.2,1.25,1.71
4.783786773681641,0.78,0.22,0.95,1.24
4.79158091545105,0.01,0.16,0.66,0.67
4.801613807678223,-0.16,-0.01,0.54,0.56
4.812424898147583,0.19,-0.05,0.8,0.82
4.821462869644165,0.45,-0.02,1.3,1.37
4.831613063812256,0.74,0.04,1.66,1.81
4.842710971832275,1.5,0.0,1.63,2.21
4.8516387939453125,2.32,-0.15,1.41,2.71
4.883409023284912,2.64,-0.23,1.21,2.91
4.883779048919678,2.19,-0.18,0.68,2.3
4.884127855300903,1.23,0.03,0.31,1.26
4.891389846801758,0.77,0.14,0.35,0.85
4.901382923126221,0.77,0.28,0.54,0.98
4.912185907363892,0.77,0.54,0.94,1.32
4.921377897262573,0.7,0.59,1.66,1.89
4.931511878967285,0.84,0.48,2.35,2.54
4.942595958709717,1.15,0.66,2.05,2.44
4.951617956161499,1.47,1.14,1.32,2.28
4.982707977294922,1.6,1.5,1.24,2.51
4.983062744140625,1.51,1.42,0.98,2.29
4.983397960662842,1.88,2.0,0.46,2.78
4.9912309646606445,1.72,2.26,0.71,2.92
5.001258850097656,1.47,2.26,1.04,2.88
5.012031078338623,1.67,2.67,1.98,3.71
5.021461009979248,2.13,4.32,2.32,5.34
5.031374931335449,3.87,6.57,2.54,8.03
5.04233193397522,5.66,6.67,4.22,9.71
5.05146598815918,5.09,6.73,4.49,9.55
5.082698822021484,4.87,7.13,5.22,10.08
5.083058834075928,4.04,7.43,6.31,10.55
5.0834059715271,3.1,7.93,6.72,10.84
5.091067790985107,3.37,9.13,7.47,12.26
5.101106882095337,4.17,9.66,6.88,12.57
5.111892938613892,4.26,8.39,4.97,10.64
5.121598958969116,4.11,6.67,2.89,8.35
5.131239891052246,4.42,5.56,0.09,7.1
5.142210960388184,3.91,6.45,-3.02,8.12
5.151270866394043,0.37,10.13,-3.65,10.77
5.182384014129639,-3.38,11.29,-0.97,11.82
5.182744026184082,-3.0,9.02,-0.1,9.5
5.183093070983887,1.2,5.73,0.88,5.92
5.190906047821045,2.72,3.35,1.78,4.66
5.201020956039429,-1.41,2.12,-1.79,3.11
5.211846828460693,-2.12,4.02,-5.52,7.15
5.221292972564697,2.22,5.39,-1.49,6.01
5.231040000915527,6.41,3.25,1.99,7.45
5.242096900939941,8.69,0.43,3.76,9.47
5.2511467933654785,7.41,-1.3,3.76,8.41
5.28338098526001,5.38,-2.07,3.12,6.55
5.283740997314453,3.99,-2.45,3.06,5.59
5.28410005569458,2.88,-2.56,2.99,4.87
5.2909018993377686,1.66,-2.37,2.79,4.01
5.3008458614349365,0.5,-1.9,2.42,3.11
5.311579942703247,-0.04,-1.57,1.87,2.44
5.320799827575684,0.16,-1.67,1.5,2.25
5.330989837646484,0.87,-1.88,1.49,2.55
5.3420257568359375,1.34,-2.17,1.2,2.81
5.351020812988281,1.4,-2.56,0.82,3.03
5.3832409381866455,1.33,-2.85,0.75,3.23
5.383598804473877,1.19,-3.33,0.98,3.66
5.3839497566223145,0.9,-4.09,1.25,4.37
5.390652894973755,0.63,-5.01,1.39,5.23
5.400627851486206,0.38,-5.86,1.48,6.05
5.411431789398193,-0.01,-6.72,1.36,6.85
5.420572757720947,-0.42,-7.22,1.16,7.32
5.430794954299927,-1.09,-7.25,0.96,7.39
5.441779851913452,-2.43,-6.95,0.27,7.36
5.450793743133545,-3.64,-6.56,-0.69,7.53
5.48370885848999,-4.46,-6.06,-1.92,7.76
5.484070777893066,-4.68,-5.25,-3.3,7.76
5.484444856643677,-4.29,-4.25,-4.1,7.29
5.490524768829346,-4.1,-3.33,-4.47,6.91
5.500641822814941,-4.46,-2.47,-4.89,7.06
5.511203765869141,-5.38,-1.67,-5.87,8.13
5.52048397064209,-6.55,-1.08,-6.92,9.58
5.530642032623291,-7.6,-0.66,-7.61,10.77
5.541659832000732,-8.2,-0.5,-7.75,11.29
5.550625801086426,-8.39,-0.68,-7.91,11.55
5.582978963851929,-8.02,-0.79,-8.08,11.41
5.583338737487793,-7.34,-0.39,-7.64,10.6
5.5836920738220215,-6.68,0.01,-7.34,9.92
5.59033203125,-5.93,0.03,-7.13,9.27
5.600391864776611,-6.06,1.95,-6.98,9.44
5.611135959625244,-3.99,5.77,-5.85,9.13
5.620381832122803,1.36,-2.5,-5.08,5.82
5.630459785461426,2.89,5.35,0.58,6.1
5.641551971435547,15.17,15.62,25.75,33.72
5.651015758514404,12.87,12.65,6.45,19.16
5.683862924575806,-1.09,11.56,-10.24,15.48
5.684228897094727,-9.12,3.9,-7.47,12.41
5.6845879554748535,-11.25,0.04,-1.48,11.34
5.690242767333984,-12.67,-1.49,5.01,13.7
5.700214862823486,-9.08,-4.71,-1.52,10.34
5.710992813110352,-7.1,-3.47,-5.97,9.9
5.720200061798096,-3.84,-1.48,-5.73,7.05
5.730305910110474,-0.49,0.35,-5.07,5.1
5.741456031799316,1.31,1.28,-4.09,4.48
5.750359058380127,2.07,1.27,-2.74,3.66
5.7833380699157715,2.22,0.89,-2.47,3.43
5.783696889877319,1.17,0.56,-1.63,2.08
5.78403377532959,-0.68,0.12,-0.43,0.81
5.790060997009277,-1.65,-0.01,-0.22,1.66
5.800055980682373,-1.57,0.08,0.06,1.57
5.810860872268677,-1.3,-0.03,0.33,1.34
5.820108890533447,-0.79,-0.11,0.22,0.82
5.830096960067749,0.06,-0.05,-0.21,0.22
5.841299057006836,0.76,0.15,-0.53,0.93
5.850114822387695,0.96,0.25,-0.64,1.18
5.8828277587890625,0.65,0.27,-0.64,0.95
5.8831610679626465,0.16,0.13,-0.62,0.65
5.883488893508911,-0.37,-0.07,-0.34,0.5
5.889914035797119,-0.7,-0.2,-0.11,0.73
5.89999794960022,-0.58,-0.13,0.1,0.6
5.910719871520996,-0.35,0.03,0.5,0.61
5.919930934906006,0.02,0.06,0.78,0.78
5.929944038391113,0.57,0.12,0.73,0.93
5.941248893737793,1.01,0.17,0.47,1.12
5.950099945068359,1.02,0.2,0.3,1.08
5.984010934829712,0.77,0.14,0.29,0.83
5.984365940093994,0.52,0.05,0.54,0.75
5.9847187995910645,0.37,0.01,0.91,0.98
5.989857912063599,0.24,-0.02,1.06,1.08
5.999917984008789,0.28,-0.02,0.99,1.02
6.0105390548706055,0.54,-0.08,0.79,0.96
6.0197999477386475,0.73,-0.12,0.74,1.04
6.029912948608398,0.86,-0.09,0.61,1.05
6.040957927703857,0.85,0.04,0.34,0.91
6.049920082092285,0.68,0.1,0.28,0.74
6.084333896636963,0.8,0.16,0.4,0.9
6.0846898555755615,1.28,0.24,0.69,1.47
6.085044860839844,1.77,0.29,1.11,2.1
6.089597940444946,1.9,0.24,1.37,2.35
6.099742889404297,1.7,0.22,1.38,2.2
6.110345840454102,1.25,0.3,1.38,1.88
6.119610786437988,1.02,0.49,1.38,1.78
6.129677772521973,0.93,0.59,1.35,1.74
6.140676975250244,0.85,0.65,0.97,1.44
6.14983606338501,1.0,0.98,0.67,1.55
6.18268084526062,1.05,1.2,0.76,1.76
6.183003902435303,0.86,1.34,0.76,1.76
6.183353900909424,0.59,1.38,1.02,1.81
6.189326763153076,0.71,1.33,1.21,1.93
6.199319839477539,1.02,1.37,1.55,2.3
6.210346937179565,1.56,1.54,1.76,2.81
6.21967077255249,1.95,1.83,1.97,3.32
6.229554891586304,2.02,2.48,2.15,3.85
6.240471839904785,2.01,4.5,1.92,5.28
6.249830961227417,3.54,7.5,1.83,8.49
6.284839868545532,6.0,8.2,4.15,10.97
6.285196781158447,5.56,7.37,5.54,10.76
6.285557746887207,4.57,7.05,6.15,10.41
6.289190769195557,4.06,7.41,7.24,11.12
6.299400806427002,4.27,8.37,8.2,12.47
6.310193061828613,4.51,8.86,7.71,12.58
6.319304943084717,4.46,8.3,5.54,10.93
6.32942795753479,5.14,7.35,2.36,9.27
6.340274810791016,6.35,7.07,-0.89,9.54
6.349469900131226,5.17,8.49,-3.71,10.61
6.383567810058594,-0.56,10.68,-3.99,11.41
6.383924961090088,-4.24,9.78,-1.45,10.75
6.384267807006836,-1.92,7.56,0.19,7.8
6.389112949371338,1.94,4.91,1.19,5.41
6.399127960205078,1.95,2.51,1.99,3.75
6.409908771514893,-1.84,1.57,-1.67,2.93
6.419220924377441,-0.76,4.22,-4.26,6.04
6.4292378425598145,4.42,5.2,-0.18,6.82
6.440459728240967,8.26,2.93,2.32,9.06
6.449341773986816,10.02,1.03,3.26,10.58
6.48363995552063,9.23,-0.27,3.45,9.85
6.483997821807861,7.6,-1.17,3.11,8.29
6.48434591293335,6.1,-1.67,2.84,6.93
6.489081859588623,4.67,-1.72,2.65,5.63
6.499011039733887,3.49,-1.84,2.47,4.65
6.509769916534424,2.61,-2.16,2.72,4.34
6.519014835357666,2.18,-2.22,2.78,4.17
6.529064893722534,1.83,-2.06,2.62,3.8
6.540371894836426,1.54,-1.86,2.15,3.23
6.54918098449707,1.52,-1.67,1.59,2.76
6.584488868713379,1.77,-1.71,1.26,2.76
6.584856986999512,2.03,-1.94,1.34,3.11
6.585186958312988,2.03,-1.99,1.02,3.02
6.589234828948975,1.7,-2.01,0.55,2.68
6.598879814147949,0.83,-2.38,0.3,2.53
6.60966682434082,-0.42,-2.86,0.04,2.89
6.6188788414001465,-1.15,-3.11,-0.44,3.34
6.6289777755737305,-1.47,-2.87,-1.37,3.5
6.640254020690918,-2.07,-2.26,-2.73,4.1
6.648942947387695,-3.28,-1.56,-4.38,5.69
6.683920860290527,-4.35,-0.97,-5.45,7.04
6.684254884719849,-5.44,-0.78,-4.35,7.0
6.684584856033325,-6.72,-0.52,-3.33,7.51
6.688967943191528,-7.24,0.73,-4.28,8.44
6.698722839355469,-7.26,2.5,-5.84,9.64
6.709505081176758,-7.4,3.9,-7.2,11.03
6.718801975250244,-8.01,4.7,-8.43,12.54
6.728817939758301,-9.11,4.41,-9.05,13.57
6.766736030578613,-10.23,2.57,-9.38,14.11
6.767068862915039,-10.31,-0.46,-9.47,14.0
6.767395973205566,-9.14,-3.2,-8.8,13.08
6.76855993270874,-7.91,-3.46,-7.85,11.66
6.778567790985107,-7.7,-3.42,-6.93,10.9
6.788872957229614,-8.29,-4.22,-6.3,11.23
6.798583030700684,-8.32,-4.36,-6.5,11.42
6.809416770935059,-7.46,-4.15,-6.73,10.87
6.818500995635986,-6.76,-3.76,-6.51,10.11
6.828655958175659,-7.23,-1.09,-6.81,9.99
6.86655592918396,-1.92,5.11,-3.7,6.59
6.866888046264648,7.6,2.8,4.97,9.5
6.867220878601074,14.45,8.62,24.07,29.36
6.8689117431640625,24.52,12.42,23.05,35.87
6.878764867782593,-0.02,18.37,-16.96,25.0
6.888393878936768,-6.85,12.27,-21.76,25.9
6.898542881011963,-6.4,1.72,-7.59,10.07
6.9093828201293945,-14.6,-5.3,11.67,19.42
6.918488025665283,-14.92,-6.98,3.86,16.91
6.928587913513184,-13.02,-5.58,-7.4,15.98
6.9686479568481445,-9.79,-2.98,-6.07,11.89
6.968977928161621,-4.4,-0.08,-1.86,4.77
6.969305038452148,-0.49,1.03,-1.1,1.58
6.969629764556885,2.9,1.09,-2.75,4.14
6.978322982788086,4.65,1.18,-4.57,6.62
6.988248825073242,3.47,1.3,-3.91,5.38
6.99826192855835,0.56,0.83,-1.79,2.05
7.009133815765381,-1.04,0.39,-0.89,1.42
7.018351078033447,-1.22,0.2,-1.52,1.95
7.028319835662842,-1.45,0.08,-1.59,2.15
7.06844687461853,-1.46,-0.02,-0.84,1.68
7.068781852722168,-1.29,0.04,-0.12,1.29
7.0691118240356445,-0.82,0.06,0.07,0.82
7.069437026977539,-0.3,0.03,0.11,0.32
7.078124046325684,-0.01,-0.02,0.17,0.17
7.088079929351807,0.0,-0.01,0.12,0.12
7.098142862319946,-0.08,-0.1,0.0,0.12
7.108993053436279,-0.03,-0.18,0.02,0.18
7.118181943893433,0.03,-0.14,-0.13,0.19
7.128164768218994,0.03,-0.07,0.02,0.07
7.167114734649658,-0.03,0.03,0.29,0.29
7.167689800262451,0.22,0.19,0.46,0.54
7.168022871017456,0.82,0.31,0.63,1.07
7.168344974517822,1.46,0.26,0.84,1.7
7.177931785583496,1.81,0.14,1.04,2.09
7.187952995300293,1.73,0.04,1.21,2.11
7.197979927062988,1.33,0.0,1.33,1.88
7.2089457511901855,0.99,-0.01,1.43,1.73
7.217928886413574,0.65,-0.13,1.56,1.69
7.228046894073486,0.46,-0.28,1.35,1.45
7.265807867050171,0.87,-0.3,0.93,1.3
7.266499042510986,1.45,-0.11,0.6,1.57
7.266829967498779,1.7,0.25,0.39,1.76
7.26778507232666,1.65,0.54,0.38,1.77
7.277796745300293,1.27,0.75,0.37,1.52
7.287729740142822,0.88,0.73,0.72,1.35
7.297760963439941,0.78,0.54,1.55,1.81
7.3086838722229,0.91,0.35,1.8,2.04
7.317763805389404,1.23,0.44,1.45,1.95
7.328032970428467,1.31,0.93,0.98,1.88
7.366458892822266,1.31,1.5,0.84,2.16
7.367403984069824,1.33,1.67,1.1,2.4
7.36773681640625,1.19,1.95,1.52,2.74
7.368058919906616,1.61,2.03,1.82,3.16
7.377656936645508,1.77,2.22,2.03,3.49
7.387677907943726,1.88,2.35,2.22,3.73
7.397665023803711,2.02,2.44,2.57,4.07
7.4085469245910645,2.19,2.59,2.87,4.44
7.417750835418701,2.26,3.52,2.93,5.1
7.427778959274292,2.67,5.83,2.42,6.85
7.4390177726745605,4.45,7.27,3.53,9.22
7.468075752258301,4.85,7.37,5.54,10.41
7.468406915664673,4.39,8.12,6.56,11.32
7.468730926513672,4.79,9.06,7.34,12.6
7.477499961853027,5.2,10.1,7.38,13.54
7.487624883651733,4.94,10.38,7.15,13.53
7.497555732727051,4.19,9.02,6.53,11.89
7.5083909034729,3.64,7.0,3.07,8.46
7.51757287979126,3.66,5.86,-2.36,7.3
7.527690887451172,2.96,7.94,-6.66,10.77
7.538811922073364,0.48,11.72,-5.62,13.0
7.567527770996094,-2.53,12.84,-0.57,13.09
7.567873001098633,-2.96,9.64,0.45,10.09
7.568202972412109,-0.31,4.5,-0.55,4.54
7.577376842498779,1.62,1.06,0.45,1.98
7.5872697830200195,-2.11,0.08,-1.12,2.39
7.597251892089844,-2.83,2.55,-4.82,6.14
7.607861042022705,1.58,5.55,-0.95,5.84
7.617347955703735,6.04,3.82,2.89,7.7
7.627439975738525,9.47,0.61,5.43,10.93
7.638439893722534,9.51,-1.12,5.3,10.94
7.667343854904175,7.26,-1.25,3.21,8.03
7.6676788330078125,5.1,-1.42,2.59,5.89
7.668006896972656,3.19,-1.83,2.98,4.73
7.67723274230957,1.9,-2.18,2.82,4.03
7.687253952026367,0.86,-2.23,2.6,3.53
7.697201728820801,0.14,-2.13,2.46,3.25
7.708083868026733,-0.34,-2.0,2.07,2.89
7.71729588508606,-0.49,-1.88,1.71,2.58
7.727308750152588,-0.15,-1.94,1.73,2.6
7.7384068965911865,0.45,-1.99,1.68,2.64
7.769214868545532,0.8,-1.95,1.39,2.52
7.769546031951904,0.97,-1.83,1.02,2.3
7.769873857498169,0.9,-1.94,0.74,2.26
7.777021884918213,0.2,-2.44,0.4,2.48
7.787013053894043,-0.8,-2.88,-0.04,2.98
7.79708194732666,-1.58,-3.15,-0.08,3.52
7.80785608291626,-2.15,-3.63,-0.39,4.23
7.817094802856445,-3.07,-3.98,-1.32,5.19
7.82716703414917,-3.35,-4.3,-2.35,5.93
7.8381218910217285,-3.11,-4.53,-2.56,6.06
7.869241952896118,-3.14,-4.69,-1.63,5.87
7.869577884674072,-3.08,-4.49,-1.46,5.63
7.869902849197388,-3.43,-4.03,-2.49,5.84
7.87682580947876,-4.45,-3.67,-3.95,6.99
7.886903762817383,-5.09,-3.17,-4.7,7.61
7.896935939788818,-4.74,-2.71,-4.9,7.33
7.907676935195923,-4.6,-2.45,-6.04,7.97
7.91691780090332,-6.27,-2.08,-7.97,10.35
7.9270079135894775,-8.79,-2.0,-9.25,12.91
7.938097953796387,-9.83,-2.69,-9.16,13.7
7.9696948528289795,-9.38,-3.37,-8.96,13.4
7.970026969909668,-8.7,-3.68,-9.1,13.11
7.970355033874512,-8.04,-3.56,-8.9,12.51
7.976755857467651,-7.35,-3.0,-8.49,11.62
7.98669695854187,-6.98,-2.79,-8.07,11.02
7.996778964996338,-7.2,-3.2,-7.68,11.0
8.00775694847107,-8.0,-3.2,-7.63,11.5
8.016915798187256,-8.9,4.18,-7.52,12.37
8.02690076828003,4.08,5.17,0.61,6.61
8.03800892829895,23.69,9.79,24.92,35.75
8.06898307800293,28.93,19.29,27.05,44.05
8.06933879852295,4.98,17.72,-13.34,22.73
8.069665908813477,-6.47,12.3,-15.12,20.53
8.076594829559326,-8.65,-0.89,-7.31,11.36
8.086617946624756,-15.53,-2.26,6.06,16.82
8.096664905548096,-14.9,-4.75,6.31,16.86
8.10762095451355,-10.71,-5.96,-5.1,13.27
8.116642951965332,-10.06,-4.12,-9.33,14.32
8.126851081848145,-5.91,-0.81,-6.36,8.71
8.13768482208252,-3.3,0.13,-1.6,3.66
8.16899585723877,-0.74,0.21,-0.7,1.04
8.169313907623291,1.85,1.15,-2.84,3.57
8.169620037078857,3.97,1.92,-2.47,5.05
8.17642593383789,3.14,1.22,-1.66,3.75
8.18639087677002,0.55,0.51,-2.82,2.91
8.19646406173706,-0.56,0.52,-3.64,3.71
8.207680940628052,-1.31,0.39,-2.82,3.13
8.216413974761963,-1.53,0.13,-1.44,2.1
8.22654390335083,-1.46,-0.05,-0.67,1.6
8.237517833709717,-1.64,-0.16,-0.26,1.66
8.268626928329468,-1.63,-0.2,-0.02,1.64
8.268943786621094,-1.21,-0.13,0.14,1.22
8.269263744354248,-0.55,0.01,-0.02,0.55
8.276236057281494,-0.3,0.08,-0.13,0.33
8.28620195388794,-0.24,0.1,0.09,0.27
8.296274900436401,0.0,0.07,0.07,0.09
8.307453870773315,0.27,0.03,0.02,0.27
8.316713809967041,0.23,-0.01,-0.01,0.23
8.32637882232666,0.04,-0.08,-0.11,0.14
8.337567806243896,0.29,-0.07,-0.01,0.29
8.36896276473999,0.83,0.08,0.34,0.9
8.369269847869873,1.28,0.2,0.67,1.45
8.369558811187744,1.5,0.2,1.03,1.83
8.376097917556763,1.31,0.18,1.21,1.79
8.386030912399292,0.51,0.15,1.1,1.22
8.396308898925781,-0.03,0.08,1.0,1.0
8.407280921936035,0.08,-0.03,1.34,1.34
8.416197776794434,0.54,-0.22,1.78,1.87
8.426270961761475,1.05,-0.4,1.83,2.14
8.437087059020996,1.65,-0.43,1.5,2.27
8.469285011291504,1.96,-0.18,0.93,2.17
8.469595909118652,1.79,0.2,0.44,1.85
8.469899892807007,1.42,0.49,0.25,1.52
8.47591495513916,1.06,0.49,0.38,1.22
8.486085891723633,0.82,0.43,0.57,1.08
8.496063947677612,0.66,0.48,0.72,1.08
8.507032871246338,0.76,0.55,1.11,1.45
8.516010761260986,0.98,0.68,1.71,2.08
8.526092052459717,1.41,0.89,2.2,2.76
8.537092924118042,1.68,1.2,1.96,2.84
8.569227933883667,1.74,1.37,1.78,2.84
8.56951904296875,1.46,1.43,1.78,2.71
8.569823741912842,1.62,1.72,1.35,2.72
8.575805902481079,1.81,1.87,1.12,2.83
8.585810899734497,1.69,1.99,1.19,2.86
8.595863819122314,1.54,2.05,1.64,3.04
8.606839895248413,1.63,2.31,2.11,3.52
8.61583685874939,1.66,2.51,2.8,4.11
8.625850915908813,1.29,3.29,3.38,4.89
8.636961936950684,1.04,6.41,2.82,7.07
8.669692993164062,3.58,8.81,3.66,10.18
8.670001029968262,4.94,7.9,6.58,11.4
8.670304775238037,4.78,7.79,7.43,11.77
8.67564582824707,5.72,8.99,7.8,13.2
8.685654878616333,5.98,10.06,8.24,14.31
8.695685863494873,5.01,9.91,8.57,14.02
8.70638394355774,3.95,8.59,7.41,12.01
8.715642929077148,3.45,6.21,2.74,7.61
8.72568392753601,4.16,5.32,-3.62,7.66
8.736677885055542,3.18,9.01,-7.1,11.9
8.769835948944092,-1.53,12.42,-4.66,13.35
8.77014684677124,-4.79,11.33,0.42,12.3
8.770452976226807,-2.42,7.68,0.4,8.06
8.775483846664429,2.48,4.07,0.08,4.76
8.785599946975708,1.98,1.99,1.11,3.01
8.795512914657593,-2.4,1.46,-2.84,3.99
8.80618691444397,-1.43,4.04,-5.37,6.87
8.815680980682373,3.66,6.02,-1.33,7.16
8.82554292678833,7.92,3.72,1.7,8.91
8.836480855941772,10.65,0.72,3.78,11.32
8.869479894638062,9.72,-1.05,3.65,10.43
8.869778871536255,7.4,-1.61,2.39,7.94
8.870062828063965,5.93,-1.7,1.78,6.42
8.87534785270691,4.31,-1.79,1.75,4.98
8.88533878326416,2.51,-1.77,1.51,3.42
8.89530086517334,1.06,-1.56,1.07,2.16
8.906023025512695,0.24,-1.29,0.85,1.56
8.91533088684082,0.28,-1.24,0.57,1.39
8.925370931625366,0.67,-1.23,-0.06,1.4
8.936412811279297,1.18,-1.29,-0.49,1.81
8.970181941986084,1.35,-1.71,-0.55,2.24
8.970472812652588,1.2,-2.22,-0.81,2.65
8.970757961273193,0.97,-2.8,-1.07,3.15
8.97516393661499,0.59,-3.58,-0.99,3.76
8.985270977020264,0.07,-4.46,-1.0,4.57
8.995219945907593,-0.58,-5.32,-1.01,5.44
9.005897998809814,-1.36,-6.01,-1.14,6.26
9.015301942825317,-1.96,-6.71,-1.07,7.07
9.025157928466797,-2.03,-7.47,-0.6,7.76
9.036103963851929,-1.79,-7.94,-0.29,8.14
9.070258855819702,-1.53,-8.21,-0.24,8.35
9.070549964904785,-1.91,-8.03,-1.05,8.32
9.070837020874023,-2.67,-7.82,-2.02,8.5
9.07499074935913,-3.58,-7.91,-2.29,8.97
9.085073947906494,-4.42,-7.48,-3.08,9.21
9.094981908798218,-4.89,-6.53,-4.43,9.28
9.105699062347412,-5.41,-5.38,-5.64,9.48
9.115076065063477,-6.31,-4.27,-6.52,10.02
9.125038862228394,-7.41,-3.34,-7.34,10.95
9.13605785369873,-8.01,-2.72,-7.81,11.51
9.171212911605835,-8.4,-2.22,-8.25,11.98
9.171522855758667,-8.64,-1.76,-8.77,12.43
9.171818733215332,-8.45,-1.18,-8.89,12.32
9.17481803894043,-7.98,-0.59,-8.91,11.97
9.184918880462646,-7.74,0.23,-8.8,11.72
9.19488787651062,-7.2,6.18,-8.49,12.73
9.20551085472107,0.82,1.22,-7.05,7.2
9.214988946914673,3.7,7.94,0.19,8.76
9.224926948547363,19.79,23.22,26.59,40.47
9.235925912857056,14.68,22.94,-1.6,27.28
9.269611835479736,2.12,10.17,-14.07,17.48
9.269900798797607,-6.99,-3.43,-4.03,8.76
9.270195007324219,-16.18,-5.92,7.03,18.6
9.274667739868164,-13.74,-7.31,4.22,16.12
9.284745931625366,-13.47,-6.16,-4.22,15.4
9.294806957244873,-10.56,-3.15,-6.4,12.74
9.305404901504517,-4.83,0.13,-3.82,6.15
9.314741849899292,-1.0,0.72,-0.59,1.36
9.324662923812866,1.3,0.61,-1.1,1.8
9.335734844207764,3.16,1.33,-3.84,5.14
9.370223045349121,4.53,1.88,-3.64,6.1
9.370513916015625,3.05,1.47,-1.58,3.73
9.370800971984863,0.27,1.16,-1.94,2.27
9.374465942382812,-1.24,0.48,-2.58,2.9
9.384582996368408,-2.1,-0.15,-2.2,3.04
9.39459490776062,-2.15,-0.37,-1.35,2.56
9.405247926712036,-1.32,-0.43,-0.45,1.45
9.414597988128662,-0.58,-0.33,-0.13,0.67
9.424560070037842,-0.49,-0.15,-0.02,0.51
9.435615062713623,-0.9,0.05,0.27,0.94
9.469963073730469,-1.02,0.16,0.46,1.13
9.470264911651611,-0.53,0.23,0.16,0.59
9.470555782318115,0.11,0.24,-0.18,0.31
9.474422931671143,0.31,0.21,-0.36,0.51
9.484423875808716,0.22,0.13,-0.67,0.71
9.494368076324463,0.33,-0.02,-0.85,0.91
9.505302906036377,0.49,-0.04,-0.82,0.95
9.514421939849854,0.44,0.06,-0.56,0.71
9.524581909179688,0.48,0.1,-0.12,0.5
9.535552978515625,0.53,0.14,0.12,0.56
9.570994853973389,0.17,0.12,0.2,0.28
9.571284770965576,-0.26,0.04,0.38,0.46
9.571573734283447,-0.19,0.08,0.69,0.72
9.574462890625,0.21,0.3,0.97,1.03
9.584283828735352,0.54,0.47,0.97,1.2
9.594265937805176,0.48,0.42,0.91,1.11
9.605100870132446,0.37,0.18,0.89,0.98
9.61431884765625,0.6,-0.05,0.8,1.0
9.624588966369629,0.96,-0.06,0.65,1.16
9.635262966156006,1.06,0.12,0.5,1.17
9.670772075653076,0.8,0.26,0.41,0.93
9.67106294631958,0.62,0.4,0.37,0.82
9.671347856521606,0.65,0.58,0.54,1.02
9.67432188987732,0.9,0.67,0.95,1.47
9.684256076812744,1.19,0.8,1.41,2.01
9.694138050079346,1.38,0.87,1.71,2.36
9.704814910888672,1.72,0.77,2.11,2.82
9.714226961135864,1.82,0.78,2.85,3.47
9.72450876235962,2.25,0.89,2.82,3.71
9.735200881958008,2.55,1.23,2.6,3.84
9.770680904388428,2.67,1.5,2.43,3.9
9.770972728729248,2.72,1.76,2.29,3.96
9.771256923675537,2.73,2.06,2.26,4.09
9.7742600440979,2.78,2.29,2.6,4.44
9.783998012542725,2.74,3.0,2.97,5.03
9.79398488998413,3.02,5.49,2.68,6.81
9.80466079711914,4.86,8.05,3.2,9.93
9.814004898071289,6.32,7.86,5.31,11.39
9.824395895004272,5.59,7.72,5.61,11.05
9.835068941116333,5.51,7.95,6.29,11.53
9.871448993682861,4.43,8.03,7.41,11.79
9.871738910675049,3.35,8.37,8.31,12.26
9.872009754180908,3.35,7.9,7.32,11.27
9.873697757720947,3.75,6.83,4.01,8.76
9.883944034576416,4.72,6.12,0.15,7.73
9.893785953521729,4.95,6.79,-3.61,9.14
9.904557943344116,1.82,9.89,-5.68,11.54
9.913804054260254,-3.58,10.93,-2.01,11.67
9.92385196685791,-3.51,9.12,0.93,9.81
9.934895038604736,0.57,6.94,-0.02,6.96
9.971482753753662,2.28,3.44,0.29,4.13
9.971776008605957,1.48,0.55,1.74,2.34
9.972060918807983,-1.02,-0.21,-1.27,1.64
9.973590850830078,-0.17,3.06,-4.72,5.62
9.983663082122803,4.37,5.59,-1.37,7.22
9.993695735931396,7.65,3.57,1.68,8.6
10.00431776046753,9.48,0.95,3.8,10.25
10.013736963272095,8.91,-0.7,4.04,9.8
10.02380084991455,7.31,-1.2,3.13,8.04
10.034560918807983,5.76,-1.58,3.2,6.77
10.07154393196106,4.45,-1.79,3.22,5.77
10.07183289527893,3.83,-1.48,2.87,5.0
10.072117805480957,2.89,-1.14,2.65,4.08
10.07353401184082,1.51,-0.92,2.14,2.77
10.083553791046143,-0.03,-0.83,1.4,1.62
10.093512058258057,-0.8,-0.68,0.61,1.21
10.10415506362915,-0.36,-0.45,0.47,0.74
10.113516807556152,0.5,-0.6,0.55,0.95
10.12361192703247,1.28,-0.97,0.74,1.76
10.134396076202393,1.56,-1.57,0.99,2.42
10.171063899993896,1.12,-1.97,1.17,2.55
10.171336889266968,0.42,-2.04,0.76,2.21
10.17160701751709,-1.06,-2.8,0.16,2.99
10.173319816589355,-2.78,-3.39,-0.76,4.44
10.18333888053894,-3.03,-3.65,-2.35,5.29
10.193361759185791,-3.09,-3.74,-2.42,5.42
10.203953742980957,-3.18,-4.07,-0.7,5.21
10.213356971740723,-3.34,-4.23,-0.39,5.4
10.223476886749268,-4.43,-3.76,-1.51,6.0
10.234263896942139,-5.68,-3.12,-2.52,6.95
10.271247863769531,-6.22,-2.55,-3.53,7.59
10.27151894569397,-6.41,-1.82,-4.66,8.13
10.27178692817688,-7.19,-1.0,-6.09,9.47
10.273133754730225,-8.28,-0.45,-7.49,11.17
10.283200740814209,-9.1,-0.46,-8.25,12.29
10.293238878250122,-9.86,-0.98,-8.6,13.12
10.303822994232178,-10.58,-2.01,-8.95,14.0
10.31332778930664,-9.96,-2.87,-8.81,13.6
10.323195934295654,-8.17,-3.21,-8.06,11.91
10.334223747253418,-6.89,-3.56,-7.5,10.78
10.371095895767212,-6.97,-3.76,-7.71,11.05
10.371370792388916,-8.89,0.63,-8.33,12.19
10.371639728546143,-4.96,-3.45,-9.77,11.48
10.372999906539917,-3.48,-4.38,-10.16,11.59
10.383028984069824,7.42,15.59,10.88,20.4
10.393481731414795,19.28,22.79,19.73,35.78
10.403616905212402,2.85,19.65,-12.96,23.71
10.413089752197266,-1.19,1.85,-4.12,4.67
10.423192977905273,-8.36,-7.28,-1.48,11.18
10.433940887451172,-10.24,-6.22,-4.2,12.69
10.47107195854187,-9.9,-2.81,-1.61,10.41
10.471351861953735,-10.59,-2.12,-4.12,11.55
10.471625804901123,-8.25,-0.19,-4.14,9.23
10.472918033599854,-4.89,0.27,-2.02,5.29
10.482903957366943,-1.38,0.04,-1.52,2.05
10.49289083480835,1.09,0.56,-1.46,1.9
10.503524780273438,2.36,0.92,-0.96,2.7
10.51307487487793,1.37,0.91,-1.39,2.15
10.523030757904053,-1.15,0.56,-2.65,2.94
10.53380298614502,-2.05,0.3,-2.95,3.6
10.571317911148071,-1.64,0.25,-2.29,2.82
10.571593761444092,-1.08,-0.01,-1.7,2.01
10.571858882904053,-0.64,-0.02,-1.56,1.68
10.572766780853271,-0.28,0.04,-1.58,1.6
10.582726001739502,0.1,0.06,-1.2,1.2
10.592544078826904,0.28,0.18,-0.69,0.76
10.603270053863525,0.13,0.27,-0.3,0.42
10.61274003982544,-0.25,0.22,0.03,0.33
10.622797966003418,-0.56,0.06,0.24,0.61
10.6336088180542,-0.61,-0.01,0.36,0.7
10.671279907226562,-0.32,-0.03,0.35,0.47
10.671547889709473,0.17,-0.04,0.12,0.21
10.671807765960693,0.61,0.0,-0.06,0.61
10.672608852386475,0.92,0.12,0.01,0.92
10.68256688117981,0.99,0.23,0.25,1.04
10.692579746246338,0.78,0.23,0.52,0.96
10.703207969665527,0.38,0.13,0.73,0.83
10.712560892105103,0.1,0.02,0.9,0.9
10.722603797912598,-0.06,-0.04,1.07,1.07
10.73341989517212,-0.09,-0.05,1.12,1.12
10.771086931228638,-0.04,-0.05,1.15,1.15
10.771352767944336,0.2,-0.16,1.19,1.21
10.771612882614136,0.58,-0.22,1.16,1.31
10.772500038146973,1.15,-0.33,0.99,1.55
10.782402038574219,1.79,-0.4,0.73,1.97
10.792317867279053,2.24,-0.19,0.7,2.35
10.803030967712402,1.8,0.11,0.88,2.0
10.812443733215332,1.28,0.31,1.07,1.69
10.822576999664307,1.38,0.4,1.22,1.88
10.833298921585083,1.58,0.25,1.07,1.92
10.872248888015747,1.21,0.15,1.43,1.87
10.87251591682434,1.11,0.44,1.18,1.67
10.872772932052612,1.36,0.86,0.87,1.82
10.873031854629517,1.51,1.11,1.09,2.16
10.88228988647461,1.65,1.26,1.19,2.39
10.892229080200195,1.88,1.61,1.31,2.8
10.903032779693604,1.91,1.89,1.35,3.0
10.913883924484253,1.45,2.42,0.96,2.98
10.922268867492676,1.61,3.27,1.22,3.84
10.93310284614563,1.33,3.49,1.84,4.16
10.972685813903809,0.99,5.08,2.42,5.71
10.972952842712402,2.57,7.35,2.54,8.19
10.97321081161499,4.64,7.15,4.57,9.67
10.973466873168945,4.17,6.9,5.06,9.51
10.98216199874878,3.88,7.47,5.53,10.07
10.992246866226196,3.63,8.19,6.75,11.21
11.002717018127441,3.96,9.26,7.9,12.79
11.012186050415039,4.83,9.91,8.17,13.72
11.022051811218262,5.41,9.39,7.11,12.96
11.033046960830688,5.9,8.0,6.25,11.74
11.072138786315918,5.92,6.38,3.99,9.57
11.07240104675293,6.45,5.94,0.08,8.76
11.072661876678467,5.55,8.71,-3.24,10.82
11.072921752929688,-0.34,12.78,-3.37,13.22
11.081977844238281,-4.93,12.93,-0.33,13.84
11.092162847518921,-2.53,9.27,0.69,9.63
11.102608919143677,2.66,5.35,1.99,6.29
11.11198902130127,1.14,3.89,1.67,4.38
11.122140884399414,-3.35,3.96,-5.12,7.28
11.132833003997803,0.03,6.53,-5.65,8.63
11.172518730163574,5.31,6.22,-0.13,8.17
11.172783851623535,8.79,2.62,2.5,9.5
11.173043727874756,9.66,-0.08,2.78,10.05
11.173306941986084,7.22,-1.35,2.11,7.64
11.181814908981323,5.43,-1.85,2.26,6.16
11.192063808441162,4.72,-1.93,2.91,5.87
11.202401876449585,4.0,-1.59,2.96,5.22
11.211827754974365,2.72,-1.17,2.78,4.06
11.221841812133789,1.37,-0.82,2.21,2.72
11.232699871063232,0.86,-0.66,1.37,1.74
11.272782802581787,1.08,-0.83,0.67,1.51
11.273045063018799,1.77,-1.34,0.62,2.3
11.273303985595703,2.22,-1.97,0.59,3.02
11.273568868637085,2.16,-2.51,0.2,3.31
11.281657934188843,1.78,-3.12,0.06,3.59
11.292050838470459,1.21,-3.98,-0.01,4.15
11.302234888076782,0.48,-4.98,-0.18,5.0
11.31166696548462,-0.06,-5.89,-0.09,5.89
11.321667909622192,-0.43,-6.87,-0.18,6.88
11.332542896270752,-0.76,-7.74,-0.16,7.77
11.373476028442383,-1.44,-8.45,-0.04,8.57
11.373745918273926,-2.03,-8.88,-0.31,9.11
11.374003887176514,-2.16,-9.12,-0.8,9.4
11.37426495552063,-2.29,-8.97,-1.19,9.33
11.382459878921509,-2.51,-8.11,-2.15,8.75
11.391686916351318,-2.96,-6.92,-3.52,8.3
11.402102947235107,-3.95,-5.46,-4.87,8.31
11.41151475906372,-5.03,-3.87,-5.78,8.58
11.421672821044922,-5.92,-2.74,-6.21,9.0
11.432330846786499,-6.89,-2.1,-6.46,9.67
11.441581726074219,-8.28,-1.55,-7.35,11.17
11.474328994750977,-9.8,-0.9,-8.66,13.1
11.474591732025146,-10.79,-0.47,-9.72,14.53
11.47485089302063,-10.9,-0.31,-9.91,14.73
11.48140001296997,-10.35,0.1,-9.58,14.1
11.491392850875854,-9.67,0.32,-9.36,13.46
11.501954078674316,-9.56,0.58,-8.89,13.06
11.51139497756958,-9.27,6.67,-8.35,14.14
11.521370887756348,-1.31,-0.35,-7.48,7.6
11.532240867614746,2.96,4.41,-1.49,5.51
11.541690826416016,25.1,21.91,31.97,46.17
11.574429988861084,18.21,21.56,5.91,28.83
11.574700832366943,1.1,9.7,-13.52,16.67
11.57496190071106,-5.49,-3.96,1.46,6.92
11.581278800964355,-13.83,-7.36,5.48,16.59
11.591247081756592,-18.03,-1.84,-0.53,18.13
11.60179090499878,-14.82,-2.62,-5.73,16.1
11.611203908920288,-9.61,-0.85,-7.86,12.44
11.621290922164917,-5.23,1.15,-6.29,8.26
11.632081985473633,-1.97,1.44,-4.2,4.85
11.64124584197998,0.47,0.52,-4.66,4.71
11.674516916275024,2.71,0.41,-4.69,5.43
11.674781799316406,2.73,0.79,-3.11,4.21
11.675044059753418,0.19,1.07,-2.23,2.48
11.681060791015625,-1.56,0.84,-2.27,2.87
11.690975904464722,-2.3,0.2,-2.05,3.08
11.701644897460938,-2.56,-0.16,-1.3,2.87
11.711020946502686,-2.27,-0.34,-0.24,2.3
11.72094988822937,-1.61,-0.47,0.34,1.71
11.73184585571289,-0.57,-0.38,0.55,0.87
11.74106502532959,0.12,-0.17,0.48,0.52
11.774252891540527,0.19,-0.03,0.0,0.19
11.774515867233276,0.06,0.09,-0.49,0.5
11.774759769439697,0.09,0.09,-0.54,0.55
11.780747890472412,0.26,-0.02,-0.24,0.35
11.790807962417603,0.36,-0.18,0.04,0.4
11.801362991333008,0.42,-0.18,0.16,0.48
11.810755729675293,0.43,-0.05,0.15,0.45
11.820860862731934,0.65,0.13,0.54,0.85
11.831546783447266,1.08,0.25,1.0,1.49
11.84090805053711,1.57,0.35,1.35,2.09
11.874575853347778,1.85,0.38,1.52,2.42
11.87484073638916,1.69,0.36,1.35,2.19
11.875104904174805,1.27,0.22,1.07,1.67
11.880855083465576,0.91,0.03,1.05,1.38
11.890862941741943,0.91,-0.14,1.15,1.47
11.901305913925171,0.88,-0.23,1.36,1.63
11.910762786865234,0.85,-0.25,1.44,1.69
11.920806884765625,1.1,-0.18,1.2,1.63
11.931634902954102,1.16,-0.02,0.76,1.38
11.940835952758789,1.11,0.11,0.15,1.12
11.97552490234375,1.08,0.09,-0.02,1.08
11.975789070129395,1.05,0.04,0.16,1.06
11.976049900054932,1.04,-0.03,0.53,1.16
11.9805748462677,0.91,-0.12,0.71,1.16
11.99070405960083,0.7,-0.06,0.49,0.85
12.001184940338135,0.47,0.07,0.96,1.07
12.0106520652771,0.43,0.39,1.48,1.58
12.023815870285034,0.78,0.78,1.48,1.84
12.031449794769287,1.18,1.16,1.26,2.07
12.040648937225342,1.61,1.66,1.25,2.62
12.074938774108887,2.01,2.0,1.44,3.18
12.075202941894531,2.14,2.62,1.59,3.73
12.075812816619873,2.22,2.81,1.63,3.93
12.08047103881836,2.01,2.98,1.94,4.08
12.09055495262146,1.74,3.25,2.5,4.45
12.10100793838501,1.41,5.04,2.62,5.85
12.110436916351318,2.53,8.3,2.42,9.0
12.12045693397522,4.88,9.35,4.98,11.66
12.132001876831055,4.72,9.49,6.65,12.51
12.14047384262085,4.77,10.28,7.46,13.56
12.176232814788818,5.61,11.95,8.65,15.78
12.176483869552612,6.4,12.99,8.65,16.86
12.176743984222412,5.94,11.36,7.85,15.03
12.18032693862915,4.62,8.14,6.22,11.23
12.19032907485962,4.97,5.87,0.94,7.74
12.2008957862854,5.95,7.21,-4.67,10.44
12.210295915603638,1.34,11.69,-5.53,13.0
12.22034502029419,-5.2,13.21,-3.14,14.53
12.231203079223633,-1.87,9.78,-2.28,10.21
12.240458965301514,1.89,4.95,0.51,5.32
12.276196956634521,-0.03,1.55,1.6,2.22
12.276462078094482,-2.87,0.9,-2.54,3.93
12.276721000671387,0.0,3.55,-2.94,4.6
12.28011178970337,5.07,3.36,1.26,6.21
12.290235042572021,9.05,0.86,3.36,9.69
12.300699949264526,10.32,-0.69,4.01,11.09
12.310144901275635,9.42,-1.79,3.79,10.31
12.32016897201538,8.63,-2.6,3.27,9.58
12.33102798461914,7.78,-2.5,2.72,8.61
12.340236902236938,6.72,-1.99,1.88,7.25
12.376297950744629,5.77,-1.2,0.99,5.97
12.376559734344482,4.6,-0.47,0.77,4.68
12.37682580947876,3.18,-0.71,2.18,3.92
12.380125999450684,1.69,-0.98,3.26,3.8
12.390006065368652,1.15,0.07,1.55,1.93
12.400536060333252,1.18,1.02,-0.04,1.56
12.409963846206665,1.33,1.16,-0.37,1.8
12.420024871826172,1.71,0.95,-0.69,2.07
12.430922985076904,1.55,0.95,-1.0,2.07
12.440194845199585,0.51,1.28,-1.61,2.11
12.47706389427185,-1.39,0.41,-2.74,3.09
12.477327823638916,-3.19,-0.92,-3.79,5.03
12.477592945098877,-3.69,-1.88,-5.02,6.5
12.47986388206482,-3.54,-2.96,-4.38,6.36
12.489806890487671,-3.28,-4.27,-2.02,5.75
12.500441074371338,-2.15,-4.92,-1.36,5.53
12.509791851043701,-1.99,-5.06,-2.21,5.86
12.519934892654419,-2.97,-5.42,-2.63,6.71
12.530633926391602,-4.58,-5.49,-3.0,7.75
12.539829730987549,-5.58,-5.07,-3.52,8.32
12.577046871185303,-5.36,-4.85,-4.31,8.41
12.577308893203735,-4.98,-4.66,-5.61,8.83
12.577570915222168,-5.88,-4.41,-6.74,9.97
12.579691886901855,-7.95,-4.08,-7.8,11.86
12.589655876159668,-9.59,-3.75,-8.57,13.39
12.600183963775635,-10.28,-3.73,-9.11,14.23
12.609962940216064,-10.73,-3.89,-9.54,14.87
12.619720935821533,-11.2,-4.09,-9.44,15.2
12.630504846572876,-11.02,-4.45,-8.94,14.87
12.639803886413574,-9.72,-4.26,-8.59,13.65
12.67799997329712,-8.71,-4.12,-8.36,12.75
12.678279876708984,-8.93,-5.13,-7.33,12.64
12.678552865982056,-9.72,-3.74,-6.63,12.34
12.679540872573853,-7.94,3.01,-7.12,11.08
12.689441919326782,3.67,-0.6,-4.13,5.55
12.700137853622437,27.93,19.03,31.98,46.52
12.70980191230774,24.01,36.58,12.88,45.61
12.719560861587524,-0.77,21.58,-20.63,29.86
12.730426788330078,-2.29,-3.13,-9.21,9.99
12.739608764648438,-16.56,-10.41,-1.95,19.65
12.77706789970398,-22.2,-6.35,6.06,23.87
12.777358055114746,-18.57,-3.96,-4.85,19.59
12.777617931365967,-14.04,-2.85,-8.22,16.51
12.779465913772583,-8.23,-0.32,-2.96,8.75
12.789414882659912,-1.29,0.13,-2.07,2.44
12.799931049346924,3.85,0.48,-2.66,4.7
12.809813022613525,6.63,1.5,-2.24,7.15
12.819613933563232,6.8,1.56,-2.18,7.3
12.830345869064331,2.06,1.22,-3.23,4.02
12.839437007904053,-2.08,0.28,-3.58,4.14
12.87742280960083,-3.18,-0.09,-2.74,4.19
12.877686977386475,-2.36,-0.11,-2.09,3.15
12.877945899963379,-1.82,-0.14,-1.7,2.49
12.87925386428833,-1.54,-0.11,-1.07,1.87
12.889205932617188,-0.61,-0.03,-0.47,0.77
12.899731874465942,0.35,-0.02,0.09,0.36
12.909231901168823,0.47,0.07,0.48,0.67
12.919265747070312,0.15,0.14,0.47,0.51
12.930083751678467,-0.24,0.11,0.39,0.47
12.939400911331177,-0.42,0.0,0.32,0.52
12.97826099395752,-0.33,-0.11,0.14,0.37
12.97854995727539,-0.05,-0.13,-0.2,0.24
12.978988885879517,0.37,-0.06,-0.34,0.5
12.979245901107788,0.81,0.03,-0.3,0.86
12.989208936691284,1.28,0.19,-0.14,1.3
12.999680042266846,1.61,0.28,0.23,1.65
13.009135961532593,1.58,0.22,0.94,1.85
13.019154071807861,1.38,0.12,1.46,2.01
13.030072927474976,1.01,0.13,1.61,1.9
13.03919506072998,0.56,0.16,1.56,1.66
13.077836036682129,0.25,-0.02,1.48,1.5
13.078099727630615,0.13,-0.18,1.45,1.46
13.078365802764893,0.3,-0.35,1.03,1.12
13.07881498336792,0.74,-0.36,0.65,1.04
13.088811874389648,1.24,-0.19,0.47,1.33
13.099431037902832,1.58,0.09,0.38,1.62
13.108795881271362,1.57,0.41,0.68,1.75
13.118934869766235,1.41,0.58,1.03,1.83
13.129656791687012,1.23,0.55,0.74,1.53
13.138978958129883,0.76,0.39,1.29,1.54
13.178476810455322,0.61,0.47,1.64,1.81
13.178743839263916,0.77,0.52,1.38,1.66
13.17899489402771,0.99,0.81,1.06,1.66
13.17924976348877,1.33,1.27,0.94,2.06
13.188752889633179,1.34,1.52,1.26,2.38
13.199246883392334,1.75,2.27,1.39,3.18
13.208744049072266,2.22,2.57,1.78,3.83
13.21884298324585,2.01,2.74,2.28,4.09
13.229667901992798,2.23,2.93,2.98,4.73
13.238895893096924,2.39,4.12,3.28,5.78
13.278496742248535,3.16,7.11,2.71,8.23
13.278756856918335,5.65,8.83,4.14,11.27
13.279013872146606,6.34,8.28,6.25,12.15
13.27927303314209,5.18,7.8,6.86,11.6
13.288572788238525,4.53,8.68,7.51,12.33
13.299177885055542,5.29,10.13,8.3,14.12
13.308841943740845,5.73,9.95,7.65,13.79
13.318660736083984,5.41,8.6,5.5,11.55
13.329517841339111,4.56,6.79,2.62,8.58
13.33870792388916,4.55,6.35,-1.45,7.94
13.379551887512207,4.18,8.86,-4.96,10.98
13.379817962646484,0.32,11.78,-4.42,12.58
13.380080938339233,-3.27,11.47,-0.88,11.95
13.380338907241821,-2.73,9.34,-0.28,9.73
13.388481855392456,-0.52,5.94,-0.61,5.99
13.399174928665161,2.44,2.05,0.76,3.27
13.408506870269775,0.3,0.15,-1.08,1.13
13.418523788452148,0.77,2.76,-4.85,5.63
13.429309844970703,5.36,4.88,-0.99,7.31
13.438536882400513,8.65,2.74,2.47,9.4
13.479026794433594,10.14,0.12,3.92,10.87
13.479292869567871,8.87,-1.61,3.29,9.59
13.479553937911987,7.33,-2.37,2.66,8.14
13.479811906814575,5.64,-2.67,2.95,6.9
13.488359928131104,3.8,-2.82,2.91,5.55
13.498929023742676,2.97,-2.54,2.47,4.62
13.508359909057617,2.71,-2.24,2.23,4.16
13.518353939056396,2.15,-2.01,1.84,3.47
13.529078960418701,1.53,-1.58,1.03,2.42
13.538413047790527,1.21,-1.17,0.49,1.75
13.580368041992188,1.32,-0.98,0.16,1.65
13.580635070800781,1.47,-0.99,-0.25,1.78
13.580894947052002,1.14,-1.36,-0.31,1.8
13.581153869628906,0.96,-1.88,0.4,2.14
13.59042501449585,0.35,-2.11,0.54,2.2
13.598744869232178,-0.37,-3.29,0.22,3.31
13.608587741851807,-1.42,-4.15,0.06,4.38
13.618165016174316,-1.02,-4.55,-0.32,4.67
13.628972053527832,-0.42,-4.75,-0.67,4.81
13.638246059417725,-1.27,-4.71,-0.29,4.88
13.679618835449219,-2.36,-4.14,-1.91,5.13
13.67988395690918,-3.35,-3.28,-3.49,5.84
13.680142879486084,-4.02,-3.22,-2.38,5.67
13.6804039478302,-3.92,-3.19,-1.84,5.37
13.688015937805176,-4.43,-2.51,-3.13,5.97
13.698578834533691,-5.84,-1.81,-4.49,7.58
13.708212852478027,-7.2,-1.12,-5.94,9.4
13.718057870864868,-8.05,-0.59,-7.07,10.73
13.728709936141968,-8.69,-0.65,-7.6,11.56
13.738080978393555,-9.46,-0.87,-7.9,12.35
13.780348777770996,-10.25,-1.11,-8.06,13.08
13.780613899230957,-10.21,-1.63,-7.76,12.92
13.780874729156494,-9.31,-1.84,-7.15,11.88
13.78113603591919,-8.39,-1.59,-6.96,11.01
13.787828922271729,-8.02,-0.72,-7.47,10.98
13.798467874526978,-7.42,3.52,-7.07,10.83
13.807878971099854,-3.0,-1.75,-5.74,6.7
13.817916870117188,-7.84,-3.26,-8.02,11.67
13.828558921813965,-3.25,7.97,-4.38,9.65
13.838477849960327,13.62,15.92,16.6,26.73
13.880423069000244,11.9,16.24,0.22,20.13
13.880691051483154,3.23,7.58,-8.16,11.59
13.880951881408691,-5.14,1.2,-2.51,5.84
13.881210803985596,-10.15,-4.78,-5.48,12.48
13.887781858444214,-8.2,-3.28,-3.6,9.53
13.898303985595703,-9.12,-2.35,-4.95,10.63
13.907787799835205,-9.16,-1.55,-6.26,11.2
13.91772985458374,-6.65,0.25,-4.48,8.02
13.928392887115479,-3.97,0.44,-2.15,4.53
13.93782377243042,-1.52,0.31,-1.11,1.9
13.980936050415039,0.23,0.54,-1.51,1.62
13.981199741363525,1.22,0.71,-0.95,1.7
13.981459856033325,0.66,0.57,-0.33,0.93
13.981719970703125,-0.36,0.47,-0.71,0.92
13.987542867660522,-0.63,0.31,-0.92,1.15
13.998096942901611,-0.62,0.18,-0.89,1.09
14.007606983184814,-0.69,-0.04,-0.83,1.08
14.017587900161743,-0.81,-0.23,-0.78,1.14
14.028365850448608,-0.58,-0.25,-0.91,1.1
14.037658929824829,-0.25,-0.04,-0.96,0.99
14.081963062286377,-0.11,0.04,-0.97,0.97
14.082225799560547,0.04,0.09,-1.06,1.06
14.082479000091553,0.16,0.09,-0.69,0.71
14.082741737365723,0.03,0.04,-0.05,0.07
14.087563037872314,-0.2,0.03,0.4,0.44
14.097938060760498,-0.25,0.07,0.54,0.59
14.107522964477539,0.06,0.14,0.49,0.51
14.117492914199829,0.61,0.15,0.43,0.76
14.128407001495361,1.11,0.11,0.55,1.24
14.137578010559082,1.35,0.11,0.63,1.49
14.181955814361572,1.45,0.14,0.75,1.63
14.182201862335205,1.26,0.14,0.89,1.54
14.182462930679321,0.96,0.08,0.94,1.34
14.182718753814697,0.74,0.0,1.04,1.27
14.187233924865723,0.73,-0.17,0.91,1.17
14.197793960571289,0.96,-0.29,1.01,1.42
14.207251071929932,1.25,-0.31,1.11,1.7
14.217474937438965,1.35,-0.23,0.81,1.59
14.263483047485352,1.45,-0.11,0.58,1.56
14.263752937316895,1.48,0.08,0.55,1.58
14.264019966125488,1.24,0.19,0.6,1.39
14.264277935028076,1.06,0.15,0.88,1.38
14.267193794250488,1.16,-0.06,1.39,1.81
14.277521848678589,1.56,-0.24,1.61,2.25
14.28717589378357,2.11,-0.34,1.58,2.65
14.297792911529541,2.36,-0.35,1.79,2.98
14.307316780090332,2.24,-0.25,1.85,2.91
14.317192077636719,2.26,0.02,1.9,2.95
14.36584997177124,2.3,0.31,1.61,2.82
14.366117000579834,1.84,0.54,1.17,2.24
14.366398811340332,1.33,0.84,0.72,1.73
14.36683702468872,1.06,1.18,0.38,1.63
14.367100954055786,0.87,1.49,0.33,1.75
14.37742805480957,0.78,1.86,0.66,2.12
14.387017726898193,0.81,2.8,0.63,2.98
14.397614002227783,1.13,5.62,0.68,5.77
14.406974792480469,3.02,6.64,1.65,7.47
14.417062759399414,3.4,5.85,3.34,7.54
14.465424060821533,2.94,6.04,3.76,7.69
14.46569299697876,2.81,6.97,4.43,8.72
14.465950965881348,3.03,8.13,5.31,10.17
14.466240882873535,3.57,9.23,6.45,11.81
14.466835021972656,4.04,10.04,6.85,12.8
14.476847887039185,4.42,10.34,6.05,12.76
14.486896991729736,4.27,9.5,5.75,11.89
14.497479915618896,4.59,8.04,4.8,10.42
14.50688886642456,5.92,6.37,2.03,8.92
14.516845941543579,6.23,6.3,-1.38,8.96
14.56679892539978,3.21,8.87,-2.88,9.86
14.567064762115479,-2.28,11.28,-1.36,11.58
14.56732702255249,-3.26,10.57,-0.85,11.09
14.567584037780762,0.27,7.78,-0.7,7.81
14.567842960357666,2.71,4.26,1.22,5.19
14.576773881912231,0.42,2.18,0.56,2.28
14.586708068847656,-2.01,3.16,-4.16,5.59
14.597332000732422,1.91,5.14,-2.27,5.93
14.606785774230957,6.2,3.43,1.7,7.28
14.616726875305176,8.9,0.79,3.97,9.77
14.665414810180664,8.37,-0.61,5.05,9.79
14.665689945220947,6.23,-1.24,4.31,7.67
14.665987968444824,4.33,-1.43,3.12,5.52
14.666429042816162,2.78,-1.45,2.6,4.07
14.6666898727417,1.47,-1.37,2.53,3.23
14.676578998565674,0.72,-1.41,2.8,3.21
14.686583042144775,0.52,-1.43,2.82,3.2
14.697258949279785,0.82,-1.44,2.49,2.99
14.706565856933594,0.95,-1.6,1.93,2.68
14.716686964035034,0.92,-1.64,1.33,2.3
14.765676021575928,0.86,-1.79,1.02,2.23
14.766737937927246,0.83,-2.03,0.95,2.39
14.767001867294312,0.9,-2.55,1.02,2.89
14.767261028289795,1.06,-3.36,1.09,3.68
14.76752495765686,1.22,-4.02,0.99,4.31
14.776426792144775,1.09,-4.58,1.22,4.86
14.78643798828125,0.34,-5.08,1.33,5.26
14.79698896408081,-0.23,-5.41,0.86,5.48
14.806450843811035,-0.99,-5.26,-0.17,5.35
14.816428899765015,-2.68,-5.08,-2.05,6.09
14.827226877212524,-4.14,-4.76,-3.8,7.36
14.866466045379639,-5.24,-4.66,-3.03,7.63
14.866727828979492,-6.05,-4.78,-2.21,8.02
14.866986751556396,-5.87,-4.21,-2.76,7.73
14.867248058319092,-5.28,-3.08,-3.8,7.19
14.876269817352295,-5.02,-1.97,-5.17,7.47
14.886266946792603,-5.81,-0.93,-6.66,8.88
14.896898746490479,-7.95,-0.18,-8.37,11.54
14.906310081481934,-10.23,0.14,-9.16,13.73
14.91621994972229,-11.19,-0.72,-8.7,14.19
14.927062034606934,-11.02,-1.8,-8.38,13.96
14.967329025268555,-10.0,-2.32,-8.63,13.41
14.967593908309937,-8.9,-2.37,-8.66,12.64
14.967854976654053,-8.39,-3.1,-8.17,12.11
14.968113899230957,-8.24,-4.43,-6.98,11.67
14.976045846939087,-9.36,-0.47,-6.69,11.51
14.986117839813232,-6.15,-0.05,-6.28,8.78
14.996674060821533,4.47,3.29,-1.93,5.87
15.006628036499023,23.62,21.45,26.94,41.75
15.016067028045654,11.75,28.97,-2.84,31.39
15.026848793029785,0.51,15.59,-16.95,23.03
15.068161010742188,-4.35,-5.69,-2.14,7.47
15.068424940109253,-11.26,-10.8,1.86,15.71
15.06868290901184,-9.89,-6.9,-1.86,12.2
15.068942070007324,-11.06,-4.03,-6.43,13.41
15.075884819030762,-10.17,-1.42,-4.44,11.18
15.086052894592285,-6.48,0.56,-1.01,6.58
15.096614837646484,-3.18,0.45,0.04,3.21
15.105933904647827,-1.22,0.22,-0.96,1.56
15.116095066070557,0.58,0.32,-1.38,1.53
15.126774787902832,1.68,0.45,-1.57,2.34
15.168624877929688,0.6,0.82,-2.43,2.63
15.16888689994812,-0.73,0.9,-2.63,2.87
15.169144868850708,-0.51,0.49,-2.2,2.31
15.169404983520508,0.01,-0.01,-2.0,2.0
15.17574405670166,-0.17,-0.14,-1.86,1.87
15.185849905014038,-0.59,-0.06,-1.78,1.87
15.196402072906494,-0.45,0.02,-1.69,1.74
15.20579195022583,-0.26,0.12,-1.37,1.39
15.215820789337158,-0.47,0.17,-0.77,0.91
15.226625919342041,-1.01,0.13,-0.09,1.02
15.268767833709717,-1.19,0.05,0.32,1.23
15.26902985572815,-0.88,0.11,0.47,1.0
15.269289016723633,-0.51,0.18,0.46,0.71
15.269545078277588,-0.14,0.17,0.06,0.22
15.27545976638794,0.44,0.17,-0.32,0.57
15.285598754882812,1.18,0.2,-0.62,1.34
15.296026945114136,1.45,0.14,-0.79,1.65
15.305576801300049,1.14,0.06,-0.74,1.36
15.315611839294434,0.94,-0.01,-0.57,1.09
15.326510906219482,0.8,0.03,0.04,0.8
15.368793964385986,0.39,0.16,0.53,0.67
15.36906099319458,0.06,0.13,0.9,0.91
15.3693208694458,-0.21,0.2,1.44,1.46
15.369581937789917,-0.36,0.27,1.46,1.52
15.375485897064209,-0.25,0.16,1.5,1.52
15.385503768920898,0.06,0.04,1.48,1.48
15.395957946777344,0.68,-0.11,1.38,1.54
15.405519962310791,1.42,-0.22,1.37,1.98
15.415513038635254,1.94,-0.08,0.99,2.17
15.42630386352539,2.23,0.24,0.62,2.32
15.469513893127441,2.17,0.54,0.81,2.37
15.46977686882019,1.84,0.61,1.26,2.31
15.470033884048462,1.35,0.6,1.49,2.09
15.470293998718262,0.91,0.7,1.3,1.73
15.475351810455322,0.56,0.66,2.04,2.21
15.485382080078125,0.89,0.81,2.75,3.0
15.495830059051514,1.73,1.17,2.74,3.44
15.505290031433105,1.87,1.7,2.33,3.43
15.515392780303955,2.1,2.01,2.13,3.6
15.526124954223633,1.9,2.15,2.26,3.65
15.57033085823059,1.83,2.27,2.43,3.79
15.570592880249023,2.17,2.36,2.75,4.22
15.57085394859314,2.53,2.86,2.73,4.69
15.5711088180542,2.92,4.57,2.37,5.91
15.575163841247559,4.31,6.43,2.41,8.1
15.585230827331543,5.34,5.93,4.09,8.96
15.595911026000977,4.73,5.34,4.58,8.47
15.60517406463623,4.3,5.82,5.35,8.99
15.615169048309326,3.06,6.68,7.02,10.16
15.626001834869385,1.96,7.76,8.15,11.42
15.669960021972656,2.44,8.45,8.14,11.98
15.67022180557251,2.43,7.96,7.07,10.92
15.670488834381104,2.56,6.39,4.38,8.15
15.670746803283691,3.79,5.95,-0.07,7.05
15.67499303817749,3.99,8.15,-3.63,9.77
15.68500280380249,0.81,10.75,-4.47,11.67
15.695855855941772,-2.01,11.21,-1.24,11.45
15.705237865447998,-1.83,10.14,1.0,10.35
15.715025901794434,-0.04,8.37,1.84,8.56
15.725852966308594,3.89,5.31,1.12,6.67
15.769464015960693,3.33,3.52,0.42,4.86
15.769726753234863,-1.6,3.79,-3.1,5.15
15.769989013671875,-1.26,5.81,-5.98,8.43
15.770246982574463,2.71,6.63,-1.68,7.35
15.774844884872437,5.69,3.8,1.57,7.02
15.78490686416626,8.02,0.54,2.54,8.42
15.79571795463562,8.43,-1.54,2.76,9.0
15.804880857467651,7.33,-2.76,3.06,8.4
15.814938068389893,6.28,-3.22,3.61,7.92
15.825708866119385,4.79,-2.63,3.81,6.66
15.869589805603027,2.78,-1.35,2.89,4.23
15.869862079620361,0.84,-0.44,1.85,2.07
15.870131969451904,0.12,-0.43,1.28,1.35
15.87040090560913,0.42,-0.51,0.84,1.06
15.874735832214355,1.6,-0.35,0.76,1.8
15.884779930114746,2.91,-0.09,0.79,3.01
15.895582914352417,2.87,0.14,0.24,2.88
15.904731750488281,1.23,0.0,-0.94,1.54
15.914674758911133,-0.76,-0.93,-2.44,2.71
15.925601959228516,-1.15,-1.98,-3.05,3.81
15.970164775848389,-1.06,-2.88,-2.0,3.66
15.9704270362854,-0.48,-3.57,-1.06,3.75
15.970685958862305,-0.26,-4.13,-1.27,4.32
15.970944881439209,-0.57,-4.54,-1.66,4.86
15.974591732025146,-1.09,-4.95,-1.41,5.26
15.984592914581299,-1.68,-5.37,-1.16,5.74
15.995450019836426,-2.36,-5.56,-1.31,6.18
16.00458574295044,-3.2,-5.69,-1.94,6.81
16.01460886001587,-4.4,-5.87,-3.11,7.96
16.02533483505249,-5.49,-6.05,-4.23,9.19
16.070420742034912,-6.11,-6.11,-4.87,9.91
16.070684909820557,-6.08,-6.03,-5.04,9.93
16.0709547996521,-6.31,-5.5,-6.11,10.36
16.071213960647583,-7.92,-4.26,-8.23,12.19
16.074349880218506,-9.56,-3.16,-9.25,13.67
16.08444881439209,-9.87,-2.73,-9.04,13.65
16.094936847686768,-9.21,-2.77,-8.42,12.78
16.104413986206055,-8.77,-3.14,-8.42,12.55
16.11443591117859,-8.95,-3.43,-8.85,13.04
16.125305891036987,-8.82,-3.2,-8.4,12.59
16.17066788673401,-7.66,-3.69,-8.02,11.68
16.170934915542603,-7.79,-2.82,-7.27,11.02
16.17119598388672,-7.4,4.73,-6.18,10.73
16.171454906463623,0.05,-2.04,-6.7,7.0
16.174402952194214,11.85,15.41,15.64,24.94
16.184866905212402,22.95,28.83,22.51,43.18
16.194865942001343,3.51,22.52,-15.93,27.8
16.204351902008057,0.31,3.64,-10.22,10.85
16.214317798614502,-9.74,-9.36,-4.03,14.09
16.225148916244507,-14.06,-7.58,3.65,16.38
16.269926071166992,-13.09,-4.23,-1.06,13.79
16.270187854766846,-11.41,-2.92,-8.02,14.24
16.27044677734375,-8.58,-0.12,-5.23,10.04
16.270704746246338,-5.26,0.68,-1.9,5.63
16.274415969848633,-1.63,0.12,-1.78,2.41
16.284141063690186,1.14,0.75,-2.3,2.67
16.294655799865723,3.24,1.18,-1.84,3.9
16.304112911224365,2.87,1.07,-1.32,3.33
16.314136028289795,0.41,0.76,-2.3,2.45
16.324989795684814,-0.42,0.37,-3.14,3.18
16.370247840881348,-0.55,0.2,-2.56,2.62
16.370512008666992,-0.96,0.04,-1.33,1.64
16.370774745941162,-1.06,-0.21,-0.56,1.21
16.37103295326233,-0.64,-0.31,-0.4,0.81
16.374053955078125,-0.39,-0.26,-0.27,0.54
16.38423991203308,-0.44,-0.09,-0.03,0.45
16.394584894180298,-0.28,0.09,0.09,0.3
16.40398406982422,-0.16,0.15,0.18,0.28
16.41404390335083,-0.25,0.07,0.28,0.38
16.424776077270508,-0.29,-0.03,0.14,0.32
16.469631910324097,-0.14,-0.04,-0.04,0.15
16.469899892807007,0.07,-0.01,-0.21,0.22
16.47016477584839,0.37,0.11,-0.38,0.54
16.47042489051819,0.69,0.19,-0.44,0.84
16.473837852478027,0.96,0.26,-0.3,1.03
16.483874797821045,0.94,0.31,0.28,1.02
16.49430274963379,0.65,0.22,0.7,0.98
16.50377893447876,0.19,0.06,1.03,1.04
16.51380205154419,-0.31,-0.01,1.05,1.09
16.52466583251953,-0.45,-0.01,0.67,0.8
16.570191860198975,-0.4,0.03,0.4,0.56
16.57045888900757,-0.16,0.0,0.36,0.39
16.57071876525879,0.33,-0.11,0.45,0.56
16.570976734161377,1.07,-0.21,0.76,1.32
16.57367181777954,1.94,-0.19,1.05,2.21
16.583662033081055,2.71,-0.06,1.24,2.98
16.594225883483887,2.93,0.17,1.33,3.22
16.603662967681885,2.54,0.17,1.59,3.0
16.61375379562378,2.14,0.04,1.89,2.85
16.62447690963745,1.93,-0.12,1.83,2.66
16.66999387741089,1.43,-0.21,1.87,2.36
16.670260906219482,1.14,-0.07,1.66,2.01
16.670520782470703,1.18,0.24,1.53,1.94
16.670788764953613,1.36,0.51,1.55,2.12
16.673469066619873,1.6,0.63,1.52,2.29
16.683509826660156,1.91,0.88,1.63,2.66
16.694063901901245,2.05,1.39,1.56,2.92
16.703535079956055,2.03,1.94,1.3,3.09
16.713517904281616,1.62,2.28,1.46,3.15
16.724329948425293,1.3,3.69,1.1,4.06
16.76975989341736,2.14,5.98,0.88,6.41
16.77002191543579,3.8,6.52,2.4,7.91
16.77028179168701,4.16,5.48,4.06,7.98
16.770540952682495,4.04,5.79,3.83,8.03
16.773367881774902,4.27,6.65,4.98,9.34
16.78336191177368,4.25,7.44,6.38,10.68
16.793901920318604,4.84,8.47,6.96,11.98
16.803431034088135,5.9,9.57,7.04,13.26
16.81335186958313,6.0,9.72,7.15,13.47
16.82414484024048,5.35,8.71,6.68,12.21
16.870844841003418,5.11,7.01,5.0,10.01
16.87110996246338,4.49,5.55,1.85,7.37
16.871372938156128,4.18,5.89,-2.39,7.6
16.871635913848877,2.21,9.26,-5.61,11.05
16.873483896255493,-2.65,12.46,-1.98,12.89
16.883265018463135,-4.46,11.2,0.95,12.09
16.89375591278076,-1.67,8.79,-0.19,8.94
16.903268814086914,2.9,5.24,-0.23,5.99
16.914211750030518,2.58,2.37,0.64,3.56
16.924077033996582,-1.08,2.25,-3.87,4.6
16.97142791748047,0.91,5.06,-4.55,6.86
16.971691846847534,4.92,4.63,-0.27,6.76
16.971954822540283,8.22,1.06,2.98,8.8
16.9722158908844,9.25,-1.6,4.75,10.52
16.973104000091553,7.57,-2.76,4.91,9.43
16.98306393623352,5.52,-3.27,4.48,7.82
16.993663787841797,3.33,-2.96,3.77,5.83
17.00309705734253,1.83,-1.98,2.77,3.86
17.01308584213257,0.92,-1.11,1.93,2.4
17.023982048034668,0.51,-0.85,1.31,1.64
17.071125030517578,0.58,-1.26,1.33,1.92
17.071393966674805,0.94,-1.73,1.27,2.34
17.0716609954834,1.38,-1.9,0.96,2.53
17.071918964385986,1.61,-2.2,0.83,2.84
17.07283878326416,1.6,-2.81,0.85,3.34
17.08315896987915,1.57,-3.57,0.98,4.02
17.093589782714844,1.5,-4.29,1.1,4.67
17.10294795036316,1.31,-4.95,1.12,5.24
17.113146781921387,0.83,-5.44,1.32,5.65
17.123822927474976,0.05,-5.73,1.48,5.91
17.17150092124939,-0.49,-5.69,1.2,5.83
17.171767950057983,-1.2,-5.44,0.52,5.59
17.1720290184021,-2.23,-5.05,-0.82,5.58
17.172345876693726,-3.48,-4.43,-2.46,6.14
17.17277193069458,-5.07,-3.98,-3.16,7.17
17.1827130317688,-6.21,-3.71,-3.52,8.04
17.19330096244812,-6.87,-3.03,-4.94,8.98
17.202768802642822,-7.19,-2.05,-6.43,9.86
17.21301507949829,-7.47,-1.07,-7.52,10.65
17.223587036132812,-7.9,-0.39,-8.36,11.5
17.27104377746582,-8.75,0.07,-9.32,12.78
17.271317958831787,-9.53,0.19,-9.81,13.67
17.27157974243164,-9.6,-0.19,-9.47,13.48
17.271838903427124,-8.61,0.01,-8.91,12.39
17.272696018218994,-7.17,0.39,-8.61,11.21
17.282538890838623,-5.99,0.09,-8.61,10.48
17.293148040771484,-6.72,2.73,-8.98,11.54
17.30267095565796,-5.44,3.51,-6.48,9.15
17.312925815582275,-2.71,-6.87,-8.11,10.96
17.323530912399292,-2.29,0.18,-6.77,7.14
17.371612071990967,12.37,13.62,17.69,25.52
17.37191390991211,14.94,15.74,12.56,25.07
17.372357845306396,2.51,12.44,-10.32,16.35
17.3726167678833,-6.53,6.35,-2.82,9.53
17.372878074645996,-10.77,-4.06,-2.72,11.82
17.382446765899658,-8.0,-2.92,-0.99,8.57
17.39302682876587,-6.7,-2.7,-1.17,7.31
17.40248394012451,-6.98,-3.09,-4.63,8.92
17.412500858306885,-5.45,-1.55,-5.82,8.12
17.42334794998169,-3.28,0.03,-4.7,5.73
17.47209882736206,-1.26,0.6,-2.48,2.84
17.472399950027466,0.38,0.67,-1.39,1.58
17.472688913345337,1.88,0.82,-1.19,2.37
17.472944736480713,2.15,0.81,-0.79,2.42
17.473200798034668,0.29,0.53,-1.06,1.22
17.482257843017578,-1.38,0.11,-2.09,2.5
17.493133068084717,-1.77,-0.01,-1.98,2.65
17.502302885055542,-1.69,-0.1,-1.14,2.04
17.512290000915527,-1.35,-0.13,-0.69,1.52
17.52308988571167,-0.87,-0.16,-0.82,1.2
17.57244086265564,-0.75,-0.1,-1.18,1.4
17.572707891464233,-0.46,0.15,-1.12,1.22
17.57296895980835,-0.19,0.31,-0.84,0.91
17.5732319355011,-0.17,0.35,-0.66,0.76
17.57349395751953,-0.2,0.24,-0.58,0.65
17.58215093612671,-0.18,0.06,-0.34,0.38
17.592782974243164,-0.04,-0.07,0.0,0.08
17.602213859558105,0.13,-0.11,0.21,0.27
17.61220693588257,0.4,-0.04,0.15,0.42
17.622923851013184,0.71,0.1,0.19,0.74
17.671806812286377,0.97,0.17,0.41,1.06
17.672080993652344,0.98,0.16,0.37,1.05
17.672321796417236,0.72,0.16,0.36,0.82
17.672576904296875,0.45,0.08,0.7,0.83
17.672832012176514,0.41,0.04,1.14,1.21
17.682052850723267,0.53,0.04,1.11,1.23
17.69254779815674,0.41,-0.05,0.98,1.06
17.702048778533936,0.31,-0.18,0.98,1.04
17.712027072906494,0.43,-0.24,1.02,1.13
17.72286891937256,0.74,-0.14,0.82,1.11
17.77051591873169,0.98,-0.01,0.61,1.15
17.770777940750122,1.03,0.16,0.43,1.12
17.77103590965271,0.96,0.32,0.32,1.06
17.771307945251465,0.85,0.38,0.42,1.02
17.771867752075195,0.77,0.42,0.62,1.07
17.78191375732422,0.74,0.56,0.79,1.21
17.792479038238525,0.56,0.58,0.9,1.2
17.801920890808105,0.24,0.46,0.73,0.89
17.811841011047363,0.06,0.39,1.0,1.07
17.822568893432617,0.14,0.59,1.52,1.63
17.870769023895264,0.85,0.9,1.66,2.07
17.8710618019104,1.44,1.35,1.39,2.41
17.8715078830719,1.56,1.86,1.28,2.74
17.87177276611328,1.83,2.09,1.06,2.97
17.87201189994812,1.95,2.24,1.06,3.15
17.88175392150879,2.12,2.36,1.02,3.33
17.892298936843872,2.26,2.88,1.11,3.82
17.902307987213135,2.5,4.23,1.39,5.1
17.91165781021118,3.67,6.0,1.89,7.28
17.922550916671753,5.13,6.27,3.58,8.85
17.971747875213623,5.15,6.32,4.53,9.32
17.972006797790527,5.06,6.81,5.5,10.11
17.97226595878601,4.36,7.33,6.37,10.64
17.972521781921387,3.96,8.2,6.92,11.43
17.972777843475342,3.57,9.09,8.43,12.9
17.98154091835022,3.01,9.26,8.48,12.91
17.992166996002197,2.58,8.1,6.36,10.61
18.00158405303955,3.17,6.62,2.26,7.67
18.01150608062744,5.51,6.81,-1.96,8.97
18.0223069190979,5.52,10.0,-4.04,12.11
18.0715548992157,0.3,12.47,-2.57,12.73
18.071825981140137,-2.78,11.13,0.07,11.47
18.072086811065674,-0.47,8.02,0.84,8.07
18.07234787940979,2.47,5.17,1.83,6.01
18.072621822357178,0.76,3.62,2.53,4.48
18.081439971923828,-4.0,3.71,-2.67,6.07
18.092041015625,-1.27,6.28,-4.65,7.91
18.101449966430664,4.13,6.3,0.32,7.53
18.1114559173584,7.98,2.9,3.0,9.0
18.122175931930542,9.83,0.63,3.56,10.47
18.17191982269287,8.17,-0.59,2.93,8.69
18.172183990478516,6.05,-1.45,2.65,6.76
18.17244791984558,4.41,-2.22,3.05,5.8
18.172708988189697,3.07,-2.92,3.26,5.34
18.172965049743652,1.86,-3.17,2.99,4.73
18.181252002716064,0.94,-3.07,2.68,4.18
18.19188094139099,0.46,-2.86,2.24,3.66
18.201276779174805,0.55,-2.77,1.85,3.37
18.211294889450073,0.82,-2.81,1.58,3.32
18.222100734710693,1.16,-2.71,1.21,3.18
18.27166175842285,1.17,-2.71,0.86,3.07
18.27192974090576,0.88,-2.86,0.51,3.03
18.272194862365723,0.53,-3.17,0.33,3.23
18.27245807647705,0.21,-3.6,0.27,3.61
18.272718906402588,-0.01,-4.32,0.31,4.33
18.281070947647095,-0.23,-5.07,0.38,5.08
18.29169988632202,-0.46,-5.68,0.54,5.72
18.301193952560425,-0.7,-6.31,0.79,6.39
18.31114673614502,-0.74,-6.71,1.0,6.82
18.321810960769653,-1.02,-6.81,1.18,6.98
18.37162685394287,-1.36,-6.52,0.8,6.7
18.37189483642578,-1.64,-6.15,0.3,6.37
18.372159004211426,-2.44,-5.56,-0.8,6.12
18.372416973114014,-3.86,-4.78,-2.28,6.55
18.37267780303955,-5.75,-3.77,-3.82,7.86
18.38094687461853,-7.02,-2.34,-4.81,8.82
18.391604900360107,-7.28,-0.8,-4.9,8.81
18.400970935821533,-7.26,0.5,-4.83,8.73
18.411139965057373,-7.21,1.64,-5.03,8.94
18.421783924102783,-7.36,2.37,-5.74,9.62
18.47201895713806,-7.38,2.68,-6.13,9.96
18.472280979156494,-7.67,2.34,-5.74,9.86
18.47254180908203,-8.04,1.44,-5.71,9.96
18.47280502319336,-7.74,0.07,-5.65,9.58
18.473065853118896,-7.15,-1.47,-5.3,9.02
18.480759859085083,-7.89,-0.15,-5.5,9.61
18.49132776260376,-6.22,1.44,-5.85,8.65
18.50076389312744,-4.32,-6.29,-9.09,11.86
18.51093888282776,-1.32,5.02,-3.58,6.3
18.521642923355103,16.36,18.36,22.63,33.41
18.573317050933838,13.01,19.73,6.56,24.52
18.573585987091064,-4.59,10.32,-9.25,14.59
18.573845863342285,-10.56,-2.4,-2.5,11.11
18.57411003112793,-11.39,-6.88,-5.05,14.23
18.5743727684021,-9.02,-2.35,-1.23,9.4
18.580766916275024,-7.84,-2.46,-1.48,8.34
18.591243743896484,-6.46,-1.88,-4.79,8.25
18.60065984725952,-4.34,-0.17,-5.28,6.83
18.61068296432495,-1.82,0.39,-3.43,3.9
18.621484756469727,0.41,0.23,-2.24,2.28
18.672281742095947,2.15,0.43,-1.71,2.78
18.672553062438965,2.31,0.58,-1.1,2.62
18.67281484603882,0.67,0.37,-0.96,1.22
18.673081874847412,-1.55,0.2,-1.95,2.49
18.673338890075684,-2.36,0.25,-2.1,3.16
18.68070888519287,-2.14,0.37,-1.48,2.62
18.691105842590332,-1.92,0.26,-1.05,2.2
18.70052480697632,-1.57,0.07,-1.36,2.07
18.710588932037354,-1.21,-0.15,-1.69,2.08
18.721288919448853,-1.0,-0.15,-1.26,1.61
18.771728038787842,-0.72,0.1,-0.91,1.16
18.771995067596436,-0.55,0.28,-0.89,1.08
18.772238731384277,-0.55,0.22,-0.6,0.84
18.77249574661255,-0.62,0.07,-0.37,0.72
18.77275586128235,-0.65,-0.05,-0.06,0.65
18.780707836151123,-0.4,-0.18,0.15,0.46
18.790915966033936,0.09,-0.11,0.25,0.28
18.80040192604065,0.63,0.05,0.34,0.71
18.81028175354004,0.97,0.19,0.45,1.08
18.8213210105896,0.94,0.24,0.57,1.12
18.871187925338745,0.76,0.17,0.55,0.95
18.87241792678833,0.49,0.15,0.47,0.69
18.87268590927124,0.16,0.17,0.56,0.6
18.872943878173828,0.04,0.15,0.61,0.62
18.873199939727783,0.19,0.03,0.88,0.9
18.883296966552734,0.63,-0.11,1.29,1.43
18.8907790184021,1.18,-0.21,1.38,1.82
18.90019392967224,1.63,-0.33,1.21,2.05
18.910209894180298,1.85,-0.26,1.13,2.18
18.920970916748047,2.02,-0.04,0.74,2.15
18.970853805541992,1.93,0.24,0.51,2.01
18.97193479537964,1.94,0.35,0.51,2.03
18.9721999168396,1.93,0.45,0.53,2.05
18.97244095802307,1.93,0.59,0.47,2.07
18.972696781158447,1.97,0.61,0.46,2.11
18.98009490966797,1.97,0.49,0.47,2.08
18.990609884262085,2.14,0.49,0.73,2.31
19.00005578994751,2.42,0.83,0.87,2.7
19.010045051574707,2.26,1.15,0.91,2.69
19.020834922790527,2.43,1.54,0.92,3.02
19.030073881149292,2.75,2.23,1.32,3.77
19.07113790512085,2.23,2.23,2.14,3.81
19.07138204574585,1.76,2.47,2.14,3.71
19.07164478302002,1.71,2.69,2.4,3.99
19.07190179824829,1.65,3.0,2.65,4.32
19.079818964004517,1.81,4.12,2.65,5.22
19.090418815612793,2.93,6.57,2.14,7.5
19.099888801574707,5.01,7.18,3.19,9.31
19.109957933425903,4.65,6.33,4.03,8.82
19.120739936828613,3.76,6.54,3.88,8.48
19.12993097305298,3.98,7.12,5.39,9.77
19.17249894142151,4.45,7.41,6.04,10.54
19.17274785041809,4.9,7.41,5.35,10.37
19.173008918762207,5.35,7.25,4.73,10.17
19.17326593399048,5.83,7.4,3.83,10.16
19.179821968078613,5.81,6.84,2.48,9.31
19.190338850021362,5.08,6.14,-0.5,7.98
19.199787855148315,3.36,6.98,-4.09,8.76
19.2097749710083,1.03,10.1,-5.77,11.67
19.220500946044922,-0.11,11.61,-3.42,12.1
19.229753017425537,0.67,7.89,0.49,7.93
19.272692918777466,1.84,3.8,0.8,4.29
19.27295684814453,3.05,1.65,1.25,3.68
19.27321696281433,0.31,0.3,0.64,0.77
19.273480892181396,-2.9,2.12,-3.81,5.23
19.27957582473755,0.31,4.88,-0.61,4.92
19.29021978378296,4.06,3.96,3.47,6.64
19.299635887145996,6.23,1.76,4.92,8.13
19.309550762176514,6.58,0.58,4.54,8.01
19.32046890258789,6.07,0.05,3.64,7.07
19.329619884490967,5.01,-0.31,3.25,5.97
19.37262773513794,3.27,-0.65,3.03,4.5
19.372889041900635,1.04,-0.91,2.85,3.16
19.373147010803223,-0.76,-1.06,2.7,2.99
19.373404026031494,-2.24,-1.36,2.58,3.67
19.379371881484985,-3.29,-1.51,2.21,4.24
19.390071868896484,-3.53,-1.35,1.84,4.2
19.39939594268799,-2.81,-1.52,1.71,3.62
19.409430980682373,-1.5,-1.76,1.43,2.71
19.420163869857788,-0.12,-1.95,1.1,2.24
19.429527759552002,0.67,-2.4,0.79,2.61
19.473028898239136,0.55,-3.07,0.67,3.19
19.4732928276062,0.33,-3.69,0.43,3.72
19.473554849624634,0.23,-4.28,0.54,4.32
19.473814010620117,0.44,-4.55,0.78,4.63
19.47944974899292,0.62,-4.71,0.87,4.82
19.489840030670166,0.53,-4.99,0.9,5.09
19.499324798583984,-0.06,-5.05,0.46,5.07
19.509294986724854,-0.34,-4.7,-1.0,4.81
19.520095825195312,-1.67,-4.29,-2.18,5.09
19.52934193611145,-2.79,-4.18,-2.29,5.52
19.573436737060547,-3.14,-4.42,-2.65,6.03
19.573721885681152,-4.06,-4.26,-3.73,6.96
19.574046850204468,-5.54,-3.71,-5.01,8.34
19.574357986450195,-6.01,-3.18,-6.33,9.28
19.579105854034424,-5.15,-2.74,-6.74,8.91
19.589704036712646,-5.14,-1.94,-7.26,9.1
19.599178791046143,-7.3,-0.73,-9.46,11.97
19.609123945236206,-10.04,0.39,-11.72,15.43
19.619940757751465,-11.41,0.32,-12.09,16.62
19.629206895828247,-10.75,-0.96,-10.46,15.02
19.67374277114868,-9.25,-2.27,-9.03,13.12
19.674006938934326,-8.66,0.15,-8.51,12.14
19.674290895462036,-4.67,4.12,-4.68,7.79
19.674547910690308,-1.15,-3.72,-5.31,6.58
19.678972959518433,-2.02,4.77,0.36,5.19
19.689607858657837,13.77,16.98,24.22,32.62
19.698887825012207,12.8,19.56,-1.11,23.4
19.709044933319092,2.74,9.48,-11.81,15.39
19.719748973846436,-3.56,-4.51,3.38,6.66
19.729129791259766,-10.93,-7.26,3.14,13.49
19.77274990081787,-11.98,-4.36,-1.48,12.83
19.773018836975098,-11.63,-3.16,-7.01,13.94
19.77328586578369,-5.84,0.06,-10.0,11.58
19.77354907989502,-4.17,3.28,-5.55,7.67
19.77888298034668,-2.58,1.54,-2.84,4.13
19.78946304321289,0.63,0.04,-4.04,4.08
19.798819065093994,2.48,-0.18,-3.12,3.98
19.808815002441406,2.1,0.5,-1.71,2.75
19.819593906402588,0.64,1.11,-1.19,1.74
19.82900381088257,0.06,0.73,-1.66,1.81
19.873812913894653,-0.42,-0.03,-2.06,2.1
19.874075889587402,-0.98,-0.23,-1.81,2.07
19.87433695793152,-1.41,-0.07,-1.06,1.76
19.87459373474121,-1.32,-0.05,-0.39,1.37
19.878752946853638,-1.11,-0.15,-0.35,1.17
19.889127731323242,-1.0,-0.31,-0.64,1.22
19.89857006072998,-0.95,-0.31,-0.75,1.24
19.908714771270752,-0.84,-0.15,-0.53,1.0
19.919353008270264,-0.79,-0.04,-0.15,0.8
19.92871379852295,-0.86,0.03,0.06,0.86
19.973494052886963,-0.74,0.06,0.09,0.74
19.973755836486816,-0.43,0.11,0.03,0.44
19.974013805389404,0.0,0.15,-0.12,0.19
19.974270820617676,0.55,0.17,-0.11,0.58
19.97857904434204,1.16,0.15,0.11,1.17
19.989104747772217,1.53,0.2,0.15,1.55
19.99850606918335,1.42,0.25,0.18,1.45
20.008543014526367,0.93,0.27,0.27,1.0
20.019248008728027,0.39,0.2,0.41,0.6
20.028714895248413,-0.13,0.07,0.59,0.6
20.072829961776733,-0.48,-0.02,0.69,0.84
20.07309579849243,-0.41,0.0,0.91,0.99
20.073360919952393,-0.05,-0.02,0.93,0.93
20.07361888885498,0.45,0.02,0.64,0.78
20.078364849090576,1.14,0.04,0.58,1.27
20.08890986442566,1.81,0.01,0.55,1.89
20.09861183166504,2.06,0.03,0.7,2.17
20.108373880386353,1.84,0.07,0.88,2.04
20.119123935699463,1.57,0.14,1.01,1.87
20.1284499168396,1.33,0.25,1.06,1.71
20.173419952392578,1.0,0.32,1.13,1.54
20.17368793487549,0.84,0.33,1.09,1.41
20.17394995689392,0.88,0.36,1.13,1.47
20.174211978912354,1.19,0.52,1.21,1.77
20.178233861923218,1.49,0.84,0.9,1.93
20.188800811767578,1.69,1.23,0.65,2.18
20.19852590560913,1.76,1.66,0.72,2.52
20.208371877670288,1.64,1.57,1.32,2.62
20.218978881835938,1.35,1.79,1.65,2.78
20.228302001953125,1.86,2.2,2.11,3.57
20.272860050201416,2.59,2.49,2.6,4.43
20.273120880126953,3.16,2.73,2.9,5.08
20.273369789123535,3.16,3.66,2.84,5.6
20.273623943328857,2.86,5.85,2.67,7.03
20.278087854385376,3.64,8.56,3.0,9.77
20.288614749908447,4.95,9.69,4.99,11.97
20.298431873321533,5.1,9.61,6.61,12.73
20.308104038238525,4.88,10.0,7.26,13.28
20.318826913833618,4.98,10.71,7.79,14.14
20.32810091972351,5.75,11.25,7.53,14.7
20.373600006103516,5.67,10.63,6.15,13.52
20.373862743377686,4.6,8.64,3.52,10.4
20.374125957489014,4.66,6.45,-1.18,8.04
20.374382972717285,4.8,6.71,-6.89,10.74
20.377790927886963,2.8,10.25,-7.7,13.12
20.38852286338806,-1.17,12.19,-2.06,12.41
20.397932052612305,-3.01,9.45,-0.33,9.92
20.4079327583313,-1.24,4.52,-1.47,4.91
20.41870880126953,1.6,0.53,0.22,1.69
20.428043842315674,-0.87,-1.33,-1.07,1.91
20.473968982696533,-1.85,0.77,-5.8,6.13
20.474236011505127,2.37,3.42,-1.92,4.58
20.47449493408203,6.68,1.89,1.62,7.12
20.474751949310303,9.73,-0.41,3.6,10.38
20.477735996246338,9.9,-1.92,5.37,11.42
20.488318920135498,7.86,-2.57,5.14,9.73
20.4977970123291,5.25,-2.54,3.28,6.69
20.507818937301636,3.33,-2.48,1.94,4.58
20.518565893173218,2.19,-2.76,1.62,3.87
20.527996063232422,1.6,-3.07,2.02,4.0
20.574659824371338,0.75,-3.22,2.27,4.01
20.574931859970093,-0.34,-3.11,1.67,3.54
20.57522988319397,-1.1,-3.23,1.12,3.59
20.575557947158813,-1.17,-3.55,1.2,3.92
20.577796936035156,-0.42,-3.45,1.58,3.81
20.58822989463806,0.47,-3.09,1.91,3.66
20.597826957702637,0.7,-2.53,2.01,3.3
20.607847929000854,-0.13,-2.08,1.36,2.48
20.61840581893921,-1.6,-2.67,1.01,3.27
20.627683877944946,-3.45,-2.96,0.26,4.55
20.674551963806152,-3.62,-2.72,-1.4,4.73
20.6748149394989,-3.37,-2.61,-1.63,4.56
20.675076007843018,-3.5,-2.76,-0.29,4.46
20.67533302307129,-3.14,-2.77,0.68,4.24
20.677438735961914,-3.02,-2.34,0.32,3.83
20.687959909439087,-3.3,-1.62,-0.45,3.7
20.69748878479004,-3.64,-0.78,-0.9,3.82
20.70752477645874,-3.79,-0.1,-1.29,4.0
20.718328952789307,-3.65,0.43,-2.13,4.24
20.72753095626831,-4.17,1.06,-3.7,5.67
20.774250030517578,-5.9,1.66,-5.72,8.38
20.77451181411743,-7.29,1.59,-7.2,10.36
20.77477192878723,-8.01,0.91,-8.42,11.65
20.775030851364136,-8.91,-0.25,-9.27,12.86
20.777333736419678,-9.96,-1.96,-8.96,13.53
20.787860870361328,-10.2,-3.52,-8.29,13.6
20.797278881072998,-8.63,-4.07,-7.97,12.43
20.807328939437866,-6.66,-4.05,-7.63,10.9
20.818140983581543,-5.64,-4.25,-7.47,10.27
20.82734775543213,-5.48,-4.28,-7.55,10.26
20.87441086769104,-5.7,-3.75,-7.93,10.46
20.874680042266846,-6.36,3.64,-6.73,9.94
20.874938011169434,-1.57,1.63,-3.01,3.76
20.87519598007202,9.46,4.49,9.93,14.43
20.877152919769287,17.29,8.46,23.48,30.36
20.887717962265015,10.04,9.91,-2.73,14.36
20.89716386795044,2.66,14.94,-13.64,20.4
20.90717077255249,-2.53,11.64,-8.19,14.45
20.918015003204346,-9.17,-0.29,-3.99,10.0
20.92718195915222,-5.58,-3.46,1.39,6.71
20.974674940109253,-5.74,-3.88,-1.25,7.04
20.974937915802002,-8.36,-3.96,-6.12,11.09
20.975196838378906,-7.85,-2.25,-6.93,10.71
20.975456953048706,-5.49,-0.61,-4.73,7.27
20.977030754089355,-2.55,0.23,-2.1,3.31
20.987514972686768,-0.01,0.75,-1.31,1.5
20.99700689315796,1.57,1.31,-1.35,2.45
21.007062911987305,1.41,1.26,-0.57,1.97
21.017817974090576,-0.38,0.7,-0.26,0.83
21.027095794677734,-1.68,0.19,-1.11,2.02
21.074513912200928,-1.61,-0.08,-1.68,2.32
21.074778079986572,-1.06,-0.15,-1.5,1.84
21.075037002563477,-0.66,-0.08,-1.15,1.32
21.075294017791748,-0.4,0.09,-1.03,1.1
21.076844930648804,-0.11,0.16,-1.07,1.08
21.08736491203308,0.05,0.1,-1.25,1.25
21.09687376022339,-0.04,0.07,-1.35,1.35
21.10689687728882,-0.29,0.11,-1.07,1.11
21.117733001708984,-0.52,0.2,-0.46,0.72
21.127049922943115,-0.59,0.2,-0.06,0.62
21.174762964248657,-0.57,0.21,0.1,0.61
21.17502498626709,-0.38,0.17,0.3,0.51
21.175282955169678,-0.01,0.16,0.46,0.48
21.1755428314209,0.63,0.14,0.51,0.82
21.176782846450806,1.25,0.09,0.05,1.25
21.187257766723633,1.61,0.06,-0.34,1.64
21.196873903274536,1.61,-0.03,-0.29,1.63
21.206947803497314,1.27,-0.06,-0.1,1.27
21.21735382080078,0.69,-0.04,0.08,0.69
21.226801872253418,0.18,-0.06,0.29,0.34
21.275205850601196,-0.11,-0.03,0.58,0.59
21.275468826293945,-0.02,0.03,1.02,1.02
21.27572989463806,0.28,0.08,1.11,1.14
21.275996923446655,0.56,0.08,0.78,0.96
21.276618003845215,0.69,0.05,0.58,0.9
21.28707981109619,0.81,-0.09,0.49,0.95
21.296666860580444,0.97,-0.22,0.4,1.07
21.30662202835083,1.14,-0.19,0.54,1.27
21.3173348903656,1.63,-0.09,1.1,1.96
21.32669186592102,2.09,0.07,1.35,2.48
21.374077796936035,1.87,0.14,1.4,2.34
21.374321937561035,1.53,0.07,1.4,2.07
21.374578952789307,1.42,0.01,1.45,2.02
21.374834060668945,1.39,0.14,1.37,1.95
21.376426935195923,1.21,0.3,1.18,1.71
21.3869469165802,1.3,0.54,1.06,1.76
21.39651107788086,1.54,0.7,1.14,2.03
21.406511783599854,1.29,0.85,0.88,1.77
21.417067050933838,0.96,1.01,0.93,1.67
21.42647385597229,0.99,1.32,1.16,2.01
21.474411010742188,0.93,1.57,1.69,2.48
21.474674940109253,1.18,2.43,1.91,3.3
21.474928855895996,2.1,2.83,2.04,4.07
21.47518491744995,2.19,3.01,2.3,4.37
21.476274967193604,2.26,3.4,2.81,4.95
21.486756801605225,2.44,5.15,2.61,6.26
21.496240854263306,3.96,7.22,2.87,8.72
21.506276845932007,5.16,7.64,4.52,10.26
21.517087936401367,4.95,7.89,5.54,10.83
21.5263569355011,5.0,8.43,6.92,11.99
21.574871063232422,5.66,9.25,7.86,13.39
21.575133800506592,6.52,9.61,7.67,13.91
21.575414896011353,6.72,9.03,6.74,13.11
21.57569694519043,6.65,7.7,5.25,11.44
21.576122760772705,5.36,6.19,2.29,8.5
21.586966037750244,4.27,6.07,-2.09,7.71
21.596158981323242,2.6,8.14,-5.87,10.36
21.6061909198761,-1.86,11.42,-4.53,12.42
21.617050886154175,-4.51,11.28,-0.14,12.14
21.626132011413574,-2.41,8.77,-0.31,9.1
21.67515802383423,1.21,4.76,-0.85,4.98
21.675450801849365,1.58,1.36,1.13,2.37
21.67587900161743,-1.95,-0.26,-0.11,1.97
21.67613983154297,-2.67,2.04,-4.08,5.28
21.676395893096924,1.57,4.86,-0.82,5.17
21.686541080474854,5.08,3.19,2.43,6.47
21.696162939071655,7.29,0.4,3.84,8.24
21.706044912338257,7.57,-1.43,4.2,8.77
21.75813579559326,6.61,-2.21,3.66,7.87
21.75840997695923,5.49,-2.41,3.47,6.92
21.758676052093506,4.39,-2.46,3.65,6.21
21.75893497467041,3.12,-2.41,3.87,5.52
21.759192943572998,1.75,-2.39,3.8,4.81
21.766160011291504,0.77,-2.38,3.35,4.18
21.775896072387695,0.26,-2.29,2.85,3.66
21.786393880844116,0.27,-2.11,2.15,3.02
21.795865058898926,0.45,-1.91,1.6,2.53
21.805843830108643,0.7,-2.02,1.49,2.6
21.859235763549805,1.21,-2.38,1.49,3.05
21.859503746032715,1.81,-2.73,1.56,3.62
21.859763860702515,1.77,-3.0,1.65,3.85
21.860029935836792,1.28,-3.14,1.43,3.68
21.860286951065063,0.39,-3.6,0.99,3.75
21.86571979522705,-0.65,-3.79,0.31,3.85
21.875661849975586,-1.58,-3.59,-1.36,4.15
21.886188983917236,-2.18,-3.29,-2.82,4.85
21.895719051361084,-2.87,-2.96,-2.92,5.05
21.905694007873535,-3.15,-2.85,-2.14,4.75
21.959014892578125,-3.22,-2.56,-1.96,4.55
21.959276914596558,-3.79,-1.74,-2.93,5.09
21.95954179763794,-4.52,-0.7,-4.31,6.28
21.95980405807495,-5.47,0.43,-5.89,8.04
21.960062980651855,-6.74,1.43,-7.44,10.14
21.965503931045532,-7.97,1.95,-8.71,11.96
21.975565910339355,-8.87,1.74,-9.31,12.97
21.9860577583313,-9.04,0.73,-9.47,13.11
21.99553394317627,-8.44,-0.4,-9.64,12.81
22.005558967590332,-7.76,-1.43,-9.68,12.48
22.058677911758423,-7.51,-2.28,-9.28,12.15
22.058944940567017,-7.26,-2.94,-8.75,11.74
22.05923080444336,-6.7,-3.66,-7.96,11.02
22.059491872787476,-7.31,0.92,-7.33,10.39
22.059751987457275,-2.83,0.78,-6.22,6.87
22.065379858016968,-0.79,-3.01,-4.95,5.84
22.07536292076111,3.8,8.13,8.25,12.19
22.08596181869507,12.54,11.66,24.92,30.23
22.0953528881073,7.93,8.47,1.58,11.7
22.105560779571533,-0.69,9.95,-10.89,14.76
22.158720016479492,-6.65,7.77,-6.48,12.1
22.159456729888916,-7.4,-0.7,-5.73,9.38
22.159722805023193,-8.05,-0.69,4.34,9.17
22.15998387336731,-8.45,-3.84,1.18,9.35
22.160242080688477,-7.91,-4.09,-5.84,10.64
22.16521406173706,-6.53,-2.64,-6.79,9.78
22.175227880477905,-4.16,-0.51,-4.7,6.29
22.18585205078125,-2.17,0.16,-2.51,3.32
22.195250034332275,-0.55,0.42,-2.64,2.72
22.205304861068726,0.92,0.98,-2.85,3.15
22.21609878540039,1.79,1.38,-1.91,2.95
22.25892400741577,0.43,1.26,-1.52,2.02
22.259206771850586,-1.11,0.9,-1.51,2.07
22.259469032287598,-1.49,0.39,-1.29,2.0
22.259734869003296,-1.38,-0.11,-1.23,1.85
22.26505994796753,-0.99,-0.22,-1.35,1.68
22.275084018707275,-0.63,-0.18,-1.72,1.84
22.285610914230347,-0.42,-0.04,-1.77,1.81
22.295053005218506,-0.29,0.07,-1.49,1.51
22.305070877075195,-0.31,0.19,-1.28,1.33
22.31586194038391,-0.29,0.22,-0.9,0.97
22.35866093635559,-0.36,0.15,-0.3,0.49
22.358927726745605,-0.48,-0.02,0.26,0.54
22.359190940856934,-0.42,-0.06,0.8,0.9
22.35944890975952,-0.13,-0.04,0.93,0.93
22.364943981170654,0.17,-0.02,0.72,0.74
22.37502098083496,0.39,0.01,0.21,0.44
22.385441780090332,0.74,0.0,-0.18,0.76
22.39492893218994,1.01,0.01,-0.15,1.02
22.404915809631348,1.14,0.01,0.34,1.18
22.41571593284607,1.0,0.05,0.84,1.3
22.45838975906372,0.93,0.13,1.18,1.5
22.45865488052368,0.86,0.25,1.26,1.54
22.458911895751953,0.57,0.28,1.21,1.36
22.459167003631592,0.33,0.18,1.14,1.2
22.46479606628418,0.39,0.08,0.88,0.96
22.47480583190918,0.66,-0.08,0.58,0.88
22.48528480529785,0.85,-0.08,0.24,0.88
22.49489188194275,0.85,0.06,0.06,0.85
22.5048348903656,1.01,0.2,0.36,1.09
22.515610933303833,1.26,0.28,0.75,1.49
22.557942867279053,1.47,0.4,1.01,1.82
22.55818796157837,1.54,0.4,1.77,2.38
22.55844497680664,1.65,0.41,2.34,2.89
22.558703899383545,1.72,0.7,2.25,2.91
22.56461477279663,1.46,1.03,1.91,2.61
22.574635982513428,1.54,1.6,1.38,2.61
22.585137844085693,1.63,1.95,1.46,2.93
22.59460186958313,1.95,2.03,1.53,3.2
22.604671955108643,2.27,2.15,1.72,3.56
22.615442752838135,2.63,2.38,1.86,4.0
22.658671855926514,2.69,2.53,2.26,4.32
22.658933877944946,2.67,2.69,2.82,4.72
22.65919589996338,2.64,3.28,3.35,5.38
22.65945792198181,2.83,4.87,3.39,6.57
22.664453983306885,4.36,6.42,3.7,8.59
22.67450475692749,5.18,6.63,5.07,9.82
22.68496084213257,4.72,7.33,5.82,10.48
22.69441795349121,4.83,8.74,7.45,12.45
22.704538822174072,5.08,9.61,8.22,13.62
22.715282917022705,5.33,9.46,7.7,13.31
22.758633852005005,5.13,8.7,6.53,12.02
22.758898735046387,4.53,7.36,3.72,9.4
22.75916290283203,4.59,6.61,-1.55,8.19
22.759421825408936,4.17,8.55,-6.31,11.41
22.76431894302368,0.5,12.32,-6.46,13.91
22.77450704574585,-2.85,12.02,-1.49,12.44
22.784740924835205,-2.99,9.06,0.39,9.54
22.79447603225708,0.54,5.49,-0.56,5.54
22.80455207824707,2.0,2.31,0.81,3.16
22.815111875534058,-1.93,0.42,0.33,2.0
22.859274864196777,-4.23,1.5,-4.51,6.36
22.859542846679688,0.22,4.66,-2.47,5.27
22.859800815582275,5.0,4.02,1.47,6.58
22.860055923461914,8.42,1.42,3.42,9.19
22.86412286758423,9.45,-0.42,3.85,10.21
22.87417984008789,8.66,-1.17,2.88,9.2
22.884686946868896,7.55,-1.46,2.32,8.03
22.89412784576416,6.09,-1.8,2.32,6.76
22.90421485900879,4.75,-2.1,2.4,5.72
22.91555690765381,3.39,-2.28,2.43,4.75
22.959458827972412,2.0,-2.73,2.53,4.22
22.959722995758057,0.78,-3.21,2.42,4.09
22.959983825683594,-0.2,-3.17,1.77,3.63
22.960242748260498,-0.82,-3.27,1.26,3.59
22.963971853256226,-0.21,-3.37,1.51,3.69
22.974055767059326,1.44,-3.36,2.01,4.17
22.98479986190796,2.58,-3.21,2.0,4.57
22.994006872177124,2.38,-2.45,0.92,3.53
23.00408387184143,1.08,-2.29,-0.2,2.53
23.01485586166382,-0.61,-2.76,-1.05,3.01
23.05936098098755,-1.62,-2.95,-2.28,4.06
23.059622764587402,-1.22,-3.19,-2.62,4.3
23.05988073348999,-0.66,-3.69,-0.89,3.85
23.060133934020996,-0.1,-3.85,0.14,3.85
23.063830852508545,-0.32,-3.22,-0.61,3.29
23.073823928833008,-1.38,-2.43,-1.52,3.18
23.0847909450531,-2.39,-1.7,-2.15,3.63
23.093869924545288,-3.72,-1.13,-3.2,5.03
23.103906869888306,-5.78,-0.32,-5.19,7.77
23.11469292640686,-7.64,0.52,-6.82,10.25
23.159385919570923,-8.56,0.9,-7.64,11.5
23.159650802612305,-9.14,0.82,-7.97,12.15
23.159913063049316,-9.95,0.37,-8.23,12.91
23.160173892974854,-10.66,-0.33,-8.17,13.43
23.163761854171753,-10.67,-1.04,-7.9,13.31
23.17380380630493,-9.74,-1.73,-7.36,12.33
23.184691905975342,-8.36,-2.04,-7.13,11.17
23.19376802444458,-7.25,-2.13,-6.9,10.23
23.20371103286743,-7.54,-1.16,-7.05,10.38
23.214632987976074,-6.41,3.15,-7.93,10.67
23.259865760803223,-2.34,-2.91,-6.82,7.77
23.260135889053345,-6.66,-1.94,-6.12,9.25
23.260409832000732,3.5,11.27,7.65,14.06
23.260669946670532,15.89,13.37,24.6,32.19
23.26356601715088,7.04,10.49,-0.5,12.64
23.273591995239258,-3.15,5.37,-7.68,9.88
23.284584045410156,-5.14,-1.29,-1.13,5.41
23.293519973754883,-6.7,-0.98,-5.42,8.67
23.30348777770996,-7.52,0.28,-3.36,8.24
23.314326763153076,-8.62,-0.43,1.58,8.77
23.35903787612915,-8.18,-2.06,-3.66,9.19
23.359302043914795,-6.29,-1.19,-5.96,8.74
23.3595609664917,-4.51,-0.93,-4.15,6.19
23.359819889068604,-2.55,-0.91,-2.12,3.43
23.363300800323486,-0.65,0.14,-1.8,1.91
23.37331485748291,0.57,0.98,-1.94,2.24
23.38494873046875,0.48,1.15,-1.87,2.24
23.39334487915039,-1.1,1.01,-1.91,2.42
23.403363943099976,-1.86,0.62,-1.76,2.63
23.414135932922363,-1.52,0.18,-1.6,2.21
23.458829879760742,-1.54,-0.25,-1.33,2.05
23.45909285545349,-1.8,-0.35,-0.98,2.07
23.459351062774658,-1.57,-0.2,-0.86,1.8
23.459609031677246,-1.17,0.07,-0.85,1.44
23.463319778442383,-0.32,0.32,-1.0,1.09
23.473261833190918,0.53,0.36,-1.43,1.56
23.48375177383423,0.64,0.24,-1.28,1.45
23.49319291114807,0.14,0.01,-0.52,0.53
23.503242015838623,-0.38,-0.13,-0.01,0.4
23.513998985290527,-0.53,-0.04,0.24,0.58
23.55881094932556,-0.46,0.05,0.56,0.72
23.55908203125,-0.16,0.1,0.54,0.57
23.559343814849854,0.35,0.16,0.2,0.43
23.55959987640381,0.64,0.22,0.4,0.78
23.563025951385498,0.82,0.2,0.61,1.04
23.573008060455322,1.0,0.17,0.76,1.26
23.583545923233032,1.11,0.12,0.88,1.42
23.593024730682373,1.12,-0.01,1.11,1.57
23.603020906448364,1.11,-0.1,1.16,1.6
23.613759994506836,1.05,-0.24,1.25,1.65
23.65800189971924,1.17,-0.27,1.27,1.74
23.658257007598877,1.46,-0.11,0.95,1.74
23.65851402282715,1.39,0.09,0.64,1.53
23.658772945404053,1.11,0.32,0.28,1.18
23.662909030914307,0.91,0.4,0.2,1.01
23.672897815704346,0.93,0.33,0.49,1.1
23.683499813079834,1.34,0.27,1.05,1.72
23.693033933639526,1.86,0.32,1.34,2.31
23.702980041503906,2.23,0.31,1.81,2.88
23.713757038116455,2.33,0.58,2.23,3.27
23.758622884750366,2.06,1.15,1.79,2.96
23.758887767791748,1.8,1.94,1.37,2.98
23.759149074554443,1.34,2.26,1.56,3.05
23.75940704345703,1.38,2.56,2.03,3.54
23.76279878616333,2.23,2.69,2.29,4.17
23.772850036621094,2.67,2.73,2.7,4.67
23.783408880233765,2.98,3.09,2.75,5.09
23.792821884155273,3.18,4.16,2.59,5.84
23.802868843078613,3.58,6.06,2.32,7.41
23.813639879226685,4.9,7.63,3.01,9.55
23.859225749969482,5.77,7.93,4.39,10.74
23.859489917755127,5.03,7.85,5.47,10.8
23.859747886657715,3.81,8.04,6.59,11.07
23.860004901885986,3.11,8.48,7.86,11.97
23.86264181137085,3.35,9.13,7.68,12.39
23.872714042663574,3.55,8.86,5.6,11.06
23.883168935775757,4.32,8.01,2.66,9.48
23.8926420211792,5.8,7.4,-1.12,9.46
23.90272283554077,5.84,8.87,-4.4,11.49
23.913379907608032,1.7,11.59,-4.2,12.44
23.959458827972412,-2.19,11.44,-2.16,11.84
23.95972204208374,-0.44,7.47,-0.32,7.48
23.959980010986328,1.54,3.78,1.67,4.41
23.960236072540283,-0.5,2.21,1.58,2.76
23.962491035461426,-4.12,3.05,-3.64,6.28
23.97253179550171,-0.08,5.67,-2.47,6.18
23.983022928237915,5.06,4.68,1.95,7.16
23.992604732513428,8.05,2.53,3.39,9.09
24.002573013305664,7.82,1.08,3.51,8.63
24.01338791847229,5.94,0.1,2.99,6.65
24.05895495414734,4.65,-0.53,2.63,5.36
24.059218883514404,3.62,-1.15,2.65,4.63
24.05947995185852,2.63,-1.79,2.94,4.33
24.059738874435425,1.7,-2.21,3.19,4.23
24.062283039093018,0.95,-2.36,3.24,4.11
24.072261810302734,0.18,-2.3,3.07,3.84
24.082896947860718,-0.34,-2.17,2.91,3.64
24.092376947402954,-0.35,-2.08,3.05,3.7
24.102323055267334,0.01,-2.04,3.21,3.8
24.113277912139893,0.27,-2.03,3.1,3.71
24.15898895263672,0.45,-2.09,2.76,3.49
24.15925407409668,0.59,-2.36,2.58,3.54
24.159514904022217,0.63,-2.64,2.37,3.6
24.159772872924805,0.64,-2.76,2.09,3.52
24.16227102279663,0.48,-3.0,2.02,3.64
24.17220687866211,0.21,-3.39,1.89,3.88
24.182798862457275,0.03,-3.69,1.95,4.17
24.19223189353943,-0.12,-3.87,1.99,4.35
24.20213794708252,-0.03,-4.03,1.91,4.45
24.2131290435791,-0.17,-3.97,1.62,4.29
24.258930921554565,-0.9,-3.61,0.41,3.74
24.25919485092163,-2.49,-3.22,-1.28,4.26
24.25945281982422,-4.31,-2.93,-2.44,5.75
24.259710788726807,-5.31,-2.81,-2.77,6.61
24.26208782196045,-5.7,-2.4,-3.75,7.23
24.272079944610596,-6.28,-1.58,-5.57,8.54
24.282537937164307,-7.24,-0.56,-7.35,10.33
24.292068004608154,-7.85,0.27,-8.48,11.55
24.301973819732666,-8.62,0.72,-9.79,13.06
24.31293773651123,-9.67,1.08,-10.7,14.46
24.3591148853302,-10.59,0.86,-11.01,15.3
24.35937786102295,-10.5,-0.17,-11.53,15.59
24.35963773727417,-9.15,-1.57,-11.99,15.16
24.359896898269653,-7.22,-3.16,-11.52,13.95
24.361913919448853,-6.64,-3.85,-10.36,12.89
24.371883869171143,-6.78,-3.69,-9.61,12.32
24.38242197036743,-7.21,-0.59,-9.7,12.1
24.391902923583984,-3.27,8.95,-4.53,10.55
24.40187978744507,13.42,5.83,12.84,19.46
24.412764072418213,24.17,7.76,33.11,41.72
24.46010994911194,15.12,8.92,6.42,18.69
24.460376739501953,2.54,12.02,-13.49,18.24
24.46063995361328,-7.38,10.5,-9.98,16.25
24.46089792251587,-13.41,1.8,-6.48,15.0
24.461681842803955,-12.11,-0.52,-3.06,12.5
24.471760749816895,-12.53,0.93,0.36,12.56
24.482255935668945,-7.09,-2.7,-5.01,9.09
24.49178385734558,-2.09,-1.96,-8.89,9.34
24.501932859420776,-1.2,-0.89,-7.85,7.99
24.512733936309814,-2.07,-0.78,-5.64,6.05
24.560085773468018,-1.29,0.15,-3.66,3.88
24.560354948043823,-0.44,0.91,-2.17,2.39
24.560615062713623,-0.55,0.98,-0.23,1.14
24.560872077941895,-1.09,0.54,0.41,1.28
24.561577796936035,-1.2,0.19,-0.45,1.29
24.5715389251709,-0.97,0.31,-0.83,1.31
24.582159996032715,-0.98,0.32,-0.49,1.14
24.59160089492798,-1.09,0.04,-0.21,1.11
24.60185694694519,-0.82,-0.15,-0.39,0.92
24.61247491836548,-0.38,-0.24,-0.51,0.67
24.659937858581543,0.1,-0.16,-0.65,0.67
24.660202980041504,0.53,-0.1,-0.76,0.93
24.660462856292725,0.78,-0.06,-0.82,1.13
24.660720825195312,0.88,0.02,-0.62,1.07
24.661513805389404,0.82,0.02,0.11,0.82
24.671652793884277,0.68,0.0,0.92,1.14
24.682002067565918,0.83,0.08,1.41,1.63
24.691454887390137,1.05,0.17,1.37,1.73
24.70139503479004,1.26,0.2,0.96,1.59
24.712368965148926,1.46,0.19,0.39,1.52
24.760093927383423,1.53,0.15,0.19,1.54
24.760364055633545,1.47,0.14,0.37,1.52
24.760647773742676,1.46,0.2,0.53,1.56
24.76093888282776,1.03,0.25,0.83,1.34
24.761363983154297,0.44,0.22,0.97,1.08
24.771342754364014,0.2,0.11,0.86,0.88
24.781827926635742,0.35,-0.01,0.66,0.74
24.791343927383423,0.33,-0.11,0.26,0.43
24.80135488510132,0.07,-0.04,-0.22,0.23
24.812170028686523,-0.19,0.12,-0.72,0.75
24.86032795906067,-0.41,0.32,-0.84,0.98
24.860620975494385,-0.4,0.37,-0.46,0.71
24.86106300354004,-0.1,0.25,0.21,0.34
24.861323833465576,0.46,0.29,0.97,1.11
24.861578941345215,0.91,0.48,1.57,1.87
24.871104955673218,1.22,0.8,1.74,2.27
24.881691932678223,1.44,0.99,2.03,2.67
24.89119005203247,1.42,1.34,2.4,3.09
24.90208101272583,1.52,1.77,2.35,3.31
24.911906957626343,1.75,1.74,1.98,3.16
24.960344791412354,2.0,1.85,1.76,3.24
24.96079397201538,2.3,2.0,1.69,3.48
24.961050033569336,2.59,2.19,1.7,3.79
24.961308002471924,2.7,2.27,1.92,4.01
24.961562871932983,2.67,2.48,2.25,4.28
24.971056938171387,2.75,3.37,2.36,4.94
24.98150873184204,3.13,5.07,2.46,6.44
24.991110801696777,4.24,6.2,3.49,8.28
25.001155853271484,4.34,6.48,4.76,9.13
25.01178288459778,4.28,7.17,5.56,10.03
25.060921907424927,4.79,8.0,7.08,11.7
25.06118392944336,5.11,8.6,7.92,12.75
25.061442852020264,4.12,8.59,8.34,12.66
25.06169891357422,1.92,7.81,7.77,11.18
25.061956882476807,1.35,6.68,4.32,8.06
25.07078981399536,4.2,5.98,-1.45,7.45
25.081414937973022,6.76,8.62,-5.58,12.29
25.090922832489014,3.47,12.35,-5.33,13.89
25.100846767425537,-0.62,12.56,-1.21,12.63
25.111608028411865,-0.17,9.85,0.52,9.86
25.161011934280396,1.86,5.58,-0.68,5.92
25.16127300262451,2.28,2.9,0.31,3.7
25.161531925201416,-1.26,1.65,0.08,2.07
25.161789894104004,-5.29,1.75,-5.24,7.64
25.162051916122437,-2.43,4.48,-4.96,7.11
25.17077398300171,2.52,4.26,0.13,4.95
25.181269884109497,6.97,1.01,2.87,7.6
25.190714836120605,8.88,-1.27,3.21,9.52
25.20072603225708,7.44,-2.21,2.42,8.12
25.211514949798584,5.8,-2.84,2.23,6.83
25.261404991149902,4.45,-3.29,2.8,6.2
25.261667728424072,3.06,-3.35,2.79,5.32
25.26192808151245,1.6,-3.2,2.39,4.3
25.26218605041504,0.45,-3.03,2.12,3.72
25.262444972991943,0.05,-2.87,1.83,3.4
25.270468950271606,-0.06,-2.68,1.48,3.06
25.280988931655884,0.39,-2.56,1.36,2.92
25.290485858917236,1.37,-2.43,1.59,3.21
25.300579071044922,2.28,-2.28,1.81,3.69
25.311306953430176,2.42,-2.18,1.42,3.55
25.361316919326782,1.73,-2.25,0.81,2.95
25.361580848693848,1.06,-2.57,0.7,2.86
25.36184597015381,0.45,-3.18,0.91,3.33
25.362102031707764,0.1,-3.71,0.82,3.8
25.36234188079834,0.1,-4.17,0.86,4.25
25.37037706375122,0.11,-4.58,1.08,4.7
25.380950927734375,-0.02,-4.62,1.1,4.74
25.390426874160767,-0.3,-4.71,0.97,4.81
25.400553941726685,-0.51,-4.79,0.7,4.86
25.41114377975464,-0.56,-4.43,0.02,4.46
25.460810899734497,-1.2,-3.9,-0.93,4.18
25.46107292175293,-2.56,-3.35,-1.46,4.46
25.461336851119995,-4.01,-2.94,-1.89,5.31
25.46159601211548,-4.82,-2.32,-3.11,6.18
25.461853981018066,-4.84,-1.5,-4.32,6.65
25.470309734344482,-4.7,-0.79,-4.95,6.87
25.480779886245728,-4.98,-0.42,-5.52,7.44
25.49020290374756,-6.26,-0.04,-6.53,9.04
25.500303745269775,-7.97,0.39,-7.41,10.88
25.511030912399292,-9.19,0.4,-7.94,12.15
25.561462879180908,-9.96,0.1,-8.87,13.33
25.561731815338135,-10.06,-0.25,-9.54,13.86
25.561991930007935,-9.27,-0.66,-9.02,12.95
25.56225085258484,-8.09,-1.44,-7.99,11.46
25.562509059906006,-7.22,-2.2,-7.15,10.39
25.570051908493042,-7.88,1.53,-6.49,10.32
25.580699920654297,-3.4,-1.21,-6.69,7.6
25.5901198387146,-0.27,-1.79,-4.31,4.67
25.600124835968018,8.29,11.43,11.41,18.15
25.61095094680786,19.8,13.3,20.96,31.75
25.661558866500854,8.92,16.1,-5.84,19.31
25.661826848983765,-3.23,13.63,-10.33,17.4
25.662091732025146,-8.75,-3.86,-4.58,10.6
25.662354946136475,-10.27,-7.4,2.6,12.92
25.662612915039062,-9.63,-5.42,-1.4,11.13
25.66990089416504,-8.36,-3.47,-6.31,11.03
25.680527925491333,-6.09,-1.1,-4.54,7.67
25.689926862716675,-3.57,0.42,-2.07,4.14
25.70005178451538,-1.97,0.44,-0.65,2.12
25.710681915283203,-0.56,0.33,-1.43,1.57
25.761887073516846,1.14,0.51,-2.13,2.46
25.762151956558228,1.36,0.5,-2.12,2.56
25.762417793273926,-0.78,0.57,-1.84,2.07
25.762678861618042,-1.94,0.53,-0.97,2.23
25.762940883636475,-1.44,0.28,-1.11,1.83
25.769733905792236,-0.94,-0.09,-1.12,1.46
25.78028106689453,-0.7,-0.23,-1.03,1.26
25.7897310256958,-0.58,-0.08,-1.28,1.4
25.79975986480713,-0.59,0.12,-1.38,1.5
25.810587882995605,-0.69,0.17,-1.26,1.44
25.86186695098877,-0.72,0.22,-1.05,1.29
25.86212992668152,-0.63,0.28,-0.87,1.11
25.862387895584106,-0.28,0.31,-0.54,0.68
25.862648963928223,0.12,0.32,-0.2,0.39
25.86290407180786,0.36,0.21,0.28,0.5
25.8696870803833,0.56,0.14,0.56,0.8
25.88015604019165,0.89,0.12,0.1,0.9
25.88963794708252,1.0,0.19,-0.09,1.02
25.899637937545776,0.84,0.2,0.19,0.88
25.91055679321289,0.76,0.06,0.65,1.0
25.961695909500122,0.82,-0.04,0.72,1.09
25.961962938308716,0.77,0.01,0.71,1.04
25.962227821350098,0.42,0.03,0.82,0.92
25.962487936019897,0.27,0.05,0.98,1.01
25.962748050689697,0.32,0.1,1.03,1.08
25.969749927520752,0.53,0.09,0.82,0.98
25.98006772994995,0.84,-0.02,0.78,1.14
25.98944091796875,1.14,-0.08,0.82,1.4
25.99943780899048,1.16,-0.15,0.81,1.42
26.01030397415161,1.08,-0.16,0.67,1.28
26.061749935150146,1.16,0.04,0.53,1.27
26.062013864517212,1.11,0.55,0.29,1.27
26.062275886535645,0.66,0.82,0.11,1.05
26.062532901763916,0.02,0.84,0.27,0.88
26.062793731689453,-0.15,0.79,0.71,1.07
26.069642066955566,-0.05,0.62,1.31,1.45
26.07987880706787,0.45,0.71,1.59,1.79
26.089437007904053,1.42,1.05,1.94,2.62
26.099515914916992,1.63,1.34,2.57,3.32
26.110148906707764,1.96,1.59,2.21,3.35
26.161623001098633,2.05,1.66,1.94,3.27
26.161885738372803,1.76,1.44,1.78,2.88
26.162147045135498,1.81,1.52,1.51,2.8
26.162407875061035,2.21,1.75,1.57,3.22
26.162665843963623,2.68,2.03,1.7,3.76
26.169211864471436,3.15,2.3,2.21,4.48
26.17975687980652,3.5,2.74,2.98,5.35
26.189141750335693,3.64,3.86,3.43,6.31
26.199145793914795,4.01,6.17,3.06,7.96
26.209934949874878,5.35,7.97,4.01,10.4
26.219202041625977,5.3,8.49,5.66,11.49
26.262012004852295,4.65,9.03,7.21,12.45
26.262276887893677,4.64,9.66,8.79,13.86
26.262539863586426,5.04,9.88,8.74,14.12
26.262796878814697,5.22,9.6,7.49,13.24
26.269012928009033,4.91,8.67,5.1,11.19
26.279615879058838,4.77,7.57,0.5,8.96
26.28901481628418,4.25,8.32,-4.69,10.45
26.2990460395813,1.05,12.2,-6.93,14.07
26.309931755065918,-2.54,13.72,-2.12,14.11
26.319103956222534,-2.47,10.97,1.33,11.32
26.362627029418945,0.36,6.23,0.84,6.29
26.3628888130188,1.85,3.08,1.09,3.75
26.363147735595703,-1.76,1.55,0.09,2.34
26.363412857055664,-6.64,2.76,-6.62,9.77
26.368844032287598,-3.26,6.37,-4.91,8.67
26.379401922225952,2.34,5.66,0.95,6.19
26.38890790939331,6.52,2.08,2.91,7.43
26.399027824401855,6.87,-0.17,2.71,7.38
26.409669876098633,5.03,-1.26,1.57,5.41
26.41890788078308,3.57,-2.39,1.48,4.54
26.462605953216553,2.3,-3.07,2.11,4.37
26.46287202835083,1.37,-3.11,2.14,4.01
26.463129997253418,0.45,-2.96,2.05,3.62
26.46338987350464,-0.5,-2.93,1.85,3.5
26.468719005584717,-0.93,-2.9,1.61,3.44
26.479293823242188,-0.61,-3.08,1.68,3.56
26.488754749298096,0.24,-3.25,1.95,3.79
26.498767852783203,1.04,-3.16,1.9,3.83
26.50955581665039,1.52,-3.04,1.73,3.81
26.51875877380371,1.8,-3.23,1.7,4.06
26.56284475326538,1.93,-3.74,1.82,4.58
26.563089847564697,1.93,-4.32,1.86,5.08
26.563347816467285,1.82,-5.02,1.89,5.66
26.563605785369873,1.58,-5.64,1.77,6.11
26.568477869033813,1.54,-6.12,1.77,6.55
26.57910990715027,1.52,-6.52,1.92,6.96
26.588449954986572,1.3,-6.69,1.83,7.05
26.59847092628479,0.93,-6.72,1.48,6.94
26.60922884941101,0.43,-6.77,1.09,6.87
26.61855173110962,-0.11,-6.75,0.36,6.76
26.66210389137268,-0.85,-6.43,-0.42,6.49
26.66236686706543,-1.96,-5.72,-1.51,6.23
26.662625789642334,-2.98,-4.69,-3.47,6.55
26.662882804870605,-4.31,-3.37,-5.93,8.06
26.66836977005005,-5.52,-1.86,-7.99,9.88
26.67892599105835,-6.23,-0.49,-8.68,10.69
26.688302993774414,-6.48,0.55,-8.73,10.88
26.69831395149231,-7.31,1.54,-9.22,11.86
26.70928382873535,-9.31,2.52,-10.9,14.55
26.7184157371521,-11.37,1.77,-12.11,16.7
26.76230478286743,-11.67,-0.67,-11.16,16.16
26.762573957443237,-9.49,-1.81,-9.8,13.76
26.762840747833252,-7.68,-1.86,-9.22,12.14
26.76310396194458,-7.4,0.72,-9.7,12.22
26.768234729766846,-5.27,5.92,-6.6,10.31
26.778876781463623,0.88,-1.0,-5.55,5.7
26.788326740264893,8.93,10.65,13.97,19.7
26.798792839050293,20.4,14.99,25.81,36.15
26.80906581878662,10.06,12.09,-8.04,17.66
26.81832504272461,0.79,8.57,-9.81,13.05
26.863022804260254,-7.64,1.38,-0.74,7.79
26.863287925720215,-13.72,-3.83,-0.87,14.27
26.863548755645752,-11.12,-4.7,0.11,12.07
26.86380887031555,-8.7,-3.31,-5.3,10.71
26.868114948272705,-6.31,-1.14,-7.14,9.59
26.87869882583618,-3.28,0.61,-3.96,5.17
26.888126850128174,-1.47,0.76,-2.07,2.65
26.89812183380127,0.33,0.64,-2.28,2.39
26.908983945846558,1.58,0.7,-2.82,3.3
26.918112754821777,1.25,0.56,-2.28,2.65
26.963196754455566,-0.42,0.49,-1.79,1.9
26.96346378326416,-1.21,0.57,-1.59,2.07
26.96372890472412,-0.9,0.4,-1.44,1.74
26.963987827301025,-0.78,0.13,-0.95,1.23
26.96795392036438,-0.92,-0.1,-0.43,1.02
26.97855806350708,-0.8,-0.08,-0.54,0.96
26.987900733947754,-0.4,-0.03,-0.88,0.96
26.998122930526733,-0.13,-0.04,-1.1,1.1
27.008765935897827,-0.15,0.05,-1.08,1.09
27.018051862716675,-0.33,0.12,-0.91,0.97
27.062952995300293,-0.37,0.1,-0.54,0.66
27.063223838806152,-0.27,0.02,-0.36,0.45
27.063485860824585,-0.06,-0.01,-0.31,0.31
27.06374979019165,0.11,0.03,-0.22,0.24
27.06773591041565,0.23,0.06,-0.02,0.23
27.07841992378235,0.43,0.05,0.25,0.49
27.087811946868896,0.76,0.06,0.53,0.92
27.097797870635986,1.13,0.05,0.73,1.34
27.1086368560791,1.44,0.07,0.96,1.73
27.11799907684326,1.46,0.09,1.13,1.84
27.162625789642334,1.12,0.06,1.15,1.6
27.162889003753662,0.65,0.01,0.89,1.1
27.163153886795044,0.33,-0.06,0.85,0.91
27.163394927978516,0.33,-0.08,0.93,0.99
27.167726039886475,0.71,-0.07,1.1,1.31
27.178261756896973,1.19,-0.11,1.33,1.78
27.18795084953308,1.41,-0.22,1.43,2.02
27.197831869125366,1.45,-0.24,1.12,1.84
27.208492755889893,1.71,-0.11,0.78,1.88
27.21775197982788,1.67,-0.03,0.67,1.79
27.262327909469604,1.23,-0.07,0.72,1.42
27.262589931488037,1.05,-0.15,0.94,1.41
27.262824058532715,1.05,-0.2,0.93,1.41
27.263081073760986,1.17,-0.16,1.22,1.69
27.267507076263428,1.43,-0.05,1.31,1.93
27.278099060058594,1.48,0.15,1.08,1.83
27.287539958953857,0.98,0.4,0.77,1.3
27.297574996948242,0.77,0.58,0.8,1.25
27.30837893486023,0.93,0.77,1.17,1.68
27.317580938339233,1.2,1.06,1.27,2.04
27.363007068634033,1.18,1.44,0.84,2.04
27.363266944885254,0.79,1.93,0.74,2.21
27.363510847091675,0.79,2.1,1.12,2.5
27.363765954971313,0.77,2.55,1.07,2.87
27.367382049560547,1.18,3.36,1.61,3.9
27.377919912338257,1.33,4.65,1.59,5.09
27.387661933898926,2.77,6.46,1.76,7.24
27.397377014160156,4.53,6.44,3.39,8.57
27.408155918121338,4.39,6.18,4.3,8.71
27.417425870895386,4.37,6.48,4.91,9.23
27.46321988105774,4.38,7.13,5.99,10.29
27.463479042053223,4.36,8.03,7.11,11.57
27.4637348651886,5.27,8.82,7.73,12.85
27.463990926742554,6.18,8.64,7.38,12.93
27.467158794403076,6.11,7.74,6.17,11.63
27.477730751037598,5.75,6.42,4.43,9.69
27.487410068511963,5.33,5.6,1.13,7.81
27.497078895568848,4.69,6.29,-2.59,8.26
27.507901906967163,1.29,9.17,-4.86,10.45
27.517130851745605,-4.61,11.82,-2.09,12.85
27.563267946243286,-6.11,10.02,0.0,11.73
27.563528060913086,-0.98,6.72,-0.1,6.79
27.563785076141357,2.39,3.89,1.74,4.88
27.564040899276733,0.16,2.26,1.91,2.96
27.566958904266357,-3.66,3.26,-3.8,6.2
27.577502727508545,0.06,6.26,-3.42,7.13
27.58694887161255,4.83,5.57,1.54,7.53
27.596986770629883,7.89,2.27,3.67,8.99
27.60767698287964,8.59,0.02,4.03,9.48
27.616984844207764,7.01,-0.99,3.51,7.9
27.663349866867065,5.37,-1.69,3.33,6.54
27.66361379623413,4.09,-2.05,3.37,5.68
27.663876056671143,2.89,-1.89,2.74,4.4
27.66413187980652,1.96,-1.53,2.29,3.38
27.66686773300171,1.48,-1.41,2.42,3.16
27.677409887313843,1.38,-1.4,2.24,2.98
27.687012910842896,1.56,-1.51,1.92,2.89
27.696911811828613,1.8,-1.55,1.59,2.85
27.707676887512207,1.88,-1.68,1.15,2.77
27.71695590019226,1.93,-2.06,0.82,2.93
27.76323890686035,1.94,-2.64,0.92,3.4
27.76349973678589,1.98,-3.21,1.08,3.92
27.763755798339844,2.0,-3.78,0.95,4.38
27.764014959335327,1.65,-4.47,0.71,4.81
27.76674485206604,0.92,-5.06,0.77,5.2
27.77727484703064,0.05,-5.37,0.94,5.45
27.786741733551025,-0.53,-5.28,0.26,5.31
27.796746730804443,-1.81,-4.93,-1.12,5.36
27.8075590133667,-3.65,-4.51,-3.29,6.66
27.816775798797607,-4.78,-4.13,-4.81,7.93
27.863664865493774,-5.59,-3.9,-4.27,8.04
27.863931894302368,-5.78,-3.47,-3.44,7.56
27.86419105529785,-5.6,-2.4,-3.92,7.24
27.86445188522339,-5.51,-0.96,-5.33,7.72
27.866707801818848,-5.61,0.48,-6.61,8.68
27.87712574005127,-6.53,1.75,-8.01,10.48
27.886623859405518,-8.14,2.74,-9.26,12.62
27.89678382873535,-9.7,3.16,-10.38,14.55
27.90750288963318,-10.83,3.03,-11.67,16.2
27.91661286354065,-10.88,1.53,-12.33,16.51
27.963514804840088,-10.17,-1.07,-11.81,15.62
27.963778018951416,-9.37,-3.1,-10.5,14.41
27.964038848876953,-9.48,-0.05,-9.3,13.28
27.96429991722107,-5.99,2.11,-6.11,8.81
27.96643590927124,0.71,-3.12,-5.5,6.36
27.977001905441284,7.85,7.96,11.58,16.09
27.986583948135376,17.12,11.37,28.79,35.37
27.99647092819214,9.67,7.12,0.11,12.0
28.007267951965332,1.94,6.26,-8.36,10.62
28.016523838043213,-5.81,6.83,-2.95,9.43
28.064297914505005,-12.01,2.77,-3.21,12.73
28.064562797546387,-9.16,-1.33,-1.2,9.33
28.064820766448975,-7.63,-2.03,-2.04,8.15
28.065079927444458,-6.84,-2.98,-5.86,9.48
28.066195964813232,-4.14,-1.81,-7.22,8.51
28.076870918273926,-2.25,-0.31,-6.79,7.15
28.086336851119995,-1.51,0.34,-5.37,5.58
28.09640598297119,-1.07,0.86,-4.14,4.36
28.107194900512695,0.19,1.0,-3.16,3.31
28.116360902786255,0.75,1.01,-2.17,2.5
28.164680004119873,-0.19,0.95,-0.91,1.32
28.16494393348694,-1.23,0.43,-0.09,1.3
28.165207862854004,-1.5,-0.11,0.34,1.54
28.16549777984619,-1.29,-0.24,0.52,1.41
28.166114807128906,-0.97,-0.2,0.27,1.02
28.17670202255249,-0.47,-0.2,-0.02,0.51
28.186399936676025,0.09,-0.03,-0.48,0.48
28.19613790512085,0.46,0.13,-1.0,1.1
28.207046031951904,0.49,0.17,-1.37,1.46
28.21615195274353,0.18,0.1,-1.21,1.22
28.264277935028076,-0.38,-0.07,-0.86,0.94
28.264544010162354,-0.58,-0.17,-0.64,0.88
28.26480793952942,-0.44,-0.08,-0.19,0.48
28.265071868896484,-0.25,0.04,0.33,0.41
28.26594305038452,0.01,0.11,0.65,0.65
28.276504039764404,0.42,0.12,0.67,0.79
28.285977840423584,0.86,0.15,0.6,1.05
28.296031951904297,1.22,0.19,0.58,1.36
28.30693483352661,1.31,0.2,0.47,1.4
28.316027879714966,1.14,0.13,0.34,1.19
28.3649959564209,0.87,0.01,0.2,0.89
28.36527681350708,0.49,-0.09,0.18,0.52
28.365710735321045,0.16,-0.08,0.39,0.42
28.365978956222534,0.09,-0.11,0.69,0.7
28.36623477935791,0.33,-0.06,0.97,1.02
28.37639594078064,0.91,-0.06,1.18,1.49
28.38582992553711,1.48,-0.08,1.24,1.93
28.395878791809082,1.84,-0.12,1.11,2.15
28.40639305114746,1.82,-0.11,0.7,1.95
28.41587781906128,1.66,-0.06,0.66,1.78
28.463989734649658,1.62,0.01,0.86,1.83
28.464271068572998,1.7,0.06,1.14,2.04
28.464533805847168,1.74,0.08,1.19,2.1
28.464791774749756,1.5,0.17,1.21,1.93
28.465667963027954,1.27,0.23,1.48,1.96
28.47622585296631,1.28,0.37,1.54,2.03
28.485737800598145,1.43,0.6,1.42,2.1
28.49575185775757,1.54,1.01,1.16,2.17
28.50635290145874,1.35,1.27,0.63,1.95
28.515841960906982,1.29,1.74,0.33,2.19
28.563782930374146,1.6,2.35,0.69,2.92
28.564044952392578,1.81,2.41,1.4,3.32
28.56430673599243,1.72,2.66,2.37,3.95
28.56457281112671,2.1,3.32,2.46,4.63
28.56563901901245,2.27,4.97,2.36,5.95
28.576069831848145,3.31,6.65,2.48,7.83
28.585558891296387,4.35,7.22,3.63,9.17
28.59552574157715,4.44,7.64,4.44,9.88
28.606188774108887,4.17,8.22,5.03,10.5
28.61554479598999,3.74,8.9,6.39,11.57
28.664216995239258,3.94,9.62,8.03,13.13
28.66448187828064,5.35,10.11,7.26,13.54
28.664772033691406,6.04,9.63,5.24,12.51
28.66505789756775,5.58,8.58,4.36,11.12
28.66548204421997,5.24,7.28,1.51,9.09
28.675936937332153,4.48,6.82,-2.71,8.59
28.685389041900635,1.1,8.58,-4.72,9.85
28.695415019989014,-3.72,11.66,-3.36,12.69
28.70609998703003,-3.81,10.51,-0.88,11.21
28.715441942214966,0.24,5.75,0.7,5.79
28.76506495475769,2.27,2.74,2.13,4.14
28.765326023101807,-1.62,1.23,-0.1,2.03
28.765581846237183,-3.24,3.2,-5.0,6.76
28.765837907791138,2.1,5.28,-1.34,5.83
28.766093730926514,6.42,3.11,2.39,7.52
28.775846004486084,8.58,0.79,3.36,9.24
28.78518581390381,7.51,-0.36,3.18,8.16
28.795166969299316,5.57,-1.15,2.64,6.27
28.806060791015625,4.1,-2.11,2.92,5.45
28.8151638507843,2.77,-2.85,3.02,4.99
28.865333080291748,1.69,-3.12,2.87,4.56
28.865593910217285,0.87,-3.05,2.8,4.23
28.865850925445557,0.37,-2.96,2.78,4.07
28.866106033325195,0.26,-2.93,2.67,3.97
28.866363048553467,0.35,-3.03,2.64,4.03
28.87547779083252,0.52,-3.2,2.43,4.05
28.884999752044678,0.62,-3.28,2.1,3.94
28.89505386352539,0.51,-3.29,1.8,3.78
28.947805881500244,0.41,-3.44,1.7,3.85
28.94807004928589,0.26,-3.86,1.71,4.22
28.94833493232727,0.2,-4.48,1.66,4.78
28.948596000671387,0.22,-5.03,1.65,5.29
28.948853969573975,0.23,-5.47,1.8,5.76
28.955261945724487,0.17,-5.77,1.76,6.03
28.96500873565674,0.08,-5.83,1.81,6.1
28.97554874420166,-0.24,-5.68,1.71,5.93
28.985029935836792,-0.38,-5.44,1.54,5.66
28.99503183364868,-0.58,-4.95,0.87,5.05
29.048842906951904,-1.48,-4.19,-0.14,4.44
29.049126863479614,-3.02,-3.29,-2.12,4.94
29.049388885498047,-4.44,-1.89,-4.17,6.37
29.049648761749268,-5.17,-0.59,-5.09,7.27
29.049908876419067,-4.89,0.1,-5.04,7.02
29.055274963378906,-4.58,0.78,-5.52,7.21
29.064743041992188,-5.02,1.75,-7.01,8.79
29.075320959091187,-6.32,2.55,-8.97,11.26
29.084819793701172,-8.16,2.69,-10.88,13.86
29.094827890396118,-10.08,2.0,-12.38,16.08
29.148755073547363,-10.49,0.45,-12.1,16.02
29.149017810821533,-9.32,-1.63,-10.52,14.14
29.149282932281494,-7.99,-3.25,-9.95,13.16
29.149540901184082,-7.77,-2.18,-10.03,12.87
29.14980173110962,-6.26,3.47,-8.07,10.78
29.154762744903564,-0.44,-1.36,-5.69,5.86
29.164666891098022,1.58,4.93,5.66,7.67
29.175178050994873,12.78,11.48,29.03,33.73
29.18467688560486,14.47,8.88,9.05,19.23
29.194697856903076,5.06,8.94,-12.22,15.96
29.249274730682373,-6.01,8.09,-4.76,11.14
29.24954080581665,-11.9,-0.57,-4.06,12.58
29.249803066253662,-8.66,-0.33,-0.35,8.67
29.2500638961792,-7.66,-1.11,-0.04,7.74
29.250319957733154,-6.14,-3.15,-5.69,8.94
29.254518032073975,-4.01,-1.84,-7.98,9.11
29.26454186439514,-3.19,-0.34,-6.35,7.11
29.275049924850464,-2.32,0.11,-3.34,4.06
29.284555912017822,-0.36,0.43,-1.88,1.96
29.294548988342285,0.54,0.83,-1.98,2.21
29.349808931350708,0.12,0.94,-1.14,1.48
29.350082874298096,-0.67,0.7,-0.7,1.19
29.350340843200684,-1.1,0.51,-1.06,1.61
29.350597858428955,-0.75,0.35,-0.73,1.1
29.35085391998291,-0.17,-0.05,-0.28,0.33
29.354506015777588,-0.15,-0.27,-0.05,0.31
29.364301919937134,-0.25,-0.11,-0.46,0.53
29.374902963638306,-0.12,0.11,-1.0,1.01
29.384387969970703,0.19,0.15,-1.31,1.33
29.394471883773804,0.34,0.14,-1.49,1.53
29.448994874954224,0.2,-0.01,-1.22,1.23
29.44972276687622,0.02,-0.1,-0.55,0.55
29.449985027313232,-0.03,-0.09,0.25,0.26
29.450228929519653,-0.03,-0.01,0.89,0.89
29.450483798980713,0.08,0.09,1.09,1.09
29.454341888427734,0.24,0.22,0.79,0.85
29.46420383453369,0.43,0.34,0.28,0.61
29.47486400604248,0.39,0.31,0.07,0.5
29.484210968017578,0.39,0.12,0.2,0.45
29.494286060333252,0.77,0.02,0.6,0.97
29.50512194633484,1.25,0.02,0.94,1.56
29.549227952957153,1.34,0.01,1.33,1.88
29.549490928649902,1.14,-0.05,1.63,1.98
29.549736976623535,0.87,-0.17,1.63,1.85
29.550004959106445,0.83,-0.28,1.47,1.71
29.55408787727356,1.01,-0.21,1.07,1.48
29.56406879425049,0.82,-0.01,0.45,0.93
29.574606895446777,0.3,0.19,-0.14,0.38
29.584033966064453,0.1,0.37,-0.41,0.56
29.594069004058838,0.37,0.54,-0.22,0.69
29.604849815368652,0.81,0.61,0.33,1.06
29.649677753448486,0.89,0.44,0.88,1.32
29.649940013885498,0.84,0.37,1.16,1.47
29.650182962417603,0.84,0.51,1.61,1.88
29.650436878204346,0.86,0.75,1.97,2.27
29.653915882110596,1.36,1.2,2.06,2.74
29.663928985595703,1.46,1.81,2.04,3.09
29.674470901489258,1.57,1.99,2.1,3.29
29.68384885787964,1.78,2.14,1.95,3.39
29.693907737731934,1.93,2.19,1.96,3.51
29.7046217918396,2.07,2.16,1.97,3.58
29.749810934066772,2.14,2.22,2.23,3.8
29.750082969665527,2.13,2.98,2.45,4.4
29.75034189224243,2.62,5.1,2.2,6.14
29.750600814819336,4.43,6.53,3.02,8.44
29.753737926483154,5.08,6.43,4.31,9.25
29.763803958892822,4.93,6.63,4.76,9.53
29.774274826049805,5.2,7.48,6.2,11.01
29.783791065216064,5.47,8.34,8.01,12.79
29.793842792510986,5.05,8.89,8.25,13.13
29.804550886154175,4.21,9.11,7.75,12.67
29.8500337600708,3.34,8.37,6.57,11.15
29.850292921066284,3.2,6.92,2.42,7.99
29.850552082061768,4.23,6.94,-3.22,8.74
29.850810050964355,2.85,10.21,-5.65,12.01
29.85353994369507,-1.7,12.36,-3.05,12.84
29.863598823547363,-2.77,11.83,1.08,12.19
29.874106884002686,-0.43,7.78,0.55,7.81
29.883607864379883,1.44,4.58,0.07,4.8
29.893611907958984,0.3,3.16,1.33,3.44
29.904491901397705,-4.3,2.6,-2.81,5.75
29.95053005218506,-2.47,5.37,-5.19,7.86
29.950793743133545,3.26,6.29,-0.23,7.08
29.951050758361816,7.38,3.07,2.95,8.52
29.951308727264404,9.2,0.26,3.97,10.02
29.95343780517578,7.78,-1.02,3.59,8.62
29.9634747505188,6.17,-1.65,3.33,7.2
29.973888874053955,4.96,-2.13,3.73,6.56
29.983513832092285,3.6,-2.21,3.65,5.58
29.993520736694336,2.18,-1.92,3.24,4.35
30.004233837127686,0.69,-1.81,3.09,3.64
30.050421953201294,-0.36,-1.97,2.91,3.53
30.05068302154541,-0.72,-1.95,2.46,3.22
30.05094289779663,-0.63,-2.04,2.13,3.01
30.051199913024902,-0.13,-2.19,1.82,2.85
30.05332088470459,0.63,-2.25,1.63,2.84
30.063209056854248,1.01,-2.45,1.39,2.99
30.073619842529297,0.94,-2.75,1.19,3.14
30.08329677581787,0.66,-3.26,1.16,3.52
30.093278884887695,0.54,-3.84,1.16,4.04
30.104135990142822,0.61,-4.41,1.51,4.7
30.150508880615234,0.62,-4.85,1.92,5.25
30.150774002075195,0.53,-5.25,2.13,5.69
30.151031970977783,0.32,-5.29,1.98,5.65
30.151290893554688,-0.72,-4.96,1.03,5.11
30.153138875961304,-2.36,-4.52,-0.62,5.13
30.16317391395569,-4.4,-4.04,-1.91,6.27
30.173730850219727,-6.0,-3.74,-2.33,7.44
30.18329381942749,-6.38,-3.43,-3.07,7.86
