time,ax,ay,az,atotal
0.004935026168823242,-0.05,-0.66,-1.05,1.24
0.015569925308227539,0.23,0.54,-0.1,0.59
0.04994392395019531,-0.03,0.84,-0.47,0.96
0.05174088478088379,0.07,0.1,-0.46,0.47
0.05320286750793457,0.15,-0.31,-0.03,0.34
0.0646829605102539,0.22,-0.61,0.3,0.71
0.06619596481323242,0.23,0.21,-0.19,0.36
0.0820610523223877,0.02,0.13,-0.08,0.15
0.08429694175720215,-0.25,0.46,-0.24,0.57
0.09872889518737793,-0.18,0.25,-0.23,0.38
0.10431408882141113,0.15,-0.11,0.05,0.19
0.11672592163085938,0.12,-0.13,0.28,0.33
0.14764714241027832,-0.02,-0.09,0.21,0.22
0.14941191673278809,-0.04,-0.07,0.16,0.17
0.15087103843688965,0.03,-0.1,0.2,0.22
0.1655747890472412,0.12,-0.07,0.14,0.19
0.16707301139831543,0.04,0.05,0.0,0.06
0.18211793899536133,-0.07,0.1,-0.09,0.15
0.18362212181091309,-0.06,0.04,-0.07,0.1
0.19893193244934082,0.02,0.01,-0.06,0.06
0.20342493057250977,-0.03,0.06,-0.03,0.07
0.21859288215637207,-0.03,0.05,0.0,0.05
0.22660279273986816,-0.07,0.0,-0.01,0.07
0.24920201301574707,-0.08,-0.02,0.02,0.08
0.2507588863372803,0.08,-0.02,0.08,0.11
0.2530500888824463,0.18,-0.07,0.14,0.23
0.2661409378051758,0.11,-0.11,0.2,0.25
0.2728688716888428,0.02,-0.06,0.26,0.26
0.2826378345489502,0.02,-0.09,0.22,0.23
0.29283785820007324,0.03,-0.04,0.14,0.14
0.30306196212768555,-0.04,-0.02,0.07,0.08
0.3161180019378662,-0.13,0.03,0.05,0.14
0.32559704780578613,-0.19,0.05,0.08,0.21
0.35001397132873535,-0.12,0.0,0.05,0.13
0.35134005546569824,-0.03,-0.1,0.03,0.1
0.35259079933166504,-0.01,-0.2,0.14,0.24
0.36708498001098633,0.03,-0.16,0.18,0.24
0.37227606773376465,0.14,-0.18,0.13,0.26
0.3820760250091553,0.24,0.0,0.02,0.24
0.3921830654144287,0.2,0.04,-0.05,0.21
0.40190696716308594,0.17,-0.09,0.0,0.19
0.41207003593444824,0.23,-0.2,-0.05,0.3
0.4245450496673584,0.28,-0.01,-0.13,0.3
0.44992494583129883,0.22,0.06,-0.13,0.26
0.451369047164917,0.23,-0.1,-0.18,0.3
0.4525320529937744,0.27,-0.17,-0.25,0.4
0.4668238162994385,0.01,0.2,0.24,0.31
0.47142601013183594,-0.33,0.06,0.59,0.67
0.48122096061706543,-0.35,-0.08,0.49,0.6
0.4914867877960205,-0.24,-0.1,0.48,0.54
0.5010759830474854,-0.08,-0.18,0.38,0.42
0.5114037990570068,-0.04,-0.23,0.25,0.34
0.521521806716919,-0.07,-0.11,0.28,0.3
0.5486438274383545,-0.1,-0.04,0.23,0.25
0.5503160953521729,-0.15,-0.04,0.12,0.19
0.5516610145568848,-0.16,-0.01,0.01,0.16
0.5664308071136475,-0.16,0.01,-0.13,0.2
0.5706260204315186,-0.15,0.06,-0.06,0.17
0.5817239284515381,-0.06,0.08,0.13,0.16
0.5907409191131592,0.0,-0.11,0.25,0.27
0.600412130355835,0.03,-0.27,0.34,0.43
0.6105420589447021,0.07,-0.22,0.44,0.49
0.6227939128875732,0.11,-0.23,0.26,0.36
0.6527099609375,0.02,-0.14,0.16,0.21
0.6545100212097168,-0.08,0.07,0.2,0.22
0.6559860706329346,-0.11,0.01,0.16,0.19
0.6663589477539062,-0.17,-0.07,0.23,0.29
0.6700139045715332,-0.1,-0.03,0.1,0.14
0.6817879676818848,-0.03,-0.02,-0.01,0.03
0.689903974533081,0.01,0.11,-0.08,0.13
0.6995871067047119,-0.05,0.18,0.0,0.18
0.7096660137176514,-0.18,0.06,0.01,0.19
0.7220118045806885,-0.32,0.01,-0.01,0.32
0.7509148120880127,-0.35,0.02,-0.06,0.35
0.7525351047515869,-0.36,0.03,0.01,0.36
0.7542729377746582,-0.39,0.01,0.03,0.39
0.7658119201660156,-0.44,-0.03,0.14,0.46
0.7691769599914551,-0.47,-0.06,0.21,0.51
0.7797529697418213,-0.36,-0.11,0.23,0.44
0.7892558574676514,-0.15,-0.03,0.26,0.3
0.7989208698272705,-0.04,-0.07,0.25,0.26
0.8088870048522949,-0.05,-0.05,0.2,0.21
0.8186018466949463,0.0,0.0,0.18,0.18
0.8539688587188721,-0.03,0.06,0.03,0.07
0.8557999134063721,-0.16,0.08,-0.1,0.2
0.8568849563598633,-0.2,0.08,-0.04,0.21
0.8631889820098877,-0.21,0.05,-0.06,0.22
0.8684661388397217,-0.23,-0.06,-0.1,0.25
0.882152795791626,-0.2,-0.08,-0.16,0.26
0.8884549140930176,-0.19,0.01,-0.15,0.24
0.8991320133209229,-0.11,0.12,-0.02,0.16
0.9083020687103271,0.02,0.12,0.11,0.16
0.9179351329803467,0.06,0.06,0.17,0.19
0.9555649757385254,0.01,0.06,0.18,0.19
0.9570059776306152,-0.19,0.03,0.08,0.2
0.9584670066833496,-0.32,0.07,0.07,0.33
0.9618699550628662,-0.3,0.05,-0.03,0.3
0.9676930904388428,-0.28,0.01,-0.09,0.29
0.9821960926055908,-0.21,-0.03,-0.04,0.21
0.9875328540802002,0.0,-0.07,0.14,0.15
0.9988138675689697,0.18,-0.19,0.17,0.31
1.0076501369476318,0.33,-0.26,0.16,0.44
1.0197088718414307,0.27,-0.24,0.12,0.38
1.0278599262237549,0.16,-0.09,0.1,0.2
1.0534729957580566,0.13,0.0,0.12,0.17
1.0550720691680908,0.08,0.05,0.14,0.16
1.0569019317626953,0.01,0.08,0.2,0.21
1.0673749446868896,-0.06,0.12,0.2,0.24
1.0770108699798584,-0.07,0.05,0.18,0.19
1.0869200229644775,-0.06,-0.04,0.01,0.07
1.0968480110168457,-0.06,-0.12,-0.17,0.21
1.106933832168579,-0.15,-0.19,-0.29,0.37
1.119323968887329,-0.22,-0.18,-0.33,0.43
1.129133939743042,-0.14,-0.04,-0.32,0.35
1.1557269096374512,0.03,-0.06,-0.4,0.4
1.157439947128296,0.16,-0.11,-0.41,0.45
1.1590619087219238,0.14,-0.08,-0.27,0.31
1.1659209728240967,0.08,0.11,0.1,0.16
1.182466983795166,0.03,0.29,0.34,0.44
1.1860477924346924,-0.06,0.24,0.31,0.39
1.1966941356658936,-0.21,0.05,0.12,0.24
1.206054925918579,-0.31,-0.04,-0.11,0.33
1.215583086013794,-0.26,-0.01,-0.08,0.27
1.225801944732666,-0.16,0.03,-0.03,0.16
1.2525508403778076,-0.22,-0.02,0.03,0.22
1.254206895828247,-0.4,-0.04,0.01,0.4
1.2558999061584473,-0.43,-0.06,-0.31,0.53
1.267059087753296,-0.14,-0.01,-0.72,0.73
1.2752721309661865,0.17,0.16,-0.76,0.79
1.2856090068817139,0.23,0.35,-0.45,0.61
1.2953178882598877,0.02,0.36,-0.43,0.56
1.3051807880401611,-0.13,0.26,-0.58,0.64
1.3155128955841064,-0.21,0.12,-0.82,0.85
1.329035997390747,-0.37,0.11,-0.53,0.65
1.354888916015625,-0.37,0.16,-0.08,0.41
1.356442928314209,-0.25,0.01,-0.01,0.25
1.3581788539886475,-0.08,-0.1,-0.02,0.12
1.3644039630889893,0.12,0.02,0.31,0.33
1.3746399879455566,0.13,0.16,0.58,0.61
1.3846650123596191,-0.18,-0.03,0.03,0.18
1.394615888595581,-0.24,-0.11,-0.3,0.39
1.4046049118041992,-0.04,0.04,-0.33,0.33
1.4142820835113525,0.24,0.19,-0.13,0.33
1.4243028163909912,0.44,0.15,-0.03,0.46
1.460547924041748,0.34,-0.1,-0.13,0.37
1.462479829788208,0.02,-0.17,-0.16,0.23
1.463897943496704,-0.09,-0.09,-0.06,0.14
1.4848620891571045,-0.03,0.0,0.18,0.18
1.4863331317901611,0.05,-0.06,0.22,0.23
1.4994947910308838,0.36,-0.07,0.21,0.42
1.5009758472442627,0.56,-0.11,0.18,0.59
1.5162160396575928,0.67,-0.16,0.15,0.7
1.5176949501037598,0.56,-0.19,0.03,0.59
1.5356779098510742,0.4,-0.19,-0.07,0.44
1.5594120025634766,0.21,-0.07,-0.1,0.24
1.5611660480499268,0.17,0.07,0.06,0.19
1.5623879432678223,0.24,0.04,0.25,0.34
1.5639278888702393,0.31,-0.08,0.42,0.52
1.5729029178619385,0.35,-0.19,0.57,0.69
1.5832850933074951,0.4,-0.28,0.54,0.72
1.5928528308868408,0.41,-0.24,0.29,0.55
1.6031279563903809,0.29,-0.13,0.03,0.31
1.6130239963531494,0.16,0.02,0.16,0.22
1.622802972793579,0.13,-0.01,0.39,0.41
1.656268835067749,0.27,-0.16,0.52,0.6
1.6581170558929443,0.4,-0.22,0.48,0.66
1.6595208644866943,0.36,-0.1,0.44,0.57
1.6624069213867188,0.27,-0.03,0.27,0.38
1.682710886001587,0.28,-0.15,0.08,0.32
1.684217929840088,0.34,-0.21,0.1,0.41
1.6992881298065186,0.34,-0.11,0.21,0.41
1.7021889686584473,0.17,-0.02,0.02,0.17
1.7149550914764404,-0.03,0.05,-0.14,0.15
1.7245991230010986,-0.07,0.08,-0.04,0.11
1.753875970840454,0.0,0.0,0.09,0.09
1.7555310726165771,-0.03,-0.04,-0.07,0.08
1.7569200992584229,-0.16,0.1,-0.09,0.2
1.764861822128296,-0.29,0.25,-0.01,0.38
1.7717599868774414,-0.44,0.17,-0.1,0.48
1.7825219631195068,-0.36,0.05,-0.16,0.39
1.791611909866333,-0.16,0.0,-0.2,0.25
1.8013739585876465,-0.04,-0.05,-0.41,0.41
1.8114731311798096,-0.09,-0.04,-0.59,0.59
1.8211209774017334,-0.25,0.06,-0.67,0.71
1.8337628841400146,-0.32,0.26,-0.44,0.6
1.859848976135254,-0.15,0.27,-0.18,0.35
1.861086130142212,-0.03,0.15,-0.1,0.18
1.8620870113372803,-0.17,0.14,-0.05,0.22
1.8832979202270508,-0.4,0.19,0.09,0.45
1.8847930431365967,-0.48,0.16,0.13,0.52
1.899568796157837,-0.35,-0.01,0.06,0.35
1.901055097579956,-0.17,-0.1,-0.15,0.24
1.916917085647583,-0.05,-0.01,-0.25,0.25
1.920943021774292,0.02,0.07,-0.39,0.39
1.9328579902648926,0.06,0.04,-0.5,0.5
1.9582939147949219,0.13,0.02,-0.56,0.57
1.9597117900848389,0.22,0.07,-0.37,0.43
1.9607470035552979,0.15,0.08,-0.07,0.18
1.9701368808746338,0.01,0.02,0.19,0.19
1.9803099632263184,-0.08,-0.06,0.31,0.32
1.9901158809661865,-0.18,-0.13,0.23,0.31
2.0001227855682373,-0.29,0.03,0.1,0.3
2.009675979614258,-0.29,0.12,-0.01,0.31
2.019969940185547,-0.23,0.14,-0.15,0.3
2.032716989517212,-0.23,0.11,-0.26,0.36
2.055194139480591,-0.23,0.19,-0.38,0.48
2.056320905685425,-0.42,0.27,-0.4,0.63
2.05915904045105,-0.48,0.15,-0.29,0.58
2.0692670345306396,-0.01,-0.01,-0.1,0.1
2.079724073410034,0.22,-0.13,0.14,0.29
2.0892608165740967,0.01,-0.1,0.32,0.33
2.0993289947509766,-0.15,-0.1,0.24,0.3
2.1089839935302734,-0.1,-0.08,0.06,0.14
2.1191179752349854,-0.07,0.04,0.0,0.08
2.1316919326782227,-0.03,0.17,-0.02,0.17
2.157153844833374,0.07,0.11,-0.05,0.13
2.158799886703491,0.08,-0.01,-0.02,0.08
2.1605241298675537,-0.06,-0.04,0.09,0.11
2.168581008911133,-0.39,-0.05,-0.01,0.39
2.182813882827759,-0.4,0.08,-0.08,0.41
2.1886088848114014,-0.06,0.11,-0.1,0.16
2.1998178958892822,0.17,0.01,-0.03,0.17
2.208361864089966,0.21,-0.09,0.0,0.22
2.218416929244995,0.13,-0.11,-0.04,0.17
2.2283380031585693,0.02,0.01,-0.05,0.05
2.2594940662384033,-0.05,0.09,-0.07,0.12
2.261117935180664,-0.07,0.12,-0.06,0.15
2.2626430988311768,-0.05,0.07,-0.02,0.08
2.2677619457244873,-0.06,-0.02,-0.01,0.06
2.2780168056488037,-0.12,-0.03,-0.07,0.14
2.2878589630126953,-0.23,0.04,-0.18,0.29
2.297961950302124,-0.28,0.15,-0.23,0.39
2.307689905166626,-0.16,0.19,-0.17,0.3
2.317528009414673,0.1,0.03,-0.04,0.11
2.327589988708496,0.26,-0.18,0.11,0.33
2.3624308109283447,0.18,-0.22,0.17,0.33
2.364104986190796,0.06,-0.18,0.03,0.19
2.3655850887298584,0.03,-0.05,-0.16,0.17
2.3833720684051514,0.06,0.08,-0.17,0.19
2.384882926940918,0.08,0.04,-0.03,0.09
2.3998091220855713,0.06,-0.07,0.17,0.19
2.40126895904541,0.12,-0.12,0.33,0.37
2.416045904159546,0.17,-0.17,0.21,0.31
2.4175031185150146,0.12,-0.11,-0.03,0.16
2.4322350025177,0.03,0.04,-0.07,0.08
2.461869955062866,-0.06,0.07,-0.08,0.12
2.4637157917022705,-0.12,0.08,-0.01,0.14
2.465052843093872,-0.11,0.08,0.11,0.17
2.4840219020843506,-0.17,-0.02,0.15,0.22
2.4854490756988525,-0.27,-0.02,0.06,0.27
2.4994118213653564,-0.31,0.15,-0.08,0.35
2.5008628368377686,-0.06,0.23,-0.2,0.31
2.5162179470062256,0.31,0.0,-0.24,0.39
2.517681837081909,0.4,-0.21,0.04,0.45
2.5360758304595947,0.32,-0.36,0.14,0.5
2.5602171421051025,0.25,-0.27,0.12,0.38
2.5615808963775635,0.18,-0.08,0.04,0.2
2.5625479221343994,0.12,0.0,0.03,0.12
2.583591938018799,0.09,-0.07,0.08,0.13
2.584973096847534,0.09,-0.13,0.08,0.17
2.599700927734375,-0.02,-0.02,0.07,0.07
2.6011531352996826,-0.16,0.13,0.05,0.21
2.616068124771118,-0.07,0.07,-0.07,0.12
2.617494821548462,0.02,0.0,-0.01,0.02
2.6351349353790283,-0.04,-0.05,0.13,0.14
2.63742995262146,-0.11,-0.01,0.2,0.22
2.671595811843872,-0.11,0.01,0.08,0.13
2.6731319427490234,-0.03,-0.01,-0.07,0.07
2.675004005432129,0.04,0.0,-0.13,0.13
2.6817409992218018,0.03,0.03,-0.05,0.06
2.684669017791748,-0.01,-0.01,0.06,0.06
2.699968099594116,0.0,-0.07,0.12,0.13
2.7044970989227295,0.02,-0.08,0.17,0.18
2.716317892074585,-0.01,-0.02,0.13,0.13
2.7245490550994873,-0.07,0.04,0.06,0.1
2.734895944595337,-0.16,0.08,0.03,0.18
2.7626779079437256,-0.24,0.09,0.13,0.28
2.7646028995513916,-0.18,0.04,0.19,0.26
2.7659637928009033,-0.07,-0.02,0.19,0.2
2.7835190296173096,-0.01,-0.01,0.15,0.15
2.7849810123443604,0.02,0.01,0.06,0.06
2.799844980239868,0.03,-0.03,0.04,0.05
2.803776979446411,0.04,-0.11,0.1,0.15
2.8138930797576904,0.11,-0.13,0.15,0.22
2.8241851329803467,0.12,-0.1,0.1,0.18
2.836399793624878,0.03,-0.01,0.01,0.03
2.8614161014556885,-0.02,0.07,-0.07,0.1
2.863208055496216,-0.04,0.04,-0.05,0.07
2.8642189502716064,-0.03,-0.01,0.05,0.05
2.8837859630584717,-0.03,-0.05,0.12,0.13
2.8851559162139893,-0.06,-0.01,0.14,0.15
2.899984121322632,-0.05,0.03,0.07,0.09
2.9029958248138428,-0.03,0.03,0.0,0.04
2.9163448810577393,-0.02,0.03,-0.05,0.06
2.923003911972046,0.02,0.03,-0.03,0.04
2.933238983154297,0.05,0.02,0.02,0.05
2.9610040187835693,0.01,-0.03,0.04,0.05
2.962554931640625,-0.03,-0.03,0.02,0.04
2.9635350704193115,-0.09,0.03,-0.02,0.09
2.983854055404663,-0.13,0.05,-0.1,0.17
2.985275983810425,-0.09,0.05,-0.16,0.19
3.0001559257507324,-0.08,0.07,-0.11,0.15
3.0021698474884033,-0.08,0.05,-0.02,0.09
3.0150790214538574,-0.06,0.02,0.02,0.06
3.0222909450531006,-0.02,-0.01,0.01,0.02
3.034320116043091,-0.02,-0.01,-0.03,0.03
3.0644869804382324,-0.04,0.02,-0.05,0.06
3.0661590099334717,-0.04,0.0,-0.12,0.12
3.0674760341644287,-0.04,0.04,-0.13,0.14
3.083587884902954,-0.04,0.06,-0.08,0.1
3.0849759578704834,-0.02,0.03,-0.07,0.07
3.1000421047210693,-0.02,0.0,-0.09,0.09
3.101422071456909,-0.03,0.01,-0.15,0.15
3.1172080039978027,-0.07,0.05,-0.11,0.13
3.121795892715454,-0.08,0.05,-0.03,0.09
3.1340091228485107,-0.05,0.01,0.0,0.05
3.162616014480591,-0.03,0.02,0.02,0.04
3.164539098739624,-0.02,0.01,0.0,0.02
3.1659820079803467,0.0,0.02,-0.04,0.04
3.1835720539093018,0.0,0.03,-0.07,0.07
3.184966802597046,-0.01,0.02,-0.02,0.03
3.19999098777771,0.04,-0.03,0.01,0.05
3.2013769149780273,0.01,-0.03,0.04,0.05
3.2161669731140137,-0.04,-0.01,0.08,0.09
3.220686912536621,-0.01,0.0,0.06,0.06
3.2373077869415283,0.05,-0.02,0.04,0.06
3.2602388858795166,0.02,-0.03,-0.02,0.04
3.2617149353027344,-0.04,0.03,-0.05,0.07
3.2626798152923584,-0.03,0.05,-0.07,0.09
3.2704570293426514,-0.06,0.05,-0.07,0.1
3.2804219722747803,-0.12,0.07,0.0,0.13
3.2902560234069824,-0.12,0.05,-0.04,0.13
3.300158977508545,-0.09,0.03,-0.2,0.22
3.3100898265838623,-0.14,0.11,-0.23,0.29
3.3199288845062256,-0.13,0.13,-0.17,0.25
3.3330140113830566,-0.01,0.05,-0.06,0.07
3.364426851272583,0.0,-0.05,0.04,0.06
3.3660061359405518,-0.05,-0.04,0.04,0.07
3.367363929748535,-0.03,0.03,-0.08,0.09
3.3831660747528076,0.0,0.05,-0.15,0.15
3.3846209049224854,-0.01,0.01,-0.1,0.1
3.399945020675659,-0.05,-0.01,-0.01,0.05
3.40140700340271,-0.08,0.01,-0.05,0.09
3.4166879653930664,-0.05,0.05,-0.13,0.14
3.4190709590911865,-0.07,0.08,-0.1,0.14
3.4402430057525635,-0.09,0.02,0.02,0.09
3.4428329467773438,-0.07,-0.05,-0.02,0.08
3.464589834213257,-0.02,0.06,-0.2,0.2
3.466031789779663,0.03,0.09,-0.49,0.49
3.4685869216918945,0.09,0.12,-0.37,0.39
3.484307050704956,0.06,-0.01,-0.03,0.06
3.488680124282837,-0.03,-0.16,0.13,0.2
3.5000360012054443,0.01,-0.09,-0.03,0.09
3.5087740421295166,0.16,0.05,-0.39,0.42
3.518425941467285,0.21,0.22,-0.57,0.64
3.5283679962158203,0.18,0.23,-0.57,0.64
3.5385849475860596,0.09,0.13,-0.47,0.49
3.5660130977630615,-0.04,0.08,-0.34,0.35
3.5677859783172607,-0.18,0.22,-0.13,0.31
3.568789005279541,-0.32,0.33,-0.2,0.5
3.5839850902557373,-0.48,0.31,-0.51,0.76
3.5880401134490967,-0.66,0.32,-0.52,0.89
3.5999929904937744,-0.63,0.38,-0.52,0.9
3.6078989505767822,-0.45,0.27,-0.63,0.81
3.6175689697265625,-0.33,0.26,-0.71,0.82
3.627742052078247,-0.35,0.32,-0.73,0.87
3.6378910541534424,-0.42,0.39,-0.75,0.94
3.6655049324035645,-0.5,0.47,-0.8,1.05
3.66725492477417,-0.64,0.52,-0.87,1.19
3.6687209606170654,-1.05,0.56,-0.85,1.46
3.6839067935943604,-1.61,0.69,-0.9,1.96
3.6872589588165283,-1.53,0.75,-1.28,2.13
3.700061082839966,-0.98,0.61,-1.46,1.86
3.707205057144165,-0.59,0.49,-0.99,1.25
3.7168569564819336,-0.5,0.33,-0.69,0.91
3.726897954940796,-0.5,0.17,-1.09,1.21
3.7396509647369385,-0.55,0.38,-1.44,1.58
3.7628800868988037,-0.5,0.71,-1.44,1.68
3.764616012573242,-0.41,0.79,-1.06,1.38
3.766591787338257,-0.43,0.64,-0.66,1.01
3.7842469215393066,-0.61,0.41,-0.51,0.89
3.7863609790802,-0.77,0.35,-0.45,0.95
3.800311803817749,-0.83,0.66,-0.86,1.36
3.8062551021575928,-1.28,1.4,-1.92,2.69
3.81671404838562,-1.7,2.67,-3.01,4.36
3.826801061630249,-2.34,4.35,-3.31,5.94
3.8384950160980225,-2.9,5.62,-3.85,7.4
3.8729989528656006,-2.28,5.16,-4.74,7.36
3.874882936477661,-1.57,3.82,-5.05,6.52
3.8759191036224365,-0.41,3.29,-4.26,5.39
3.879793882369995,0.31,2.76,-3.84,4.73
3.8859620094299316,0.76,2.56,-3.2,4.16
3.90051007270813,0.86,1.71,-2.96,3.52
3.9053690433502197,0.48,1.71,-2.26,2.87
3.9168717861175537,-0.09,0.62,-2.01,2.1
3.925678014755249,-2.4,-2.02,-3.5,4.7
3.935019016265869,-4.6,-0.57,-1.8,4.97
3.957479953765869,-5.06,-0.85,-1.19,5.26
3.958556890487671,-5.62,-4.08,-3.06,7.58
3.964855909347534,-6.41,-4.71,-2.92,8.47
3.9752490520477295,-6.65,-4.72,-2.22,8.45
3.9849939346313477,-5.8,-5.12,-2.01,7.99
3.9980249404907227,-4.98,-5.48,-2.09,7.69
4.005469083786011,-5.02,-5.21,-1.93,7.48
4.017455816268921,-5.13,-4.6,-1.45,7.04
4.028388977050781,-4.84,-4.16,-0.88,6.44
4.034993886947632,-4.53,-3.93,-0.24,6.0
4.072390794754028,-4.49,-3.65,0.27,5.79
4.074440002441406,-4.52,-3.24,0.53,5.58
4.075931787490845,-4.26,-2.79,0.52,5.11
4.08025598526001,-3.8,-2.38,0.4,4.5
4.08425498008728,-3.39,-2.01,0.28,3.95
4.100327968597412,-3.06,-1.48,0.28,3.41
4.104000806808472,-2.59,-0.92,0.4,2.77
4.114416837692261,-1.77,-0.3,0.51,1.86
4.124125003814697,-0.72,0.27,0.56,0.95
4.13371205329895,0.09,0.56,0.57,0.8
4.170769929885864,0.35,0.58,0.65,0.93
4.172204971313477,0.34,0.55,0.7,0.95
4.1731789112091064,0.67,0.54,0.79,1.16
4.184391975402832,1.28,0.65,0.84,1.66
4.185888051986694,1.8,0.77,0.87,2.14
4.20058798789978,2.23,0.92,0.97,2.6
4.203439950942993,2.71,1.11,1.08,3.12
4.214604139328003,3.37,1.22,1.28,3.8
4.2233240604400635,4.29,1.42,1.59,4.79
4.232982873916626,5.1,1.51,1.81,5.61
4.243697881698608,5.42,1.33,1.84,5.87
4.272536039352417,5.19,1.19,1.91,5.65
4.2736899852752686,4.97,1.06,2.28,5.56
4.274852991104126,5.2,0.9,2.84,5.99
4.282547950744629,5.52,0.66,3.35,6.49
4.292742967605591,5.73,0.56,3.78,6.88
4.302780866622925,6.08,0.73,4.35,7.51
4.312630891799927,6.6,0.95,4.84,8.23
4.322447061538696,6.99,1.08,5.39,8.89
4.332397937774658,7.32,1.31,5.51,9.25
4.342801809310913,5.23,2.12,2.98,6.38
4.371175050735474,-1.32,-2.2,-2.51,3.58
4.372798919677734,-9.0,-3.05,-6.99,11.79
4.3741679191589355,-14.35,5.68,-6.49,16.74
4.383677005767822,-10.98,23.64,6.49,26.86
4.392076015472412,-1.48,27.63,10.62,29.63
4.401933908462524,5.12,10.93,-3.87,12.67
4.41220498085022,8.37,-0.85,-5.03,9.8
4.421447038650513,6.11,-7.55,-1.31,9.8
4.431756973266602,3.8,-7.86,3.93,9.57
4.442300081253052,2.96,-6.91,7.22,10.42
4.470776796340942,2.16,-4.62,4.59,6.86
4.472301006317139,1.8,-0.81,1.81,2.67
4.473603963851929,1.68,2.02,-0.37,2.65
4.485180139541626,1.81,2.26,-1.89,3.45
4.4912049770355225,1.95,0.67,-2.02,2.88
4.501003980636597,1.34,0.01,-0.3,1.37
4.510836839675903,0.3,-0.18,1.59,1.62
4.5211169719696045,-0.26,-0.57,2.31,2.39
4.530956029891968,-0.05,-0.91,1.34,1.62
4.541378021240234,0.46,-0.64,-0.16,0.8
4.570392847061157,0.74,0.0,-1.05,1.28
4.57196307182312,0.59,0.32,-1.16,1.34
4.572993040084839,0.47,0.24,-0.93,1.06
4.5845348834991455,0.61,0.06,-0.47,0.77
4.590497016906738,0.32,0.11,0.08,0.34
4.600632905960083,-0.06,0.22,0.18,0.29
4.610219955444336,-0.01,0.15,0.03,0.15
4.620384931564331,0.22,0.0,-0.04,0.22
4.630229949951172,0.19,-0.17,0.02,0.25
4.640687942504883,-0.12,-0.23,0.46,0.52
4.6780030727386475,-0.34,-0.19,0.79,0.88
4.679886102676392,-0.26,-0.14,0.38,0.48
4.680944919586182,0.0,0.08,-0.01,0.08
4.701375961303711,0.16,0.19,-0.23,0.33
4.7027809619903564,0.16,0.15,-0.44,0.49
4.716519117355347,-0.11,0.14,-0.6,0.62
4.717983961105347,-0.58,0.33,-0.48,0.82
4.734082937240601,-0.88,0.47,-0.34,1.05
4.735562086105347,-0.86,0.44,-0.26,1.0
4.750519037246704,-0.62,0.36,-0.03,0.71
4.776814937591553,-0.32,0.19,-0.18,0.41
4.77835488319397,-0.31,0.17,-0.36,0.5
4.7793989181518555,-0.55,0.3,-0.53,0.82
4.781269788742065,-0.84,0.5,-0.84,1.28
4.78873085975647,-0.9,0.64,-1.06,1.53
4.798901796340942,-1.03,0.7,-0.8,1.48
4.808880090713501,-1.1,0.66,-0.55,1.39
4.818882942199707,-1.01,0.47,-0.61,1.27
4.828634023666382,-0.91,0.43,-0.72,1.23
4.838494062423706,-0.91,0.58,-0.79,1.33
4.873682975769043,-1.0,0.73,-0.89,1.52
4.87561297416687,-1.08,0.83,-0.9,1.63
4.87664794921875,-1.09,0.84,-0.79,1.58
4.880141019821167,-1.09,0.77,-0.68,1.49
4.888037919998169,-1.06,0.75,-0.58,1.42
4.897954940795898,-1.11,0.83,-0.47,1.46
4.908015012741089,-1.21,1.0,-0.42,1.62
4.9184300899505615,-1.29,1.23,-0.47,1.84
4.9276039600372314,-1.31,1.47,-0.58,2.05
4.937927961349487,-1.42,1.89,-0.98,2.55
4.9669787883758545,-1.61,2.35,-1.02,3.02
4.9687278270721436,-1.96,2.62,-0.98,3.41
4.970165014266968,-2.3,2.76,-1.04,3.74
4.983139991760254,-2.62,2.95,-1.02,4.07
4.987243890762329,-2.89,3.18,-1.03,4.41
4.999047040939331,-3.35,3.48,-1.24,4.98
5.007169961929321,-4.06,4.46,-1.12,6.13
5.017122983932495,-5.07,5.65,-1.63,7.76
5.0275890827178955,-6.06,6.87,-2.62,9.52
5.039831876754761,-6.88,7.95,-3.4,11.04
5.04737401008606,-7.81,8.97,-4.08,12.57
5.077333927154541,-8.87,9.55,-4.61,13.82
5.078481912612915,-9.86,9.86,-5.02,14.82
5.079478025436401,-10.13,10.06,-6.13,15.53
5.086580991744995,-9.75,9.21,-7.84,15.53
5.096729040145874,-9.05,9.02,-7.07,14.6
5.106745004653931,-6.86,10.88,-3.95,13.45
5.116687059402466,-2.9,11.86,-2.7,12.5
5.126355886459351,0.97,11.24,-2.85,11.63
5.136346101760864,1.59,6.67,-4.09,7.98
5.14631199836731,-0.81,1.62,-4.83,5.15
5.17556095123291,-3.89,-2.43,-5.31,7.01
5.176856994628906,-2.75,-2.11,-4.32,5.53
5.178062915802002,2.47,0.59,2.11,3.3
5.186007022857666,2.92,-3.54,1.4,4.79
5.200963973999023,-1.53,-5.71,-2.86,6.56
5.205817937850952,-4.97,-5.37,-2.23,7.64
5.217371940612793,-7.19,-4.15,-1.41,8.42
5.225640058517456,-8.92,-3.89,-1.51,9.84
5.235682964324951,-9.45,-4.29,-0.58,10.39
5.245997905731201,-7.92,-5.1,0.85,9.45
5.277300119400024,-5.69,-6.11,1.87,8.55
5.278464078903198,-4.55,-6.59,1.81,8.21
5.279431104660034,-4.47,-6.22,0.98,7.72
5.28488302230835,-4.92,-4.89,-0.05,6.93
5.295163869857788,-4.95,-4.46,-0.93,6.72
5.30510687828064,-4.35,-4.5,-1.34,6.4
5.315122842788696,-3.84,-4.68,-1.51,6.23
5.324916124343872,-3.57,-5.11,-1.72,6.46
5.334990978240967,-3.38,-5.53,-2.09,6.8
5.344537019729614,-3.33,-5.79,-2.35,7.08
5.374077081680298,-3.35,-6.03,-2.24,7.25
5.375468015670776,-3.34,-6.29,-1.97,7.38
5.376765012741089,-3.26,-6.51,-1.56,7.44
5.384136915206909,-3.18,-6.74,-1.07,7.52
5.394234895706177,-3.1,-6.98,-0.72,7.67
5.404034852981567,-2.98,-7.04,-0.51,7.66
5.414440870285034,-2.96,-6.49,-0.12,7.13
5.424299001693726,-2.98,-5.56,0.55,6.33
5.434138059616089,-2.69,-4.43,0.93,5.26
5.444288015365601,-1.6,-3.27,0.73,3.71
5.48531699180603,0.1,-1.8,0.8,1.97
5.487037897109985,1.81,0.27,1.43,2.32
5.488489866256714,3.44,2.8,2.51,5.09
5.501964807510376,5.27,5.48,3.17,8.23
5.503413915634155,7.13,7.92,3.18,11.12
5.5173749923706055,8.8,10.1,3.38,13.81
5.518906831741333,10.57,12.18,3.98,16.61
5.532701015472412,12.61,13.04,3.76,18.52
5.534240961074829,14.83,11.98,3.08,19.31
5.550209999084473,16.49,10.97,3.15,20.05
5.575212001800537,17.23,9.72,4.02,20.18
5.57695198059082,16.92,7.77,4.64,19.18
5.578016042709351,14.63,8.12,4.36,17.29
5.582780122756958,11.44,9.69,3.95,15.5
5.601369142532349,4.77,-1.66,-3.67,6.24
5.602870941162109,-6.37,-5.44,-14.44,16.69
5.6176979541778564,-17.57,6.82,-13.26,23.04
5.622515916824341,-15.38,34.61,12.29,39.81
5.633337020874023,-7.48,33.96,11.08,36.49
5.642371892929077,-2.56,0.94,-5.43,6.07
5.682132959365845,3.74,-5.79,0.27,6.89
5.683829069137573,9.55,-4.83,4.41,11.57
5.685281991958618,11.16,-7.87,5.58,14.75
5.702248811721802,10.27,-8.27,2.16,13.36
5.703750848770142,6.41,-3.59,1.56,7.51
5.717713117599487,2.85,-0.12,1.26,3.11
5.719178915023804,0.77,1.55,-0.33,1.76
5.734661817550659,-0.06,2.25,-1.76,2.85
5.736174821853638,0.41,1.99,-1.49,2.51
5.753465890884399,1.1,0.9,-0.46,1.49
5.778527021408081,1.07,-0.47,0.59,1.3
5.780066013336182,0.73,-1.45,1.49,2.2
5.781094789505005,0.23,-1.58,1.53,2.21
5.8019349575042725,-0.04,-0.92,1.11,1.44
5.803446054458618,0.39,-0.17,0.21,0.47
5.817935943603516,0.88,0.09,-0.45,0.99
5.81941294670105,0.85,0.03,-0.49,0.98
5.834640979766846,0.59,-0.04,-0.09,0.59
5.836106061935425,0.37,-0.07,0.28,0.46
5.8504798412323,0.17,-0.07,0.23,0.29
5.8526318073272705,-0.02,0.03,0.15,0.15
5.894362926483154,-0.13,0.15,0.11,0.22
5.895782947540283,-0.17,0.25,0.18,0.35
5.8967578411102295,-0.27,0.17,0.1,0.33
5.898842096328735,-0.49,0.09,-0.08,0.5
5.900381803512573,-0.62,0.16,-0.17,0.66
5.910465955734253,-0.7,0.23,-0.47,0.87
5.9204628467559814,-0.52,0.31,-0.77,0.97
5.930292844772339,-0.18,0.37,-0.89,0.98
5.94022011756897,-0.1,0.34,-0.73,0.81
5.950148820877075,-0.41,0.3,-0.5,0.71
5.977834939956665,-0.78,0.34,-0.35,0.92
5.979000806808472,-1.08,0.39,-0.06,1.14
5.980014085769653,-1.19,0.41,0.02,1.25
6.001880884170532,-1.03,0.34,-0.17,1.09
6.003363847732544,-0.92,0.24,-0.61,1.12
6.017799139022827,-0.99,0.29,-1.21,1.59
6.019418954849243,-1.17,0.57,-1.07,1.68
6.034523963928223,-1.16,0.92,-0.81,1.68
6.039302110671997,-1.16,0.99,-1.01,1.82
6.049286127090454,-1.06,0.95,-1.13,1.81
6.077130079269409,-1.1,0.92,-1.05,1.77
6.078544855117798,-1.37,0.85,-1.02,1.9
6.079581022262573,-1.57,0.88,-0.74,1.94
6.088727951049805,-1.58,0.98,-0.56,1.94
6.099164962768555,-1.43,1.1,-0.48,1.86
6.1091179847717285,-1.47,1.26,-0.49,1.99
6.119013071060181,-1.67,1.7,-0.53,2.44
6.128867864608765,-1.69,2.05,-0.91,2.8
6.138720989227295,-1.79,2.41,-1.48,3.34
6.149025917053223,-1.94,3.2,-1.97,4.22
6.177202939987183,-2.09,3.57,-2.21,4.69
6.17884087562561,-2.48,3.82,-1.87,4.92
6.1802308559417725,-3.22,3.86,-1.73,5.31
6.188063859939575,-3.9,4.1,-1.41,5.83
6.198353052139282,-4.48,4.65,-1.02,6.53
6.208315134048462,-5.33,5.64,-0.95,7.81
6.218163013458252,-6.8,6.91,-1.76,9.85
6.228027105331421,-8.81,8.48,-2.65,12.51
6.238013982772827,-10.28,10.23,-3.4,14.89
6.248079061508179,-10.95,10.9,-5.35,16.35
6.2838218212127686,-11.09,10.65,-6.67,16.76
6.2853779792785645,-11.09,10.19,-7.89,17.0
6.286435842514038,-11.22,9.49,-9.28,17.38
6.302001953125,-10.34,11.74,-6.09,16.78
6.303502798080444,-6.34,14.86,-2.3,16.31
6.317831993103027,-0.96,14.33,-3.97,14.9
6.319325923919678,0.87,9.48,-7.02,11.82
6.33464503288269,-0.48,4.26,-7.8,8.9
6.337178945541382,-3.29,-0.52,-7.62,8.31
6.350055932998657,-4.01,-3.88,-7.3,9.18
6.38216495513916,0.95,0.08,-2.9,3.05
6.38358998298645,6.2,1.07,4.92,7.98
6.384600877761841,3.58,-3.58,2.52,5.65
6.403537034988403,-1.88,-5.84,-1.84,6.4
6.405036926269531,-5.29,-6.16,-1.53,8.26
6.418165922164917,-7.56,-4.62,-0.87,8.9
6.419636011123657,-9.47,-3.15,-0.91,10.02
6.434973955154419,-10.74,-2.72,-0.66,11.09
6.436460018157959,-9.68,-3.58,-0.11,10.32
6.454252004623413,-6.29,-4.82,1.5,8.06
6.483792066574097,-3.58,-5.94,2.63,7.41
6.485205888748169,-2.68,-6.57,2.32,7.46
6.486140012741089,-2.68,-6.35,1.38,7.02
6.5028440952301025,-3.0,-5.69,0.22,6.43
6.5042078495025635,-2.89,-5.69,-1.25,6.5
6.515913009643555,-2.76,-5.65,-2.27,6.68
6.517329931259155,-2.8,-5.66,-3.09,7.03
6.53519082069397,-2.84,-5.78,-3.71,7.43
6.536679983139038,-2.82,-5.73,-3.6,7.33
6.550269842147827,-2.61,-5.97,-2.84,7.1
6.582581996917725,-2.4,-6.52,-1.88,7.19
6.584265947341919,-2.39,-7.19,-1.14,7.66
6.585262060165405,-2.55,-7.77,-0.63,8.2
6.602184057235718,-2.73,-8.09,-0.17,8.53
6.603683948516846,-2.87,-8.2,0.2,8.69
6.618098974227905,-2.95,-7.83,0.82,8.4
6.619581937789917,-2.73,-6.99,1.31,7.61
6.634992837905884,-2.14,-5.94,1.68,6.53
6.63649582862854,-1.02,-4.53,1.69,4.94
6.6509339809417725,0.86,-2.93,1.01,3.21
6.65515398979187,3.24,-0.96,0.95,3.51
6.696039915084839,6.02,1.08,1.45,6.28
6.697242021560669,8.77,2.8,1.73,9.36
6.698221921920776,11.12,4.45,2.13,12.16
6.718722105026245,13.06,6.28,2.96,14.79
6.720211982727051,14.2,7.83,3.68,16.62
6.734620809555054,15.03,8.8,3.78,17.82
6.736087083816528,15.23,9.33,2.92,18.09
6.751285791397095,15.56,10.42,2.65,18.91
6.752813100814819,16.61,10.59,2.23,19.82
6.767535924911499,17.1,10.01,2.33,19.95
6.7957940101623535,13.61,13.3,3.62,19.37
6.797194004058838,6.79,7.3,-2.1,10.18
6.798200845718384,-4.77,0.78,-10.65,11.69
6.818778991699219,-14.79,20.25,-6.49,25.9
6.820327997207642,-16.43,47.47,7.54,50.79
6.834890127182007,-11.11,13.89,-2.3,17.93
6.836364030838013,2.36,-1.17,-1.53,3.04
6.851691961288452,8.76,-6.33,5.77,12.25
6.853157997131348,10.06,-10.12,7.27,16.01
6.8672449588775635,10.21,-10.52,4.53,15.34
6.8931920528411865,8.43,-7.62,3.96,12.03
6.894614934921265,4.09,-2.38,2.91,5.55
6.895658016204834,1.02,0.6,1.38,1.81
6.898121118545532,-0.65,2.72,-0.99,2.96
6.902599096298218,-0.71,3.19,-2.86,4.34
6.912611961364746,0.9,2.06,-3.04,3.78
6.922993898391724,2.32,0.72,-1.18,2.7
6.932793855667114,1.88,-0.69,0.92,2.2
6.942677974700928,0.46,-1.72,1.66,2.43
6.952584981918335,-0.12,-1.55,1.39,2.08
6.980986833572388,0.38,-0.59,0.71,0.99
6.982165098190308,0.88,0.03,-0.26,0.91
6.983174085617065,0.85,0.15,-0.65,1.08
7.002068996429443,0.42,0.19,-0.2,0.5
7.003067970275879,-0.12,0.19,0.27,0.35
7.018133878707886,-0.34,0.18,0.4,0.55
7.02203106880188,-0.14,0.17,0.45,0.5
7.034886121749878,0.02,-0.01,0.12,0.12
7.041949033737183,-0.02,-0.1,-0.36,0.37
7.05159592628479,-0.25,0.04,-0.57,0.62
7.087579011917114,-0.38,0.22,-0.48,0.65
7.088846921920776,-0.19,0.22,-0.29,0.41
7.0897910594940186,-0.03,0.06,-0.24,0.24
7.102067947387695,-0.03,0.04,-0.07,0.08
7.103346109390259,-0.17,0.1,-0.01,0.19
7.118319988250732,-0.24,0.13,-0.09,0.28
7.121250867843628,-0.22,0.2,-0.02,0.29
7.135085821151733,-0.28,0.29,0.0,0.4
7.141291856765747,-0.43,0.36,-0.19,0.59
7.150953054428101,-0.59,0.46,-0.38,0.83
7.186478853225708,-0.92,0.55,-0.42,1.15
7.187901020050049,-1.2,0.59,-0.6,1.46
7.188868999481201,-1.29,0.53,-0.92,1.67
7.203126907348633,-1.28,0.56,-1.14,1.8
7.204554796218872,-1.45,0.64,-1.41,2.12
7.218231916427612,-1.83,0.83,-1.7,2.63
7.220353841781616,-2.25,1.01,-1.7,2.99
7.233626127243042,-2.35,1.12,-1.67,3.09
7.240380048751831,-1.93,1.16,-1.56,2.73
7.250169038772583,-1.52,1.18,-1.38,2.36
7.290143013000488,-1.25,1.33,-1.36,2.27
7.291547060012817,-0.97,1.48,-1.53,2.33
7.292587995529175,-0.8,1.67,-1.81,2.58
7.302747964859009,-1.14,2.17,-1.32,2.78
7.304255962371826,-1.89,2.91,-0.99,3.6
7.318405866622925,-2.52,3.83,-0.84,4.66
7.319921970367432,-3.19,4.47,-0.89,5.56
7.335009813308716,-3.69,4.64,-0.83,5.98
7.339462041854858,-4.02,4.72,-0.99,6.27
7.350362062454224,-4.17,4.85,-1.3,6.52
7.38695502281189,-4.71,5.49,-1.72,7.43
7.3882739543914795,-6.05,7.05,-2.14,9.53
7.389286994934082,-7.61,9.25,-2.45,12.22
7.399184942245483,-9.04,10.59,-4.31,14.57
7.40024209022522,-10.29,11.1,-6.03,16.29
7.415633916854858,-10.9,11.72,-7.18,17.54
7.419121026992798,-10.64,11.39,-9.58,18.29
7.435384035110474,-9.91,10.2,-11.26,18.13
7.438828945159912,-9.02,10.42,-9.57,16.77
7.450640916824341,-6.01,13.67,-4.0,15.45
7.458536863327026,-1.53,15.37,-1.72,15.54
7.491875886917114,1.45,11.08,-4.19,11.93
7.4930579662323,0.9,3.77,-5.85,7.01
7.4942779541015625,-1.59,-0.96,-5.77,6.06
7.499938011169434,-2.42,-2.95,-4.86,6.17
7.508044004440308,1.99,1.44,2.21,3.3
7.518266916275024,3.53,-1.75,4.86,6.25
7.528239011764526,-1.15,-5.94,-1.5,6.23
7.5380871295928955,-4.52,-5.71,-2.57,7.72
7.54820990562439,-6.38,-3.5,-1.54,7.43
7.557936906814575,-8.02,-2.34,-1.6,8.5
7.59013295173645,-8.42,-2.23,-1.2,8.79
7.591444969177246,-6.59,-3.43,-0.76,7.46
7.592478036880493,-4.46,-4.91,0.52,6.65
7.60111403465271,-3.85,-6.27,1.25,7.46
7.607187032699585,-4.48,-6.82,1.04,8.22
7.617535829544067,-5.35,-6.7,0.74,8.6
7.62756085395813,-5.86,-6.48,0.24,8.74
7.637331962585449,-5.77,-6.28,-0.18,8.53
7.647395849227905,-5.61,-6.19,-0.71,8.38
7.657063007354736,-5.7,-5.98,-1.09,8.33
7.688020944595337,-5.67,-6.06,-1.66,8.46
7.6893041133880615,-5.53,-6.02,-1.94,8.4
7.6903159618377686,-5.29,-5.97,-1.95,8.21
7.701894044876099,-4.75,-6.31,-1.76,8.09
7.706444025039673,-4.11,-6.77,-1.56,8.07
7.718213796615601,-3.6,-7.14,-1.44,8.12
7.726783990859985,-3.32,-7.52,-1.51,8.35
7.736648797988892,-3.31,-7.93,-1.57,8.73
7.746490955352783,-3.42,-8.13,-1.53,8.95
7.7563087940216064,-3.48,-8.04,-1.17,8.83
7.787399053573608,-3.45,-7.59,-0.51,8.35
7.7887489795684814,-3.16,-6.8,0.03,7.49
7.789783954620361,-2.31,-5.79,0.63,6.26
7.802719831466675,-0.8,-4.57,0.6,4.67
7.805619955062866,1.14,-2.8,0.34,3.04
7.818857908248901,3.59,-0.37,1.04,3.75
7.826061964035034,6.52,2.32,1.95,7.18
7.8357579708099365,9.11,4.94,2.4,10.63
7.845605134963989,10.77,7.72,2.65,13.51
7.855829954147339,12.37,11.25,3.41,17.06
7.892925024032593,14.01,14.52,3.5,20.47
7.894307851791382,15.47,16.72,2.32,22.89
7.895336866378784,17.48,17.69,1.69,24.92
7.898127794265747,19.65,16.24,1.71,25.54
7.916203022003174,21.34,13.88,3.69,25.72
7.917271852493286,19.81,14.03,5.61,24.91
7.934046983718872,13.76,11.13,4.56,18.27
7.93556809425354,3.49,-2.54,-3.38,5.48
7.950882911682129,-8.88,-5.42,-12.91,16.58
7.954770803451538,-24.53,6.86,-11.86,28.09
7.991724014282227,-25.14,37.28,13.43,46.92
7.992933034896851,-13.25,25.91,8.49,30.31
7.994028806686401,-2.26,-2.04,0.43,3.07
8.001489877700806,5.26,-7.02,4.28,9.76
8.004122972488403,10.98,-4.99,4.74,12.95
8.018790006637573,12.49,-5.92,1.87,13.94
8.024504899978638,11.91,-5.39,-0.91,13.1
8.035705804824829,8.58,-1.77,-1.06,8.82
8.044152021408081,3.83,0.77,-1.9,4.34
8.054229974746704,1.08,1.87,-2.77,3.51
8.089671850204468,0.26,2.27,-1.71,2.85
8.091031789779663,0.37,1.18,0.5,1.33
8.09204888343811,0.6,-0.47,2.76,2.86
8.102334022521973,0.25,-1.55,3.41,3.75
8.10342288017273,-0.39,-1.66,2.41,2.95
8.118932008743286,-0.5,-0.79,1.15,1.48
8.123732805252075,0.05,0.1,-0.19,0.22
8.135232925415039,0.78,0.41,-0.96,1.3
8.143589973449707,0.98,0.28,-0.61,1.18
8.153496026992798,0.65,-0.07,-0.08,0.65
8.189548015594482,0.42,-0.28,-0.09,0.51
8.190854787826538,0.53,-0.26,-0.49,0.76
8.191962957382202,0.61,-0.1,-0.71,0.94
8.20238995552063,0.43,0.08,-0.65,0.78
8.20346713066101,-0.07,0.11,-0.25,0.28
8.218941926956177,-0.45,0.15,0.43,0.64
8.222709894180298,-0.64,0.13,0.94,1.14
8.235844850540161,-0.63,0.02,0.77,0.99
8.242712020874023,-0.42,0.0,0.21,0.46
8.252690076828003,-0.21,0.14,-0.31,0.39
8.262534856796265,-0.12,0.22,-0.93,0.96
8.294198989868164,-0.11,0.33,-1.11,1.16
8.295377016067505,-0.35,0.47,-0.74,0.94
8.296604871749878,-0.8,0.52,-0.3,1.0
8.301911115646362,-1.11,0.51,-0.06,1.22
8.311911821365356,-1.14,0.49,0.06,1.24
8.322094917297363,-1.16,0.4,-0.12,1.23
8.332329034805298,-1.32,0.39,-0.52,1.47
8.342164993286133,-1.34,0.49,-0.99,1.73
8.351922988891602,-1.22,0.57,-1.49,2.0
8.361822843551636,-1.09,0.76,-1.62,2.09
8.393361806869507,-1.07,0.85,-1.72,2.19
8.394575834274292,-1.28,0.98,-1.68,2.32
8.3958740234375,-1.76,1.05,-1.51,2.54
8.401253938674927,-2.15,1.0,-1.47,2.78
8.419082880020142,-2.24,1.02,-1.08,2.68
8.421210050582886,-2.0,1.15,-0.86,2.46
8.43561601638794,-1.33,1.32,-1.32,2.29
8.441123962402344,-0.71,1.59,-1.51,2.3
8.451220989227295,-0.81,2.2,-1.04,2.56
8.46113896369934,-1.88,3.2,-0.78,3.79
8.492602109909058,-2.97,4.12,-0.79,5.13
8.493814945220947,-3.95,4.46,-0.93,6.02
8.494882822036743,-4.51,4.81,-0.88,6.65
8.500463962554932,-4.77,5.28,-1.2,7.21
8.519284009933472,-5.13,6.33,-1.62,8.3
8.520737886428833,-6.12,8.01,-2.55,10.39
8.535735845565796,-7.91,9.91,-3.6,13.18
8.540480852127075,-9.92,11.58,-4.91,16.01
8.551322937011719,-11.37,12.76,-5.73,18.02
8.560998916625977,-12.14,13.02,-7.39,19.27
8.591495990753174,-12.17,11.56,-9.64,19.35
8.592674016952515,-11.89,9.72,-10.37,18.53
8.59392499923706,-11.07,10.84,-7.25,17.1
8.600084066390991,-7.05,13.99,-2.97,15.94
8.61042594909668,-1.12,14.07,-3.68,14.58
8.619901895523071,1.96,8.99,-4.74,10.35
8.629863023757935,0.93,1.98,-4.45,4.95
8.639699935913086,-2.03,-2.88,-5.7,6.7
8.649904012680054,-1.93,-4.14,-6.41,7.87
8.659671068191528,3.62,1.14,0.48,3.82
8.696269989013672,5.0,-1.54,2.77,5.91
8.697538137435913,-0.65,-4.78,-3.42,5.91
8.698431968688965,-5.03,-5.06,-4.15,8.25
8.71953797340393,-7.13,-3.34,-2.66,8.31
8.720592975616455,-8.51,-2.26,-2.64,9.19
8.73590898513794,-8.49,-2.19,-1.89,8.96
8.737344026565552,-6.45,-3.41,-1.05,7.37
8.752268075942993,-4.22,-5.18,-0.05,6.68
8.753753900527954,-3.46,-6.54,0.88,7.45
8.768021821975708,-3.82,-7.4,0.93,8.37
8.797827005386353,-3.99,-7.58,0.55,8.58
8.799158811569214,-3.67,-7.4,0.21,8.26
8.80014681816101,-2.99,-7.24,-0.48,7.84
8.818949937820435,-2.79,-6.99,-1.66,7.7
8.819946050643921,-2.89,-6.57,-2.84,7.71
8.835570096969604,-2.88,-6.27,-3.41,7.69
8.837054967880249,-3.08,-6.2,-3.51,7.76
8.85218095779419,-3.14,-6.85,-3.35,8.24
8.853649854660034,-3.47,-6.89,-3.06,8.29
8.868464946746826,-4.11,-6.4,-2.7,8.07
8.897075891494751,-3.87,-7.08,-1.83,8.27
8.898553133010864,-3.24,-8.15,-1.63,8.92
8.899585008621216,-2.78,-8.9,-1.86,9.5
8.918967962265015,-2.34,-9.26,-2.33,9.83
8.920018911361694,-1.78,-9.31,-2.68,9.85
8.936114072799683,-0.97,-9.25,-2.85,9.72
8.937577962875366,0.15,-8.73,-2.61,9.11
8.95237398147583,1.52,-7.78,-2.08,8.19
8.953841924667358,3.03,-6.63,-2.31,7.64
8.968037843704224,4.7,-4.92,-2.79,7.35
8.997308015823364,6.55,-2.91,-2.21,7.5
8.998632907867432,8.42,-0.47,-0.42,8.44
8.999626874923706,9.78,2.15,1.52,10.12
9.01921796798706,10.32,4.81,3.0,11.77
9.020267009735107,10.52,8.07,4.43,13.97
9.035830974578857,11.28,12.34,6.42,17.9
9.037364959716797,12.48,16.62,8.57,22.48
9.050899982452393,13.48,19.15,9.9,25.42
9.052452802658081,13.72,18.07,9.12,24.45
9.067505121231079,10.79,17.52,7.78,21.99
9.068948030471802,7.36,17.61,5.85,19.96
9.114614009857178,4.16,6.55,-7.76,10.97
9.115785837173462,-9.3,15.42,-12.48,21.9
9.116796970367432,-17.83,45.42,-1.08,48.8
9.13662600517273,-15.02,15.41,4.43,21.97
9.138123989105225,-2.05,-2.2,7.99,8.53
9.152650117874146,7.16,-5.77,9.01,12.87
9.154154062271118,9.32,-9.92,5.47,14.66
9.169317960739136,10.08,-9.56,2.83,14.17
9.170825958251953,8.47,-5.91,1.32,10.41
9.184676885604858,5.04,-0.96,-0.25,5.13
9.217047929763794,2.62,1.43,-2.29,3.76
9.218397855758667,0.91,2.39,-4.8,5.43
9.219417810440063,0.56,2.11,-3.99,4.54
9.236186981201172,1.11,0.89,0.09,1.42
9.237258911132812,0.83,-0.56,3.15,3.3
9.252890825271606,0.01,-1.39,3.74,3.98
9.25436282157898,-0.4,-1.32,2.18,2.57
9.269416093826294,0.24,-0.41,0.39,0.61
9.270895004272461,0.68,0.46,-0.59,1.01
9.284558057785034,0.38,0.81,-0.27,0.93
9.31371283531189,-0.06,0.32,0.39,0.5
9.315146923065186,0.1,-0.73,0.45,0.86
9.316128015518188,0.78,-1.24,-0.69,1.61
9.33593487739563,1.42,-0.8,-1.32,2.09
9.337013006210327,1.14,-0.1,-0.68,1.33
9.353677034378052,0.04,0.5,0.47,0.68
9.355149984359741,-0.82,0.56,1.23,1.58
9.369890928268433,-0.9,0.31,1.15,1.49
9.371349096298218,-0.5,0.1,0.77,0.92
9.384654998779297,-0.14,0.08,0.08,0.18
9.413303136825562,0.01,0.15,-0.62,0.63
9.414631128311157,-0.11,0.36,-0.82,0.9
9.415596008300781,-0.32,0.46,-0.97,1.12
9.436335802078247,-0.56,0.41,-1.08,1.28
9.437374830245972,-0.68,0.49,-0.67,1.07
9.452775955200195,-0.83,0.58,-0.03,1.01
9.454235792160034,-1.15,0.59,0.21,1.3
9.469604015350342,-1.59,0.63,-0.01,1.71
9.471024990081787,-1.85,0.65,-0.69,2.07
9.484838008880615,-1.92,0.72,-1.23,2.39
9.514110803604126,-1.96,0.99,-1.65,2.74
9.51549506187439,-1.88,1.17,-2.23,3.14
9.516506910324097,-1.61,1.32,-2.39,3.16
9.536232948303223,-1.18,1.49,-2.3,2.98
9.537282943725586,-1.06,1.67,-1.92,2.75
9.552788019180298,-0.91,2.06,-1.22,2.56
9.554260969161987,-1.23,2.27,-0.91,2.73
9.569630861282349,-2.17,2.88,-0.56,3.64
9.571115970611572,-3.14,3.73,-0.38,4.89
9.58489203453064,-4.06,3.89,-0.37,5.63
9.612921953201294,-4.5,4.18,-0.14,6.14
9.614314794540405,-4.66,4.23,-1.09,6.38
9.615310907363892,-4.59,4.44,-2.04,6.7
9.636500120162964,-4.73,5.02,-2.83,7.45
9.637585878372192,-5.45,5.98,-3.6,8.85
9.652681112289429,-6.75,7.23,-4.43,10.83
9.654160976409912,-8.46,8.97,-4.62,13.16
9.667377948760986,-10.13,10.78,-4.84,15.56
9.668998003005981,-11.24,11.68,-6.13,17.33
9.685061931610107,-11.33,11.32,-7.74,17.78
9.712009906768799,-10.78,9.98,-9.44,17.46
9.713402032852173,-10.15,9.86,-9.65,17.12
9.71441388130188,-8.23,13.94,-4.87,16.9
9.71663784980774,-4.55,15.76,-2.29,16.56
9.718050956726074,-0.72,11.83,-5.98,13.27
9.721364974975586,-0.16,4.72,-6.99,8.43
9.731344938278198,-2.48,-0.1,-6.34,6.8
9.741322994232178,-5.0,-4.11,-6.7,9.31
9.751222848892212,-3.66,-4.97,-6.73,9.13
9.761214017868042,2.86,0.69,-0.34,2.96
9.796997785568237,6.67,-1.28,3.34,7.56
9.798330068588257,2.86,-5.42,-1.14,6.23
9.799320936203003,-2.8,-6.36,-2.46,7.37
9.819898843765259,-6.33,-6.24,-1.53,9.01
9.820927858352661,-9.53,-5.83,-1.93,11.33
9.835734128952026,-12.55,-4.34,-1.84,13.4
9.836765050888062,-14.15,-2.73,-0.81,14.43
9.853060960769653,-12.21,-2.64,0.51,12.5
9.854509115219116,-7.43,-3.83,1.8,8.55
9.868956804275513,-3.61,-5.04,1.96,6.5
9.870407819747925,-2.34,-5.76,1.07,6.3
9.91270899772644,-2.65,-5.47,-0.18,6.08
9.913870096206665,-3.06,-4.96,-1.37,5.98
9.914827108383179,-2.83,-5.12,-2.34,6.3
9.917176961898804,-2.45,-5.41,-3.26,6.77
9.919848918914795,-2.37,-5.61,-4.08,7.33
9.929656982421875,-2.53,-5.96,-4.55,7.91
9.939806938171387,-2.6,-6.45,-4.43,8.24
9.949862003326416,-2.22,-6.98,-3.78,8.24
9.959909915924072,-1.66,-7.62,-2.9,8.32
9.969871997833252,-1.3,-8.4,-2.4,8.83
10.000480890274048,-1.07,-8.92,-1.98,9.19
10.001622915267944,-0.99,-8.77,-1.23,8.91
10.002556085586548,-0.98,-8.36,-0.22,8.42
10.020189046859741,-0.47,-7.82,0.61,7.85
10.021246910095215,0.63,-6.68,1.31,6.83
10.035839796066284,2.25,-4.81,2.17,5.73
10.038806915283203,4.43,-2.24,3.38,6.0
10.053092956542969,6.68,0.67,4.61,8.14
10.059017896652222,8.5,4.03,5.89,11.09
10.068857908248901,10.07,8.23,7.14,14.83
10.100384950637817,11.57,12.66,7.7,18.79
10.10171389579773,13.33,16.9,8.44,23.11
10.102804899215698,15.23,19.28,8.2,25.9
10.118672132492065,17.24,17.73,7.61,25.87
10.11977505683899,18.33,15.13,8.53,25.25
10.1331307888031,17.26,12.94,8.54,23.2
10.138092994689941,15.67,14.67,4.87,22.01
10.14987587928772,13.39,6.81,-2.41,15.21
10.158275842666626,1.48,-6.75,-14.3,15.88
10.168495893478394,-12.69,-2.49,-25.54,28.62
10.200248956680298,-21.66,36.61,-2.51,42.61
10.201581001281738,-18.6,38.07,14.04,44.63
10.202646970748901,-7.29,5.01,4.33,9.84
10.220103025436401,2.91,-4.29,6.17,8.05
10.221139907836914,7.55,-7.69,5.95,12.31
10.23615288734436,9.15,-10.23,1.45,13.8
10.237268924713135,10.31,-8.44,0.47,13.33
10.252998113632202,9.39,-4.68,1.31,10.57
10.257529973983765,5.58,-1.58,0.43,5.81
10.268554925918579,1.97,0.86,-0.38,2.18
10.305137872695923,-0.01,3.02,-1.27,3.27
10.306478023529053,-0.53,3.19,-1.71,3.65
10.307510137557983,0.03,1.63,-0.34,1.66
10.31997799873352,0.71,-0.12,1.77,1.91
10.321029901504517,0.76,-1.45,2.44,2.93
10.337239027023315,0.3,-1.76,1.58,2.38
10.338284969329834,0.19,-0.84,0.69,1.1
10.353217840194702,0.5,0.17,-0.03,0.52
10.356544017791748,0.62,0.43,-0.41,0.85
10.368649005889893,0.56,0.17,-0.29,0.65
10.403128862380981,0.7,-0.22,-0.01,0.73
10.404431104660034,0.98,-0.61,0.02,1.15
10.405553102493286,1.14,-0.76,-0.27,1.39
10.420208930969238,0.89,-0.56,-0.44,1.13
10.42128300666809,0.25,-0.09,-0.27,0.37
10.436365842819214,-0.41,0.36,0.4,0.67
10.437405824661255,-0.87,0.58,0.86,1.35
10.453048944473267,-0.85,0.41,0.41,1.02
10.45571780204773,-0.34,0.19,-0.17,0.42
10.466832876205444,0.24,0.07,-0.67,0.71
10.502876996994019,0.36,0.03,-1.07,1.12
10.504660844802856,-0.08,0.26,-0.92,0.95
10.505637884140015,-0.59,0.47,-0.63,0.98
10.520577907562256,-0.78,0.47,-0.29,0.95
10.521551847457886,-0.72,0.36,-0.03,0.8
10.535576105117798,-0.74,0.24,0.13,0.78
10.536641836166382,-0.88,0.25,0.03,0.91
10.553255796432495,-1.01,0.28,-0.45,1.14
10.555236101150513,-1.04,0.48,-0.68,1.33
10.568816900253296,-1.13,0.66,-0.91,1.59
10.603349924087524,-1.2,0.8,-1.14,1.83
10.60477089881897,-1.23,0.92,-1.25,1.98
10.605769872665405,-1.33,0.99,-1.44,2.19
10.620265007019043,-1.44,1.04,-1.69,2.45
10.621335983276367,-1.61,1.21,-1.49,2.5
10.636127948760986,-1.9,1.42,-1.24,2.67
10.637143850326538,-2.07,1.64,-1.06,2.84
10.653372049331665,-2.06,1.87,-0.98,2.94
10.65474796295166,-2.3,2.18,-0.98,3.31
10.668709993362427,-2.5,2.71,-1.0,3.82
10.67449688911438,-2.94,3.55,-1.63,4.88
10.713778972625732,-2.98,4.32,-1.94,5.59
10.714893102645874,-3.3,4.95,-1.94,6.25
10.715811014175415,-3.96,5.45,-2.19,7.08
10.737031936645508,-4.91,6.03,-2.55,8.18
10.738115072250366,-5.98,7.22,-2.53,9.71
10.753229856491089,-7.08,9.01,-2.98,11.84
10.754678964614868,-8.37,10.35,-5.03,14.22
10.767866849899292,-10.22,11.21,-7.09,16.74
10.769382953643799,-11.57,12.1,-7.53,18.35
10.783183813095093,-11.92,11.85,-8.74,18.94
10.813748121261597,-11.16,9.77,-10.16,17.97
10.815057039260864,-10.36,8.19,-10.53,16.89
10.816068887710571,-8.99,11.47,-6.42,15.92
10.837037801742554,-6.01,15.96,-2.42,17.22
10.838130950927734,-1.48,15.69,-4.75,16.45
10.85311484336853,0.67,8.55,-8.3,11.93
10.854131937026978,-0.8,1.27,-8.45,8.58
10.87027096748352,-3.56,-2.84,-8.03,9.23
10.871757984161377,-2.03,-1.57,-6.07,6.59
10.8854079246521,3.67,3.64,2.64,5.8
10.915053129196167,2.79,-0.94,2.02,3.57
10.91643214225769,-2.61,-4.31,-2.47,5.61
10.917431116104126,-6.28,-4.95,-2.19,8.29
10.936913013458252,-8.73,-3.53,-0.86,9.45
10.937883138656616,-10.21,-2.91,-0.54,10.63
10.95313286781311,-10.27,-3.29,-0.14,10.78
10.954163789749146,-8.09,-4.5,1.14,9.32
10.970476865768433,-5.31,-6.83,1.8,8.83
10.971889972686768,-3.85,-8.69,1.0,9.55
10.985530138015747,-3.69,-8.96,0.04,9.69
11.014661073684692,-4.05,-7.77,-0.7,8.79
11.016496896743774,-3.77,-7.26,-1.96,8.41
11.017505884170532,-3.24,-6.6,-2.48,7.75
11.036712884902954,-2.58,-6.43,-3.57,7.79
11.037780046463013,-1.97,-6.52,-4.45,8.13
11.053098917007446,-2.08,-6.69,-4.51,8.33
11.054141998291016,-2.42,-7.16,-3.8,8.45
11.070409059524536,-2.82,-7.39,-2.89,8.42
11.071859121322632,-3.09,-7.9,-1.64,8.63
11.085570096969604,-3.17,-9.01,-0.82,9.58
11.113479852676392,-3.38,-9.9,-0.45,10.47
11.114961862564087,-3.62,-10.36,-0.01,10.97
11.115955114364624,-3.41,-10.38,0.91,10.96
11.137120008468628,-2.59,-9.89,2.15,10.44
11.138153791427612,-1.39,-9.37,2.8,9.87
11.15315294265747,-0.21,-8.24,2.49,8.61
11.154191017150879,1.28,-6.1,2.29,6.64
11.170307874679565,3.68,-3.55,3.27,6.06
11.171759843826294,6.71,-0.83,4.7,8.23
11.185617923736572,9.71,1.96,5.77,11.46
11.21370005607605,12.12,5.05,7.1,14.92
11.214843988418579,14.18,8.42,8.26,18.44
11.215632915496826,15.58,11.42,8.39,21.06
11.233778953552246,16.13,12.95,7.06,21.85
11.234826803207397,16.48,14.34,5.79,22.59
11.251396894454956,17.12,15.62,4.05,23.52
11.252433061599731,16.53,17.77,0.24,24.27
11.27025580406189,14.94,18.52,-5.99,24.53
11.271699905395508,6.43,4.42,-18.14,19.74
11.285709142684937,-9.23,9.87,-24.18,27.69
11.313626050949097,-15.66,44.61,-4.22,47.46
11.31520700454712,-14.87,22.14,3.16,26.85
11.316191911697388,-6.94,-4.27,2.86,8.63
11.337644815444946,0.2,-9.6,6.8,11.76
11.338676929473877,4.78,-12.01,7.58,14.98
11.352842092514038,12.19,-5.87,9.42,16.48
11.353886842727661,14.35,-4.3,8.32,17.13
11.370424032211304,10.1,-3.82,0.62,10.81
11.371917009353638,3.6,0.57,0.3,3.65
11.385824918746948,-0.99,3.21,-0.15,3.36
11.414127111434937,-2.95,3.78,-2.39,5.35
11.415432929992676,-1.44,2.88,-1.89,3.73
11.416419982910156,1.56,0.64,0.15,1.69
11.437294006347656,2.94,-1.2,1.36,3.45
11.438340902328491,2.17,-2.42,0.65,3.31
11.453088998794556,0.85,-1.6,0.27,1.83
11.45412302017212,0.73,-0.09,-0.05,0.73
11.470431089401245,1.11,0.25,-0.52,1.25
11.471871137619019,0.91,0.16,-0.36,0.99
11.485767126083374,0.46,0.22,0.04,0.51
11.487221956253052,0.34,0.22,0.3,0.5
11.533051013946533,0.36,0.21,0.55,0.69
11.534214973449707,0.41,0.03,0.46,0.61
11.53516697883606,0.47,-0.25,0.23,0.57
11.554167985916138,0.51,-0.45,-0.25,0.72
11.555155992507935,0.48,-0.34,-0.26,0.64
11.570437908172607,0.41,-0.18,0.24,0.5
11.571839094161987,0.36,-0.24,0.38,0.57
11.586962938308716,0.18,-0.22,0.25,0.37
11.588347911834717,0.07,-0.01,0.01,0.07
11.602999925613403,0.1,0.16,-0.11,0.21
11.63453197479248,0.09,0.23,0.03,0.24
11.635918855667114,-0.28,0.34,-0.02,0.44
11.636905908584595,-0.55,0.21,-0.37,0.69
11.654157876968384,-0.92,0.39,-0.29,1.04
11.65521502494812,-1.25,0.56,-0.32,1.4
11.669923067092896,-1.35,0.53,-0.17,1.46
11.670897960662842,-1.35,0.56,0.05,1.46
11.686743021011353,-1.29,0.49,-0.33,1.41
11.688131093978882,-1.19,0.55,-0.86,1.56
11.702646970748901,-1.12,0.77,-1.13,1.76
11.732707977294922,-1.23,1.01,-1.19,1.98
11.734049081802368,-1.5,1.15,-1.25,2.26
11.735000848770142,-1.71,1.15,-1.37,2.47
11.754378080368042,-1.77,1.12,-1.21,2.41
11.755369901657104,-1.7,1.09,-0.85,2.19
11.769980907440186,-1.71,1.13,-0.49,2.1
11.770960092544556,-1.79,1.27,-0.49,2.24
11.787125825881958,-1.91,1.68,-0.7,2.63
11.788558959960938,-1.78,2.14,-1.04,2.97
11.80273985862732,-1.78,2.68,-1.13,3.4
11.832168817520142,-2.21,3.27,-1.58,4.25
11.833578824996948,-2.35,3.7,-1.64,4.67
11.83461880683899,-2.43,3.84,-1.53,4.79
11.854039907455444,-2.79,3.92,-1.54,5.05
11.855077981948853,-3.52,4.45,-1.53,5.87
11.870263814926147,-4.47,5.39,-1.65,7.19
11.87129282951355,-5.53,6.54,-1.84,8.76
11.886995077133179,-6.96,7.7,-2.44,10.66
11.888491868972778,-8.75,9.18,-3.27,13.09
11.900931119918823,-10.41,10.49,-4.54,15.46
11.928761959075928,-11.76,11.01,-5.25,16.94
11.930131912231445,-12.81,11.21,-5.7,17.95
11.931185960769653,-13.64,10.79,-6.6,18.6
11.93353009223938,-13.7,11.44,-5.49,18.67
11.93475604057312,-10.29,14.08,-2.96,17.68
11.935949087142944,-3.96,14.39,-3.87,15.41
11.944314002990723,1.63,13.51,-4.28,14.26
11.954768896102905,3.36,9.17,-2.72,10.13
11.96440601348877,1.35,2.74,-4.48,5.42
11.974549055099487,-2.57,-2.32,-6.98,7.79
12.007077932357788,-1.29,-0.78,-6.69,6.85
12.008285999298096,3.73,2.3,-0.17,4.38
12.009110927581787,0.82,-2.08,-3.55,4.19
12.019470930099487,-4.77,-3.15,-6.85,8.92
12.023590803146362,-7.84,-3.29,-4.76,9.74
12.036443948745728,-10.08,-2.55,-3.61,11.0
12.043641805648804,-11.5,-2.47,-3.35,12.23
12.053611040115356,-10.83,-3.42,-1.87,11.51
12.063628911972046,-8.5,-5.1,0.09,9.91
12.073322057723999,-6.6,-7.49,1.05,10.03
12.107976913452148,-5.88,-9.02,1.19,10.83
12.109285116195679,-6.07,-8.45,1.24,10.47
12.110298871994019,-6.82,-6.73,1.3,9.66
12.12012791633606,-6.91,-6.16,0.02,9.25
12.123112916946411,-5.69,-6.16,-1.21,8.47
12.135601997375488,-4.73,-6.16,-1.83,7.97
12.14296293258667,-4.3,-6.34,-2.31,8.0
12.152756929397583,-4.11,-6.42,-2.65,8.07
12.163206815719604,-3.85,-6.71,-2.92,8.26
12.172858953475952,-3.42,-6.97,-2.95,8.3
12.210889101028442,-2.77,-7.16,-2.61,8.1
12.212229013442993,-1.96,-7.46,-1.97,7.96
12.213258028030396,-1.24,-7.68,-1.23,7.87
12.216779947280884,-0.76,-7.61,-0.57,7.66
12.22255802154541,-0.24,-6.96,-0.2,6.96
12.23693299293518,0.56,-5.91,-0.04,5.93
12.242185831069946,2.0,-4.46,0.23,4.89
12.253600835800171,4.0,-2.48,1.01,4.81
12.262338876724243,5.91,-0.22,1.98,6.23
12.272094011306763,7.64,2.11,2.48,8.3
12.282402992248535,9.24,4.53,2.74,10.64
12.314892053604126,10.66,7.43,3.13,13.36
12.316072940826416,12.54,11.11,4.12,17.25
12.317065954208374,14.6,15.16,4.59,21.54
12.337356805801392,16.8,17.74,4.03,24.76
12.338450908660889,19.03,15.95,2.8,24.98
12.350969076156616,20.16,12.78,2.86,24.04
12.352020025253296,19.5,10.74,4.28,22.66
12.367775917053223,16.23,11.66,4.81,20.55
12.371278047561646,11.23,13.88,5.14,18.57
12.386420011520386,3.97,0.87,-2.44,4.74
12.413877010345459,-7.15,-5.04,-12.19,15.0
12.415077924728394,-19.88,8.79,-13.19,25.42
12.415954828262329,-22.25,37.43,5.36,43.87
12.420758962631226,-12.71,19.88,6.08,24.36
12.430866003036499,-2.12,-2.65,2.38,4.14
12.441037893295288,8.18,-2.07,7.18,11.07
12.451098918914795,13.56,-3.59,8.18,16.23
12.460893869400024,13.79,-6.42,2.69,15.44
12.470915079116821,11.71,-5.11,-0.66,12.79
12.480725049972534,7.39,-2.53,-0.53,7.82
12.511833906173706,2.98,-1.26,-1.33,3.49
12.512840986251831,0.28,0.42,-2.29,2.34
12.5138099193573,-0.7,2.39,-1.61,2.96
12.520128011703491,-0.53,2.33,0.54,2.44
12.537340879440308,0.47,0.15,1.84,1.9
12.54001498222351,1.23,-1.48,1.72,2.58
12.553788900375366,1.23,-1.51,1.34,2.36
12.559814929962158,0.83,-0.79,0.35,1.19
12.569921970367432,0.49,-0.04,-0.08,0.49
12.580089807510376,0.41,0.29,0.0,0.5
12.612401008605957,0.43,0.15,0.43,0.62
12.613554000854492,0.45,-0.15,0.5,0.68
12.614790916442871,0.59,-0.32,0.15,0.68
12.619669914245605,0.68,-0.21,-0.18,0.73
12.637237787246704,0.64,0.01,-0.41,0.76
12.63923692703247,0.4,0.12,-0.6,0.73
12.653764009475708,-0.01,0.17,-0.45,0.48
12.659240007400513,-0.46,0.15,-0.21,0.52
12.6697518825531,-0.74,0.19,-0.03,0.76
12.679399967193604,-0.63,0.23,-0.11,0.67
12.717132806777954,-0.19,0.21,-0.46,0.54
12.718329906463623,0.12,0.17,-0.61,0.64
12.719295978546143,-0.01,0.17,-0.55,0.57
12.737821817398071,-0.37,0.25,-0.31,0.54
12.738858938217163,-0.69,0.32,-0.11,0.76
12.7536780834198,-0.83,0.39,-0.14,0.92
12.754707098007202,-0.82,0.47,-0.12,0.95
12.767853021621704,-0.81,0.54,-0.05,0.97
12.768839120864868,-0.75,0.51,0.05,0.9
12.783505916595459,-0.66,0.44,0.09,0.79
12.816069841384888,-0.59,0.28,-0.11,0.66
12.817420959472656,-0.57,0.24,-0.29,0.68
12.81841778755188,-0.76,0.39,-0.37,0.93
12.837932825088501,-0.98,0.63,-0.66,1.33
12.838992834091187,-1.17,0.92,-1.08,1.83
12.854016065597534,-1.4,1.25,-1.11,2.18
12.855470895767212,-1.67,1.45,-1.11,2.47
12.870875120162964,-2.13,1.68,-0.81,2.83
12.872300863265991,-2.37,1.92,-0.75,3.14
12.886566877365112,-2.35,2.01,-1.44,3.41
12.917468786239624,-1.92,2.56,-1.63,3.59
12.91881012916565,-1.65,2.93,-1.84,3.83
12.919835805892944,-1.66,3.2,-1.89,4.07
12.937888860702515,-2.01,3.35,-1.9,4.34
12.93895697593689,-2.6,3.6,-1.75,4.77
12.954399824142456,-3.29,3.95,-1.83,5.45
12.955454111099243,-4.02,4.6,-2.01,6.43
12.97116208076477,-4.76,5.42,-2.67,7.69
12.97265887260437,-5.46,6.42,-3.44,9.1
12.986486911773682,-6.14,7.6,-4.14,10.61
13.015475988388062,-7.33,8.92,-4.9,12.54
13.016808986663818,-9.0,10.28,-6.02,14.93
13.017810106277466,-10.15,11.09,-7.09,16.62
13.03806185722351,-10.38,10.45,-8.28,16.89
13.039081811904907,-10.18,8.78,-9.5,16.46
13.054316997528076,-9.74,9.03,-9.2,16.15
13.055401086807251,-7.81,13.52,-5.56,16.57
13.070403814315796,-3.85,16.02,-3.55,16.85
13.071901082992554,0.55,13.71,-5.37,14.73
13.086183786392212,1.09,8.04,-6.44,10.35
13.087662935256958,-1.83,3.24,-6.69,7.65
13.131947994232178,-4.58,-0.95,-5.81,7.45
13.133128881454468,-1.58,1.7,-2.68,3.54
13.134146928787231,4.27,4.73,3.85,7.44
13.154966115951538,2.25,-1.51,0.17,2.71
13.15603494644165,-2.64,-4.03,-3.58,6.0
13.171165943145752,-5.68,-2.97,-2.19,6.77
13.172692060470581,-7.79,-1.93,-1.86,8.23
13.187695980072021,-8.61,-1.52,-1.31,8.84
13.189120054244995,-7.28,-2.32,-0.36,7.64
13.20370888710022,-5.03,-4.28,0.48,6.62
13.234055995941162,-3.79,-6.35,1.22,7.49
13.235438108444214,-3.83,-7.97,1.49,8.96
13.236467123031616,-4.52,-8.64,1.09,9.81
13.25449013710022,-5.17,-8.4,0.6,9.88
13.255548000335693,-5.28,-7.53,0.06,9.19
13.270784139633179,-5.07,-7.03,-0.67,8.69
13.271801948547363,-4.96,-6.95,-1.17,8.61
13.288769960403442,-4.9,-7.19,-1.67,8.85
13.290311098098755,-5.32,-7.0,-1.45,8.91
13.303483963012695,-5.37,-7.28,-1.97,9.25
13.334963083267212,-4.86,-7.5,-2.02,9.16
13.336282014846802,-4.28,-7.82,-1.8,9.09
13.337301969528198,-3.9,-8.29,-1.35,9.26
13.354780912399292,-3.82,-8.67,-0.91,9.51
13.35582184791565,-3.88,-9.05,-0.53,9.86
13.371303796768188,-4.02,-9.24,-0.1,10.07
13.372791051864624,-4.14,-8.93,0.5,9.85
13.38764500617981,-3.98,-7.94,1.11,8.95
13.389114141464233,-3.14,-6.7,1.13,7.48
13.40340781211853,-1.63,-5.26,0.9,5.57
13.43339490890503,0.45,-3.44,1.68,3.85
13.434696912765503,3.14,-1.18,3.09,4.56
13.435696840286255,5.79,1.26,4.1,7.2
13.454559087753296,7.54,3.63,4.3,9.4
13.455596923828125,8.24,6.28,4.21,11.18
13.470830917358398,8.97,9.65,4.6,13.95
13.47191309928894,10.49,13.39,5.51,17.87
13.484709024429321,12.03,16.03,5.04,20.66
13.486248016357422,13.38,17.19,4.55,22.25
13.500591039657593,14.75,16.69,6.01,23.07
13.529155969619751,15.04,13.63,7.33,21.58
13.530556917190552,13.13,11.38,8.98,19.55
13.531567811965942,11.49,10.51,9.06,18.01
13.533798933029175,12.75,13.25,4.33,18.89
13.554162979125977,9.44,3.63,-4.42,11.03
13.555216073989868,-3.28,-7.26,-16.86,18.64
13.570960998535156,-16.31,-0.45,-27.86,32.28
13.572036981582642,-18.66,37.39,-1.65,41.82
13.58377480506897,-11.25,32.82,10.99,36.39
13.585211992263794,-2.49,1.19,1.67,3.22
13.630127906799316,3.36,-8.37,4.72,10.17
13.631283044815063,6.2,-9.6,6.78,13.28
13.632513999938965,9.31,-5.13,4.62,11.59
13.634485960006714,9.8,-4.55,3.74,11.43
13.635942935943604,7.51,-2.77,1.22,8.09
13.641580820083618,3.61,0.36,-0.13,3.63
13.65171194076538,1.0,1.88,-1.25,2.46
13.661925077438354,0.11,2.07,-3.02,3.66
13.671636819839478,0.72,1.22,-2.46,2.83
13.681288957595825,1.73,0.31,0.54,1.83
13.716951131820679,1.9,-0.57,2.63,3.29
13.718135118484497,1.27,-1.18,1.9,2.57
13.718945980072021,0.48,-0.89,0.56,1.15
13.73820185661316,0.56,-0.02,0.31,0.64
13.73927903175354,1.11,0.1,0.24,1.14
13.75403904914856,1.06,-0.35,0.82,1.38
13.755079984664917,0.49,-0.56,1.07,1.3
13.771116018295288,0.22,-0.26,0.56,0.65
13.772169828414917,0.44,0.15,-0.42,0.62
13.786781072616577,0.7,0.36,-0.96,1.24
13.818078994750977,0.61,0.39,-0.8,1.07
13.819434881210327,0.37,0.19,-0.44,0.6
13.82042384147644,0.03,-0.1,-0.08,0.13
13.838188886642456,-0.3,-0.21,0.16,0.39
13.839258909225464,-0.53,-0.1,0.17,0.56
13.854185819625854,-0.38,0.05,-0.17,0.41
13.855233907699585,0.13,0.1,-0.25,0.29
13.8715078830719,0.43,-0.05,-0.2,0.47
13.87296986579895,0.24,-0.19,-0.12,0.32
13.886675119400024,-0.19,-0.05,0.08,0.21
13.890083074569702,-0.46,0.26,-0.02,0.52
13.932379007339478,-0.5,0.53,-0.15,0.74
13.933564901351929,-0.47,0.64,-0.12,0.8
13.934557914733887,-0.42,0.54,-0.21,0.71
13.955886125564575,-0.41,0.38,-0.13,0.57
13.956893920898438,-0.45,0.27,-0.13,0.54
13.970557928085327,-0.64,0.28,-0.24,0.73
13.971596956253052,-0.89,0.39,-0.57,1.12
13.987982988357544,-0.94,0.52,-0.93,1.42
13.989453077316284,-0.73,0.7,-0.83,1.3
14.003583908081055,-0.64,0.8,-0.82,1.31
14.032583951950073,-0.86,0.94,-1.06,1.65
14.03397798538208,-1.24,1.21,-1.19,2.1
14.03498911857605,-1.75,1.5,-1.12,2.56
14.054886102676392,-2.14,1.69,-1.1,2.94
14.055936098098755,-2.43,1.7,-1.16,3.18
14.070473909378052,-2.52,1.71,-0.95,3.19
14.071507930755615,-2.47,1.93,-1.36,3.41
14.08828592300415,-2.11,2.54,-1.72,3.72
14.089740991592407,-2.04,2.85,-1.91,3.99
14.10381007194519,-2.21,3.13,-1.85,4.25
14.131736993789673,-2.69,3.25,-1.97,4.65
14.133057832717896,-3.15,3.41,-2.1,5.09
14.133856058120728,-3.51,3.73,-2.26,5.59
14.155048131942749,-3.94,4.26,-2.22,6.21
14.15611481666565,-4.7,4.96,-2.45,7.25
14.17031979560852,-5.63,5.88,-2.73,8.58
14.17138409614563,-6.69,7.88,-2.41,10.61
14.188411951065063,-8.33,9.85,-4.41,13.63
14.189950942993164,-9.96,10.61,-7.21,16.24
14.203922986984253,-10.42,10.88,-7.64,16.89
14.23019003868103,-10.16,9.87,-8.52,16.52
14.231491804122925,-9.93,8.21,-9.88,16.23
14.232533931732178,-9.61,9.39,-8.8,16.06
14.235059022903442,-7.75,14.51,-4.27,16.99
14.237064123153687,-3.64,16.79,-3.14,17.46
14.246978998184204,0.47,13.15,-6.88,14.84
14.257182836532593,0.87,5.25,-8.78,10.26
14.267316102981567,-1.92,-0.18,-7.91,8.14
14.27686595916748,-4.12,-3.22,-5.64,7.69
14.287039995193481,0.01,0.09,-1.51,1.51
14.322752952575684,5.11,1.42,4.87,7.2
14.323925971984863,2.13,-4.04,0.73,4.62
14.32491397857666,-3.17,-6.38,-3.7,8.02
14.338737964630127,-6.15,-5.64,-2.71,8.77
14.339813947677612,-8.03,-4.36,-2.25,9.41
14.35453200340271,-9.12,-4.02,-1.97,10.15
14.356168031692505,-8.21,-4.47,-0.98,9.39
14.371463060379028,-5.78,-5.96,0.1,8.3
14.376426935195923,-3.91,-7.68,0.92,8.66
14.386888980865479,-3.71,-8.34,1.03,9.18
14.425344944000244,-4.26,-7.86,0.52,8.95
14.426697969436646,-4.77,-6.59,0.19,8.13
14.427724123001099,-4.8,-5.9,-1.0,7.67
14.438405990600586,-4.4,-5.41,-1.84,7.21
14.439462900161743,-4.17,-4.81,-2.3,6.76
14.454580068588257,-3.97,-4.69,-2.66,6.69
14.455610990524292,-3.77,-4.97,-2.68,6.78
14.471411943435669,-3.52,-5.35,-2.44,6.85
14.475581884384155,-3.18,-5.83,-2.04,6.94
14.486899137496948,-2.77,-6.34,-1.52,7.08
14.522627115249634,-2.41,-6.69,-1.29,7.22
14.523945093154907,-2.3,-6.96,-1.09,7.41
14.52501392364502,-2.37,-6.84,-0.69,7.27
14.538685083389282,-2.5,-6.26,-0.15,6.74
14.539748907089233,-2.33,-5.36,-0.05,5.84
14.554726839065552,-1.25,-4.28,-0.75,4.52
14.555754899978638,0.95,-3.42,-1.45,3.83
14.57149600982666,3.63,-2.49,-1.08,4.53
14.574793100357056,6.12,-1.25,0.08,6.24
14.587125062942505,7.72,0.14,0.99,7.78
14.620388984680176,8.12,1.47,1.04,8.31
14.62211799621582,7.85,2.92,1.03,8.43
14.62310791015625,8.2,4.77,1.83,9.66
14.638597011566162,9.66,6.77,3.22,12.22
14.639652967453003,11.99,8.7,5.15,15.68
14.654559850692749,14.45,9.85,6.83,18.77
14.655601978302002,16.12,9.46,7.14,20.0
14.671858072280884,16.24,9.75,6.99,20.19
14.67401909828186,15.23,10.83,7.36,20.08
14.686992883682251,13.88,10.6,7.42,18.97
14.694689989089966,12.86,11.7,6.04,18.4
14.73045301437378,9.05,9.26,2.17,13.12
14.731630086898804,-1.12,-3.52,-9.24,9.95
14.732815980911255,-16.09,-0.5,-22.27,27.47
14.734471082687378,-22.94,41.18,-4.25,47.32
14.743376970291138,-16.42,41.16,11.82,45.86
14.753206014633179,-5.46,3.35,1.53,6.58
14.763335943222046,2.73,-8.72,4.11,10.01
14.773132085800171,7.8,-9.09,7.24,13.99
14.783541917800903,11.38,-7.22,4.64,14.25
14.793319940567017,11.96,-6.82,2.05,13.91
14.823985815048218,9.68,-3.42,0.12,10.26
14.825387001037598,4.91,-0.42,-1.18,5.06
14.826406002044678,1.18,1.41,-2.25,2.9
14.83902907371521,-0.25,2.49,-3.27,4.11
14.842620134353638,0.34,1.66,-1.48,2.24
14.852355003356934,1.45,0.13,2.31,2.73
14.862783908843994,1.3,-0.96,3.38,3.74
14.87230896949768,0.17,-1.16,2.21,2.5
14.88264012336731,-0.04,-0.61,1.2,1.34
14.892329931259155,0.78,-0.23,0.17,0.83
14.923786878585815,1.16,-0.43,0.09,1.24
14.925081014633179,0.94,-0.66,0.63,1.31
14.92608380317688,0.69,-0.62,0.58,1.09
14.93871808052063,0.67,-0.27,0.07,0.72
14.941921949386597,0.93,0.13,-0.43,1.03
14.954831838607788,1.05,0.27,-0.53,1.2
14.962008953094482,0.87,0.04,-0.26,0.9
14.971598863601685,0.33,-0.32,0.31,0.55
14.981964826583862,-0.34,-0.4,0.9,1.04
14.991840124130249,-0.68,-0.27,0.81,1.09
15.02464509010315,-0.49,0.03,0.46,0.67
15.025911092758179,-0.12,0.3,0.36,0.48
15.026865005493164,0.11,0.3,0.31,0.44
15.03795313835144,0.23,0.14,-0.16,0.31
15.041152000427246,0.16,0.09,-0.89,0.9
15.053879022598267,0.01,0.29,-1.26,1.29
15.060956001281738,-0.16,0.56,-1.01,1.16
15.071883916854858,-0.45,0.65,-0.35,0.86
15.081355810165405,-0.73,0.55,0.15,0.92
15.09108591079712,-0.92,0.48,0.24,1.06
15.128390073776245,-0.94,0.51,0.0,1.06
15.130165815353394,-0.8,0.53,-0.41,1.04
15.13113808631897,-0.65,0.42,-0.78,1.09
15.134696006774902,-0.54,0.31,-1.02,1.19
15.153454065322876,-0.48,0.29,-1.09,1.22
15.154441118240356,-0.69,0.36,-1.15,1.38
15.169418096542358,-1.06,0.6,-1.11,1.64
15.170879125595093,-1.36,0.9,-0.97,1.89
15.187477827072144,-1.75,1.05,-1.03,2.28
15.19007396697998,-2.18,1.27,-1.04,2.72
15.230924844741821,-2.23,1.65,-1.0,2.94
15.232097864151001,-1.94,1.99,-1.26,3.05
15.233333826065063,-1.42,2.3,-1.49,3.08
15.234948873519897,-1.3,2.61,-1.65,3.35
15.239457845687866,-1.39,3.26,-1.2,3.74
15.24982500076294,-2.05,3.53,-1.01,4.2
15.259720087051392,-2.9,3.72,-0.77,4.77
15.26955795288086,-3.49,3.87,-0.96,5.29
15.27988600730896,-3.68,4.12,-1.3,5.67
15.289573907852173,-3.84,4.36,-1.98,6.13
15.32637906074524,-4.26,4.71,-2.58,6.85
15.327574968338013,-4.79,5.31,-2.87,7.7
15.328617811203003,-5.5,6.14,-3.41,8.92
15.33944582939148,-6.56,7.18,-4.06,10.53
15.340512037277222,-7.87,8.13,-4.79,12.28
15.354947805404663,-8.86,8.89,-5.85,13.84
15.35873794555664,-9.03,8.94,-7.72,14.86
15.372189998626709,-8.93,8.56,-8.77,15.16
15.378878831863403,-8.92,8.62,-10.49,16.24
15.388715982437134,-8.64,10.43,-9.79,16.71
15.425014019012451,-6.66,15.67,-4.81,17.69
15.426328897476196,-2.59,18.03,-2.37,18.36
15.427406072616577,-0.13,12.08,-6.27,13.61
15.438708066940308,-0.73,5.01,-8.57,9.95
15.439779043197632,-3.58,1.13,-7.15,8.07
15.455363988876343,-5.99,-2.75,-5.1,8.33
15.457980871200562,-2.6,-1.19,-2.34,3.69
15.471865892410278,3.74,1.56,4.86,6.32
15.478044986724854,2.16,-4.33,3.1,5.74
15.487873792648315,-3.2,-7.66,-2.02,8.54
15.498316049575806,-6.85,-7.45,-1.31,10.2
15.52848505973816,-9.17,-5.97,-0.25,10.94
15.529678106307983,-10.73,-5.06,-0.46,11.87
15.530856847763062,-10.15,-4.2,-0.33,10.98
15.537369012832642,-6.86,-4.42,-0.14,8.16
15.547462940216064,-3.86,-5.05,0.53,6.37
15.557408094406128,-2.85,-5.4,1.02,6.19
15.56725001335144,-3.19,-5.65,1.0,6.56
15.577199935913086,-3.9,-5.6,0.64,6.85
15.587469816207886,-4.32,-5.27,0.17,6.81
15.597299814224243,-4.06,-4.89,-0.55,6.37
15.62598204612732,-3.52,-4.64,-1.12,5.93
15.627154111862183,-3.11,-4.65,-1.71,5.84
15.628437995910645,-2.91,-4.53,-2.23,5.82
15.640394926071167,-2.91,-4.19,-2.27,5.58
15.646406888961792,-2.93,-4.21,-2.12,5.55
15.656341791152954,-2.86,-4.55,-1.7,5.63
15.666527032852173,-2.77,-5.05,-1.24,5.89
15.676242113113403,-2.56,-5.55,-0.91,6.17
15.686615943908691,-2.33,-5.86,-0.7,6.34
15.696542024612427,-2.13,-5.84,-0.38,6.22
15.728055953979492,-1.98,-5.34,0.19,5.69
15.729337930679321,-1.74,-4.7,1.1,5.13
15.730355024337769,-1.08,-4.23,2.15,4.86
15.735904932022095,0.05,-3.49,3.34,4.83
15.745826959609985,1.52,-2.16,4.71,5.4
15.755795001983643,3.25,-0.57,5.68,6.56
15.765582799911499,5.15,1.06,5.87,7.88
15.775815963745117,6.85,2.92,5.86,9.47
15.785826921463013,8.33,5.15,5.96,11.46
15.795830011367798,10.18,7.5,6.51,14.22
15.827932119369507,12.62,9.64,7.45,17.54
15.829246997833252,14.64,10.24,7.3,19.29
15.830273866653442,15.89,9.35,7.26,19.81
15.83770203590393,16.03,8.32,7.24,19.45
15.845095872879028,14.74,7.51,7.22,18.04
15.85530686378479,13.41,11.67,5.12,18.49
15.865029096603394,14.05,8.53,-3.9,16.89
15.874976873397827,5.88,-0.51,-18.95,19.84
15.885174036026001,-7.04,13.19,-18.91,24.1
15.89534878730774,-9.5,56.38,-2.01,57.21
15.93110203742981,-0.6,35.67,-6.71,36.3
15.932451963424683,3.99,-1.93,-3.79,5.83
15.933444023132324,2.48,-12.16,5.01,13.38
15.935506105422974,1.73,-15.65,6.36,16.98
15.94446587562561,5.68,-14.39,7.03,16.99
15.954354047775269,8.89,-10.77,8.03,16.1
15.964213132858276,6.51,-5.2,4.56,9.49
15.974564790725708,2.7,-0.79,3.63,4.59
15.984457969665527,-0.73,2.09,1.71,2.79
15.994324922561646,-2.57,3.89,-1.78,4.99
16.030679941177368,-1.66,4.33,-2.52,5.27
16.032130002975464,0.44,2.85,-1.16,3.1
16.033116102218628,1.98,0.31,-0.08,2.0
16.035468816757202,2.23,-1.69,0.32,2.81
16.04350781440735,1.71,-2.1,-0.1,2.71
16.053727865219116,1.4,-1.15,-0.4,1.85
16.06347680091858,1.29,-0.31,-0.58,1.44
16.073785066604614,1.13,-0.1,-0.64,1.3
16.083499908447266,0.95,-0.1,-0.3,1.0
16.093547105789185,0.77,-0.2,0.36,0.87
16.129996061325073,0.54,-0.13,0.91,1.06
16.13134503364563,0.26,-0.12,0.99,1.03
16.13228678703308,0.01,-0.12,0.93,0.93
16.135008096694946,-0.07,-0.04,0.93,0.93
16.155082941055298,-0.06,-0.03,0.71,0.71
16.156105995178223,-0.01,0.05,0.36,0.36
16.17166781425476,0.11,0.08,-0.2,0.24
16.173106908798218,0.22,0.1,-0.57,0.61
16.187680959701538,0.2,0.15,-0.69,0.73
16.192789793014526,0.08,0.07,-0.75,0.75
16.22986102104187,-0.1,0.05,-0.55,0.56
16.231015920639038,-0.31,0.08,-0.25,0.4
16.232227087020874,-0.34,0.16,-0.02,0.37
16.238467931747437,-0.11,0.17,0.12,0.23
16.255316972732544,-0.04,0.14,0.27,0.3
16.256673097610474,-0.2,0.15,0.44,0.5
16.272606134414673,-0.41,0.26,0.46,0.66
16.274068117141724,-0.57,0.37,0.25,0.72
16.287779092788696,-0.66,0.43,-0.21,0.81
16.29188299179077,-0.68,0.56,-0.52,1.02
16.30411696434021,-0.82,0.7,-0.62,1.24
16.333536863327026,-1.37,0.83,-0.89,1.83
16.33484697341919,-2.15,1.07,-1.3,2.73
16.335889101028442,-2.7,1.33,-1.72,3.46
16.356497049331665,-2.78,1.46,-1.8,3.61
16.357995986938477,-2.3,1.37,-1.95,3.31
16.3725368976593,-1.57,1.21,-1.85,2.71
16.373992919921875,-1.18,1.17,-1.78,2.43
16.389034032821655,-0.99,1.37,-1.98,2.6
16.39102602005005,-0.91,1.88,-1.89,2.81
16.404879808425903,-1.24,2.47,-1.21,3.01
16.434719800949097,-1.7,2.93,-0.93,3.51
16.43603801727295,-2.43,3.58,-1.16,4.47
16.437054872512817,-2.62,4.08,-1.1,4.97
16.456252813339233,-2.84,4.33,-1.22,5.32
16.457732915878296,-3.14,4.4,-1.55,5.62
16.472721815109253,-3.52,4.76,-1.67,6.15
16.47419500350952,-4.22,5.66,-1.62,7.24
16.4891939163208,-5.79,7.21,-1.9,9.44
16.490680932998657,-7.99,9.38,-2.84,12.64
16.505561113357544,-9.76,10.97,-4.54,15.36
16.53770899772644,-10.93,12.01,-5.84,17.25
16.53911280632019,-11.34,11.54,-7.27,17.73
16.54011607170105,-11.23,9.88,-8.29,17.1
16.556662797927856,-10.99,8.86,-8.98,16.73
16.55818200111389,-10.35,10.52,-7.94,16.75
16.57270097732544,-7.26,13.66,-5.18,16.31
16.574211835861206,-1.72,13.91,-5.82,15.17
16.589401960372925,1.97,10.9,-5.83,12.51
16.590872049331665,1.06,4.18,-5.52,7.0
16.605039834976196,-3.2,-0.98,-5.93,6.8
16.634284019470215,-5.76,-4.14,-5.57,9.01
16.635699033737183,-2.18,-1.82,-3.89,4.81
16.636722803115845,4.55,2.71,2.3,5.77
16.656299829483032,4.21,-1.68,1.21,4.69
16.657842874526978,-1.27,-4.26,-3.61,5.72
16.67282795906067,-4.99,-4.46,-3.0,7.33
16.674307107925415,-8.22,-4.16,-2.85,9.64
16.689453840255737,-10.7,-3.71,-3.42,11.83
16.6909499168396,-11.62,-3.7,-3.48,12.68
16.70503878593445,-10.15,-4.25,-2.11,11.2
16.73547601699829,-7.29,-5.32,-0.31,9.03
16.736889123916626,-5.31,-6.79,0.78,8.65
16.7379469871521,-4.82,-8.07,1.12,9.46
16.756402015686035,-5.2,-8.33,0.68,9.84
16.757867097854614,-5.75,-7.36,-0.06,9.34
16.77288794517517,-5.74,-6.58,-1.08,8.79
16.774364948272705,-5.42,-6.48,-1.92,8.66
16.78929591178894,-5.29,-6.62,-2.35,8.79
16.790775060653687,-5.14,-6.78,-2.6,8.89
16.80502200126648,-4.81,-7.11,-2.73,9.0
16.83776092529297,-4.42,-7.6,-2.84,9.23
16.839081048965454,-4.17,-8.08,-2.66,9.47
16.840091943740845,-4.1,-8.06,-1.89,9.23
16.85685396194458,-3.84,-7.88,-0.83,8.8
16.85832905769348,-3.02,-7.79,0.09,8.35
16.872697114944458,-1.49,-7.29,0.94,7.49
16.87416100502014,0.35,-6.64,1.39,6.79
16.889289140701294,1.82,-5.69,1.44,6.14
16.89077091217041,2.68,-4.18,1.27,5.12
16.904922008514404,3.27,-1.82,1.32,3.96
16.935745000839233,4.19,1.49,1.53,4.7
16.9371600151062,5.96,5.2,1.66,8.08
16.938170909881592,8.85,9.41,1.85,13.04
16.95677399635315,12.21,14.62,2.68,19.23
16.957857847213745,14.65,19.94,2.04,24.82
16.96959400177002,16.81,23.02,1.21,28.52
16.971105813980103,18.25,22.11,0.39,28.67
16.986418962478638,18.84,22.05,1.16,29.02
16.987931966781616,19.89,20.1,2.9,28.42
17.003884077072144,19.62,18.42,1.84,26.97
17.03518795967102,10.5,5.49,-3.05,12.23
17.03651785850525,-3.61,6.7,-5.25,9.24
17.03753399848938,-10.07,20.6,3.85,23.25
17.056402921676636,-5.52,13.71,6.44,16.12
17.057430028915405,0.06,-0.53,3.87,3.9
17.072945833206177,1.92,-7.16,3.53,8.21
17.07442879676819,4.57,-8.05,1.51,9.37
17.089365005493164,7.19,-5.8,2.28,9.51
17.090848922729492,7.48,-3.14,2.05,8.36
17.105175971984863,5.5,-0.94,0.99,5.66
17.106645822525024,3.18,0.77,0.26,3.28
17.152026891708374,0.9,1.15,-1.04,1.79
17.153193950653076,-0.29,1.17,-1.29,1.76
17.154206037521362,-0.44,1.19,-0.57,1.39
17.173407793045044,-0.12,0.95,0.46,1.06
17.174822092056274,0.42,0.09,0.98,1.06
17.18902897834778,0.66,-0.84,0.83,1.35
17.190462827682495,0.4,-1.05,0.36,1.17
17.205796003341675,0.14,-0.56,0.31,0.65
17.207256078720093,0.17,-0.25,-0.15,0.33
17.22248101234436,0.51,-0.07,-0.78,0.93
17.253520011901855,0.74,0.11,-0.66,0.99
17.25488305091858,0.7,0.17,-0.27,0.76
17.255863904953003,0.7,-0.06,-0.16,0.72
17.271876096725464,0.55,-0.25,0.21,0.63
17.27286195755005,0.29,-0.27,0.32,0.5
17.28766894340515,0.01,-0.1,0.39,0.4
17.289088010787964,-0.26,0.13,0.62,0.68
17.303539037704468,-0.42,0.19,0.25,0.52
17.304968118667603,-0.48,0.25,-0.35,0.64
17.322031021118164,-0.29,0.38,-0.59,0.75
17.351106882095337,-0.11,0.38,-0.66,0.76
17.35242009162903,-0.08,0.38,-0.47,0.6
17.353423833847046,-0.23,0.36,-0.08,0.43
17.373250007629395,-0.52,0.29,0.28,0.65
17.37427592277527,-0.73,0.3,0.4,0.88
17.389342069625854,-0.81,0.38,0.1,0.9
17.39083504676819,-0.96,0.44,-0.21,1.07
17.40626311302185,-1.18,0.46,-0.46,1.34
17.40770697593689,-1.18,0.5,-0.7,1.46
17.421755075454712,-0.97,0.47,-0.91,1.41
17.44963812828064,-0.79,0.55,-1.16,1.5
17.451056957244873,-0.52,0.8,-1.38,1.67
17.452051877975464,-0.42,1.12,-1.46,1.88
17.47335195541382,-0.66,1.5,-1.42,2.16
17.474414110183716,-1.24,1.8,-1.51,2.65
17.489584922790527,-1.91,2.17,-1.22,3.13
17.491050958633423,-2.19,2.46,-0.91,3.41
17.506430864334106,-2.45,2.84,-0.86,3.84
17.507911920547485,-2.48,3.27,-0.91,4.2
17.52175211906433,-2.76,3.45,-0.97,4.52
17.552016973495483,-2.95,3.62,-0.98,4.77
17.55343985557556,-3.14,3.6,-1.43,4.98
17.554461002349854,-3.32,3.74,-1.76,5.3
17.574023008346558,-3.71,4.14,-1.86,5.86
17.575513124465942,-4.36,4.51,-2.24,6.66
17.58967614173889,-5.1,4.97,-2.7,7.61
17.591157913208008,-6.42,5.92,-3.33,9.34
17.606419801712036,-8.0,7.41,-3.76,11.53
17.60785984992981,-9.35,9.84,-3.73,14.07
17.621959924697876,-10.23,11.48,-6.19,16.57
17.650959014892578,-10.57,11.12,-9.45,18.01
17.652364015579224,-10.58,9.92,-11.91,18.76
17.653379917144775,-10.54,9.79,-12.01,18.73
17.67325186729431,-8.79,14.75,-7.49,18.73
17.674235105514526,-4.6,17.9,-4.63,19.05
17.689888954162598,-0.05,14.92,-6.8,16.39
17.691388845443726,1.11,7.9,-8.02,11.31
17.706164121627808,-1.1,2.98,-8.05,8.65
17.707612991333008,-4.45,-0.77,-7.02,8.34
17.721869945526123,-3.54,-4.14,-7.79,9.5
17.74985694885254,3.19,0.95,-4.15,5.31
17.751230001449585,7.65,0.23,1.45,7.78
17.75228500366211,3.02,-4.85,-2.81,6.36
17.77356195449829,-3.36,-6.63,-4.09,8.48
17.77462410926819,-7.44,-7.26,-2.42,10.67
17.789873838424683,-11.05,-6.97,-2.37,13.27
17.791342973709106,-13.9,-5.65,-1.89,15.12
17.80682110786438,-15.35,-4.22,-0.79,15.93
17.808303117752075,-13.52,-4.24,0.76,14.18
17.822049856185913,-9.53,-5.65,1.72,11.21
17.849268913269043,-6.83,-6.76,1.86,9.78
17.850696802139282,-6.37,-6.96,1.91,9.62
17.851672887802124,-6.79,-6.25,1.75,9.39
17.853199005126953,-6.37,-5.82,0.79,8.66
17.854665994644165,-5.39,-5.44,-0.3,7.66
17.859657049179077,-4.62,-4.98,-1.44,6.94
17.869889974594116,-4.25,-4.19,-2.49,6.46
17.87978482246399,-4.02,-3.34,-3.42,6.24
17.889603853225708,-3.64,-2.76,-4.09,6.13
17.899516820907593,-2.89,-2.65,-4.4,5.89
17.909775972366333,-1.72,-2.8,-3.91,5.1
17.93767285346985,-0.31,-3.18,-2.92,4.32
17.939059019088745,0.89,-3.79,-2.13,4.43
17.940079927444458,1.84,-4.17,-1.94,4.95
17.957095861434937,2.64,-3.94,-1.92,5.11
17.959024906158447,3.45,-3.02,-1.43,4.8
17.973011016845703,4.65,-1.81,-0.14,4.99
17.979039907455444,6.22,-0.61,1.6,6.45
17.989638090133667,7.88,0.91,3.82,8.8
17.999347925186157,9.15,2.65,5.71,11.1
18.008937120437622,9.91,4.55,7.41,13.18
18.03994107246399,10.46,6.64,8.81,15.2
18.041200876235962,10.99,8.45,9.32,16.7
18.04221796989441,12.19,9.89,10.14,18.68
18.056926012039185,13.45,9.34,9.48,18.92
18.05821394920349,14.97,8.13,9.57,19.53
18.072685956954956,15.17,7.19,8.32,18.73
18.078099966049194,13.69,7.36,6.36,16.79
18.089936017990112,11.22,12.84,4.03,17.52
18.098477125167847,11.78,10.61,-1.48,15.92
18.108289003372192,6.42,-1.21,-14.24,15.66
18.13926601409912,-6.41,11.39,-17.75,22.04
18.140623807907104,-11.39,41.71,-6.31,43.69
18.141714811325073,-7.15,29.53,1.01,30.4
18.15726399421692,6.14,8.0,0.73,10.11
18.1582989692688,11.11,-3.8,2.26,11.95
18.173086881637573,9.32,-7.55,8.16,14.5
18.177668809890747,4.52,-8.69,6.86,11.95
18.189485788345337,2.99,-8.74,2.23,9.5
18.19739603996277,3.64,-6.5,2.09,7.73
18.207463026046753,3.19,-2.54,2.37,4.71
18.240214109420776,2.14,0.45,1.95,2.92
18.241556882858276,0.49,2.04,0.13,2.1
18.242528915405273,-0.69,2.18,-1.86,2.94
18.257405996322632,-0.56,1.51,-2.16,2.69
18.258430004119873,0.49,0.99,-0.67,1.29
18.273231983184814,1.15,0.21,0.56,1.29
18.27686595916748,1.62,-0.73,0.4,1.82
18.2888400554657,1.94,-1.18,-0.29,2.28
18.296929121017456,1.57,-0.9,-0.22,1.82
18.3066508769989,1.01,-0.48,0.29,1.15
18.34362006187439,0.67,-0.38,0.73,1.06
18.34493088722229,0.43,-0.38,0.9,1.06
18.345870971679688,0.2,-0.17,0.85,0.88
18.356902837753296,-0.02,0.19,0.7,0.72
18.357938051223755,-0.16,0.39,0.31,0.52
18.37334394454956,-0.03,0.33,-0.24,0.4
18.375922918319702,0.31,0.13,-0.4,0.52
18.38974690437317,0.44,-0.12,-0.4,0.6
18.3962459564209,0.23,-0.21,-0.21,0.37
18.406020879745483,-0.11,-0.05,-0.15,0.19
18.442952871322632,-0.33,0.12,-0.22,0.41
18.444243907928467,-0.29,0.2,-0.32,0.47
18.44533085823059,-0.13,0.23,-0.46,0.53
18.45734691619873,-0.13,0.35,-0.2,0.42
18.458297967910767,-0.3,0.47,-0.16,0.58
18.473143815994263,-0.49,0.53,-0.42,0.83
18.47520399093628,-0.66,0.72,-0.27,1.01
18.48915195465088,-0.86,0.81,-0.02,1.18
18.49541997909546,-1.02,0.71,-0.06,1.24
18.505747079849243,-0.98,0.55,-0.12,1.13
18.540129899978638,-0.8,0.36,-0.1,0.88
18.541501998901367,-0.6,0.29,-0.2,0.69
18.542486906051636,-0.35,0.4,-0.51,0.73
18.557192087173462,-0.27,0.63,-0.82,1.06
18.55824303627014,-0.57,0.92,-1.02,1.48
18.573188066482544,-1.27,1.36,-0.78,2.01
18.57430386543274,-1.6,1.6,-0.8,2.4
18.5900981426239,-1.95,1.83,-1.01,2.85
18.59461283683777,-2.07,2.04,-0.83,3.02
18.605910062789917,-2.3,2.05,-0.8,3.18
18.641300916671753,-2.43,1.98,-0.66,3.2
18.642635107040405,-2.33,1.91,-1.03,3.18
18.643739938735962,-1.96,2.01,-1.46,3.16
18.657232999801636,-1.71,2.21,-1.65,3.24
18.65824580192566,-1.79,2.45,-1.59,3.42
18.673293828964233,-2.32,2.7,-1.53,3.87
18.674336910247803,-3.13,2.97,-1.48,4.56
18.69009804725647,-3.88,3.38,-1.19,5.28
18.69403910636902,-4.55,3.87,-0.9,6.04
18.70583701133728,-5.26,4.58,-0.98,7.04
18.713706016540527,-5.8,5.4,-1.51,8.06
18.746010065078735,-6.69,6.38,-2.28,9.52
18.747190952301025,-7.98,7.47,-3.1,11.36
18.74847102165222,-8.94,8.19,-3.6,12.64
18.755156993865967,-9.98,8.88,-3.69,13.85
18.763180017471313,-11.17,9.76,-5.7,15.89
18.773473978042603,-12.09,11.73,-6.63,18.1
18.783262968063354,-10.14,16.15,-3.75,19.43
18.793246030807495,-4.95,15.07,-6.37,17.09
18.80313491821289,0.68,10.65,-8.93,13.91
18.81286597251892,2.31,7.87,-5.64,9.95
18.8436758518219,0.21,3.33,-4.62,5.69
18.84499502182007,-2.87,-0.12,-4.41,5.26
18.84596085548401,-1.68,-3.12,-7.08,7.91
18.856987953186035,3.52,-1.49,-8.09,8.94
18.862189054489136,7.91,1.35,-2.7,8.46
18.87312912940979,3.87,-2.08,-3.37,5.53
18.882673025131226,-3.29,-3.75,-5.93,7.74
18.89230704307556,-7.79,-4.55,-4.96,10.29
18.90231990814209,-11.53,-4.14,-5.25,13.32
18.912245988845825,-14.39,-2.78,-5.36,15.6
18.943767786026,-14.91,-1.7,-3.74,15.46
18.945109128952026,-12.35,-1.65,-0.6,12.47
18.94610905647278,-8.86,-2.83,1.61,9.43
18.955424070358276,-6.56,-4.43,2.7,8.36
18.961549043655396,-5.94,-5.76,2.7,8.7
18.972508907318115,-6.39,-6.09,2.18,9.09
18.98190188407898,-6.71,-5.42,1.17,8.7
18.991639852523804,-6.19,-4.92,-0.48,7.92
19.00155282020569,-5.38,-5.14,-1.94,7.68
19.011600971221924,-4.52,-5.29,-3.08,7.6
19.04207682609558,-3.86,-5.03,-3.84,7.41
19.043365001678467,-3.55,-4.16,-3.93,6.73
19.044394969940186,-3.13,-3.18,-3.9,5.92
19.05767798423767,-1.83,-3.1,-4.07,5.43
19.060757875442505,0.06,-3.9,-4.52,5.97
19.07377791404724,1.73,-4.65,-4.65,6.79
19.08094811439514,2.3,-5.07,-3.8,6.74
19.090919971466064,1.43,-5.14,-2.55,5.91
19.100629091262817,0.28,-4.54,-1.65,4.83
19.110843896865845,-0.11,-3.69,-1.09,3.84
19.14889883995056,0.53,-2.46,-0.17,2.52
19.150287866592407,2.31,-0.94,1.29,2.8
19.15125799179077,4.72,0.79,3.68,6.03
19.153589963912964,7.07,2.66,5.83,9.54
19.159898042678833,9.15,4.72,7.5,12.73
19.17023491859436,10.48,7.31,8.5,15.34
19.18023705482483,11.03,10.23,8.77,17.41
19.19030499458313,11.55,12.55,8.24,18.94
19.200741052627563,13.39,14.22,7.27,20.84
19.210428953170776,16.0,14.38,5.38,22.17
19.247114896774292,18.62,13.12,3.45,23.03
19.24860405921936,20.7,11.92,2.84,24.05
19.24960494041443,21.21,12.98,2.76,25.01
19.250613927841187,20.51,11.75,2.61,23.78
19.273359060287476,11.32,-0.49,-3.37,11.82
19.2744038105011,-4.01,-5.8,-13.22,14.98
19.290127992630005,-17.11,13.39,-13.21,25.42
19.29158091545105,-21.63,40.4,1.82,45.86
19.306118965148926,-14.69,20.12,4.79,25.36
19.30899405479431,-2.99,-3.5,2.46,5.21
19.349552869796753,5.73,-6.51,6.42,10.79
19.350739002227783,11.27,-7.1,7.61,15.34
19.351913928985596,12.72,-8.61,3.15,15.67
19.353492975234985,12.81,-5.54,1.48,14.03
19.358550786972046,9.04,-2.21,0.9,9.34
19.368655920028687,3.82,-0.74,-0.41,3.91
19.37856698036194,0.99,1.38,-0.79,1.87
19.388466119766235,-0.36,2.34,-0.92,2.54
19.398612022399902,-0.65,1.5,0.46,1.69
19.40843391418457,0.45,0.33,1.95,2.02
19.44539189338684,1.15,-0.79,1.25,1.87
19.446553945541382,0.91,-1.06,-0.04,1.39
19.44758701324463,0.65,-0.39,-0.37,0.84
19.45757293701172,0.47,0.12,0.07,0.49
19.45859694480896,0.51,0.02,0.31,0.59
19.47345280647278,0.59,-0.24,0.32,0.71
19.47750687599182,0.59,-0.22,-0.08,0.63
19.489782094955444,0.74,0.03,-0.64,0.97
19.497588872909546,0.88,0.15,-0.84,1.22
19.50743079185486,0.61,0.16,-0.32,0.7
19.517390966415405,0.01,0.09,0.49,0.49
19.548957109451294,-0.44,0.01,0.81,0.92
19.550065994262695,-0.66,0.01,0.43,0.78
19.55123496055603,-0.43,0.18,-0.28,0.54
19.5572350025177,0.09,0.38,-0.53,0.65
19.573637008666992,0.32,0.34,-0.7,0.84
19.576782941818237,0.13,0.22,-0.72,0.76
19.590625047683716,-0.23,0.22,-0.59,0.67
19.59712290763855,-0.58,0.37,-0.38,0.78
19.606807947158813,-0.87,0.67,-0.08,1.1
19.616831064224243,-0.96,0.88,0.0,1.3
19.648502111434937,-0.74,0.91,-0.07,1.17
19.649696111679077,-0.53,0.83,-0.22,1.0
19.65097999572754,-0.66,0.7,-0.37,1.03
19.656139135360718,-0.94,0.7,-0.65,1.34
19.673907995224,-0.98,0.77,-0.78,1.47
19.676046133041382,-0.9,0.96,-0.73,1.5
19.69006609916687,-1.03,1.21,-0.73,1.74
19.696161031723022,-1.53,1.59,-0.89,2.37
19.70626711845398,-1.9,2.21,-0.78,3.01
19.71595001220703,-2.47,2.24,-0.82,3.43
19.747283935546875,-2.99,2.25,-0.53,3.77
19.74850296974182,-3.49,2.06,-0.41,4.07
19.74959111213684,-3.7,1.93,-0.5,4.2
19.755403995513916,-3.25,1.95,-1.07,3.93
19.76559805870056,-2.56,2.09,-2.02,3.87
19.775749921798706,-2.2,2.44,-2.6,4.18
19.785465002059937,-2.53,2.89,-2.63,4.65
19.795679807662964,-3.33,3.26,-2.58,5.32
19.80563187599182,-4.2,3.65,-2.38,6.05
19.815451860427856,-5.18,4.32,-2.3,7.12
19.84636402130127,-6.1,5.17,-2.55,8.39
19.847702980041504,-6.97,6.36,-2.96,9.88
19.848742961883545,-8.35,8.17,-3.9,12.31
19.855348825454712,-9.61,9.61,-6.14,14.91
19.86492896080017,-10.21,10.09,-8.04,16.45
19.874588012695312,-10.45,10.08,-9.31,17.24
19.884721994400024,-11.0,10.46,-10.43,18.41
19.894742965698242,-10.25,14.92,-7.87,19.73
19.90556502342224,-6.38,18.28,-5.36,20.08
19.91442608833313,-0.35,15.21,-7.84,17.11
19.951117992401123,2.65,10.03,-7.14,12.59
19.95253586769104,1.08,3.97,-6.12,7.37
19.95354199409485,-2.92,-0.81,-5.52,6.29
19.974703073501587,-2.76,-3.29,-5.93,7.32
19.97576594352722,3.93,1.94,-3.54,5.63
19.990479946136475,8.28,2.46,2.71,9.05
19.99150800704956,2.72,-2.58,-2.42,4.46
20.007633924484253,-4.08,-4.87,-4.48,7.77
20.009086847305298,-8.21,-4.88,-2.44,9.85
20.023144006729126,-11.11,-4.33,-1.66,12.03
20.051260948181152,-12.68,-4.42,-0.95,13.46
20.052655935287476,-11.23,-5.02,0.88,12.33
20.053652048110962,-7.96,-6.44,2.45,10.52
20.074529886245728,-5.76,-8.37,2.6,10.48
20.075572967529297,-5.3,-9.43,1.22,10.88
20.09087586402893,-5.92,-8.88,0.07,10.67
20.09236788749695,-6.25,-7.77,-1.39,10.06
20.10761284828186,-5.92,-7.14,-2.56,9.62
20.109058141708374,-5.6,-6.71,-2.53,9.09
20.122962951660156,-5.34,-6.72,-2.65,8.98
20.15087103843689,-4.61,-7.21,-2.92,9.04
20.152243852615356,-4.21,-7.42,-2.78,8.97
20.153265953063965,-4.19,-7.34,-2.43,8.79
20.15536904335022,-4.08,-7.06,-1.99,8.39
20.16231083869934,-3.76,-6.59,-1.62,7.75
20.172681093215942,-3.37,-6.32,-1.25,7.27
20.182544946670532,-3.08,-6.3,-0.86,7.06
20.192538022994995,-2.94,-6.35,-0.06,6.99
20.202595949172974,-2.87,-6.54,0.83,7.19
20.212377786636353,-2.33,-6.47,1.36,7.0
20.248624086380005,-1.4,-5.56,2.11,6.1
20.249948978424072,-0.11,-3.37,2.55,4.22
20.250964879989624,1.94,-0.82,2.59,3.33
20.25197196006775,4.79,2.23,3.76,6.48
20.27390694618225,7.91,5.64,5.1,10.97
20.27497410774231,10.37,9.11,6.2,15.13
20.29090189933777,12.41,12.73,6.68,18.99
20.29244303703308,14.14,15.13,7.05,21.87
20.30615210533142,15.81,15.28,7.98,23.39
20.31172204017639,16.99,12.96,7.48,22.64
20.32146906852722,17.53,12.07,7.11,22.43
20.35272192955017,17.55,10.87,5.97,21.48
20.354128122329712,16.62,10.26,4.2,19.97
20.355118989944458,17.18,12.94,0.82,21.52
20.374799013137817,12.66,0.39,-7.94,14.94
20.37583899497986,-1.83,-7.58,-20.0,21.46
20.391198873519897,-14.51,7.96,-23.0,28.33
20.392740964889526,-16.94,46.72,4.39,49.88
20.408069849014282,-13.3,23.99,4.59,27.81
20.41081404685974,-2.96,-3.11,-0.66,4.34
20.42186188697815,6.03,-4.82,6.13,9.85
20.4530770778656,9.83,-7.66,7.91,14.76
20.4544198513031,10.57,-9.26,2.31,14.24
20.455433130264282,10.53,-6.61,0.73,12.45
20.47474980354309,7.17,-2.57,1.56,7.77
20.4757878780365,2.68,-0.08,0.84,2.8
20.490708112716675,-0.17,1.9,0.23,1.92
20.49217700958252,-1.28,2.72,-0.34,3.02
20.507810831069946,-0.49,1.42,0.13,1.5
20.509875059127808,1.39,-0.41,1.12,1.83
20.52319884300232,2.02,-1.18,1.65,2.86
20.552969932556152,1.27,-1.26,0.99,2.04
20.554345846176147,0.5,-0.57,0.25,0.79
20.55536198616028,0.25,0.27,0.02,0.36
20.574787855148315,0.36,0.42,-0.09,0.56
20.575851917266846,0.5,0.02,-0.11,0.51
20.590837001800537,0.77,-0.25,-0.15,0.82
20.592314958572388,0.89,-0.22,-0.14,0.92
20.607959985733032,0.76,-0.08,-0.19,0.78
20.609444856643677,0.49,0.04,-0.15,0.51
20.623251914978027,0.3,0.1,0.04,0.31
20.65326499938965,0.16,0.06,0.17,0.24
20.65471386909485,-0.04,0.01,0.24,0.24
20.655600786209106,-0.24,0.03,0.14,0.27
20.67480778694153,-0.31,0.12,-0.1,0.34
20.67586898803711,-0.15,0.16,-0.43,0.48
20.690890073776245,0.02,0.11,-0.6,0.61
20.692328929901123,-0.01,0.14,-0.42,0.44
20.707629919052124,-0.32,0.3,-0.27,0.51
20.70911693572998,-0.54,0.39,-0.57,0.87
20.723189115524292,-0.57,0.55,-0.53,0.95
20.75775694847107,-0.59,0.64,-0.24,0.9
20.759004831314087,-0.8,0.5,-0.24,0.97
20.759960889816284,-1.04,0.43,-0.37,1.18
20.775146007537842,-1.15,0.44,-0.48,1.32
20.776423931121826,-1.09,0.55,-0.63,1.37
20.791001081466675,-0.8,0.6,-0.85,1.31
20.792480945587158,-0.54,0.57,-0.99,1.26
20.807761907577515,-0.41,0.62,-1.11,1.33
20.809172868728638,-0.51,0.73,-1.12,1.43
20.82339882850647,-0.85,1.01,-1.0,1.65
20.85669994354248,-1.15,1.32,-0.95,1.99
20.85801601409912,-1.32,1.45,-0.83,2.12
20.859023809432983,-1.54,1.43,-0.78,2.24
20.875694036483765,-2.02,1.42,-0.66,2.55
20.877108812332153,-2.4,1.7,0.0,2.94
20.890934944152832,-2.7,2.08,-0.12,3.41
20.89239501953125,-2.68,2.52,-0.66,3.73
20.907485008239746,-2.32,2.82,-0.88,3.75
20.90890097618103,-2.41,3.03,-1.01,4.0
20.9234299659729,-2.88,3.1,-1.2,4.39
20.954912900924683,-3.48,3.26,-1.32,4.94
20.956188917160034,-3.9,3.56,-1.28,5.43
20.95721697807312,-4.31,3.99,-1.57,6.07
20.97521996498108,-4.97,4.47,-2.37,7.09
20.9762179851532,-6.01,5.34,-2.58,8.44
20.99037003517151,-7.45,7.05,-2.51,10.55
20.99183201789856,-8.84,8.74,-3.53,12.92
21.008184909820557,-10.21,9.47,-5.46,14.95
21.00964903831482,-11.42,9.44,-6.32,16.1
21.02354598045349,-12.1,9.53,-5.97,16.51
21.053569078445435,-12.45,9.75,-6.45,17.07
21.054889917373657,-11.41,12.3,-5.13,17.54
21.05594491958618,-6.97,14.96,-4.28,17.04
21.07515001296997,-0.63,13.33,-7.26,15.19
21.07620406150818,3.66,11.23,-7.28,13.87
21.091022968292236,3.32,6.71,-6.09,9.65
21.09248995780945,-1.2,1.43,-7.35,7.58
21.1080539226532,-4.57,-2.43,-7.48,9.09
21.10950207710266,-0.82,-0.6,-6.87,6.94
21.12323784828186,6.26,5.1,-0.73,8.1
21.125236988067627,5.12,0.29,-0.03,5.12
21.17044997215271,-1.5,-3.11,-3.59,4.98
21.171669960021973,-6.94,-4.22,-1.89,8.33
21.172670125961304,-10.95,-4.14,-1.12,11.75
21.191571950912476,-13.89,-4.16,-1.15,14.54
21.19305992126465,-14.9,-4.17,-0.15,15.47
21.20797896385193,-12.15,-4.45,2.1,13.1
21.20943808555603,-8.05,-5.84,3.27,10.46
21.224809885025024,-6.0,-7.5,3.45,10.2
21.226265907287598,-6.12,-8.61,3.18,11.03
21.240352869033813,-6.99,-8.25,2.74,11.15
21.269850969314575,-7.29,-7.42,1.63,10.52
21.271201848983765,-6.92,-6.88,0.27,9.76
21.272197008132935,-6.4,-6.61,-0.67,9.22
21.291259050369263,-5.89,-6.32,-1.24,8.72
21.29230809211731,-5.2,-6.26,-1.61,8.29
21.30800700187683,-4.41,-6.57,-1.85,8.12
21.30947995185852,-3.68,-7.09,-2.09,8.25
21.324587106704712,-3.06,-7.76,-2.23,8.63
21.32607102394104,-2.64,-8.4,-2.19,9.07
21.3403480052948,-2.35,-8.78,-1.71,9.24
21.370006799697876,-2.07,-8.5,-0.8,8.78
21.37133288383484,-1.82,-7.78,0.21,7.99
21.3724148273468,-1.31,-7.1,0.79,7.26
21.391422986984253,-0.31,-5.86,0.73,5.91
21.39249587059021,1.35,-3.53,0.8,3.86
21.40809988975525,3.84,-0.7,1.58,4.21
21.409526109695435,6.5,2.29,2.72,7.4
21.42474389076233,8.75,5.97,4.34,11.44
21.426244974136353,11.08,10.46,5.22,16.1
21.438661813735962,13.01,14.05,4.77,19.73
21.466444969177246,14.62,16.56,3.38,22.34
21.46786379814148,16.59,17.74,1.58,24.33
21.468887090682983,18.14,17.96,0.56,25.53
21.471245050430298,19.26,21.21,0.47,28.65
21.47271180152893,21.18,21.1,-0.95,29.91
21.48230004310608,16.89,13.76,-7.33,22.98
21.492406129837036,2.84,13.6,-13.58,19.42
21.502372980117798,-5.23,28.36,-5.49,29.35
21.51215386390686,-5.75,13.0,2.96,14.51
21.522257089614868,-0.87,-1.38,5.2,5.44
21.559943914413452,2.1,-7.7,8.56,11.7
21.561152935028076,4.06,-10.85,7.09,13.58
21.56215500831604,7.54,-7.77,5.74,12.25
21.57540202140808,8.22,-3.49,4.05,9.8
21.576457977294922,5.68,0.83,2.11,6.11
21.591045141220093,2.83,3.36,-1.14,4.53
21.592095136642456,0.63,0.92,-2.93,3.13
21.607299089431763,0.23,-0.03,-1.36,1.37
21.611515998840332,0.97,0.55,0.1,1.11
21.623183965682983,0.96,0.58,0.53,1.24
21.657994031906128,0.13,-0.01,0.72,0.73
21.659116983413696,-0.12,-0.23,0.61,0.66
21.659955978393555,0.33,-0.32,0.2,0.5
21.675681829452515,0.72,-0.31,-0.27,0.82
21.67676281929016,0.73,-0.22,-0.63,0.98
21.69074511528015,0.47,-0.16,-0.79,0.93
21.691787004470825,0.28,0.03,-0.7,0.75
21.708173990249634,0.36,0.19,-0.54,0.67
21.71071195602417,0.5,0.21,-0.27,0.6
21.72370195388794,0.52,0.12,-0.09,0.54
21.758418798446655,0.33,0.02,-0.02,0.33
21.760123014450073,0.02,0.06,0.22,0.22
21.761165857315063,-0.38,0.21,0.37,0.57
21.77552890777588,-0.6,0.2,0.05,0.63
21.776593923568726,-0.58,0.19,-0.28,0.67
21.791006803512573,-0.25,0.27,-0.47,0.59
21.792051076889038,0.16,0.19,-0.74,0.78
21.808363914489746,0.28,0.17,-0.6,0.68
21.81012201309204,-0.02,0.13,-0.44,0.45
21.823709964752197,-0.42,0.21,-0.34,0.57
21.857923984527588,-0.61,0.37,-0.19,0.73
21.859254121780396,-0.55,0.45,-0.03,0.71
21.86026406288147,-0.36,0.4,-0.06,0.54
21.87534999847412,-0.38,0.3,-0.02,0.48
21.8764009475708,-0.62,0.28,-0.07,0.68
21.890936136245728,-0.91,0.34,-0.32,1.02
21.89197301864624,-1.09,0.5,-0.48,1.29
21.90804100036621,-1.16,0.7,-0.66,1.5
21.90908193588257,-1.23,0.78,-1.08,1.81
21.923619031906128,-1.34,0.83,-1.36,2.08
21.92934489250183,-1.5,0.93,-1.51,2.32
21.96877694129944,-1.57,1.1,-1.44,2.39
21.96994400024414,-1.71,1.21,-1.11,2.37
21.97092604637146,-1.94,1.33,-0.85,2.5
21.99198603630066,-2.2,1.47,-1.01,2.83
21.99305295944214,-2.31,1.91,-0.82,3.1
22.008234977722168,-2.39,2.67,-0.83,3.67
22.009287118911743,-2.61,3.33,-1.36,4.44
22.025234937667847,-2.49,4.12,-1.28,4.98
22.026655912399292,-2.84,4.48,-1.49,5.5
22.04062008857727,-3.39,4.57,-1.91,6.0
22.068965911865234,-4.04,4.79,-2.08,6.6
22.070215940475464,-5.02,5.55,-2.0,7.74
22.071144819259644,-5.87,6.7,-2.23,9.18
22.091737985610962,-7.02,7.87,-2.97,10.95
22.09280300140381,-9.13,9.71,-3.68,13.82
22.10707688331604,-11.2,11.59,-5.15,16.92
22.10810685157776,-12.93,11.72,-6.65,18.67
22.121797800064087,-14.16,10.97,-7.04,19.24
22.122859001159668,-14.87,10.89,-7.2,19.78
22.138819932937622,-13.44,13.41,-4.78,19.57
22.166556119918823,-7.61,15.05,-4.85,17.54
22.167706966400146,0.31,11.65,-8.56,14.46
22.168553113937378,5.16,9.6,-6.57,12.72
22.17098593711853,3.36,4.32,-4.72,7.22
22.19158697128296,-2.01,-1.68,-5.95,6.5
22.192641973495483,-3.57,-4.59,-7.5,9.49
22.208094835281372,2.41,0.42,-4.56,5.17
22.209146976470947,6.58,0.36,-1.05,6.67
22.22355008125305,1.83,-3.05,-5.68,6.7
22.226936101913452,-3.19,-3.88,-6.08,7.88
22.26719093322754,-6.83,-4.02,-4.63,9.17
22.268173933029175,-10.06,-3.16,-4.85,11.6
22.270177125930786,-12.16,-2.83,-4.91,13.41
22.272156953811646,-11.94,-3.43,-3.26,12.84
22.276429891586304,-9.26,-5.01,-1.01,10.57
22.2866108417511,-6.83,-6.71,0.6,9.59
22.296576023101807,-5.81,-8.09,1.01,10.01
22.306517839431763,-5.82,-8.35,0.75,10.2
22.316224813461304,-6.45,-7.1,0.11,9.59
22.326203107833862,-6.6,-6.25,-0.99,9.14
22.36295795440674,-5.92,-6.15,-2.29,8.83
22.3640239238739,-5.04,-6.09,-3.08,8.48
22.364868879318237,-4.26,-6.19,-3.5,8.28
22.375780820846558,-3.7,-6.45,-3.91,8.4
22.376828908920288,-3.13,-6.71,-4.11,8.46
22.39112901687622,-2.45,-7.07,-4.3,8.63
22.395397901535034,-1.62,-7.56,-4.47,8.93
22.40851902961731,-0.64,-7.96,-4.65,9.24
22.41531991958618,0.55,-8.19,-4.61,9.41
22.425355911254883,1.72,-8.13,-4.23,9.32
22.46363592147827,2.48,-7.54,-3.4,8.63
22.465075969696045,2.92,-6.39,-2.69,7.52
22.46610713005066,4.04,-4.77,-2.29,6.65
22.47531795501709,5.97,-2.54,-0.97,6.55
22.47633695602417,8.14,0.46,0.93,8.2
22.49158000946045,10.01,4.09,3.34,11.31
22.494685888290405,11.49,8.07,5.27,14.99
22.5081570148468,12.45,12.27,6.36,18.6
22.51504397392273,13.51,16.3,7.13,22.33
22.52489686012268,14.9,18.92,7.03,25.08
22.561938047409058,16.86,18.43,6.11,25.71
22.563352823257446,19.13,15.59,5.53,25.29
22.564270973205566,20.02,12.71,6.77,24.66
22.57602596282959,19.77,10.34,8.33,23.81
22.57705807685852,16.09,12.04,8.56,21.84
22.591799020767212,7.72,6.81,5.42,11.63
22.594053030014038,-2.38,-2.33,-4.07,5.25
22.607872009277344,-14.04,-3.28,-13.92,20.04
22.61407494544983,-25.97,26.09,-14.27,39.48
22.624489068984985,-19.78,34.05,4.99,39.69
22.65965485572815,-7.83,8.41,7.42,13.67
22.66093897819519,0.8,-5.29,5.39,7.59
22.66190195083618,8.14,-5.71,6.46,11.85
22.67594885826111,10.99,-6.82,3.94,13.52
22.67702293395996,10.86,-6.37,-0.26,12.59
22.69195580482483,9.74,-3.74,-2.3,10.68
22.693006992340088,6.73,-0.83,-1.76,7.0
22.708441019058228,3.2,1.74,-2.72,4.54
22.713125944137573,1.11,1.91,-2.12,3.06
22.72412896156311,0.48,0.39,0.76,0.97
22.73340892791748,0.62,-0.73,3.09,3.23
22.764933824539185,0.21,-0.65,3.48,3.54
22.766119956970215,-0.54,-0.13,2.16,2.23
22.767380952835083,-0.36,0.16,0.29,0.48
22.772547006607056,0.63,0.2,-0.56,0.86
22.782721996307373,1.41,0.04,-0.54,1.51
22.79250407218933,1.15,-0.3,0.03,1.18
22.802563905715942,0.48,-0.46,0.5,0.83
22.81261706352234,0.63,-0.41,-0.03,0.75
22.822813987731934,1.18,-0.35,-0.7,1.41
22.832547903060913,1.16,-0.18,-0.91,1.48
22.863425970077515,0.51,0.01,-0.44,0.67
22.86477780342102,-0.15,0.08,0.5,0.52
22.8657968044281,-0.38,-0.03,1.19,1.24
22.876001119613647,-0.28,-0.11,0.99,1.03
22.882057905197144,-0.03,-0.05,-0.09,0.1
22.891807794570923,0.17,0.24,-0.95,0.99
22.901948928833008,0.09,0.45,-1.13,1.21
22.91153597831726,-0.18,0.54,-0.96,1.11
22.922054052352905,-0.31,0.51,-0.57,0.82
22.93183398246765,-0.39,0.39,-0.32,0.63
22.962351083755493,-0.69,0.42,-0.06,0.81
22.96375012397766,-1.1,0.61,0.14,1.26
22.964723825454712,-1.35,0.74,-0.11,1.54
22.97595500946045,-1.25,0.78,-0.36,1.51
22.98125910758972,-1.04,0.66,-0.7,1.41
22.990925073623657,-0.88,0.64,-0.73,1.31
23.001167058944702,-0.79,0.66,-0.83,1.32
23.010853052139282,-0.81,0.72,-1.14,1.57
23.0212619304657,-0.82,0.92,-1.5,1.94
23.0308678150177,-1.02,1.11,-1.73,2.29
23.0620219707489,-1.68,1.49,-1.41,2.65
23.06330394744873,-2.4,1.81,-1.24,3.25
23.064346075057983,-3.04,2.34,-1.1,3.99
23.07551598548889,-3.06,2.65,-0.78,4.12
23.080352067947388,-2.69,2.8,-0.34,3.89
23.09153699874878,-2.33,2.83,-0.2,3.67
23.100361108779907,-2.41,2.91,-0.65,3.83
23.110273122787476,-2.75,3.13,-1.22,4.34
23.12081789970398,-3.08,3.47,-1.5,4.87
23.130231142044067,-3.38,3.89,-1.67,5.41
23.167904138565063,-3.69,4.14,-2.12,5.93
23.16931390762329,-4.19,4.65,-2.21,6.63
23.17028307914734,-5.05,5.6,-2.57,7.96
23.17252492904663,-6.21,6.35,-4.3,9.86
23.179601907730103,-7.31,7.28,-5.36,11.62
23.189400911331177,-8.2,8.2,-5.67,12.9
23.19956398010254,-8.77,8.39,-6.39,13.71
23.209471940994263,-8.95,7.73,-7.41,13.95
23.21957302093506,-9.43,7.13,-8.44,14.52
23.229578971862793,-9.49,10.41,-6.61,15.56
23.26744294166565,-7.71,15.44,-3.85,17.68
23.26886487007141,-3.22,16.9,-5.08,17.93
23.269845008850098,-0.05,13.57,-7.24,15.38
23.272117853164673,0.13,7.14,-7.45,10.31
23.278872966766357,-2.68,2.06,-7.12,7.88
23.288903951644897,-5.5,-1.48,-5.5,7.91
23.299021005630493,-2.82,-1.88,-5.23,6.23
23.308666944503784,4.93,5.02,0.27,7.04
23.318941831588745,6.65,2.82,3.72,8.12
23.328810930252075,1.02,-1.94,-0.84,2.34
23.366796016693115,-4.63,-3.52,-1.12,5.92
23.368265867233276,-8.43,-3.04,-0.19,8.96
23.369244813919067,-10.58,-2.55,0.25,10.88
23.37149691581726,-10.95,-2.44,0.83,11.24
23.39186406135559,-7.96,-3.15,2.17,8.83
23.392921924591064,-4.38,-4.97,2.67,7.14
23.408843994140625,-2.66,-6.77,2.53,7.7
23.410298109054565,-2.58,-7.77,2.18,8.47
23.424381017684937,-3.3,-7.74,1.5,8.54
23.427985906600952,-3.58,-6.89,0.49,7.78
23.46764588356018,-3.22,-6.22,-0.9,7.06
23.468825101852417,-2.92,-5.98,-1.75,6.88
23.47008204460144,-3.37,-5.93,-2.17,7.15
23.471839904785156,-3.85,-6.6,-2.86,8.15
23.477311849594116,-4.18,-7.14,-3.12,8.84
23.487481832504272,-4.52,-7.75,-2.85,9.41
23.497424840927124,-4.95,-8.13,-1.95,9.71
23.50731897354126,-5.43,-8.33,-1.23,10.01
23.517252922058105,-5.69,-8.84,-0.54,10.52
23.527323961257935,-5.71,-9.56,-0.08,11.13
23.53741693496704,-5.72,-9.94,0.26,11.47
23.56725287437439,-5.72,-10.03,0.79,11.57
23.568377017974854,-5.76,-9.89,1.41,11.53
23.569618940353394,-5.74,-9.75,2.03,11.49
23.576728105545044,-5.08,-9.45,2.41,10.99
23.592140913009644,-3.77,-8.73,2.44,9.81
23.596518993377686,-2.33,-7.22,2.66,8.03
23.608740091323853,-0.77,-4.75,2.56,5.45
23.61624789237976,1.63,-1.4,2.43,3.24
23.626353979110718,5.01,2.31,2.92,6.24
23.636416912078857,8.58,6.22,3.28,11.09
23.66818594932556,11.21,11.14,4.24,16.36
23.669345140457153,12.84,16.72,4.53,21.56
23.670583963394165,13.8,21.01,4.12,25.47
23.675840139389038,14.79,21.55,2.13,26.22
23.68650794029236,14.03,23.55,-1.01,27.43
23.695698976516724,15.3,25.28,-3.1,29.71
23.70573592185974,17.31,21.83,-10.58,29.8
23.71564292907715,6.66,12.56,-9.89,17.31
23.725414037704468,-4.72,17.2,-7.05,19.17
23.735635995864868,-6.17,16.85,1.46,18.0
23.764547109603882,-3.15,2.19,8.72,9.52
23.765650033950806,1.85,-1.78,11.86,12.13
23.766654014587402,7.18,2.77,9.76,12.42
23.775952100753784,6.42,-2.27,1.82,7.04
23.784868955612183,4.74,-2.91,-2.84,6.24
23.79489302635193,3.32,-0.03,-2.9,4.4
23.805076837539673,2.49,-0.01,-2.29,3.38
23.815088033676147,3.29,-0.62,-2.25,4.03
23.82476305961609,4.09,-0.23,-2.11,4.6
23.83484697341919,3.49,0.52,-1.45,3.81
23.86509680747986,1.9,0.48,-0.76,2.1
23.866041898727417,0.44,0.3,0.71,0.88
23.867106914520264,-0.59,0.1,2.14,2.22
23.874375104904175,-0.99,-0.45,2.71,2.92
23.884406805038452,-0.77,-0.96,1.95,2.3
23.894194841384888,-0.21,-0.64,0.71,0.97
23.90422296524048,0.15,0.05,0.01,0.15
23.9143807888031,0.01,0.24,0.09,0.25
23.924268007278442,-0.02,-0.12,0.33,0.35
23.934351921081543,0.44,-0.51,-0.32,0.74
23.971025943756104,1.11,-0.41,-1.06,1.58
23.972261905670166,1.32,-0.01,-1.1,1.71
23.97316002845764,0.79,0.21,-0.62,1.02
23.99289894104004,-0.06,0.19,0.22,0.29
23.994004011154175,-0.62,0.13,0.79,1.01
24.009033918380737,-0.8,0.08,0.61,1.0
24.010091066360474,-0.56,0.17,0.22,0.62
24.025656938552856,-0.26,0.23,-0.33,0.47
24.027058839797974,-0.07,0.23,-0.83,0.86
24.041066884994507,-0.12,0.29,-1.11,1.15
24.068970918655396,-0.19,0.4,-1.14,1.22
24.07038903236389,-0.27,0.44,-0.73,0.89
24.071382999420166,-0.56,0.43,-0.1,0.71
24.073566913604736,-0.88,0.37,0.23,0.98
24.08269190788269,-1.05,0.27,-0.07,1.08
24.092868089675903,-1.0,0.28,-0.52,1.16
24.102849006652832,-0.73,0.34,-0.81,1.14
24.112964868545532,-0.27,0.33,-0.88,0.97
24.12250304222107,0.1,0.3,-0.6,0.67
24.132880926132202,0.08,0.24,-0.5,0.56
24.168553113937378,-0.18,0.3,-0.42,0.54
24.16990900039673,-0.3,0.38,-0.3,0.56
24.17084813117981,-0.37,0.46,-0.24,0.63
24.173075914382935,-0.4,0.51,-0.28,0.7
24.182084798812866,-0.62,0.57,-0.36,0.91
24.192169904708862,-0.92,0.83,-0.43,1.31
24.201894998550415,-1.19,1.07,-0.76,1.77
24.21201205253601,-1.6,1.48,-0.76,2.3
24.221927881240845,-1.91,1.97,-0.86,2.87
24.23209309577942,-2.23,2.6,-1.07,3.58
24.27027702331543,-2.4,3.27,-1.1,4.2
24.27159810066223,-2.64,3.43,-1.25,4.5
24.27256178855896,-2.84,3.56,-1.38,4.75
24.29291081428528,-2.95,3.5,-1.79,4.91
24.293951988220215,-2.93,3.58,-2.01,5.04
24.308275938034058,-3.25,3.96,-1.98,5.49
24.309738874435425,-4.14,5.04,-1.87,6.78
24.326154947280884,-5.43,6.55,-2.36,8.82
24.327629804611206,-6.91,8.2,-3.27,11.21
24.341667890548706,-8.3,9.52,-4.44,13.38
24.343127965927124,-9.31,10.26,-5.9,15.05
24.387892961502075,-9.98,10.49,-7.15,16.14
24.389107942581177,-9.85,10.11,-7.51,15.98
24.390119791030884,-9.52,9.03,-8.41,15.58
24.40996813774109,-9.58,8.62,-8.8,15.6
24.4110848903656,-8.16,12.21,-5.13,15.55
24.426122903823853,-3.5,16.21,-3.34,16.91
24.427599906921387,1.8,13.98,-6.59,15.55
24.442771911621094,2.64,7.32,-7.87,11.06
24.44427800178528,-1.04,1.72,-7.4,7.66
24.458414793014526,-4.75,-2.47,-6.22,8.2
24.489103078842163,-2.83,-2.32,-4.33,5.66
24.490430116653442,3.88,2.69,0.98,4.82
24.491421937942505,3.89,-1.44,0.83,4.23
24.509909868240356,-1.31,-4.18,-3.12,5.37
24.51094698905945,-5.34,-4.4,-2.51,7.36
24.52618384361267,-8.57,-3.7,-2.46,9.65
24.527671098709106,-10.89,-3.32,-3.12,11.8
24.542768001556396,-11.52,-2.99,-2.73,12.21
24.54427194595337,-9.72,-3.24,-1.08,10.3
24.558202028274536,-7.28,-4.79,0.62,8.73
24.588788986206055,-5.89,-6.52,1.86,8.98
24.590110063552856,-5.58,-7.81,2.53,9.92
24.59113597869873,-5.61,-8.13,2.34,10.15
24.609538793563843,-5.55,-7.54,1.36,9.46
24.61060094833374,-5.46,-6.51,0.21,8.49
24.6262629032135,-5.37,-5.78,-0.8,7.93
24.627736806869507,-4.98,-5.16,-1.66,7.36
24.64283800125122,-4.45,-4.49,-2.15,6.67
24.644320011138916,-3.79,-4.31,-2.3,6.18
24.65851092338562,-3.24,-4.84,-2.15,6.2
24.687947034835815,-2.94,-5.61,-1.84,6.59
24.689255952835083,-2.73,-6.3,-1.41,7.0
24.690253973007202,-2.45,-6.91,-1.07,7.4
24.709696054458618,-2.18,-7.32,-0.67,7.66
24.710742950439453,-2.13,-7.52,-0.12,7.81
24.72625708580017,-2.13,-7.41,0.46,7.72
24.727627992630005,-1.91,-6.78,0.96,7.1
24.742976903915405,-1.11,-5.57,1.04,5.77
24.7444429397583,0.63,-4.2,0.84,4.32
24.75841999053955,2.89,-2.73,1.06,4.11
24.787123918533325,5.0,-0.89,1.85,5.4
24.788469076156616,6.6,1.67,2.86,7.38
24.789453983306885,7.78,4.67,3.83,9.84
24.80986499786377,9.14,7.91,4.44,12.87
24.810943841934204,11.48,11.37,5.09,16.94
24.825029134750366,13.96,14.18,5.2,20.56
24.82611584663391,15.77,16.33,4.94,23.23
24.84279179573059,17.35,17.13,5.53,25.0
24.844320058822632,18.63,14.53,6.08,24.39
24.857340097427368,19.17,11.07,8.15,23.58
24.8852961063385,17.15,10.53,8.76,21.94
24.886740922927856,13.47,10.69,6.43,18.35
24.887696981430054,4.88,-0.79,-2.69,5.62
24.88989806175232,-7.61,-6.19,-17.17,19.77
24.89135479927063,-18.13,22.44,-20.86,35.6
24.896703958511353,-18.53,44.22,2.41,48.0
24.906575918197632,-10.46,11.17,8.16,17.34
24.916579008102417,-0.89,-7.69,5.49,9.49
24.926501989364624,7.43,-7.8,8.42,13.67
24.93620800971985,11.65,-7.5,7.6,15.8
24.971374988555908,11.79,-6.62,3.62,13.99
24.972661018371582,9.27,-2.77,1.25,9.75
24.973658800125122,4.9,0.66,0.01,4.94
24.99323582649231,1.57,2.57,-3.74,4.8
24.9942569732666,0.85,1.6,-4.37,4.73
25.009473085403442,1.67,-0.13,-1.36,2.15
25.010528802871704,1.77,-0.64,1.73,2.55
25.02636194229126,0.76,-0.54,3.07,3.2
25.027808904647827,-0.23,-0.46,1.63,1.7
25.042020082473755,-0.27,-0.03,0.53,0.59
25.07182002067566,0.26,0.32,0.11,0.42
25.073150873184204,0.55,0.13,-0.1,0.57
25.074186086654663,0.42,-0.15,0.08,0.45
25.094928979873657,0.29,-0.26,-0.13,0.41
25.095967054367065,0.32,-0.15,-0.36,0.5
25.10832691192627,0.34,0.04,-0.82,0.88
25.109404802322388,0.4,0.15,-1.28,1.34
25.126374006271362,0.38,0.23,-0.91,1.01
25.12785792350769,0.08,0.18,-0.17,0.26
25.14168095588684,-0.49,0.02,0.57,0.75
25.144979000091553,-1.08,0.08,1.02,1.48
25.184440851211548,-1.18,0.22,0.33,1.24
25.185651063919067,-0.53,0.34,-0.91,1.1
25.18688702583313,0.31,0.41,-1.53,1.61
25.18915295600891,0.42,0.34,-1.2,1.31
25.209562063217163,-0.2,0.28,-0.61,0.7
25.210618019104004,-0.93,0.29,-0.21,0.99
25.226456880569458,-1.24,0.5,0.12,1.34
25.227959871292114,-0.96,0.62,0.26,1.17
25.24204182624817,-0.48,0.46,0.15,0.68
25.244181871414185,-0.2,0.25,0.07,0.32
25.28709101676941,-0.1,0.07,-0.13,0.17
25.288244009017944,-0.03,-0.01,-0.3,0.3
25.289232969284058,0.19,0.06,-0.31,0.36
25.31061601638794,0.3,0.09,-0.26,0.4
25.311671018600464,0.13,0.2,-0.32,0.39
25.326178789138794,-0.19,0.39,-0.41,0.59
25.327222108840942,-0.62,0.62,-0.47,0.99
25.34308886528015,-1.15,0.89,-0.48,1.53
25.344530820846558,-1.66,1.22,-0.42,2.1
25.359128952026367,-2.02,1.59,-0.23,2.58
25.386654138565063,-2.15,1.65,-0.56,2.76
25.38801407814026,-2.15,1.79,-0.87,2.92
25.388965845108032,-2.05,2.01,-1.61,3.29
25.41055393218994,-1.52,2.32,-1.83,3.32
25.411617040634155,-1.18,2.66,-1.77,3.4
25.42605710029602,-1.44,2.87,-1.94,3.75
25.427128076553345,-2.06,3.04,-2.11,4.23
25.44333791732788,-2.64,3.23,-1.79,4.53
25.444783926010132,-2.96,3.38,-1.36,4.69
25.458821058273315,-3.24,3.44,-1.33,4.9
25.486568927764893,-3.83,3.75,-1.79,5.65
25.487984895706177,-5.02,4.65,-2.54,7.29
25.488996982574463,-6.25,6.19,-3.17,9.35
25.510324001312256,-7.46,7.61,-3.91,11.35
25.51136612892151,-8.85,9.06,-4.37,13.39
25.526347875595093,-10.07,10.35,-5.99,15.63
25.527446031570435,-11.02,10.95,-8.19,17.56
25.540390014648438,-11.71,10.9,-10.38,19.07
25.54191279411316,-11.61,11.58,-10.71,19.58
25.556452989578247,-9.04,15.15,-7.94,19.34
25.583813905715942,-3.75,15.65,-6.61,17.39
25.585169076919556,1.87,12.97,-6.57,14.65
25.586257934570312,3.77,9.11,-4.73,10.93
25.588927030563354,0.44,3.05,-5.82,6.58
25.610013961791992,-3.78,-1.45,-5.5,6.82
25.611084938049316,-1.9,-2.2,-5.45,6.17
25.626343965530396,5.48,3.56,-1.02,6.61
25.62738299369812,6.75,-0.25,0.77,6.79
25.64214301109314,0.46,-4.31,-4.31,6.11
25.64363694190979,-5.0,-5.1,-3.77,8.07
25.68541693687439,-8.55,-4.28,-2.49,9.88
25.686578035354614,-11.11,-3.74,-2.47,11.98
25.6877179145813,-11.86,-3.6,-1.87,12.53
25.689759969711304,-9.49,-4.02,-0.17,10.3
25.691245794296265,-6.27,-5.36,0.92,8.29
25.700865983963013,-4.78,-6.76,0.95,8.33
25.710587978363037,-4.87,-7.61,0.4,9.04
25.720431089401245,-5.41,-7.57,-0.34,9.31
25.730512857437134,-5.38,-7.0,-1.62,8.97
25.740710973739624,-5.13,-6.45,-2.61,8.64
25.777004957199097,-4.69,-6.4,-3.65,8.73
25.778178930282593,-3.94,-6.28,-4.14,8.49
25.779266119003296,-2.88,-6.59,-4.52,8.49
25.793540000915527,-2.26,-6.94,-4.45,8.54
25.794601917266846,-2.21,-7.45,-4.0,8.73
25.809534788131714,-2.34,-8.35,-3.82,9.47
25.810560941696167,-2.29,-9.08,-3.78,10.09
25.82669711112976,-1.88,-9.4,-3.64,10.25
25.829818964004517,-1.36,-9.55,-3.42,10.23
25.842303037643433,-0.97,-9.75,-2.83,10.19
25.876549005508423,-0.59,-9.49,-1.78,9.67
25.877870798110962,-0.19,-9.06,-0.82,9.09
25.878918886184692,0.44,-8.35,-0.3,8.36
25.893587827682495,1.81,-6.72,-0.05,6.95
25.89465594291687,3.74,-4.52,0.84,5.92
25.909714937210083,5.76,-1.87,2.43,6.52
25.910741090774536,7.48,1.21,3.99,8.56
25.926738023757935,8.56,4.68,5.16,11.03
25.92898392677307,9.28,8.48,5.82,13.85
25.942327976226807,10.34,13.19,6.37,17.92
25.948781967163086,11.97,17.88,7.17,22.68
25.98483896255493,13.53,21.18,8.17,26.42
25.9860360622406,15.29,20.95,9.06,27.47
25.98727798461914,16.66,16.66,9.91,25.56
25.989821910858154,15.58,14.16,10.3,23.43
26.006829977035522,14.13,14.96,7.66,21.95
26.008124113082886,12.28,5.75,-0.37,13.56
26.02686381340027,0.17,-6.22,-13.49,14.85
26.02890181541443,-14.13,3.16,-24.38,28.35
26.042253017425537,-20.77,40.1,-4.37,45.37
26.048052072525024,-17.56,24.16,10.42,31.63
26.083719968795776,-2.16,3.29,8.86,9.69
26.084891080856323,7.45,-5.71,7.51,12.02
26.08618187904358,9.83,-10.47,4.92,15.18
26.090081930160522,10.6,-9.74,0.86,14.42
26.097782850265503,9.14,-4.82,2.06,10.53
26.110127925872803,4.89,-1.84,0.97,5.31
26.11755108833313,1.29,-0.71,-1.96,2.45
26.127511978149414,0.53,2.19,-2.47,3.34
26.137584924697876,0.98,3.02,-1.58,3.54
26.14751887321472,1.64,0.41,0.68,1.82
26.17934799194336,1.29,-0.87,1.79,2.37
26.180693864822388,0.37,-0.76,1.83,2.01
26.181700944900513,-0.19,-0.26,1.57,1.6
26.19305992126465,0.1,0.15,0.35,0.39
26.196939945220947,0.45,0.24,-0.52,0.72
26.210138082504272,0.27,0.34,-0.07,0.43
26.21664309501648,-0.03,0.15,0.12,0.19
26.226881980895996,0.4,-0.24,-0.31,0.56
26.237018823623657,1.23,-0.48,-0.73,1.5
26.246626138687134,1.43,-0.53,-0.75,1.69
26.27879309654236,1.02,-0.32,-0.27,1.1
26.280062913894653,0.56,-0.17,0.3,0.65
26.281076908111572,0.28,-0.17,0.68,0.75
26.293915033340454,0.11,-0.08,0.84,0.85
26.296052932739258,-0.02,0.01,0.55,0.55
26.309964895248413,-0.06,0.1,0.01,0.11
26.3159339427948,-0.04,0.21,-0.51,0.55
26.32618498802185,0.07,0.29,-0.8,0.85
26.336131811141968,-0.02,0.32,-0.66,0.73
26.346001863479614,-0.22,0.35,-0.39,0.56
26.385310888290405,-0.51,0.34,0.03,0.61
26.38656210899353,-0.79,0.38,0.26,0.91
26.387496948242188,-0.9,0.4,-0.01,0.98
26.389932870864868,-0.99,0.49,-0.49,1.2
26.395359992980957,-1.1,0.62,-0.78,1.48
26.405520915985107,-1.17,0.7,-0.98,1.67
26.415467977523804,-1.28,0.74,-1.13,1.86
26.4255211353302,-1.28,0.85,-1.43,2.09
26.435531854629517,-1.21,0.98,-1.75,2.34
26.44535994529724,-1.34,1.1,-2.05,2.68
26.483389139175415,-1.6,1.26,-2.06,2.89
26.484583139419556,-1.79,1.37,-1.94,2.97
26.485615015029907,-1.88,1.45,-1.75,2.94
26.49002695083618,-1.89,1.65,-1.39,2.86
26.494833946228027,-1.99,1.83,-1.31,3.0
26.5103759765625,-2.15,2.04,-1.34,3.25
26.514452934265137,-2.36,2.48,-1.51,3.74
26.526772022247314,-2.42,3.33,-1.24,4.29
26.534927129745483,-2.78,3.84,-1.18,4.88
26.54426097869873,-3.32,4.3,-1.29,5.58
26.58148193359375,-3.93,4.64,-1.64,6.29
26.582788944244385,-4.41,4.98,-1.98,6.94
26.58386492729187,-4.84,5.54,-2.22,7.68
26.59365487098694,-5.86,6.67,-3.22,9.44
26.5947048664093,-7.33,8.43,-4.37,11.99
26.61025094985962,-8.74,10.41,-4.94,14.46
26.61363911628723,-10.29,11.83,-6.07,16.81
26.627214908599854,-11.17,12.07,-8.26,18.4
26.633912801742554,-11.07,10.8,-10.2,18.52
26.643616914749146,-10.82,9.39,-11.42,18.32
26.68083691596985,-10.34,10.14,-10.66,17.98
26.68214201927185,-7.69,15.11,-5.28,17.75
26.683138132095337,-2.16,17.66,-2.32,17.94
26.6942617893219,2.25,11.75,-4.8,12.89
26.69532084465027,2.03,3.73,-6.05,7.39
26.710307836532593,-1.55,-1.1,-5.42,5.74
26.712897062301636,-2.03,-2.04,-3.77,4.74
26.727028131484985,3.86,2.84,3.08,5.69
26.733242988586426,4.51,-1.94,2.95,5.72
26.74286389350891,-1.45,-5.81,-3.73,7.05
26.752887964248657,-5.66,-5.46,-3.04,8.43
26.785573959350586,-8.06,-4.05,-1.65,9.16
26.78673791885376,-9.49,-3.67,-1.57,10.29
26.788763999938965,-8.65,-3.87,-0.67,9.49
26.792271852493286,-5.74,-5.12,-0.31,7.69
26.802462816238403,-3.56,-6.29,-0.18,7.22
26.812331914901733,-3.5,-6.82,0.33,7.67
26.82214379310608,-4.11,-7.59,0.17,8.63
26.832072973251343,-4.43,-7.9,-0.26,9.06
26.842278957366943,-4.59,-7.85,-0.79,9.12
26.85221791267395,-4.42,-8.23,-1.68,9.49
26.884392023086548,-4.15,-8.38,-2.28,9.62
26.885777950286865,-4.09,-8.16,-2.65,9.5
26.886765956878662,-3.84,-8.18,-2.99,9.51
26.891452074050903,-3.37,-8.29,-3.22,9.51
26.910351991653442,-3.12,-8.33,-3.03,9.39
26.911360025405884,-3.16,-8.38,-2.53,9.3
26.926522970199585,-3.29,-8.28,-1.91,9.11
26.931287050247192,-3.19,-8.14,-1.57,8.88
26.942506074905396,-2.83,-8.15,-1.64,8.78
26.951565980911255,-2.43,-8.01,-1.76,8.55
26.98310399055481,-2.17,-7.58,-1.59,8.04
26.98426079750061,-2.04,-6.8,-1.26,7.21
26.98539400100708,-1.35,-5.64,-1.15,5.91
26.9908549785614,0.63,-4.34,-0.78,4.45
27.000674962997437,3.47,-3.21,0.14,4.72
27.010677099227905,6.4,-1.86,1.53,6.83
27.02046513557434,8.73,0.17,3.16,9.28
27.030650854110718,10.3,2.42,4.55,11.51
27.040950059890747,11.14,4.43,5.72,13.28
27.050803899765015,11.62,6.66,7.4,15.3
27.082148790359497,12.34,9.21,9.35,18.01
27.083604097366333,12.29,10.86,10.33,19.38
27.084794998168945,11.78,11.19,10.32,19.24
27.094931840896606,10.98,10.78,9.65,18.16
27.10043978691101,10.39,11.18,10.03,18.26
27.109995126724243,10.45,12.13,9.44,18.58
27.119669914245605,12.19,14.16,3.61,19.02
27.1303870677948,7.75,2.01,-8.81,11.9
27.14011001586914,-9.12,-5.84,-25.68,27.87
27.150041818618774,-18.99,32.47,-23.47,44.33
27.18652892112732,-16.93,49.8,7.77,53.16
27.188013792037964,-8.0,8.68,4.93,12.79
27.189018964767456,3.23,-5.6,4.92,8.12
27.190798044204712,10.92,-6.29,12.4,17.67
27.199456930160522,12.18,-9.1,5.71,16.24
27.209399938583374,11.98,-8.7,-0.05,14.8
27.219227075576782,9.48,-4.97,0.83,10.73
27.22933793067932,4.87,-2.15,-0.13,5.32
27.23906111717224,1.37,-0.42,-0.36,1.47
27.249249935150146,-0.68,2.99,-0.59,3.12
27.285035848617554,-1.72,4.11,-1.73,4.77
27.28638005256653,-0.59,1.83,-0.87,2.11
27.28737998008728,1.21,0.21,0.04,1.22
27.29063105583191,1.94,-0.86,0.9,2.3
27.310451984405518,1.28,-1.56,2.06,2.88
27.311563968658447,0.22,-1.44,1.93,2.41
27.327144861221313,0.08,-0.7,0.75,1.02
27.32819700241089,0.68,0.07,-0.37,0.77
27.34284996986389,1.31,0.27,-0.8,1.55
27.348259925842285,1.5,-0.06,-0.32,1.53
27.385205030441284,0.98,-0.33,0.54,1.16
27.38640809059143,0.24,-0.19,1.04,1.08
27.387656927108765,0.01,-0.02,0.88,0.88
27.390415906906128,0.01,0.11,0.25,0.27
27.410538911819458,0.01,0.29,-0.26,0.38
27.411543130874634,-0.06,0.34,-0.58,0.67
27.427150011062622,-0.16,0.21,-0.53,0.59
27.428181886672974,-0.21,0.06,-0.45,0.5
27.44276785850525,-0.06,-0.04,-0.34,0.34
27.44757890701294,-0.01,0.12,-0.42,0.43
27.48535180091858,-0.15,0.49,-0.68,0.85
27.48654794692993,-0.61,0.8,-0.95,1.38
27.487793922424316,-1.3,0.92,-1.18,1.98
27.490214109420776,-2.22,0.98,-1.48,2.84
27.510710954666138,-3.13,1.01,-1.94,3.81
27.511793851852417,-3.6,0.99,-2.08,4.27
27.527293920516968,-2.68,0.95,-1.82,3.37
27.52830195426941,-0.9,0.79,-1.04,1.58
27.543011903762817,0.27,0.5,-0.69,0.89
27.54682183265686,0.59,0.22,-1.08,1.25
27.55908703804016,0.33,0.04,-1.39,1.42
27.586731910705566,-0.16,0.02,-1.24,1.25
27.58809208869934,-0.4,0.09,-0.85,0.94
27.589100122451782,-0.48,0.1,-0.54,0.72
27.59633183479309,-0.66,0.08,-0.39,0.77
27.606379985809326,-1.06,0.25,-0.03,1.08
27.61631989479065,-1.2,0.69,0.08,1.38
27.62625813484192,-0.91,1.12,0.0,1.44
27.636043787002563,-0.82,1.47,-0.16,1.69
27.64626383781433,-1.18,2.08,-0.38,2.42
27.656244039535522,-1.52,2.38,-0.45,2.85
27.688042879104614,-2.3,3.25,-0.27,3.99
27.689299821853638,-3.07,4.33,-0.3,5.31
27.69029688835144,-3.81,4.82,-0.69,6.18
27.711551904678345,-4.52,5.18,-0.82,6.92
27.712605953216553,-5.24,5.53,-1.71,7.8
27.727172136306763,-5.84,6.58,-2.62,9.17
27.728224992752075,-7.2,8.96,-4.23,12.24
27.744354009628296,-8.83,11.78,-7.28,16.42
27.745880842208862,-10.0,13.67,-10.1,19.72
27.759198904037476,-11.03,14.37,-10.59,20.98
27.786857843399048,-11.44,13.85,-10.56,20.83
27.78824496269226,-11.33,11.36,-11.47,19.72
27.789237022399902,-10.52,9.34,-10.17,17.35
27.794790029525757,-7.9,11.7,-5.64,15.2
27.804808855056763,-2.49,13.69,-3.23,14.28
27.814992904663086,3.42,13.23,-3.16,14.02
27.824433088302612,3.97,6.78,-2.9,8.37
27.83470392227173,0.14,-1.29,-5.47,5.62
27.844770908355713,0.03,-3.05,-6.94,7.58
27.85447907447815,5.05,2.26,-0.78,5.58
27.88696599006653,4.15,-0.53,0.2,4.18
27.88812279701233,-2.48,-3.06,-4.97,6.34
27.889323949813843,-6.73,-2.89,-4.25,8.46
27.893952131271362,-9.56,-1.99,-3.56,10.39
27.903942823410034,-11.63,-1.8,-3.88,12.39
27.914042949676514,-10.79,-2.28,-2.26,11.25
27.924071073532104,-8.03,-3.98,-0.89,9.0
27.934119939804077,-6.13,-6.42,-0.25,8.88
27.944212913513184,-5.4,-8.57,-0.3,10.13
27.953787088394165,-5.02,-9.92,-0.67,11.13
27.991663932800293,-4.74,-10.11,-1.1,11.22
27.993050813674927,-4.7,-10.08,-1.98,11.29
27.994067907333374,-4.8,-9.87,-2.91,11.35
28.011472940444946,-4.84,-9.55,-3.53,11.27
28.01253390312195,-4.58,-9.43,-4.1,11.25
28.02770495414734,-4.05,-9.39,-4.29,11.08
28.029135942459106,-3.54,-9.42,-4.16,10.88
28.045750856399536,-3.21,-9.56,-4.1,10.88
28.04707098007202,-2.99,-9.65,-4.26,10.96
28.059937000274658,-2.66,-9.59,-4.3,10.84
28.09004282951355,-2.12,-9.37,-4.21,10.48
28.09136390686035,-1.41,-9.13,-3.81,9.99
28.092375993728638,-0.43,-8.9,-3.29,9.49
28.111382007598877,0.64,-8.73,-2.54,9.11
28.112455129623413,1.58,-8.29,-1.83,8.63
28.127514123916626,2.71,-7.3,-2.16,8.08
28.128487825393677,4.3,-5.65,-2.16,7.42
28.144367933273315,5.95,-3.86,-0.94,7.15
28.145830869674683,7.04,-1.22,1.3,7.26
28.159905910491943,8.19,2.05,3.42,9.1
28.187793016433716,9.68,4.99,4.84,11.91
28.18915581703186,11.23,7.64,6.2,14.93
28.190146923065186,13.13,10.7,8.38,18.89
28.210066080093384,15.15,13.56,10.66,22.95
28.211216926574707,16.61,14.03,11.66,24.67
28.224528074264526,16.58,12.87,12.66,24.51
28.225575923919678,13.45,13.21,13.88,23.41
28.2417049407959,8.77,13.72,15.35,22.37
28.243200063705444,7.28,14.39,15.91,22.65
28.260363817214966,7.69,9.19,3.8,12.57
28.287467002868652,-3.78,-4.88,-18.68,19.67
28.288902044296265,-22.36,-5.42,-52.94,57.72
28.28996205329895,-31.82,36.76,-15.74,51.1
28.292260885238647,-24.26,53.42,33.49,67.55
28.301378965377808,-7.54,18.75,9.23,22.21
28.310702085494995,5.73,0.8,7.32,9.33
28.32083010673523,6.84,-8.66,6.22,12.66
28.33102583885193,7.06,-13.24,-3.27,15.35
28.341125011444092,8.42,-13.51,-6.01,17.01
28.35094904899597,8.97,-9.1,-1.73,12.89
28.36079502105713,9.27,-4.46,2.86,10.67
28.39156198501587,8.23,-1.24,3.62,9.07
28.39274001121521,3.61,0.47,1.45,3.91
28.393749952316284,-0.83,1.55,1.1,2.07
28.41159701347351,-3.22,2.99,2.31,4.96
28.412678003311157,-3.84,3.55,1.9,5.56
28.427539110183716,-2.18,1.65,-0.22,2.74
28.429836988449097,1.05,-0.53,-0.73,1.38
28.44452214241028,2.69,-1.22,-0.87,3.07
28.449996948242188,2.1,-1.12,-0.91,2.54
28.4600031375885,1.04,-0.62,-0.96,1.54
28.492160081863403,0.99,-0.43,-0.9,1.4
28.493494987487793,1.33,-0.58,-0.53,1.54
28.494491815567017,1.25,-0.57,0.01,1.37
28.511665105819702,0.65,-0.31,0.52,0.88
28.512743949890137,0.12,0.05,0.9,0.9
28.527832984924316,0.0,0.2,1.19,1.2
28.528923988342285,-0.1,0.15,1.32,1.33
28.544481992721558,-0.14,0.06,0.92,0.93
28.5492160320282,0.09,-0.11,0.15,0.2
28.55997395515442,0.43,-0.14,-0.24,0.51
28.590553045272827,0.47,0.0,0.06,0.47
28.591928958892822,0.13,-0.02,0.02,0.13
28.59294581413269,-0.23,0.05,-0.25,0.34
28.611446142196655,-0.45,0.31,-0.06,0.54
28.612525939941406,-0.54,0.43,-0.14,0.7
28.628262996673584,-0.67,0.49,-0.47,0.95
28.6297550201416,-0.91,0.68,-0.57,1.27
28.64507293701172,-1.19,0.76,-0.91,1.67
28.648602962493896,-1.49,0.75,-1.23,2.07
28.660146951675415,-1.65,0.87,-1.25,2.24
28.69116711616516,-1.62,0.98,-1.37,2.33
28.692500829696655,-1.31,1.02,-1.53,2.25
28.693506956100464,-0.92,1.07,-1.34,1.94
28.711694955825806,-0.78,1.23,-1.08,1.81
28.71274495124817,-1.11,1.32,-1.17,2.08
28.728051900863647,-1.66,1.47,-1.23,2.53
28.729533910751343,-2.1,1.89,-0.78,2.93
28.74500799179077,-2.0,2.05,-0.67,2.94
28.74775791168213,-2.03,1.8,-1.33,3.02
28.76020884513855,-2.4,2.38,-0.93,3.5
28.79586911201477,-2.24,2.82,-0.95,3.72
28.797273874282837,-2.36,2.98,-1.22,3.99
28.798277139663696,-2.57,3.24,-1.41,4.36
28.811865091323853,-2.57,3.31,-1.51,4.45
28.812833070755005,-2.78,3.36,-1.21,4.52
28.827439069747925,-3.45,3.37,-1.35,5.0
28.828476905822754,-4.19,3.63,-1.5,5.74
28.844908952713013,-4.79,4.17,-1.53,6.53
28.846964120864868,-5.75,4.78,-2.11,7.76
28.860391855239868,-7.18,6.14,-2.72,9.83
28.89489197731018,-8.48,8.13,-3.32,12.2
28.89626908302307,-9.47,10.04,-4.75,14.59
28.897303819656372,-10.65,10.91,-7.03,16.78
28.91059398651123,-11.55,10.83,-8.73,18.08
28.91168189048767,-12.41,11.12,-9.52,19.19
28.92501401901245,-12.32,14.97,-6.99,20.6
28.926077127456665,-8.72,19.06,-4.26,21.38
28.942013025283813,-2.16,17.1,-7.38,18.74
28.946379899978638,2.03,11.42,-8.8,14.55
28.96003293991089,1.41,5.68,-8.17,10.04
28.993417024612427,-3.38,0.87,-7.77,8.51
28.99485993385315,-5.23,-2.38,-6.87,8.95
28.9958598613739,0.98,2.18,-4.09,4.73
29.011958837509155,7.42,4.12,3.52,9.18
29.01299786567688,4.3,-1.35,0.31,4.51
29.029266119003296,-2.44,-3.72,-4.11,6.05
29.030756950378418,-6.43,-4.26,-2.44,8.08
29.045081853866577,-9.61,-3.81,-2.44,10.62
29.04646897315979,-12.07,-3.62,-2.75,12.89
29.060374975204468,-12.9,-4.14,-2.72,13.81
29.09284806251526,-10.7,-5.05,-1.58,11.93
29.094202995300293,-7.43,-6.12,0.28,9.63
29.09522294998169,-5.43,-7.78,1.05,9.54
29.112058877944946,-4.82,-9.58,0.11,10.72
29.113126039505005,-5.44,-9.43,-0.32,10.89
29.12806010246277,-5.57,-8.82,-1.03,10.48
29.12954592704773,-5.35,-8.28,-1.99,10.05
29.144892930984497,-5.07,-7.85,-2.9,9.78
29.14635682106018,-4.46,-7.7,-3.49,9.55
29.16038680076599,-3.7,-7.67,-4.07,9.43
29.16475796699524,-3.11,-7.85,-4.39,9.51
29.206228017807007,-2.69,-8.28,-4.55,9.82
29.207410097122192,-2.24,-8.77,-4.5,10.1
29.20841693878174,-1.89,-8.87,-3.8,9.83
29.22891592979431,-1.71,-8.32,-2.39,8.82
29.230371952056885,-1.45,-7.66,-1.12,7.87
29.244796991348267,-0.64,-6.98,-0.81,7.05
29.246230840682983,0.53,-5.75,-0.89,5.84
29.26025080680847,1.85,-3.86,0.05,4.28
29.261645078659058,3.51,-1.23,1.81,4.13
29.27533793449402,5.59,2.33,4.21,7.37
29.30462384223938,7.92,6.1,5.9,11.6
29.30606484413147,10.32,9.68,6.72,15.66
29.307096004486084,12.23,12.68,6.61,18.81
29.309303045272827,13.61,15.27,5.52,21.18
29.313188791275024,15.25,16.94,3.57,23.07
29.32331395149231,17.37,16.61,1.8,24.1
29.3330659866333,19.78,15.19,1.73,24.99
29.343013048171997,21.33,12.79,2.74,25.02
29.353420972824097,20.44,14.2,4.37,25.26
29.3630268573761,18.43,13.53,5.04,23.41
29.392936944961548,10.3,2.25,-1.11,10.6
29.394248008728027,-3.26,-3.45,-10.43,11.45
29.395265817642212,-15.05,17.79,-9.81,25.28
29.40254807472229,-19.47,39.03,0.37,43.61
29.412965059280396,-12.76,16.74,4.34,21.49
29.42249608039856,-1.01,-3.25,3.42,4.82
29.432586908340454,6.3,-7.19,6.23,11.41
29.44251298904419,9.99,-8.92,7.07,15.14
29.452804803848267,10.97,-8.55,3.15,14.26
29.462547063827515,10.66,-5.17,0.86,11.87
29.494238138198853,7.16,-1.29,-0.13,7.27
29.495415925979614,3.48,1.86,-0.61,3.99
29.496449947357178,1.0,3.28,-2.44,4.2
29.512221097946167,0.12,1.47,-2.33,2.75
29.513296842575073,0.52,0.41,0.04,0.66
