time,ax,ay,az,atotal
0.006557941436767578,0.61,-0.68,-1.21,1.51
0.027189970016479492,0.69,-1.05,0.09,1.25
0.028839826583862305,-0.03,0.78,0.75,1.08
0.030527830123901367,0.04,0.72,-0.15,0.73
0.038153886795043945,-0.04,0.1,-0.32,0.33
0.04876995086669922,-0.13,0.0,-0.2,0.23
0.05839180946350098,-0.14,0.14,-0.21,0.28
0.06860089302062988,-0.08,0.11,-0.13,0.18
0.07821393013000488,-0.11,-0.08,0.0,0.13
0.08842587471008301,-0.11,-0.15,0.05,0.19
0.09834504127502441,-0.21,-0.16,0.25,0.36
0.12300801277160645,-0.24,-0.23,0.36,0.49
0.12461590766906738,0.06,-0.18,0.31,0.36
0.1278839111328125,0.32,-0.09,0.18,0.37
0.13984394073486328,0.19,-0.05,0.14,0.24
0.1478419303894043,-0.08,-0.03,0.13,0.15
0.15784382820129395,-0.1,-0.01,0.09,0.13
0.16806292533874512,-0.06,-0.03,0.06,0.09
0.17747712135314941,0.09,0.06,-0.01,0.1
0.19073700904846191,0.18,0.1,-0.15,0.25
0.19748592376708984,0.17,0.1,-0.17,0.26
0.2229321002960205,0.06,0.08,-0.12,0.15
0.22501492500305176,-0.1,0.03,0.05,0.11
0.22718405723571777,-0.03,0.01,0.15,0.15
0.23927807807922363,0.08,-0.03,0.09,0.12
0.24740195274353027,0.05,-0.05,0.04,0.08
0.25685691833496094,-0.06,-0.05,0.07,0.1
0.26691293716430664,-0.06,-0.09,0.18,0.21
0.2766249179840088,0.07,-0.13,0.17,0.22
0.28734707832336426,0.14,-0.14,0.17,0.26
0.3001999855041504,0.1,-0.15,0.25,0.3
0.32720494270324707,-0.08,-0.2,0.19,0.28
0.3287839889526367,-0.17,-0.17,0.19,0.3
0.33034205436706543,0.04,-0.18,0.04,0.18
0.3407859802246094,0.22,-0.27,-0.13,0.37
0.3462989330291748,0.29,-0.18,-0.05,0.34
0.35614705085754395,0.26,-0.12,-0.01,0.28
0.3662397861480713,0.06,-0.17,-0.05,0.18
0.37601208686828613,-0.07,-0.14,-0.04,0.16
0.3867161273956299,-0.05,0.02,-0.23,0.23
0.3987720012664795,-0.05,-0.31,-0.04,0.31
0.4264390468597412,0.22,-0.62,0.24,0.7
0.4280698299407959,0.78,-0.41,1.78,1.98
0.4297778606414795,0.22,0.53,0.92,1.08
0.44094395637512207,0.09,0.41,-0.35,0.54
0.44559788703918457,0.63,-0.16,-0.38,0.75
0.4560978412628174,0.68,-0.19,-0.05,0.7
0.4655740261077881,0.4,-0.15,0.38,0.57
0.4751439094543457,0.1,0.04,0.51,0.52
0.48592400550842285,0.0,-0.03,-0.21,0.21
0.49791693687438965,0.24,-0.06,-0.38,0.45
0.5260999202728271,0.56,0.01,-0.21,0.59
0.5277478694915771,0.62,-0.03,0.04,0.62
0.5294549465179443,0.46,-0.08,0.13,0.48
0.5411739349365234,0.37,-0.13,0.32,0.5
0.5448610782623291,0.33,-0.21,0.22,0.44
0.5561649799346924,0.27,-0.31,0.02,0.41
0.5648989677429199,0.2,-0.27,0.08,0.34
0.5747010707855225,0.12,-0.11,0.38,0.41
0.5847060680389404,0.0,-0.05,0.35,0.35
0.5968468189239502,-0.02,-0.07,0.2,0.21
0.6254408359527588,0.26,0.09,-0.04,0.27
0.6270709037780762,1.58,0.31,-1.01,1.9
0.6285970211029053,2.77,0.0,-1.05,2.96
0.6404809951782227,2.81,-0.32,-0.63,2.89
0.644028902053833,1.31,-0.52,0.3,1.44
0.6554009914398193,-1.47,-0.74,1.77,2.41
0.6641218662261963,-3.36,-0.6,2.09,4.0
0.6736710071563721,-3.91,-0.19,1.36,4.14
0.6838400363922119,-3.13,0.25,0.22,3.14
0.6937248706817627,-1.98,0.57,-0.15,2.06
0.7066669464111328,-1.83,0.83,-0.26,2.02
0.7322049140930176,-1.01,0.58,-1.03,1.55
0.7337701320648193,-0.31,0.38,-1.03,1.14
0.7353041172027588,-0.61,0.4,-0.22,0.76
0.7435729503631592,-1.08,0.18,0.52,1.21
0.7533018589019775,-1.24,-0.14,0.77,1.46
0.7633168697357178,-0.99,-0.31,0.66,1.22
0.7731459140777588,-0.38,-0.27,0.08,0.47
0.7829887866973877,0.02,0.09,-0.25,0.26
0.7929549217224121,-0.05,0.41,-0.12,0.43
0.8035259246826172,-0.23,0.53,0.25,0.62
0.8309469223022461,0.04,0.19,0.4,0.44
0.83260178565979,0.56,-0.43,0.39,0.8
0.8343849182128906,0.99,-0.65,0.58,1.31
0.8427639007568359,0.96,-0.46,0.56,1.2
0.8564560413360596,0.57,-0.06,0.35,0.67
0.8623788356781006,0.25,0.3,0.17,0.42
0.8720390796661377,0.11,0.41,-0.07,0.43
0.8822610378265381,-0.09,0.28,-0.21,0.36
0.8921940326690674,-0.36,0.06,-0.13,0.38
0.904681921005249,-0.38,0.23,0.13,0.46
0.9300589561462402,-0.25,0.29,0.2,0.43
0.931225061416626,-0.21,-0.01,-0.1,0.23
0.9325909614562988,-0.32,-0.29,-0.32,0.53
0.9417629241943359,-0.47,-0.16,-0.12,0.51
0.9518918991088867,-0.65,-0.17,-0.24,0.71
0.961838960647583,-0.71,-0.03,-0.48,0.85
0.9714758396148682,-0.71,0.33,-0.37,0.86
0.9816679954528809,-0.81,0.3,-0.44,0.96
0.9914519786834717,-1.09,0.06,-0.46,1.18
1.004499912261963,-1.52,0.05,-0.23,1.53
1.0293347835540771,-1.78,-0.03,-0.21,1.79
1.0309488773345947,-1.47,-0.03,-0.42,1.52
1.0325658321380615,-1.0,0.03,-0.66,1.19
1.0407450199127197,-0.59,0.05,-0.71,0.92
1.0510308742523193,-0.27,-0.02,-0.63,0.68
1.061255931854248,-0.03,-0.08,-0.46,0.46
1.070990800857544,-0.14,-0.15,-0.18,0.27
1.0808019638061523,-0.37,-0.21,-0.23,0.48
1.090681791305542,-0.1,-0.13,-0.21,0.26
1.1006379127502441,0.35,0.08,0.3,0.46
1.1332809925079346,0.33,0.24,0.67,0.78
1.134861946105957,0.08,0.07,0.6,0.6
1.1362950801849365,-0.43,-0.26,0.11,0.51
1.139981985092163,-0.5,-0.22,0.2,0.58
1.1501789093017578,0.14,-0.01,0.73,0.74
1.1603679656982422,0.87,0.06,0.71,1.12
1.1701538562774658,1.03,-0.25,-0.04,1.06
1.180250883102417,0.95,-0.46,-0.2,1.07
1.190030813217163,0.63,-0.35,-0.04,0.72
1.2000200748443604,0.43,-0.17,0.35,0.57
1.2354838848114014,0.26,-0.15,0.48,0.56
1.2372729778289795,0.03,-0.04,0.42,0.42
1.2387421131134033,-0.03,-0.03,0.4,0.4
1.2569830417633057,-0.11,-0.07,0.44,0.45
1.2585389614105225,0.2,-0.01,0.27,0.33
1.271920919418335,0.74,-0.06,-0.38,0.83
1.2733659744262695,1.11,-0.24,-0.84,1.41
1.2885401248931885,1.07,-0.23,-0.54,1.22
1.29001784324646,0.82,-0.26,0.02,0.86
1.3081390857696533,0.67,-0.32,0.26,0.78
1.3325378894805908,0.56,-0.32,0.13,0.65
1.3343608379364014,0.4,-0.24,0.35,0.58
1.3354198932647705,0.04,0.0,0.65,0.65
1.338458776473999,-0.2,0.18,0.37,0.45
1.3488969802856445,0.0,0.38,-0.11,0.39
1.358875036239624,0.43,0.39,-0.34,0.67
1.3686330318450928,0.49,0.09,-0.41,0.64
1.3783137798309326,0.29,0.0,-0.23,0.37
1.3883979320526123,0.05,0.17,-0.1,0.2
1.3983948230743408,0.11,0.18,-0.15,0.25
1.4321680068969727,0.33,-0.02,-0.08,0.34
1.4337918758392334,0.17,-0.26,0.24,0.39
1.4354000091552734,-0.15,-0.2,0.41,0.48
1.4376249313354492,-0.07,-0.01,0.02,0.07
1.4479248523712158,0.18,0.16,-0.35,0.42
1.4580638408660889,0.38,0.07,-0.63,0.73
1.4678380489349365,0.39,-0.16,-0.5,0.65
1.4778709411621094,0.23,-0.19,-0.3,0.42
1.487677812576294,0.03,-0.12,-0.13,0.17
1.4976589679718018,-0.08,0.07,0.13,0.16
1.510119915008545,-0.12,0.09,-0.02,0.15
1.5337049961090088,-0.23,0.2,-0.06,0.31
1.5348780155181885,-0.37,0.36,-0.09,0.52
1.5369999408721924,-0.52,0.34,-0.24,0.66
1.5575029850006104,-0.5,0.29,-0.26,0.63
1.5589687824249268,-0.37,0.18,-0.29,0.5
1.5735599994659424,-0.33,0.13,-0.44,0.56
1.5771269798278809,-0.43,0.15,-0.52,0.69
1.5888960361480713,-0.52,0.29,-0.63,0.86
1.5966827869415283,-0.67,0.37,-0.89,1.17
1.609177827835083,-0.77,0.53,-0.74,1.19
1.6354038715362549,-0.67,0.63,-0.51,1.05
1.6371870040893555,-0.69,0.59,-0.25,0.94
1.638674020767212,-0.85,0.68,-0.18,1.1
1.6574859619140625,-0.87,0.87,-0.28,1.26
1.6589839458465576,-0.98,1.01,-0.31,1.44
1.6735470294952393,-1.03,0.98,-0.43,1.48
1.676271915435791,-1.13,0.77,-0.66,1.51
1.688735008239746,-1.17,0.72,-0.7,1.54
1.696260929107666,-1.02,0.69,-0.75,1.44
1.705946922302246,-0.76,0.65,-0.63,1.18
1.7332870960235596,-0.56,0.75,-0.27,0.97
1.7352488040924072,-0.76,0.95,0.27,1.24
1.7367370128631592,-0.94,1.16,0.5,1.57
1.7455518245697021,-1.13,1.66,0.4,2.04
1.7558369636535645,-1.38,2.18,0.24,2.59
1.7656910419464111,-1.57,2.48,-0.04,2.93
1.7756099700927734,-1.93,2.59,-0.1,3.23
1.7855980396270752,-2.2,2.51,-0.39,3.36
1.795400857925415,-2.26,2.36,-0.55,3.31
1.8052098751068115,-2.33,2.37,-0.79,3.41
1.8338019847869873,-2.49,2.5,-1.18,3.72
1.8354198932647705,-2.71,2.74,-1.6,4.17
1.8368439674377441,-3.2,3.13,-1.75,4.8
1.8448729515075684,-4.16,3.85,-1.29,5.81
1.855287790298462,-5.8,5.83,-0.2,8.22
1.8649427890777588,-7.43,8.42,-1.43,11.32
1.8748719692230225,-7.85,9.01,-4.61,12.8
1.884880781173706,-8.06,8.86,-5.09,13.01
1.8947618007659912,-8.67,9.69,-4.61,13.79
1.9050137996673584,-9.1,10.25,-4.95,14.57
1.9423019886016846,-9.35,9.96,-5.55,14.74
1.9440019130706787,-8.96,10.41,-4.65,14.5
1.945436954498291,-7.24,11.98,-2.31,14.18
1.9573290348052979,-3.72,13.06,-1.72,13.68
1.958847999572754,0.67,12.87,-2.04,13.04
1.9724209308624268,2.69,8.23,-1.55,8.79
1.9739329814910889,2.11,2.3,-3.21,4.47
1.9890849590301514,-0.8,-2.76,-5.41,6.12
1.9938318729400635,-1.02,-2.62,-4.75,5.51
2.00496506690979,2.99,1.35,0.98,3.42
2.035437822341919,3.3,-2.02,0.52,3.9
2.037259817123413,-0.9,-3.36,-3.39,4.85
2.0387399196624756,-3.13,-2.78,-3.0,5.15
2.0577890872955322,-4.66,-1.68,-2.72,5.65
2.059299945831299,-7.07,-1.66,-3.15,7.91
2.073637008666992,-8.99,-2.81,-2.39,9.71
2.075103998184204,-9.1,-4.81,-0.76,10.32
2.0888569355010986,-7.03,-6.65,1.47,9.78
2.0930440425872803,-4.47,-8.42,2.02,9.74
2.1072139739990234,-3.84,-8.57,0.73,9.41
2.1362569332122803,-4.43,-6.99,0.07,8.27
2.1382219791412354,-5.06,-6.15,-0.53,7.98
2.139530897140503,-4.89,-6.34,-1.19,8.09
2.158026933670044,-4.38,-6.34,-1.69,7.88
2.1594178676605225,-4.2,-6.14,-1.97,7.69
2.173449993133545,-4.04,-6.09,-2.07,7.59
2.174851894378662,-3.94,-6.1,-2.07,7.55
2.189103841781616,-3.73,-6.26,-1.8,7.5
2.192209005355835,-3.35,-6.41,-1.59,7.4
2.2063779830932617,-2.88,-6.46,-1.48,7.22
2.2401669025421143,-2.49,-6.51,-1.34,7.09
2.241719961166382,-2.16,-6.57,-1.19,7.01
2.2427308559417725,-1.89,-6.54,-0.9,6.86
2.2575979232788086,-1.68,-6.13,-0.6,6.38
2.2590630054473877,-1.45,-5.34,-0.37,5.54
2.273422956466675,-1.25,-4.3,0.05,4.47
2.2749030590057373,-0.8,-3.21,0.09,3.3
2.289170980453491,0.55,-2.02,-0.21,2.1
2.291506052017212,2.75,-0.57,0.12,2.81
2.3054940700531006,5.01,1.16,1.02,5.24
2.3118269443511963,6.77,2.67,1.79,7.49
2.3501529693603516,7.53,3.71,2.03,8.63
2.3516199588775635,7.31,4.4,1.96,8.75
2.3525850772857666,7.26,5.01,1.8,9.0
2.354071855545044,8.21,5.56,1.44,10.01
2.361048936843872,9.69,6.22,1.14,11.57
2.371095895767212,11.32,7.44,1.02,13.58
2.3809030055999756,12.72,8.63,0.9,15.39
2.3908839225769043,13.9,9.54,1.12,16.89
2.400681972503662,14.43,9.75,1.63,17.49
2.410607099533081,14.42,9.44,2.79,17.45
2.438169002532959,13.29,7.91,3.98,15.96
2.4395039081573486,10.62,5.43,5.02,12.94
2.4404947757720947,3.96,3.11,5.56,7.5
2.457951784133911,-2.01,-0.46,2.2,3.01
2.4602558612823486,-6.66,-5.3,-3.36,9.15
2.472395896911621,-14.61,-2.62,-8.65,17.17
2.4802420139312744,-21.06,17.51,-3.31,27.58
2.49003005027771,-11.63,32.28,18.09,38.78
2.5000951290130615,-2.27,21.15,8.86,23.04
2.509779930114746,3.76,4.78,-4.07,7.31
2.539715051651001,6.94,-5.01,-2.98,9.06
2.5411360263824463,9.13,-9.31,0.2,13.04
2.5421509742736816,10.59,-9.89,3.14,14.82
2.5580809116363525,9.02,-7.84,4.9,12.91
2.559595823287964,3.43,-3.65,2.44,5.57
2.57378888130188,0.04,-0.59,0.41,0.71
2.579477071762085,-1.08,2.5,-2.16,3.47
2.58935284614563,-1.04,4.3,-3.41,5.58
2.599292039871216,-0.07,3.49,-2.98,4.58
2.6096160411834717,0.73,1.11,-1.43,1.95
2.6444308757781982,0.62,-0.74,0.61,1.14
2.6458051204681396,0.02,-1.64,1.83,2.45
2.646817922592163,-0.49,-1.52,1.74,2.36
2.6579389572143555,-0.8,-0.44,0.96,1.32
2.6594109535217285,-0.64,0.73,-0.05,0.97
2.673927068710327,-0.19,0.83,-1.24,1.5
2.678568124771118,0.26,0.24,-1.91,1.94
2.689168930053711,0.39,-0.13,-1.31,1.37
2.6986029148101807,0.3,-0.13,0.07,0.33
2.708505868911743,0.07,0.0,0.79,0.79
2.7435410022735596,0.13,0.2,0.66,0.7
2.745310068130493,0.1,0.3,0.44,0.54
2.7463128566741943,-0.15,0.22,0.39,0.47
2.758049964904785,-0.42,0.12,0.15,0.46
2.759537935256958,-0.65,0.07,-0.19,0.68
2.773918867111206,-0.77,0.2,-0.6,0.99
2.777899980545044,-0.7,0.37,-0.86,1.16
2.7891690731048584,-0.5,0.4,-0.97,1.16
2.7980129718780518,-0.09,0.3,-0.99,1.03
2.80780291557312,0.19,0.16,-0.68,0.72
2.8472368717193604,-0.05,0.04,-0.19,0.2
2.8486499786376953,-0.84,0.05,0.34,0.9
2.8496530055999756,-1.59,0.21,0.53,1.68
2.8566060066223145,-1.82,0.28,0.08,1.84
2.874224901199341,-1.58,0.3,-0.57,1.7
2.8756659030914307,-1.4,0.4,-1.25,1.91
2.8894388675689697,-1.19,0.62,-1.5,2.01
2.8908629417419434,-0.88,0.76,-1.33,1.76
2.905574083328247,-0.42,0.75,-1.1,1.39
2.90704083442688,-0.16,0.53,-1.0,1.14
2.9486358165740967,-0.48,0.43,-0.87,1.08
2.9503369331359863,-1.07,0.52,-0.46,1.27
2.9517219066619873,-1.49,0.77,0.04,1.67
2.953852891921997,-1.58,1.05,0.34,1.92
2.9744298458099365,-1.6,1.26,0.45,2.08
2.9759249687194824,-1.81,1.49,0.44,2.38
2.989457845687866,-1.89,1.72,-0.03,2.55
2.990955114364624,-1.94,1.98,-0.37,2.79
3.0056140422821045,-2.34,2.53,-0.6,3.49
3.0071089267730713,-2.99,2.85,-1.32,4.33
3.0488979816436768,-3.36,3.47,-1.37,5.02
3.0501089096069336,-3.63,3.79,-1.81,5.55
3.051391839981079,-3.89,4.03,-2.06,5.96
3.0538299083709717,-4.51,4.24,-2.1,6.53
3.0741939544677734,-5.57,4.91,-1.69,7.61
3.0757038593292236,-6.94,6.22,-1.32,9.41
3.089456796646118,-8.45,7.72,-1.66,11.56
3.0909321308135986,-10.15,9.48,-2.34,14.08
3.1058809757232666,-12.2,11.11,-4.23,17.03
3.107342004776001,-13.68,11.71,-6.25,19.06
3.12113094329834,-14.43,11.28,-7.61,19.83
3.145181894302368,-14.1,11.18,-7.73,19.58
3.1469600200653076,-11.38,12.74,-6.08,18.13
3.1481640338897705,-5.9,14.72,-5.24,16.7
3.1576077938079834,-0.39,14.09,-6.67,15.59
3.164860963821411,2.63,13.08,-5.31,14.35
3.1749019622802734,2.02,8.35,-4.8,9.84
3.1848127841949463,-1.68,1.37,-7.49,7.79
3.1947457790374756,-3.74,-2.67,-8.07,9.28
3.204941987991333,0.17,1.48,-4.48,4.72
3.2146289348602295,4.62,1.52,2.33,5.39
3.2423949241638184,2.09,-3.79,-0.99,4.43
3.2439467906951904,-2.58,-6.3,-4.42,8.11
3.2449779510498047,-5.07,-6.28,-2.74,8.52
3.2582550048828125,-6.56,-4.73,-2.04,8.34
3.2642369270324707,-8.07,-4.21,-2.31,9.39
3.274467945098877,-8.88,-4.48,-1.55,10.06
3.2841789722442627,-8.15,-5.43,0.04,9.79
3.2939889430999756,-6.41,-6.75,1.97,9.51
3.3042409420013428,-5.15,-7.96,2.44,9.78
3.3139050006866455,-4.87,-8.31,1.57,9.75
3.34490704536438,-5.12,-7.29,0.5,8.92
3.3467299938201904,-5.26,-6.61,-0.26,8.45
3.347775936126709,-5.17,-6.61,-1.03,8.45
3.356023073196411,-4.89,-6.57,-1.64,8.35
3.363662004470825,-4.57,-6.62,-2.2,8.33
3.373302936553955,-4.41,-6.51,-2.54,8.26
3.3834540843963623,-4.22,-6.58,-2.56,8.22
3.393181085586548,-3.83,-6.76,-2.37,8.12
3.403393030166626,-3.27,-6.94,-2.26,7.99
3.413311004638672,-2.67,-7.24,-2.15,8.01
3.4431259632110596,-2.16,-7.5,-2.08,8.07
3.445340871810913,-1.82,-7.71,-1.92,8.15
3.4463307857513428,-1.47,-7.56,-1.61,7.86
3.460536003112793,-0.93,-6.85,-0.99,6.98
3.4626967906951904,-0.22,-5.79,-0.34,5.8
3.472562074661255,0.88,-4.89,-0.74,5.02
3.4827699661254883,2.49,-3.75,-1.11,4.63
3.492433786392212,4.24,-1.93,-0.28,4.66
3.502664804458618,5.87,0.49,1.23,6.01
3.5124409198760986,7.38,2.88,2.48,8.3
3.54744291305542,8.74,5.58,3.07,10.81
3.5488641262054443,10.21,8.53,3.7,13.8
3.5499579906463623,11.96,11.34,4.67,17.13
3.5575289726257324,13.68,13.61,5.55,20.07
3.562025785446167,15.22,14.22,5.71,21.59
3.5725438594818115,16.2,12.29,5.32,21.01
3.5819339752197266,16.57,11.44,5.81,20.95
3.5916969776153564,16.43,10.57,6.3,20.52
3.6018288135528564,14.6,11.52,4.72,19.18
3.6114509105682373,10.64,12.62,3.28,16.82
3.648404836654663,3.55,-0.11,-5.82,6.81
3.6500589847564697,-7.19,-4.55,-15.97,18.09
3.651063919067383,-19.45,12.07,-15.95,27.89
3.654258966445923,-17.99,37.65,10.71,43.07
3.67181396484375,-10.42,36.03,13.41,39.83
3.673327922821045,-2.74,8.2,-2.78,9.08
3.6898069381713867,3.36,-4.52,0.84,5.69
3.691298007965088,6.35,-11.84,2.54,13.67
3.705993890762329,9.76,-13.9,3.6,17.36
3.711000919342041,11.84,-12.94,5.48,18.37
3.748731851577759,9.73,-7.49,4.39,13.04
3.749985933303833,3.64,-1.35,1.53,4.17
3.751197099685669,-0.18,1.67,-0.07,1.68
3.7535879611968994,-1.28,4.18,-2.44,5.0
3.7743289470672607,-0.22,4.63,-2.77,5.39
3.775861978530884,1.32,2.26,-1.72,3.13
3.789703130722046,1.94,-0.17,0.49,2.0
3.791188955307007,1.24,-1.83,1.75,2.81
3.8058929443359375,0.61,-2.2,1.24,2.59
3.8100697994232178,0.42,-1.21,0.57,1.4
3.8483879566192627,0.44,-0.02,-0.06,0.44
3.849684953689575,0.5,0.45,-0.56,0.87
3.85091495513916,0.52,0.39,-0.41,0.76
3.8542189598083496,0.42,0.06,-0.2,0.46
3.874530076980591,0.28,-0.1,-0.2,0.35
3.875916004180908,0.04,0.08,-0.08,0.12
3.8899810314178467,-0.28,0.26,-0.08,0.39
3.891387939453125,-0.43,0.25,-0.48,0.69
3.9057090282440186,-0.35,0.19,-0.69,0.79
3.9089629650115967,-0.27,0.16,-0.32,0.44
3.922938108444214,-0.3,0.06,0.09,0.31
3.9497299194335938,-0.4,-0.06,0.17,0.43
3.951154947280884,-0.39,-0.04,-0.27,0.47
3.952191114425659,-0.41,0.14,-0.7,0.82
3.958768129348755,-0.59,0.47,-0.86,1.14
3.969043016433716,-0.71,0.76,-0.63,1.21
3.9789609909057617,-0.79,0.84,-0.14,1.16
3.989015817642212,-0.76,0.7,0.24,1.06
3.998800039291382,-0.81,0.48,0.29,0.98
4.008745908737183,-0.99,0.36,0.08,1.05
4.018595933914185,-1.11,0.35,-0.23,1.18
4.048370122909546,-1.15,0.39,-0.68,1.39
4.0500829219818115,-1.04,0.51,-0.94,1.49
4.051357984542847,-0.77,0.64,-0.81,1.28
4.057971954345703,-0.5,0.68,-0.73,1.11
4.0745649337768555,-0.47,0.63,-0.75,1.08
4.078052997589111,-0.64,0.72,-0.65,1.16
4.0882508754730225,-0.92,0.88,-0.83,1.51
4.098053932189941,-1.52,1.05,-0.67,1.96
4.107900857925415,-2.1,1.18,-0.59,2.48
4.1177098751068115,-2.43,1.46,-0.56,2.88
4.148475885391235,-2.49,1.97,-0.04,3.17
4.149698972702026,-2.44,2.2,-0.16,3.28
4.150864839553833,-2.31,2.44,-0.36,3.37
4.157197952270508,-2.5,2.65,-0.96,3.76
4.174644947052002,-2.85,3.02,-1.34,4.36
4.177355051040649,-3.25,3.4,-1.53,4.94
4.189955949783325,-3.65,3.71,-1.76,5.49
4.197438955307007,-4.07,4.04,-1.99,6.07
4.2069480419158936,-4.74,4.7,-2.03,6.97
4.2171471118927,-5.72,5.62,-2.25,8.32
4.245413064956665,-6.92,6.99,-2.34,10.11
4.246588945388794,-8.2,8.58,-3.19,12.28
4.247780084609985,-9.51,9.58,-5.79,14.68
4.259462118148804,-10.26,10.1,-7.57,16.26
4.266661882400513,-10.2,10.16,-8.14,16.53
4.276962041854858,-10.08,9.44,-9.12,16.54
4.286700010299683,-9.91,9.29,-9.59,16.62
4.296376943588257,-8.83,11.22,-7.09,15.94
4.30636191368103,-5.75,14.48,-3.46,15.95
4.317040920257568,-1.56,15.42,-3.26,15.83
4.352894067764282,0.14,10.71,-6.68,12.62
4.354346990585327,-1.19,4.74,-8.33,9.65
4.355379819869995,-3.67,0.28,-7.36,8.22
4.3750739097595215,-4.08,-1.81,-5.08,6.76
4.376536130905151,1.12,3.58,1.81,4.16
4.391302824020386,3.82,-0.05,4.97,6.26
4.392773866653442,0.11,-5.45,-0.5,5.47
4.406753778457642,-3.61,-6.51,-2.56,7.87
4.408240079879761,-6.06,-4.71,-1.58,7.83
4.422950983047485,-8.15,-3.57,-1.75,9.06
4.4499499797821045,-9.6,-3.39,-1.44,10.28
4.45137095451355,-9.13,-4.06,-0.57,10.0
4.452391862869263,-6.47,-5.54,0.8,8.55
4.454997777938843,-3.93,-7.15,1.86,8.36
4.464975118637085,-3.06,-8.07,1.57,8.77
4.4752538204193115,-3.15,-7.6,0.88,8.27
4.485008955001831,-3.52,-6.53,0.28,7.42
4.495284795761108,-3.73,-5.81,-0.45,6.91
4.505143880844116,-3.83,-5.43,-0.96,6.71
4.514960050582886,-3.79,-5.25,-1.35,6.61
4.55183482170105,-3.61,-5.19,-1.77,6.56
4.553685903549194,-3.4,-5.14,-1.93,6.45
4.55471396446228,-3.44,-5.1,-1.83,6.41
4.575034856796265,-3.5,-5.39,-1.26,6.54
4.576524972915649,-3.28,-5.88,-0.56,6.75
4.59136700630188,-2.87,-6.35,-0.01,6.96
4.5928380489349365,-2.41,-6.87,0.12,7.28
4.606671094894409,-2.07,-7.22,0.25,7.51
4.608139991760254,-1.77,-7.17,0.4,7.39
4.6239259243011475,-1.33,-6.41,0.64,6.57
4.6513121128082275,-0.51,-5.02,0.4,5.06
4.65275502204895,0.96,-3.89,-0.12,4.0
4.653732061386108,3.02,-2.92,-0.16,4.2
4.655939817428589,5.17,-1.72,0.29,5.45
4.663455963134766,6.6,-0.44,1.22,6.72
4.673803091049194,7.08,1.21,2.07,7.47
4.683581113815308,7.39,3.15,2.84,8.52
4.693557977676392,8.2,4.91,3.69,10.24
4.703588008880615,9.3,6.32,4.56,12.13
4.713457822799683,10.45,7.43,5.43,13.92
4.723235845565796,11.69,8.2,5.75,15.39
4.754400968551636,12.92,8.32,5.73,16.4
4.755549907684326,14.62,7.97,6.0,17.69
4.7565648555755615,15.61,7.27,5.37,18.03
4.775273084640503,15.56,7.31,5.07,17.92
4.776782989501953,14.85,7.34,4.36,17.12
4.7908549308776855,13.79,6.86,4.07,15.93
4.792557001113892,13.29,6.37,4.74,15.48
4.80693507194519,9.71,4.72,3.05,11.21
4.812443017959595,0.43,0.83,-2.33,2.51
4.822930097579956,-9.61,-7.43,-13.2,17.93
4.855431795120239,-27.97,-3.83,-31.72,42.46
4.85674786567688,-33.79,21.81,-8.69,41.14
4.8577721118927,-15.2,39.13,28.3,50.62
4.874949932098389,-2.3,28.97,15.49,32.93
4.87598991394043,1.3,4.33,-0.3,4.53
4.891433954238892,5.85,-2.93,-2.22,6.9
4.892898797988892,7.86,-8.63,-1.87,11.82
4.907095909118652,9.06,-11.28,-0.93,14.49
4.91191291809082,9.18,-9.94,0.26,13.53
4.923078775405884,7.46,-5.6,2.33,9.61
4.953842878341675,5.53,-1.75,0.81,5.85
4.955177068710327,3.21,1.47,-0.73,3.6
4.956187009811401,1.44,4.29,-0.18,4.52
4.975125074386597,0.13,4.03,-0.47,4.05
4.976592779159546,0.01,1.29,-0.84,1.53
4.991419076919556,0.86,-0.66,0.23,1.1
4.9928998947143555,1.04,-1.32,1.33,2.14
5.007262945175171,0.23,-1.3,1.74,2.18
5.01117205619812,-0.66,-0.86,1.38,1.75
5.023129940032959,-0.78,-0.07,0.59,0.98
5.053051948547363,-0.44,0.49,-0.3,0.72
5.054462909698486,-0.02,0.55,-1.1,1.23
5.055455923080444,0.44,0.29,-1.38,1.47
5.075254917144775,0.98,-0.03,-1.18,1.53
5.076714992523193,0.99,-0.24,-0.52,1.14
5.092388868331909,0.3,-0.22,0.19,0.41
5.0938451290130615,-0.39,-0.06,0.46,0.6
5.107170820236206,-0.74,0.07,0.31,0.8
5.110339879989624,-0.84,0.16,0.08,0.85
5.1230809688568115,-0.72,0.31,-0.19,0.8
5.15973687171936,-0.55,0.35,-0.61,0.89
5.161039113998413,-0.37,0.36,-0.88,1.02
5.162070035934448,-0.17,0.37,-0.96,1.04
5.175552129745483,-0.19,0.32,-1.0,1.06
5.176548004150391,-0.47,0.4,-0.61,0.86
5.19140100479126,-0.86,0.45,-0.04,0.97
5.192917108535767,-0.93,0.47,0.34,1.09
5.2071850299835205,-0.72,0.36,0.32,0.86
5.209527969360352,-0.53,0.21,-0.18,0.59
5.2232677936553955,-0.64,0.08,-0.68,0.93
5.25733494758606,-0.97,0.16,-0.72,1.21
5.2586989402771,-1.19,0.34,-0.79,1.46
5.25970196723938,-1.12,0.45,-0.96,1.54
5.275260925292969,-0.81,0.56,-0.96,1.37
5.276230096817017,-0.55,0.7,-0.69,1.12
5.291628122329712,-0.66,0.8,-0.7,1.25
5.293107986450195,-1.16,0.79,-0.64,1.54
5.307204008102417,-1.65,0.9,-0.78,2.03
5.308677911758423,-1.75,1.12,-0.86,2.24
5.3233888149261475,-1.87,1.55,-0.55,2.49
5.357187032699585,-2.23,2.09,-0.69,3.13
5.358587026596069,-2.36,2.56,-1.01,3.62
5.359605073928833,-2.55,3.09,-1.02,4.13
5.375663995742798,-2.69,3.48,-1.2,4.55
5.377186059951782,-3.0,3.94,-1.39,5.14
5.391695976257324,-3.41,4.36,-1.71,5.79
5.393160104751587,-3.93,4.57,-2.25,6.43
5.407182931900024,-4.52,4.95,-2.47,7.14
5.4086809158325195,-5.35,5.86,-2.36,8.27
5.423240900039673,-6.4,7.31,-2.2,9.96
5.456568956375122,-7.57,9.16,-2.56,12.15
5.4580299854278564,-8.92,10.67,-4.81,14.71
5.459083795547485,-10.35,11.25,-7.51,17.03
5.4601829051971436,-11.18,11.36,-9.06,18.33
5.467914819717407,-10.97,10.77,-10.67,18.71
5.477441072463989,-10.18,9.78,-11.63,18.29
5.487490892410278,-8.87,10.16,-9.84,16.69
5.4975059032440186,-5.87,13.62,-4.69,15.55
5.5075719356536865,-1.63,16.77,-1.47,16.91
5.516995906829834,-0.16,11.99,-5.99,13.4
5.527329921722412,-1.79,4.08,-9.61,10.59
5.559194803237915,-3.95,-1.19,-8.29,9.25
5.5605149269104,-4.18,-2.79,-5.41,7.38
5.561518907546997,1.02,0.67,2.82,3.07
5.575519800186157,1.88,-4.32,3.78,6.04
5.576495885848999,-2.23,-8.91,-2.14,9.43
5.590131998062134,-5.7,-9.06,-3.83,11.36
5.596462965011597,-7.94,-6.35,-2.67,10.51
5.606615781784058,-9.27,-3.77,-1.99,10.2
5.616424798965454,-9.25,-2.8,-1.42,9.76
5.626322984695435,-7.59,-3.13,-0.45,8.22
5.66001296043396,-5.51,-4.31,0.83,7.04
5.66130805015564,-4.37,-5.69,1.49,7.32
5.662329912185669,-4.18,-6.38,1.42,7.75
5.675573110580444,-4.25,-5.97,0.98,7.39
5.676656007766724,-3.96,-5.16,0.43,6.51
5.691385984420776,-3.21,-4.94,-0.25,5.89
5.6955578327178955,-2.29,-5.02,-1.38,5.68
5.707237005233765,-1.6,-4.89,-2.53,5.73
5.716012954711914,-1.2,-4.4,-3.51,5.75
5.725538969039917,-1.06,-3.78,-3.81,5.47
5.75817084312439,-1.21,-3.42,-3.53,5.06
5.75952410697937,-1.19,-3.22,-3.73,5.06
5.760432004928589,-0.35,-3.55,-4.2,5.51
5.7755889892578125,1.03,-4.34,-4.14,6.08
5.776625871658325,1.39,-4.94,-2.54,5.72
5.791831970214844,0.68,-5.68,-0.77,5.77
5.795223951339722,-0.23,-6.08,0.38,6.09
5.807109117507935,-0.64,-5.62,1.39,5.82
5.815090894699097,-0.45,-4.93,2.42,5.51
5.8248560428619385,0.18,-4.82,3.72,6.09
5.857177972793579,0.99,-4.86,4.92,6.98
5.858449935913086,1.68,-4.43,5.42,7.19
5.859479904174805,2.45,-3.47,5.18,6.69
5.8756279945373535,3.73,-1.68,5.14,6.56
5.8766701221466064,5.97,-0.04,5.17,7.89
5.8912928104400635,8.52,1.56,5.35,10.18
5.894052982330322,10.73,3.39,5.92,12.71
5.907347917556763,12.17,5.5,6.87,15.01
5.91448712348938,12.71,8.02,7.59,16.83
5.923959016799927,13.14,10.85,8.7,19.13
5.962056875228882,13.56,12.24,9.03,20.37
5.963433027267456,13.85,10.63,7.42,18.97
5.964465856552124,13.23,9.37,6.16,17.34
5.965507984161377,11.35,11.89,3.81,16.87
5.973383903503418,8.72,10.07,-1.05,13.36
5.9835498332977295,0.82,-3.1,-12.54,12.94
5.993696928024292,-12.67,-0.24,-21.63,25.06
6.003482103347778,-18.16,29.83,-3.79,35.12
6.013763904571533,-13.99,47.52,19.67,53.29
6.023239850997925,-7.64,14.95,-0.95,16.81
6.060194969177246,4.59,2.72,3.34,6.29
6.061368942260742,8.34,-5.66,4.24,10.93
6.06242299079895,9.23,-10.94,1.17,14.36
6.077408075332642,9.67,-10.98,0.15,14.63
6.078470945358276,10.01,-8.27,2.03,13.14
6.091248989105225,7.26,-3.75,1.79,8.36
6.092480897903442,2.76,-0.68,0.49,2.88
6.107529878616333,-0.32,1.66,0.13,1.69
6.112679958343506,-1.87,3.41,-0.89,3.98
6.123575925827026,-1.49,3.25,-0.91,3.68
6.161198854446411,0.35,1.11,-0.28,1.19
6.162481069564819,1.76,-0.9,0.86,2.15
6.163493871688843,1.58,-1.77,1.34,2.72
6.1758058071136475,0.73,-1.52,0.58,1.78
6.176871061325073,0.38,-0.42,0.12,0.57
6.191824913024902,0.29,0.31,0.08,0.43
6.1928629875183105,0.18,0.3,0.02,0.35
6.207515001296997,0.04,-0.05,-0.21,0.21
6.211808919906616,0.22,-0.37,-0.65,0.77
6.223623991012573,0.61,-0.34,-0.71,0.99
6.259822130203247,0.54,-0.04,-0.21,0.58
6.261171102523804,0.13,0.16,0.15,0.25
6.262182950973511,-0.41,0.24,0.22,0.52
6.275996923446655,-0.82,0.33,0.1,0.88
6.2770469188690186,-0.9,0.4,-0.09,0.98
6.291635990142822,-0.72,0.4,-0.19,0.84
6.292618989944458,-0.46,0.35,-0.2,0.61
6.307410001754761,-0.32,0.22,-0.54,0.66
6.311327934265137,-0.31,0.21,-0.67,0.76
6.323607921600342,-0.51,0.34,-0.54,0.81
6.330955982208252,-0.75,0.47,-0.28,0.92
6.368930101394653,-0.88,0.6,0.21,1.08
6.370081901550293,-1.17,0.49,0.25,1.29
6.371081113815308,-1.43,0.41,0.11,1.49
6.392563104629517,-1.31,0.36,-0.17,1.36
6.393586874008179,-0.93,0.4,-0.25,1.04
6.40892481803894,-0.66,0.53,-0.49,0.97
6.41041898727417,-0.67,0.67,-0.76,1.21
6.424444913864136,-0.74,0.86,-0.87,1.42
6.425918817520142,-1.08,1.04,-0.76,1.68
6.440601110458374,-1.58,1.22,-0.6,2.08
6.470983982086182,-2.22,1.33,-0.46,2.62
6.472290992736816,-2.45,1.49,-0.06,2.86
6.473305940628052,-2.64,1.64,-0.08,3.1
6.49219012260437,-2.76,1.94,-0.36,3.39
6.493262052536011,-2.61,2.32,-0.65,3.55
6.508538007736206,-2.57,2.67,-0.95,3.82
6.509503126144409,-2.61,3.07,-1.38,4.25
6.524268865585327,-2.94,3.41,-1.64,4.79
6.525738954544067,-3.41,3.8,-1.39,5.29
6.540471792221069,-4.06,4.18,-1.05,5.92
6.569649934768677,-4.81,4.39,-1.28,6.63
6.570935010910034,-5.7,5.09,-1.26,7.74
6.571919918060303,-6.75,6.25,-1.71,9.35
6.592420816421509,-7.8,7.28,-3.08,11.1
6.5934998989105225,-9.19,8.22,-4.78,13.22
6.608597993850708,-10.63,9.18,-5.96,15.25
6.60961389541626,-11.45,10.1,-6.83,16.72
6.624505996704102,-11.98,10.37,-7.88,17.69
6.625993013381958,-12.45,10.46,-7.83,18.04
6.640650987625122,-11.22,13.27,-4.72,18.0
6.67032790184021,-6.78,16.32,-2.09,17.79
6.6717751026153564,-2.11,14.9,-4.16,15.61
6.67277979850769,-0.29,10.79,-5.7,12.2
6.692379951477051,-0.37,5.85,-5.73,8.19
6.69342303276062,-2.45,0.99,-6.4,6.92
6.708400011062622,-3.37,-2.45,-6.6,7.8
6.709421873092651,1.64,2.31,-3.86,4.78
6.724328994750977,5.89,3.06,2.84,7.21
6.725795030593872,1.94,-2.51,-0.23,3.18
6.740567922592163,-3.69,-5.33,-3.98,7.6
6.769783973693848,-6.84,-5.94,-2.61,9.42
6.77109694480896,-9.01,-5.31,-1.74,10.6
6.772065877914429,-11.04,-4.86,-1.81,12.19
6.793331861495972,-11.89,-4.82,-1.01,12.86
6.794329881668091,-10.08,-5.74,0.5,11.61
6.808326005935669,-7.12,-7.22,2.3,10.39
6.809318780899048,-5.69,-8.17,2.94,10.38
6.82483696937561,-5.64,-8.23,2.39,10.25
6.8262598514556885,-5.91,-7.36,1.54,9.56
6.840687990188599,-6.23,-6.2,0.63,8.81
6.871697902679443,-6.31,-5.66,-0.04,8.47
6.8729870319366455,-6.09,-5.39,-0.27,8.13
6.873991012573242,-5.5,-5.12,-0.66,7.54
6.892520904541016,-4.77,-4.88,-1.25,6.93
6.893572092056274,-4.27,-4.73,-1.62,6.57
6.908437013626099,-4.0,-4.8,-1.69,6.47
6.909476041793823,-3.81,-5.02,-1.54,6.48
6.9244279861450195,-3.43,-5.44,-1.36,6.57
6.925869941711426,-2.91,-5.79,-1.21,6.59
6.940867900848389,-2.32,-5.91,-0.88,6.4
6.971723794937134,-1.67,-5.54,-0.36,5.79
6.973326921463013,-0.68,-4.61,-0.27,4.66
6.974334001541138,1.19,-3.67,-0.62,3.9
6.9923179149627686,3.61,-2.87,-0.92,4.7
6.993369817733765,5.91,-1.73,-0.39,6.17
7.008509874343872,7.39,-0.22,0.66,7.42
7.009514093399048,7.89,1.54,1.72,8.22
7.024305105209351,8.07,3.53,2.62,9.18
7.0257251262664795,9.03,5.71,3.75,11.32
7.040549039840698,10.89,7.95,5.06,14.4
7.0726587772369385,12.85,9.87,5.67,17.16
7.073880910873413,14.55,10.82,5.61,18.98
7.0747230052948,16.11,10.24,5.34,19.82
7.09292197227478,17.39,9.87,5.15,20.64
7.093979120254517,17.85,8.87,5.4,20.65
7.108745813369751,16.08,9.43,5.72,19.49
7.109771013259888,11.99,12.49,4.89,17.99
7.123883008956909,6.98,3.21,-3.11,8.28
7.124914884567261,-4.26,-2.78,-14.4,15.27
7.140682935714722,-13.83,14.68,-15.38,25.36
7.142200946807861,-10.54,45.28,10.3,47.61
7.186384916305542,-8.35,30.01,0.9,31.16
7.187536001205444,-0.42,3.1,-6.01,6.77
7.188514947891235,6.73,-2.21,4.11,8.18
7.209504842758179,8.24,-9.42,6.69,14.19
7.210546970367432,9.42,-12.44,5.85,16.66
7.225712060928345,9.5,-10.8,3.34,14.76
7.2271740436553955,7.12,-5.02,2.02,8.94
7.241394996643066,3.04,-0.92,0.16,3.18
7.242849111557007,0.12,1.62,-0.72,1.77
7.257565975189209,-1.26,3.69,-1.27,4.1
7.287986993789673,-0.58,3.35,-0.99,3.54
7.289318799972534,0.85,1.06,-0.22,1.37
7.290342092514038,1.66,-0.59,0.94,1.99
7.30933403968811,1.3,-1.62,1.13,2.36
7.310380935668945,0.66,-1.32,0.99,1.77
7.325366973876953,0.37,-0.39,0.67,0.85
7.32638692855835,0.44,0.0,-0.08,0.44
7.341145992279053,0.65,-0.03,-0.55,0.85
7.342657804489136,0.71,-0.07,-0.56,0.9
7.357434034347534,0.59,-0.05,-0.34,0.68
7.385857820510864,0.4,0.02,0.09,0.41
7.387243032455444,0.15,0.05,0.22,0.27
7.388213872909546,-0.07,0.07,0.04,0.1
7.389776945114136,-0.29,0.09,-0.05,0.3
7.391188859939575,-0.49,0.18,0.08,0.52
7.392637014389038,-0.61,0.22,0.06,0.65
7.402631998062134,-0.56,0.19,-0.26,0.64
7.412926912307739,-0.45,0.22,-0.58,0.76
7.422936916351318,-0.46,0.29,-0.84,1.0
7.432697057723999,-0.51,0.46,-0.77,1.03
7.460118055343628,-0.76,0.47,-0.41,0.98
7.461164951324463,-1.06,0.49,0.12,1.17
7.461983919143677,-0.98,0.53,0.56,1.24
7.476319074630737,-0.71,0.43,0.43,0.93
7.482383966445923,-0.58,0.38,0.02,0.69
7.492114782333374,-0.62,0.47,-0.29,0.83
7.502192974090576,-0.75,0.54,-0.44,1.02
7.512171983718872,-0.94,0.56,-0.75,1.32
7.522037982940674,-1.35,0.59,-1.19,1.89
7.5321128368377686,-1.83,0.74,-1.47,2.46
7.567363977432251,-2.15,0.98,-1.79,2.96
7.568634986877441,-2.2,1.19,-2.0,3.2
7.569613933563232,-1.85,1.35,-1.66,2.82
7.572135925292969,-1.46,1.47,-1.34,2.46
7.592336893081665,-1.31,1.61,-1.27,2.43
7.593358993530273,-1.78,2.12,-0.65,2.84
7.607732057571411,-2.61,2.86,-0.26,3.88
7.611099004745483,-3.12,3.67,-0.18,4.82
7.624458074569702,-3.41,3.83,-0.15,5.13
7.631653070449829,-3.57,3.7,-0.09,5.14
7.666578054428101,-3.7,3.4,-0.53,5.05
7.6677539348602295,-3.52,3.23,-1.05,4.89
7.669057130813599,-3.47,3.44,-1.44,5.09
7.673119783401489,-4.09,4.2,-1.82,6.13
7.6806299686431885,-5.31,5.37,-2.12,7.84
7.692557096481323,-6.96,6.87,-2.42,10.07
7.7005860805511475,-8.92,8.49,-3.6,12.82
7.710336923599243,-10.49,9.58,-5.32,15.16
7.72077202796936,-11.28,9.95,-5.84,16.13
7.730401992797852,-11.9,10.03,-6.33,16.8
7.7683470249176025,-12.5,9.44,-7.51,17.37
7.769680976867676,-12.17,10.42,-6.47,17.27
7.770666837692261,-8.42,13.77,-3.67,16.55
7.77298903465271,-3.45,13.43,-4.7,14.64
7.779624938964844,0.27,11.45,-5.57,12.73
7.789757013320923,0.76,7.56,-4.36,8.76
7.799847841262817,-1.52,2.39,-4.85,5.61
7.809844970703125,-3.56,-2.21,-5.74,7.1
7.81971001625061,-0.7,-1.27,-6.39,6.55
7.830110788345337,5.0,2.98,-0.75,5.86
7.8676440715789795,4.45,-0.9,0.35,4.55
7.869012117385864,-1.44,-4.23,-5.33,6.95
7.869956970214844,-5.53,-4.81,-4.7,8.7
7.872126817703247,-8.0,-3.52,-2.58,9.11
7.892693996429443,-10.23,-2.95,-2.13,10.85
7.893744945526123,-11.57,-3.53,-1.14,12.15
7.908275842666626,-10.05,-5.02,0.76,11.25
7.909693002700806,-6.88,-7.01,2.71,10.18
7.924114942550659,-5.04,-8.62,2.98,10.42
7.928903818130493,-4.9,-9.19,2.0,10.6
7.941199064254761,-5.46,-7.88,0.77,9.61
7.971651792526245,-5.79,-6.52,-0.45,8.73
7.972983121871948,-5.93,-6.11,-1.26,8.6
7.973989963531494,-5.64,-6.17,-1.84,8.55
7.992934942245483,-5.02,-6.06,-2.46,8.24
7.99394679069519,-4.35,-5.84,-3.0,7.87
8.008991956710815,-3.69,-5.68,-3.32,7.54
8.01002812385559,-3.06,-5.9,-3.23,7.38
8.024955987930298,-2.69,-6.57,-2.88,7.66
8.02824592590332,-2.5,-7.28,-2.49,8.09
8.042603969573975,-2.4,-7.92,-2.34,8.6
8.070068120956421,-2.44,-8.24,-2.19,8.86
8.071375131607056,-2.47,-8.07,-1.84,8.63
8.072366952896118,-2.36,-7.34,-1.04,7.77
8.093262910842896,-2.02,-6.24,-0.1,6.55
8.094385862350464,-0.92,-5.03,0.11,5.11
8.109163999557495,1.19,-3.42,0.34,3.63
8.110198974609375,3.88,-0.95,1.24,4.18
8.125298976898193,6.46,2.02,2.55,7.23
8.127558946609497,8.2,5.35,3.25,10.31
8.14124608039856,9.13,9.2,3.47,13.41
8.170830011367798,10.0,13.57,3.9,17.3
8.172230958938599,11.24,17.5,4.24,21.22
8.173267126083374,12.76,19.58,2.92,23.55
8.189395904541016,14.95,18.65,0.42,23.9
8.190460920333862,16.88,16.44,-0.08,23.56
8.20646595954895,16.61,19.08,2.93,25.46
8.207568883895874,17.02,16.99,5.28,24.62
8.224775075912476,12.75,8.2,0.9,15.18
8.22666597366333,-0.82,-1.52,-6.07,6.31
8.240246057510376,-10.82,7.63,-9.39,16.23
8.268563032150269,-9.78,25.94,8.47,28.98
8.269938945770264,-6.93,22.67,10.3,25.84
8.271005868911743,-0.14,7.62,1.83,7.83
8.276017904281616,4.94,-1.37,2.6,5.74
8.28632378578186,6.69,-7.85,1.71,10.45
8.296241044998169,8.46,-8.31,1.72,11.98
8.306236982345581,9.04,-6.15,-0.35,10.93
8.315953016281128,7.67,-3.87,-2.29,8.89
8.325830936431885,4.38,-1.29,-2.5,5.2
8.33599591255188,1.5,1.15,0.16,1.89
8.372924089431763,-0.24,2.02,2.93,3.56
8.374350786209106,-1.17,0.91,1.77,2.3
8.375319957733154,-0.58,0.15,0.83,1.02
8.389343023300171,0.47,0.13,0.93,1.05
8.390406847000122,0.87,-0.51,0.74,1.25
8.40618109703064,0.6,-0.94,0.92,1.44
8.407396078109741,0.33,-0.63,0.88,1.13
8.425349950790405,0.57,-0.09,0.24,0.62
8.426936864852905,1.03,0.21,-0.99,1.44
8.441170930862427,1.08,0.24,-1.92,2.21
8.473873853683472,0.65,0.25,-1.7,1.83
8.475262880325317,0.1,0.17,-0.41,0.45
8.476336002349854,-0.31,-0.12,0.62,0.7
8.493447065353394,-0.35,-0.29,0.97,1.07
8.494486093521118,-0.08,-0.15,0.68,0.7
8.509476900100708,0.12,0.02,-0.04,0.12
8.510496854782104,0.05,0.27,-0.47,0.54
8.52472710609436,-0.12,0.41,-0.45,0.62
8.52623200416565,-0.05,0.34,-0.39,0.51
8.541424989700317,0.08,0.17,-0.27,0.32
8.572741985321045,-0.01,0.14,-0.15,0.2
8.574128866195679,-0.27,0.28,-0.34,0.51
8.57516598701477,-0.5,0.56,-0.45,0.87
8.593612909317017,-0.61,0.8,-0.42,1.09
8.594679117202759,-0.69,0.82,-0.43,1.15
8.60770297050476,-0.87,0.78,-0.55,1.29
8.608725786209106,-1.13,0.75,-0.68,1.51
8.625128030776978,-1.27,0.81,-0.67,1.64
8.626583814620972,-1.24,0.85,-0.68,1.65
8.641469955444336,-1.35,0.9,-0.75,1.78
8.670389890670776,-1.48,1.14,-0.71,1.99
8.671783924102783,-1.91,1.37,-1.17,2.62
8.672843933105469,-2.33,1.88,-1.28,3.25
8.693479776382446,-2.74,2.13,-1.23,3.68
8.6944899559021,-2.92,2.25,-0.87,3.78
8.709229946136475,-2.99,2.22,-0.69,3.78
8.710155010223389,-2.92,2.23,-0.71,3.74
8.72538685798645,-2.72,2.47,-1.02,3.81
8.726874113082886,-2.65,2.85,-1.36,4.12
8.741447925567627,-2.95,3.32,-1.51,4.69
8.742881059646606,-3.73,3.66,-1.82,5.53
8.786793947219849,-4.69,4.05,-2.13,6.55
8.787961959838867,-5.49,4.59,-2.29,7.51
8.788952112197876,-6.24,5.36,-2.55,8.61
8.810678005218506,-6.98,6.1,-3.14,9.78
8.811742067337036,-7.94,7.26,-3.66,11.36
8.826656103134155,-9.4,8.98,-5.55,14.13
8.828085899353027,-10.31,10.22,-8.07,16.6
8.842140913009644,-10.35,9.74,-9.46,17.07
8.843624830245972,-10.27,8.48,-9.9,16.59
8.858351945877075,-10.16,9.32,-8.51,16.2
8.887748956680298,-8.56,14.57,-3.44,17.24
8.889167070388794,-4.74,18.18,-1.38,18.83
8.890136003494263,-1.06,14.19,-7.88,16.26
8.910258054733276,-0.02,7.09,-11.0,13.08
8.911255121231079,-1.66,2.98,-9.71,10.29
8.926301002502441,-4.51,-1.23,-7.18,8.56
8.927544832229614,-2.03,-0.39,-4.17,4.65
8.942300081253052,4.04,3.58,2.57,5.97
8.943758010864258,4.01,-2.21,2.84,5.38
8.958440065383911,-0.97,-6.59,-2.8,7.22
8.987226009368896,-4.68,-7.78,-3.49,9.72
8.988736867904663,-7.1,-6.92,-2.39,10.19
8.98970103263855,-9.42,-5.52,-2.45,11.18
9.010504961013794,-11.26,-4.38,-2.16,12.27
9.011523962020874,-10.79,-4.37,-1.12,11.69
9.028056859970093,-7.6,-5.8,-0.15,9.56
9.029545068740845,-4.61,-6.91,0.8,8.34
9.041300058364868,-3.75,-7.54,0.92,8.47
9.042778968811035,-4.29,-7.46,0.77,8.63
9.058573007583618,-4.77,-6.49,0.1,8.05
9.08816409111023,-4.52,-5.84,-0.78,7.42
9.089540958404541,-3.95,-5.56,-1.56,6.99
9.090545892715454,-3.59,-5.29,-2.13,6.73
9.110131978988647,-3.47,-5.07,-2.53,6.64
9.111129999160767,-3.33,-5.07,-2.83,6.69
9.12661600112915,-3.09,-5.19,-2.93,6.71
9.128061056137085,-2.77,-5.43,-2.9,6.75
9.14201283454895,-2.17,-5.9,-2.68,6.83
9.143502950668335,-1.31,-6.36,-2.35,6.9
9.158302068710327,-0.24,-6.83,-2.12,7.15
9.187314987182617,0.91,-7.07,-1.75,7.33
9.188780069351196,2.05,-6.77,-1.0,7.14
9.18978500366211,3.19,-5.96,-0.75,6.8
9.210455894470215,4.45,-4.75,-0.89,6.56
9.211546897888184,5.81,-3.17,-0.22,6.62
9.22675895690918,7.1,-1.39,1.01,7.3
9.228240966796875,8.22,0.47,2.9,8.72
9.242084980010986,9.16,2.53,4.67,10.58
9.243525981903076,10.36,4.51,6.32,12.94
9.258352994918823,11.51,6.28,7.34,15.02
9.28797698020935,12.73,8.19,8.24,17.23
9.289389848709106,13.61,9.87,8.55,18.86
9.290409803390503,13.54,11.14,8.15,19.33
9.309725999832153,13.27,12.28,8.08,19.8
9.310796022415161,12.99,12.49,7.77,19.62
9.326684951782227,12.53,11.87,6.49,18.43
9.327775001525879,10.08,12.39,5.13,16.77
9.342369794845581,5.45,6.91,0.36,8.8
9.343871831893921,-3.22,-2.48,-10.65,11.39
9.357708930969238,-13.46,5.85,-18.14,23.33
9.386331796646118,-17.06,40.91,5.15,44.62
9.387633085250854,-12.34,43.5,13.65,47.23
9.388619899749756,-2.57,4.53,-2.83,5.92
9.390835046768188,2.94,-7.95,3.43,9.14
9.392238855361938,5.92,-11.81,4.7,14.02
9.397549867630005,9.08,-12.55,3.77,15.94
9.407769918441772,10.6,-11.21,4.72,16.13
9.417940855026245,8.0,-6.47,2.49,10.58
9.427937984466553,2.21,-1.31,0.69,2.66
9.437788009643555,-1.21,1.57,-0.91,2.18
9.474951028823853,-1.8,4.1,-3.43,5.64
9.476303815841675,0.17,4.28,-3.09,5.28
9.477321863174438,2.04,2.08,-1.3,3.19
9.493841886520386,2.55,-0.21,0.62,2.63
9.494895935058594,2.17,-1.7,1.88,3.33
9.509621858596802,1.71,-2.0,1.31,2.93
9.510627031326294,1.49,-1.2,0.77,2.06
9.525321006774902,1.24,-0.31,0.85,1.53
9.526577949523926,0.79,-0.14,0.8,1.13
9.541959047317505,0.39,-0.44,0.81,1.0
9.546748876571655,0.49,-0.61,0.35,0.85
9.586179971694946,0.93,-0.45,0.01,1.03
9.587353944778442,0.87,-0.06,0.0,0.87
9.588565111160278,0.4,0.13,0.02,0.42
9.590150117874146,-0.02,0.16,0.11,0.19
9.59627890586853,-0.12,0.11,0.23,0.28
9.606251001358032,-0.21,0.08,-0.09,0.24
9.616391897201538,-0.3,0.14,-0.36,0.48
9.626001119613647,-0.38,0.28,-0.33,0.57
9.635921001434326,-0.45,0.32,-0.43,0.69
9.646167993545532,-0.42,0.29,-0.59,0.78
9.677374124526978,-0.37,0.35,-0.71,0.87
9.6786630153656,-0.48,0.43,-0.63,0.9
9.679484128952026,-0.8,0.52,-0.27,0.99
9.694036960601807,-1.24,0.52,-0.04,1.34
9.69542384147644,-1.57,0.48,-0.3,1.66
9.7097909450531,-1.62,0.45,-0.72,1.82
9.715426921844482,-1.5,0.46,-1.14,1.93
9.725352048873901,-1.24,0.61,-1.18,1.81
9.735583066940308,-1.25,0.74,-1.07,1.8
9.745364904403687,-1.28,0.88,-1.07,1.88
9.77687382698059,-1.18,0.99,-1.11,1.89
9.77816390991211,-1.09,1.07,-0.9,1.77
9.779160976409912,-1.26,1.05,-0.73,1.79
9.794164896011353,-1.65,1.11,-0.64,2.08
9.795223951339722,-1.62,1.32,-0.81,2.24
9.809956789016724,-1.45,1.46,-1.25,2.4
9.814527988433838,-1.44,2.01,-1.18,2.73
9.825268030166626,-1.7,2.58,-1.29,3.34
9.834881067276001,-1.99,3.27,-1.0,3.95
9.844502925872803,-2.52,3.99,-0.73,4.77
9.875905990600586,-3.26,4.23,-0.93,5.42
9.877207040786743,-3.87,4.6,-0.97,6.08
9.878220796585083,-4.42,5.11,-1.21,6.86
9.894107103347778,-5.28,6.09,-1.78,8.25
9.895201921463013,-6.28,7.33,-3.1,10.13
9.91007685661316,-6.91,8.29,-4.6,11.73
9.913809061050415,-7.48,9.31,-5.34,13.08
9.923943996429443,-8.76,10.27,-6.36,14.92
9.934015989303589,-9.72,10.75,-7.94,16.52
9.943690061569214,-9.69,10.56,-9.22,17.04
9.981389999389648,-8.69,9.39,-10.4,16.48
9.982703924179077,-7.68,8.28,-10.49,15.41
9.983721017837524,-5.67,9.95,-7.3,13.58
9.994087934494019,-2.24,13.24,-2.8,13.71
9.995146036148071,0.94,14.33,-2.37,14.55
10.01112699508667,0.67,8.77,-5.91,10.59
10.012950897216797,-1.99,2.22,-7.06,7.66
10.026132822036743,-3.29,0.33,-5.22,6.17
10.03309178352356,0.3,5.67,2.02,6.02
10.042959928512573,0.45,0.93,3.76,3.89
10.08251404762268,-3.47,-4.51,-0.68,5.73
10.083865880966187,-6.01,-4.65,-1.19,7.69
10.084876775741577,-8.18,-3.52,-0.82,8.94
10.086025953292847,-9.9,-3.06,-0.81,10.39
10.092412948608398,-10.17,-2.89,0.34,10.57
10.102481126785278,-8.52,-4.1,1.16,9.52
10.11269211769104,-6.2,-6.24,1.61,8.94
10.12238597869873,-5.06,-7.82,1.7,9.46
10.132437944412231,-5.1,-8.26,1.62,9.84
10.142306089401245,-5.27,-7.95,1.04,9.59
10.180088996887207,-5.33,-7.26,0.48,9.01
10.181269884109497,-5.32,-6.98,-0.28,8.78
10.182259798049927,-5.13,-6.97,-1.21,8.73
10.194076776504517,-5.6,-6.33,-0.95,8.5
10.19514799118042,-5.51,-6.8,-1.97,8.97
10.210389852523804,-4.96,-6.87,-2.45,8.82
10.21142292022705,-4.52,-6.97,-2.61,8.7
10.225896120071411,-4.09,-7.36,-2.56,8.8
10.231613874435425,-3.72,-7.84,-2.22,8.95
10.242057085037231,-3.52,-8.06,-1.73,8.96
10.277704000473022,-3.52,-8.23,-1.38,9.05
10.278846025466919,-3.57,-8.36,-1.14,9.16
10.279672861099243,-3.69,-8.62,-1.0,9.42
10.294226884841919,-3.97,-8.73,-0.65,9.61
10.295286893844604,-4.34,-8.54,-0.09,9.57
10.310194969177246,-4.56,-7.82,0.61,9.07
10.311262845993042,-4.36,-6.53,1.37,7.97
10.325785875320435,-3.46,-5.04,1.98,6.42
10.330699920654297,-1.47,-3.08,2.18,4.04
10.342061996459961,1.58,-0.41,3.41,3.78
10.350850820541382,4.99,2.55,4.56,7.22
10.384505033493042,7.51,5.36,4.86,10.42
10.385721921920776,8.87,8.9,4.92,13.49
10.38697099685669,10.46,13.94,5.75,18.35
10.390607118606567,12.58,19.11,6.58,23.8
10.407516956329346,14.5,21.27,5.28,26.27
10.410125017166138,16.08,20.74,2.87,26.39
10.423595905303955,17.4,19.24,1.87,26.0
10.430439949035645,17.08,20.35,1.45,26.6
10.440531969070435,17.24,14.7,-1.33,22.69
10.450165033340454,9.35,-0.59,-9.68,13.47
10.483710050582886,-6.26,-5.69,-16.01,18.1
10.484934091567993,-18.34,11.63,-9.06,23.53
10.486372947692871,-17.04,39.69,18.42,46.95
10.491904973983765,-10.99,22.29,8.25,26.18
10.499568939208984,-1.57,-1.25,2.24,3.0
10.510258913040161,6.06,-3.06,2.55,7.25
10.519484996795654,10.19,-6.13,0.74,11.91
10.52936577796936,12.07,-8.04,-0.7,14.51
10.539259910583496,12.01,-6.11,-0.46,13.48
10.549083948135376,8.95,-2.28,0.06,9.23
10.580439805984497,4.51,-0.57,-0.81,4.61
10.581794023513794,1.3,0.74,-1.39,2.04
10.582819938659668,-0.42,2.23,-0.89,2.43
10.59421706199646,-1.0,2.39,0.21,2.59
10.598632097244263,-0.77,1.15,1.1,1.76
10.610299825668335,-0.08,-0.32,1.75,1.78
10.618654012680054,0.5,-1.46,2.02,2.54
10.628287076950073,0.43,-1.71,1.55,2.34
10.63869595527649,0.01,-0.89,0.83,1.21
10.648567914962769,-0.05,0.15,0.14,0.21
10.679893970489502,0.28,0.51,-0.25,0.63
10.681278944015503,0.59,0.2,-0.58,0.85
10.682225942611694,0.81,-0.14,-0.87,1.19
10.690882921218872,0.92,-0.27,-0.93,1.33
10.697943925857544,0.67,-0.21,-0.67,0.97
10.710553884506226,0.22,0.03,0.16,0.27
10.717870950698853,-0.25,0.23,0.95,1.0
10.727499961853027,-0.66,0.17,1.18,1.36
10.737740993499756,-0.88,0.05,0.75,1.15
10.747956037521362,-0.86,0.02,-0.03,0.86
10.78615403175354,-0.58,0.22,-0.92,1.1
10.787515878677368,-0.29,0.45,-1.41,1.5
10.788451910018921,-0.29,0.59,-1.56,1.69
10.790625810623169,-0.54,0.62,-1.24,1.48
10.797266960144043,-0.83,0.54,-0.33,1.04
10.807269811630249,-1.21,0.39,0.52,1.37
10.81723690032959,-1.5,0.33,0.78,1.72
10.827003955841064,-1.53,0.29,0.07,1.55
10.837146997451782,-1.4,0.35,-0.84,1.66
10.847108125686646,-1.23,0.63,-1.2,1.83
10.88429594039917,-1.08,0.84,-1.09,1.74
10.88559603691101,-0.95,0.84,-1.03,1.63
10.886526823043823,-1.05,0.78,-1.03,1.66
10.890651941299438,-1.32,0.84,-1.07,1.89
10.910167932510376,-1.7,0.93,-1.22,2.28
10.911186933517456,-1.97,1.08,-1.14,2.51
10.925698041915894,-2.14,1.27,-0.94,2.66
10.926755905151367,-2.16,1.66,-0.87,2.85
10.942394971847534,-2.23,2.1,-0.97,3.21
10.94615912437439,-2.37,2.8,-0.77,3.74
10.986366033554077,-2.74,3.69,-0.67,4.64
10.987531900405884,-3.21,4.03,-0.89,5.22
10.988868951797485,-3.82,4.32,-0.78,5.81
10.992246866226196,-4.48,4.59,-1.14,6.51
10.99559497833252,-5.12,5.34,-1.52,7.55
11.005628824234009,-5.77,6.34,-2.17,8.84
11.01566481590271,-7.25,7.95,-2.61,11.07
11.025579929351807,-9.49,10.63,-3.43,14.65
11.035588026046753,-11.52,12.64,-5.89,18.08
11.046165943145752,-12.61,13.24,-7.38,19.71
11.081439971923828,-12.91,12.66,-7.61,19.61
11.08262300491333,-13.57,10.71,-8.59,19.3
11.083635091781616,-13.99,10.86,-6.52,18.87
11.085778951644897,-11.06,14.06,-2.28,18.03
11.09580111503601,-4.53,14.52,-3.83,15.68
11.104784965515137,0.52,11.22,-6.4,12.92
11.114841938018799,1.42,5.54,-4.48,7.26
11.124675035476685,0.13,0.08,-5.53,5.53
11.134917974472046,-0.97,-4.37,-7.92,9.09
11.144853830337524,2.51,-0.7,-6.13,6.66
11.154614925384521,7.38,2.15,1.27,7.79
11.187713861465454,4.22,-2.32,-0.63,4.85
11.189112901687622,-2.32,-4.02,-4.98,6.8
11.190138101577759,-6.24,-4.55,-3.52,8.48
11.211336851119995,-9.18,-3.8,-2.52,10.25
11.212330102920532,-12.03,-3.64,-2.96,12.91
11.22607684135437,-13.69,-4.05,-2.24,14.45
11.227081060409546,-11.99,-4.83,0.41,12.93
11.241611957550049,-7.85,-6.74,2.6,10.66
11.243911981582642,-5.09,-8.05,2.67,9.89
11.259406805038452,-4.99,-8.08,1.17,9.56
11.287885904312134,-5.28,-7.04,-0.45,8.81
11.289355039596558,-5.45,-5.84,-1.11,8.06
11.290364027023315,-5.2,-5.68,-2.03,7.96
11.311376810073853,-4.39,-5.83,-2.86,7.83
11.312434911727905,-3.48,-6.37,-3.88,8.23
11.327449083328247,-2.83,-6.76,-4.53,8.61
11.328488111495972,-2.87,-5.93,-4.77,8.13
11.343333005905151,-2.22,-5.79,-4.49,7.65
11.344754934310913,-0.85,-6.73,-4.3,8.03
11.359432935714722,0.37,-7.72,-4.39,8.88
11.388361930847168,1.22,-8.64,-4.62,9.87
11.389701128005981,1.67,-9.24,-4.61,10.46
11.390700101852417,1.75,-9.35,-3.99,10.31
11.411321878433228,1.74,-8.84,-2.45,9.33
11.412344932556152,1.87,-7.91,-0.97,8.18
11.426361799240112,2.39,-6.99,-0.51,7.4
11.427385091781616,3.6,-5.42,-0.43,6.52
11.443176031112671,5.42,-3.2,0.89,6.35
11.444624900817871,7.25,-0.56,3.42,8.03
11.459489107131958,8.69,2.2,5.67,10.6
11.486953973770142,9.39,4.64,7.24,12.73
11.48832893371582,9.91,7.23,8.32,14.82
11.489354848861694,10.94,10.1,8.38,17.08
11.491863012313843,12.15,12.96,7.32,19.21
11.502549886703491,13.85,16.3,6.45,22.34
11.512550115585327,16.31,18.12,5.37,24.96
11.52211308479309,18.77,16.47,4.78,25.42
11.531590938568115,18.43,16.72,4.15,25.22
11.541384935379028,14.9,15.44,2.05,21.55
11.551692008972168,4.59,-1.04,-8.34,9.57
11.587722063064575,-9.72,-3.9,-20.7,23.19
11.589197874069214,-22.63,20.54,-14.57,33.85
11.590228796005249,-23.21,48.29,16.3,56.0
11.591309785842896,-13.11,17.65,5.1,22.56
11.601087808609009,1.8,-0.13,5.11,5.41
11.61113691329956,6.77,-7.9,7.1,12.59
11.620985984802246,9.09,-12.58,2.6,15.73
11.630855798721313,10.88,-12.06,1.04,16.27
11.641010046005249,11.27,-8.73,0.94,14.28
11.650975942611694,8.33,-3.35,0.61,8.99
11.687518835067749,3.96,-0.34,-0.84,4.06
11.688795804977417,0.9,2.13,-2.13,3.14
11.689600944519043,-0.58,4.12,-3.18,5.23
11.691900968551636,-0.7,3.94,-2.95,4.97
11.70042896270752,0.07,1.64,-0.35,1.67
11.710345983505249,1.02,-0.84,2.67,2.97
11.720156908035278,1.12,-2.52,3.5,4.45
11.730170011520386,0.4,-2.61,2.47,3.61
11.740216970443726,0.23,-1.14,1.11,1.6
11.750194787979126,0.85,0.26,-0.45,0.99
11.786802053451538,1.25,0.77,-0.97,1.75
11.788209915161133,0.97,0.53,-0.18,1.11
11.789180040359497,0.7,-0.09,0.54,0.88
11.791558027267456,0.72,-0.57,0.6,1.09
11.799533128738403,0.89,-0.68,-0.08,1.12
11.809654951095581,0.71,-0.32,-0.71,1.05
11.819531917572021,0.06,0.29,-0.57,0.64
11.829391956329346,-0.55,0.6,0.0,0.81
11.83945894241333,-0.78,0.51,0.46,1.03
11.849579095840454,-0.66,0.16,0.33,0.75
11.886048078536987,-0.34,-0.03,0.05,0.34
11.887376070022583,-0.15,0.08,-0.16,0.23
11.888354063034058,-0.23,0.19,-0.73,0.78
11.890729904174805,-0.51,0.45,-1.06,1.25
11.910745859146118,-0.77,0.7,-0.7,1.25
11.911678075790405,-0.96,0.64,-0.25,1.18
11.926299810409546,-0.91,0.46,0.16,1.03
11.928380012512207,-0.92,0.31,0.41,1.05
11.94277310371399,-1.22,0.22,0.03,1.24
11.94865894317627,-1.55,0.41,-0.56,1.69
11.959386110305786,-1.54,0.75,-0.86,1.91
11.990592956542969,-1.33,0.9,-1.01,1.89
11.991867780685425,-1.17,0.9,-1.27,1.94
11.992785930633545,-1.2,0.92,-1.46,2.1
12.01129412651062,-1.45,1.04,-1.71,2.47
12.012372970581055,-1.89,1.21,-1.64,2.77
12.027588129043579,-2.38,1.36,-1.53,3.13
12.028630018234253,-2.57,1.6,-1.26,3.27
12.043361902236938,-2.31,2.0,-1.04,3.22
12.047902822494507,-2.26,2.43,-1.06,3.48
12.059582948684692,-2.43,3.13,-0.96,4.07
12.088405847549438,-2.87,4.04,-0.94,5.04
12.089805841445923,-3.5,4.4,-0.98,5.7
12.090779066085815,-4.06,4.64,-0.86,6.22
12.111604928970337,-4.64,4.95,-1.28,6.9
12.112673044204712,-5.12,5.47,-1.78,7.7
12.127594947814941,-5.68,6.31,-2.2,8.77
12.128657102584839,-6.51,7.65,-2.82,10.43
12.143728017807007,-7.87,8.94,-3.9,12.53
12.147121906280518,-9.85,10.23,-5.43,15.2
12.159701108932495,-11.25,11.13,-6.44,17.08
12.188602924346924,-11.69,11.06,-7.33,17.68
12.189947843551636,-11.58,10.07,-8.9,17.74
12.190932035446167,-11.64,9.45,-10.47,18.28
12.211869955062866,-10.73,12.35,-7.49,17.99
12.212897062301636,-6.77,16.75,-3.54,18.4
12.226487874984741,-1.46,16.87,-5.43,17.78
12.227516889572144,1.12,9.94,-6.77,12.07
12.24391484260559,1.21,4.49,-5.63,7.3
12.24633002281189,-0.95,0.09,-6.32,6.39
12.259727001190186,0.07,0.64,-5.06,5.1
12.286895036697388,5.58,7.08,2.53,9.36
12.288136005401611,5.72,1.69,3.66,6.99
12.289142847061157,-0.37,-3.57,-2.99,4.67
12.295857906341553,-4.8,-4.33,-3.04,7.14
12.306050062179565,-7.57,-3.4,-0.61,8.32
12.315979957580566,-10.13,-3.78,0.04,10.81
12.325909852981567,-11.15,-4.64,1.11,12.12
12.335896968841553,-9.55,-6.07,2.21,11.52
12.346261978149414,-6.64,-8.03,3.22,10.9
12.355731010437012,-5.19,-9.28,2.32,10.88
12.393748998641968,-5.51,-9.3,0.91,10.84
12.395173788070679,-6.4,-8.46,0.31,10.61
12.396197080612183,-6.69,-7.79,-0.35,10.27
12.412122964859009,-6.25,-7.75,-0.98,10.0
12.413153886795044,-5.79,-7.76,-1.45,9.79
12.427695989608765,-5.4,-7.87,-2.03,9.75
12.428745985031128,-5.17,-8.01,-2.72,9.91
12.443660020828247,-4.94,-8.22,-3.13,10.08
12.445110082626343,-4.49,-8.7,-3.31,10.33
12.459850072860718,-4.04,-9.0,-3.24,10.38
12.494211912155151,-3.63,-9.25,-3.06,10.39
12.495440006256104,-3.22,-9.45,-2.9,10.39
12.496332883834839,-2.96,-9.71,-2.61,10.48
12.511956930160522,-2.84,-9.91,-2.13,10.52
12.512998819351196,-2.9,-10.01,-1.38,10.51
12.527765989303589,-3.02,-9.89,-0.43,10.34
12.529139995574951,-2.92,-9.32,0.3,9.77
12.543514013290405,-2.31,-8.01,0.85,8.37
12.545002937316895,-1.05,-6.13,0.69,6.25
12.559744119644165,1.01,-3.82,0.35,3.96
12.593254804611206,3.64,-1.05,1.56,4.09
12.594834089279175,6.83,2.36,3.32,7.95
12.59585189819336,9.7,5.6,4.34,12.01
12.612168073654175,11.8,9.25,4.9,15.77
12.613252878189087,13.29,13.42,4.71,19.46
12.628380060195923,14.12,17.43,3.43,22.69
12.62995195388794,14.71,20.84,1.64,25.56
12.641667127609253,15.67,22.85,0.27,27.7
12.643342971801758,15.22,23.31,-1.98,27.9
12.657740831375122,13.84,22.71,-1.83,26.65
12.691409826278687,11.59,14.98,-5.58,19.74
12.692824125289917,-0.05,1.14,-9.11,9.18
12.693803071975708,-13.22,6.13,-7.4,16.34
12.712207078933716,-19.04,28.43,7.64,35.05
12.71324610710144,-15.56,21.46,8.57,27.85
12.72785496711731,-5.85,1.15,6.5,8.82
12.728874921798706,3.15,-1.58,6.93,7.77
12.74326491355896,8.99,-1.05,4.72,10.2
12.744727849960327,10.93,-5.09,0.78,12.08
12.759776830673218,11.11,-6.14,-2.97,13.03
12.7623770236969,9.59,-3.27,-3.18,10.61
12.807493925094604,6.45,-0.24,-2.06,6.77
12.808688879013062,2.92,0.58,-2.22,3.71
12.809684038162231,0.74,1.13,-2.4,2.75
12.828994035720825,-0.25,1.45,-1.62,2.18
12.830063104629517,-0.45,0.85,0.3,1.0
12.844468832015991,-0.08,-0.02,2.97,2.97
12.845504999160767,0.2,-1.09,4.61,4.74
12.860599994659424,0.44,-1.93,3.65,4.15
12.862060785293579,0.73,-1.75,1.79,2.6
12.876760959625244,1.03,-0.7,0.45,1.32
12.908721923828125,1.08,0.12,-0.66,1.27
12.910014867782593,0.81,0.4,-1.11,1.43
12.911041975021362,0.65,0.32,-0.71,1.01
12.928664922714233,0.8,0.04,-0.15,0.81
12.92970895767212,1.16,-0.24,-0.22,1.2
12.944516897201538,1.15,-0.34,-0.59,1.33
12.945550918579102,0.6,-0.1,-0.58,0.84
12.961184978485107,0.07,0.07,-0.21,0.23
12.962416887283325,-0.2,0.06,0.33,0.39
12.977329969406128,-0.46,-0.08,0.75,0.88
13.00718903541565,-0.71,-0.06,0.86,1.11
13.008529901504517,-0.49,0.05,0.52,0.71
13.009446859359741,0.05,0.05,-0.49,0.49
13.026386976242065,0.24,0.14,-1.25,1.28
13.027366876602173,-0.26,0.4,-1.18,1.27
13.041672945022583,-0.9,0.67,-0.6,1.27
13.042566061019897,-1.18,0.65,0.02,1.34
13.060322046279907,-1.25,0.5,0.62,1.48
13.061338901519775,-1.37,0.41,0.93,1.7
13.076772928237915,-1.49,0.39,0.49,1.61
13.105402946472168,-1.54,0.44,-0.28,1.62
13.107441902160645,-1.53,0.6,-0.98,1.91
13.108261823654175,-1.5,0.84,-1.29,2.14
13.12897801399231,-1.5,1.01,-1.35,2.25
13.129954099655151,-1.66,1.07,-1.22,2.32
13.14471697807312,-1.92,1.13,-1.14,2.5
13.145739793777466,-1.91,1.18,-1.24,2.56
13.160108804702759,-1.65,1.33,-1.18,2.42
13.16112208366394,-1.48,1.53,-1.22,2.45
13.176496982574463,-1.54,1.81,-1.36,2.73
13.204741954803467,-1.83,2.19,-1.19,3.09
13.205904960632324,-2.19,2.83,-1.1,3.74
13.206707954406738,-2.46,3.56,-1.23,4.49
13.209125995635986,-2.86,3.77,-1.68,5.02
13.210317850112915,-3.17,3.95,-1.67,5.33
13.218857049942017,-3.46,3.98,-1.89,5.6
13.228838920593262,-3.7,4.18,-2.1,5.96
13.238635778427124,-4.2,4.92,-2.14,6.81
13.248938798904419,-5.45,6.15,-2.73,8.65
13.258740901947021,-7.23,7.85,-3.35,11.18
13.296126127243042,-9.43,9.88,-3.37,14.06
13.297104120254517,-11.42,11.58,-3.93,16.73
13.297960042953491,-12.4,12.09,-5.73,18.24
13.3123459815979,-12.31,11.41,-7.33,18.31
13.31338381767273,-12.27,9.95,-9.78,18.57
13.327615022659302,-12.15,9.99,-9.92,18.59
13.32862401008606,-9.79,13.9,-4.21,17.51
13.343815088272095,-4.47,15.57,-2.84,16.44
13.347929954528809,0.16,11.33,-5.27,12.49
13.360799074172974,0.97,4.08,-5.63,7.02
13.394416093826294,-0.97,0.14,-5.44,5.52
13.395462989807129,-3.2,-2.67,-5.05,6.54
13.396265983581543,-0.04,-1.07,-3.86,4.0
13.412517786026001,6.69,3.51,2.27,7.88
13.41358208656311,6.54,-1.76,2.44,7.19
13.428575992584229,0.24,-5.64,-4.09,6.97
13.429620027542114,-4.58,-6.04,-3.58,8.38
13.44369101524353,-7.18,-4.54,-1.68,8.65
13.447139978408813,-9.24,-3.61,-1.59,10.04
13.460312128067017,-10.13,-3.02,-1.1,10.62
13.496143102645874,-8.63,-3.39,-0.56,9.28
13.497472047805786,-5.53,-4.47,0.64,7.13
13.498492956161499,-3.44,-5.6,1.49,6.73
13.512542963027954,-3.26,-6.55,1.47,7.46
13.513592958450317,-3.72,-6.84,1.0,7.85
13.528292894363403,-4.0,-6.48,0.24,7.61
13.529287099838257,-3.99,-6.32,-0.87,7.52
13.543715953826904,-4.23,-5.97,-1.47,7.46
13.546254873275757,-3.99,-6.09,-2.59,7.72
13.560171842575073,-3.65,-5.9,-3.2,7.64
13.566654920578003,-3.27,-5.97,-3.34,7.58
13.60649299621582,-2.89,-6.33,-3.03,7.58
13.607525110244751,-2.6,-6.9,-2.56,7.8
13.608526945114136,-2.22,-7.72,-2.15,8.31
13.629224061965942,-1.88,-8.38,-2.11,8.84
13.630286931991577,-1.69,-8.91,-2.36,9.37
13.645092010498047,-1.57,-9.07,-2.4,9.51
13.64613389968872,-1.55,-8.69,-2.0,9.05
13.660914897918701,-1.59,-7.69,-1.15,7.93
13.662389993667603,-0.79,-6.6,-1.17,6.74
13.677293062210083,1.26,-5.85,-1.75,6.23
13.707963943481445,3.35,-4.88,-1.2,6.03
13.709223985671997,4.85,-3.1,0.31,5.76
13.71024203300476,6.3,-0.78,1.89,6.62
13.729095935821533,7.87,1.52,2.76,8.47
13.730140924453735,9.28,3.98,3.14,10.57
13.744954824447632,10.06,6.37,3.19,12.32
13.746000051498413,10.64,8.73,2.82,14.04
13.760551929473877,11.38,10.62,1.65,15.65
13.761605978012085,13.04,12.57,1.85,18.2
13.777313947677612,15.17,13.53,1.66,20.39
13.806641817092896,17.04,13.06,1.81,21.54
13.807902097702026,18.18,12.3,2.73,22.11
13.808911085128784,18.39,10.97,4.4,21.86
13.829198122024536,17.45,9.33,6.67,20.88
13.830262899398804,12.31,7.32,7.8,16.3
13.844909906387329,0.79,5.57,7.5,9.37
13.845943927764893,-7.69,0.24,0.03,7.69
13.861100912094116,-17.97,-4.41,-12.46,22.3
13.86258578300476,-33.09,14.27,-23.75,43.15
13.876183986663818,-22.24,45.7,17.81,53.85
13.902122974395752,-11.33,23.5,11.19,28.38
13.903512001037598,-3.23,-4.17,1.03,5.37
13.904634952545166,6.3,-6.89,3.63,10.01
13.909132957458496,11.04,-8.91,4.85,14.99
13.913403987884521,11.76,-10.22,3.13,15.89
13.928667783737183,11.51,-8.12,-0.67,14.1
13.933346033096313,9.25,-3.57,-1.25,9.99
13.94444489479065,5.9,-0.27,-2.54,6.42
13.953717947006226,2.95,1.89,-4.05,5.35
13.963412046432495,0.88,3.24,-2.45,4.15
14.000219106674194,-0.55,2.66,1.5,3.1
14.001598119735718,-1.13,0.59,4.01,4.2
14.002671003341675,-0.72,-1.34,3.23,3.57
14.012710809707642,0.39,-1.75,1.6,2.4
14.013762950897217,1.38,-0.93,0.28,1.68
14.028560876846313,1.58,-0.3,-0.72,1.76
14.032701969146729,1.13,0.12,-0.51,1.24
14.043898820877075,0.61,0.27,0.04,0.66
14.052937984466553,0.48,0.11,0.12,0.5
14.062663793563843,0.81,-0.03,-0.3,0.86
14.099532842636108,1.06,-0.06,-0.71,1.27
14.100925922393799,0.83,-0.03,-0.73,1.1
14.102005004882812,0.12,0.03,-0.32,0.34
14.112761974334717,-0.61,0.08,-0.03,0.61
14.113818883895874,-1.02,0.17,0.56,1.17
14.128698110580444,-0.87,0.16,0.9,1.26
14.131839990615845,-0.26,0.02,0.36,0.44
14.142217874526978,0.39,-0.06,-0.41,0.56
14.152240991592407,0.55,-0.04,-1.0,1.14
14.162149906158447,0.22,0.08,-0.9,0.92
14.199068784713745,-0.53,0.26,-0.48,0.76
14.200237035751343,-1.11,0.46,-0.19,1.21
14.201242923736572,-1.19,0.59,-0.04,1.32
14.213322877883911,-0.81,0.63,-0.06,1.02
14.214339017868042,-0.43,0.4,-0.18,0.61
14.228859901428223,-0.36,0.15,-0.25,0.46
14.231147050857544,-0.49,0.05,-0.39,0.62
14.24344801902771,-0.68,0.17,-0.59,0.91
14.251545906066895,-0.8,0.41,-0.79,1.19
14.261162042617798,-0.89,0.66,-1.08,1.54
14.298213005065918,-1.07,0.97,-1.23,1.89
14.299514055252075,-1.32,1.16,-1.28,2.17
14.300605058670044,-1.57,1.21,-1.19,2.31
14.312703847885132,-1.74,1.28,-0.97,2.36
14.313781023025513,-1.61,1.35,-0.88,2.27
14.328809976577759,-1.32,1.48,-0.91,2.18
14.330282926559448,-1.23,1.8,-0.82,2.32
14.344450950622559,-1.43,2.02,-0.94,2.64
14.350592851638794,-1.72,2.44,-1.38,3.28
14.360745906829834,-2.03,3.18,-1.37,4.01
14.370527029037476,-2.57,3.45,-1.69,4.62
14.402151823043823,-3.02,3.79,-1.6,5.1
14.403315782546997,-3.43,3.97,-1.73,5.52
14.404640913009644,-3.71,4.23,-1.94,5.95
14.410555124282837,-4.22,4.8,-2.16,6.74
14.419986963272095,-5.03,5.78,-2.26,7.98
14.429932832717896,-6.36,7.5,-2.3,10.09
14.439624071121216,-8.16,9.75,-3.22,13.11
14.449706792831421,-9.81,11.21,-5.7,15.94
14.460465908050537,-10.66,12.02,-7.51,17.73
14.469603776931763,-10.61,11.89,-8.87,18.23
14.500560998916626,-9.99,10.87,-10.86,18.32
14.502042055130005,-9.47,9.99,-12.02,18.27
14.503051042556763,-8.58,10.82,-9.36,16.68
14.51293396949768,-5.54,14.32,-4.39,15.96
14.519817113876343,-0.81,16.39,-3.07,16.69
14.529017925262451,1.17,10.1,-6.47,12.05
14.53939700126648,-0.8,2.64,-7.62,8.1
14.54918885231018,-3.82,-1.38,-6.75,7.87
14.559211015701294,-3.11,-0.12,-2.87,4.23
14.568995952606201,2.18,4.6,5.57,7.54
14.601416826248169,1.23,-1.62,3.18,3.77
14.602739095687866,-2.89,-5.61,-2.35,6.73
14.603779077529907,-5.47,-4.52,-1.8,7.32
14.610513925552368,-7.61,-2.73,-1.05,8.15
14.618460893630981,-9.02,-2.25,-0.77,9.32
14.629402875900269,-8.73,-2.84,-0.16,9.18
14.638285875320435,-6.67,-4.43,0.45,8.01
14.648140907287598,-4.52,-6.39,1.51,7.97
14.65846300125122,-3.8,-7.9,1.62,8.91
14.668246984481812,-4.19,-8.14,1.36,9.25
14.699517965316772,-5.01,-7.67,0.87,9.2
14.70082402229309,-5.5,-7.09,0.27,8.97
14.70182991027832,-5.38,-6.69,-0.45,8.59
14.713007926940918,-5.41,-6.18,-0.89,8.26
14.717634916305542,-5.1,-6.45,-1.94,8.44
14.727399110794067,-4.82,-6.43,-2.5,8.41
14.737624883651733,-4.76,-6.49,-2.54,8.43
14.747345924377441,-4.69,-6.82,-2.18,8.55
14.757703065872192,-4.58,-7.43,-1.67,8.88
14.767439126968384,-4.41,-7.96,-1.22,9.18
14.804654836654663,-4.17,-8.45,-0.92,9.46
14.805919885635376,-4.02,-8.84,-0.47,9.72
14.806885957717896,-4.1,-9.31,0.0,10.17
14.809338808059692,-4.27,-9.6,0.81,10.53
14.81695294380188,-4.15,-9.27,1.71,10.29
14.826831102371216,-3.37,-8.15,2.51,9.16
14.836733102798462,-1.64,-6.8,2.77,7.52
14.84703278541565,0.52,-5.29,1.98,5.67
14.856788873672485,2.76,-3.39,2.33,4.95
14.866697072982788,5.16,-0.81,3.71,6.4
14.903688907623291,7.93,2.24,5.42,9.86
14.905121088027954,10.58,5.18,6.99,13.69
14.906105995178223,12.51,8.22,8.8,17.36
14.908439874649048,13.91,12.02,10.83,21.33
14.926559925079346,14.15,16.3,11.8,24.59
14.927623987197876,13.86,19.44,11.32,26.42
14.942256927490234,13.53,20.71,7.7,25.9
14.94603705406189,13.66,22.82,0.3,26.59
14.958547830581665,12.86,14.23,-15.15,24.44
14.965872049331665,1.51,-0.35,-29.14,29.18
15.00114893913269,-8.33,17.53,-27.92,34.0
15.002333879470825,-9.61,53.32,5.48,54.45
15.003509998321533,-7.31,15.76,7.31,18.84
15.013667821884155,-0.36,-4.52,9.64,10.65
15.015124082565308,5.3,-7.55,13.18,16.08
15.028527975082397,7.56,-10.23,10.45,16.46
15.034999132156372,8.33,-11.85,3.3,14.85
15.045214891433716,8.46,-8.31,0.13,11.85
15.055303812026978,6.85,-2.27,-0.91,7.27
15.065053939819336,4.31,1.62,-1.94,4.99
15.102193117141724,2.19,4.46,-3.29,5.95
15.103490114212036,0.59,5.06,-5.44,7.45
15.104612112045288,0.05,3.25,-4.94,5.91
15.11250901222229,1.03,0.9,-1.34,1.91
15.114543914794922,1.58,-1.38,2.54,3.29
15.12802004814148,0.56,-2.84,4.21,5.1
15.134790897369385,-0.71,-2.92,3.94,4.95
15.14490294456482,-0.61,-1.71,2.06,2.74
15.154729127883911,0.56,0.23,0.31,0.68
15.164489030838013,0.95,1.33,-0.55,1.72
15.174597978591919,0.49,0.98,-0.43,1.17
15.206714868545532,0.21,0.07,0.17,0.27
15.207887887954712,0.46,-0.6,0.26,0.79
15.208846807479858,0.8,-0.63,-0.33,1.07
15.22966980934143,0.74,-0.17,-0.93,1.2
15.230731964111328,0.41,0.38,-0.66,0.86
15.246155977249146,0.05,0.52,-0.11,0.53
15.247616052627563,-0.35,0.31,0.09,0.47
15.261611938476562,-0.67,0.15,0.1,0.69
15.263447046279907,-0.75,0.15,0.24,0.8
15.277731895446777,-0.63,0.25,0.25,0.72
15.308132886886597,-0.29,0.39,-0.01,0.48
15.309439897537231,-0.19,0.43,-0.57,0.73
15.310455083847046,-0.35,0.55,-0.75,0.99
15.330020904541016,-0.76,0.61,-0.72,1.21
15.331505060195923,-1.25,0.67,-0.31,1.45
15.345936059951782,-1.68,0.6,-0.09,1.78
15.347427129745483,-1.71,0.45,-0.34,1.8
15.361676931381226,-1.29,0.33,-0.75,1.52
15.363157987594604,-0.82,0.4,-1.16,1.47
15.377861976623535,-0.71,0.61,-1.52,1.78
15.407757997512817,-0.83,0.87,-1.52,1.93
15.40898585319519,-0.82,1.13,-1.05,1.74
15.409946918487549,-0.68,1.25,-0.5,1.5
15.430269002914429,-0.83,1.3,-0.08,1.54
15.431772947311401,-1.32,1.45,0.0,1.96
15.446144819259644,-1.86,1.45,-0.48,2.4
15.447534799575806,-2.54,1.73,-0.46,3.1
15.461506128311157,-2.82,2.57,-0.12,3.81
15.462960958480835,-2.66,2.7,-0.63,3.84
15.477687120437622,-2.43,2.78,-0.62,3.74
15.507070779800415,-2.38,2.77,-0.89,3.75
15.5084388256073,-2.58,2.89,-1.23,4.06
15.509436845779419,-2.88,3.14,-1.47,4.5
15.529940843582153,-3.35,3.35,-1.88,5.09
15.531246900558472,-3.96,3.91,-2.0,5.91
15.546274900436401,-4.66,4.72,-2.11,6.96
15.547743082046509,-5.61,5.66,-2.22,8.27
15.56207013130188,-7.35,7.35,-2.64,10.72
15.563597917556763,-9.22,9.27,-4.19,13.72
15.577802896499634,-10.39,10.45,-5.94,15.88
15.609750032424927,-11.01,10.71,-6.79,16.79
15.6111581325531,-11.27,10.15,-7.18,16.78
15.612165927886963,-11.62,9.39,-8.04,16.96
15.630370855331421,-11.12,11.83,-5.72,17.21
15.631880044937134,-8.06,15.52,-2.32,17.64
15.643568992614746,-2.89,15.79,-4.17,16.58
15.64510989189148,0.07,11.02,-6.88,12.99
15.662113904953003,-0.51,4.94,-6.44,8.13
15.66361403465271,-3.33,0.48,-5.98,6.86
15.678046941757202,-5.27,-3.49,-6.17,8.83
15.710539102554321,-1.87,-1.48,-4.54,5.12
15.711859941482544,3.57,2.14,2.0,4.61
15.712875127792358,1.68,-2.68,0.43,3.19
15.730334043502808,-3.14,-4.61,-2.85,6.26
15.731857061386108,-6.32,-5.38,-1.82,8.49
15.746408939361572,-9.23,-5.26,-1.2,10.69
15.74788784980774,-11.44,-4.57,-1.22,12.37
15.761618852615356,-12.42,-4.01,-0.82,13.07
15.763091802597046,-11.19,-3.41,0.64,11.71
15.778021097183228,-8.13,-4.14,1.95,9.32
15.806874990463257,-5.2,-5.21,2.45,7.75
15.808191061019897,-3.83,-5.53,2.13,7.05
15.809210062026978,-3.6,-4.7,1.59,6.13
15.830191850662231,-3.37,-3.41,0.86,4.87
15.831681966781616,-2.61,-2.57,-0.3,3.67
15.84634804725647,-1.83,-2.11,-1.34,3.09
15.847792863845825,-1.21,-1.96,-2.25,3.21
15.86172080039978,-0.71,-2.27,-3.13,3.93
15.863171815872192,-0.52,-2.76,-3.76,4.69
15.877944946289062,-0.6,-3.47,-3.88,5.23
15.908419847488403,-0.69,-4.36,-3.34,5.53
15.90988278388977,-0.57,-5.46,-2.49,6.02
15.910831928253174,-0.36,-6.68,-1.56,6.86
15.930776834487915,-0.18,-7.77,-0.6,7.79
15.932227849960327,-0.05,-8.57,0.37,8.57
15.946479082107544,0.07,-8.77,1.48,8.89
15.947951078414917,0.62,-8.33,2.25,8.65
15.961862802505493,1.73,-7.62,2.44,8.18
15.963357925415039,2.91,-6.39,2.89,7.59
15.978086948394775,3.76,-4.87,4.21,7.45
15.979556798934937,4.83,-3.12,5.46,7.92
16.029651880264282,6.52,-1.16,6.24,9.09
16.03083109855652,8.65,0.89,6.44,10.82
16.03184199333191,10.86,3.15,6.68,13.13
16.047075033187866,13.59,5.59,7.49,16.49
16.04811406135559,16.43,7.66,8.06,19.83
16.063217878341675,18.75,9.33,8.09,22.45
16.0647189617157,19.91,9.91,7.74,23.54
16.078418016433716,20.39,9.5,8.09,23.9
16.079867124557495,19.49,7.82,7.37,22.25
16.094644784927368,16.18,9.2,3.59,18.95
16.12250781059265,8.18,3.5,-7.1,11.38
16.123865842819214,-5.92,-1.59,-25.69,26.41
16.12488293647766,-18.38,32.63,-23.99,44.47
16.127285957336426,-22.93,67.44,7.36,71.61
16.128730058670044,-11.39,23.21,-0.94,25.87
16.136903047561646,-1.74,-7.56,2.17,8.05
16.146790981292725,2.93,-16.58,9.49,19.32
16.15667200088501,8.53,-19.05,7.0,22.01
16.167062997817993,12.72,-17.37,7.83,22.9
16.177006006240845,12.39,-11.39,6.66,18.09
16.20539093017578,6.96,-3.14,4.25,8.73
16.2065589427948,1.29,0.4,0.05,1.35
16.20803189277649,-0.92,2.72,-3.61,4.61
16.216400861740112,-0.5,5.25,-4.0,6.61
16.226366996765137,0.42,6.29,-2.36,6.73
16.23616600036621,1.13,2.67,-1.17,3.12
16.246065855026245,1.77,-1.2,-0.03,2.13
16.25593090057373,2.0,-2.6,0.82,3.38
16.266163110733032,1.36,-2.33,1.18,2.94
16.276246786117554,0.53,-0.98,0.81,1.37
16.3052179813385,0.38,0.18,-0.14,0.44
16.306375980377197,0.54,0.57,-0.63,1.0
16.30767512321472,0.52,0.42,-0.33,0.74
16.315436124801636,0.33,0.05,0.03,0.33
16.325627088546753,0.03,-0.15,0.1,0.18
16.3355610370636,-0.22,0.0,-0.05,0.22
16.345294952392578,-0.31,0.16,-0.37,0.5
16.355406999588013,-0.24,0.2,-0.5,0.58
16.3654568195343,-0.11,0.18,-0.45,0.49
16.37546181678772,-0.1,0.22,-0.19,0.3
16.41021490097046,-0.25,0.2,-0.11,0.33
16.4114089012146,-0.44,0.17,-0.2,0.51
16.41237497329712,-0.67,0.19,-0.2,0.72
16.430131912231445,-1.02,0.35,-0.32,1.12
16.43117594718933,-1.39,0.63,-0.41,1.58
16.445822954177856,-1.4,0.86,-0.16,1.65
16.44708490371704,-1.01,0.78,0.22,1.29
16.462013959884644,-0.65,0.43,0.37,0.86
16.464590787887573,-0.52,0.02,0.14,0.53
16.478226900100708,-0.42,-0.15,-0.38,0.58
16.5120849609375,-0.27,0.06,-0.58,0.64
16.51341199874878,-0.16,0.5,-0.66,0.84
16.51440405845642,-0.22,0.91,-0.78,1.21
16.530420064926147,-0.64,1.27,-0.72,1.59
16.531480073928833,-1.21,1.62,-0.52,2.08
16.54665207862854,-1.75,1.71,-0.42,2.48
16.54812979698181,-2.36,1.82,0.08,2.98
16.56201481819153,-2.72,1.86,-0.09,3.29
16.56378698348999,-2.86,2.17,-0.82,3.68
16.57844090461731,-2.59,2.41,-1.5,3.84
16.61092495918274,-2.43,2.65,-1.62,3.94
16.612124919891357,-2.35,2.83,-1.63,4.02
16.613101959228516,-2.46,3.04,-1.76,4.28
16.630781888961792,-2.78,3.35,-1.7,4.67
16.6318039894104,-3.33,3.67,-1.69,5.23
16.646764039993286,-3.89,3.93,-1.84,5.82
16.648185968399048,-4.61,4.17,-2.19,6.59
16.662012815475464,-5.56,5.04,-2.35,7.86
16.663486003875732,-6.79,6.73,-2.54,9.89
16.678555011749268,-8.15,8.61,-3.36,12.32
16.711071968078613,-9.86,10.52,-4.57,15.12
16.712378978729248,-11.31,12.15,-6.48,17.81
16.713384866714478,-12.25,12.43,-8.19,19.27
16.72732710838318,-12.68,11.66,-9.07,19.46
16.728368043899536,-12.65,12.55,-8.22,19.62
16.746844053268433,-10.34,16.01,-3.91,19.45
16.748358964920044,-5.05,18.11,-4.63,19.36
16.761209964752197,-0.82,15.5,-8.17,17.54
16.762726068496704,-0.15,8.75,-7.6,11.59
16.778414011001587,-2.07,3.02,-7.95,8.75
16.782100915908813,-3.45,-1.49,-8.63,9.41
16.82478404045105,0.48,0.0,-7.89,7.9
16.825988054275513,6.7,4.34,-0.07,7.98
16.826992988586426,5.33,-0.04,1.88,5.65
16.847248792648315,-1.68,-3.54,-3.29,5.11
16.848725080490112,-6.48,-5.47,-3.46,9.15
16.863204956054688,-9.92,-5.31,-2.13,11.45
16.864645957946777,-12.78,-3.76,-1.28,13.38
16.878840923309326,-14.46,-2.89,-0.71,14.76
16.880357027053833,-12.79,-3.38,0.91,13.26
16.896045923233032,-8.13,-5.33,2.13,9.95
16.924798011779785,-4.82,-7.23,2.35,9.0
16.926181077957153,-4.15,-8.71,2.19,9.89
16.92720103263855,-4.62,-8.53,1.66,9.84
16.946964979171753,-4.88,-7.37,1.06,8.9
16.94801688194275,-4.71,-6.88,-0.23,8.34
16.96362280845642,-4.55,-6.28,-1.55,7.9
16.965078115463257,-4.28,-5.92,-2.6,7.75
16.9788920879364,-4.03,-5.72,-3.38,7.77
16.980313062667847,-3.83,-5.72,-3.63,7.78
16.995163917541504,-3.45,-6.08,-3.41,7.77
17.023916006088257,-2.68,-6.74,-2.92,7.81
17.02521586418152,-1.64,-7.46,-2.38,8.0
17.026185989379883,-0.69,-8.26,-1.82,8.48
17.04711079597473,-0.13,-9.03,-1.24,9.11
17.04818892478943,0.19,-9.26,-0.27,9.26
17.06343388557434,0.68,-8.9,1.02,8.98
17.06487202644348,1.64,-8.08,1.57,8.39
17.07904887199402,3.07,-6.1,1.45,6.98
17.08042597770691,4.6,-3.7,2.03,6.24
17.095328092575073,5.87,-1.19,3.39,6.88
17.12372612953186,7.19,1.75,4.96,8.9
17.125202894210815,8.99,4.94,6.28,12.02
17.126224994659424,11.37,8.09,7.58,15.88
17.14677405357361,13.83,11.33,8.28,19.7
17.147895097732544,15.79,14.4,8.47,22.98
17.162317037582397,17.56,16.61,8.53,25.63
17.163886785507202,19.12,16.07,7.8,26.16
17.177963972091675,19.52,14.03,6.24,24.83
17.179511785507202,18.1,11.89,5.11,22.25
17.195395946502686,15.16,9.3,4.5,18.34
17.223271131515503,13.02,7.59,2.56,15.28
17.22470998764038,7.64,4.55,-2.95,9.36
17.22572898864746,-4.08,-7.02,-13.19,15.48
17.227450132369995,-20.89,-6.11,-36.47,42.47
17.228936910629272,-30.26,25.25,-17.76,43.22
17.23858904838562,-16.34,58.2,31.24,68.04
17.248289823532104,-7.71,21.1,5.89,23.22
17.258527040481567,1.14,-2.26,2.63,3.65
17.268269777297974,6.48,-7.4,7.54,12.39
17.27845788002014,7.64,-13.09,3.71,15.6
17.31218409538269,9.32,-13.39,0.56,16.32
17.313388109207153,10.17,-10.67,-0.19,14.74
17.31439185142517,9.54,-5.81,0.74,11.19
17.33063006401062,7.16,-0.63,0.39,7.19
17.331694841384888,3.55,2.76,-1.11,4.63
17.346529006958008,0.77,4.34,-3.74,5.78
17.34757399559021,0.3,4.32,-4.17,6.01
17.362565994262695,0.19,2.39,-0.97,2.58
17.367785930633545,0.42,0.07,2.94,2.97
17.37846302986145,0.52,-2.07,3.14,3.79
17.412750005722046,0.02,-2.65,2.45,3.6
17.41401505470276,-0.09,-1.14,1.93,2.24
17.41502094268799,0.12,0.15,0.24,0.3
17.430681943893433,0.49,0.54,-0.85,1.11
17.43173098564148,0.7,0.68,-0.64,1.16
17.44672989845276,0.67,0.26,-0.48,0.86
17.447777032852173,0.76,-0.22,-0.98,1.25
17.46279788017273,0.8,-0.28,-1.63,1.83
17.4668447971344,0.48,0.0,-1.35,1.43
17.47834300994873,-0.11,0.3,-0.46,0.56
17.51431107521057,-0.87,0.41,0.41,1.04
17.515748977661133,-1.47,0.48,0.84,1.75
17.516775846481323,-1.3,0.43,0.63,1.5
17.530895948410034,-0.47,0.27,-0.22,0.58
17.531960010528564,0.19,0.21,-0.96,1.0
17.54692792892456,0.12,0.33,-0.87,0.93
17.547970056533813,-0.6,0.52,-0.54,0.96
17.562846899032593,-1.37,0.78,-0.26,1.59
17.566162824630737,-1.54,0.94,0.19,1.81
17.578770875930786,-1.34,0.75,0.24,1.55
17.586062908172607,-1.06,0.49,-0.07,1.16
17.622419118881226,-0.84,0.29,-0.41,0.97
17.62362790107727,-0.64,0.19,-0.54,0.85
17.624836921691895,-0.46,0.28,-0.87,1.02
17.62667989730835,-0.57,0.62,-1.29,1.54
17.646873950958252,-0.9,1.16,-1.39,2.02
17.647928953170776,-1.16,1.68,-1.5,2.53
17.662662982940674,-1.37,2.13,-0.99,2.71
17.66545081138611,-1.7,2.57,-0.12,3.08
17.678864002227783,-2.44,2.42,0.01,3.43
17.68548607826233,-3.15,2.34,0.43,3.94
17.721879959106445,-3.57,2.45,0.45,4.35
17.723010778427124,-3.49,2.61,-0.06,4.35
17.72412610054016,-3.04,2.79,-0.86,4.21
17.72679591178894,-2.75,2.97,-1.48,4.3
17.746761083602905,-3.12,3.23,-1.72,4.8
17.747808933258057,-3.94,3.53,-1.96,5.64
17.7622389793396,-4.81,3.88,-2.32,6.6
17.76471781730652,-5.52,4.36,-2.52,7.47
17.77860999107361,-6.37,5.21,-2.77,8.68
17.78449296951294,-7.56,6.51,-3.39,10.53
17.821987867355347,-9.03,8.45,-4.3,13.09
17.823205947875977,-10.34,10.64,-6.22,16.08
17.82446599006653,-11.21,11.65,-9.12,18.56
17.82681679725647,-11.88,11.12,-10.81,19.53
17.84408688545227,-12.16,11.86,-10.65,20.04
17.84515404701233,-11.36,15.95,-6.41,20.6
17.860603094100952,-7.09,20.38,-2.52,21.72
17.863921880722046,-1.63,17.96,-6.58,19.19
17.878844022750854,0.38,9.76,-8.86,13.18
17.883838891983032,-0.72,3.8,-8.69,9.51
17.92328906059265,-3.56,-0.39,-7.24,8.07
17.924437999725342,-1.72,0.07,-5.59,5.84
17.925657033920288,4.67,5.73,2.11,7.68
17.92732000350952,5.09,0.91,4.2,6.66
17.933311939239502,-1.11,-3.9,-2.92,4.99
17.943378925323486,-5.53,-5.09,-3.79,8.41
17.95315194129944,-7.89,-3.64,-1.42,8.8
17.963291883468628,-9.96,-2.42,-0.82,10.28
17.973292112350464,-10.45,-2.01,0.18,10.64
17.983202934265137,-8.01,-3.88,0.66,8.92
18.018690824508667,-3.98,-6.34,1.8,7.69
18.02003312110901,-1.75,-8.08,1.77,8.45
18.0210440158844,-2.09,-9.01,1.67,9.39
18.029803037643433,-3.22,-8.87,1.27,9.52
18.032495975494385,-3.59,-8.29,0.0,9.03
18.04699683189392,-3.35,-7.69,-1.42,8.5
18.052390813827515,-3.41,-6.87,-2.5,8.06
18.06235384941101,-3.58,-6.59,-3.2,8.15
18.072659969329834,-3.61,-6.67,-3.47,8.34
18.082215070724487,-3.38,-6.86,-3.53,8.42
18.118721961975098,-3.13,-6.96,-3.04,8.21
18.120115041732788,-3.08,-7.0,-2.41,8.01
18.12117099761963,-3.21,-7.61,-1.44,8.38
18.13127899169922,-3.47,-8.57,-0.91,9.29
18.132344007492065,-3.69,-9.35,-0.74,10.07
18.14711880683899,-3.8,-9.83,-0.66,10.55
18.151811838150024,-3.72,-10.03,-0.18,10.69
18.16283106803894,-3.54,-9.98,0.6,10.6
18.17179298400879,-3.29,-9.7,1.48,10.34
18.18174695968628,-2.8,-8.72,2.29,9.44
18.21796679496765,-1.67,-6.96,2.35,7.53
18.219310998916626,0.4,-4.86,1.66,5.15
18.220374822616577,3.37,-2.38,2.11,4.63
18.231037855148315,6.55,0.27,3.24,7.31
18.23206400871277,9.38,3.06,4.23,10.73
18.247041940689087,11.48,6.16,4.97,13.94
18.251213788986206,13.22,9.38,5.26,17.04
18.262815952301025,15.16,12.64,5.35,20.45
18.271833896636963,17.04,15.37,5.83,23.67
18.280905961990356,19.07,16.79,6.16,26.14
18.316992044448853,20.97,15.17,5.41,26.44
18.318331003189087,21.61,13.25,5.58,25.95
18.319391012191772,18.64,16.22,5.33,25.27
18.331505060195923,11.62,8.55,-2.86,14.7
18.332545042037964,-2.54,-3.54,-17.83,18.35
18.347638845443726,-17.16,13.06,-28.9,36.05
18.350376844406128,-21.81,52.76,3.88,57.22
18.3626868724823,-19.48,25.09,4.68,32.1
18.3701388835907,-5.91,-3.77,1.63,7.19
18.37998604774475,5.09,-6.37,9.39,12.43
18.390118837356567,9.47,-10.3,10.39,17.42
18.422026872634888,12.04,-13.04,5.33,18.53
18.423197984695435,12.54,-11.03,1.16,16.74
18.424415826797485,9.54,-3.98,1.57,10.45
18.4294331073761,4.5,0.43,-0.48,4.54
18.44782280921936,0.73,2.45,-3.21,4.1
18.449272871017456,-0.75,4.21,-3.38,5.45
18.462947130203247,-0.6,4.28,-0.94,4.42
18.46963596343994,0.16,1.29,1.0,1.64
18.479363918304443,0.93,-1.52,1.51,2.33
18.489344835281372,1.08,-2.33,1.55,2.99
18.52132296562195,0.88,-1.54,1.06,2.06
18.522507905960083,0.69,-0.19,0.17,0.73
18.52372908592224,0.76,0.61,-0.42,1.06
18.528673887252808,0.84,0.53,-0.67,1.19
18.538748025894165,0.68,0.05,-0.31,0.74
18.548572778701782,0.49,-0.24,0.26,0.6
18.558833837509155,0.38,-0.39,0.45,0.7
18.56861400604248,0.28,-0.35,-0.02,0.44
18.578882932662964,0.12,-0.05,-0.47,0.48
18.588693857192993,-0.23,0.33,-0.54,0.67
18.62114977836609,-0.39,0.55,-0.31,0.74
18.622440099716187,-0.22,0.42,-0.31,0.56
18.623456954956055,0.01,0.2,-0.32,0.37
18.62817692756653,0.13,0.09,-0.28,0.32
18.647271871566772,0.04,0.04,-0.14,0.15
18.648315906524658,-0.21,0.08,-0.03,0.22
18.663100004196167,-0.49,0.21,-0.09,0.54
18.66792607307434,-0.58,0.36,-0.22,0.71
18.67913293838501,-0.39,0.54,-0.19,0.69
18.688956022262573,-0.31,0.62,-0.08,0.69
18.720956087112427,-0.56,0.6,-0.07,0.82
18.722129106521606,-1.07,0.58,-0.16,1.22
18.723437070846558,-1.61,0.56,-0.43,1.75
18.72797393798828,-1.97,0.56,-0.79,2.19
18.737029790878296,-1.85,0.68,-0.98,2.2
18.747209787368774,-1.33,0.77,-1.17,1.93
18.757500886917114,-0.88,0.86,-1.31,1.79
18.767351865768433,-0.84,0.86,-1.66,2.04
18.777347803115845,-1.01,0.93,-1.77,2.24
18.787221908569336,-1.17,1.07,-1.67,2.3
18.822948932647705,-1.41,1.37,-1.27,2.34
18.824413061141968,-1.73,1.83,-0.75,2.62
18.825398921966553,-2.48,2.16,-0.67,3.35
18.827481985092163,-3.08,3.01,-0.13,4.3
18.83644700050354,-3.52,3.43,-0.54,4.94
18.84664797782898,-3.55,3.79,-0.57,5.22
18.856552839279175,-3.65,3.95,-0.69,5.42
18.866787910461426,-3.96,4.01,-1.1,5.74
18.876518964767456,-4.43,4.37,-1.71,6.45
18.886525869369507,-5.23,5.28,-2.23,7.75
18.92252278327942,-6.36,6.62,-3.05,9.67
18.923900842666626,-7.73,8.63,-3.35,12.06
18.92488408088684,-9.26,11.17,-4.85,15.29
18.92759895324707,-10.74,12.44,-8.73,18.6
18.94415593147278,-11.72,12.94,-10.27,20.25
18.945608854293823,-11.84,12.32,-10.31,19.95
18.96341300010681,-11.34,10.49,-10.94,18.92
18.965574026107788,-10.82,10.12,-9.83,17.77
18.979451894760132,-7.98,13.79,-3.92,16.4
18.98548698425293,-2.64,16.18,-1.91,16.5
19.02107000350952,1.22,12.35,-4.41,13.17
19.022237062454224,0.91,5.27,-5.09,7.38
19.023520946502686,-2.09,0.28,-5.51,5.89
19.03076696395874,-2.18,-0.43,-4.39,4.92
19.03488278388977,3.32,5.71,2.49,7.05
19.047854900360107,4.11,1.01,3.19,5.29
19.055011987686157,-1.52,-3.48,-3.25,4.99
19.064905881881714,-5.31,-3.72,-3.09,7.18
19.074883937835693,-7.6,-2.75,-1.39,8.2
19.084635972976685,-9.56,-2.88,-1.3,10.06
19.12320303916931,-9.72,-3.64,-0.43,10.38
19.124529123306274,-7.55,-4.96,0.28,9.03
19.125530004501343,-5.32,-6.27,1.23,8.31
19.127872943878174,-4.49,-7.99,0.93,9.21
19.134212970733643,-4.63,-8.83,-0.19,9.97
19.144523859024048,-4.8,-8.53,-1.02,9.84
19.1543869972229,-4.81,-7.66,-1.32,9.14
19.164337873458862,-5.04,-7.06,-1.42,8.78
19.174189805984497,-4.96,-7.07,-2.26,8.92
19.18413281440735,-4.53,-7.01,-2.38,8.67
19.194232940673828,-4.32,-7.48,-2.81,9.08
19.225402116775513,-4.0,-8.78,-3.4,10.22
19.226566076278687,-4.15,-8.99,-2.98,10.34
19.227556943893433,-4.29,-9.5,-2.43,10.7
19.24815011024475,-4.2,-9.81,-1.94,10.84
19.249204874038696,-3.88,-10.26,-1.61,11.08
19.26461100578308,-3.7,-10.92,-1.46,11.62
19.26608395576477,-3.62,-11.43,-1.41,12.07
19.28002905845642,-3.18,-11.21,-1.07,11.7
19.283276796340942,-1.95,-10.28,-0.16,10.46
19.296113967895508,-0.1,-8.99,0.37,8.99
19.322551012039185,1.92,-7.62,-0.68,7.88
19.32387900352478,3.9,-5.84,-1.09,7.1
19.324916124343872,5.84,-3.39,-0.1,6.75
19.33267593383789,8.1,-0.09,2.01,8.34
19.34748101234436,10.78,3.29,3.77,11.88
19.35246205329895,12.81,6.3,5.08,15.15
19.36335778236389,14.05,9.71,5.93,18.07
19.372776985168457,15.05,13.66,6.72,21.4
19.38335108757019,16.22,16.93,6.84,24.42
19.39344096183777,17.12,18.03,5.86,25.54
19.42062497138977,18.45,17.29,5.43,25.86
19.421847105026245,19.23,14.88,5.4,24.9
19.42307209968567,16.23,15.17,4.93,22.75
19.43181800842285,7.23,6.23,-1.93,9.73
19.441865921020508,-5.89,-5.54,-16.37,18.25
19.45162606239319,-21.71,5.18,-32.0,39.01
19.46264910697937,-24.3,42.77,5.05,49.44
19.471906900405884,-17.81,36.54,15.74,43.59
19.481847047805786,-8.14,0.14,2.08,8.4
19.491656064987183,2.89,-4.93,7.24,9.22
19.52495312690735,9.3,-5.84,7.84,13.49
19.526111841201782,10.78,-9.14,2.87,14.42
19.527087926864624,11.12,-9.41,-1.5,14.64
19.54842495918274,9.86,-4.84,-1.29,11.05
19.54946494102478,6.38,-0.21,-1.72,6.61
19.56447696685791,2.68,1.28,-3.6,4.66
19.565937995910645,0.48,2.69,-3.64,4.55
19.580233812332153,0.07,3.19,-0.09,3.19
19.581720113754272,0.11,1.04,3.1,3.27
19.596297025680542,0.25,-1.45,3.22,3.54
19.63074803352356,0.62,-2.2,2.23,3.19
19.632013082504272,0.97,-1.16,1.36,2.03
19.633006811141968,1.23,0.02,0.25,1.25
19.648610830307007,0.9,0.41,-0.08,0.99
19.649642944335938,0.19,0.31,0.56,0.66
19.66439199447632,-0.06,-0.03,0.83,0.83
19.665875911712646,0.65,-0.35,-0.18,0.75
19.680108785629272,1.29,-0.4,-1.72,2.18
19.681593894958496,1.07,0.14,-1.74,2.04
19.69686198234558,0.34,0.47,-0.82,1.0
19.72790789604187,-0.12,0.27,0.42,0.51
19.729240894317627,-0.25,-0.06,1.13,1.15
19.73022198677063,-0.03,-0.27,1.06,1.09
19.748260974884033,0.33,-0.34,0.52,0.7
19.74928879737854,0.46,-0.25,0.09,0.53
19.764672994613647,0.29,0.03,-0.15,0.32
19.76571297645569,0.02,0.34,-0.26,0.42
19.780412912368774,-0.22,0.51,-0.43,0.7
19.78186798095703,-0.48,0.71,-0.31,0.91
19.796419858932495,-0.93,0.81,0.06,1.23
19.826133966445923,-1.47,0.63,0.2,1.61
19.82748579978943,-1.95,0.39,0.02,1.98
19.828479051589966,-2.07,0.22,-0.79,2.22
19.849581003189087,-1.71,0.33,-1.67,2.41
19.850613832473755,-0.86,0.66,-2.13,2.38
19.8646879196167,-0.06,0.98,-2.21,2.41
19.866084814071655,0.24,1.09,-2.12,2.39
19.88003897666931,-0.07,0.99,-1.68,1.95
19.881536960601807,-0.96,0.97,-1.01,1.69
19.89651083946228,-1.86,1.32,-0.48,2.33
19.92817711830139,-2.46,1.68,-0.45,3.01
19.92954397201538,-2.88,2.26,-0.06,3.66
19.9305419921875,-3.06,2.9,0.44,4.23
19.948593854904175,-3.22,2.86,0.05,4.3
19.949625968933105,-3.12,2.78,-0.29,4.18
19.965204000473022,-2.79,2.72,-0.93,4.0
19.96667194366455,-2.42,2.76,-1.41,3.93
19.980326890945435,-2.43,2.89,-1.72,4.14
19.981791973114014,-3.03,3.19,-1.97,4.82
19.99648880958557,-4.09,3.66,-2.22,5.92
19.99799394607544,-5.14,4.37,-2.66,7.25
20.042223930358887,-5.91,5.16,-3.07,8.42
20.04336380958557,-7.03,6.34,-3.34,10.03
20.044347047805786,-8.53,7.99,-3.85,12.3
20.065458059310913,-9.72,9.97,-4.34,14.58
20.06655192375183,-10.64,11.74,-5.94,16.92
20.07894206047058,-11.25,12.18,-8.62,18.68
20.08043098449707,-11.7,11.37,-11.02,19.68
20.097491025924683,-11.99,12.24,-10.43,20.05
20.099025011062622,-10.06,17.25,-4.82,20.54
20.111938953399658,-4.54,20.42,-2.42,21.05
20.14056396484375,0.21,15.93,-5.84,16.96
20.14193081855774,1.3,8.12,-6.88,10.72
20.142971992492676,-1.39,3.17,-7.45,8.21
20.14559292793274,-3.08,0.07,-6.13,6.86
20.146980047225952,2.27,6.16,-0.75,6.6
20.15656089782715,6.72,4.93,5.05,9.74
20.166695833206177,2.53,-2.03,-1.11,3.42
20.176528930664062,-2.36,-4.36,-4.7,6.83
20.186249017715454,-4.8,-4.13,-2.39,6.76
20.196685075759888,-6.94,-2.67,-1.49,7.58
20.226691961288452,-8.29,-2.2,-0.29,8.58
20.227894067764282,-7.87,-3.39,0.17,8.57
20.228893041610718,-5.99,-4.99,0.54,7.81
20.248318910598755,-4.27,-6.42,1.61,7.87
20.249356985092163,-4.0,-7.3,2.1,8.58
20.26460909843445,-4.77,-8.19,2.34,9.76
20.26565909385681,-5.84,-8.52,2.01,10.52
20.280548810958862,-6.4,-8.68,0.89,10.82
20.285855054855347,-6.64,-7.8,0.36,10.24
20.296523809432983,-6.29,-7.23,-0.73,9.61
20.326608896255493,-5.28,-6.99,-1.53,8.89
20.328019857406616,-4.5,-7.21,-2.15,8.76
20.32903289794922,-4.32,-7.8,-2.29,9.2
20.34836196899414,-4.4,-8.43,-2.11,9.74
20.349425077438354,-4.28,-8.77,-1.78,9.91
20.364643812179565,-4.15,-9.01,-1.41,10.01
20.36567497253418,-4.13,-9.45,-1.09,10.37
20.380528926849365,-4.09,-10.06,-0.91,10.89
20.384829998016357,-3.93,-10.93,-0.77,11.64
20.39651608467102,-3.62,-11.53,-0.77,12.1
20.432321786880493,-2.84,-11.46,-0.27,11.8
20.433799028396606,-1.52,-10.73,0.5,10.84
20.434799909591675,0.13,-9.82,-0.28,9.82
20.44870901107788,1.99,-8.2,-1.59,8.58
20.449734926223755,3.79,-5.92,-1.25,7.13
20.46496891975403,5.48,-3.05,0.42,6.28
20.466439962387085,8.01,0.11,2.36,8.35
20.480596780776978,11.09,2.68,3.88,12.05
20.48415207862854,13.13,5.16,5.01,14.97
20.49649691581726,14.27,8.59,6.39,17.83
20.533145904541016,15.34,12.54,7.83,21.3
20.534533977508545,16.23,16.13,8.35,24.35
20.535588026046753,16.6,19.05,7.95,26.48
20.549442052841187,17.09,20.45,7.43,27.66
20.55047583580017,16.71,17.92,5.7,25.15
20.56188702583313,14.31,14.36,3.85,20.63
20.56321692466736,8.46,7.6,-2.74,11.69
20.58047890663147,-5.03,-6.08,-17.62,19.3
20.583400011062622,-22.87,-2.76,-44.87,50.43
20.596771001815796,-28.41,32.04,-10.97,44.2
20.629426956176758,-14.3,57.35,36.56,69.49
20.6307590007782,-5.38,15.97,9.64,19.41
20.631760835647583,1.04,-5.8,6.83,9.02
20.648926973342896,6.25,-9.14,7.74,13.5
20.649998903274536,8.34,-12.51,2.62,15.26
20.66483187675476,9.9,-13.6,-3.07,17.09
20.66586399078369,10.56,-9.66,-2.46,14.52
20.680664777755737,10.07,-2.82,0.06,10.45
20.682728052139282,8.29,1.35,-0.51,8.41
20.697505950927734,4.26,2.99,-3.14,6.07
20.727813005447388,0.49,3.88,-3.51,5.25
20.72919487953186,-1.29,4.32,-2.46,5.13
20.73020911216736,-1.24,2.69,-0.73,3.05
20.74877381324768,-0.13,-0.11,1.26,1.27
20.749815940856934,0.79,-1.93,2.72,3.42
20.765159845352173,0.85,-2.43,3.62,4.44
20.76661491394043,-0.17,-2.06,3.45,4.02
20.780733823776245,-0.78,-1.03,2.35,2.68
20.782201051712036,-0.13,0.03,0.28,0.31
20.797017812728882,0.88,0.59,-1.14,1.55
20.80175280570984,1.32,0.72,-1.43,2.07
20.841747045516968,1.07,0.58,-0.93,1.53
20.84291100502014,0.52,0.17,-0.66,0.85
20.84387993812561,0.24,-0.08,-0.6,0.65
20.84547996520996,0.07,-0.06,-0.58,0.58
20.851249933242798,-0.08,0.09,-0.56,0.57
20.861342906951904,-0.43,0.29,-0.23,0.56
20.87134289741516,-0.85,0.41,0.42,1.03
20.881175994873047,-1.2,0.31,0.64,1.39
20.891231775283813,-1.08,0.19,0.21,1.11
20.901094913482666,-0.67,0.2,-0.29,0.75
20.93239998817444,-0.46,0.43,-0.85,1.05
20.933719873428345,-0.44,0.66,-0.92,1.21
20.934725046157837,-0.54,0.72,-0.46,1.01
20.9489848613739,-0.69,0.56,-0.23,0.91
20.9503071308136,-0.87,0.36,-0.19,0.96
20.964725971221924,-1.0,0.28,-0.4,1.11
20.97073197364807,-1.25,0.31,-0.99,1.62
20.9806969165802,-1.41,0.54,-1.36,2.03
20.99072289466858,-1.27,0.86,-1.32,2.02
21.000202894210815,-0.93,1.0,-1.23,1.83
21.031176805496216,-0.58,1.01,-1.11,1.6
21.032476902008057,-0.64,0.92,-1.07,1.54
21.033484935760498,-1.08,0.88,-1.41,1.98
21.048845052719116,-1.52,0.94,-1.55,2.36
21.04988193511963,-1.74,1.12,-1.43,2.51
21.06520700454712,-1.89,1.54,-0.88,2.59
21.069671869277954,-2.21,2.04,-0.49,3.04
21.08065891265869,-2.59,2.82,0.09,3.82
21.090032815933228,-3.19,3.2,0.25,4.52
21.099507093429565,-3.51,3.37,0.0,4.86
21.13034200668335,-3.25,3.5,-0.57,4.81
21.131688833236694,-2.82,3.59,-1.4,4.77
21.132717847824097,-2.81,3.72,-1.99,5.06
21.1491379737854,-3.42,4.03,-2.15,5.7
21.15017795562744,-4.44,4.81,-2.0,6.84
21.165175914764404,-5.67,6.14,-2.02,8.59
21.169162034988403,-7.25,7.95,-2.65,11.08
21.18076801300049,-9.42,9.94,-4.32,14.35
21.1890869140625,-11.09,11.52,-6.2,17.15
21.198925971984863,-12.16,12.27,-8.21,19.12
21.235965967178345,-12.2,11.45,-9.88,19.43
21.237348794937134,-11.94,10.36,-11.1,19.31
21.238354921340942,-11.19,12.59,-8.29,18.77
21.2493839263916,-7.82,17.44,-2.96,19.34
21.25044298171997,-2.17,18.22,-4.01,18.78
21.262365102767944,0.71,12.63,-6.57,14.25
21.26798701286316,-0.8,6.29,-6.61,9.15
21.280958890914917,-3.92,1.16,-6.87,7.99
21.28822684288025,-2.41,1.89,-5.07,5.92
21.297910928726196,3.84,7.13,1.9,8.31
21.335171937942505,4.36,0.76,1.94,4.83
21.336594820022583,-0.47,-3.89,-4.52,5.98
21.337615966796875,-3.63,-4.51,-4.4,7.27
21.338653802871704,-5.68,-3.77,-2.71,7.33
21.34765887260437,-7.62,-3.93,-2.71,8.99
21.35747194290161,-8.51,-4.4,-1.98,9.78
21.36761999130249,-7.49,-5.75,-1.14,9.51
21.377394914627075,-5.36,-7.5,0.01,9.21
21.38758897781372,-4.2,-8.64,0.37,9.61
21.397397994995117,-4.23,-9.13,-0.03,10.06
21.434067964553833,-4.9,-9.13,-0.24,10.36
21.43512988090515,-5.47,-8.66,-0.95,10.28
21.436157941818237,-5.58,-8.19,-1.75,10.06
21.449482917785645,-5.52,-7.53,-2.68,9.71
21.450446844100952,-5.52,-6.78,-3.03,9.25
21.4654700756073,-4.84,-6.8,-3.02,8.87
21.466952085494995,-4.03,-7.13,-3.37,8.85
21.48101496696472,-3.63,-7.55,-3.83,9.21
21.486832857131958,-3.55,-7.85,-4.12,9.54
21.49722981452942,-3.38,-7.79,-3.86,9.32
21.534632921218872,-2.95,-7.79,-3.63,9.08
21.53593897819519,-2.38,-7.91,-3.59,9.0
21.536914110183716,-1.9,-8.28,-3.76,9.29
21.54744791984558,-1.79,-8.71,-3.75,9.65
21.548460960388184,-1.94,-8.63,-2.77,9.26
21.565376043319702,-2.07,-7.5,-0.82,7.82
21.5664279460907,-1.26,-6.59,0.47,6.72
21.581094980239868,0.97,-5.94,0.18,6.02
21.586055040359497,3.32,-4.75,0.19,5.79
21.597113847732544,5.1,-2.56,2.14,6.09
21.605987787246704,6.55,0.73,5.2,8.39
21.638571977615356,8.19,4.22,7.55,11.91
21.639753103256226,9.64,7.33,8.91,15.03
21.64101481437683,10.95,10.97,9.91,18.39
21.64555597305298,12.29,14.73,10.23,21.74
21.65573811531067,13.47,17.59,9.62,24.15
21.665759801864624,14.86,18.52,8.62,25.26
21.675241947174072,16.53,16.51,7.09,24.41
21.68524193763733,18.24,12.63,7.76,23.5
21.695303916931152,18.38,9.96,7.17,22.1
21.705106019973755,15.4,8.69,-0.96,17.7
21.73575186729431,2.64,-4.96,-13.0,14.16
21.737051010131836,-13.43,-4.6,-30.11,33.28
21.73808193206787,-22.78,36.52,-14.0,45.26
21.74761986732483,-16.22,66.48,18.78,70.96
21.75440001487732,-4.17,25.58,-2.56,26.04
21.764286994934082,-0.48,-5.01,-1.88,5.37
21.774165868759155,1.28,-14.62,5.18,15.56
21.784315824508667,5.68,-17.8,3.05,18.93
21.794543027877808,11.26,-17.42,5.74,21.52
21.80440402030945,12.15,-14.01,6.17,19.54
21.835195779800415,9.33,-6.24,4.65,12.14
21.83652400970459,4.54,0.53,2.09,5.02
21.83753490447998,0.19,3.38,-1.31,3.62
21.84392499923706,-1.5,5.11,-3.12,6.17
21.8538339138031,-1.29,6.27,-2.08,6.73
21.86378502845764,-0.58,3.49,-0.84,3.63
21.8736469745636,0.33,-0.62,0.71,0.99
21.883818864822388,1.23,-2.37,1.2,2.92
21.893691778182983,1.52,-2.58,0.58,3.05
21.903719902038574,1.23,-1.33,-0.08,1.81
21.934669971466064,0.95,0.22,-0.47,1.08
21.93594479560852,0.81,0.76,-0.77,1.35
21.936957120895386,0.69,0.38,-0.68,1.04
21.949486017227173,0.48,-0.14,-0.3,0.58
21.952892065048218,0.24,-0.42,-0.08,0.49
21.96562886238098,-0.2,-0.18,0.2,0.33
21.972973108291626,-0.53,0.32,0.32,0.69
21.98283886909485,-0.34,0.58,0.19,0.69
21.992594957351685,0.05,0.61,-0.2,0.64
22.00296902656555,0.12,0.49,-0.31,0.59
22.0413339138031,-0.16,0.38,-0.07,0.41
22.04266595840454,-0.59,0.27,-0.22,0.68
22.043662786483765,-0.96,0.3,-0.48,1.11
22.04592490196228,-1.13,0.64,-0.44,1.37
22.052096128463745,-1.05,0.94,-0.35,1.45
22.0623300075531,-0.8,1.01,-0.01,1.28
22.072244882583618,-0.81,0.79,0.17,1.14
22.082299947738647,-1.19,0.54,0.09,1.3
22.09220290184021,-1.49,0.4,-0.09,1.54
22.10219097137451,-1.35,0.3,-0.36,1.42
22.139256954193115,-0.98,0.17,-0.79,1.27
22.140605926513672,-0.81,0.42,-0.92,1.29
22.14164400100708,-0.77,0.79,-1.28,1.68
22.145421981811523,-0.62,1.27,-1.51,2.06
22.16565203666687,-0.73,1.62,-1.42,2.27
22.166706800460815,-1.06,1.8,-1.08,2.35
22.181273937225342,-1.47,1.78,-0.61,2.38
22.182745933532715,-1.81,1.61,-0.44,2.46
22.197322130203247,-2.17,1.69,-0.47,2.79
22.201252937316895,-2.52,1.94,-0.61,3.23
22.243036031723022,-2.83,2.23,-0.86,3.7
22.24421501159668,-2.99,2.6,-1.1,4.11
22.245197057724,-3.09,2.89,-1.43,4.46
22.266332864761353,-3.33,3.19,-1.38,4.81
22.267369985580444,-3.75,3.59,-1.03,5.29
22.282493829727173,-4.56,3.78,-1.29,6.06
22.283993005752563,-5.46,4.17,-1.69,7.07
22.298231840133667,-6.33,5.24,-1.56,8.36
22.299745798110962,-7.43,6.94,-1.68,10.3
22.314470052719116,-8.58,8.79,-2.97,12.63
22.344169855117798,-9.81,10.42,-4.97,15.14
22.34563708305359,-11.41,11.24,-6.92,17.44
22.34666085243225,-13.15,10.97,-8.0,18.9
22.364224910736084,-14.82,11.28,-6.87,19.85
22.365283012390137,-13.89,15.73,-2.84,21.17
22.38279891014099,-10.07,20.16,-1.08,22.56
22.38429594039917,-5.2,14.48,-8.44,17.54
22.398099899291992,0.54,8.97,-11.18,14.34
22.399581909179688,1.74,6.11,-7.06,9.49
22.41450810432434,-0.88,0.96,-6.2,6.33
22.415971040725708,-1.21,-1.75,-7.87,8.15
22.46212410926819,3.76,2.78,-3.82,6.03
22.463310956954956,6.25,1.3,3.36,7.21
22.464319944381714,1.14,-2.09,-2.49,3.44
22.48332691192627,-4.07,-3.52,-5.19,7.47
22.484798908233643,-6.95,-3.35,-3.45,8.45
22.49919104576111,-9.15,-2.22,-3.06,9.9
22.500658988952637,-10.94,-2.14,-3.41,11.65
22.514894008636475,-10.97,-2.76,-2.81,11.65
22.516209840774536,-9.0,-4.11,-1.17,9.96
22.531004905700684,-6.82,-6.12,0.27,9.16
22.561224937438965,-5.83,-7.84,0.78,9.8
22.562651872634888,-6.0,-8.68,0.58,10.56
22.563647985458374,-6.27,-8.27,-0.21,10.38
22.582946062088013,-5.8,-7.4,-1.64,9.54
22.58394980430603,-5.35,-6.71,-2.9,9.05
22.59562087059021,-5.03,-6.46,-3.99,9.1
22.596503019332886,-4.62,-6.27,-4.79,9.14
22.61160397529602,-3.71,-6.65,-5.16,9.19
22.61257004737854,-2.98,-7.02,-5.18,9.21
22.632466077804565,-2.8,-6.78,-5.28,9.03
22.66256880760193,-2.03,-7.34,-5.15,9.19
22.663935899734497,-1.12,-7.98,-5.36,9.67
22.66498112678528,-0.48,-8.47,-5.83,10.29
22.68308186531067,-0.05,-8.72,-6.08,10.63
22.684144973754883,0.41,-8.25,-5.29,9.8
22.69827389717102,1.08,-6.97,-4.24,8.22
22.69978404045105,2.57,-5.73,-4.11,7.5
22.714947938919067,4.51,-4.56,-3.64,7.37
22.71649479866028,6.04,-2.89,-2.17,7.03
22.731112003326416,6.99,0.0,0.37,6.99
22.7596538066864,7.76,3.55,3.0,9.04
22.7610080242157,8.85,6.91,4.85,12.23
22.762097120285034,10.4,9.89,5.63,15.41
22.764271020889282,12.18,12.41,5.36,18.19
22.76571488380432,14.02,14.81,5.02,21.0
22.76717209815979,15.94,17.01,5.65,23.98
22.77725911140442,17.76,17.26,6.74,25.66
22.786479949951172,18.92,15.48,7.88,25.68
22.79672884941101,18.75,12.7,9.24,24.45
22.807271003723145,14.97,12.64,10.17,22.07
22.842180013656616,8.73,8.94,8.13,14.9
22.843915939331055,1.67,-2.92,-4.47,5.59
22.844921827316284,-6.81,-0.17,-21.49,22.54
22.847191095352173,-12.18,28.47,-12.79,33.5
22.856884956359863,-11.14,59.19,14.51,61.95
22.865955114364624,-9.37,12.45,-5.76,16.61
22.875903844833374,-3.07,-7.57,0.03,8.16
22.88605499267578,2.16,-11.72,5.8,13.25
22.896395921707153,7.28,-14.16,6.51,17.2
22.90610384941101,11.84,-14.1,8.38,20.22
22.943386793136597,11.08,-9.84,5.82,15.92
22.944825887680054,6.07,-2.66,2.38,7.04
22.945852994918823,2.09,0.51,-0.71,2.26
22.966638803482056,-0.03,2.6,-2.72,3.76
22.96769094467163,-0.61,4.34,-0.54,4.41
22.983003854751587,-0.8,3.42,1.38,3.77
22.984540939331055,0.25,0.11,1.64,1.66
22.99835991859436,2.19,-1.92,1.2,3.15
22.99986481666565,3.06,-2.32,-0.02,3.84
23.014636993408203,2.7,-1.5,-0.36,3.1
23.045067071914673,1.79,-0.4,-0.2,1.84
23.046396017074585,1.02,0.14,-0.12,1.03
23.04741883277893,0.35,0.32,-0.08,0.48
23.066383123397827,0.13,0.34,-0.01,0.36
23.067441940307617,0.19,0.14,0.14,0.27
23.083048105239868,0.05,-0.07,0.4,0.4
23.084524869918823,0.02,-0.19,0.22,0.29
23.098505973815918,0.35,-0.09,-0.39,0.53
23.099923849105835,0.37,0.25,-0.4,0.59
23.114579916000366,0.21,0.45,-0.19,0.53
23.14349389076233,0.03,0.31,0.07,0.31
23.144834995269775,-0.15,0.18,0.35,0.42
23.145836114883423,-0.21,0.12,0.49,0.54
23.166537046432495,-0.08,0.07,0.04,0.11
23.167541980743408,0.12,0.19,-0.54,0.58
23.183132886886597,0.13,0.34,-0.74,0.82
23.184557914733887,-0.14,0.53,-0.42,0.69
23.198359966278076,-0.58,0.67,-0.23,0.91
23.19983983039856,-1.02,0.89,-0.13,1.35
23.214589834213257,-1.48,1.17,-0.34,1.91
23.21604084968567,-1.82,1.43,-0.56,2.38
23.260087966918945,-1.91,1.77,-0.69,2.69
23.26119589805603,-1.73,1.72,-0.92,2.6
23.262237787246704,-1.36,1.54,-0.79,2.2
23.283530950546265,-1.3,1.38,-0.56,1.97
23.284551858901978,-1.64,1.3,-0.51,2.15
23.299818992614746,-2.06,1.44,-0.73,2.61
23.30130100250244,-2.34,1.68,-0.92,3.02
23.315258979797363,-2.33,1.91,-1.03,3.18
23.316713094711304,-2.29,2.13,-1.41,3.43
23.33112406730652,-2.39,2.44,-1.75,3.83
23.359390020370483,-2.77,2.82,-1.74,4.31
23.36124897003174,-3.5,3.24,-1.56,5.01
23.36223793029785,-4.31,3.73,-1.48,5.88
23.36459994316101,-5.08,4.24,-1.76,6.84
23.366004943847656,-6.0,4.88,-2.26,8.05
23.372143983840942,-7.08,5.91,-2.89,9.66
23.38211703300476,-7.89,7.59,-3.22,11.41
23.392471075057983,-8.56,9.66,-4.12,13.54
23.40226101875305,-9.19,11.23,-7.32,16.25
23.412782907485962,-9.3,11.64,-9.75,17.8
23.442758798599243,-9.43,11.05,-10.74,18.06
23.443890810012817,-9.43,11.4,-10.01,17.86
23.444814920425415,-8.28,15.05,-5.89,18.15
23.452318906784058,-4.87,18.97,-3.33,19.86
23.461749792099,-0.86,19.39,-6.19,20.37
23.471357107162476,0.5,12.66,-8.25,15.11
23.48147988319397,-1.2,4.84,-7.85,9.29
23.491606950759888,-3.42,-0.25,-7.8,8.52
23.50158190727234,-0.74,0.45,-6.31,6.36
23.511631965637207,3.89,3.75,2.51,5.95
23.541465044021606,0.7,-1.33,3.43,3.74
23.542662858963013,-5.58,-4.82,-0.94,7.43
23.543986082077026,-8.57,-4.84,-0.05,9.84
23.55086588859558,-10.55,-3.51,0.95,11.15
23.566302061080933,-12.17,-2.89,1.31,12.57
23.570947885513306,-11.75,-3.0,2.42,12.36
23.581891775131226,-8.61,-4.76,3.34,10.38
23.590998888015747,-5.59,-7.24,3.53,9.8
23.600727796554565,-4.43,-9.02,2.97,10.47
23.61064600944519,-4.95,-9.0,2.58,10.59
23.64729595184326,-5.56,-8.05,1.93,9.97
23.648496866226196,-5.69,-7.08,0.83,9.12
23.649502992630005,-5.41,-6.51,-0.07,8.46
23.667210817337036,-4.88,-6.09,-1.07,7.87
23.668256998062134,-4.04,-5.9,-2.01,7.42
23.68309497833252,-3.44,-5.63,-2.49,7.05
23.684536933898926,-3.15,-5.81,-2.6,7.1
23.698745012283325,-3.07,-6.3,-2.41,7.41
23.70025396347046,-2.91,-6.86,-1.73,7.64
23.71479105949402,-2.52,-7.41,-0.86,7.87
23.74747395515442,-2.06,-7.92,-0.31,8.18
23.748772859573364,-1.77,-8.57,-0.13,8.75
23.749768018722534,-1.81,-9.2,0.03,9.37
23.76681900024414,-2.16,-9.37,0.56,9.63
23.76787495613098,-2.64,-8.29,1.71,8.86
23.784106969833374,-2.67,-6.59,2.66,7.59
23.78557801246643,-1.3,-5.17,2.39,5.84
23.79909110069275,1.29,-4.01,2.23,4.76
23.800506830215454,4.06,-2.62,2.75,5.55
23.81492304801941,6.72,-0.9,3.35,7.56
23.84694504737854,8.93,0.98,3.42,9.61
23.848262071609497,10.42,3.06,3.15,11.3
23.849334001541138,12.02,5.48,3.56,13.68
23.866814851760864,14.02,7.66,3.82,16.42
23.867783784866333,16.17,9.37,3.93,19.09
23.88383412361145,17.88,10.67,3.58,21.12
23.885366916656494,19.41,11.4,3.52,22.78
23.89669680595398,20.95,11.06,3.91,24.01
23.89840292930603,20.18,11.95,4.28,23.84
23.912758111953735,15.48,13.66,0.47,20.65
23.94595694541931,3.92,1.59,-11.59,12.33
23.94744300842285,-11.03,7.39,-22.7,26.29
23.948517084121704,-17.95,52.09,-4.68,55.29
23.96720004081726,-19.84,39.68,0.04,44.36
23.968235969543457,-7.78,0.77,-3.12,8.41
23.983411073684692,3.51,-4.24,6.92,8.84
23.984916925430298,6.39,-10.94,9.46,15.81
23.998637914657593,9.35,-13.87,6.34,17.88
24.00014090538025,11.7,-12.8,4.25,17.85
24.014819860458374,10.6,-7.19,3.57,13.29
24.017526865005493,5.77,-1.82,2.04,6.38
24.06342101097107,1.45,0.69,-0.69,1.74
24.064613103866577,-1.02,3.42,-3.24,4.82
24.06564211845398,-1.34,5.62,-3.46,6.73
24.084515810012817,-0.55,4.88,-1.06,5.02
24.085996866226196,0.56,0.97,0.92,1.44
24.09995698928833,1.37,-2.04,1.57,2.91
24.101428985595703,1.44,-3.13,1.31,3.68
24.115880966186523,1.43,-2.2,0.83,2.75
24.11733603477478,1.26,-0.44,-0.13,1.34
24.13192892074585,0.91,0.64,-0.91,1.43
24.1631338596344,0.51,0.82,-0.79,1.24
24.164483785629272,0.38,0.39,-0.09,0.55
24.165558099746704,0.5,-0.21,0.4,0.67
24.18381094932556,0.56,-0.55,0.21,0.81
24.184834003448486,0.37,-0.33,-0.08,0.5
24.200177907943726,-0.07,0.15,0.02,0.16
24.20165181159973,-0.56,0.49,0.25,0.78
24.215541124343872,-0.87,0.5,0.06,1.0
24.21701192855835,-0.71,0.43,-0.48,0.95
24.231722116470337,-0.27,0.39,-0.79,0.92
24.26117992401123,-0.03,0.33,-0.72,0.79
24.26247811317444,-0.2,0.31,-0.3,0.47
24.263468980789185,-0.73,0.33,-0.22,0.83
24.28340792655945,-1.01,0.47,-0.22,1.13
24.284393072128296,-0.91,0.52,-0.2,1.06
24.300183057785034,-0.85,0.5,-0.03,0.98
24.301645040512085,-0.98,0.41,0.13,1.07
24.31572699546814,-1.16,0.32,-0.03,1.2
24.317166090011597,-1.15,0.3,-0.36,1.24
24.331714868545532,-0.92,0.29,-0.8,1.25
24.36241888999939,-0.72,0.44,-1.05,1.34
24.363812923431396,-0.86,0.62,-1.37,1.73
24.364803075790405,-1.21,0.9,-1.58,2.18
24.38358497619629,-1.8,1.16,-1.39,2.55
24.384620904922485,-2.23,1.39,-1.17,2.87
24.40026307106018,-2.08,1.55,-1.0,2.78
24.40168595314026,-1.85,1.65,-0.6,2.55
24.41572093963623,-1.42,1.81,-0.66,2.39
24.417202949523926,-1.05,1.93,-0.84,2.35
24.43187689781189,-1.48,2.63,-0.61,3.07
24.460773944854736,-2.16,3.09,-1.23,3.96
24.46207594871521,-2.73,3.8,-1.11,4.8
24.463109970092773,-2.74,4.35,-0.53,5.16
24.48381781578064,-3.3,4.21,-0.64,5.38
24.48486089706421,-4.22,4.16,-0.62,5.95
24.500268936157227,-5.35,4.32,-0.78,6.92
24.501720905303955,-6.25,5.03,-0.86,8.06
24.515572786331177,-7.21,6.19,-1.3,9.59
24.51704692840576,-8.83,8.18,-2.02,12.2
24.531957864761353,-10.82,10.38,-4.39,15.62
24.559330940246582,-12.08,11.23,-7.56,18.14
24.560696840286255,-13.14,11.14,-9.33,19.59
24.56172800064087,-13.71,11.76,-8.98,20.17
24.56438183784485,-12.67,13.64,-5.84,19.51
24.565881967544556,-8.32,16.3,-3.26,18.58
24.572953939437866,-2.09,15.64,-5.86,16.83
24.582950830459595,2.1,13.01,-6.05,14.5
24.593140840530396,2.5,7.99,-4.73,9.61
24.60305690765381,-0.96,1.9,-6.27,6.62
24.61322808265686,-4.14,-2.54,-8.44,9.73
24.648642778396606,-0.87,-0.05,-8.0,8.04
24.649812936782837,4.6,4.1,-1.51,6.34
24.650803804397583,2.08,-0.29,-2.6,3.34
24.667162895202637,-3.41,-2.34,-5.19,6.63
24.66820979118347,-6.99,-3.77,-3.58,8.71
24.683140993118286,-9.78,-3.83,-2.69,10.84
24.684190034866333,-11.84,-3.65,-2.64,12.66
24.698925971984863,-12.32,-3.76,-1.73,12.99
24.702009916305542,-10.6,-4.43,0.52,11.5
24.7152099609375,-8.24,-6.09,2.61,10.57
24.74761700630188,-6.58,-8.29,3.22,11.06
24.74889588356018,-6.23,-9.57,2.7,11.73
24.74991202354431,-6.62,-8.78,2.26,11.22
24.7688570022583,-6.78,-7.04,1.34,9.86
24.769855976104736,-6.68,-6.13,-0.27,9.07
24.78315281867981,-6.07,-5.67,-1.57,8.45
24.784190893173218,-5.12,-5.35,-2.34,7.76
24.799253940582275,-4.31,-5.14,-2.87,7.29
24.801422834396362,-3.73,-5.08,-3.09,7.01
24.815354108810425,-3.25,-5.36,-2.96,6.93
24.821455001831055,-2.73,-5.94,-2.8,7.11
24.859145879745483,-2.14,-6.77,-2.72,7.6
24.860307931900024,-1.6,-7.54,-2.56,8.12
24.861520051956177,-1.37,-7.95,-1.89,8.28
24.863084077835083,-1.26,-7.65,-0.45,7.76
24.871145009994507,-0.66,-6.92,0.9,7.0
24.880993127822876,0.74,-6.17,1.01,6.29
24.890848875045776,2.89,-4.7,0.79,5.57
24.90073800086975,5.31,-2.46,1.63,6.07
24.910676956176758,7.6,0.22,3.16,8.23
24.92098593711853,9.35,3.17,4.59,10.88
24.95041584968567,10.97,6.22,6.16,14.03
24.951719999313354,12.64,9.22,7.19,17.21
24.952744007110596,14.3,12.15,7.41,20.17
24.967780828475952,15.82,14.61,6.88,22.6
24.970157861709595,17.77,15.73,5.83,24.43
24.980792999267578,19.21,15.08,3.72,24.7
24.98987889289856,20.23,13.85,3.09,24.71
24.999823808670044,18.84,16.37,2.71,25.1
25.009916067123413,16.35,11.94,-3.08,20.47
25.01990008354187,3.73,-4.08,-14.61,15.62
25.050451040267944,-11.69,-2.88,-26.52,29.12
25.051755905151367,-18.73,24.87,-10.29,32.79
25.052841901779175,-13.06,49.86,17.01,54.27
25.06806492805481,-8.07,13.35,0.48,15.6
25.06910490989685,1.39,-3.97,4.3,6.01
25.08152985572815,8.89,-4.99,10.23,14.44
25.08949589729309,11.02,-9.45,7.63,16.39
25.09925389289856,11.48,-11.48,0.82,16.25
25.109544038772583,11.49,-9.46,0.15,14.88
25.11921191215515,8.77,-3.38,1.7,9.55
25.150608777999878,4.3,0.48,0.31,4.33
25.15199303627014,1.03,2.53,-1.35,3.04
25.152981996536255,-0.48,4.29,-2.71,5.09
25.167575120925903,-0.31,4.27,-3.49,5.52
25.168587923049927,1.07,1.9,-2.63,3.41
25.183647871017456,2.13,-0.41,-0.47,2.21
25.188390970230103,1.97,-1.83,1.06,2.89
25.1992769241333,0.8,-2.12,2.02,3.03
25.208671808242798,-0.26,-1.47,2.66,3.05
25.218625783920288,-0.4,-0.7,2.13,2.27
25.25688099861145,-0.05,-0.15,1.02,1.03
25.258220911026,0.31,0.13,0.31,0.45
25.259257078170776,0.44,0.19,-0.03,0.48
25.264578104019165,0.27,0.12,-0.24,0.38
25.283889055252075,-0.03,0.12,-0.29,0.31
25.284816026687622,-0.18,0.2,-0.37,0.45
25.29922890663147,-0.2,0.17,-0.77,0.81
25.3006489276886,-0.13,0.19,-1.23,1.25
25.315709829330444,0.06,0.35,-1.33,1.37
25.31772494316101,0.13,0.42,-1.12,1.2
25.361413955688477,-0.1,0.35,-0.74,0.82
25.362592935562134,-0.44,0.21,-0.23,0.53
25.36360001564026,-0.72,0.12,0.21,0.75
25.384604930877686,-0.71,0.09,0.42,0.82
25.386117935180664,-0.44,0.12,0.38,0.59
25.399906873703003,-0.27,0.2,0.18,0.38
25.401359796524048,-0.4,0.34,-0.1,0.53
25.416062116622925,-0.66,0.46,-0.49,0.94
25.41755199432373,-1.11,0.48,-0.64,1.36
25.432454824447632,-1.71,0.4,-0.99,2.01
25.46228289604187,-2.13,0.38,-1.15,2.45
25.46369194984436,-2.42,0.58,-0.79,2.61
25.46471905708313,-2.45,0.81,-0.85,2.71
25.484091997146606,-2.02,1.03,-1.28,2.6
25.485145807266235,-1.29,1.24,-1.37,2.25
25.50071096420288,-0.9,1.25,-1.22,1.96
25.50211501121521,-0.9,1.09,-1.06,1.76
25.51609206199646,-1.0,1.01,-0.97,1.72
25.517514944076538,-1.28,1.25,-0.82,1.96
25.53205895423889,-1.42,1.85,-0.57,2.4
25.560301065444946,-1.77,2.61,-0.48,3.18
25.561733961105347,-1.93,3.13,-0.49,3.7
25.562758922576904,-2.31,3.87,-0.67,4.55
25.565022945404053,-2.61,4.41,-1.02,5.22
25.566521883010864,-2.92,4.46,-1.14,5.45
25.575670957565308,-3.58,4.56,-0.98,5.87
25.585684061050415,-4.58,5.34,-0.8,7.08
25.595632791519165,-5.81,6.58,-1.27,8.86
25.605708837509155,-7.31,7.78,-2.4,10.94
25.615551948547363,-8.83,9.06,-3.48,13.12
25.625491857528687,-10.21,10.31,-5.31,15.45
25.656429052352905,-11.2,10.94,-7.22,17.24
25.65777277946472,-11.66,10.88,-7.76,17.73
25.65885090827942,-12.09,10.29,-8.31,17.91
25.664858102798462,-12.87,10.35,-8.05,18.37
25.67501711845398,-11.48,13.55,-4.58,18.34
25.684633016586304,-6.24,16.12,-3.54,17.64
25.695197820663452,-0.79,14.64,-6.01,15.84
25.704263925552368,1.55,9.89,-6.07,11.7
25.715035915374756,-0.13,3.42,-6.25,7.12
25.724683046340942,-3.69,-0.75,-6.63,7.62
25.75675082206726,-2.65,-1.8,-6.42,7.17
25.75806212425232,4.38,4.25,-1.74,6.34
25.75912880897522,7.58,2.21,2.58,8.3
25.76691198348999,2.52,-2.6,-3.49,5.02
25.7740581035614,-2.64,-4.47,-5.87,7.83
25.78384804725647,-4.87,-3.94,-3.66,7.25
25.793977975845337,-6.65,-3.32,-3.2,8.09
25.804139852523804,-8.14,-3.58,-2.86,9.34
25.81444811820984,-8.25,-4.31,-1.72,9.46
25.82406783103943,-7.01,-5.73,0.24,9.05
25.855972051620483,-5.86,-7.44,2.62,9.82
25.857314825057983,-5.81,-8.7,3.31,10.97
25.85834813117981,-6.37,-8.91,3.04,11.36
25.86813712120056,-6.71,-8.08,2.27,10.74
25.873482942581177,-6.44,-7.1,1.39,9.68
25.883702993392944,-6.21,-6.46,0.38,8.96
25.893253087997437,-6.04,-6.01,-0.34,8.52
25.903444051742554,-5.77,-6.09,-0.96,8.44
25.91349697113037,-5.5,-6.31,-1.47,8.49
25.923364877700806,-5.34,-6.7,-1.56,8.7
25.95486807823181,-5.03,-7.17,-1.29,8.85
25.956265926361084,-4.49,-7.62,-1.11,8.91
25.95726180076599,-3.81,-8.01,-0.96,8.92
25.96789288520813,-3.15,-8.59,-0.98,9.2
25.972738027572632,-2.58,-9.09,-0.75,9.47
25.983853101730347,-2.07,-9.45,-0.37,9.68
25.99281597137451,-1.34,-9.5,0.15,9.59
26.002620935440063,-0.5,-9.07,0.54,9.09
26.01260995864868,0.34,-7.89,0.92,7.95
26.022230863571167,1.46,-5.81,0.54,6.01
26.06031584739685,3.24,-3.34,0.49,4.67
26.061712980270386,5.54,-0.55,1.53,5.77
26.062681913375854,8.5,2.69,3.05,9.42
26.064958810806274,11.28,5.72,4.41,13.39
26.07183003425598,13.07,8.72,5.33,16.59
26.08155608177185,14.41,12.31,6.07,19.9
26.09215807914734,15.67,15.81,7.04,23.34
26.102641820907593,16.41,17.72,6.54,25.02
26.111743927001953,17.53,17.61,4.93,25.33
26.121609926223755,18.75,14.93,3.24,24.18
26.158117055892944,18.45,15.6,3.06,24.35
26.159531831741333,16.91,12.06,-0.7,20.78
26.160555124282837,6.3,-1.71,-10.78,12.6
26.164078950881958,-8.67,1.48,-22.49,24.14
26.183976888656616,-16.89,38.92,-6.12,42.86
26.185045957565308,-19.39,41.2,5.27,45.83
26.19952082633972,-10.89,1.06,-1.41,11.03
26.200604915618896,-0.2,-7.75,5.24,9.35
26.216001987457275,6.74,-9.11,7.75,13.72
26.221019983291626,10.48,-11.11,7.51,17.01
26.26521396636963,12.81,-10.96,4.55,17.46
26.26639199256897,11.27,-5.27,3.29,12.86
26.26741909980774,6.3,-0.41,1.23,6.43
26.28491711616516,2.14,1.14,-2.15,3.24
26.28597092628479,-0.46,2.76,-4.37,5.18
26.300537824630737,-1.24,4.27,-1.88,4.82
26.3015558719635,-0.86,3.15,1.56,3.61
26.316656827926636,0.38,-0.21,1.98,2.02
26.318150997161865,1.68,-2.29,1.21,3.08
26.332783937454224,2.49,-2.39,0.08,3.45
26.36635994911194,2.2,-1.17,-0.21,2.5
26.367645978927612,1.22,0.09,0.04,1.22
26.368632078170776,0.56,0.41,0.0,0.69
26.384629011154175,0.6,0.08,-0.01,0.6
26.385693788528442,0.68,-0.08,0.01,0.68
26.40069603919983,0.45,0.12,0.11,0.47
26.401745080947876,0.2,0.23,-0.11,0.32
26.416218042373657,0.18,0.18,-0.39,0.46
26.41722297668457,0.14,0.13,-0.29,0.34
26.432782888412476,0.02,0.07,-0.28,0.28
26.434274911880493,0.01,0.04,-0.5,0.5
26.481798887252808,0.04,0.17,-0.61,0.63
26.48298192024231,-0.02,0.33,-0.6,0.68
26.48397994041443,-0.13,0.31,-0.52,0.61
26.501213788986206,-0.31,0.26,-0.25,0.47
26.50223708152771,-0.55,0.26,0.01,0.6
26.51728081703186,-0.83,0.37,0.12,0.91
26.51828098297119,-1.01,0.49,0.05,1.12
26.533195972442627,-0.99,0.58,-0.24,1.17
26.534609079360962,-0.9,0.64,-0.28,1.13
26.54965591430664,-1.01,0.57,-0.17,1.17
26.580294847488403,-1.3,0.4,-0.3,1.39
26.581515073776245,-1.43,0.27,-0.68,1.6
26.58233094215393,-1.29,0.31,-0.86,1.58
26.60149598121643,-1.11,0.56,-0.76,1.45
26.602516889572144,-0.97,0.75,-0.72,1.42
26.617453813552856,-0.73,0.85,-0.89,1.43
26.61848282814026,-0.7,0.98,-0.91,1.5
26.633026838302612,-0.97,1.1,-0.78,1.66
26.63410782814026,-1.18,1.14,-0.88,1.86
26.6493239402771,-1.57,1.23,-0.51,2.05
26.678765058517456,-1.9,1.6,-0.08,2.48
26.67998480796814,-2.19,1.97,-0.1,2.94
26.68075394630432,-2.44,2.85,0.27,3.76
26.70148777961731,-2.19,3.06,0.2,3.76
26.70243191719055,-2.33,2.85,0.14,3.68
26.717665910720825,-2.66,2.71,-0.16,3.8
26.718670129776,-2.98,2.71,-0.83,4.11
26.733839988708496,-3.25,2.89,-1.45,4.58
26.734835863113403,-3.78,3.74,-1.88,5.64
26.749990940093994,-4.53,5.14,-2.38,7.25
26.781033992767334,-5.68,6.56,-3.16,9.23
26.782467126846313,-7.12,8.16,-3.44,11.36
26.78349995613098,-8.75,9.39,-4.92,13.74
26.798351049423218,-10.51,10.12,-7.4,16.35
26.799404859542847,-12.0,10.65,-8.64,18.22
26.814325094223022,-12.98,10.84,-9.07,19.18
26.81536602973938,-13.06,11.31,-7.94,19.01
26.831084966659546,-11.24,13.41,-5.6,18.37
26.83212685585022,-6.07,14.45,-5.86,16.73
26.84950089454651,0.06,12.41,-8.33,14.94
26.87897300720215,3.52,10.84,-5.96,12.86
26.88020896911621,2.13,5.13,-4.84,7.36
26.88102412223816,-2.13,-0.34,-6.33,6.68
26.90149998664856,-2.85,-3.15,-7.75,8.83
26.90251612663269,2.45,1.31,-6.03,6.63
26.917609930038452,5.81,1.85,-0.81,6.15
26.9186589717865,0.46,-1.98,-4.64,5.06
26.933145999908447,-5.16,-3.31,-5.8,8.43
26.934141874313354,-8.54,-3.23,-3.68,9.84
26.949855089187622,-11.41,-3.07,-3.71,12.38
26.978662967681885,-13.58,-3.36,-3.28,14.36
26.979782819747925,-13.39,-3.88,-1.27,13.99
26.98058581352234,-10.38,-5.5,1.41,11.83
27.00188899040222,-7.34,-7.8,3.09,11.14
27.002949953079224,-5.94,-9.45,2.94,11.54
27.017781972885132,-5.78,-9.5,2.02,11.3
27.01882004737854,-6.12,-7.94,1.47,10.13
27.033576011657715,-6.27,-6.84,0.13,9.27
27.035066843032837,-6.15,-6.32,-1.16,8.89
27.04967188835144,-5.57,-5.98,-2.01,8.41
27.080042123794556,-4.73,-5.47,-2.68,7.71
27.0814208984375,-3.85,-5.02,-3.14,7.06
27.08243489265442,-3.01,-4.65,-3.28,6.43
27.101447820663452,-2.28,-4.43,-3.05,5.84
27.102492094039917,-1.81,-4.99,-2.69,5.95
27.117740869522095,-1.46,-5.97,-2.49,6.63
27.11876893043518,-1.24,-6.74,-2.05,7.15
27.133402109146118,-1.27,-6.96,-1.01,7.14
27.13443398475647,-1.06,-6.27,0.51,6.37
27.1496319770813,0.07,-5.48,1.39,5.65
27.179693937301636,2.05,-4.71,1.18,5.27
27.180793046951294,4.17,-3.27,1.73,5.57
27.181586980819702,6.06,-1.32,2.87,6.83
27.201677083969116,7.62,1.23,4.35,8.86
27.20273184776306,8.85,4.41,5.66,11.39
27.216084957122803,10.02,7.6,6.73,14.26
27.217148065567017,11.13,10.45,6.62,16.64
27.231122970581055,12.0,12.81,5.14,18.28
27.23216700553894,12.95,14.32,3.28,19.58
27.247790098190308,14.64,15.52,2.17,21.44
27.24932312965393,17.48,15.82,2.51,23.7
27.29802107810974,20.45,12.89,2.91,24.34
27.299210786819458,21.79,9.61,4.68,24.27
27.30023503303528,20.36,7.59,6.0,22.54
27.318898916244507,12.81,6.18,3.26,14.59
27.319976091384888,2.22,-1.05,-1.09,2.68
27.33474898338318,-7.51,-6.69,-11.15,15.01
27.335821866989136,-20.5,1.89,-24.48,31.98
27.350412130355835,-19.84,39.48,1.41,44.2
27.35190510749817,-10.47,44.54,13.58,47.72
27.366495847702026,-4.76,1.83,-1.88,5.43
27.396919012069702,1.98,-8.58,4.26,9.78
27.398310899734497,8.62,-7.77,5.86,13.0
27.399271965026855,11.14,-9.22,5.93,15.62
27.41836380958557,11.0,-9.29,3.26,14.76
27.419431924819946,8.51,-5.07,0.95,9.95
27.434639930725098,4.29,-1.13,-0.92,4.53
27.4356849193573,2.03,1.62,-2.31,3.47
27.450151920318604,0.87,3.75,-3.39,5.12
27.451169967651367,0.45,3.82,-1.6,4.16
27.466548919677734,0.48,1.48,1.21,1.97
27.494181871414185,0.32,-0.98,1.96,2.21
27.49533700942993,0.15,-1.82,2.37,2.99
27.496168851852417,0.47,-1.3,1.47,2.01
27.498557806015015,0.85,-0.3,0.02,0.9
27.499743938446045,0.88,0.38,-0.75,1.21
27.500983953475952,0.76,0.47,-0.49,1.01
27.50215983390808,0.8,0.11,0.19,0.82
27.510977029800415,0.84,-0.5,-0.02,0.97
27.521081924438477,0.84,-0.63,-0.54,1.18
27.5309739112854,0.64,-0.23,-0.87,1.1
27.557931900024414,0.31,0.27,-0.72,0.82
27.558825969696045,0.11,0.46,-0.08,0.47
27.560561895370483,0.03,0.38,0.38,0.53
27.570523023605347,-0.04,0.13,0.43,0.45
27.58050799369812,-0.17,-0.06,0.37,0.41
27.590461015701294,-0.33,-0.09,0.14,0.36
27.600347995758057,-0.42,0.02,-0.45,0.61
27.610280990600586,-0.4,0.35,-0.83,0.98
27.6203191280365,-0.32,0.65,-0.8,1.07
27.630196809768677,-0.43,0.72,-0.55,1.0
27.665102005004883,-0.72,0.63,-0.2,0.97
27.666320085525513,-1.14,0.48,0.05,1.23
27.6671359539032,-1.61,0.33,-0.12,1.64
27.68499779701233,-1.96,0.18,-0.72,2.09
27.68583607673645,-2.0,0.13,-1.25,2.36
27.70117497444153,-1.55,0.3,-1.62,2.26
27.702203035354614,-0.86,0.51,-1.77,2.03
27.717713117599487,-0.38,0.85,-1.74,1.97
27.719454050064087,-0.43,1.15,-1.69,2.08
27.733736991882324,-0.69,1.38,-1.3,2.01
27.767234086990356,-0.87,1.39,-0.69,1.77
27.768429040908813,-0.95,1.22,-0.2,1.55
27.76923108100891,-0.96,0.96,-0.41,1.41
27.785273790359497,-1.01,1.03,-0.15,1.45
27.786332845687866,-1.34,1.54,0.09,2.04
27.80108380317688,-1.82,2.2,-0.12,2.85
27.802128076553345,-1.71,2.5,-0.27,3.04
27.81680178642273,-1.79,2.62,-0.04,3.17
27.818439960479736,-2.13,2.54,0.15,3.31
27.833418130874634,-2.78,2.39,0.21,3.67
27.865183115005493,-3.42,2.58,0.25,4.29
27.86627507209778,-4.05,3.08,-0.37,5.1
27.867078065872192,-4.75,4.05,-0.97,6.31
27.885417938232422,-5.77,5.76,-1.48,8.28
27.886465787887573,-7.25,8.26,-2.55,11.28
27.901222944259644,-8.66,10.05,-5.76,14.46
27.90228009223938,-9.61,10.25,-8.18,16.25
27.91689896583557,-10.53,9.94,-7.63,16.36
27.917940855026245,-11.27,9.39,-7.03,16.26
27.933412790298462,-11.9,8.99,-6.75,16.37
27.96737504005432,-11.7,10.88,-4.9,16.71
27.968785047531128,-8.15,13.81,-3.69,16.45
27.969798803329468,-2.2,13.69,-6.37,15.25
27.985475778579712,2.51,12.31,-6.23,14.02
27.98653793334961,3.44,8.01,-3.95,9.57
28.00164294242859,-0.14,1.57,-6.01,6.21
28.00269389152527,-3.68,-2.54,-7.09,8.38
28.01675581932068,-1.35,-0.26,-6.25,6.39
28.017711877822876,3.38,4.12,-0.75,5.38
28.033808946609497,1.09,-0.03,-3.07,3.25
28.03741693496704,-3.47,-1.69,-5.97,7.1
28.08085608482361,-6.12,-1.1,-3.99,7.38
28.082047939300537,-8.39,-0.72,-3.3,9.04
28.083033800125122,-9.45,-1.4,-2.57,9.89
28.10204792022705,-8.79,-2.75,-0.89,9.25
28.10309100151062,-7.19,-5.12,1.06,8.89
28.1179621219635,-5.95,-7.62,2.06,9.88
28.11898899078369,-5.53,-8.47,2.5,10.41
28.13396382331848,-5.59,-7.75,2.8,9.95
28.135462045669556,-5.23,-6.71,2.0,8.73
28.150089025497437,-4.07,-6.4,0.1,7.58
28.181227922439575,-3.65,-5.85,-0.86,6.94
28.182552099227905,-3.83,-5.95,-1.65,7.26
28.18351912498474,-4.05,-6.42,-2.59,8.02
28.202462911605835,-4.19,-6.35,-3.09,8.21
28.203498125076294,-3.54,-7.09,-3.18,8.53
28.218179941177368,-2.83,-7.56,-3.0,8.61
28.219218015670776,-3.21,-6.88,-2.7,8.05
28.233804941177368,-3.48,-7.37,-2.17,8.43
28.235031843185425,-3.4,-8.59,-1.61,9.37
28.250154972076416,-3.44,-9.57,-1.32,10.25
28.27959704399109,-3.49,-10.38,-0.84,10.98
28.280946016311646,-3.49,-10.67,-0.22,11.22
28.28176498413086,-3.14,-10.34,0.69,10.82
28.302112817764282,-2.15,-9.3,1.51,9.66
28.303159952163696,-0.41,-8.18,1.85,8.39
28.318285942077637,1.81,-6.78,1.34,7.14
28.319338083267212,4.32,-4.69,1.3,6.5
28.333745002746582,6.6,-2.31,2.25,7.34
28.33479905128479,8.58,0.75,3.71,9.37
28.35017704963684,10.38,4.38,5.34,12.46
28.379607915878296,12.31,8.47,7.38,16.66
28.380852937698364,14.26,13.04,8.74,21.2
28.38169503211975,15.8,17.45,9.95,25.55
28.402482986450195,16.75,21.08,11.6,29.31
28.403533935546875,17.3,20.7,10.46,28.93
28.418421030044556,17.65,19.08,6.75,26.85
28.419436931610107,16.02,14.76,-1.79,21.85
28.43392300605774,4.33,-1.19,-17.84,18.39
28.43499779701233,-12.82,2.52,-38.34,40.5
28.44784903526306,-18.12,51.73,-7.9,55.37
28.471925973892212,-18.82,38.38,12.88,44.64
28.473028898239136,-8.28,2.16,7.05,11.08
28.474028825759888,2.96,-4.12,14.56,15.41
28.48601508140564,5.49,-11.43,10.07,16.19
28.486850023269653,7.57,-14.74,1.08,16.6
28.49354386329651,9.05,-12.54,-2.89,15.73
28.503709077835083,9.73,-6.34,-3.78,12.21
28.513665914535522,9.46,-0.7,-1.21,9.56
28.523220777511597,6.92,2.2,-0.15,7.26
28.533416986465454,2.45,3.14,0.36,3.99
28.568211793899536,-1.57,3.22,1.06,3.73
28.56936812400818,-2.91,2.48,2.24,4.43
28.570356130599976,-1.63,0.4,2.72,3.19
28.585815906524658,1.07,-1.71,0.99,2.24
28.586872816085815,2.56,-1.85,0.15,3.16
28.601874113082886,1.84,-0.86,-0.16,2.03
28.602937936782837,0.87,0.13,-0.53,1.02
28.616920948028564,0.8,0.42,-0.7,1.14
28.623063802719116,1.16,0.06,-0.77,1.39
28.63384509086609,1.15,-0.25,-0.85,1.45
28.668337106704712,0.82,-0.28,-0.57,1.03
28.669672966003418,0.39,-0.26,-0.23,0.52
28.670713901519775,-0.01,-0.16,0.51,0.53
28.685704946517944,-0.38,-0.03,1.16,1.22
28.686725854873657,-0.42,0.06,0.88,0.97
28.7027428150177,0.08,0.05,-0.07,0.11
28.703747034072876,0.63,-0.02,-0.89,1.09
28.717811822891235,0.65,-0.03,-0.95,1.15
28.72196078300476,0.11,0.02,-0.5,0.51
28.73385500907898,-0.62,0.19,-0.13,0.66
28.768152952194214,-0.97,0.4,-0.03,1.04
28.769429922103882,-0.88,0.61,0.05,1.07
28.770474910736084,-0.7,0.62,-0.19,0.95
28.78593897819519,-0.64,0.55,-0.33,0.9
28.786993980407715,-0.74,0.51,-0.23,0.92
28.80184578895569,-0.85,0.41,-0.18,0.96
28.802881956100464,-0.87,0.39,-0.42,1.04
28.81764006614685,-0.69,0.55,-0.56,1.04
28.821184873580933,-0.57,0.74,-0.91,1.3
28.83361792564392,-0.78,0.98,-1.17,1.71
28.84120488166809,-1.11,1.37,-1.16,2.11
28.877156972885132,-1.63,1.58,-1.31,2.62
28.87839102745056,-2.26,1.75,-1.28,3.13
28.87960696220398,-2.58,2.22,-1.01,3.55
28.881788969039917,-2.53,2.4,-1.01,3.63
28.90181803703308,-2.25,2.48,-0.95,3.48
28.902861833572388,-2.24,2.62,-0.88,3.55
28.917617082595825,-2.5,2.79,-1.03,3.88
28.920440912246704,-2.88,3.05,-0.99,4.31
28.934083938598633,-3.27,3.32,-0.93,4.75
28.94048285484314,-3.81,3.59,-1.09,5.34
28.978070974349976,-4.31,3.96,-1.43,6.02
28.9792058467865,-4.76,4.63,-1.74,6.86
28.98041296005249,-5.8,5.7,-2.62,8.54
28.981976985931396,-7.38,7.51,-3.4,11.06
28.98979091644287,-8.83,9.69,-4.72,13.93
28.99978280067444,-9.87,10.93,-7.01,16.31
29.010411024093628,-10.59,11.27,-8.48,17.63
29.020264863967896,-11.0,10.94,-9.38,18.12
29.029727935791016,-11.27,10.02,-10.39,18.31
29.039695978164673,-11.11,11.63,-8.29,18.09
29.068825006484985,-8.31,15.77,-3.55,18.17
29.07016682624817,-2.79,16.43,-4.34,17.22
29.07119584083557,1.22,11.64,-7.4,13.84
29.086756944656372,1.75,4.86,-7.4,9.02
29.088946104049683,-1.44,0.31,-6.35,6.51
29.102018117904663,-3.1,-2.55,-5.88,7.11
29.108824968338013,1.96,1.78,-3.26,4.19
29.119027853012085,6.64,2.97,3.04,7.88
29.12901282310486,2.11,-2.17,-0.96,3.17
29.139158964157104,-4.17,-4.29,-4.64,7.57
29.169729948043823,-7.8,-3.89,-2.85,9.17
29.17113494873047,-10.58,-2.91,-2.2,11.19
29.172218084335327,-12.75,-2.52,-1.9,13.13
29.186320066452026,-11.98,-2.39,-0.05,12.21
29.188302993774414,-7.86,-3.97,1.4,8.91
29.201905012130737,-4.16,-6.06,2.29,7.69
29.208070993423462,-2.71,-7.56,2.83,8.51
29.218188047409058,-3.14,-7.61,3.1,8.79
29.22839593887329,-3.07,-7.75,2.1,8.59
29.238305807113647,-2.38,-7.29,0.48,7.68
29.275913953781128,-1.66,-6.74,-1.17,7.03
29.277290105819702,-1.08,-6.17,-2.39,6.7
29.278312921524048,-0.68,-5.79,-3.6,6.85
29.282490968704224,-0.25,-6.12,-4.69,7.71
29.302303075790405,-0.06,-6.99,-5.06,8.62
29.303356885910034,-0.64,-7.44,-4.56,8.74
29.31805992126465,-1.79,-7.3,-4.11,8.56
29.319469928741455,-2.16,-7.84,-3.22,8.74
29.334030866622925,-1.96,-8.86,-2.43,9.39
29.337305784225464,-1.85,-9.89,-1.97,10.25
29.379042863845825,-1.84,-10.6,-1.62,10.87
29.380193948745728,-1.73,-10.83,-1.05,11.01
29.381150007247925,-1.63,-10.5,-0.21,10.62
29.3835129737854,-1.62,-9.46,0.85,9.63
29.38676381111145,-1.31,-8.19,1.05,8.36
29.396692037582397,-0.14,-6.82,0.31,6.82
29.40663194656372,1.58,-4.89,0.48,5.16
29.416784048080444,3.33,-2.79,1.72,4.67
