time,ax,ay,az,atotal
0.043025970458984375,-0.14,0.68,-0.49,0.84
0.04363298416137695,-0.15,-0.27,0.09,0.32
0.04422187805175781,0.03,0.01,-0.12,0.12
0.04541897773742676,-0.09,-0.01,0.0,0.09
0.04668283462524414,-0.15,0.02,0.15,0.21
0.05674600601196289,-0.16,0.04,0.1,0.19
0.06701183319091797,0.05,-0.01,0.17,0.17
0.07670307159423828,0.24,-0.04,0.25,0.34
0.0867459774017334,0.12,-0.03,0.2,0.23
0.0966799259185791,-0.07,-0.01,0.0,0.07
0.14291095733642578,0.03,0.01,-0.09,0.09
0.14349794387817383,0.16,0.01,-0.1,0.18
0.14404678344726562,0.21,0.02,-0.2,0.29
0.14520597457885742,0.25,-0.01,-0.19,0.31
0.1465740203857422,0.25,0.02,-0.04,0.25
0.15659809112548828,0.18,0.0,0.11,0.21
0.16644001007080078,0.02,-0.01,0.16,0.16
0.17658185958862305,-0.08,-0.01,0.16,0.17
0.18665790557861328,-0.04,-0.01,0.15,0.15
0.19657588005065918,-0.04,-0.02,0.11,0.11
0.24528098106384277,-0.16,-0.02,0.13,0.2
0.24593687057495117,-0.23,0.0,0.14,0.26
0.24656105041503906,-0.13,-0.01,0.11,0.17
0.24781298637390137,-0.03,0.02,0.0,0.03
0.24903583526611328,-0.03,0.04,-0.13,0.13
0.25650691986083984,-0.03,0.03,-0.2,0.2
0.266279935836792,-0.01,0.02,-0.24,0.24
0.27645301818847656,-0.05,0.0,-0.23,0.23
0.28646087646484375,-0.16,0.0,-0.14,0.21
0.29642581939697266,-0.19,0.01,0.01,0.19
0.3427400588989258,-0.1,0.0,0.13,0.16
0.3433349132537842,-0.03,-0.02,0.18,0.18
0.3439030647277832,-0.01,-0.02,0.19,0.19
0.344973087310791,0.0,-0.02,0.25,0.25
0.34636402130126953,-0.01,-0.07,0.22,0.23
0.35633182525634766,-0.04,-0.06,0.23,0.24
0.36635398864746094,-0.16,-0.02,0.35,0.38
0.37646484375,-0.22,-0.01,0.44,0.49
0.38637876510620117,-0.13,-0.03,0.41,0.43
0.3962860107421875,-0.09,-0.03,0.29,0.3
0.44286680221557617,-0.15,-0.03,0.08,0.17
0.4434370994567871,-0.23,-0.01,0.11,0.25
0.4440150260925293,-0.23,-0.03,0.2,0.3
0.44510388374328613,-0.08,-0.01,0.08,0.11
0.44625377655029297,0.14,0.01,0.01,0.14
0.45619797706604004,0.13,-0.01,0.02,0.13
0.466188907623291,0.06,-0.01,-0.01,0.06
0.47620391845703125,0.06,-0.03,0.1,0.12
0.486224889755249,0.1,-0.04,0.16,0.19
0.49619388580322266,0.22,-0.04,0.14,0.26
0.5438199043273926,0.3,-0.1,0.24,0.39
0.5444130897521973,0.08,-0.08,0.28,0.3
0.5450057983398438,-0.19,-0.04,0.12,0.22
0.5461740493774414,-0.12,-0.05,0.11,0.17
0.547307014465332,0.02,-0.12,0.2,0.23
0.5561017990112305,0.0,-0.07,0.36,0.36
0.5659289360046387,-0.2,-0.05,0.25,0.32
0.576042890548706,-0.33,-0.13,0.27,0.44
0.5860519409179688,-0.26,-0.11,0.26,0.38
0.5962479114532471,-0.21,-0.07,0.3,0.37
0.6430211067199707,-0.16,-0.1,0.37,0.41
0.6436018943786621,-0.16,-0.13,0.33,0.38
0.644150972366333,-0.04,-0.03,0.3,0.3
0.6453227996826172,-0.02,-0.04,0.24,0.24
0.6464800834655762,-0.21,-0.11,0.26,0.35
0.6559569835662842,-0.11,-0.06,0.19,0.22
0.6659407615661621,0.09,-0.01,0.04,0.09
0.6757969856262207,0.33,0.02,-0.07,0.33
0.685884952545166,0.37,-0.09,-0.04,0.38
0.6958839893341064,0.34,-0.05,0.05,0.34
0.7436699867248535,0.43,0.02,-0.03,0.43
0.744229793548584,0.43,0.02,-0.05,0.43
0.7447328567504883,0.42,0.09,-0.12,0.44
0.7458798885345459,0.41,0.09,-0.34,0.54
0.7469921112060547,0.64,-0.02,-0.12,0.65
0.7558388710021973,0.64,0.05,-0.06,0.64
0.7657670974731445,0.47,0.11,-0.27,0.55
0.7757477760314941,0.19,-0.07,-0.21,0.29
0.7858049869537354,-0.16,0.01,-0.46,0.48
0.7957689762115479,-0.2,0.23,-0.67,0.73
0.8437490463256836,0.14,-0.01,-0.28,0.31
0.8443508148193359,0.07,-0.09,-0.38,0.39
0.8449399471282959,-0.2,0.19,-0.56,0.62
0.8461098670959473,-0.29,0.16,-0.4,0.51
0.8472459316253662,-0.34,0.03,-0.35,0.48
0.8557038307189941,-0.14,0.09,-0.26,0.3
0.865635871887207,-0.04,0.04,-0.15,0.16
0.8754677772521973,-0.37,-0.01,-0.12,0.38
0.8856339454650879,-0.54,0.07,-0.15,0.56
0.8956470489501953,-0.27,0.07,0.02,0.27
0.9436221122741699,0.0,0.02,-0.22,0.22
0.9442179203033447,0.41,0.05,-0.37,0.55
0.9447989463806152,0.68,0.05,-0.26,0.72
0.9459290504455566,0.33,0.04,-0.3,0.44
0.9470338821411133,0.16,0.12,-0.23,0.3
0.955704927444458,0.38,0.08,-0.13,0.4
0.9654750823974609,0.73,0.04,-0.12,0.74
0.9755687713623047,0.82,-0.07,0.01,0.82
0.9855728149414062,0.64,-0.03,0.12,0.65
0.9954948425292969,0.39,0.06,-0.01,0.39
1.0437428951263428,0.14,0.05,-0.1,0.17
1.0443379878997803,0.16,-0.01,0.02,0.16
1.0449399948120117,0.21,-0.07,0.16,0.27
1.0461130142211914,0.31,-0.03,0.2,0.37
1.0472559928894043,0.41,0.04,0.41,0.58
1.0553669929504395,0.48,0.17,0.33,0.6
1.0653328895568848,0.39,0.21,-0.18,0.47
1.0753750801086426,0.26,0.2,-0.62,0.7
1.085282802581787,0.27,0.08,-0.68,0.73
1.0951910018920898,0.53,0.14,-0.46,0.71
1.1444039344787598,0.6,0.16,-0.13,0.63
1.1450119018554688,0.4,0.1,0.14,0.43
1.1456029415130615,0.51,0.12,0.15,0.54
1.1467781066894531,1.08,0.28,-0.07,1.11
1.1479148864746094,1.54,0.51,-0.25,1.64
1.155296802520752,2.13,0.69,-0.45,2.28
1.1652798652648926,2.83,0.99,-0.32,3.01
1.1752538681030273,3.28,1.01,0.06,3.43
1.1851520538330078,3.18,0.78,0.42,3.3
1.1952848434448242,2.38,0.52,0.53,2.49
1.2450759410858154,0.96,0.76,0.1,1.22
1.245682954788208,-0.64,1.79,-1.16,2.22
1.2462668418884277,0.31,2.25,-2.47,3.35
1.2474398612976074,1.86,2.72,-2.07,3.89
1.2486019134521484,2.74,2.61,-1.43,4.04
1.2550110816955566,2.65,1.64,-0.65,3.18
1.2650139331817627,2.44,0.93,-0.25,2.62
1.275108814239502,2.84,0.72,0.03,2.93
1.284945011138916,3.69,0.69,0.32,3.76
1.2951369285583496,4.36,0.9,0.66,4.5
1.3441028594970703,4.27,0.87,0.62,4.4
1.3446879386901855,4.16,0.45,0.28,4.19
1.345263957977295,4.24,0.54,0.32,4.28
1.3464109897613525,4.58,0.44,0.73,4.65
1.3475408554077148,4.72,0.12,1.15,4.85
1.354862928390503,4.44,-0.14,1.38,4.65
1.3649840354919434,3.9,-0.39,1.34,4.14
1.3749260902404785,3.53,-0.61,1.16,3.76
1.3848819732666016,3.54,-0.72,0.99,3.74
1.3948688507080078,3.53,-0.72,1.01,3.74
1.4446508884429932,3.42,-0.67,1.02,3.63
1.4452509880065918,3.23,-0.58,1.09,3.45
1.4458389282226562,3.16,-0.4,1.1,3.36
1.4469668865203857,2.83,0.01,1.21,3.07
1.448077917098999,2.13,0.37,1.4,2.57
1.4548158645629883,1.75,0.7,1.47,2.39
1.4646410942077637,1.46,1.17,1.48,2.38
1.4747700691223145,1.01,1.43,1.54,2.33
1.484941005706787,0.37,1.19,1.6,2.02
1.4948019981384277,-0.29,0.74,1.53,1.72
1.5450029373168945,-0.78,0.43,1.36,1.62
1.5456039905548096,-1.09,0.23,1.13,1.58
1.5461788177490234,-1.47,0.11,1.13,1.85
1.5473108291625977,-2.11,-0.03,1.06,2.36
1.5484569072723389,-2.79,0.03,0.83,2.91
1.5546298027038574,-3.31,0.07,0.55,3.35
1.5646400451660156,-4.01,0.05,-0.09,4.01
1.5746889114379883,-4.49,-0.09,-0.92,4.58
1.5849847793579102,-4.86,-0.28,-1.59,5.12
1.5946769714355469,-5.25,-0.56,-1.92,5.61
1.6455130577087402,-5.07,1.38,-2.11,5.66
1.646122932434082,-3.48,1.63,-2.08,4.36
1.646718978881836,-4.91,-1.77,-1.46,5.41
1.6478629112243652,-6.31,-1.14,-1.7,6.63
1.6490287780761719,-6.68,0.1,-2.24,7.04
1.6545658111572266,-5.98,0.13,-2.5,6.48
1.66451096534729,-4.98,-0.55,-1.99,5.39
1.6745529174804688,-4.4,-1.01,-1.33,4.7
1.6845369338989258,-3.75,-0.48,-1.17,3.95
1.6945338249206543,0.03,0.52,-0.76,0.92
1.7458600997924805,4.89,0.03,1.06,5.0
1.7464559078216553,6.2,-1.41,2.44,6.81
1.7470479011535645,2.57,-2.02,1.93,3.79
1.7482268810272217,-0.71,0.43,0.2,0.85
1.7497129440307617,-1.73,4.36,-0.28,4.69
1.7547478675842285,-4.12,4.02,-1.1,5.86
1.764348030090332,-7.3,2.09,-3.98,8.57
1.7743840217590332,-3.5,4.9,-2.4,6.48
1.784402847290039,0.54,0.91,1.94,2.2
1.7943339347839355,0.12,-2.88,2.27,3.66
1.8466448783874512,-1.14,-2.89,1.03,3.27
1.8472380638122559,-1.36,-1.86,0.48,2.35
1.8478260040283203,-1.45,-0.46,-0.14,1.52
1.848991870880127,-2.12,0.82,-0.97,2.47
1.8504390716552734,-2.65,1.12,-0.85,2.99
1.8542718887329102,-2.91,0.19,-0.15,2.92
1.864245891571045,-2.77,-0.63,0.17,2.84
1.8742280006408691,-2.38,-0.5,0.37,2.45
1.8842198848724365,-1.61,0.1,0.78,1.79
1.8940629959106445,-0.39,0.35,0.81,0.96
1.9465217590332031,0.52,0.0,0.47,0.7
1.9470977783203125,0.8,0.0,0.13,0.81
1.9476499557495117,0.44,0.09,-0.43,0.62
1.9488239288330078,-0.16,0.01,-0.76,0.77
1.950273036956787,-0.7,-0.07,-0.67,0.97
1.9541587829589844,-1.4,-0.08,-0.68,1.55
1.9640898704528809,-1.74,0.13,-0.84,1.93
1.9741559028625488,-1.32,0.21,-0.92,1.62
1.9840428829193115,-0.39,0.15,-1.14,1.21
1.994055986404419,0.12,0.19,-1.27,1.28
2.0470058917999268,0.31,0.22,-0.96,1.03
2.0476009845733643,0.46,0.27,-0.65,0.84
2.048165798187256,0.34,0.27,-0.42,0.6
2.0496420860290527,0.21,0.16,-0.17,0.31
2.0507869720458984,0.05,0.06,-0.09,0.11
2.054020881652832,-0.18,0.08,0.29,0.35
2.0639448165893555,-0.32,0.19,0.46,0.59
2.073948860168457,-0.36,0.18,0.25,0.47
2.083967924118042,-0.18,0.12,-0.15,0.26
2.0938267707824707,0.03,0.0,-0.44,0.44
2.1474108695983887,-0.19,-0.25,-0.68,0.74
2.1480019092559814,-0.44,-0.29,-0.49,0.71
2.148927927017212,-0.32,-0.11,-0.46,0.57
2.15010404586792,-0.08,-0.02,-0.53,0.53
2.151247024536133,-0.03,-0.17,-0.39,0.42
2.153930902481079,-0.24,-0.19,-0.25,0.39
2.163825035095215,-0.36,-0.04,-0.05,0.36
2.1738638877868652,-0.24,0.11,0.01,0.26
2.183816909790039,-0.19,0.21,0.04,0.28
2.193772792816162,-0.18,0.18,0.11,0.27
2.247591018676758,-0.19,0.15,0.02,0.24
2.248210906982422,-0.42,0.16,-0.01,0.44
2.249098777770996,-0.48,0.16,0.27,0.57
2.250214099884033,-0.21,0.25,0.41,0.52
2.2513427734375,0.22,0.3,0.11,0.38
2.253750801086426,0.71,0.32,-0.82,1.13
2.2636868953704834,1.36,-0.07,-0.99,1.68
2.2737419605255127,1.26,-0.34,-0.83,1.54
2.283677101135254,1.08,-0.26,-0.79,1.36
2.2936599254608154,1.08,-0.07,-0.41,1.15
2.347287893295288,1.29,0.04,-0.23,1.31
2.34788179397583,1.68,0.17,-0.34,1.72
2.3487820625305176,1.98,0.39,-0.2,2.02
2.3499109745025635,2.08,0.63,-0.11,2.17
2.351038932800293,2.01,0.91,-0.2,2.21
2.353611946105957,1.92,1.04,-0.37,2.21
2.363588809967041,1.94,0.99,-0.68,2.28
2.3735899925231934,2.0,1.27,-0.64,2.45
2.383556842803955,2.16,2.49,-0.47,3.32
2.39341402053833,2.8,3.76,0.87,4.76
2.4476218223571777,3.28,3.29,1.6,4.91
2.4485597610473633,3.35,3.43,1.78,5.11
2.4491419792175293,3.55,3.46,1.74,5.25
2.450284004211426,3.51,3.12,1.74,5.0
2.451387882232666,3.11,2.94,1.14,4.42
2.453411102294922,3.16,2.88,0.58,4.31
2.463404893875122,3.34,2.88,0.23,4.41
2.4734339714050293,3.29,2.99,-0.11,4.44
2.4833688735961914,3.24,3.32,-0.18,4.64
2.493257999420166,3.12,3.97,-0.35,5.06
2.5473999977111816,3.23,4.68,-0.53,5.71
2.5480029582977295,2.88,4.74,-0.64,5.58
2.548898935317993,2.67,4.59,-0.9,5.38
2.5500569343566895,3.29,5.05,-1.45,6.19
2.5512259006500244,4.47,5.49,-1.66,7.27
2.553231954574585,5.18,5.29,-2.28,7.74
2.563286781311035,4.41,5.32,-1.76,7.13
2.573348045349121,2.2,6.76,-1.9,7.35
2.5832748413085938,1.57,6.9,-5.02,8.67
2.593043804168701,3.02,5.03,-4.52,7.4
2.6477479934692383,4.2,3.3,-2.14,5.75
2.6486599445343018,5.67,0.39,-1.1,5.78
2.649242877960205,8.11,0.01,-0.45,8.12
2.650418758392334,3.55,-0.34,1.11,3.73
2.651576042175293,0.21,-1.98,-0.83,2.15
2.653007984161377,3.54,-1.18,-2.01,4.23
2.6632471084594727,7.65,-0.12,-0.72,7.68
2.6732308864593506,9.82,-0.88,0.51,9.87
2.6831960678100586,9.19,-2.16,1.38,9.54
2.6932010650634766,7.82,-3.18,1.84,8.64
2.7481350898742676,6.76,-3.59,2.25,7.97
2.748918056488037,6.12,-3.14,1.84,7.12
2.7495040893554688,5.53,-2.81,1.01,6.28
2.750680923461914,4.89,-2.54,0.7,5.55
2.7518489360809326,4.44,-2.27,0.85,5.05
2.7532949447631836,4.04,-2.13,1.09,4.69
2.763040065765381,3.61,-2.08,1.32,4.37
2.773049831390381,3.13,-2.01,1.57,4.03
2.782996892929077,2.51,-1.77,1.62,3.47
2.792912006378174,1.96,-1.28,1.37,2.71
2.8476109504699707,1.44,-0.65,1.12,1.93
2.8485260009765625,0.8,0.08,0.74,1.09
2.8491058349609375,0.06,0.95,-0.18,0.96
2.8502719402313232,-0.37,2.08,-1.05,2.35
2.851411819458008,-0.84,3.17,-0.94,3.41
2.8527119159698486,-2.06,4.23,-0.17,4.7
2.8628499507904053,-3.78,4.99,-0.06,6.26
2.8728837966918945,-5.36,5.27,-0.72,7.55
2.882852077484131,-6.85,5.19,-1.25,8.68
2.89284086227417,-7.4,4.73,-1.27,8.87
2.948638916015625,-7.37,4.04,-0.92,8.45
2.9492359161376953,-7.41,3.61,-0.64,8.26
2.9498178958892822,-8.14,3.2,-0.93,8.79
2.9509530067443848,-8.98,2.68,-1.69,9.52
2.9520649909973145,-9.32,2.7,-2.15,9.93
2.9530248641967773,-9.41,2.29,-2.03,9.89
2.9627299308776855,-9.43,2.53,-1.23,9.84
2.9727818965911865,-9.45,1.47,-0.64,9.58
2.982693910598755,-10.7,-1.71,-0.95,10.87
2.992696762084961,-10.68,-1.4,-1.43,10.86
3.048240900039673,-10.49,-0.37,-2.07,10.69
3.0490307807922363,-10.39,-0.55,-2.53,10.7
3.049622058868408,-9.49,-0.5,-2.62,9.85
3.050748825073242,-3.47,1.29,-2.56,4.5
3.0518529415130615,6.89,2.14,1.08,7.29
3.0528550148010254,9.49,1.36,3.03,10.05
3.062385082244873,1.98,0.73,1.09,2.37
3.0726089477539062,-4.21,1.94,-0.55,4.66
3.082529067993164,-4.95,3.71,-1.12,6.28
3.0924978256225586,-3.33,6.51,-0.73,7.34
3.148447036743164,-3.09,5.44,0.37,6.26
3.149044990539551,-3.63,1.1,1.12,3.95
3.149624824523926,-3.67,-0.33,0.54,3.72
3.1507859230041504,-4.26,-1.58,-1.28,4.72
3.1519289016723633,-3.89,-0.06,-0.75,3.96
3.1529197692871094,-3.92,0.2,0.83,4.01
3.162477970123291,-3.75,-0.69,0.52,3.84
3.172420024871826,-3.12,-0.47,0.04,3.15
3.182405948638916,-2.48,0.01,-0.04,2.48
3.1924169063568115,-2.12,0.08,-0.53,2.18
3.202408790588379,-1.57,-0.13,-1.08,1.91
3.2495999336242676,-0.94,-0.18,-1.06,1.42
3.250189781188965,-0.59,0.26,-0.81,1.03
3.2513608932495117,-0.33,0.38,-0.45,0.67
3.2525389194488525,-0.16,-0.05,0.12,0.2
3.2535059452056885,-0.06,-0.14,0.1,0.18
3.2621288299560547,-0.12,-0.08,-0.43,0.45
3.2722458839416504,-0.17,-0.14,-0.85,0.87
3.282331943511963,0.02,-0.05,-1.03,1.03
3.2922520637512207,0.24,0.11,-1.18,1.2
3.3022427558898926,0.42,0.09,-1.06,1.14
3.3492307662963867,0.51,0.21,-0.93,1.08
3.3498167991638184,0.31,0.25,-0.67,0.77
3.351038932800293,0.16,0.22,-0.4,0.48
3.352220058441162,0.07,0.27,-0.28,0.39
3.353017807006836,0.05,0.21,-0.19,0.28
3.3622078895568848,0.07,0.12,-0.14,0.19
3.3721399307250977,0.34,0.1,-0.16,0.38
3.3821167945861816,0.65,-0.02,-0.02,0.65
3.3921117782592773,0.71,-0.1,0.28,0.76
3.402111053466797,0.64,-0.09,0.39,0.75
3.4493050575256348,0.51,-0.03,0.53,0.73
3.449887990951538,0.51,0.11,0.26,0.58
3.4510209560394287,0.25,-0.08,0.14,0.29
3.452198028564453,-0.06,-0.3,0.55,0.62
3.4529869556427,-0.31,-0.26,0.45,0.6
3.4620859622955322,-0.49,0.13,-0.2,0.54
3.4719300270080566,-0.68,0.19,-0.76,1.03
3.4820289611816406,-0.54,0.17,-0.76,0.94
3.4920787811279297,-0.08,0.07,-0.08,0.13
3.5020370483398438,0.26,-0.09,0.18,0.32
3.549146890640259,0.14,0.1,-0.68,0.7
3.549750804901123,-0.44,0.15,-0.87,0.98
3.550933837890625,-1.04,0.01,-0.26,1.07
3.552114963531494,-1.14,-0.01,0.19,1.15
3.552699089050293,-0.73,0.07,-0.01,0.73
3.5619239807128906,-0.29,0.18,-0.41,0.53
3.571908950805664,0.07,0.17,-0.37,0.41
3.5818989276885986,0.49,0.15,-0.07,0.51
3.5919039249420166,0.96,0.32,0.17,1.02
3.6018528938293457,1.37,0.48,-0.15,1.45
3.649384021759033,2.03,0.37,-0.28,2.08
3.649980068206787,2.84,0.29,-0.37,2.87
3.6511359214782715,3.34,0.3,-0.2,3.35
3.6522908210754395,3.59,0.47,0.25,3.62
3.653214931488037,3.71,0.63,0.39,3.78
3.6618409156799316,4.16,0.7,0.47,4.24
3.6718099117279053,4.56,0.83,-0.16,4.63
3.681752920150757,5.14,0.91,-0.78,5.27
3.6918129920959473,5.23,1.13,-0.68,5.39
3.701756000518799,4.47,1.59,-0.63,4.78
3.749772071838379,3.26,2.2,-0.84,4.02
3.7503738403320312,2.37,4.19,-0.79,4.87
3.751508951187134,2.45,5.07,1.33,5.78
3.7526159286499023,2.66,4.22,1.64,5.25
3.753553867340088,2.81,4.6,1.53,5.6
3.7616820335388184,3.3,5.11,0.99,6.16
3.7716760635375977,3.95,4.96,0.8,6.39
3.7816128730773926,4.15,4.91,0.18,6.43
3.8323729038238525,4.26,4.94,-0.59,6.54
3.8329789638519287,4.08,5.16,-1.06,6.66
3.833561897277832,4.14,5.34,-1.58,6.93
3.8341479301452637,3.77,5.62,-1.9,7.02
3.835330009460449,3.2,6.69,-2.4,7.79
3.8415560722351074,2.77,8.29,-3.52,9.42
3.851442813873291,2.46,7.61,-3.49,8.72
3.8615097999572754,2.64,5.42,-1.92,6.32
3.8715200424194336,1.54,5.84,-0.93,6.11
3.8814358711242676,1.22,5.78,-4.42,7.37
3.933424949645996,3.57,4.39,-4.39,7.16
3.9340200424194336,6.11,3.36,-2.0,7.25
3.934607982635498,9.12,0.92,-1.11,9.23
3.935187816619873,8.9,-1.73,0.2,9.06
3.9370839595794678,0.23,-3.62,1.37,3.87
3.94142484664917,-2.11,-3.93,-1.68,4.76
3.951295852661133,3.13,-1.43,-2.67,4.35
3.9613049030303955,8.0,-1.01,-0.53,8.08
3.971329927444458,10.19,-1.78,1.17,10.41
3.981351852416992,10.18,-2.53,2.2,10.71
4.033401966094971,8.69,-3.3,2.67,9.67
4.033997058868408,7.2,-3.92,2.81,8.66
4.034578800201416,6.1,-3.91,2.52,7.67
4.035157918930054,5.57,-3.31,1.9,6.75
4.037027835845947,5.31,-2.82,1.37,6.16
4.041238784790039,5.06,-2.46,1.13,5.73
4.051149845123291,4.77,-2.23,1.13,5.38
4.061258792877197,4.34,-1.99,1.21,4.92
4.071201801300049,3.66,-1.76,1.37,4.28
4.081161975860596,2.93,-1.61,1.86,3.82
4.133209943771362,2.63,-1.19,2.54,3.84
4.13381290435791,2.86,-0.43,2.8,4.02
4.134399890899658,2.48,0.74,2.13,3.35
4.134973049163818,0.87,2.06,0.41,2.27
4.136871814727783,-1.45,3.05,-0.98,3.51
4.14104700088501,-2.82,4.03,-1.52,5.14
4.1510748863220215,-2.83,5.24,-1.15,6.06
4.161080837249756,-2.35,5.89,-0.36,6.35
4.170933961868286,-2.22,6.17,-0.42,6.57
4.181049823760986,-3.34,6.19,-1.78,7.25
4.233222961425781,-5.84,5.87,-3.72,9.07
4.2338268756866455,-8.62,5.61,-5.48,11.65
4.234416961669922,-11.0,5.08,-6.08,13.55
4.2350099086761475,-12.18,3.62,-5.58,13.87
4.2364888191223145,-11.68,1.63,-4.41,12.59
4.240928888320923,-10.95,0.78,-3.53,11.53
4.250939846038818,-10.69,-0.29,-3.1,11.13
4.260876893997192,-10.27,-1.03,-2.24,10.56
4.270723819732666,-9.09,0.27,-1.34,9.19
4.280867099761963,-8.32,-0.31,-0.98,8.38
4.332900047302246,-7.43,-0.65,-0.6,7.48
4.333497047424316,-6.6,-0.13,-0.09,6.6
4.334076881408691,-6.28,0.19,0.34,6.29
4.334664821624756,-4.99,0.52,0.66,5.06
4.336165904998779,-3.2,0.5,1.37,3.51
4.341632843017578,-2.45,1.53,1.84,3.42
4.350840091705322,0.1,2.29,1.2,2.58
4.360728979110718,3.59,0.67,2.84,4.62
4.370669841766357,1.67,-1.0,1.85,2.68
4.380785942077637,-2.72,1.65,-1.11,3.36
4.433372974395752,-5.78,7.17,-1.95,9.41
4.433962821960449,-6.68,9.4,-1.06,11.58
4.4345479011535645,-7.59,4.63,-2.25,9.17
4.4351279735565186,-7.26,1.75,-2.69,7.93
4.43661093711853,-4.57,0.81,0.09,4.64
4.440721035003662,-3.61,-2.3,1.45,4.51
4.450647830963135,-4.5,-2.91,0.1,5.35
4.4606709480285645,-5.06,-0.97,-1.0,5.24
4.470678806304932,-4.44,0.44,-0.54,4.49
4.480681896209717,-3.39,0.76,0.13,3.47
4.532886028289795,-2.33,0.2,0.05,2.33
4.533480882644653,-1.28,-0.13,-0.11,1.29
4.534069061279297,-0.32,0.11,-0.23,0.4
4.534650802612305,0.52,0.33,-0.28,0.67
4.536149024963379,1.07,0.3,-0.2,1.12
4.5405519008636475,1.24,0.13,-0.69,1.42
4.550512790679932,0.95,-0.09,-1.45,1.73
4.5604939460754395,0.62,-0.3,-1.64,1.77
4.570687770843506,0.57,-0.2,-1.65,1.75
4.580540895462036,0.79,-0.18,-1.41,1.62
4.633513927459717,0.84,-0.33,-1.03,1.36
4.63411283493042,0.38,-0.08,-0.65,0.75
4.634699821472168,-0.22,0.15,-0.29,0.39
4.635611057281494,-0.5,0.12,0.25,0.57
4.636768817901611,-0.46,0.1,0.56,0.73
4.640350818634033,-0.32,0.0,0.47,0.56
4.650383949279785,-0.7,0.0,0.52,0.87
4.660431861877441,-0.9,0.06,0.76,1.17
4.670689105987549,-0.61,0.15,1.16,1.31
4.680347919464111,-0.04,0.14,1.02,1.03
4.733825922012329,-0.03,0.09,0.07,0.11
4.734426021575928,-0.44,0.11,-0.88,0.99
4.735349893569946,-0.6,-0.01,-1.06,1.21
4.735976934432983,-0.63,-0.09,-0.68,0.93
4.737531900405884,-0.74,-0.13,-0.04,0.75
4.7403199672698975,-0.78,-0.02,0.33,0.84
4.7501959800720215,-0.82,0.07,0.38,0.9
4.760267972946167,-0.68,0.05,0.25,0.72
4.770235061645508,-0.29,0.03,-0.07,0.29
4.780251979827881,0.16,0.13,-1.16,1.17
4.834084987640381,0.58,0.04,-1.39,1.5
4.834690093994141,0.55,-0.17,-0.76,0.95
4.835643768310547,0.35,-0.1,-0.83,0.9
4.83627986907959,0.26,-0.12,-0.32,0.42
4.837845802307129,0.31,-0.07,0.1,0.33
4.8400797843933105,0.45,0.11,0.09,0.47
4.850090026855469,0.47,0.21,0.26,0.57
4.860044002532959,0.37,0.27,0.18,0.49
4.870038032531738,0.33,0.26,0.14,0.44
4.880044937133789,0.46,0.26,0.18,0.55
4.934045791625977,0.63,0.31,0.07,0.7
4.934990882873535,0.77,0.39,0.11,0.87
4.9355998039245605,0.69,0.43,0.18,0.83
4.936182022094727,0.84,0.4,0.17,0.94
4.937676906585693,1.3,0.33,-0.16,1.35
4.939949989318848,1.89,0.35,-0.32,1.94
4.949932098388672,2.5,0.5,-0.29,2.56
4.959981918334961,2.92,0.7,-0.13,3.0
4.9698920249938965,3.04,0.91,-0.49,3.21
4.9799439907073975,2.83,1.02,-0.36,3.02
5.034432888031006,2.61,1.16,-0.22,2.86
5.0353498458862305,2.57,1.25,0.06,2.85
5.035940885543823,2.68,1.33,0.65,3.06
5.036520957946777,2.77,1.51,0.88,3.27
5.037998914718628,2.61,1.88,0.84,3.32
5.039866924285889,3.03,2.33,0.17,3.82
5.049821853637695,3.88,3.3,-0.54,5.12
5.05983304977417,4.14,3.95,-0.45,5.73
5.069758892059326,4.3,3.59,-0.77,5.65
5.079685926437378,4.55,3.72,-0.39,5.89
5.1347129344940186,4.57,3.76,-0.4,5.93
5.135499000549316,4.98,4.03,-0.15,6.4
5.136080980300903,5.75,4.72,-0.17,7.44
5.136676788330078,6.44,5.35,-0.47,8.38
5.138217926025391,6.45,5.53,-0.34,8.5
5.1396119594573975,5.7,5.56,-0.71,7.99
5.149669885635376,4.6,5.74,-1.0,7.42
5.159718036651611,3.87,6.01,-1.5,7.3
5.169652938842773,3.25,6.86,-3.4,8.31
5.179627895355225,2.97,8.02,-4.58,9.7
5.234802961349487,3.49,7.23,-3.65,8.81
5.235593795776367,1.45,7.21,-0.04,7.35
5.23617696762085,-2.3,6.99,-0.18,7.36
5.236763954162598,-0.76,5.68,-4.84,7.5
5.238296031951904,3.26,4.86,-4.25,7.23
5.239487886428833,6.79,2.41,-2.41,7.59
5.249511957168579,10.11,-0.91,-1.24,10.22
5.25956392288208,7.61,-2.62,1.39,8.16
5.269377946853638,-1.06,-3.48,1.2,3.83
5.279520034790039,-0.33,-1.95,-2.89,3.5
5.334920883178711,4.48,-0.39,-1.88,4.87
5.335707902908325,7.6,-0.36,0.53,7.62
5.336288928985596,9.28,-0.71,1.8,9.47
5.336866855621338,9.04,-2.03,2.62,9.62
5.338396072387695,7.59,-3.57,2.97,8.89
5.339566946029663,6.39,-4.27,2.9,8.21
5.3493428230285645,5.79,-3.59,2.5,7.25
5.359365940093994,5.2,-2.14,2.04,5.98
5.369322776794434,5.04,-1.35,1.55,5.44
5.379368782043457,5.08,-1.58,1.41,5.5
5.4348578453063965,4.85,-1.94,1.87,5.54
5.435643911361694,4.44,-1.88,2.37,5.37
5.436224937438965,3.92,-1.64,2.7,5.03
5.436813831329346,3.34,-1.3,2.88,4.59
5.438358783721924,2.92,-0.84,2.75,4.09
5.43956995010376,2.65,-0.12,2.0,3.32
5.449094772338867,1.49,1.03,0.74,1.95
5.459303855895996,-0.25,2.12,-0.6,2.21
5.4692299365997314,-1.35,2.51,-1.41,3.17
5.479197978973389,-1.64,2.94,-1.35,3.62
5.535250902175903,-1.89,3.82,-0.78,4.33
5.535845756530762,-2.7,4.63,-0.82,5.42
5.536427974700928,-3.84,4.69,-1.89,6.34
5.53700590133667,-5.53,4.54,-3.01,7.76
5.538536071777344,-7.0,4.65,-4.09,9.34
5.5397047996521,-8.32,5.07,-4.71,10.82
5.549144983291626,-9.84,5.43,-4.82,12.22
5.559154033660889,-10.91,4.79,-4.38,12.69
5.569119930267334,-10.79,3.25,-3.9,11.92
5.579082012176514,-9.89,1.21,-3.57,10.58
5.6350319385528564,-8.87,0.1,-3.42,9.5
5.635623931884766,-8.71,-0.18,-3.17,9.27
5.636210918426514,-9.11,-0.9,-2.63,9.52
5.636802911758423,-9.72,-1.18,-2.17,10.02
5.638340950012207,-9.2,1.72,-2.31,9.64
5.639497756958008,-8.42,2.64,-2.81,9.26
5.649030923843384,-9.19,0.57,-3.23,9.75
5.659038066864014,-9.54,-0.47,-2.35,9.83
5.668953895568848,-8.14,0.41,-2.29,8.46
5.678828954696655,0.01,3.48,-0.15,3.48
5.7384138107299805,7.21,3.59,5.41,9.7
5.739048957824707,4.78,0.44,3.69,6.05
5.739684104919434,-1.47,0.01,-0.12,1.47
5.740327835083008,-4.71,0.54,-0.64,4.78
5.741564989089966,-4.25,1.07,-0.67,4.43
5.742714881896973,-2.68,2.93,-0.87,4.06
5.748958110809326,-2.3,4.79,-0.86,5.38
5.758806943893433,-3.07,4.48,-1.15,5.55
5.7686967849731445,-3.81,1.71,-0.49,4.2
5.77871298789978,-4.66,1.56,0.29,4.92
5.8351030349731445,-6.34,-0.22,-1.88,6.61
5.835694789886475,-5.46,-0.55,-2.4,5.98
5.836277961730957,-3.31,0.28,-0.61,3.37
5.836853981018066,-2.22,-0.46,0.19,2.27
5.83837890625,-2.09,-0.87,-0.25,2.27
5.839557886123657,-1.77,-0.35,-0.78,1.96
5.8487389087677,-1.4,-0.1,-0.68,1.55
5.858763933181763,-1.39,-0.03,-0.72,1.56
5.8686628341674805,-1.31,0.2,-0.91,1.6
5.878714084625244,-1.0,0.35,-0.65,1.24
5.935122013092041,-0.61,0.34,-0.37,0.79
5.935718059539795,-0.33,0.2,-0.15,0.41
5.936304092407227,-0.23,-0.02,0.01,0.23
5.936882019042969,-0.3,-0.06,-0.02,0.3
5.938392877578735,-0.42,0.05,-0.17,0.45
5.939550876617432,-0.38,0.02,-0.4,0.55
5.948564052581787,-0.11,-0.07,-0.47,0.48
5.958470821380615,0.27,-0.07,-0.31,0.41
5.968441963195801,0.58,0.02,-0.13,0.59
5.978580951690674,0.73,0.1,-0.2,0.76
6.035916805267334,0.63,0.15,-0.31,0.71
6.036508083343506,0.59,0.13,-0.42,0.73
6.0370869636535645,0.39,0.08,-0.92,1.0
6.037664890289307,-0.04,0.02,-1.24,1.24
6.03916597366333,-0.32,-0.06,-0.89,0.94
6.040338039398193,-0.44,-0.13,-0.68,0.82
6.048480987548828,-0.44,-0.1,-0.58,0.73
6.058445930480957,-0.46,0.01,-0.29,0.54
6.068372964859009,-0.53,0.08,-0.06,0.53
6.078415870666504,-0.58,-0.03,0.1,0.58
6.1361799240112305,-0.6,-0.15,-0.03,0.61
6.136785984039307,-0.39,-0.02,-0.27,0.47
6.137377977371216,-0.15,0.06,-0.58,0.6
6.137979030609131,-0.21,-0.02,-0.73,0.75
6.1395697593688965,-0.35,-0.1,-0.56,0.66
6.14077091217041,-0.6,-0.03,-0.39,0.71
6.148324012756348,-0.67,0.02,-0.12,0.68
6.158312797546387,-0.54,0.0,0.02,0.54
6.168287992477417,-0.33,0.03,-0.01,0.33
6.178307056427002,-0.03,0.08,-0.01,0.08
6.234982967376709,0.24,0.07,0.11,0.27
6.23671293258667,0.55,0.13,0.06,0.56
6.237302780151367,0.87,0.17,0.05,0.88
6.23787784576416,1.19,0.17,0.24,1.22
6.23935079574585,1.72,0.11,0.49,1.79
6.240525960922241,2.48,0.16,0.45,2.52
6.248224973678589,3.1,0.25,0.0,3.11
6.25812292098999,3.14,0.28,-0.09,3.15
6.267999887466431,2.78,0.21,0.23,2.79
6.278048992156982,2.18,0.34,0.3,2.22
6.287930011749268,1.76,0.53,0.52,1.91
6.335875034332275,2.07,0.6,0.96,2.35
6.3364667892456055,2.52,0.79,0.18,2.64
6.337049961090088,2.64,0.91,-1.09,2.99
6.338227987289429,3.09,0.77,-1.22,3.41
6.339762926101685,2.5,0.61,-1.3,2.88
6.348121881484985,1.67,0.56,-1.22,2.14
6.358057022094727,1.31,0.94,-1.3,2.07
6.367984771728516,1.05,2.3,-1.72,3.05
6.377988815307617,1.51,4.02,-0.94,4.39
6.387994766235352,2.37,3.58,0.4,4.31
6.436532020568848,3.05,3.23,0.45,4.46
6.437122821807861,3.12,3.56,0.75,4.79
6.437723875045776,3.44,3.91,0.69,5.25
6.439218997955322,3.61,4.09,0.77,5.5
6.440364837646484,3.57,4.29,0.64,5.61
6.447861909866333,3.73,4.43,0.11,5.79
6.4578258991241455,3.82,4.36,-0.35,5.8
6.467802047729492,3.72,4.54,-0.79,5.92
6.477890968322754,3.46,4.94,-1.14,6.13
6.48781681060791,3.42,5.63,-1.39,6.73
6.535711765289307,3.76,7.19,-2.07,8.37
6.536308765411377,4.23,8.7,-2.79,10.06
6.536893844604492,3.73,7.97,-3.36,9.41
6.538053035736084,3.41,6.15,-2.44,7.44
6.539536952972412,2.04,5.58,-1.3,6.08
6.547792911529541,0.24,6.9,-2.79,7.44
6.55780291557312,0.82,4.73,-3.95,6.21
6.5676679611206055,2.65,3.3,-2.17,4.75
6.577723026275635,5.25,2.61,-1.18,5.98
6.58768892288208,8.82,-0.77,-1.36,8.95
6.635907888412476,7.51,-3.67,0.39,8.36
6.636507034301758,0.53,-4.42,1.08,4.58
6.637086868286133,1.04,-2.84,-2.56,3.96
6.638236045837402,6.86,-0.31,-2.8,7.41
6.639721870422363,10.18,-0.85,-0.71,10.24
6.647568941116333,11.37,-1.55,1.21,11.53
6.657649040222168,10.04,-2.42,2.28,10.57
6.66755485534668,7.7,-2.92,2.43,8.58
6.677604913711548,6.0,-3.01,2.22,7.07
6.687537908554077,5.14,-2.91,1.82,6.18
6.736246109008789,4.54,-2.55,1.06,5.31
6.736848831176758,4.01,-2.26,0.46,4.62
6.737443923950195,3.55,-1.98,0.14,4.06
6.738615989685059,3.22,-1.8,0.12,3.69
6.740139007568359,2.9,-1.64,0.53,3.37
6.747477054595947,2.56,-1.59,0.96,3.16
6.757461071014404,1.82,-1.54,1.48,2.8
6.767437934875488,1.44,-1.29,2.0,2.78
6.7774059772491455,2.03,-0.75,2.15,3.05
6.787435054779053,1.84,0.42,1.31,2.29
6.835506916046143,0.25,2.02,-0.24,2.04
6.836095809936523,-1.72,3.08,-1.41,3.79
6.8366780281066895,-2.98,3.77,-1.74,5.11
6.837814807891846,-3.21,4.35,-1.12,5.52
6.839287757873535,-3.01,4.81,-0.04,5.67
6.847317934036255,-3.1,5.24,0.25,6.09
6.857373952865601,-3.75,5.19,-0.5,6.42
6.867331027984619,-4.93,5.04,-1.41,7.18
6.8773579597473145,-6.44,5.26,-2.42,8.66
6.887229919433594,-8.02,5.65,-3.65,10.46
6.936211109161377,-9.0,5.35,-4.36,11.34
6.936829090118408,-9.02,4.32,-4.05,10.79
6.937414884567261,-8.1,2.83,-3.18,9.15
6.938576936721802,-8.23,1.8,-2.08,8.67
6.940078973770142,-9.53,-0.78,-1.17,9.63
6.947178840637207,-9.76,-1.61,-0.47,9.9
6.9571919441223145,-9.06,-1.72,0.04,9.22
6.96700382232666,-7.8,-0.38,0.03,7.8
6.977191925048828,-5.95,1.69,-0.38,6.19
6.987210988998413,-5.57,1.6,-1.25,5.92
7.036252021789551,-6.39,1.35,-1.95,6.81
7.036879062652588,-7.58,0.72,-1.85,7.83
7.0374650955200195,-9.09,-0.94,-1.92,9.33
7.0386269092559814,-4.92,0.39,-2.59,5.57
7.040143013000488,4.15,2.69,0.99,5.04
7.047049045562744,8.82,2.83,4.3,10.21
7.057123899459839,3.98,1.47,3.29,5.36
7.067074775695801,-2.64,0.71,1.5,3.11
7.077112913131714,-4.98,-0.13,0.64,5.02
7.087028980255127,-4.0,0.46,0.21,4.03
7.136117935180664,-3.79,3.39,-0.38,5.09
7.136730909347534,-4.49,5.31,-0.86,7.0
7.137315988540649,-5.61,3.6,-1.14,6.76
7.138453960418701,-7.11,0.58,-2.22,7.47
7.139915943145752,-6.04,2.34,-0.75,6.52
7.146868944168091,-4.49,1.2,1.33,4.83
7.156851768493652,-3.69,-2.03,1.24,4.39
7.166879892349243,-3.34,-1.87,-0.14,3.83
7.176882982254028,-2.29,-0.91,-0.88,2.61
7.186853885650635,-1.42,-0.03,-0.67,1.57
7.236526966094971,-0.99,0.43,-0.49,1.18
7.237124919891357,-0.97,0.33,-0.56,1.16
7.2377119064331055,-1.12,0.35,-0.6,1.31
7.238840103149414,-1.1,0.37,-0.61,1.31
7.240333080291748,-0.91,0.24,-0.57,1.1
7.24678897857666,-0.58,0.06,-0.61,0.84
7.256617069244385,-0.26,-0.09,-0.66,0.71
7.266716003417969,-0.11,-0.15,-0.65,0.67
7.276766777038574,-0.14,-0.09,-1.01,1.02
7.286726951599121,-0.07,0.11,-1.83,1.83
7.336441993713379,-0.07,0.28,-2.59,2.6
7.337004899978638,0.3,0.05,-2.52,2.53
7.337589979171753,0.71,-0.2,-1.59,1.75
7.338749885559082,0.94,-0.06,-1.07,1.42
7.3402419090271,0.75,-0.17,-0.64,1.0
7.346615791320801,0.1,-0.21,-0.22,0.32
7.356382846832275,-0.51,0.14,-0.09,0.53
7.366631031036377,-1.0,0.23,0.35,1.08
7.376636028289795,-1.14,0.06,0.6,1.28
7.386441946029663,-0.89,-0.22,0.5,1.04
7.436794757843018,-0.48,-0.36,0.28,0.66
7.437388896942139,0.04,-0.19,0.08,0.21
7.43797492980957,0.34,-0.1,0.03,0.35
7.439116954803467,0.3,-0.06,0.07,0.31
7.4406328201293945,0.03,0.09,0.05,0.1
7.446608066558838,-0.15,0.2,0.08,0.26
7.456372976303101,-0.48,0.22,0.15,0.54
7.4664788246154785,-0.82,0.22,0.22,0.87
7.476402759552002,-0.76,0.02,0.63,0.98
7.486385822296143,-0.19,-0.07,1.05,1.06
7.5362389087677,0.25,-0.11,1.0,1.03
7.536815881729126,0.24,-0.12,1.0,1.03
7.537353992462158,0.53,0.19,0.91,1.07
7.538527011871338,0.69,0.3,0.27,0.79
7.540043830871582,0.2,0.21,-0.59,0.65
7.546360015869141,-0.21,0.24,-0.81,0.87
7.55646276473999,-0.12,0.15,-0.63,0.65
7.566319942474365,0.24,-0.05,-0.65,0.69
7.576405048370361,0.6,-0.02,-0.58,0.83
7.586277961730957,0.95,0.13,-0.12,0.96
7.636961936950684,1.09,0.15,-0.13,1.1
7.63756799697876,0.95,0.18,-0.46,1.07
7.638155937194824,0.86,0.24,-0.41,0.98
7.639340877532959,1.12,0.35,-0.38,1.23
7.640897989273071,1.59,0.43,-0.77,1.81
7.646221876144409,2.24,0.37,-0.9,2.44
7.656555891036987,2.64,0.38,-0.66,2.74
7.666179895401001,2.88,0.53,-0.22,2.93
7.676180839538574,3.63,0.62,-0.03,3.68
7.686139106750488,4.17,0.83,-0.47,4.27
7.737034797668457,4.22,0.87,-0.51,4.33
7.737624883651733,4.34,1.07,-0.66,4.51
7.7382049560546875,4.24,1.14,-0.49,4.41
7.739394903182983,4.02,1.63,-0.07,4.33
7.741247892379761,3.14,2.72,0.16,4.15
7.746095895767212,2.29,4.06,-0.11,4.66
7.75617790222168,3.49,5.95,-0.57,6.92
7.766074895858765,3.7,5.4,0.78,6.59
7.776120901107788,4.22,5.26,0.24,6.74
7.786038875579834,4.48,5.48,0.45,7.09
7.837460994720459,4.45,5.59,-0.04,7.14
7.838050842285156,5.09,5.75,-0.27,7.68
7.838638782501221,5.6,5.83,-0.78,8.12
7.840024948120117,5.28,5.48,-1.32,7.72
7.84151291847229,4.6,5.5,-1.6,7.34
7.845976829528809,4.16,6.41,-1.87,7.86
7.855907917022705,4.05,7.75,-2.96,9.23
7.865800857543945,4.57,8.69,-3.77,10.51
7.8759729862213135,5.37,7.61,-3.69,10.01
7.88588285446167,4.46,6.71,-2.61,8.46
7.937927961349487,0.44,8.11,-1.78,8.31
7.93851900100708,0.01,6.44,-4.16,7.66
7.939098834991455,3.14,4.94,-3.3,6.71
7.940820932388306,5.95,4.09,-0.88,7.27
7.941981792449951,9.38,1.0,-0.51,9.44
7.945812940597534,7.87,-2.85,0.76,8.4
7.95573091506958,-0.98,-4.98,1.81,5.38
7.965632915496826,-3.3,-4.79,-2.74,6.42
7.975769996643066,2.48,-0.34,-3.92,4.65
7.985749959945679,8.31,-0.25,-2.17,8.59
8.038241863250732,11.36,-1.05,0.08,11.4
8.03884506225586,11.39,-1.96,1.85,11.7
8.039427757263184,9.06,-2.71,2.6,9.8
8.041150093078613,6.58,-3.56,2.74,7.96
8.04228687286377,5.04,-4.37,2.68,7.18
8.045691967010498,4.81,-4.29,2.29,6.83
8.055829048156738,4.82,-3.78,1.85,6.39
8.065644979476929,4.43,-3.36,1.47,5.75
8.07563304901123,3.81,-3.42,1.28,5.27
8.085606098175049,3.38,-3.53,1.2,5.03
8.138548851013184,3.21,-3.33,1.31,4.8
8.139136791229248,3.3,-2.85,1.67,4.66
8.139717102050781,3.26,-2.18,2.4,4.59
8.141562938690186,3.13,-1.36,3.33,4.76
8.142723083496094,3.35,-0.29,3.79,5.06
8.145555019378662,3.01,1.34,3.01,4.46
8.155526876449585,1.31,3.43,0.85,3.76
8.16551399230957,-1.24,5.2,-1.41,5.52
8.175520896911621,-3.15,6.55,-2.77,7.77
8.185462951660156,-4.12,8.54,-2.77,9.87
8.2389497756958,-5.36,9.99,-2.42,11.59
8.23955488204956,-6.84,9.6,-3.29,12.23
8.240824937820435,-8.33,7.59,-4.22,12.03
8.242006778717041,-9.21,5.26,-4.35,11.46
8.243189811706543,-9.89,4.5,-5.63,12.23
8.245439052581787,-10.63,4.65,-7.45,13.78
8.255355834960938,-11.16,2.68,-6.61,13.24
8.265160083770752,-12.13,-0.21,-3.82,12.71
8.275331020355225,-13.61,-2.36,-2.74,14.08
8.285307884216309,-13.92,-3.58,-3.47,14.78
8.33742094039917,-12.46,-2.92,-4.21,13.47
8.338013887405396,-10.3,-2.07,-4.15,11.29
8.338597774505615,-8.67,-1.57,-3.91,9.63
8.339802980422974,-7.93,1.64,-3.79,8.94
8.341631889343262,-4.47,8.74,-3.63,10.46
8.345314979553223,-1.9,4.16,-2.74,5.33
8.35512089729309,1.94,0.38,-1.11,2.26
8.365186929702759,10.91,-0.12,6.48,12.68
8.375295877456665,12.88,-0.92,10.5,16.64
8.385217905044556,5.48,-0.68,3.75,6.67
8.437886953353882,-4.94,0.11,-1.65,5.2
8.438493967056274,-10.19,-0.06,-2.92,10.6
8.439074039459229,-9.2,2.13,-3.2,9.97
8.44092082977295,-6.85,6.84,-2.94,10.11
8.442101001739502,-6.52,7.05,-2.34,9.88
8.445082902908325,-5.88,2.51,-2.91,7.02
8.45507287979126,-5.63,-0.26,-2.97,6.37
8.464944839477539,-5.33,0.28,-0.77,5.39
8.475109100341797,-5.66,-1.34,0.75,5.86
8.484998941421509,-4.92,-1.91,0.4,5.29
8.537933826446533,-2.97,-0.84,0.02,3.08
8.538542985916138,-2.11,0.18,-0.57,2.19
8.539134979248047,-2.38,0.28,-0.49,2.44
8.541014909744263,-2.23,0.19,0.14,2.24
8.542160034179688,-1.28,0.26,0.25,1.32
8.545000076293945,-0.28,0.13,0.14,0.33
8.55490493774414,0.2,0.19,-0.01,0.27
8.564955949783325,0.27,0.26,-0.12,0.39
8.574946880340576,-0.1,0.06,-0.18,0.21
8.584858894348145,-0.62,-0.07,-0.53,0.81
8.637963771820068,-0.93,-0.12,-1.23,1.54
8.638566970825195,-1.11,-0.04,-1.76,2.08
8.639153957366943,-1.22,0.07,-1.84,2.2
8.64103889465332,-0.94,-0.02,-1.38,1.66
8.642208099365234,-0.31,-0.1,-0.66,0.73
8.644837856292725,0.22,0.12,-0.14,0.28
8.654787063598633,0.4,0.25,0.24,0.52
8.664815902709961,0.48,0.29,0.08,0.56
8.674701929092407,0.54,0.31,-0.19,0.65
8.68488597869873,0.36,0.1,-0.13,0.39
8.738195896148682,-0.24,-0.03,-0.39,0.45
8.738799095153809,-0.63,0.0,-0.52,0.81
8.739727973937988,-0.61,0.02,-0.48,0.77
8.741250991821289,-0.29,0.06,-0.54,0.61
8.742405891418457,0.11,0.08,-0.54,0.55
8.744735956192017,0.36,0.09,-0.37,0.52
8.754725933074951,0.37,-0.02,-0.34,0.5
8.764551877975464,0.01,-0.17,-0.29,0.33
8.77442193031311,-0.15,-0.14,-0.3,0.36
8.784530878067017,-0.16,-0.2,-0.4,0.47
8.838438987731934,-0.22,-0.25,-0.52,0.61
8.839056968688965,-0.33,-0.32,-0.32,0.56
8.839935779571533,-0.53,-0.19,-0.26,0.62
8.841413021087646,-0.66,0.02,-0.37,0.75
8.842561960220337,-0.47,0.08,-0.23,0.52
8.84455394744873,-0.13,0.07,-0.02,0.14
8.854494094848633,0.17,0.07,-0.1,0.2
8.864573955535889,0.57,0.06,-0.16,0.59
8.874372959136963,1.04,0.06,-0.12,1.04
8.884462833404541,1.24,0.17,-0.12,1.25
8.937954902648926,0.92,0.59,-0.35,1.14
8.938552856445312,0.6,0.87,0.28,1.09
8.93946886062622,0.84,0.89,0.45,1.3
8.940623760223389,1.43,0.7,0.2,1.6
8.942109107971191,2.3,0.36,0.37,2.35
8.944416999816895,3.04,0.35,0.27,3.07
8.954372882843018,3.4,0.75,-0.05,3.48
8.964369773864746,3.5,1.07,0.13,3.66
8.974431991577148,3.81,1.25,0.11,4.01
8.984315872192383,4.02,1.33,0.15,4.23
9.037747859954834,4.1,1.42,0.35,4.35
9.038346767425537,4.05,1.64,0.58,4.4
9.039248943328857,3.83,2.02,0.64,4.37
9.040438890457153,3.67,2.57,0.17,4.48
9.04196310043335,3.87,3.54,-0.64,5.28
9.044235944747925,4.26,4.61,-0.55,6.3
9.054218769073486,4.42,4.45,-0.39,6.28
9.064207077026367,4.99,4.3,-0.43,6.6
9.074553966522217,5.13,4.53,-0.63,6.87
9.084264755249023,5.46,4.98,-0.88,7.44
9.138329029083252,5.82,5.51,-0.92,8.06
9.139269828796387,5.85,5.38,-0.7,7.97
9.139854907989502,5.53,4.97,-0.76,7.47
9.141359806060791,4.67,4.65,-0.87,6.64
9.142515897750854,3.38,4.59,-1.11,5.8
9.144093036651611,2.56,5.32,-1.49,6.08
9.154162883758545,2.63,6.72,-2.43,7.61
9.164117813110352,3.46,7.96,-4.2,9.64
9.173919916152954,3.45,7.9,-4.71,9.82
9.184058904647827,0.42,8.53,-1.97,8.76
9.23813009262085,-2.17,8.44,-2.65,9.1
9.239051818847656,-1.27,5.22,-4.46,6.98
9.239662885665894,2.38,3.77,-3.27,5.52
9.240889072418213,6.78,2.21,-2.49,7.55
9.242482900619507,10.72,0.05,-1.43,10.81
9.244088888168335,5.76,-2.04,1.22,6.23
9.254012107849121,-2.12,-3.54,-0.18,4.13
9.263888835906982,-2.54,-1.85,-4.11,5.17
9.274019956588745,3.48,-0.47,-4.09,5.39
9.283942937850952,8.76,-1.8,-1.7,9.1
9.33905291557312,11.07,-2.58,0.31,11.37
9.339838027954102,11.1,-2.78,1.6,11.55
9.340418815612793,9.33,-2.83,2.49,10.06
9.341906070709229,7.21,-3.27,2.83,8.4
9.343052864074707,5.7,-4.13,2.52,7.47
9.343821048736572,5.48,-4.4,2.21,7.36
9.35375690460205,5.82,-3.96,1.67,7.23
9.363878965377808,6.02,-3.56,1.15,7.08
9.373841762542725,5.67,-3.29,0.94,6.62
9.38379693031311,5.03,-3.15,0.78,5.98
9.438756942749023,4.36,-3.01,0.8,5.35
9.43953800201416,3.79,-2.83,0.98,4.83
9.440115928649902,3.35,-2.43,1.45,4.38
9.44164490699768,3.07,-1.66,2.15,4.09
9.442802906036377,3.02,-0.62,2.88,4.21
9.443646907806396,3.19,0.65,2.97,4.4
9.453660011291504,2.63,1.93,1.75,3.7
9.463700771331787,0.19,3.78,-0.74,3.85
9.473662853240967,-3.11,5.34,-3.08,6.9
9.48366093635559,-5.18,5.79,-3.83,8.66
9.539068937301636,-5.69,7.19,-3.39,9.77
9.53985595703125,-6.23,8.3,-2.91,10.77
9.540435791015625,-6.74,8.02,-3.11,10.92
9.541974067687988,-6.78,6.78,-3.37,10.16
9.543133974075317,-6.61,5.41,-3.97,9.41
9.54371976852417,-7.7,5.15,-5.73,10.89
9.553459882736206,-9.37,5.21,-6.64,12.61
9.563600063323975,-10.61,3.61,-4.88,12.22
9.57352590560913,-11.23,1.0,-2.5,11.54
9.583555936813354,-11.53,-1.24,-1.68,11.71
9.639013767242432,-11.11,-1.75,-2.15,11.45
9.639818906784058,-9.71,-1.68,-2.5,10.16
9.640408039093018,-8.59,-1.51,-2.0,8.94
9.641893863677979,-8.52,-1.09,-1.5,8.71
9.64303994178772,-8.7,0.32,-1.63,8.85
9.643645763397217,-6.6,7.09,-1.73,9.83
9.653319835662842,-7.47,3.85,-2.39,8.73
9.66341781616211,-5.71,0.01,-2.4,6.19
9.6733717918396,4.64,0.66,1.86,5.04
9.683314800262451,9.77,0.5,7.62,12.4
9.739312887191772,4.43,-0.67,4.94,6.66
9.739922046661377,-4.37,-0.5,-0.47,4.42
9.740513801574707,-9.19,-0.27,-3.41,9.8
9.742029905319214,-7.31,1.29,-3.99,8.42
9.743208885192871,-4.17,6.02,-2.79,7.83
9.743809938430786,-2.54,9.04,-1.57,9.52
9.753267765045166,-4.06,5.17,-0.84,6.62
9.763271808624268,-6.1,1.77,-1.88,6.62
9.773200988769531,-6.57,0.31,-3.36,7.38
9.783246040344238,-5.1,1.01,-1.01,5.29
9.838660955429077,-3.76,-0.58,0.83,3.89
9.839457035064697,-3.16,-1.27,0.65,3.46
9.84005093574524,-2.95,-0.64,-0.11,3.02
9.841228008270264,-2.52,-0.21,-0.04,2.52
9.842702865600586,-2.23,-0.12,0.16,2.23
9.84329605102539,-1.66,-0.22,-0.05,1.67
9.853153944015503,-0.85,-0.23,-0.28,0.92
9.86320686340332,0.02,-0.09,-0.42,0.43
9.873071908950806,0.72,0.0,-0.63,0.95
9.883165836334229,1.11,0.05,-0.71,1.31
9.938980102539062,1.21,0.02,-0.72,1.4
9.939562797546387,1.21,0.0,-0.77,1.43
9.94010877609253,1.1,-0.1,-0.85,1.39
9.941235065460205,0.91,-0.24,-1.08,1.43
9.942780017852783,0.82,-0.2,-1.37,1.6
9.943351984024048,0.82,-0.05,-1.45,1.66
9.952910900115967,0.69,-0.14,-1.08,1.28
9.96302080154419,0.27,-0.2,-0.56,0.65
9.972931861877441,-0.29,0.14,-0.06,0.32
9.982928991317749,-0.77,0.48,0.45,1.01
10.038879871368408,-1.38,0.34,0.55,1.52
10.03947401046753,-1.94,-0.08,0.3,1.96
10.040052890777588,-1.91,-0.1,0.12,1.91
10.041209936141968,-1.22,0.05,0.16,1.23
10.042738914489746,-0.37,-0.01,0.06,0.37
10.043323993682861,-0.01,0.05,-0.3,0.3
10.052827835083008,-0.02,0.11,-0.51,0.52
10.062970876693726,0.08,0.06,-0.5,0.5
10.072854995727539,0.07,-0.05,-0.54,0.54
10.082767009735107,-0.19,-0.12,-0.6,0.64
10.138698101043701,-0.55,-0.1,-0.72,0.91
10.139302968978882,-0.82,-0.07,-0.56,0.99
10.13988995552063,-0.74,0.0,-0.09,0.74
10.141021966934204,-0.36,-0.02,0.26,0.44
10.142486095428467,0.16,-0.09,0.44,0.47
10.143066883087158,0.5,-0.09,0.33,0.6
10.152760982513428,0.67,-0.01,0.14,0.68
10.162675857543945,0.78,0.02,0.01,0.78
10.172622919082642,0.75,0.0,-0.11,0.75
10.182724952697754,0.57,0.0,-0.39,0.69
10.238630771636963,0.45,0.07,-0.51,0.68
10.239232063293457,0.31,0.11,-0.38,0.5
10.23979902267456,0.15,0.11,-0.26,0.31
10.240952968597412,0.13,0.18,-0.2,0.29
10.242485046386719,0.17,0.26,-0.12,0.33
10.243083000183105,0.32,0.36,-0.16,0.5
10.252644062042236,0.8,0.3,-0.05,0.85
10.262521982192993,1.6,0.21,-0.31,1.64
10.272422790527344,2.42,0.05,-0.51,2.47
10.282567977905273,3.19,0.03,-0.38,3.21
10.339048862457275,3.85,0.11,-0.6,3.89
10.339653015136719,3.99,0.29,0.08,4.0
10.34023380279541,4.17,0.68,0.37,4.24
10.341407775878906,4.3,0.98,0.36,4.42
10.34290599822998,4.49,1.13,0.67,4.67
10.343492984771729,4.88,1.41,-0.18,5.08
10.352532863616943,4.56,1.49,-1.1,4.92
10.362422943115234,3.81,1.6,-1.48,4.38
10.372395038604736,2.75,2.2,-1.8,3.95
10.382440090179443,1.9,2.96,-1.29,3.74
10.43855094909668,1.21,4.35,0.45,4.53
10.439148902893066,2.68,6.74,-1.36,7.37
10.439733028411865,3.31,5.27,1.14,6.32
10.440910816192627,2.79,4.43,1.24,5.38
10.4424147605896,3.14,4.8,0.58,5.76
10.442997932434082,3.84,4.69,0.55,6.08
10.452313899993896,4.88,4.7,-0.25,6.77
10.462244033813477,5.55,4.93,-0.91,7.47
10.472280979156494,5.58,5.11,-1.39,7.69
10.482294082641602,5.65,5.33,-1.54,7.91
10.539074897766113,5.77,5.73,-1.82,8.33
10.5396728515625,6.27,6.32,-2.25,9.18
10.540256023406982,6.63,6.11,-3.19,9.56
10.541419982910156,6.32,6.04,-3.47,9.4
10.542941093444824,5.11,6.69,-2.26,8.71
10.543549060821533,1.22,8.55,-2.08,8.88
10.55217981338501,-2.03,8.59,-4.8,10.04
10.562211990356445,-0.37,7.52,-4.64,8.84
10.572104930877686,3.18,7.42,-2.21,8.36
10.582122802734375,6.97,5.3,-1.13,8.82
10.637465953826904,7.61,-1.26,-0.19,7.71
10.63918685913086,2.82,-3.59,1.05,4.68
10.63977599143982,-4.89,-4.58,-1.87,6.95
10.640960931777954,-3.49,-0.12,-4.76,5.9
10.6425039768219,5.42,1.2,-4.32,7.03
10.643091917037964,10.97,-0.77,-1.74,11.13
10.652042865753174,12.8,-2.19,0.32,12.98
10.662051916122437,11.44,-3.28,1.69,12.02
10.67196798324585,8.98,-4.13,2.74,10.25
10.681907892227173,7.14,-5.45,3.1,9.5
10.691942930221558,6.95,-6.35,3.2,9.94
10.738616943359375,7.21,-5.81,2.97,9.72
10.739206790924072,6.74,-4.44,2.16,8.35
10.740365982055664,6.02,-3.53,1.56,7.15
10.741540908813477,5.36,-3.03,1.44,6.32
10.742470979690552,4.72,-2.28,1.54,5.46
10.751970767974854,3.9,-1.36,2.0,4.58
10.761847972869873,2.75,-0.69,2.36,3.68
10.77182388305664,1.96,-0.51,2.11,2.92
10.781821966171265,2.27,-0.94,1.67,2.97
10.791820049285889,1.9,-0.2,1.53,2.44
10.838481903076172,0.16,1.05,1.26,1.64
10.83908987045288,-1.8,2.12,0.74,2.87
10.84027099609375,-2.98,3.18,-0.35,4.37
10.841453075408936,-3.5,4.79,-1.8,6.19
10.842037916183472,-4.05,7.18,-3.29,8.87
10.85172986984253,-5.28,9.51,-4.31,11.7
10.861927032470703,-8.36,10.55,-5.18,14.42
10.871708869934082,-12.7,9.8,-6.31,17.23
10.881694793701172,-15.87,7.75,-6.77,18.91
10.891671895980835,-16.5,4.75,-6.03,18.19
10.93851089477539,-15.24,2.06,-4.27,15.96
10.93911600112915,-13.24,-0.63,-2.43,13.47
10.940290927886963,-11.55,-3.23,-1.36,12.07
10.941465854644775,-10.09,-1.33,-1.26,10.25
10.942052841186523,-8.39,1.52,-2.12,8.78
10.951575756072998,-9.08,-0.16,-3.06,9.58
10.961623907089233,-9.43,0.11,-3.09,9.92
10.971559047698975,-8.7,0.74,-2.83,9.17
10.981576919555664,-4.8,2.85,-3.83,6.76
10.99153995513916,3.99,4.26,-0.34,5.84
11.038429975509644,8.72,2.33,4.31,10.0
11.039032936096191,4.31,0.33,1.72,4.65
11.040165901184082,-3.3,-0.05,0.08,3.3
11.04130506515503,-7.37,0.13,0.85,7.41
11.041891098022461,-7.75,1.67,0.35,7.93
11.051410913467407,-6.83,3.77,-0.68,7.83
11.06144905090332,-5.94,4.93,-0.84,7.76
11.071460962295532,-6.88,3.84,-3.17,8.49
11.08144998550415,-7.05,0.51,-5.25,8.8
11.091434955596924,-4.49,1.8,-2.77,5.57
11.138768911361694,-2.32,0.33,-0.23,2.35
11.139384984970093,-1.69,-1.22,0.31,2.1
11.140567779541016,-1.79,-1.19,-0.12,2.15
11.141738891601562,-1.26,-0.77,0.04,1.47
11.142326831817627,-0.81,-0.26,0.43,0.95
11.151448965072632,-0.6,-0.1,0.29,0.67
11.161431789398193,-0.52,-0.13,-0.08,0.54
11.171433925628662,-0.49,-0.08,-0.56,0.74
11.181353092193604,-0.19,0.03,-0.8,0.82
11.19131088256836,0.03,0.09,-0.72,0.72
11.238996982574463,0.07,-0.03,-0.86,0.86
11.239593029022217,0.09,-0.15,-0.94,0.95
11.240854978561401,0.26,-0.21,-0.68,0.75
11.242063045501709,0.49,-0.02,-0.51,0.7
11.243031978607178,0.47,0.3,-0.37,0.66
11.25113582611084,0.06,0.38,-0.22,0.44
11.261119842529297,-0.4,0.22,-0.05,0.45
11.271697044372559,-0.76,0.16,0.08,0.78
11.321419954299927,-0.8,0.11,0.1,0.81
11.322021007537842,-0.74,0.07,-0.21,0.77
11.322604894638062,-0.85,0.01,-0.43,0.95
11.323186874389648,-1.05,-0.07,0.09,1.05
11.324377059936523,-1.06,-0.23,0.47,1.18
11.331114768981934,-0.91,-0.14,0.47,1.03
11.341876029968262,-0.6,0.09,-0.01,0.6
11.352015972137451,-0.28,0.26,-0.36,0.52
11.361063957214355,0.03,0.18,-0.39,0.43
11.371042966842651,0.32,0.02,-0.7,0.76
11.42151689529419,0.55,0.03,-0.89,1.04
11.422128915786743,0.6,0.08,-0.79,0.99
11.422712802886963,0.24,0.09,-0.53,0.58
11.423299789428711,-0.27,0.13,-0.3,0.42
11.424458980560303,-0.42,0.15,0.06,0.44
11.430994987487793,-0.42,0.03,0.04,0.42
11.440806865692139,-0.44,-0.09,-0.23,0.5
11.450957775115967,-0.46,-0.07,-0.55,0.72
11.46099591255188,-0.39,-0.01,-0.65,0.75
11.471037864685059,-0.28,0.04,-0.48,0.55
11.521987915039062,0.06,0.05,-0.36,0.36
11.522594928741455,0.39,0.07,-0.29,0.49
11.523181915283203,0.53,0.14,-0.26,0.6
11.523760795593262,0.71,0.21,-0.29,0.79
11.524934768676758,0.88,0.27,-0.24,0.95
11.530849933624268,0.98,0.34,0.0,1.03
11.540693759918213,1.14,0.34,0.04,1.19
11.55076789855957,1.31,0.3,-0.06,1.34
11.560703992843628,1.45,0.31,-0.19,1.49
11.570750951766968,1.66,0.4,-0.47,1.77
11.621949911117554,2.01,0.41,-0.54,2.12
11.62255597114563,2.44,0.6,-0.39,2.54
11.623157024383545,2.72,0.85,-0.21,2.85
11.623745918273926,3.04,1.02,0.05,3.2
11.624898910522461,3.01,1.21,0.19,3.24
11.630672931671143,2.74,1.34,0.24,3.05
11.640614986419678,2.77,1.62,0.31,3.22
11.650609016418457,2.91,2.02,0.17,3.54
11.660544872283936,2.82,2.35,-0.33,3.68
11.67055892944336,3.32,3.04,-1.08,4.62
11.722042083740234,3.73,3.83,-0.57,5.37
11.722651958465576,3.87,3.65,-1.01,5.41
11.723238945007324,4.21,3.93,-0.59,5.78
11.72382402420044,3.64,3.96,-0.2,5.38
11.724987030029297,3.69,3.91,-0.24,5.38
11.730525970458984,4.3,4.1,0.25,5.94
11.740470886230469,4.91,4.34,-0.09,6.55
11.750511884689331,5.45,4.51,-0.01,7.07
11.760318756103516,5.23,4.5,-0.02,6.89
11.77042293548584,4.87,4.53,-0.34,6.65
11.821931838989258,4.44,4.54,-0.61,6.37
11.822535991668701,4.2,4.81,-0.98,6.46
11.823124885559082,4.62,5.62,-1.9,7.51
11.823713779449463,5.64,6.46,-3.27,9.17
11.824872970581055,5.95,6.59,-3.95,9.71
11.830430030822754,4.32,6.78,-3.33,8.7
11.840342998504639,0.13,7.69,-2.15,7.98
11.850413799285889,-2.77,7.55,-4.4,9.16
11.86024808883667,0.51,5.64,-4.97,7.53
11.870348930358887,5.39,5.05,-2.97,7.96
11.922115802764893,8.93,3.68,-1.92,9.84
11.922730922698975,10.97,0.31,-1.14,11.03
11.923322916030884,8.04,-2.13,0.0,8.31
11.923912048339844,0.24,-2.9,-0.28,2.92
11.925407886505127,-4.16,-1.32,-3.33,5.48
11.930291891098022,-0.89,0.84,-4.15,4.32
11.94017505645752,6.01,-0.71,-2.88,6.7
11.950305938720703,9.42,-1.89,-1.04,9.66
11.960295915603638,9.98,-2.32,0.23,10.24
11.970181941986084,8.38,-2.9,1.43,8.98
12.021904945373535,5.81,-3.72,2.2,7.24
12.0225191116333,3.72,-4.67,2.05,6.31
12.023108959197998,3.24,-4.85,1.59,6.04
12.023696899414062,4.18,-4.28,1.1,6.08
12.024866104125977,4.89,-3.8,0.81,6.24
12.030123949050903,4.82,-3.53,0.74,6.02
12.040056943893433,4.29,-3.42,0.73,5.53
12.050074100494385,3.96,-3.26,0.81,5.19
12.060404777526855,3.85,-3.16,1.25,5.13
12.070056915283203,3.61,-2.79,1.82,4.91
12.121920108795166,3.32,-2.03,2.34,4.54
12.122530937194824,3.05,-0.93,2.93,4.33
12.123111963272095,2.98,0.03,3.41,4.52
12.123686790466309,2.65,0.72,3.37,4.34
12.125160932540894,1.19,2.41,1.68,3.16
12.1299889087677,-0.98,4.3,-0.9,4.5
12.13993787765503,-3.18,6.27,-3.16,7.7
12.14993691444397,-5.23,8.4,-4.58,10.9
12.159908771514893,-7.25,9.12,-5.01,12.68
12.169926881790161,-8.75,8.05,-4.37,12.66
12.222320079803467,-9.46,6.34,-3.36,11.87
12.222924947738647,-9.94,4.78,-3.33,11.52
12.223512887954712,-11.24,4.17,-4.71,12.88
12.224098920822144,-12.66,3.67,-5.55,14.3
12.225627899169922,-13.32,3.24,-5.02,14.59
12.22989296913147,-12.86,1.79,-3.5,13.44
12.239742755889893,-11.91,-0.18,-1.84,12.05
12.249799966812134,-11.44,-1.56,-1.4,11.63
12.259803771972656,-11.06,-2.26,-1.55,11.39
12.269774913787842,-9.69,1.39,-1.56,9.91
12.323224067687988,-7.61,5.42,-2.11,9.57
12.323826789855957,-8.37,1.91,-2.4,8.91
12.32443380355835,-7.23,0.02,-0.31,7.23
12.325329780578613,2.1,2.96,1.68,3.99
12.32648491859436,13.7,3.52,8.96,16.74
12.329729080200195,12.84,0.82,9.21,15.82
12.339668989181519,2.57,0.12,2.38,3.5
12.349660873413086,-7.3,0.24,-0.46,7.31
12.359455108642578,-9.43,-0.09,-1.18,9.5
12.369693756103516,-8.02,2.09,-2.26,8.59
12.42267894744873,-5.69,6.16,-3.01,8.9
12.423285961151123,-4.44,5.72,-2.37,7.61
12.423853874206543,-3.95,1.76,-2.37,4.93
12.424758911132812,-4.97,0.42,-1.73,5.27
12.425900936126709,-5.68,0.87,0.22,5.75
12.429580926895142,-6.11,-0.83,0.7,6.2
12.439476013183594,-5.72,-1.23,-0.26,5.85
12.449554920196533,-4.49,-0.42,-0.78,4.57
12.459519863128662,-2.55,0.16,-0.4,2.58
12.469513893127441,-1.1,0.12,-0.17,1.11
12.523287773132324,-0.3,-0.06,0.05,0.31
12.523914813995361,0.15,0.11,0.36,0.4
12.52481985092163,0.46,0.15,0.53,0.71
12.525407791137695,0.21,0.0,0.46,0.5
12.526586055755615,-0.13,-0.05,-0.07,0.15
12.529356956481934,-0.44,0.0,-0.77,0.88
12.539386987686157,-0.49,0.09,-1.25,1.34
12.549485921859741,-0.43,0.08,-1.56,1.62
12.559417963027954,-0.55,0.09,-1.67,1.76
12.569278955459595,-0.77,0.09,-1.51,1.69
12.623143911361694,-0.92,-0.03,-1.15,1.47
12.623771905899048,-0.88,-0.08,-0.82,1.2
12.624684810638428,-0.69,-0.09,-0.49,0.85
12.625264883041382,-0.47,-0.1,-0.2,0.52
12.62644100189209,-0.27,0.01,-0.06,0.27
12.629292011260986,-0.02,-0.03,0.11,0.11
12.639276027679443,0.05,-0.05,0.16,0.17
12.649292945861816,0.04,0.12,-0.01,0.12
12.659180879592896,0.02,0.05,-0.19,0.19
12.669116020202637,-0.19,-0.02,-0.34,0.39
12.724222898483276,-0.31,0.02,-0.53,0.61
12.725028991699219,-0.19,0.05,-0.75,0.77
12.72562289237976,-0.03,-0.04,-0.67,0.67
12.726212978363037,0.15,0.06,-0.58,0.6
12.727776050567627,0.41,0.17,-0.15,0.46
12.729114055633545,0.49,0.06,0.27,0.56
12.739104986190796,0.21,-0.09,0.19,0.29
12.74918508529663,-0.14,-0.04,0.12,0.18
12.759082794189453,-0.26,0.05,0.02,0.26
12.769073963165283,0.01,0.01,-0.24,0.24
12.823651790618896,0.4,-0.04,-0.39,0.56
12.824563026428223,0.73,0.01,-0.45,0.85
12.825164794921875,0.75,0.12,-0.52,0.92
12.825754880905151,0.71,0.2,-0.41,0.84
12.82693099975586,0.87,0.15,-0.29,0.92
12.82892894744873,0.91,0.08,-0.13,0.92
12.839016914367676,0.68,0.1,0.09,0.69
12.849042892456055,0.6,0.18,0.33,0.7
12.858975887298584,0.76,0.19,0.46,0.9
12.86893081665039,1.01,0.19,0.35,1.08
12.924253940582275,1.29,0.35,-0.07,1.33
12.92505693435669,1.31,0.44,-0.42,1.44
12.92564582824707,1.38,0.46,-0.66,1.59
12.92623496055603,1.59,0.47,-0.4,1.7
12.927765846252441,1.94,0.41,-0.11,1.98
12.928924083709717,2.3,0.44,-0.2,2.35
12.938880920410156,2.31,0.49,0.07,2.36
12.948855876922607,2.41,0.82,0.06,2.54
12.958812952041626,2.56,1.15,-0.14,2.8
12.968817949295044,2.8,1.31,-0.31,3.1
13.024723052978516,3.16,1.56,-0.62,3.57
13.025328874588013,3.66,1.52,-0.58,4.0
13.025922775268555,4.06,1.65,-0.04,4.38
13.02651309967041,3.84,2.5,-0.08,4.58
13.028012990951538,3.57,3.32,-0.3,4.88
13.029173851013184,4.14,4.43,-1.36,6.21
13.038690090179443,3.88,4.31,0.27,5.8
13.048655986785889,3.75,3.7,-0.08,5.26
13.058623790740967,4.12,4.11,0.0,5.81
13.068653106689453,4.79,4.14,0.01,6.33
13.125442028045654,5.58,4.01,0.0,6.87
13.126039028167725,5.37,3.89,-0.38,6.64
13.126638889312744,5.15,4.08,-0.79,6.61
13.12721586227417,4.84,4.35,-0.84,6.56
13.12883996963501,4.62,4.75,-0.85,6.68
13.129982948303223,4.19,5.13,-0.93,6.68
13.138566970825195,4.45,5.9,-1.27,7.49
13.148603916168213,5.12,6.33,-2.23,8.44
13.158514976501465,5.25,6.05,-2.88,8.51
13.16838788986206,3.63,6.65,-1.95,7.82
13.225246906280518,-0.61,7.98,-0.43,8.01
13.225841999053955,-2.95,8.78,-2.14,9.5
13.22642183303833,-0.36,7.34,-4.02,8.37
13.22700309753418,2.72,5.09,-2.39,6.24
13.228534936904907,6.24,3.84,-1.82,7.54
13.229707956314087,9.78,1.59,-1.14,9.97
13.238359928131104,7.67,-2.51,-0.13,8.07
13.248419761657715,0.11,-2.8,-0.43,2.83
13.25836706161499,-4.43,-0.58,-3.74,5.82
13.268364906311035,-0.37,2.0,-4.78,5.19
13.326819896697998,6.49,0.02,-3.04,7.16
13.327423095703125,9.67,-1.57,-1.26,9.87
13.328351974487305,9.87,-2.2,0.11,10.11
13.328930854797363,8.64,-2.83,1.32,9.18
13.330112934112549,6.71,-3.65,2.05,7.9
13.331269979476929,5.15,-4.54,2.21,7.21
13.338315963745117,4.45,-4.97,2.08,6.98
13.348240852355957,4.45,-4.86,1.78,6.82
13.358242988586426,4.52,-4.23,1.2,6.3
13.368346929550171,4.46,-3.77,0.69,5.88
13.426639080047607,4.46,-3.78,0.51,5.86
13.427209854125977,4.58,-3.93,0.64,6.06
13.428225994110107,4.39,-3.71,0.99,5.83
13.428817987442017,3.91,-3.1,1.51,5.21
13.43006181716919,3.52,-2.47,2.14,4.8
13.431272983551025,3.13,-1.74,2.72,4.49
13.438153982162476,2.73,-0.94,2.98,4.14
13.448186874389648,2.56,-0.07,2.35,3.47
13.458066940307617,2.67,1.19,0.65,2.99
13.468105792999268,2.11,2.95,-1.19,3.81
13.526508808135986,0.3,5.14,-2.89,5.9
13.527111053466797,-2.19,7.11,-4.58,8.73
13.52770185470581,-5.2,7.88,-6.16,11.27
13.528664112091064,-8.05,8.07,-7.03,13.39
13.529830932617188,-10.38,7.9,-6.69,14.65
13.530974864959717,-11.91,7.2,-6.13,15.2
13.538012981414795,-12.98,5.82,-6.26,15.54
13.54801893234253,-14.34,3.87,-6.01,16.02
13.558034896850586,-14.53,1.79,-4.93,15.44
13.568065881729126,-13.02,-0.18,-3.56,13.49
13.62707805633545,-10.9,-1.62,-2.28,11.25
13.627680778503418,-9.7,-1.96,-1.43,9.99
13.628630876541138,-9.47,-1.45,-1.14,9.64
13.629214763641357,-8.75,-1.14,-0.96,8.87
13.630362033843994,-7.59,-0.8,-0.96,7.69
13.631467819213867,-6.65,-0.16,-1.06,6.73
13.637852907180786,-5.69,5.6,-1.72,8.16
13.647884845733643,-2.34,8.52,-1.51,8.96
13.657912969589233,-1.66,3.72,-0.47,4.1
13.667978763580322,4.73,1.13,1.44,5.07
13.67796802520752,11.86,-0.37,9.1,14.95
13.728046894073486,10.04,-0.93,7.85,12.77
13.728631973266602,2.01,0.41,0.75,2.18
13.7292160987854,-6.22,1.0,-1.63,6.5
13.73037576675415,-10.21,0.0,-1.65,10.34
13.731515884399414,-9.62,1.63,-2.5,10.07
13.737751007080078,-6.79,6.04,-1.26,9.17
13.747647762298584,-4.97,5.92,1.17,7.81
13.757712841033936,-4.43,1.42,0.98,4.75
13.767820835113525,-3.75,-0.78,0.47,3.85
13.7777578830719,-4.29,0.18,-0.4,4.31
13.827733993530273,-5.85,-1.15,-2.53,6.47
13.828702926635742,-5.62,0.17,-2.65,6.21
13.82928991317749,-4.07,0.93,-0.54,4.2
13.830472946166992,-2.58,0.08,0.57,2.64
13.831613063812256,-1.79,0.13,0.76,1.94
13.837690830230713,-1.42,0.25,0.98,1.74
13.847616910934448,-1.93,-0.1,0.96,2.15
13.857556819915771,-2.02,-0.06,0.36,2.05
13.867551803588867,-1.01,0.35,-0.43,1.15
13.877505779266357,0.0,0.47,-1.13,1.22
13.927895069122314,0.42,0.25,-1.5,1.57
13.928849935531616,0.27,-0.12,-1.56,1.58
13.929463863372803,0.04,-0.25,-2.0,2.01
13.930636882781982,0.03,-0.16,-2.22,2.22
13.931834936141968,0.1,-0.18,-1.6,1.61
13.937443971633911,0.07,-0.11,-0.86,0.86
13.947387933731079,0.19,-0.02,-0.32,0.37
13.957354068756104,0.28,-0.01,-0.15,0.31
13.967412948608398,0.1,-0.04,-0.31,0.32
13.977338790893555,-0.34,-0.07,-0.39,0.52
14.027738094329834,-0.75,-0.1,-0.25,0.79
14.028687000274658,-0.98,-0.02,-0.21,1.0
14.029270887374878,-1.02,0.04,-0.37,1.08
14.030423879623413,-0.95,0.02,-0.39,1.02
14.031564950942993,-0.8,-0.08,-0.47,0.93
14.037223815917969,-0.63,-0.01,-0.72,0.95
14.047207832336426,-0.37,0.08,-0.62,0.72
14.057141780853271,-0.14,0.02,-0.49,0.51
14.067344903945923,0.24,-0.01,-0.88,0.91
14.077242851257324,0.58,-0.1,-0.85,1.03
14.128492832183838,0.79,-0.22,-0.54,0.98
14.129453897476196,0.76,-0.18,-0.31,0.84
14.130058765411377,0.66,-0.06,-0.08,0.66
14.131253957748413,0.47,0.01,0.17,0.49
14.132773876190186,0.01,0.35,0.26,0.43
14.137117862701416,-0.15,0.38,0.85,0.94
14.14720106124878,-0.08,0.32,0.85,0.91
14.15698790550232,0.21,0.35,0.36,0.54
14.167174816131592,0.6,0.29,0.16,0.68
14.177159786224365,0.83,0.26,-0.03,0.87
14.228149890899658,0.86,0.27,-0.24,0.93
14.229045867919922,0.87,0.27,-0.49,1.03
14.229597091674805,1.0,0.13,-0.38,1.07
14.230768918991089,1.23,0.04,-0.51,1.33
14.23230791091919,1.45,-0.05,-0.35,1.49
14.237037897109985,1.68,-0.07,-0.17,1.69
14.247046947479248,1.81,0.05,-0.14,1.81
14.25694990158081,1.85,0.18,0.06,1.85
14.26688003540039,2.07,0.36,0.17,2.1
14.276927947998047,2.28,0.73,-0.12,2.39
14.328010082244873,2.34,0.82,-0.08,2.48
14.328986883163452,2.79,0.8,-0.26,2.91
14.329578876495361,3.29,0.89,-0.61,3.46
14.33077096939087,3.53,0.89,-0.48,3.67
14.332267761230469,3.76,1.1,-0.14,3.92
14.336901903152466,3.71,1.65,-0.13,4.06
14.346858978271484,3.57,3.15,-1.03,4.87
14.356867790222168,3.9,4.4,-0.86,5.94
14.366966962814331,3.61,4.41,-0.34,5.7
14.376845836639404,3.55,4.53,-0.26,5.76
14.427916049957275,3.98,4.43,-0.03,5.95
14.428828954696655,4.23,4.17,-0.03,5.93
14.429385900497437,4.38,4.37,0.07,6.18
14.430547952651978,4.89,4.65,-0.06,6.74
14.432040929794312,5.61,5.0,-0.08,7.51
14.436775922775269,6.18,5.32,-0.23,8.15
14.446728944778442,6.09,4.93,-0.69,7.86
14.45680284500122,5.38,4.84,-0.97,7.3
14.466758966445923,4.38,5.17,-1.08,6.86
14.476676940917969,3.63,6.13,-1.45,7.27
14.527976036071777,3.34,7.77,-2.17,8.73
14.528937816619873,3.79,8.11,-3.29,9.53
14.529530048370361,3.87,7.75,-3.97,9.52
14.530711889266968,1.35,9.5,-3.17,10.1
14.53223991394043,0.08,9.84,-4.7,10.9
14.53661584854126,2.09,7.28,-4.62,8.87
14.546576976776123,5.49,5.91,-2.23,8.36
14.556516885757446,9.5,3.45,-0.99,10.15
14.566568851470947,11.04,-0.62,-0.53,11.07
14.576550006866455,4.71,-1.36,1.02,5.0
14.627534866333008,-3.49,-3.63,-1.65,5.29
14.628129005432129,-5.53,-2.12,-4.03,7.16
14.629080772399902,0.84,-0.4,-3.5,3.62
14.630249977111816,6.57,-2.21,-2.28,7.29
14.631735801696777,8.91,-3.34,-0.84,9.55
14.636400938034058,9.62,-3.69,0.6,10.32
14.646317958831787,8.8,-3.94,2.06,9.85
14.656408786773682,7.03,-4.57,2.73,8.81
14.666409969329834,5.26,-5.59,2.69,8.13
14.676332950592041,4.58,-5.87,2.44,7.83
14.730752944946289,4.87,-5.13,1.9,7.32
14.73167085647583,5.01,-4.34,1.35,6.76
14.732255935668945,4.76,-3.9,0.97,6.22
14.733457088470459,4.45,-3.48,0.59,5.67
14.734606981277466,4.24,-3.0,0.61,5.22
14.736270904541016,4.01,-2.34,1.37,4.84
14.746083974838257,3.65,-1.55,2.31,4.58
14.756330966949463,3.11,-0.58,3.08,4.41
14.766356945037842,2.65,0.49,3.59,4.48
14.776326894760132,2.22,1.14,3.63,4.4
14.830834865570068,1.09,1.83,2.55,3.32
14.831746101379395,-0.83,2.9,0.48,3.05
14.832345962524414,-3.15,4.06,-1.12,5.25
14.833501815795898,-5.18,5.34,-2.04,7.71
14.834654808044434,-6.46,6.17,-2.58,9.29
14.836200952529907,-7.08,6.2,-2.83,9.82
14.84604787826538,-7.38,6.05,-2.63,9.89
14.856164932250977,-7.66,5.77,-2.53,9.91
14.8662269115448,-8.4,5.26,-3.1,10.38
14.876124858856201,-9.99,5.15,-3.29,11.71
14.931839942932129,-11.03,4.7,-2.77,12.3
14.932455062866211,-10.6,3.25,-2.36,11.33
14.933052062988281,-9.58,1.51,-2.05,9.91
14.934285879135132,-8.89,0.04,-1.51,9.01
14.93545389175415,-9.16,-0.8,-0.88,9.23
14.936065912246704,-9.57,-1.05,-0.9,9.66
14.946139812469482,-9.69,0.39,-1.8,9.86
14.95600700378418,-7.8,5.72,-3.42,10.25
14.966065883636475,-6.89,2.32,-3.54,8.08
14.975965023040771,-9.49,-0.7,-2.77,9.91
15.031712055206299,-9.87,-0.8,-2.51,10.21
15.03232479095459,-2.58,1.75,-1.78,3.58
15.032917976379395,7.44,2.84,3.34,8.63
15.03412675857544,9.14,1.21,5.43,10.69
15.03528881072998,2.9,-0.26,2.28,3.69
15.035912036895752,-4.0,-0.62,0.04,4.04
15.04605484008789,-6.6,-0.38,-1.1,6.7
15.055854797363281,-5.75,2.36,-1.88,6.49
15.065855979919434,-4.17,6.27,-1.18,7.62
15.075809955596924,-4.68,6.47,-0.9,8.03
15.132332801818848,-6.06,1.2,-3.46,7.08
15.132929801940918,-6.16,1.12,-2.91,6.9
15.1335129737854,-4.07,2.16,0.07,4.6
15.134731769561768,-3.14,-0.53,1.75,3.63
15.13587498664856,-3.94,-1.91,1.63,4.67
15.136461973190308,-4.41,-1.21,0.93,4.66
15.145777940750122,-3.84,-0.6,0.8,3.96
15.15576982498169,-2.71,-0.33,0.38,2.75
15.165718078613281,-1.53,0.1,-0.36,1.57
15.175664901733398,-0.65,0.24,-0.65,0.95
15.23231291770935,0.08,0.24,-0.82,0.85
15.232872009277344,0.81,0.3,-1.38,1.62
15.233460903167725,1.28,0.32,-1.71,2.15
15.234635829925537,1.21,0.32,-1.77,2.16
15.235757827758789,0.61,0.22,-1.53,1.66
15.236346960067749,-0.11,-0.08,-1.3,1.3
15.245609760284424,-0.59,-0.3,-1.18,1.35
15.255614757537842,-0.93,-0.12,-0.82,1.24
15.265569925308228,-0.97,-0.02,-0.35,1.03
15.275578022003174,-0.6,0.03,0.04,0.6
15.333385944366455,-0.12,0.02,0.25,0.27
15.333992958068848,0.11,-0.05,0.1,0.15
15.33466100692749,0.05,0.02,-0.16,0.16
15.335871934890747,-0.12,0.02,-0.38,0.39
15.337004899978638,-0.36,-0.03,-0.52,0.63
15.33759093284607,-0.76,-0.05,-0.56,0.94
15.345489978790283,-1.18,-0.11,-0.49,1.28
15.355309963226318,-1.31,-0.07,-0.36,1.36
15.365463972091675,-1.02,-0.1,-0.25,1.05
15.375446796417236,-0.66,-0.02,-0.11,0.66
15.432641983032227,-0.31,0.0,-0.18,0.35
15.433250904083252,0.08,0.06,-0.47,0.48
15.433838844299316,0.38,0.2,-0.52,0.67
15.435018062591553,0.48,0.13,-0.17,0.52
15.436191082000732,0.36,0.02,-0.14,0.38
15.436779975891113,0.19,-0.01,-0.04,0.19
15.44530200958252,0.14,-0.06,0.05,0.16
15.455317974090576,0.21,-0.01,0.04,0.21
15.465322017669678,0.24,0.12,0.03,0.26
15.475300788879395,0.3,0.22,0.17,0.4
15.532315969467163,0.52,0.24,0.16,0.59
15.532940864562988,0.65,0.21,-0.06,0.68
15.533527851104736,0.44,0.25,-0.12,0.52
15.534702777862549,0.29,0.25,-0.12,0.4
15.535818099975586,0.31,0.14,-0.17,0.38
15.536405086517334,0.53,0.12,-0.28,0.61
15.545186042785645,0.9,0.21,-0.26,0.96
15.555068969726562,1.18,0.33,-0.26,1.25
15.565220832824707,1.45,0.38,-0.28,1.52
15.575082778930664,1.79,0.42,0.02,1.83
15.633250951766968,2.31,0.55,-0.09,2.37
15.633853912353516,2.92,0.54,-0.07,2.97
15.634475946426392,3.7,0.49,-0.06,3.73
15.635665893554688,4.19,0.44,-0.19,4.21
15.636812925338745,4.39,0.78,-0.21,4.46
15.637407779693604,4.53,1.27,-0.37,4.71
15.64503288269043,4.34,1.7,-0.34,4.67
15.654886960983276,3.81,2.17,0.0,4.38
15.665096759796143,3.61,2.5,0.13,4.39
15.675075054168701,3.41,3.16,-0.37,4.66
15.732791900634766,3.71,4.45,-1.0,5.87
15.733391761779785,4.01,4.58,-0.29,6.09
15.733986854553223,4.11,4.17,-0.7,5.89
15.735277891159058,4.27,4.22,0.04,6.0
15.736423015594482,4.36,3.89,0.27,5.84
15.737002849578857,4.51,3.75,0.44,5.88
15.74487590789795,4.99,4.15,0.23,6.49
15.754915952682495,5.97,5.03,-0.51,7.82
15.764936923980713,6.37,5.24,-1.19,8.33
15.774962902069092,6.12,4.88,-1.35,7.94
15.832555770874023,5.51,4.94,-1.39,7.52
15.833199977874756,4.75,5.67,-1.82,7.61
15.83378291130066,4.96,7.11,-2.7,9.07
15.83498477935791,5.35,7.45,-3.75,9.9
15.836126804351807,5.01,6.65,-3.83,9.16
15.836713790893555,1.83,7.36,-2.08,7.86
15.844689846038818,-2.72,8.05,-2.82,8.95
15.854859828948975,-2.5,6.7,-4.91,8.67
15.864861965179443,1.64,5.65,-3.26,6.72
15.87481689453125,5.66,4.63,-1.23,7.41
15.932185888290405,8.69,1.19,0.21,8.77
15.932791948318481,7.9,-3.21,1.04,8.59
15.93339991569519,1.75,-4.6,1.54,5.15
15.934593915939331,-4.96,-5.05,-1.82,7.3
15.935744762420654,-3.52,0.22,-4.19,5.47
15.936333894729614,4.06,0.24,-3.64,5.45
15.944571018218994,9.08,-1.69,-1.26,9.32
15.95461893081665,10.19,-2.12,0.48,10.41
15.964619874954224,8.98,-2.19,1.87,9.43
15.974459886550903,6.73,-2.61,2.6,7.67
16.032901763916016,5.11,-3.81,2.4,6.81
16.033500909805298,4.61,-4.55,2.14,6.82
16.034106969833374,5.03,-4.3,2.07,6.93
16.035255908966064,5.24,-3.51,1.81,6.56
16.036382913589478,4.98,-2.86,1.42,5.91
16.036966800689697,4.53,-2.36,1.0,5.2
16.04450798034668,3.99,-2.12,0.88,4.6
16.054487943649292,3.63,-1.86,1.16,4.24
16.064441919326782,3.25,-1.42,1.63,3.9
16.07453203201294,2.94,-0.92,2.2,3.78
16.133081912994385,2.82,-0.33,2.92,4.07
16.1336829662323,2.65,0.27,2.87,3.91
16.134285926818848,2.5,0.73,1.89,3.21
16.135488986968994,1.95,1.42,0.41,2.44
16.136632919311523,0.1,2.37,-0.78,2.49
16.13721799850464,-2.47,2.94,-1.15,4.0
16.144370079040527,-4.42,3.24,-1.18,5.6
16.154375076293945,-5.03,3.66,-1.18,6.33
16.164287090301514,-5.04,4.02,-0.82,6.49
16.174232959747314,-5.31,4.63,-0.84,7.09
16.23334503173828,-6.08,5.29,-1.7,8.23
16.233983993530273,-7.3,5.66,-2.41,9.54
16.234614849090576,-9.15,5.78,-3.23,11.29
16.23576307296753,-10.9,5.31,-3.76,12.69
16.23689889907837,-11.12,3.94,-3.16,12.21
16.23749303817749,-9.85,2.26,-2.23,10.34
16.24421501159668,-8.81,1.13,-1.36,8.98
16.254097938537598,-9.41,0.76,-0.94,9.48
16.26394295692444,-10.43,0.4,-1.22,10.5
16.274150848388672,-9.94,0.47,-1.32,10.03
16.334404945373535,-8.34,2.78,-1.09,8.85
16.335073947906494,-8.86,1.33,-1.66,9.11
16.335672855377197,-8.96,-0.28,-1.76,9.13
16.336872100830078,-8.75,-1.03,-1.13,8.88
16.338069915771484,-7.52,-0.98,-0.96,7.64
16.33868098258972,-2.99,1.11,-1.43,3.49
16.34414291381836,5.15,2.01,1.41,5.7
16.35398578643799,8.37,1.36,4.47,9.58
16.3640718460083,2.82,0.58,2.02,3.51
16.374094009399414,-4.39,2.32,-1.39,5.15
16.434205055236816,-7.47,5.66,-1.73,9.53
16.434805870056152,-7.15,8.08,-0.84,10.82
16.43538999557495,-7.21,4.6,-3.32,9.17
16.43653678894043,-6.75,2.29,-3.77,8.06
16.4376699924469,-3.64,2.45,0.27,4.39
16.438257932662964,-2.57,-1.68,2.7,4.08
16.44389581680298,-3.85,-3.22,1.54,5.25
16.45394492149353,-5.19,-1.72,0.36,5.47
16.464139938354492,-5.26,-0.54,0.4,5.3
16.473896980285645,-4.27,0.15,0.62,4.31
16.5346839427948,-2.73,0.22,0.07,2.73
16.535281896591187,-1.08,0.07,-0.41,1.15
16.535912036895752,0.2,0.04,-0.7,0.72
16.537065029144287,1.0,0.26,-1.28,1.64
16.53826594352722,1.35,0.46,-1.5,2.06
16.539167881011963,1.28,0.47,-1.11,1.75
16.543742895126343,0.96,0.37,-0.81,1.3
16.55377697944641,0.61,0.08,-0.86,1.05
16.563724040985107,0.29,-0.16,-0.97,1.02
16.573689937591553,0.22,-0.07,-1.12,1.14
16.6351580619812,-0.16,-0.01,-1.3,1.3
16.635765075683594,-0.72,-0.11,-1.14,1.35
16.63635492324829,-0.95,0.09,-0.37,1.02
16.63750982284546,-0.69,0.06,0.44,0.82
16.638980865478516,-0.49,-0.12,0.67,0.83
16.63957190513611,-0.57,-0.19,0.57,0.82
16.643614768981934,-0.79,-0.09,0.39,0.88
16.653618812561035,-0.81,-0.01,-0.02,0.81
16.66360092163086,-0.47,0.09,-0.38,0.61
16.673579931259155,-0.42,0.13,-0.58,0.72
16.735492944717407,-0.64,0.03,-0.75,0.98
16.736097812652588,-0.79,-0.06,-0.73,1.07
16.736686944961548,-0.69,-0.04,-0.65,0.94
16.737860918045044,-0.28,0.11,-0.63,0.69
16.739346027374268,0.34,0.2,-0.28,0.48
16.73993492126465,0.75,0.11,0.07,0.76
16.743497848510742,0.66,-0.09,0.09,0.67
16.753961086273193,0.38,-0.11,0.06,0.4
16.763354778289795,0.03,-0.05,0.0,0.05
16.77353000640869,-0.18,0.08,-0.02,0.19
16.835635900497437,0.01,0.16,0.11,0.19
16.836280822753906,0.24,0.13,0.04,0.27
16.836867809295654,0.37,0.11,-0.1,0.39
16.838071823120117,0.5,0.13,-0.13,0.53
16.83951997756958,0.69,0.15,-0.11,0.71
16.840088844299316,1.0,0.15,-0.02,1.01
16.84335994720459,1.2,0.12,0.06,1.2
16.853386878967285,1.21,0.13,0.06,1.21
16.863341808319092,1.23,0.2,-0.04,1.24
16.87316608428955,1.24,0.2,-0.09,1.25
16.93607497215271,1.26,0.16,-0.33,1.31
16.936678886413574,1.22,0.28,-0.76,1.46
16.93726396560669,1.11,0.35,-0.82,1.42
16.938777923583984,1.33,0.46,-0.73,1.58
16.939904928207397,1.83,0.64,-0.69,2.05
16.940514087677002,2.49,0.78,-0.58,2.67
16.94314694404602,2.89,0.95,-0.43,3.07
16.953341960906982,2.97,1.31,-0.05,3.24
16.963242053985596,2.8,1.69,0.33,3.28
16.97322702407837,2.79,2.03,0.65,3.51
17.035717964172363,2.64,2.31,0.32,3.52
17.036312103271484,2.59,2.9,-0.82,3.97
17.03689694404602,3.03,3.49,-0.58,4.65
17.03835892677307,3.08,3.49,-0.61,4.69
17.039469957351685,3.44,3.34,-1.25,4.95
17.040055990219116,4.25,3.49,-0.96,5.58
17.042996883392334,5.22,3.2,-0.92,6.19
17.053006887435913,5.86,3.28,-0.67,6.74
17.062986850738525,6.27,4.01,-0.67,7.47
17.07304286956787,6.52,5.09,-0.54,8.28
17.13696599006653,6.53,5.61,-0.17,8.61
17.137906074523926,6.22,5.29,-0.04,8.16
17.138508796691895,6.07,5.36,0.04,8.09
17.139654874801636,5.69,5.55,0.13,7.94
17.14079189300537,5.45,5.52,-0.05,7.75
17.141381978988647,5.66,6.09,-0.29,8.31
17.142956972122192,5.67,6.98,-1.85,9.18
17.15298080444336,5.46,7.5,-3.03,9.75
17.16295289993286,3.15,8.16,-1.95,8.96
17.172887802124023,-1.26,9.12,-1.38,9.3
17.236815929412842,-2.99,7.68,-3.22,8.84
17.23775005340576,-0.1,5.88,-2.82,6.52
17.23834490776062,3.89,5.56,-1.63,6.97
17.239505767822266,7.82,3.36,-1.38,8.62
17.240644931793213,8.23,-1.38,-0.62,8.36
17.241236925125122,3.33,-3.21,0.07,4.62
17.2427818775177,-4.13,-3.88,-2.33,6.12
17.25281596183777,-5.05,-0.21,-4.73,6.92
17.26269292831421,2.36,0.58,-4.24,4.88
17.27285385131836,8.03,-1.07,-1.85,8.3
17.336734771728516,9.65,-1.71,0.09,9.8
17.337675094604492,8.86,-2.4,1.28,9.26
17.338266849517822,7.18,-2.79,2.11,7.98
17.339492797851562,5.68,-3.38,1.9,6.87
17.340664863586426,4.79,-4.3,1.65,6.64
17.341245889663696,4.44,-5.0,1.77,6.91
17.34267497062683,4.34,-5.17,1.78,6.98
17.35270404815674,3.88,-4.29,1.36,5.94
17.362600803375244,3.56,-3.28,0.94,4.93
17.372711896896362,3.72,-2.84,1.33,4.86
17.4363009929657,3.98,-3.08,2.13,5.46
17.43693208694458,3.89,-3.39,2.7,5.82
17.437838077545166,3.56,-3.16,2.97,5.61
17.43901777267456,3.34,-2.49,3.23,5.27
17.440165042877197,3.56,-1.44,3.63,5.28
17.44075298309326,3.83,-0.03,3.81,5.4
17.442484855651855,3.3,1.42,3.2,4.81
17.45255708694458,1.84,2.97,1.78,3.92
17.462491035461426,-0.23,4.17,0.41,4.19
17.472477912902832,-2.17,5.45,-0.81,5.92
17.536722898483276,-3.74,6.58,-1.91,7.8
17.537641048431396,-5.06,7.3,-2.35,9.18
17.538227081298828,-6.5,7.68,-2.78,10.43
17.53940987586975,-8.14,7.69,-3.45,11.71
17.540592908859253,-10.02,7.5,-4.22,13.2
17.541192054748535,-11.71,7.14,-5.28,14.69
17.542402982711792,-12.05,5.6,-5.5,14.38
17.552470922470093,-10.75,2.86,-4.35,11.94
17.56235408782959,-9.94,0.59,-2.81,10.34
17.572375774383545,-10.36,-0.99,-1.98,10.59
17.637569904327393,-10.65,-2.39,-1.64,11.03
17.63836693763733,-10.08,-2.61,-1.62,10.53
17.638961791992188,-8.73,-1.99,-1.64,9.1
17.64012908935547,-7.6,-0.9,-2.05,7.92
17.64135193824768,-5.8,4.38,-2.94,7.84
17.641974925994873,-3.34,6.47,-2.66,7.75
17.643155097961426,-5.08,1.88,-1.84,5.72
17.652262926101685,-2.54,0.1,-1.29,2.85
17.662209033966064,5.37,0.7,4.8,7.23
17.672225952148438,8.41,0.57,8.3,11.82
17.737830877304077,3.01,0.53,2.75,4.11
17.738624095916748,-5.61,0.23,-1.31,5.76
17.73920488357544,-10.14,-0.03,-1.73,10.28
17.740365028381348,-9.31,1.77,-2.17,9.72
17.74150800704956,-6.95,5.58,-1.44,9.02
17.742101907730103,-5.0,7.01,-0.68,8.63
17.743315935134888,-3.69,3.79,-0.71,5.33
17.752123832702637,-4.49,0.01,-2.43,5.1
17.762115001678467,-5.05,-0.46,-3.1,5.94
17.772060871124268,-4.2,1.08,-0.64,4.38
17.838757038116455,-3.78,-0.85,0.17,3.87
17.83936595916748,-3.14,-1.92,-0.59,3.72
17.83995485305786,-2.14,-1.08,-0.55,2.45
17.841116905212402,-1.25,-0.17,-0.14,1.26
17.84228277206421,-1.04,0.21,-0.18,1.07
17.842875003814697,-0.72,0.2,-0.17,0.76
17.84406805038452,-0.43,0.21,-0.44,0.65
17.851983070373535,-0.45,0.27,-0.48,0.71
17.86194086074829,-0.37,0.36,-0.14,0.53
17.87197494506836,-0.56,0.37,0.07,0.67
17.938994884490967,-0.88,0.11,0.09,0.89
17.93960690498352,-1.12,-0.07,-0.35,1.17
17.940197944641113,-1.13,-0.01,-1.0,1.5
17.941370010375977,-1.07,0.09,-1.29,1.67
17.942540884017944,-1.05,0.14,-0.98,1.44
17.943126916885376,-0.89,0.04,-0.66,1.1
17.94431781768799,-0.67,-0.1,-0.54,0.86
17.95183801651001,-0.4,-0.07,-0.57,0.69
17.96184492111206,-0.22,0.05,-0.68,0.71
17.971837043762207,-0.1,0.09,-0.63,0.64
17.98166799545288,-0.16,0.01,-0.59,0.61
18.039418935775757,-0.2,-0.1,-0.54,0.58
18.04000687599182,-0.39,-0.14,-0.16,0.44
18.041164875030518,-0.51,-0.02,0.02,0.51
18.04230499267578,-0.43,0.07,-0.23,0.49
18.042886972427368,-0.12,0.04,-0.47,0.48
18.044070959091187,0.27,-0.07,-0.6,0.66
18.051641941070557,0.61,-0.13,-0.74,0.96
18.061717987060547,0.64,-0.14,-0.65,0.92
18.071696758270264,0.35,-0.08,-0.62,0.71
18.081716060638428,0.15,-0.01,-0.46,0.48
18.139864921569824,0.07,-0.05,-0.05,0.09
18.14045476913452,0.02,0.01,0.19,0.19
18.141636848449707,0.1,0.07,0.1,0.15
18.142765998840332,0.27,0.0,0.06,0.27
18.143343925476074,0.37,0.07,-0.11,0.39
18.14451289176941,0.33,0.18,-0.26,0.45
18.151476860046387,0.27,0.23,-0.36,0.5
18.161449909210205,0.22,0.27,-0.67,0.75
18.17151188850403,0.28,0.19,-0.59,0.68
18.18148183822632,0.41,0.0,-0.45,0.6
18.239359855651855,0.43,-0.04,-0.29,0.52
18.239969968795776,0.46,0.03,-0.15,0.48
18.241171836853027,0.6,0.12,-0.18,0.63
18.242321968078613,0.77,0.16,-0.36,0.86
18.242910861968994,0.99,0.19,-0.13,1.01
18.244098901748657,1.15,0.31,-0.01,1.19
18.251402854919434,1.45,0.45,0.18,1.52
18.261359930038452,2.08,0.51,0.3,2.16
18.271328926086426,2.81,0.53,0.11,2.86
18.28154182434082,3.5,0.52,-0.18,3.54
18.340216875076294,4.01,0.6,-0.48,4.08
18.340816020965576,4.15,0.85,-0.63,4.28
18.342013835906982,3.88,1.18,-0.77,4.12
18.34315776824951,3.37,1.61,-0.37,3.75
18.343740940093994,2.7,2.06,0.09,3.39
18.344924926757812,2.48,2.73,-0.34,3.7
18.351836919784546,3.16,4.11,-1.01,5.28
18.361233949661255,3.24,3.99,0.18,5.14
18.371295928955078,3.34,3.55,0.12,4.87
18.381242990493774,3.31,3.64,0.43,4.93
18.440260887145996,3.38,3.7,0.4,5.02
18.440874099731445,3.35,3.79,0.58,5.09
18.44202184677124,3.64,4.03,0.48,5.45
18.443156957626343,4.39,4.31,0.19,6.15
18.443742990493774,5.09,4.39,0.06,6.72
18.444917917251587,5.21,4.21,0.0,6.69
18.451138019561768,4.73,4.16,-0.22,6.3
18.461101055145264,3.95,4.29,-0.32,5.84
18.47113800048828,2.77,4.78,-0.58,5.55
18.481112957000732,1.75,6.08,-1.11,6.42
18.540183067321777,1.74,7.0,-2.08,7.5
18.540817975997925,2.95,6.53,-3.05,7.78
18.542006969451904,3.02,6.1,-2.87,7.38
18.54317283630371,0.78,6.5,-1.85,6.8
18.54375982284546,-0.58,7.12,-3.91,8.14
18.5449857711792,0.99,6.43,-5.08,8.25
18.551053047180176,4.72,4.76,-3.06,7.36
18.560978889465332,8.21,3.22,-1.7,8.98
18.57104992866516,9.66,0.45,-0.77,9.7
18.5809907913208,7.16,-2.87,-0.03,7.71
18.640820026397705,0.17,-3.03,0.69,3.11
18.641413927078247,-5.28,-2.75,-2.19,6.34
18.6426420211792,-3.85,-0.23,-4.23,5.72
18.643781900405884,3.85,-0.63,-3.72,5.39
18.644372940063477,9.11,-2.3,-2.03,9.61
18.64562177658081,10.74,-2.84,-0.45,11.11
18.650904893875122,10.19,-2.82,0.69,10.59
18.660874843597412,9.2,-3.2,1.81,9.9
18.724085807800293,8.05,-3.53,2.32,9.09
18.724690914154053,7.43,-3.52,2.16,8.5
18.725303888320923,7.15,-3.13,1.65,7.97
18.726221084594727,6.63,-2.65,1.24,7.24
18.727442979812622,6.07,-2.58,0.98,6.66
18.728631019592285,5.39,-2.43,0.64,5.94
18.73065996170044,4.78,-1.97,0.51,5.19
18.740802764892578,4.1,-1.25,0.75,4.35
18.750776767730713,3.44,-0.85,1.31,3.77
18.760695934295654,2.75,-0.57,1.92,3.4
18.825296878814697,2.39,0.2,2.24,3.28
18.826173782348633,2.54,1.09,2.3,3.59
18.82675790786743,2.49,2.05,1.61,3.6
18.827343940734863,0.58,3.38,0.18,3.43
18.828495979309082,-2.59,4.36,-1.29,5.23
18.829624891281128,-5.36,4.9,-2.0,7.53
18.83055877685547,-6.8,5.47,-1.64,8.87
18.84057378768921,-7.13,5.8,-0.73,9.22
18.850555896759033,-6.57,5.66,-0.51,8.68
18.86052703857422,-5.55,4.92,-0.73,7.45
18.92582893371582,-5.3,4.51,-1.03,7.03
18.926629066467285,-6.99,5.08,-2.28,8.93
18.92721700668335,-9.84,5.7,-3.45,11.88
18.927803993225098,-11.67,5.25,-3.54,13.27
18.928977012634277,-11.38,3.47,-2.73,12.2
18.930190086364746,-10.24,1.39,-1.41,10.42
18.930781841278076,-9.97,0.65,-0.69,10.01
18.940456867218018,-10.42,0.04,-0.88,10.45
18.950307846069336,-10.52,-0.82,-1.05,10.6
18.96041488647461,-10.31,-1.19,-1.09,10.43
19.025815963745117,-9.3,0.91,-1.15,9.41
19.026631832122803,-7.93,4.62,-1.46,9.29
19.027251958847046,-9.87,2.1,-2.65,10.43
19.027841091156006,-11.18,-1.08,-3.62,11.8
19.029015064239502,-2.94,-0.26,-3.9,4.89
19.03018093109131,9.99,1.3,3.11,10.54
19.030766010284424,13.72,1.03,7.44,15.64
19.04029607772827,5.42,1.04,2.51,6.06
19.050167083740234,-4.98,0.73,-0.89,5.11
19.06032395362854,-8.61,-0.39,-1.41,8.73
19.125892877578735,-7.23,1.79,-1.52,7.6
19.126755952835083,-5.59,6.93,-1.35,9.0
19.127365112304688,-4.66,8.28,-0.16,9.5
19.127976894378662,-4.61,3.01,1.11,5.61
19.12920904159546,-4.77,0.62,0.91,4.89
19.130393028259277,-6.15,-0.95,-0.91,6.28
19.130984783172607,-5.62,0.49,0.12,5.64
19.140122890472412,-4.74,-0.32,1.26,4.91
19.150222778320312,-3.66,-1.23,0.74,3.93
19.160276889801025,-2.43,-0.69,0.18,2.53
19.226403951644897,-0.98,-0.09,-0.14,0.99
19.227015018463135,-0.27,0.04,-0.35,0.44
19.227633953094482,0.17,0.16,-0.57,0.61
19.228246927261353,0.52,0.12,-1.12,1.24
19.229423999786377,0.7,-0.02,-1.62,1.76
19.230581760406494,0.85,0.09,-1.84,2.02
19.231189966201782,0.65,0.0,-1.75,1.86
19.24010705947876,0.22,-0.33,-1.48,1.53
19.249846935272217,-0.15,-0.53,-1.31,1.42
19.259997844696045,-0.39,-0.39,-1.28,1.39
19.326839923858643,-0.59,-0.01,-1.06,1.21
19.327449798583984,-0.76,0.34,-0.46,0.95
19.3280348777771,-0.8,0.33,0.03,0.86
19.328609943389893,-1.01,0.02,0.2,1.02
19.329829931259155,-1.1,-0.08,0.13,1.11
19.330965042114258,-0.89,0.0,-0.04,0.89
19.33154296875,-0.75,-0.04,-0.19,0.77
19.33992290496826,-0.68,0.13,-0.52,0.86
19.34985876083374,-0.61,0.23,-0.63,0.9
19.359836101531982,-0.35,0.08,-0.27,0.44
19.42694091796875,-0.17,-0.05,-0.18,0.25
19.42751979827881,-0.17,0.06,-0.33,0.37
19.428066968917847,-0.09,0.18,-0.74,0.76
19.428646087646484,-0.2,0.16,-0.91,0.94
19.42986297607422,-0.13,0.08,-0.58,0.59
19.431046962738037,0.26,-0.09,-0.26,0.37
19.431636810302734,0.59,-0.3,-0.21,0.69
19.43979501724243,0.76,-0.34,-0.27,0.87
19.44996404647827,0.7,-0.19,-0.12,0.73
19.459754943847656,0.36,0.13,0.01,0.38
19.52727699279785,0.15,0.23,-0.02,0.27
19.52787494659424,0.2,0.0,-0.01,0.2
19.528456926345825,0.33,-0.13,-0.05,0.35
19.529043912887573,0.38,-0.08,-0.11,0.4
19.530226945877075,0.25,-0.03,-0.2,0.32
19.531369924545288,0.21,0.09,-0.21,0.31
19.53197193145752,0.32,0.17,-0.25,0.44
19.5396409034729,0.53,0.13,-0.26,0.6
19.549585819244385,0.87,0.05,-0.24,0.9
19.559581756591797,0.99,0.05,-0.25,1.02
19.62720775604248,0.92,0.12,-0.35,0.99
19.627805948257446,0.97,0.25,-0.53,1.13
19.628398895263672,1.25,0.32,-0.39,1.34
19.628997802734375,1.69,0.19,0.05,1.7
19.63016700744629,2.0,0.21,0.12,2.01
19.631292819976807,2.12,0.3,0.17,2.14
19.631877899169922,2.26,0.41,0.14,2.3
19.63946294784546,2.35,0.63,-0.1,2.43
19.649424076080322,2.31,0.89,-0.13,2.47
19.65945792198181,2.16,1.14,-0.22,2.45
19.72718381881714,2.11,1.29,-0.14,2.47
19.72778606414795,2.38,1.45,-0.16,2.79
19.72836685180664,2.44,1.58,-0.38,2.93
19.72896695137024,2.17,1.89,-0.16,2.88
19.730122089385986,1.93,2.19,0.27,2.93
19.731245040893555,2.08,2.56,0.37,3.31
19.731822967529297,2.53,3.19,-0.47,4.09
19.739341974258423,4.11,4.07,-0.53,5.8
19.74930691719055,3.38,4.74,0.61,5.85
19.75931692123413,3.44,4.2,-0.86,5.49
19.827306985855103,4.29,3.69,-0.45,5.67
19.827902793884277,5.69,2.89,-0.61,6.41
19.828491926193237,6.26,2.68,-0.37,6.81
19.82907795906067,5.91,3.41,-0.73,6.86
19.830257892608643,5.58,4.29,-1.0,7.1
19.83141803741455,5.13,4.58,-0.94,6.94
19.832004070281982,4.79,4.53,-1.05,6.67
19.839229106903076,4.55,4.66,-1.29,6.63
19.849198818206787,4.8,4.98,-1.25,7.02
19.859205961227417,5.54,5.36,-1.49,7.85
19.927709102630615,6.22,5.69,-2.47,8.78
19.92832589149475,5.76,5.85,-3.23,8.82
19.928910970687866,2.19,7.07,-2.37,7.77
19.929492950439453,-2.77,7.62,-1.15,8.18
19.93065309524536,-2.8,7.24,-3.57,8.54
19.93178081512451,1.76,5.68,-4.3,7.33
19.932365894317627,5.55,4.3,-2.79,7.55
19.93904209136963,7.98,2.41,-1.55,8.47
19.94898509979248,9.46,-0.94,-0.73,9.53
19.958988904953003,3.7,-2.38,0.85,4.48
20.028154850006104,-3.19,-1.83,-2.06,4.21
20.028754949569702,-2.81,1.02,-5.38,6.15
20.02933979034424,4.09,0.47,-3.91,5.67
20.02992296218872,8.23,-1.06,-1.68,8.46
20.03107786178589,9.13,-1.82,-0.53,9.32
20.03220796585083,8.21,-2.13,0.37,8.48
20.032790899276733,6.87,-2.31,1.26,7.35
20.03883409500122,5.16,-3.33,1.59,6.34
20.048784971237183,3.8,-4.3,1.55,5.94
20.058759927749634,3.33,-4.29,1.21,5.56
20.128458976745605,3.28,-3.61,0.45,4.89
20.129054069519043,3.52,-3.18,0.15,4.74
20.129637956619263,3.98,-3.21,0.33,5.12
20.130201816558838,4.38,-3.21,0.49,5.45
20.131353855133057,4.64,-3.14,0.74,5.65
20.132515907287598,4.43,-2.8,1.11,5.35
20.133100986480713,3.59,-2.37,1.65,4.6
20.138702869415283,2.94,-1.99,1.84,3.99
20.1488299369812,2.79,-1.62,1.96,3.77
20.158740997314453,2.91,-0.96,2.26,3.8
20.230456829071045,2.9,-0.26,2.27,3.69
20.231066942214966,2.16,0.61,1.44,2.66
20.231647968292236,0.46,1.86,-0.26,1.93
20.232229948043823,-1.94,3.0,-2.02,4.1
20.23405885696411,-3.86,3.97,-2.76,6.18
20.235224962234497,-5.04,5.01,-2.42,7.5
20.235814094543457,-6.19,5.64,-1.68,8.54
20.238555908203125,-7.28,5.59,-1.65,9.32
20.24843406677246,-7.76,5.36,-2.08,9.65
20.258469104766846,-8.19,5.24,-2.41,10.01
20.329527854919434,-9.44,5.52,-3.49,11.47
20.330121994018555,-10.76,5.34,-4.11,12.69
20.330708026885986,-10.61,4.41,-3.49,12.0
20.33129096031189,-9.45,2.93,-2.27,10.15
20.33243179321289,-8.73,1.09,-1.15,8.87
20.334150791168213,-9.53,-0.64,-0.99,9.6
20.334742069244385,-11.14,-1.14,-1.53,11.3
20.338347911834717,-11.44,0.73,-2.08,11.65
20.34832000732422,-9.16,5.3,-2.4,10.85
20.35833978652954,-8.94,2.06,-2.74,9.57
20.429986000061035,-10.52,-0.62,-2.95,10.94
20.430588960647583,-11.19,-1.28,-2.54,11.54
20.431182861328125,-6.68,0.57,-2.46,7.14
20.431779861450195,5.57,2.85,1.07,6.34
20.43297791481018,13.58,1.91,6.45,15.15
20.434815883636475,8.75,-0.5,6.12,10.68
20.435404777526855,-1.28,-0.23,1.65,2.1
20.438261032104492,-7.72,2.68,-1.14,8.25
20.4481840133667,-8.2,6.43,-1.23,10.49
20.458250045776367,-8.19,6.76,-2.77,10.97
20.530391931533813,-10.11,3.52,-4.22,11.5
20.531064987182617,-6.98,5.05,-0.77,8.64
20.5317120552063,-3.38,0.68,2.8,4.44
20.53236484527588,-3.48,-4.0,1.88,5.62
20.534255981445312,-4.45,-3.44,-0.18,5.62
20.535404920578003,-3.83,-0.96,-0.63,3.99
20.535994052886963,-3.01,0.34,-0.33,3.04
20.538105010986328,-1.78,0.69,-0.5,1.97
20.54809594154358,-0.63,0.46,-0.79,1.11
20.558095932006836,0.19,0.14,-1.27,1.29
20.63173198699951,0.31,0.15,-1.47,1.5
20.632394790649414,-0.04,0.12,-1.12,1.12
20.633397102355957,-0.38,0.12,-0.53,0.66
20.63436508178711,-0.48,0.21,-0.24,0.57
20.635567903518677,-0.35,0.1,-0.37,0.51
20.63672685623169,-0.28,-0.02,-0.64,0.69
20.63734197616577,-0.21,-0.06,-0.96,0.98
20.6385760307312,-0.03,-0.09,-1.05,1.05
20.648131847381592,0.33,-0.06,-0.88,0.94
20.658103942871094,0.67,-0.05,-0.69,0.96
20.731976985931396,0.57,-0.11,-0.52,0.77
20.73305082321167,0.46,-0.14,-0.42,0.63
20.733680963516235,0.39,-0.12,-0.41,0.57
20.734623908996582,0.12,-0.18,-0.45,0.49
20.73580503463745,-0.36,-0.23,-0.45,0.62
20.736937046051025,-0.75,-0.2,-0.33,0.84
20.737558841705322,-0.99,0.19,-0.06,1.0
20.738762855529785,-0.78,0.39,0.17,0.88
20.747912883758545,-0.28,0.21,0.12,0.37
20.757956981658936,0.19,0.05,-0.21,0.28
20.83187484741211,0.35,0.04,-0.43,0.55
20.832837104797363,0.48,0.14,-0.67,0.83
20.83343505859375,0.64,0.06,-0.69,0.94
20.83402109146118,0.62,-0.08,-0.44,0.76
20.83560085296631,0.33,-0.08,-0.36,0.49
20.83674383163452,-0.09,-0.04,-0.2,0.22
20.837339878082275,-0.28,0.02,0.01,0.28
20.838572025299072,-0.22,0.07,0.08,0.24
20.847786903381348,-0.04,0.09,-0.06,0.11
20.857738971710205,0.08,0.03,-0.21,0.22
20.93211078643799,0.06,0.04,-0.57,0.57
20.93304991722107,0.13,0.01,-0.77,0.78
20.933660984039307,0.3,-0.15,-0.67,0.74
20.934247970581055,0.14,-0.03,-0.69,0.7
20.935807943344116,-0.16,0.43,-0.21,0.5
20.936975955963135,-0.24,0.64,0.42,0.8
20.937577962875366,0.07,0.57,0.57,0.8
20.938779830932617,0.64,0.28,0.29,0.75
20.94764280319214,1.33,-0.01,0.13,1.33
20.95765781402588,2.07,-0.08,0.07,2.07
21.030334949493408,2.39,0.18,-0.35,2.42
21.032761096954346,2.31,0.42,-0.49,2.39
21.033352851867676,2.46,0.57,-0.73,2.62
21.03395175933838,2.81,0.65,-0.93,3.03
21.03547191619873,3.2,0.59,-0.94,3.38
21.036652088165283,3.78,0.71,-0.78,3.92
21.037263870239258,4.29,1.01,-0.85,4.48
21.038492918014526,4.1,1.38,-0.5,4.35
21.04751682281494,3.83,1.87,0.03,4.26
21.05749487876892,3.69,2.57,0.19,4.5
21.067440032958984,3.42,3.84,-0.82,5.2
21.13296389579773,3.69,4.93,-0.55,6.18
21.133559942245483,3.32,3.99,0.65,5.23
21.134147882461548,2.92,3.29,0.39,4.41
21.13569188117981,2.77,3.16,0.69,4.25
21.13685178756714,3.39,3.09,0.41,4.6
21.13744878768921,4.03,3.35,0.38,5.25
21.138662815093994,4.4,3.55,-0.06,5.65
21.14744997024536,4.81,3.85,-0.27,6.16
21.157439947128296,4.97,4.24,-0.41,6.54
21.16740608215332,4.94,4.41,-0.58,6.64
21.233251094818115,5.06,4.57,-0.62,6.84
21.233844757080078,4.74,4.87,-0.72,6.83
21.23443603515625,4.88,5.67,-1.13,7.56
21.235980987548828,5.26,6.4,-2.04,8.53
21.237135887145996,5.59,6.49,-2.81,9.01
21.237722873687744,5.24,6.67,-2.43,8.82
21.238918781280518,2.18,7.9,-1.68,8.36
21.247178077697754,-1.78,9.09,-3.53,9.91
21.257224082946777,-0.84,8.18,-5.66,9.98
21.2671480178833,2.87,6.62,-3.53,8.03
21.33317804336548,5.94,5.61,-2.13,8.44
21.333818912506104,8.44,2.97,-1.8,9.12
21.33442997932434,8.48,-1.37,-0.74,8.62
21.336010932922363,1.37,-2.69,0.51,3.06
21.337213039398193,-5.83,-3.43,-2.58,7.23
21.33782696723938,-4.28,0.08,-5.04,6.61
21.33903193473816,4.15,0.24,-3.74,5.59
21.34713077545166,9.15,-1.26,-0.88,9.27
21.356966018676758,10.39,-1.89,0.94,10.6
21.366992950439453,9.34,-2.69,1.71,9.86
21.433665990829468,7.31,-3.72,2.33,8.52
21.43432903289795,5.92,-4.26,2.24,7.62
21.4353609085083,5.35,-4.18,1.81,7.02
21.436683893203735,5.04,-3.99,1.4,6.57
21.437933921813965,4.67,-4.14,1.0,6.32
21.438530921936035,4.37,-4.13,0.6,6.04
21.439763069152832,4.38,-4.08,0.44,6.0
21.446951866149902,4.41,-3.98,0.5,5.96
21.456981897354126,4.35,-3.89,0.69,5.87
21.46691608428955,3.98,-3.57,0.96,5.43
21.533840894699097,3.34,-3.06,1.37,4.73
21.534439086914062,2.86,-2.61,1.75,4.24
21.53539490699768,2.6,-1.73,2.02,3.71
21.53657293319702,2.26,-0.25,2.56,3.42
21.537738800048828,1.76,1.11,2.99,3.64
21.538333892822266,0.48,2.02,1.92,2.82
21.5395188331604,-1.44,3.57,-1.02,3.98
21.54674792289734,-3.57,5.9,-4.27,8.11
21.55679988861084,-5.97,8.68,-6.07,12.15
21.56684899330139,-8.4,10.05,-6.15,14.47
21.63354778289795,-10.1,9.48,-5.27,14.82
21.63424301147461,-10.59,8.16,-3.66,13.86
21.63521385192871,-10.09,6.15,-2.75,12.13
21.63642406463623,-10.56,4.19,-3.3,11.83
21.63759708404541,-11.89,3.24,-3.87,12.91
21.638186931610107,-12.68,2.29,-3.13,13.25
21.639408111572266,-12.62,0.17,-1.35,12.69
21.64662504196167,-11.62,-1.2,0.29,11.68
21.65670394897461,-10.08,-1.39,0.9,10.21
21.666654109954834,-8.89,-0.77,0.15,8.92
21.733999967575073,-8.2,1.48,-1.15,8.41
21.73460292816162,-6.24,6.27,-2.14,9.1
21.735580921173096,-6.67,4.78,-1.89,8.42
21.736793994903564,-8.97,0.54,-1.57,9.12
21.737982988357544,-4.65,-0.33,-2.54,5.3
21.73858404159546,7.48,1.95,3.35,8.42
21.739802837371826,11.75,1.54,9.5,15.18
21.74650287628174,3.49,1.26,3.21,4.9
21.756621837615967,-6.03,0.9,-0.81,6.15
21.76644492149353,-8.47,-0.56,-0.13,8.48
21.83419179916382,-7.16,-0.55,-0.55,7.2
21.834800958633423,-5.1,1.89,-1.3,5.59
21.835740089416504,-2.84,3.43,-0.2,4.45
21.836946964263916,-1.71,3.84,0.13,4.2
21.838104963302612,-1.72,3.43,0.05,3.83
21.838700771331787,-4.21,3.23,-0.4,5.32
21.839905977249146,-5.29,0.76,-3.57,6.42
21.84637689590454,-3.93,0.7,-3.32,5.19
21.856355905532837,-1.77,0.68,-0.48,1.95
21.86630392074585,-0.71,-1.02,0.46,1.32
21.934242963790894,-1.28,-1.31,-0.11,1.83
21.93486189842224,-1.58,-0.67,-0.81,1.89
21.935714960098267,-1.5,-0.01,-0.73,1.66
21.936908960342407,-1.52,0.36,-0.45,1.62
21.938074111938477,-1.45,0.38,-0.37,1.54
21.93866991996765,-1.31,0.19,-0.5,1.41
21.939883947372437,-1.0,0.02,-0.51,1.12
21.946159839630127,-0.71,0.05,-0.2,0.73
21.956158876419067,-0.64,0.08,0.13,0.65
21.966096878051758,-0.76,-0.03,0.17,0.77
22.034586906433105,-0.84,-0.08,-0.12,0.85
22.03554105758667,-0.82,0.07,-0.61,1.02
22.03614377975464,-0.56,0.19,-0.89,1.06
22.03733205795288,-0.36,0.35,-1.04,1.15
22.03849697113037,-0.55,0.15,-0.9,1.06
22.03908109664917,-0.92,-0.26,-0.67,1.16
22.040297985076904,-1.15,-0.33,-0.77,1.42
22.046058893203735,-0.93,-0.13,-0.92,1.31
22.056050777435303,-0.69,0.07,-0.81,1.06
22.065898895263672,-0.58,0.2,-0.4,0.73
22.13540506362915,-0.66,0.05,0.2,0.69
22.136406898498535,-0.47,0.11,0.38,0.61
22.137014865875244,-0.14,0.12,-0.23,0.29
22.13817596435547,-0.09,-0.08,-0.95,0.95
22.139298915863037,-0.2,-0.17,-1.37,1.39
22.139873027801514,-0.2,-0.09,-1.18,1.2
22.14132595062256,-0.12,0.06,-0.7,0.71
22.145987033843994,0.23,0.13,-0.28,0.38
22.156001091003418,0.85,-0.06,-0.03,0.85
22.165950775146484,1.52,-0.26,0.05,1.54
22.23547077178955,1.71,-0.33,-0.01,1.74
22.236426830291748,1.23,-0.38,-0.22,1.3
22.237010955810547,0.27,-0.09,-0.2,0.34
22.238189935684204,-0.13,0.15,-0.03,0.2
22.2393479347229,0.0,0.05,-0.06,0.07
22.23993492126465,0.24,-0.05,-0.13,0.27
22.241453886032104,0.43,0.03,-0.11,0.44
22.24580693244934,0.41,0.22,0.08,0.47
22.255852937698364,0.22,0.28,0.09,0.36
22.2656569480896,0.31,0.13,0.08,0.34
22.33568286895752,0.82,0.0,0.05,0.82
22.336663961410522,1.24,-0.02,-0.19,1.25
22.337281942367554,1.39,-0.1,-0.16,1.4
22.33845090866089,1.69,-0.13,-0.11,1.69
22.339605808258057,1.79,-0.12,0.05,1.79
22.340223789215088,1.72,-0.05,-0.02,1.72
22.34176778793335,1.68,0.0,-0.25,1.69
22.34577989578247,1.38,0.08,-0.22,1.39
22.35567593574524,1.32,0.13,-0.16,1.33
22.36568784713745,1.64,0.19,-0.17,1.65
22.435770988464355,2.12,0.34,-0.56,2.21
22.436837911605835,2.37,0.59,-0.63,2.52
22.437474966049194,2.23,0.88,-0.48,2.44
22.438698768615723,2.08,0.95,-0.76,2.4
22.439894914627075,2.01,1.01,-1.02,2.46
22.440802097320557,2.12,1.24,-1.14,2.7
22.442028045654297,2.31,1.49,-0.93,2.9
22.445612907409668,2.32,1.97,-0.99,3.2
22.45552897453308,2.67,2.22,-0.43,3.49
22.46544599533081,3.03,2.5,0.37,3.94
22.535686016082764,3.13,3.12,0.19,4.42
22.536684036254883,4.42,3.95,-0.4,5.94
22.537348985671997,4.58,3.82,1.37,6.11
22.53855800628662,4.99,3.7,0.23,6.21
22.53973698616028,5.57,4.39,0.27,7.09
22.540637969970703,5.85,4.57,0.0,7.42
22.541840076446533,6.22,4.51,-0.47,7.69
22.54546308517456,6.01,4.89,-0.55,7.76
22.555452823638916,6.0,5.29,-0.57,8.01
22.565366983413696,5.48,5.13,-0.8,7.54
22.635003089904785,4.74,5.05,-0.79,6.97
22.63566493988037,3.91,5.38,-0.97,6.72
22.636663913726807,3.62,5.96,-1.73,7.18
22.637820959091187,4.33,6.84,-2.84,8.57
22.63901376724243,5.22,7.07,-3.16,9.33
22.63961410522461,3.65,7.75,-1.44,8.68
22.64117193222046,-0.99,9.41,0.0,9.46
22.645286083221436,-2.56,8.13,-3.43,9.18
22.655236959457397,0.73,5.6,-4.06,6.95
22.66520404815674,5.29,4.96,-2.44,7.65
22.735044956207275,10.06,3.76,-1.75,10.88
22.735675811767578,10.56,-0.41,-0.55,10.58
22.736661911010742,2.33,-2.47,0.78,3.48
22.73783779144287,-3.62,-2.48,-2.19,4.9
22.738945960998535,-0.62,0.62,-4.24,4.32
22.73955488204956,6.16,0.02,-3.01,6.85
22.741092920303345,9.48,-1.48,-1.47,9.7
22.7451810836792,9.81,-2.36,-0.32,10.09
22.755191802978516,8.73,-3.43,0.6,9.39
22.76505398750305,6.74,-4.02,1.55,7.99
22.834877967834473,5.23,-4.17,1.77,6.91
22.83549189567566,4.51,-4.48,1.58,6.55
22.83645987510681,4.2,-4.45,1.46,6.29
22.837655067443848,3.84,-3.82,1.42,5.59
22.838826894760132,3.7,-3.37,1.17,5.13
22.839412927627563,3.84,-3.51,1.02,5.3
22.840893983840942,4.24,-3.56,1.15,5.65
22.845011949539185,4.38,-3.35,1.54,5.72
22.85499596595764,4.17,-3.05,2.33,5.66
22.86501693725586,3.79,-2.3,3.16,5.44
22.93430995941162,3.59,-1.51,3.5,5.23
22.934935092926025,3.12,-0.73,3.01,4.39
22.93551993370056,1.65,0.66,1.7,2.45
22.93706488609314,-0.68,2.24,-0.17,2.34
22.938220024108887,-2.61,3.61,-2.23,4.98
22.93882179260254,-3.47,5.24,-3.47,7.17
22.940340042114258,-4.47,6.65,-3.69,8.82
22.94483709335327,-6.2,6.9,-3.92,10.07
22.954885959625244,-8.08,5.85,-4.32,10.87
22.96482276916504,-8.81,4.62,-4.25,10.81
23.035197973251343,-9.05,4.51,-4.33,10.99
23.03580904006958,-10.29,5.94,-5.65,13.15
23.036772966384888,-11.22,6.36,-6.65,14.51
23.037954807281494,-11.08,4.26,-5.26,12.98
23.03916311264038,-9.52,1.38,-3.48,10.22
23.04007577896118,-8.05,-0.82,-0.8,8.13
23.041243076324463,-8.72,-1.16,0.57,8.81
23.04468584060669,-11.45,-1.16,-1.15,11.56
23.054748058319092,-11.67,-1.4,-2.32,11.98
23.064558029174805,-9.53,-0.84,-2.17,9.8
23.135377883911133,-8.04,-0.11,-1.91,8.26
23.13596796989441,-7.12,5.52,-1.91,9.2
23.1368989944458,-4.05,10.45,-1.17,11.26
23.138054847717285,-3.82,3.12,-2.93,5.73
23.139168977737427,5.77,-1.99,1.76,6.35
23.140079975128174,13.61,-2.31,12.12,18.37
23.14126491546631,8.18,-1.09,8.44,11.8
23.14461088180542,-3.32,0.2,0.08,3.32
23.154597759246826,-12.22,0.23,-2.94,12.57
23.164453983306885,-11.54,1.85,-2.64,11.98
23.23502206802368,-7.32,6.8,-1.07,10.04
23.23561692237854,-4.1,9.84,0.27,10.66
23.236196041107178,-4.64,6.16,-0.27,7.71
23.23774290084839,-5.79,1.08,-3.44,6.82
23.23891592025757,-5.91,0.77,-3.06,6.69
23.239861965179443,-5.21,0.66,-0.34,5.26
23.24105978012085,-4.17,-1.62,0.22,4.47
23.24442481994629,-3.82,-1.53,-0.6,4.15
23.254384994506836,-2.97,-0.6,-1.04,3.2
23.26432991027832,-2.02,0.16,-0.64,2.12
23.335340976715088,-1.52,0.29,-0.26,1.56
23.33593487739563,-0.89,0.0,-0.03,0.89
23.336874961853027,-0.17,-0.01,0.08,0.18
23.338040828704834,0.17,0.07,-0.13,0.22
23.339502811431885,0.27,0.1,-0.45,0.53
23.340087890625,0.07,0.09,-0.64,0.65
23.341279983520508,-0.3,-0.03,-0.62,0.68
23.344360828399658,-0.28,-0.28,-0.69,0.79
23.354222774505615,-0.13,-0.28,-0.98,1.02
23.364332914352417,-0.09,0.09,-1.42,1.42
23.435160875320435,-0.45,0.3,-1.75,1.83
23.435755968093872,-0.83,0.08,-1.34,1.57
23.436339855194092,-0.72,-0.18,-0.82,1.1
23.43791675567627,-0.57,-0.25,-0.5,0.79
23.439424991607666,-0.58,-0.14,-0.37,0.7
23.440011024475098,-0.44,0.08,-0.05,0.45
23.441246032714844,-0.16,0.24,0.47,0.55
23.444134950637817,0.02,0.09,0.81,0.81
23.454002857208252,0.28,0.13,0.49,0.57
23.464029788970947,0.48,0.2,-0.25,0.57
23.535229921340942,0.25,0.03,-0.7,0.74
23.53584575653076,-0.13,0.0,-1.03,1.03
23.53643798828125,-0.2,0.08,-1.02,1.04
23.538000106811523,0.02,0.01,-0.78,0.78
23.539474964141846,0.36,-0.12,-0.55,0.66
23.540092945098877,0.48,-0.14,-0.34,0.6
23.541271924972534,0.32,-0.14,-0.22,0.41
23.544023036956787,0.2,-0.09,-0.07,0.23
23.553908824920654,0.21,-0.06,0.11,0.24
23.563941955566406,0.27,-0.08,0.03,0.28
23.634877920150757,0.42,-0.07,-0.23,0.48
23.635462760925293,0.43,-0.07,-0.36,0.56
23.636013984680176,0.36,0.02,-0.49,0.6
23.63752794265747,0.31,0.09,-0.54,0.62
23.639033794403076,0.37,0.09,-0.47,0.6
23.639591932296753,0.5,0.13,-0.44,0.67
23.64079189300537,0.66,0.12,-0.25,0.71
23.64395499229431,0.88,0.12,0.13,0.89
23.653788089752197,1.0,0.19,0.31,1.06
23.663890838623047,0.94,0.17,0.52,1.08
23.735509872436523,0.96,0.11,0.59,1.13
23.736166954040527,1.27,0.07,0.36,1.32
23.73715591430664,1.59,0.1,0.15,1.6
23.738369941711426,1.75,0.22,0.0,1.76
23.739863872528076,1.77,0.41,-0.17,1.82
23.74046277999878,1.83,0.63,-0.52,2.0
23.74166989326477,1.86,0.73,-0.65,2.1
23.743753910064697,1.85,0.85,-0.56,2.11
23.75377082824707,1.72,0.9,-0.47,1.99
23.763784885406494,1.7,1.12,-0.43,2.08
23.835259914398193,1.95,1.18,-0.45,2.32
23.835851907730103,2.45,1.36,-0.8,2.91
23.83643102645874,3.48,1.61,-0.94,3.94
23.837982892990112,4.64,1.55,-0.51,4.91
23.839459896087646,4.76,2.32,-0.33,5.3
23.8400719165802,4.45,3.51,-0.68,5.7
23.841288089752197,4.82,4.95,-1.98,7.18
23.843584060668945,4.71,4.84,-0.07,6.75
23.85388994216919,4.9,4.61,-0.04,6.72
23.863625049591064,5.81,5.33,0.4,7.89
23.935743808746338,5.99,5.31,0.68,8.03
23.93639898300171,6.3,5.18,0.23,8.15
23.937416076660156,6.14,5.64,0.09,8.33
23.939136028289795,5.75,6.01,-0.22,8.32
23.94044303894043,5.15,5.8,-0.68,7.78
23.94109797477722,4.15,5.6,-0.77,7.01
23.942429065704346,3.59,5.74,-1.04,6.84
23.943625926971436,3.63,6.34,-2.4,7.68
23.953478813171387,3.91,6.65,-3.32,8.39
23.963432788848877,2.31,7.56,-1.59,8.06
24.035181045532227,-0.8,9.21,0.24,9.24
24.03583788871765,-0.1,7.63,-2.52,8.03
24.03648090362549,2.6,4.95,-3.5,6.59
24.03849983215332,5.67,4.34,-2.36,7.52
24.03967595100403,9.96,3.69,-1.56,10.73
24.04027795791626,8.76,-1.31,-0.93,8.9
24.04149293899536,1.17,-2.77,0.38,3.03
24.043308973312378,-4.57,-1.85,-1.94,5.29
24.05333185195923,-3.11,0.82,-4.93,5.88
24.063328981399536,4.92,-0.3,-4.01,6.35
24.135170936584473,9.59,-1.86,-1.81,9.93
24.135767936706543,10.74,-2.52,-0.18,11.03
24.136353969573975,9.74,-3.26,1.09,10.32
24.13825798034668,7.4,-4.17,1.97,8.71
24.13943910598755,5.56,-4.92,2.15,7.72
24.14003610610962,5.15,-5.18,1.89,7.54
24.141259908676147,5.63,-4.7,1.63,7.51
24.14296793937683,5.84,-4.12,1.28,7.26
24.153088092803955,5.51,-3.67,0.78,6.66
24.1629900932312,4.8,-3.3,0.53,5.84
24.235486030578613,4.02,-3.13,0.6,5.13
24.236089944839478,3.52,-3.01,0.67,4.67
24.236680030822754,2.98,-2.58,0.97,4.05
24.23853898048401,2.51,-2.07,1.55,3.6
24.239717960357666,2.11,-1.51,2.07,3.31
24.240325927734375,1.95,-0.66,2.45,3.2
24.24154806137085,1.68,0.27,2.61,3.11
24.242973804473877,0.54,1.45,1.64,2.25
24.252991914749146,-1.44,2.98,-0.68,3.37
24.262930870056152,-3.26,4.2,-2.76,5.99
24.336456775665283,-4.31,5.43,-3.27,7.66
24.337069034576416,-5.02,6.61,-2.69,8.72
24.338326930999756,-6.0,7.24,-2.44,9.71
24.339519023895264,-7.05,7.44,-3.1,10.7
24.34065294265747,-7.62,7.44,-3.62,11.24
24.34122085571289,-8.02,7.15,-4.05,11.48
24.342422008514404,-9.16,6.38,-4.62,12.08
24.343608856201172,-10.21,4.69,-4.57,12.12
24.35283088684082,-9.98,2.35,-3.45,10.81
24.362823963165283,-10.06,0.8,-2.18,10.32
24.43684482574463,-10.42,-0.91,-1.48,10.56
24.438204765319824,-10.1,-1.98,-0.93,10.33
24.438841819763184,-9.11,-1.84,-0.79,9.32
24.440115928649902,-8.34,-1.1,-1.31,8.51
24.441313982009888,-7.97,-0.39,-2.36,8.32
24.44190502166748,-7.64,0.35,-2.87,8.16
24.443134784698486,-5.37,7.15,-2.8,9.37
24.44432497024536,-4.84,7.4,-2.42,9.16
24.45276403427124,-4.57,0.43,-3.45,5.74
24.462706089019775,5.14,-0.89,1.7,5.48
24.536658763885498,9.77,0.59,8.47,12.94
24.537281036376953,5.54,1.29,5.31,7.78
24.538564920425415,-2.12,0.8,0.66,2.36
24.539748907089233,-8.38,-0.39,-0.98,8.44
24.540920972824097,-8.35,0.39,-1.77,8.54
24.54151201248169,-5.25,2.37,-2.08,6.12
24.54273295402527,-3.05,4.61,-0.87,5.59
24.54390597343445,-2.51,5.07,-0.35,5.66
24.5525860786438,-3.33,2.6,-0.51,4.25
24.562564849853516,-4.77,1.32,-1.22,5.09
24.636157035827637,-6.86,-0.71,-2.89,7.47
24.6367609500885,-5.47,1.11,-1.72,5.84
24.63769292831421,-3.62,0.68,0.05,3.68
24.639256954193115,-2.47,-1.33,0.55,2.85
24.64042091369629,-2.34,-1.4,0.02,2.72
24.64102292060852,-2.0,-0.6,-0.47,2.14
24.642219066619873,-1.68,0.04,-0.41,1.72
24.643394947052002,-1.48,0.18,-0.33,1.52
24.652424812316895,-0.99,0.31,-0.48,1.14
24.662457942962646,-0.55,0.33,-1.04,1.22
24.736384868621826,-0.28,0.18,-1.34,1.38
24.736998081207275,0.13,-0.04,-1.07,1.07
24.738264083862305,0.58,-0.12,-1.06,1.21
24.739425897598267,0.72,-0.35,-1.26,1.49
24.74056887626648,0.58,-0.32,-1.33,1.48
24.7411789894104,0.26,-0.01,-1.21,1.23
24.74238109588623,-0.18,0.21,-0.97,1.0
24.743529796600342,-0.57,0.27,-0.81,1.02
24.75247287750244,-0.74,0.18,-0.51,0.91
24.762337923049927,-0.56,0.08,-0.17,0.59
24.83600378036499,-0.42,-0.05,-0.05,0.42
24.836622953414917,-0.38,-0.01,0.0,0.38
24.83751392364502,-0.25,-0.01,0.08,0.26
24.838995933532715,-0.2,-0.11,-0.04,0.23
24.840152978897095,-0.22,0.03,-0.26,0.34
24.840767860412598,-0.25,0.02,-0.27,0.36
24.84199595451355,-0.57,-0.02,-0.55,0.79
24.843169927597046,-0.96,0.11,-0.56,1.11
24.852230072021484,-1.01,0.04,-0.04,1.01
24.862161874771118,-0.61,-0.02,0.18,0.63
24.936161994934082,-0.02,-0.01,0.16,0.16
24.937102794647217,0.45,0.01,0.09,0.45
24.937692880630493,0.6,0.06,-0.15,0.62
24.93917179107666,0.6,0.1,-0.59,0.84
24.940268993377686,0.46,0.01,-0.66,0.8
24.94088387489319,0.34,0.0,-0.44,0.55
24.942079067230225,0.0,0.05,-0.2,0.2
24.943209886550903,-0.38,0.2,0.12,0.44
24.95201587677002,-0.61,0.19,0.51,0.81
24.96203899383545,-0.5,0.15,0.63,0.81
25.035789966583252,-0.33,0.29,0.28,0.52
25.03641390800476,-0.29,0.33,-0.05,0.44
25.03732395172119,-0.16,0.25,-0.23,0.37
25.038835048675537,0.07,0.18,-0.2,0.27
25.040013790130615,0.46,0.15,-0.14,0.5
25.04062294960022,0.77,0.12,-0.11,0.78
25.041857957839966,0.93,0.07,-0.05,0.93
25.04302191734314,1.08,0.13,-0.13,1.09
25.0519061088562,1.05,0.3,-0.32,1.13
25.061877965927124,0.85,0.46,-0.15,0.97
25.135514974594116,0.79,0.59,-0.39,1.06
25.13613986968994,0.73,0.61,-0.68,1.16
25.137042999267578,0.91,0.42,-0.58,1.15
25.138571977615356,1.27,0.36,-0.51,1.41
25.13974690437317,1.36,0.53,-0.32,1.49
25.140347957611084,1.49,0.92,-0.05,1.75
25.141552925109863,1.91,1.31,-0.04,2.31
25.142724990844727,2.4,1.76,-0.4,3.0
25.151805877685547,2.89,2.13,-0.76,3.66
25.16174077987671,3.72,2.51,-0.73,4.54
25.235132932662964,3.69,2.75,-0.53,4.63
25.235733032226562,3.59,2.69,-0.88,4.57
25.23632287979126,3.82,2.83,-0.54,4.78
25.23781681060791,4.06,2.99,-0.81,5.1
25.239343881607056,3.86,3.17,-0.68,5.04
25.239929914474487,4.04,3.14,-0.31,5.12
25.241117000579834,4.64,3.06,-0.26,5.56
25.242294788360596,4.77,3.02,0.02,5.64
25.25163984298706,4.8,3.09,0.42,5.72
25.261530876159668,4.83,3.17,0.71,5.82
25.3349928855896,4.88,3.45,0.77,6.02
25.33558177947998,5.19,3.5,0.85,6.31
25.336483001708984,5.84,3.39,0.48,6.76
25.33762288093567,5.99,3.44,0.05,6.9
25.339046001434326,5.72,4.03,-0.35,7.0
25.339635848999023,5.26,4.94,-0.91,7.27
25.340816974639893,4.93,5.67,-1.67,7.69
25.341958045959473,4.63,6.36,-2.35,8.21
25.351243019104004,3.14,7.35,-2.01,8.24
25.361391067504883,1.2,7.81,-0.63,7.92
25.37141180038452,0.11,8.12,-1.78,8.31
25.43543291091919,0.94,7.08,-3.34,7.88
25.436336994171143,2.67,5.97,-3.35,7.34
25.43752908706665,6.09,5.86,-3.1,9.0
25.439029932022095,8.46,2.52,-2.69,9.22
25.43962597846985,6.65,-2.03,-1.84,7.19
25.440849781036377,-0.41,0.33,-1.62,1.7
25.442033767700195,-3.16,2.63,-5.09,6.54
25.451278924942017,2.63,1.77,-5.98,6.76
25.46132493019104,8.2,0.13,-3.26,8.82
25.471373081207275,10.68,-1.26,-0.99,10.79
25.534772872924805,10.43,-1.95,0.72,10.63
25.535363912582397,8.77,-2.35,1.78,9.25
25.536884784698486,6.83,-2.91,2.36,7.79
25.538052082061768,5.35,-3.53,2.5,6.87
25.538962841033936,4.98,-3.95,1.99,6.66
25.540146827697754,5.01,-4.29,1.35,6.73
25.54132080078125,5.03,-4.47,0.76,6.77
25.551182985305786,5.19,-4.35,0.31,6.77
25.561192989349365,5.42,-3.89,0.53,6.69
25.57112693786621,5.66,-3.39,1.14,6.69
25.63486099243164,5.42,-2.64,1.91,6.32
25.63547396659851,4.45,-1.97,2.74,5.58
25.63695478439331,3.29,-1.52,3.37,4.94
25.638094902038574,2.92,-0.73,3.6,4.69
25.639023780822754,2.78,0.66,3.01,4.15
25.64021897315979,1.79,2.0,0.68,2.76
25.641413927078247,0.24,2.96,-2.42,3.83
25.65103006362915,-2.05,4.2,-3.66,5.93
25.66105604171753,-5.35,5.85,-3.22,8.55
25.671032905578613,-8.72,6.8,-3.74,11.67
25.73653292655945,-10.29,6.15,-4.33,12.74
25.737317085266113,-9.67,4.97,-3.2,11.33
25.73879384994507,-8.45,3.84,-1.72,9.43
25.73995089530945,-8.21,3.5,-2.11,9.17
25.740537881851196,-9.62,4.78,-4.05,11.48
25.741739988327026,-11.24,6.38,-4.07,13.55
25.742916107177734,-11.6,5.96,-2.21,13.22
25.750829935073853,-10.75,3.14,-1.12,11.25
25.760843992233276,-9.8,0.0,-0.81,9.83
25.770790100097656,-9.5,-0.99,-1.02,9.6
25.83638095855713,-10.02,-0.49,-1.46,10.13
25.837178945541382,-10.37,-0.16,-1.51,10.48
25.838314056396484,-9.92,-0.53,-1.29,10.01
25.83968210220337,-9.13,-1.26,-1.5,9.33
25.840274810791016,-8.28,-1.73,-1.57,8.6
25.841479778289795,-6.78,4.24,-1.74,8.18
25.84266495704651,-6.53,8.1,-2.79,10.77
25.850804805755615,-5.43,1.21,-5.81,8.04
25.860814094543457,7.9,-2.65,-0.12,8.33
25.87077498435974,15.67,-1.99,9.02,18.18
25.937149047851562,10.02,0.71,7.31,12.42
25.93774700164795,-1.46,2.37,1.55,3.18
25.939117908477783,-10.22,1.65,-1.47,10.45
25.940316915512085,-9.53,4.1,-0.98,10.42
25.94093084335327,-6.59,8.86,0.31,11.04
25.942173957824707,-5.74,7.77,0.42,9.66
25.943394899368286,-5.36,2.42,-0.96,5.95
25.950639963150024,-5.38,-1.05,-1.69,5.73
25.960680961608887,-4.1,0.19,0.33,4.11
25.97062397003174,-3.75,-1.24,1.31,4.16
26.03713893890381,-3.66,-2.52,0.76,4.5
26.037734985351562,-3.73,-1.77,-0.07,4.12
26.039097785949707,-2.94,-0.67,-0.89,3.14
26.040251970291138,-2.47,0.45,-1.25,2.8
26.040843963623047,-2.15,0.77,-1.86,2.94
26.042154788970947,-1.81,0.65,-2.62,3.25
26.04345178604126,-1.28,0.66,-2.81,3.15
26.050524950027466,-0.65,0.68,-2.32,2.5
26.121063947677612,-0.26,0.39,-1.56,1.62
26.121680974960327,-0.15,0.05,-1.38,1.38
26.122621059417725,-0.01,-0.46,-1.13,1.22
26.12321186065674,0.09,-0.58,-0.78,0.97
26.12434482574463,0.25,-0.1,-0.58,0.63
26.125733852386475,0.32,0.11,0.04,0.34
26.126369953155518,0.14,0.02,0.87,0.88
26.13043975830078,0.22,0.05,1.06,1.08
26.140400886535645,0.45,0.04,1.01,1.1
26.1503689289093,0.31,-0.04,0.49,0.58
26.21955108642578,-0.09,-0.05,-0.32,0.33
26.220179080963135,-0.43,0.1,-0.9,1.0
26.220746994018555,-0.68,0.1,-1.24,1.41
26.221292972564697,-0.85,-0.02,-1.04,1.34
26.222774982452393,-0.92,-0.2,-0.59,1.11
26.223941802978516,-0.86,-0.23,-0.21,0.91
26.224547863006592,-0.68,-0.01,0.26,0.72
26.230276107788086,-0.47,0.08,0.54,0.72
26.240156888961792,-0.15,0.1,0.41,0.44
26.250163078308105,0.11,0.04,0.1,0.15
26.320750951766968,0.27,-0.05,-0.23,0.35
26.321327924728394,0.27,0.02,-0.6,0.65
26.321879863739014,-0.09,0.05,-0.82,0.82
26.322828769683838,-0.58,-0.05,-0.97,1.13
26.32400393486023,-0.77,-0.05,-0.92,1.2
26.325467109680176,-0.54,0.0,-0.6,0.8
26.326051950454712,-0.28,0.01,-0.39,0.48
26.330168962478638,0.0,0.1,-0.36,0.37
26.339951992034912,0.21,0.23,-0.77,0.83
26.350076913833618,0.35,0.08,-0.56,0.66
26.420670986175537,0.47,-0.19,-0.24,0.56
26.421266078948975,0.68,-0.13,-0.39,0.79
26.42185401916504,0.7,0.07,-0.4,0.8
26.422811031341553,0.36,0.42,-0.11,0.56
26.423937797546387,0.51,0.7,0.44,0.97
26.425363063812256,0.92,0.77,0.39,1.26
26.42597007751465,1.46,0.66,0.27,1.62
26.4300217628479,2.24,0.35,0.2,2.27
26.439763069152832,3.06,0.02,0.2,3.06
26.44993782043457,3.58,0.02,0.04,3.58
26.521761894226074,3.83,0.42,0.03,3.85
26.522390842437744,4.01,0.84,0.04,4.09
26.523411989212036,3.83,1.18,-0.34,4.02
26.524023056030273,3.54,1.38,-0.63,3.85
26.525636911392212,3.59,1.55,-0.42,3.93
26.526795864105225,3.48,1.76,-0.87,3.99
26.527382850646973,3.55,2.25,-0.88,4.29
26.529833793640137,3.82,3.48,-0.89,5.24
26.53963589668274,3.72,3.73,-0.27,5.27
26.549779891967773,3.39,3.59,-0.14,4.93
26.619697093963623,3.69,3.49,0.25,5.08
26.620294094085693,4.06,3.05,0.24,5.08
26.62087392807007,4.18,2.79,0.39,5.04
26.62148094177246,4.5,3.06,0.15,5.44
26.622992038726807,5.03,3.5,-0.29,6.13
26.624116897583008,5.54,4.09,-0.21,6.88
26.625045776367188,5.74,4.47,-0.2,7.27
26.62968683242798,5.45,4.81,-0.29,7.27
26.63957190513611,4.82,4.97,-0.25,6.92
26.64967679977417,3.74,4.66,-0.39,5.98
26.71938991546631,2.68,4.79,-0.43,5.5
26.71998691558838,1.97,6.01,-0.58,6.35
26.720589876174927,2.61,6.64,-1.64,7.32
26.721170902252197,3.16,6.55,-2.32,7.63
26.722362995147705,0.91,7.21,-1.17,7.36
26.723869800567627,-0.68,7.87,-2.7,8.34
26.724812030792236,1.4,7.54,-4.59,8.93
26.72954297065735,4.94,6.35,-3.28,8.68
26.73965883255005,7.89,4.59,-1.88,9.31
26.749449968338013,9.81,2.17,-0.91,10.08
26.8187038898468,7.38,-1.34,-0.04,7.5
26.819300889968872,-1.14,-2.23,-0.26,2.51
26.819891929626465,-6.74,-1.26,-3.51,7.7
26.820475101470947,-1.83,1.27,-4.83,5.31
26.821650981903076,6.53,-0.21,-3.35,7.34
26.823173999786377,10.1,-1.4,-1.19,10.26
26.823765993118286,10.28,-1.79,0.55,10.44
26.82945990562439,8.46,-1.96,1.47,8.8
26.839324951171875,6.27,-2.62,1.88,7.05
26.849406957626343,4.9,-3.59,1.73,6.31
26.919338941574097,4.57,-4.18,1.35,6.33
26.919935941696167,4.83,-4.01,1.09,6.37
26.920526027679443,4.82,-3.55,0.88,6.05
26.921119928359985,4.4,-3.05,0.76,5.4
26.922249794006348,3.81,-2.86,0.73,4.81
26.92372179031372,3.57,-2.93,0.8,4.68
26.924667835235596,3.56,-2.83,0.95,4.64
26.929279804229736,3.39,-2.45,1.31,4.38
26.9393367767334,3.16,-1.95,1.8,4.12
26.94927978515625,3.15,-1.4,2.27,4.12
27.019340991973877,3.52,-0.96,2.57,4.46
27.019933938980103,3.28,-0.24,2.32,4.02
27.020566940307617,1.46,0.97,1.08,2.05
27.02115797996521,-1.25,1.73,-0.5,2.19
27.022331953048706,-2.78,2.01,-1.47,3.73
27.024208068847656,-2.78,2.99,-1.39,4.31
27.024780988693237,-2.58,4.18,-0.7,4.96
27.029146909713745,-2.86,5.1,-0.58,5.87
27.03911590576172,-4.01,5.32,-1.49,6.82
27.049089908599854,-5.55,5.13,-2.79,8.05
27.120240926742554,-6.77,5.39,-3.91,9.49
27.12084197998047,-8.46,6.6,-4.77,11.74
27.12144184112549,-10.54,7.23,-5.36,13.85
27.122029781341553,-12.17,6.02,-5.19,14.53
27.123555898666382,-12.04,2.98,-4.8,13.29
27.12504005432129,-10.29,-0.05,-3.71,10.93
27.125648021697998,-9.69,-0.27,-2.77,10.08
27.129015922546387,-10.41,-0.63,-2.37,10.69
27.13895606994629,-10.83,-1.9,-1.89,11.15
27.148807048797607,-10.53,-2.32,-1.8,10.93
27.2206609249115,-9.56,-2.01,-2.33,10.04
27.221288919448853,-7.29,2.85,-2.89,8.34
27.221872806549072,-4.49,8.48,-2.87,10.01
27.222460985183716,-7.5,2.34,-3.75,8.7
27.22429084777832,-5.47,-1.71,-2.61,6.29
27.225454807281494,7.28,0.48,4.06,8.34
27.226068019866943,14.09,2.88,9.98,17.5
27.22892189025879,7.55,2.7,5.1,9.5
27.238931894302368,-3.32,2.11,0.2,3.93
27.24903678894043,-8.75,1.34,-0.92,8.89
27.321183919906616,-7.52,3.01,-1.3,8.2
27.32178497314453,-5.41,6.11,-2.29,8.47
27.32237696647644,-4.14,4.56,-1.69,6.38
27.323020935058594,-3.13,1.4,-0.12,3.43
27.32485795021057,-4.25,-1.5,-1.41,4.72
27.32599401473999,-4.98,-1.38,-2.18,5.6
27.326580047607422,-4.43,0.33,-0.69,4.49
27.328793048858643,-4.19,-0.78,-0.19,4.26
27.33869194984436,-3.42,-1.11,-1.03,3.74
27.34875202178955,-2.71,-0.38,-2.02,3.4
27.421803951263428,-2.54,0.29,-0.86,2.69
27.422395944595337,-2.61,0.21,0.08,2.61
27.42297601699829,-2.62,0.25,-0.07,2.63
27.424240112304688,-2.36,0.47,0.16,2.41
27.425368785858154,-1.84,0.48,0.51,1.96
27.426480770111084,-1.3,0.26,0.48,1.4
27.42706298828125,-1.05,-0.03,0.09,1.05
27.428558826446533,-0.97,-0.03,-0.84,1.28
27.438543796539307,-0.82,0.18,-1.45,1.67
27.448503971099854,-0.54,0.11,-1.52,1.61
27.520904064178467,-0.34,0.04,-2.09,2.11
27.521514892578125,-0.56,0.0,-2.32,2.38
27.522130966186523,-0.77,-0.1,-1.67,1.84
27.52272605895996,-0.5,-0.15,-0.81,0.96
27.524592876434326,-0.23,-0.03,0.2,0.3
27.525793075561523,-0.19,0.19,0.58,0.63
27.52638006210327,-0.08,0.3,0.25,0.39
27.528373956680298,0.1,0.18,-0.14,0.24
27.53836679458618,0.21,0.05,-0.49,0.53
27.54836893081665,0.23,-0.04,-0.66,0.7
27.621607780456543,0.34,0.06,-0.65,0.73
27.622212886810303,0.36,0.02,-0.88,0.95
27.622838020324707,0.42,0.01,-1.35,1.41
27.624104976654053,0.74,-0.14,-1.2,1.41
27.62527084350586,0.81,-0.56,-0.5,1.1
27.626460075378418,0.67,-0.45,-0.39,0.89
27.62705898284912,0.58,-0.09,-0.26,0.64
27.628275871276855,0.52,0.09,-0.13,0.54
27.6383318901062,0.59,0.02,-0.19,0.62
27.648276805877686,0.69,-0.27,-0.02,0.74
27.720738887786865,0.67,-0.42,-0.16,0.8
27.721343994140625,0.61,-0.34,-0.61,0.92
27.721939086914062,0.53,-0.29,-0.65,0.88
27.7225239276886,0.29,-0.11,-0.75,0.81
27.72434902191162,-0.03,0.17,-0.68,0.7
27.725517988204956,-0.45,0.33,-0.42,0.69
27.72611689567566,-0.66,0.29,0.17,0.74
27.728179931640625,-0.73,0.34,0.64,1.02
27.738062858581543,-0.54,0.34,0.81,1.03
27.748116970062256,0.01,0.47,0.85,0.97
27.82063102722168,0.65,0.56,0.91,1.25
27.821227073669434,1.22,0.62,0.66,1.51
27.821830987930298,1.6,0.52,0.26,1.7
27.822412967681885,2.19,0.17,0.03,2.19
27.8242449760437,2.9,0.07,-0.36,2.92
27.825413942337036,3.4,0.24,-0.53,3.44
27.826035976409912,3.97,0.57,-0.07,4.01
27.828080892562866,4.31,0.88,-0.07,4.39
27.83797597885132,4.27,1.11,-0.04,4.41
27.848057985305786,4.11,1.31,0.09,4.31
27.92047882080078,3.73,1.74,0.11,4.11
27.921074867248535,3.2,2.36,-0.56,4.01
27.921649932861328,3.2,3.7,-0.8,4.95
27.92219591140747,3.7,3.74,0.03,5.26
27.92405390739441,4.61,3.94,-0.61,6.09
27.925221920013428,4.94,4.55,-0.77,6.76
27.925821781158447,4.56,4.32,-0.15,6.28
27.92788600921631,3.93,3.97,0.24,5.59
27.93784499168396,3.84,4.01,0.29,5.55
27.947853088378906,4.4,4.51,0.21,6.3
28.020458936691284,5.41,5.21,0.06,7.51
28.021052837371826,5.86,4.98,-0.08,7.69
28.02163600921631,5.53,4.71,-0.38,7.27
28.02223491668701,4.44,4.3,-0.16,6.18
28.024044036865234,2.94,4.52,-0.25,5.39
28.025202989578247,1.95,6.11,-0.56,6.43
28.025805950164795,2.15,7.8,-1.93,8.31
28.0277578830719,3.62,7.63,-3.01,8.96
28.03767490386963,2.63,7.3,-2.42,8.12
28.04768705368042,-0.76,7.37,-2.3,7.75
28.12029194831848,-0.69,7.7,-4.41,8.9
28.12092399597168,2.9,6.36,-3.67,7.89
28.121530055999756,6.38,5.07,-1.22,8.24
28.12215280532837,8.79,2.53,0.04,9.14
28.12359380722046,7.81,-2.0,0.04,8.06
28.125067949295044,2.28,-3.4,0.13,4.09
28.125650882720947,-4.16,-3.51,-2.39,5.94
28.127634048461914,-3.11,0.6,-4.78,5.73
28.137667894363403,4.87,0.54,-4.5,6.65
28.147536993026733,9.68,-1.52,-2.42,10.09
28.22196102142334,11.05,-2.13,-0.41,11.26
28.222890853881836,10.18,-2.32,1.13,10.5
28.223479986190796,8.2,-2.68,2.29,8.92
28.224441051483154,6.55,-3.34,2.58,7.79
28.225589990615845,5.81,-3.95,2.34,7.4
28.226703882217407,5.88,-3.92,2.03,7.35
28.227345943450928,5.86,-3.52,1.66,7.03
28.228496074676514,5.45,-3.25,1.27,6.47
28.237374782562256,4.65,-3.13,1.1,5.71
28.247490882873535,3.83,-3.22,1.0,5.1
28.322069883346558,3.28,-3.36,0.94,4.78
28.322990894317627,3.08,-3.17,1.12,4.55
28.323579788208008,2.93,-2.72,1.61,4.3
28.32450795173645,2.8,-2.06,2.1,4.06
28.325746059417725,2.97,-1.24,2.69,4.19
28.326951026916504,3.4,-0.2,3.19,4.66
28.327558994293213,2.53,1.76,2.63,4.05
28.32884192466736,-0.14,3.72,0.47,3.75
28.33727788925171,-2.92,4.83,-2.02,5.99
28.347383975982666,-4.02,6.38,-3.2,8.19
28.357232093811035,-4.55,9.11,-2.97,10.6
28.423665046691895,-6.24,10.61,-2.74,12.61
28.424627780914307,-7.98,9.55,-3.28,12.87
28.425239086151123,-8.66,6.93,-3.04,11.5
28.426437854766846,-8.89,4.76,-2.99,10.51
28.427591800689697,-9.61,4.08,-4.09,11.21
28.42817997932434,-10.49,4.29,-4.7,12.26
28.429375886917114,-10.32,2.93,-3.93,11.42
28.437176942825317,-10.16,-0.05,-2.0,10.35
28.447175979614258,-10.39,-1.99,-0.71,10.6
28.457210063934326,-10.7,-2.47,-0.84,11.01
28.523900985717773,-10.32,-2.11,-2.02,10.72
28.524890899658203,-9.0,-0.13,-3.19,9.54
28.525498867034912,-6.14,6.54,-3.79,9.73
28.526723861694336,-5.8,4.53,-3.45,8.12
28.52794599533081,-8.48,-0.37,-3.41,9.14
28.528543949127197,-6.83,-1.92,-2.82,7.63
28.52976894378662,3.22,1.22,0.95,3.57
28.53701400756836,10.92,3.75,6.77,13.38
28.54698610305786,7.16,2.85,4.78,9.06
28.557048797607422,-2.61,0.88,-0.54,2.8
28.62470293045044,-9.09,0.85,-2.6,9.49
28.625308990478516,-7.89,2.9,-2.43,8.75
28.62591791152954,-5.84,6.36,-1.78,8.81
28.627161979675293,-5.4,5.35,-1.19,7.69
28.628400802612305,-5.34,1.53,-0.87,5.62
28.629014015197754,-6.59,-1.64,-2.59,7.26
28.630268096923828,-5.91,0.72,-1.88,6.24
28.636915922164917,-5.3,1.3,0.23,5.46
28.646888971328735,-4.89,-0.88,0.48,4.99
28.656846046447754,-4.28,-1.28,-0.32,4.47
28.724793910980225,-2.58,-0.42,-0.07,2.61
28.72578001022339,-1.39,0.01,0.47,1.46
28.726379871368408,-1.31,-0.25,0.26,1.35
28.727559089660645,-1.56,-0.13,-0.29,1.59
28.728667974472046,-1.17,0.31,-0.36,1.26
28.72927498817444,-0.15,0.39,-0.4,0.57
28.73047399520874,0.77,0.18,-0.79,1.11
28.736711025238037,0.81,0.0,-1.22,1.46
28.746761798858643,0.33,-0.04,-1.48,1.51
28.75669002532959,-0.02,0.09,-1.26,1.26
28.82505702972412,0.09,0.06,-0.84,0.84
28.826004028320312,0.3,-0.15,-0.84,0.9
28.82656192779541,0.38,-0.23,-1.02,1.11
28.827740907669067,0.48,-0.13,-0.87,1.0
28.82888698577881,0.67,-0.11,-0.53,0.86
28.829473972320557,0.64,-0.2,-0.19,0.69
28.830681800842285,0.35,-0.23,0.13,0.43
28.83652687072754,-0.05,-0.13,0.37,0.39
28.846553802490234,-0.58,0.07,0.26,0.63
28.85658597946167,-1.26,0.07,-0.04,1.26
28.92524480819702,-1.67,-0.11,-0.53,1.75
28.926249980926514,-1.72,0.0,-0.65,1.83
28.92685890197754,-1.49,0.12,-0.66,1.63
28.928013801574707,-0.89,0.09,-0.98,1.32
28.929110050201416,-0.24,0.09,-1.13,1.15
28.92966389656067,0.02,0.17,-1.23,1.24
28.93083691596985,0.14,0.0,-1.2,1.2
28.93646001815796,0.12,-0.11,-0.98,0.99
28.946518898010254,0.02,0.03,-0.97,0.97
28.956450939178467,0.08,0.09,-0.85,0.85
29.023444890975952,0.06,0.2,-0.63,0.66
29.024054050445557,-0.1,0.37,-0.03,0.38
29.024964809417725,-0.12,0.27,0.78,0.83
29.02613592147827,-0.1,0.19,0.7,0.73
29.027297019958496,0.16,0.18,0.62,0.66
29.02787494659424,0.48,0.09,0.45,0.66
29.029057025909424,0.47,0.03,0.18,0.5
29.036277770996094,0.43,-0.03,-0.01,0.43
29.046374797821045,0.45,-0.07,-0.16,0.48
29.056285858154297,0.3,-0.04,-0.33,0.44
29.123249053955078,0.14,-0.01,-0.14,0.19
29.123859882354736,0.19,0.07,0.12,0.23
29.12444305419922,0.35,0.08,0.24,0.43
29.125971794128418,0.5,0.06,0.18,0.53
29.127100944519043,0.6,0.06,-0.05,0.6
29.127674102783203,0.69,0.11,-0.25,0.74
29.128875970840454,0.89,0.17,-0.36,0.97
29.136181831359863,1.19,0.24,-0.38,1.27
29.14620089530945,1.6,0.33,-0.39,1.67
29.15620493888855,2.04,0.45,-0.46,2.13
29.222880840301514,2.49,0.42,-0.57,2.58
29.223483085632324,2.94,0.43,-0.66,3.04
29.224076986312866,3.2,0.6,-0.77,3.34
29.225552082061768,3.4,1.04,-0.86,3.65
29.226709842681885,3.66,1.31,-0.47,3.91
29.227320909500122,3.77,1.48,-0.12,4.05
29.228475093841553,3.59,2.2,-0.52,4.24
29.236061096191406,3.65,2.93,-1.02,4.79
29.24602508544922,3.8,4.18,-0.98,5.73
29.25600576400757,3.72,4.14,0.01,5.56
29.322693824768066,3.51,3.44,0.19,4.91
29.32329487800598,3.36,3.3,0.86,4.78
29.32387399673462,3.52,3.13,0.78,4.77
29.325398921966553,3.94,3.18,0.52,5.08
29.326552867889404,4.35,3.53,0.5,5.62
29.327151775360107,4.61,3.77,0.17,5.95
29.328330039978027,4.98,4.12,0.23,6.46
29.335876941680908,5.11,4.22,0.14,6.62
29.345948934555054,4.92,4.24,0.01,6.49
29.355807781219482,4.45,4.28,-0.17,6.17
29.423192024230957,3.91,4.03,-0.27,5.62
29.42379593849182,3.7,4.12,-0.13,5.53
29.424380779266357,3.81,4.83,-0.71,6.19
29.42589497566223,4.92,5.99,-1.86,7.97
29.42705988883972,5.57,6.9,-2.19,9.13
29.427665948867798,3.64,7.89,-1.75,8.86
29.42886209487915,0.08,8.86,-2.53,9.21
29.435739994049072,0.41,8.96,-4.84,10.19
29.445796966552734,4.2,7.11,-3.93,9.14
29.45570397377014,7.02,5.2,-1.81,8.92
29.522178888320923,9.25,3.95,-1.11,10.11
29.52279281616211,9.03,-0.05,-0.94,9.07
29.52341079711914,3.85,-2.83,-0.64,4.82
29.524601936340332,-4.48,-2.59,-1.53,5.39
29.526097774505615,-7.21,-0.1,-4.88,8.7
29.526700019836426,0.61,0.31,-5.24,5.28
29.52794599533081,7.69,-0.86,-2.57,8.15
29.53556203842163,10.65,-1.51,-0.12,10.75
29.54564380645752,10.43,-1.94,1.04,10.65
29.555593013763428,8.42,-2.69,1.28,8.93
29.622524976730347,6.21,-4.12,1.51,7.6
29.623132944107056,5.01,-5.1,1.47,7.29
29.623732089996338,5.02,-5.22,1.11,7.32
29.624931812286377,5.44,-4.74,0.82,7.26
29.626429080963135,5.48,-4.01,0.7,6.82
29.627014875411987,5.14,-3.43,0.41,6.19
29.628238916397095,4.6,-3.18,0.22,5.59
29.63547396659851,3.85,-2.89,0.31,4.82
29.645577907562256,2.91,-2.31,0.86,3.81
29.655447006225586,2.17,-1.64,1.62,3.16
29.7221040725708,1.89,-0.78,2.37,3.13
29.722705841064453,2.08,0.28,2.66,3.38
29.72328805923462,2.3,1.18,2.27,3.44
29.724421977996826,0.91,2.68,1.08,3.02
29.725897789001465,-2.3,4.39,-0.55,4.98
29.726490020751953,-4.97,5.83,-2.21,7.97
29.727649927139282,-6.12,7.86,-3.04,10.41
29.735383987426758,-6.46,8.85,-2.64,11.27
29.745361804962158,-6.45,7.93,-2.41,10.5
29.755374908447266,-6.73,6.21,-2.25,9.42
29.82303476333618,-7.79,5.21,-2.78,9.77
29.823647022247314,-9.64,5.5,-3.93,11.77
29.824254989624023,-11.18,5.98,-4.78,13.54
29.825797080993652,-11.51,3.64,-4.13,12.75
29.826979875564575,-11.52,0.8,-2.39,11.79
29.827579975128174,-11.55,-1.22,-1.18,11.67
29.828759908676147,-11.31,-2.52,-1.18,11.64
29.83518409729004,-10.49,-2.56,-1.9,10.96
29.845234870910645,-9.66,-1.77,-2.5,10.13
29.855127811431885,-8.97,-1.01,-2.99,9.5
29.923648834228516,-8.95,-0.81,-3.62,9.68
29.924288988113403,-9.57,-0.51,-4.01,10.38
29.92490577697754,-7.04,6.09,-4.12,10.17
29.926433086395264,-5.55,6.82,-3.91,9.62
29.92757797241211,-0.09,1.21,-3.49,3.69
29.928167819976807,11.63,-1.24,6.07,13.17
29.9293429851532,11.7,-1.09,9.38,15.03
29.935061931610107,3.52,1.2,2.79,4.64
29.945098876953125,-5.77,0.64,-1.35,5.96
29.95507001876831,-8.8,0.3,-1.49,8.93
30.02392578125,-6.25,2.0,-1.51,6.73
30.024549961090088,-3.77,4.71,-1.14,6.13
30.025145053863525,-3.05,6.66,-0.94,7.38
30.026670932769775,-3.04,4.14,-1.24,5.28
30.02782106399536,-3.74,1.56,-0.42,4.07
30.028430938720703,-5.34,-0.19,-2.85,6.05
30.029656887054443,-5.77,-0.21,-3.28,6.64
30.034931898117065,-4.23,0.54,-1.32,4.46
30.0448739528656,-2.75,-0.88,-0.63,2.95
30.054744958877563,-2.17,-1.27,-1.1,2.74
30.12425184249878,-1.58,-0.66,-1.36,2.18
30.124881982803345,-1.12,-0.23,-0.83,1.41
30.12547206878662,-0.97,-0.06,-0.35,1.03
30.127010822296143,-1.07,0.35,0.02,1.12
30.12819004058838,-1.06,0.6,0.18,1.23
30.12878704071045,-0.99,0.48,0.2,1.11
30.130359888076782,-0.75,0.11,0.21,0.78
30.134785890579224,-0.36,-0.28,0.2,0.49
30.14475393295288,0.11,-0.43,0.11,0.45
30.15461778640747,0.57,-0.31,-0.02,0.64
